right,left,explain.started,explain.stopped,key_resp_3.keys,key_resp_3.rt,key_resp_3.duration,participant,session,date,expName,psychopyVersion,OS,frameRate,study_id,explain_2.started,explain_2.stopped,key_resp_4.keys,key_resp_4.rt,key_resp_4.duration,explain_3.started,explain_3.stopped,key_resp_5.keys,key_resp_5.rt,key_resp_5.duration,fixation.started,fixation.stopped,practice.started,practice.stopped,response.started,response.stopped,key_resp.keys,key_resp.rt,key_resp.duration,feedback.started,feedback.stopped,trials_2.thisRepN,trials_2.thisTrialN,trials_2.thisN,trials_2.thisIndex,trials_2.ran,white_ratio,explain_4.started,explain_4.stopped,key_resp_6.keys,key_resp_6.rt,key_resp_6.duration,dotDisplay.started,dotDisplay.stopped,ITI.started,polygon_1.pos,polygon_1.color,polygon_2.pos,polygon_2.color,polygon_3.pos,polygon_3.color,polygon_4.pos,polygon_4.color,polygon_5.pos,polygon_5.color,polygon_6.pos,polygon_6.color,polygon_7.pos,polygon_7.color,polygon_8.pos,polygon_8.color,polygon_9.pos,polygon_9.color,polygon_10.pos,polygon_10.color,polygon_11.pos,polygon_11.color,polygon_12.pos,polygon_12.color,polygon_13.pos,polygon_13.color,polygon_14.pos,polygon_14.color,polygon_15.pos,polygon_15.color,polygon_16.pos,polygon_16.color,polygon_17.pos,polygon_17.color,polygon_18.pos,polygon_18.color,polygon_19.pos,polygon_19.color,polygon_20.pos,polygon_20.color,polygon_21.pos,polygon_21.color,polygon_22.pos,polygon_22.color,polygon_23.pos,polygon_23.color,polygon_24.pos,polygon_24.color,polygon_25.pos,polygon_25.color,polygon_26.pos,polygon_26.color,polygon_27.pos,polygon_27.color,polygon_28.pos,polygon_28.color,polygon_29.pos,polygon_29.color,polygon_30.pos,polygon_30.color,polygon_31.pos,polygon_31.color,polygon_32.pos,polygon_32.color,dot_size,ITI.stopped,trials.thisRepN,trials.thisTrialN,trials.thisN,trials.thisIndex,trials.ran,break_2.started,break_2.stopped,trials_3.thisRepN,trials_3.thisTrialN,trials_3.thisN,trials_3.thisIndex,trials_3.ran
subject chose black,subject chose white,0.0003,84.8322,space,60.2214,,55a2159bfdf99b3cec08f1a9,682f0fc0fbab2d8779208fc4,2025-05-22_13h51.33.490,cuing_paradigm_dot,2024.1.5,Win32,142.8571429,682d573fa47f1360d1451895,,,,,,,,,,,,,,,,,,,,,,,,,,,,,,,,,,,,,,,,,,,,,,,,,,,,,,,,,,,,,,,,,,,,,,,,,,,,,,,,,,,,,,,,,,,,,,,,,,,,,,,,,,,,,,,,,
,,,,,,,55a2159bfdf99b3cec08f1a9,682f0fc0fbab2d8779208fc4,2025-05-22_13h51.33.490,cuing_paradigm_dot,2024.1.5,Win32,142.8571429,682d573fa47f1360d1451895,84.8323,119.5025,space,4.6614,,,,,,,,,,,,,,,,,,,,,,,,,,,,,,,,,,,,,,,,,,,,,,,,,,,,,,,,,,,,,,,,,,,,,,,,,,,,,,,,,,,,,,,,,,,,,,,,,,,,,,,,,,,,,
,,,,,,,55a2159bfdf99b3cec08f1a9,682f0fc0fbab2d8779208fc4,2025-05-22_13h51.33.490,cuing_paradigm_dot,2024.1.5,Win32,142.8571429,682d573fa47f1360d1451895,,,,,,119.5027,124.1975,space,1.6848,,,,,,,,,,,,,,,,,,,,,,,,,,,,,,,,,,,,,,,,,,,,,,,,,,,,,,,,,,,,,,,,,,,,,,,,,,,,,,,,,,,,,,,,,,,,,,,,,,,,,,,,
,,,,,,,55a2159bfdf99b3cec08f1a9,682f0fc0fbab2d8779208fc4,2025-05-22_13h51.33.490,cuing_paradigm_dot,2024.1.5,Win32,142.8571429,682d573fa47f1360d1451895,,,,,,,,,,,124.2071,124.7044,124.7045,124.9546,124.9547,125.517,right,0.5522,,125.5171,126.6143,0,0,0,1,1,0.2,,,,,,,,,,,,,,,,,,,,,,,,,,,,,,,,,,,,,,,,,,,,,,,,,,,,,,,,,,,,,,,,,,,,,,,,,,,,,,,,,,,,,,
,,,,,,,55a2159bfdf99b3cec08f1a9,682f0fc0fbab2d8779208fc4,2025-05-22_13h51.33.490,cuing_paradigm_dot,2024.1.5,Win32,142.8571429,682d573fa47f1360d1451895,,,,,,,,,,,126.6147,127.1143,127.1143,127.3644,127.3644,127.5866,left,0.2082,,127.5866,128.6838,0,1,1,0,1,0.8,,,,,,,,,,,,,,,,,,,,,,,,,,,,,,,,,,,,,,,,,,,,,,,,,,,,,,,,,,,,,,,,,,,,,,,,,,,,,,,,,,,,,,
,,,,,,,55a2159bfdf99b3cec08f1a9,682f0fc0fbab2d8779208fc4,2025-05-22_13h51.33.490,cuing_paradigm_dot,2024.1.5,Win32,142.8571429,682d573fa47f1360d1451895,,,,,,,,,,,,,,,,,,,,,,,,,,,,128.684,131.9067,space,0.2221,,,,,,,,,,,,,,,,,,,,,,,,,,,,,,,,,,,,,,,,,,,,,,,,,,,,,,,,,,,,,,,,,,,,,,,,,,,,,,,,,,
,,,,,,,55a2159bfdf99b3cec08f1a9,682f0fc0fbab2d8779208fc4,2025-05-22_13h51.33.490,cuing_paradigm_dot,2024.1.5,Win32,142.8571429,682d573fa47f1360d1451895,,,,,,,,,,,131.9124,132.4135,,,132.6638,133.1713,right,0.5002,,,,,,,,,0.55,,,,,,132.4137,132.6638,133.1714,"[-0.15257207635552883,-0.028745400641997747]","[-1,-1,-1]","[0.09871308977556148,-0.08211479841809859]","[-1,-1,-1]","[-0.13680343876017428,0.009236921236008604]","[-1,-1,-1]","[0.09460625495358739,-0.1351302739861854]","[1,1,1]","[-0.15837693814983203,-0.06873061303058714]","[-1,-1,-1]","[0.0739044973246992,0.07182151720982925]","[-1,-1,-1]","[-0.043388395655008724,-0.14156535539698945]","[1,1,1]","[0.17944831103184314,0.004204754877742834]","[1,1,1]","[0.018383950624895184,-0.1904686126567619]","[1,1,1]","[-0.06583888620172751,-0.07284816673776599]","[1,1,1]","[0.1722640197339328,0.051220042246641555]","[-1,-1,-1]","[0.09847229774921626,0.03320215771637326]","[-1,-1,-1]","[0.062043657218958215,0.12249790869023969]","[-1,-1,-1]","[-0.17847175055657488,0.04765336051468033]","[1,1,1]","[0.0244909845482004,0.1403374927770872]","[-1,-1,-1]","[-0.08116546102059859,0.02229003216492258]","[-1,-1,-1]","[-0.11013543642580462,0.11144230556765457]","[1,1,1]","[0.14974380569641035,0.11739624198969065]","[-1,-1,-1]","[0.14626220169500012,-0.03254631158299101]","[1,1,1]","[-0.0760445971409256,0.1624821937197395]","[1,1,1]","[-0.06556096487024252,0.10675968116350595]","[-1,-1,-1]","[0.0440303873122887,0.01309534106532592]","[1,1,1]","[0.040796570469079724,-0.033646967519789454]","[1,1,1]","[0.04712028674384251,-0.15059636493923817]","[1,1,1]","[-0.12164246973672944,-0.15766874271876385]","[-1,-1,-1]","[0.16939767249224333,-0.08065035516612193]","[1,1,1]","[0.010787908907480024,0.18580455909475796]","[1,1,1]","[0.028310973515215197,0.05554874593001837]","[1,1,1]","[-0.059351249033862984,-0.1862110097073816]","[1,1,1]","[-0.044224313815414557,-0.03842842890534724]","[1,1,1]","[-0.04462397014760753,0.03915342214916398]","[1,1,1]","[-0.11365008014459382,-0.11830675929949547]","[-1,-1,-1]","[0.02,0.02]",134.2679,0,0,0,121,1,,,,,,,
,,,,,,,55a2159bfdf99b3cec08f1a9,682f0fc0fbab2d8779208fc4,2025-05-22_13h51.33.490,cuing_paradigm_dot,2024.1.5,Win32,142.8571429,682d573fa47f1360d1451895,,,,,,,,,,,134.2681,134.7679,,,135.0181,135.4624,left,0.4322,,,,,,,,,0.6,,,,,,134.7679,135.0181,135.4625,"[0.11209514713974442,0.13585374383720197]","[-1,-1,-1]","[-0.12893657061689603,0.12972535938573745]","[1,1,1]","[0.14861727306883857,-0.10887408424021817]","[-1,-1,-1]","[0.19905195595894926,-0.011167871641558455]","[-1,-1,-1]","[0.12921134959043426,0.0592486636735849]","[-1,-1,-1]","[0.166911619871016,0.09171668587407879]","[-1,-1,-1]","[-0.11346935668563662,-0.14517376088305547]","[1,1,1]","[-0.043888429851847786,0.03479963683946622]","[1,1,1]","[0.012360011489869236,-0.10829855931186491]","[1,1,1]","[-0.024046021214552838,0.08223004144823855]","[1,1,1]","[-0.17764875573030117,-0.07278195351721599]","[1,1,1]","[-0.0044028951177534,0.140411752247736]","[-1,-1,-1]","[-0.0647092069743451,-0.07252485451925653]","[1,1,1]","[0.13808208551774565,-0.015881936965344432]","[1,1,1]","[-0.11174612148110369,0.03800671776792901]","[-1,-1,-1]","[-0.07614741923776486,-0.18213116848012031]","[1,1,1]","[0.03167205622857283,-0.1916247114118372]","[1,1,1]","[0.007276530141541704,-0.1570710496938253]","[1,1,1]","[-0.19282350597257225,0.00007135723805643925]","[-1,-1,-1]","[0.021066635531778476,-0.06399037789738776]","[1,1,1]","[0.0046933212315048295,0.023341857846837705]","[1,1,1]","[0.11244294786495912,-0.14937932501399795]","[-1,-1,-1]","[0.06076135081216376,-0.027552893383082654]","[-1,-1,-1]","[0.0838072406336162,0.01763877668683986]","[-1,-1,-1]","[0.07964777190447427,0.09390834969472384]","[1,1,1]","[0.0803473167717533,0.18215674731526174]","[-1,-1,-1]","[0.08554808837322248,-0.06805690690348257]","[1,1,1]","[-0.09038039923493071,-0.020580183551776116]","[1,1,1]","[-0.15377306767840596,-0.009301865743413563]","[1,1,1]","[-0.11647391598356015,-0.06371841047625597]","[1,1,1]","[-0.1699786980860978,0.10402269913483164]","[1,1,1]","[-0.17449208633997212,0.04110989910473486]","[-1,-1,-1]","[0.02,0.02]",136.5597,0,1,1,164,1,,,,,,,
,,,,,,,55a2159bfdf99b3cec08f1a9,682f0fc0fbab2d8779208fc4,2025-05-22_13h51.33.490,cuing_paradigm_dot,2024.1.5,Win32,142.8571429,682d573fa47f1360d1451895,,,,,,,,,,,136.5599,137.0605,,,137.31,137.671,left,0.3474,,,,,,,,,0.9,,,,,,137.0605,137.31,137.671,"[-0.10202343245562064,-0.08164224203776034]","[1,1,1]","[0.0566026442427425,0.16897653988321742]","[1,1,1]","[0.039241983034426206,-0.0657259375621626]","[1,1,1]","[-0.042922507915416394,-0.18770043225530206]","[1,1,1]","[-0.001141947175357447,0.10582174796860282]","[-1,-1,-1]","[0.055476638179605964,0.02818043545747861]","[1,1,1]","[-0.08731180836691681,0.0825472543115928]","[-1,-1,-1]","[-0.04627378346470487,0.1829847058043826]","[1,1,1]","[0.17375439735337903,-0.06175218252762897]","[1,1,1]","[-0.18619062656884172,-0.00008265626407620428]","[1,1,1]","[0.04937159977730215,-0.1610003168530412]","[1,1,1]","[0.17670234132794824,0.07228536527390686]","[1,1,1]","[-0.017746658711843902,-0.13543448587132872]","[-1,-1,-1]","[-0.06164485862927509,0.13380037684748408]","[1,1,1]","[-0.022799961045668525,-0.01372181481025284]","[1,1,1]","[-0.05211934235811291,0.04724517189040426]","[1,1,1]","[0.1292406150785382,-0.09375852509109722]","[1,1,1]","[0.11941983814727733,0.013623004047491989]","[1,1,1]","[-0.1502455181750066,0.06102290042695408]","[1,1,1]","[0.09465130665542874,-0.16584277751229923]","[1,1,1]","[0.09367556290964336,0.09653413478118654]","[1,1,1]","[-0.11003907956141912,-0.12090471822204601]","[1,1,1]","[0.008442373895455709,0.1480000552694831]","[1,1,1]","[-0.1833520480364336,-0.07669523802978705]","[1,1,1]","[-0.1066596448819515,-0.1616227416362189]","[1,1,1]","[0.17418141715102192,-0.005020273693277601]","[1,1,1]","[-0.061740431192248875,-0.12455109909668821]","[1,1,1]","[0.11036972694568532,0.15759281885858042]","[1,1,1]","[0.011012368078215814,0.05319938361707047]","[1,1,1]","[-0.15110705607522065,-0.1283450010843612]","[1,1,1]","[-0.07921604834825136,-0.01120841015921962]","[1,1,1]","[-0.10121220859832333,0.12114495788045047]","[1,1,1]","[0.02,0.02]",138.7683,0,2,2,207,1,,,,,,,
,,,,,,,55a2159bfdf99b3cec08f1a9,682f0fc0fbab2d8779208fc4,2025-05-22_13h51.33.490,cuing_paradigm_dot,2024.1.5,Win32,142.8571429,682d573fa47f1360d1451895,,,,,,,,,,,138.7685,139.2684,,,139.5191,139.7823,right,0.2518,,,,,,,,,0.4,,,,,,139.2684,139.5191,139.7823,"[0.12546329827602776,-0.14169476997410912]","[-1,-1,-1]","[-0.0781360959507358,-0.06470026364988508]","[-1,-1,-1]","[-0.12494130364554906,0.0670381179380861]","[-1,-1,-1]","[0.0015753393952181306,-0.13235600110604742]","[-1,-1,-1]","[-0.11138444823539237,-0.09567867244173782]","[1,1,1]","[-0.187034164344702,0.024842074519572325]","[-1,-1,-1]","[-0.0824819568249866,0.055108108688248024]","[1,1,1]","[-0.09324028130597362,0.10708390351737594]","[1,1,1]","[0.027071052006542612,0.00010909742688115293]","[-1,-1,-1]","[-0.09271977823440386,-0.1484706121386732]","[1,1,1]","[0.030206656701681253,0.08326686923586077]","[1,1,1]","[-0.06710347553283046,0.014301092478629018]","[-1,-1,-1]","[0.14787098321953535,0.09635451208651032]","[1,1,1]","[-0.04656921156807256,-0.18875257534916884]","[-1,-1,-1]","[0.022310033993551526,0.19703405650700978]","[1,1,1]","[-0.059142097216384526,0.15184699572577637]","[-1,-1,-1]","[-0.13696731599746634,-0.048205880688239784]","[1,1,1]","[-0.19144402359490803,-0.024606004887305043]","[1,1,1]","[0.05265711829234382,0.14157119928493936]","[-1,-1,-1]","[0.07126327364064329,-0.14584250671771656]","[-1,-1,-1]","[0.07475040804037926,0.07651613721630597]","[1,1,1]","[0.1344480509693924,-0.07622477260770384]","[1,1,1]","[0.0494397629090516,-0.036233865215118746]","[-1,-1,-1]","[-0.028896066447944145,-0.06046496673708131]","[-1,-1,-1]","[-0.033512702692259234,-0.10872525795533193]","[-1,-1,-1]","[0.07531288404896083,-0.08403737874358044]","[1,1,1]","[0.15047652986509594,-0.019945656754472043]","[-1,-1,-1]","[0.1452453509120527,0.052938587325713715]","[-1,-1,-1]","[-0.05398219570750624,0.09817036156890452]","[-1,-1,-1]","[0.026532789268518087,-0.19272004799294712]","[-1,-1,-1]","[0.18788384980528078,0.013437460388477299]","[1,1,1]","[-0.03392555974137019,0.0512196528143253]","[-1,-1,-1]","[0.02,0.02]",140.8797,0,3,3,31,1,,,,,,,
,,,,,,,55a2159bfdf99b3cec08f1a9,682f0fc0fbab2d8779208fc4,2025-05-22_13h51.33.490,cuing_paradigm_dot,2024.1.5,Win32,142.8571429,682d573fa47f1360d1451895,,,,,,,,,,,140.8799,141.3796,,,141.6298,142.0116,right,0.3704,,,,,,,,,0.1,,,,,,141.3796,141.6298,142.0117,"[-0.08683811271580687,-0.10416689046078981]","[-1,-1,-1]","[-0.028437861116431883,0.08721268750777195]","[-1,-1,-1]","[-0.04976475447949617,-0.13735758244718038]","[-1,-1,-1]","[0.10258913369879308,0.004050374369970063]","[-1,-1,-1]","[-0.12431344272303278,-0.060969798711374375]","[-1,-1,-1]","[0.16574497124287624,0.10703882046400419]","[-1,-1,-1]","[0.04707625142409552,0.08251021537997291]","[-1,-1,-1]","[0.1676377955792128,-0.07071256356247937]","[-1,-1,-1]","[-0.012668611840141827,0.18986011180314374]","[-1,-1,-1]","[0.0406091182042472,-0.1459961869667624]","[-1,-1,-1]","[0.04408295057107703,0.16415954570179517]","[-1,-1,-1]","[0.08808677783802991,0.08494771288335747]","[-1,-1,-1]","[-0.013294568130276312,-0.17590473855430544]","[-1,-1,-1]","[0.05594803301383044,-0.014462778980452461]","[-1,-1,-1]","[-0.05884944182604276,0.1510084851997297]","[-1,-1,-1]","[0.10974977192359567,-0.0390257523531425]","[-1,-1,-1]","[-0.1813336332657216,-0.006114187549276966]","[1,1,1]","[-0.031895824667329195,-0.04071960223242795]","[-1,-1,-1]","[0.02579831688956979,-0.053751154271407156]","[1,1,1]","[-0.06193041461046088,0.06222271488464216]","[-1,-1,-1]","[-0.10557598871118215,0.1501769835936471]","[-1,-1,-1]","[0.10433319187206117,-0.15815596706290758]","[-1,-1,-1]","[-0.1106018745110818,0.06195410086385566]","[-1,-1,-1]","[0.11762089385927774,0.12801920936080197]","[-1,-1,-1]","[0.18936188820684383,0.05536856399945306]","[1,1,1]","[-0.07598481806731307,-0.020700532738168534]","[-1,-1,-1]","[-0.16191915776771834,0.07164295182049428]","[-1,-1,-1]","[-0.16527675302561287,-0.053359802207525966]","[-1,-1,-1]","[0.1295311054923835,0.035855820533761316]","[-1,-1,-1]","[0.16081401890030617,0.0046587266032524005]","[-1,-1,-1]","[-0.022531388691969443,-0.09088476603462758]","[-1,-1,-1]","[-0.1341221066713062,-0.0017638190913003891]","[-1,-1,-1]","[0.02,0.02]",143.109,0,4,4,12,1,,,,,,,
,,,,,,,55a2159bfdf99b3cec08f1a9,682f0fc0fbab2d8779208fc4,2025-05-22_13h51.33.490,cuing_paradigm_dot,2024.1.5,Win32,142.8571429,682d573fa47f1360d1451895,,,,,,,,,,,143.1092,143.6091,,,143.8592,144.3662,left,0.4992,,,,,,,,,0.55,,,,,,143.6091,143.8592,144.3662,"[-0.06855036382636781,-0.13019387571376212]","[1,1,1]","[0.04252953636255775,0.13771717713600892]","[-1,-1,-1]","[-0.11014825975050382,0.1622188544241067]","[1,1,1]","[0.04711859500223263,0.08233970779947467]","[-1,-1,-1]","[-0.15892758741549398,0.06896809435369751]","[1,1,1]","[0.19648904267989203,-0.030883597761225616]","[1,1,1]","[-0.07064908929366358,0.03926874237589293]","[-1,-1,-1]","[-0.11288813940724235,-0.12138559169227615]","[1,1,1]","[-0.0703108740625341,-0.02549605586859267]","[-1,-1,-1]","[0.054515250320711056,0.014831457057206617]","[1,1,1]","[0.039847326008604717,-0.028529192150057975]","[1,1,1]","[0.13817801985649897,0.142348050747642]","[1,1,1]","[-0.07193248867385439,0.1341925995914575]","[-1,-1,-1]","[0.06018707677909204,-0.1161904541003307]","[1,1,1]","[-0.12429133617777105,0.11840477168631798]","[-1,-1,-1]","[0.09789470174453457,-0.05634063718590291]","[1,1,1]","[0.141750636999053,0.04467863975337127]","[-1,-1,-1]","[0.19442292789638158,0.03116607706914811]","[1,1,1]","[-0.16004890946501668,-0.013193318086286836]","[1,1,1]","[0.03848123028485298,-0.15320681241679623]","[-1,-1,-1]","[-0.025212306720179593,-0.006958430879168831]","[1,1,1]","[0.08888358884374943,0.1009127350957061]","[-1,-1,-1]","[0.15765362941481612,0.09447362332507903]","[-1,-1,-1]","[0.13741009631059897,-0.030488376655019453]","[-1,-1,-1]","[-0.00241562755042603,0.09006302282987741]","[1,1,1]","[-0.021614503586358053,-0.17481254772876947]","[1,1,1]","[-0.018677932127997402,0.18694643108788103]","[-1,-1,-1]","[0.015850380343755157,0.04568090164356837]","[1,1,1]","[-0.17790899897086768,-0.07749370527750742]","[-1,-1,-1]","[0.1548721011598758,-0.08552154134412078]","[1,1,1]","[0.08822074278982119,0.039565233001012355]","[1,1,1]","[-0.08592312114121792,-0.0870506577998284]","[-1,-1,-1]","[0.02,0.02]",145.4635,0,5,5,140,1,,,,,,,
,,,,,,,55a2159bfdf99b3cec08f1a9,682f0fc0fbab2d8779208fc4,2025-05-22_13h51.33.490,cuing_paradigm_dot,2024.1.5,Win32,142.8571429,682d573fa47f1360d1451895,,,,,,,,,,,145.4637,145.9636,,,146.2137,146.5609,left,0.3371,,,,,,,,,0.6,,,,,,145.9636,146.2137,146.5609,"[0.19582905803639294,0.0009615172453465273]","[1,1,1]","[0.14620012572747984,0.07025098677139]","[-1,-1,-1]","[-0.010490515893729178,0.12816605215377777]","[1,1,1]","[-0.16151053441698518,-0.054938896508826496]","[1,1,1]","[0.00032440235538712864,-0.12545172741350671]","[1,1,1]","[-0.16026180965076275,0.06277902709621502]","[1,1,1]","[-0.08138344635116829,-0.10486042657777601]","[1,1,1]","[0.10524265143066551,-0.1279936258267693]","[-1,-1,-1]","[0.046055748572016934,-0.03819531689695643]","[1,1,1]","[0.15851695531959886,-0.10030609372112088]","[-1,-1,-1]","[-0.026785741805827656,0.06375964047864831]","[1,1,1]","[0.04774237807512657,0.13853509506696626]","[-1,-1,-1]","[-0.10280000267714792,0.05921609935474518]","[-1,-1,-1]","[-0.11398274287185287,-0.001719996329698881]","[1,1,1]","[0.18621923556211187,0.05995272837968726]","[1,1,1]","[-0.10463973701030592,0.15644398322917827]","[1,1,1]","[0.012582693611404358,0.024911250977430188]","[-1,-1,-1]","[-0.12865106096557824,0.10128682480865586]","[-1,-1,-1]","[-0.09846018867085041,-0.1543645054542013]","[1,1,1]","[0.07230187489000515,0.03537356311737166]","[-1,-1,-1]","[0.10865562538109352,0.003303774856565452]","[-1,-1,-1]","[-0.1149567642430658,-0.07968321427077786]","[-1,-1,-1]","[0.03536296789879007,-0.10584823776837507]","[1,1,1]","[-0.05156879023817059,0.11441589543787858]","[1,1,1]","[-0.03723896205881963,-0.14121720498956722]","[1,1,1]","[0.027965676411290965,-0.18989413754050075]","[-1,-1,-1]","[-0.19308585047513088,-0.01798257181967671]","[1,1,1]","[-0.015577837515487384,-0.06850715197657471]","[1,1,1]","[0.1290456509209834,0.10855547465745155]","[-1,-1,-1]","[0.1457971570391061,0.024869301227505615]","[-1,-1,-1]","[0.05531341622091385,0.18397786942512878]","[1,1,1]","[0.11427697998079736,-0.08712212070931195]","[1,1,1]","[0.02,0.02]",147.6582,0,6,6,150,1,,,,,,,
,,,,,,,55a2159bfdf99b3cec08f1a9,682f0fc0fbab2d8779208fc4,2025-05-22_13h51.33.490,cuing_paradigm_dot,2024.1.5,Win32,142.8571429,682d573fa47f1360d1451895,,,,,,,,,,,147.6584,148.1582,,,148.4084,149.0402,left,0.6233,,,,,,,,,0.6,,,,,,148.1582,148.4084,149.0403,"[0.003138892010805101,-0.1567457405736554]","[-1,-1,-1]","[-0.03805537365121146,-0.05624475639864983]","[1,1,1]","[0.0611310062892514,-0.15327642918143922]","[1,1,1]","[-0.048626059856807784,-0.16741977664891378]","[1,1,1]","[-0.08259143593774551,0.07408581291168813]","[-1,-1,-1]","[0.1481869684751112,0.028919070147193367]","[-1,-1,-1]","[-0.009497403398965954,0.08405325352694837]","[-1,-1,-1]","[-0.09814351212525944,-0.06365927005114323]","[1,1,1]","[0.06601189928461805,0.08877833265192346]","[1,1,1]","[0.00019261446975216829,0.1258413662200901]","[-1,-1,-1]","[0.10067582997979317,-0.023226871187896788]","[1,1,1]","[0.042002423187680056,-0.0960341082120018]","[1,1,1]","[0.1016907829885404,-0.141885276676772]","[1,1,1]","[0.014668626321107403,-0.05278620279006604]","[1,1,1]","[-0.08052033872372492,0.1323338703779386]","[-1,-1,-1]","[-0.1785257788930641,0.0580162741016185]","[-1,-1,-1]","[0.03745104891925915,-0.016743959875150444]","[-1,-1,-1]","[-0.15738880147064183,-0.11274217565101582]","[-1,-1,-1]","[0.14236308826744376,-0.1324188264854668]","[1,1,1]","[0.08337892939175359,0.0300117140208886]","[1,1,1]","[-0.19325186223952617,0.006123510727652223]","[-1,-1,-1]","[-0.01890950924428275,0.17844230959413068]","[1,1,1]","[0.16064412006036996,-0.07455090427648922]","[1,1,1]","[0.08006700696958181,0.15417114189068756]","[1,1,1]","[-0.13382183135168135,-0.020048410982490248]","[1,1,1]","[0.03136685196853767,0.04777644278155232]","[1,1,1]","[-0.1428892995334943,0.07828436936247941]","[1,1,1]","[-0.004979846220800285,0.018544856620823787]","[-1,-1,-1]","[0.15782177939680492,-0.022655023579664212]","[1,1,1]","[0.11275286926910617,-0.0713467183298896]","[-1,-1,-1]","[-0.0962678626479524,-0.11105648686980829]","[-1,-1,-1]","[0.02907836789903567,0.18968639291525208]","[1,1,1]","[0.02,0.02]",150.1377,0,7,7,168,1,,,,,,,
,,,,,,,55a2159bfdf99b3cec08f1a9,682f0fc0fbab2d8779208fc4,2025-05-22_13h51.33.490,cuing_paradigm_dot,2024.1.5,Win32,142.8571429,682d573fa47f1360d1451895,,,,,,,,,,,150.1378,150.6376,,,150.8878,151.2697,left,0.3739,,,,,,,,,0.55,,,,,,150.6377,150.8878,151.2697,"[0.010530291054653283,0.03166757282273836]","[1,1,1]","[0.11972769014931703,-0.08069698410265057]","[-1,-1,-1]","[-0.18456443608545622,-0.03839979967928793]","[1,1,1]","[0.14679857729502074,0.09602230222882528]","[1,1,1]","[0.052282675299515476,0.052014813283881293]","[1,1,1]","[-0.01588022651234187,0.11779022026227946]","[1,1,1]","[-0.0412189456624596,-0.021144059523934472]","[1,1,1]","[0.033951440846268395,0.1446676288460398]","[-1,-1,-1]","[0.18978782454420332,0.044119109658952674]","[-1,-1,-1]","[-0.10015248642635767,0.12172799214134405]","[-1,-1,-1]","[-0.024875698766829615,-0.11137368252174847]","[1,1,1]","[0.18479137239195015,-0.014828769793263481]","[-1,-1,-1]","[0.03594865017057969,0.09420792459836952]","[1,1,1]","[0.012772490730551903,-0.14656564882804235]","[1,1,1]","[-0.0367377369528812,0.16809587839660498]","[-1,-1,-1]","[0.060811122760522036,-0.055816674580460676]","[-1,-1,-1]","[-0.15656661921750267,0.10360017686732677]","[1,1,1]","[-0.08556690485122936,-0.007260752432830934]","[1,1,1]","[-0.157368857915364,-0.06801104265955628]","[1,1,1]","[0.07555385220289447,-0.006734394441400086]","[-1,-1,-1]","[0.13922353982416905,0.0040406698768491]","[-1,-1,-1]","[0.019812374417893686,0.19834015589750356]","[-1,-1,-1]","[-0.07148281697844436,0.03929123990696519]","[1,1,1]","[-0.19959668048583298,-0.0004092773726720632]","[1,1,1]","[0.13316526093596756,0.1450024190250694]","[-1,-1,-1]","[0.023714014815633407,-0.1874188144074807]","[1,1,1]","[-0.08326301555357984,0.18070323223753687]","[-1,-1,-1]","[-0.1673417099863184,0.05538975184479706]","[1,1,1]","[-0.030988063799546592,-0.191053666662433]","[-1,-1,-1]","[0.059305940864999004,-0.1301933864556519]","[-1,-1,-1]","[0.11937532879040107,-0.04033399548246414]","[1,1,1]","[0.12540060067728395,-0.13817009112091996]","[1,1,1]","[0.02,0.02]",152.3671,0,8,8,135,1,,,,,,,
,,,,,,,55a2159bfdf99b3cec08f1a9,682f0fc0fbab2d8779208fc4,2025-05-22_13h51.33.490,cuing_paradigm_dot,2024.1.5,Win32,142.8571429,682d573fa47f1360d1451895,,,,,,,,,,,152.3672,152.867,,,153.1172,153.3949,right,0.2663,,,,,,,,,0.1,,,,,,152.8671,153.1172,153.3949,"[-0.054077795715543324,-0.0347451045849454]","[-1,-1,-1]","[0.08042615604261734,0.04287231327184426]","[-1,-1,-1]","[-0.055323440224552094,-0.12822980727523073]","[-1,-1,-1]","[-0.03554451614626619,0.0929872918936726]","[-1,-1,-1]","[0.01565142851884016,0.07296173145034872]","[-1,-1,-1]","[0.12495021536139923,-0.15598438988057645]","[-1,-1,-1]","[0.07123893038633597,-0.01896097256936264]","[-1,-1,-1]","[0.0016623782153928756,0.13905849773881418]","[-1,-1,-1]","[-0.0936086788689618,-0.08440324994494211]","[-1,-1,-1]","[0.0235311578872688,0.17828419741954718]","[-1,-1,-1]","[0.18551675726621214,-0.055024791347146856]","[1,1,1]","[0.0953211658218824,-0.07805411831154668]","[-1,-1,-1]","[-0.0036414826662341062,-0.1516467802908156]","[-1,-1,-1]","[-0.05058179526057122,0.18074039916677587]","[-1,-1,-1]","[0.12962560858836547,0.09812542529245301]","[-1,-1,-1]","[0.17685440437153893,-0.008035880454329283]","[-1,-1,-1]","[-0.07326651082107544,0.059652172410884795]","[-1,-1,-1]","[-0.15891668243810128,0.027223202244411333]","[1,1,1]","[0.038666751544906376,-0.1139805876068562]","[-1,-1,-1]","[0.0880887215413155,0.12125482013206479]","[-1,-1,-1]","[0.1329490588980583,0.03241931427998469]","[-1,-1,-1]","[0.12586412109983655,-0.045673269653812014]","[-1,-1,-1]","[-0.15972505887818053,-0.09379971842920559]","[1,1,1]","[-0.09781295922682627,-0.00984419355805207]","[-1,-1,-1]","[-0.016207510067935513,-0.10374275593472874]","[-1,-1,-1]","[-0.1463799024630483,0.07917086483869433]","[-1,-1,-1]","[-0.06811511392797907,0.14066301193311126]","[-1,-1,-1]","[-0.03718040223172553,0.029629720438945652]","[-1,-1,-1]","[0.024775883290961646,-0.0366476765540389]","[-1,-1,-1]","[-0.12906103614264852,-0.1382816237497487]","[-1,-1,-1]","[-0.12646282676062343,-0.04713272465698759]","[-1,-1,-1]","[-0.09614088162235192,0.10340443061901781]","[-1,-1,-1]","[0.02,0.02]",154.4922,0,9,9,29,1,,,,,,,
,,,,,,,55a2159bfdf99b3cec08f1a9,682f0fc0fbab2d8779208fc4,2025-05-22_13h51.33.490,cuing_paradigm_dot,2024.1.5,Win32,142.8571429,682d573fa47f1360d1451895,,,,,,,,,,,154.4924,154.9923,,,155.2425,155.8675,left,0.6175,,,,,,,,,0.6,,,,,,154.9924,155.2424,155.8675,"[0.12072468010539163,0.08482346965010903]","[-1,-1,-1]","[0.15805451655630817,-0.09885756743365176]","[1,1,1]","[-0.06870731631006308,-0.02800074938870853]","[1,1,1]","[-0.09895505126598442,0.03689273847199867]","[-1,-1,-1]","[-0.0012042784651073802,0.18891175210895225]","[1,1,1]","[-0.06669346833486606,0.14150215540834293]","[-1,-1,-1]","[-0.02050312389175248,0.05716814334646886]","[1,1,1]","[0.18947014529425624,-0.004006407187255385]","[1,1,1]","[0.08476563628088823,-0.08049526042638905]","[-1,-1,-1]","[-0.05313103714455134,0.01970963803585511]","[1,1,1]","[-0.1801490575659961,0.06514689939441368]","[1,1,1]","[0.17556387028653486,0.04037545075687792]","[1,1,1]","[0.030114779124710226,-0.17857585806293186]","[1,1,1]","[-0.15244623773003793,0.09504582171953832]","[-1,-1,-1]","[-0.10083885118120335,-0.003217772089407589]","[1,1,1]","[0.013736344976671502,-0.11921112775433683]","[1,1,1]","[-0.13515931279391463,-0.054768570480527676]","[1,1,1]","[-0.007907115761596967,0.10101523243810144]","[-1,-1,-1]","[0.05428630586563543,0.16387307136347512]","[-1,-1,-1]","[-0.18559155942520797,0.01904369364422885]","[-1,-1,-1]","[-0.04402520483698089,-0.0944298782295775]","[1,1,1]","[0.10302260031601955,0.022667890627993032]","[-1,-1,-1]","[0.09782915301252236,-0.12221558637290647]","[1,1,1]","[-0.08122507695013245,-0.16315663941270786]","[-1,-1,-1]","[0.1410985542433477,-0.03938202702740735]","[-1,-1,-1]","[0.07751851346044396,-0.035993816458508965]","[1,1,1]","[0.003819512956620766,0.007003819380571442]","[1,1,1]","[-0.10928485343289987,0.12242417171241238]","[-1,-1,-1]","[0.061176733107727796,0.06839475355027205]","[1,1,1]","[-0.030014997177838638,-0.17330505384417186]","[-1,-1,-1]","[-0.09115484478227857,-0.08090365607250265]","[1,1,1]","[0.17582583597481044,0.08665099555757974]","[1,1,1]","[0.02,0.02]",156.9648,0,10,10,155,1,,,,,,,
,,,,,,,55a2159bfdf99b3cec08f1a9,682f0fc0fbab2d8779208fc4,2025-05-22_13h51.33.490,cuing_paradigm_dot,2024.1.5,Win32,142.8571429,682d573fa47f1360d1451895,,,,,,,,,,,156.9649,157.4648,,,157.7155,158.3191,left,0.5943,,,,,,,,,0.5,,,,,,157.4648,157.7155,158.3191,"[-0.06034940785364499,0.08126531136904583]","[1,1,1]","[-0.14739834576266894,-0.12772512348969256]","[-1,-1,-1]","[-0.1614111297098829,-0.06967972587396717]","[-1,-1,-1]","[-0.10900126051433157,-0.06410209660351499]","[1,1,1]","[0.1709392998646213,0.09253855041288546]","[-1,-1,-1]","[0.09438227506860283,-0.17458300784730724]","[-1,-1,-1]","[0.10264865461576919,0.03344840819873728]","[-1,-1,-1]","[0.04233575001090267,0.07485610071508815]","[-1,-1,-1]","[-0.0169775790758208,-0.07120346888559859]","[1,1,1]","[0.061134242079656745,-0.04074220959118252]","[-1,-1,-1]","[0.02210814717995727,0.15429011904770779]","[1,1,1]","[0.06542486490905078,0.15238525466893352]","[1,1,1]","[0.05356842726435552,-0.18300384444173612]","[-1,-1,-1]","[0.00484555526835109,-0.1839057510737474]","[-1,-1,-1]","[0.07768460558250966,0.09926566553618663]","[1,1,1]","[-0.07793038260625244,-0.15212415537125518]","[-1,-1,-1]","[-0.093436388814499,0.13520417042321653]","[1,1,1]","[-0.1220478338329293,0.09901535461359365]","[1,1,1]","[-0.17348763245965582,0.05241863878215783]","[-1,-1,-1]","[-0.12383381288135457,0.037404673427866526]","[1,1,1]","[-0.018581914771005004,-0.019483469299790182]","[1,1,1]","[0.16122136057305364,-0.094726698549326]","[-1,-1,-1]","[0.08374257315270038,-0.09653423062989994]","[-1,-1,-1]","[0.03664623442679582,0.19588622299492134]","[-1,-1,-1]","[-0.016744126324009994,0.08932188419214014]","[1,1,1]","[-0.04643925414310664,0.16895083517928314]","[1,1,1]","[-0.03363861191341738,-0.12725952942927207]","[1,1,1]","[0.12201689804622579,-0.11924901023353238]","[-1,-1,-1]","[0.12739842400397758,0.13898055751201963]","[1,1,1]","[0.15846849864196838,-0.03401612864698728]","[1,1,1]","[-0.0706583061503689,-0.047607427651358586]","[1,1,1]","[-0.07304976683307783,-0.001031136150237294]","[-1,-1,-1]","[0.02,0.02]",159.4164,0,11,11,105,1,,,,,,,
,,,,,,,55a2159bfdf99b3cec08f1a9,682f0fc0fbab2d8779208fc4,2025-05-22_13h51.33.490,cuing_paradigm_dot,2024.1.5,Win32,142.8571429,682d573fa47f1360d1451895,,,,,,,,,,,159.4166,159.9164,,,160.1667,160.5485,right,0.3725,,,,,,,,,0.45,,,,,,159.9165,160.1666,160.5485,"[-0.008028278127397643,0.11355092797868875]","[1,1,1]","[-0.02918868657104011,0.19188082464400524]","[-1,-1,-1]","[-0.017484811313775807,-0.11494968306062199]","[1,1,1]","[0.15907087838567802,-0.007649494796723213]","[1,1,1]","[-0.1392796054464626,-0.015387001137405914]","[-1,-1,-1]","[-0.11969149774778394,-0.12882706164793847]","[1,1,1]","[0.005390095001424276,-0.06047471473804017]","[-1,-1,-1]","[-0.1936207996597402,0.04121023507327406]","[1,1,1]","[-0.06262904992977361,-0.18370005062285907]","[-1,-1,-1]","[-0.07422472835019284,0.09935790440692718]","[-1,-1,-1]","[0.09704252680536025,-0.03318875427649688]","[-1,-1,-1]","[0.15233955992372808,0.052547812064846586]","[-1,-1,-1]","[0.11619427691906997,0.1041486499935386]","[1,1,1]","[0.04838861003420924,0.011962096766065545]","[-1,-1,-1]","[-0.00020861583366547288,0.06373080636987744]","[1,1,1]","[-0.1687971014535058,-0.07202078265464269]","[1,1,1]","[-0.09228147205715868,-0.08344630123619556]","[-1,-1,-1]","[0.07315985825387357,0.12893260671118037]","[1,1,1]","[-0.03206773363133601,0.020066990443640766]","[-1,-1,-1]","[0.024205101648350096,-0.17744036748605102]","[-1,-1,-1]","[-0.12429696173139994,0.12247989983194488]","[1,1,1]","[0.1323798370719872,-0.11331039488632683]","[-1,-1,-1]","[-0.0713987965543095,-0.14221399655812356]","[-1,-1,-1]","[0.0391371771884621,0.17247340678950585]","[1,1,1]","[0.07470151002699918,0.043656757443826355]","[1,1,1]","[-0.04945213039696881,-0.03488256809751556]","[-1,-1,-1]","[0.030510510020189334,-0.13604175676220226]","[-1,-1,-1]","[0.03726802036750284,-0.09326098473244249]","[-1,-1,-1]","[-0.19621981476292583,-0.0026814311833141084]","[1,1,1]","[-0.09027479344822434,-0.010407448125047132]","[-1,-1,-1]","[0.19247044616616613,-0.0488498333537263]","[-1,-1,-1]","[0.10516543373916697,0.008876708064694202]","[1,1,1]","[0.02,0.02]",161.6457,0,12,12,66,1,,,,,,,
,,,,,,,55a2159bfdf99b3cec08f1a9,682f0fc0fbab2d8779208fc4,2025-05-22_13h51.33.490,cuing_paradigm_dot,2024.1.5,Win32,142.8571429,682d573fa47f1360d1451895,,,,,,,,,,,161.646,162.1459,,,162.396,162.6807,left,0.2732,,,,,,,,,0.55,,,,,,162.1459,162.396,162.6807,"[-0.04113701597133508,0.10630937976364024]","[-1,-1,-1]","[0.12685985018314822,-0.04967331452243074]","[-1,-1,-1]","[0.09786352439713722,0.03270396778086536]","[-1,-1,-1]","[-0.1527247990698903,-0.02816764291164837]","[1,1,1]","[-0.06076556004180292,-0.13602784752914746]","[-1,-1,-1]","[-0.10655839458796706,-0.08786215923211994]","[1,1,1]","[-0.0464399092446422,0.02368929070032254]","[1,1,1]","[0.09507914081373987,-0.011099921283458677]","[-1,-1,-1]","[-0.003286905745124352,0.1952233620476234]","[-1,-1,-1]","[-0.09794253208177602,0.005939464185760153]","[1,1,1]","[0.06514682797705072,-0.04644061429785138]","[-1,-1,-1]","[-0.12553711834800407,0.1556719018749957]","[-1,-1,-1]","[-0.002084687748113476,0.07115643801219339]","[1,1,1]","[0.07897676075596757,0.12498936842452218]","[1,1,1]","[-0.10814979219347101,-0.13823697083352032]","[1,1,1]","[0.03340995189220569,-0.16355344558342358]","[1,1,1]","[-0.09125506572642278,0.12807599273460052]","[-1,-1,-1]","[-0.14449782254118784,0.09324769922837808]","[1,1,1]","[-0.02737065295150454,0.15181775393128377]","[-1,-1,-1]","[-0.19286890529029235,0.006059106094232065]","[1,1,1]","[-0.01235471172080111,-0.03244433775766821]","[1,1,1]","[0.11497153082450251,0.07610871546019235]","[1,1,1]","[0.07575734535239467,-0.1330692754714044]","[1,1,1]","[0.16289356222866336,0.04405426365443658]","[-1,-1,-1]","[0.03058312411831954,0.13270153096146295]","[-1,-1,-1]","[-0.06680180818309754,-0.05246882351850292]","[1,1,1]","[0.17271978426361984,0.0008936087919255921]","[1,1,1]","[0.045756881387440385,0.07557572905712004]","[-1,-1,-1]","[0.0023891467211713275,-0.10506365581851343]","[1,1,1]","[0.1959929719109874,-0.032869495380837194]","[1,1,1]","[0.15514620920603642,-0.08936187352249585]","[-1,-1,-1]","[-0.17320068650258258,-0.07750321981841968]","[1,1,1]","[0.02,0.02]",163.778,0,13,13,142,1,,,,,,,
,,,,,,,55a2159bfdf99b3cec08f1a9,682f0fc0fbab2d8779208fc4,2025-05-22_13h51.33.490,cuing_paradigm_dot,2024.1.5,Win32,142.8571429,682d573fa47f1360d1451895,,,,,,,,,,,163.7781,164.2781,,,164.5282,165.0489,left,0.5131,,,,,,,,,0.9,,,,,,164.2781,164.5282,165.0489,"[0.07999179172009994,-0.062233486848066163]","[1,1,1]","[0.03183277312976363,0.1001300236999577]","[1,1,1]","[0.15736165684718909,0.06828002097402142]","[1,1,1]","[-0.17046944750905452,0.02128161055233609]","[-1,-1,-1]","[-0.06445231433500083,0.0835543328018445]","[1,1,1]","[-0.043517892314776374,0.16475624601709404]","[1,1,1]","[-0.15320728437488007,-0.05795247182602015]","[1,1,1]","[0.04283560541613898,-0.1881397479950242]","[1,1,1]","[-0.08616214368788062,-0.02247083527906206]","[1,1,1]","[0.10422783196453375,-0.16856669165929364]","[1,1,1]","[0.14472858937816138,-0.09060126231760271]","[1,1,1]","[0.14706028733495727,-0.0246544248456342]","[1,1,1]","[-0.010181051619068014,-0.18134715293183662]","[-1,-1,-1]","[-0.07468575613469337,-0.13617546435290295]","[1,1,1]","[0.03366721746902919,0.04000482035856231]","[1,1,1]","[-0.0024353707609108114,0.05905512182272462]","[1,1,1]","[0.07237076405416577,-0.1286211246889865]","[1,1,1]","[-0.05518479795974685,0.03337677184547065]","[-1,-1,-1]","[-0.06988339904880525,-0.07660708953915646]","[1,1,1]","[-0.09859787202743653,0.025934097281464095]","[1,1,1]","[-0.12687522178327265,-0.15213893239762158]","[1,1,1]","[0.09384299339344163,0.036566238591358095]","[1,1,1]","[-0.11709411409420392,0.08342486172782458]","[1,1,1]","[0.041670727700084474,-0.0023943837792917864]","[1,1,1]","[0.13708926600721658,0.12756500031387646]","[1,1,1]","[0.03690890759898667,-0.09338694020385875]","[1,1,1]","[-0.19413306100448413,-0.021869592874534983]","[1,1,1]","[-0.024343460509660454,0.12774517765028287]","[1,1,1]","[0.08397775832041543,0.1745695133593534]","[1,1,1]","[0.18807064674133198,-0.017694580782882382]","[1,1,1]","[0.07161221262469325,0.07799139477620362]","[1,1,1]","[-0.17280922889930125,0.0981360053625406]","[1,1,1]","[0.02,0.02]",166.1463,0,14,14,195,1,,,,,,,
,,,,,,,55a2159bfdf99b3cec08f1a9,682f0fc0fbab2d8779208fc4,2025-05-22_13h51.33.490,cuing_paradigm_dot,2024.1.5,Win32,142.8571429,682d573fa47f1360d1451895,,,,,,,,,,,166.1465,166.6464,,,166.8964,167.445,right,0.5409,,,,,,,,,0.45,,,,,,166.6464,166.8964,167.445,"[-0.08199276081363391,0.12443874395827642]","[1,1,1]","[0.0800545932945214,-0.17987011099781047]","[-1,-1,-1]","[-0.07861887010228516,0.1651460265770862]","[-1,-1,-1]","[-0.03364508430194572,-0.15664014190553457]","[-1,-1,-1]","[0.16557518567593743,-0.007925731934211293]","[-1,-1,-1]","[-0.18016236054652746,-0.008180624104396957]","[1,1,1]","[-0.1471077861071272,0.12467672224214982]","[1,1,1]","[-0.02970412302367133,0.08222382188869196]","[1,1,1]","[-0.16742341930571783,-0.08408082482845497]","[1,1,1]","[0.13156495198223203,-0.10917459496871194]","[1,1,1]","[0.028284080076434234,-0.13539210990260148]","[-1,-1,-1]","[-0.005570553354959777,0.19777724058938917]","[-1,-1,-1]","[-0.13373860545273913,0.02596181226225971]","[1,1,1]","[0.04569229644640733,-0.05887549160477705]","[-1,-1,-1]","[0.11729773876850377,0.06295452882219456]","[1,1,1]","[0.004461912451846562,0.014514628854146045]","[1,1,1]","[-0.1119283084926303,-0.021336634121520766]","[1,1,1]","[-0.10899197405531871,-0.07363658582884744]","[1,1,1]","[-0.02187260855015792,0.13244558530857908]","[-1,-1,-1]","[-0.08083962795492416,0.040136875846725456]","[-1,-1,-1]","[0.11773265622752566,0.1156683155162671]","[-1,-1,-1]","[0.01899659790578995,-0.025822428668508722]","[1,1,1]","[0.1886048350426631,-0.0632273793463413]","[-1,-1,-1]","[-0.1746152042455695,0.08323861973827301]","[-1,-1,-1]","[-0.09119147300077246,-0.12228334752575684]","[-1,-1,-1]","[0.1064817419817433,-0.06910539539607764]","[-1,-1,-1]","[-0.013649499061447962,-0.05261076875171605]","[1,1,1]","[0.06542939629840566,0.06375740017450543]","[-1,-1,-1]","[0.1715034673221085,0.03314837325421293]","[-1,-1,-1]","[-0.11669437667989702,-0.15471487411561669]","[1,1,1]","[0.08917142757807935,0.16720498259103445]","[-1,-1,-1]","[-0.11098092533445376,0.07213617145961625]","[-1,-1,-1]","[0.02,0.02]",168.5424,0,15,15,71,1,,,,,,,
,,,,,,,55a2159bfdf99b3cec08f1a9,682f0fc0fbab2d8779208fc4,2025-05-22_13h51.33.490,cuing_paradigm_dot,2024.1.5,Win32,142.8571429,682d573fa47f1360d1451895,,,,,,,,,,,168.5426,169.0424,,,169.2926,169.8342,right,0.533,,,,,,,,,0.6,,,,,,169.0425,169.2926,169.8342,"[-0.11276692713413347,0.043829584299100256]","[1,1,1]","[0.0947770378563504,0.057196949934135696]","[-1,-1,-1]","[0.135545433793538,0.030223076881081373]","[-1,-1,-1]","[-0.05326105188326261,0.1727383408900131]","[1,1,1]","[0.07640030870173921,0.10982325248362448]","[1,1,1]","[0.09379524254420554,-0.16299665232125396]","[-1,-1,-1]","[0.11670676005781515,0.11685482283016271]","[1,1,1]","[-0.030008530591748274,-0.03636429937515948]","[1,1,1]","[-0.018054317393082994,-0.08278848766380686]","[1,1,1]","[-0.023319516274623676,-0.19646878534467385]","[1,1,1]","[0.030586349167504922,0.08478150630762814]","[1,1,1]","[-0.07923857197456025,0.06572478473027307]","[-1,-1,-1]","[-0.05224804712216914,0.1297062055208793]","[-1,-1,-1]","[0.19516238941048297,-0.03001814990557854]","[-1,-1,-1]","[-0.1621598833050399,-0.11597267082522612]","[1,1,1]","[0.052143713110105155,-0.1753073210695859]","[-1,-1,-1]","[-0.11559434672311067,-0.13457466400261694]","[1,1,1]","[-0.0754356695300318,-0.13987564511377432]","[-1,-1,-1]","[-0.19551195819593234,0.02622474839291569]","[1,1,1]","[-0.031108494752465417,0.03999384810517207]","[-1,-1,-1]","[0.10748184431236012,-0.0701928170090166]","[1,1,1]","[-0.015313086381852725,0.19800395958901593]","[1,1,1]","[0.11132907506822072,-0.029909715328194413]","[-1,-1,-1]","[0.01895562080633781,0.018718019439810194]","[1,1,1]","[0.1560723536181126,-0.10250909581012832]","[1,1,1]","[-0.029435241839196682,-0.12526275299353493]","[-1,-1,-1]","[0.155613621118072,0.0674177221474348]","[1,1,1]","[-0.15095604630824144,0.08088869181038469]","[-1,-1,-1]","[-0.06338465638960704,0.005648115255870928]","[-1,-1,-1]","[0.06275488339889752,-0.13349203519660868]","[1,1,1]","[0.026743717811491232,0.1337185139047282]","[1,1,1]","[-0.09039525081767846,-0.03497498788911766]","[1,1,1]","[0.02,0.02]",170.9315,0,16,16,179,1,,,,,,,
,,,,,,,55a2159bfdf99b3cec08f1a9,682f0fc0fbab2d8779208fc4,2025-05-22_13h51.33.490,cuing_paradigm_dot,2024.1.5,Win32,142.8571429,682d573fa47f1360d1451895,,,,,,,,,,,170.9317,171.4316,,,171.6817,172.2998,left,0.6046,,,,,,,,,0.55,,,,,,171.4316,171.6817,172.2998,"[-0.024413918388081858,-0.16585987275573896]","[1,1,1]","[-0.018745364255475714,0.1249829068758419]","[1,1,1]","[-0.03614013183523275,-0.11472948163204798]","[-1,-1,-1]","[-0.19035832543144968,0.01682111523382056]","[-1,-1,-1]","[0.025589838403074678,-0.03997474484134981]","[1,1,1]","[0.13809272556482,-0.0145590496592557]","[1,1,1]","[0.13527634415289752,0.08493658062680808]","[1,1,1]","[-0.14968498490105742,0.004615587683396763]","[-1,-1,-1]","[0.08401579279955629,-0.008810451372826848]","[-1,-1,-1]","[0.0986381795794644,-0.08390924542530047]","[1,1,1]","[0.19109549943707055,0.024653000465258475]","[-1,-1,-1]","[-0.07460040110008734,0.13774314998628787]","[1,1,1]","[0.03780304133477782,-0.11445901764556893]","[1,1,1]","[-0.17724764328936501,0.07848298049808111]","[-1,-1,-1]","[0.16740820049930027,-0.04866666940707966]","[-1,-1,-1]","[-0.01123673729624976,0.04231670198622072]","[1,1,1]","[0.13178115398647233,0.13127665758590268]","[-1,-1,-1]","[-0.11590217709477714,-0.06502941593535849]","[1,1,1]","[-0.09894822088752667,-0.17187069886810374]","[-1,-1,-1]","[-0.12156450480313749,0.13748317477320413]","[1,1,1]","[0.020389531404892934,0.00011970939140909147]","[1,1,1]","[-0.01684364815562966,0.08408918901581514]","[-1,-1,-1]","[-0.07853395093368565,-0.04488527870290308]","[1,1,1]","[0.06445643905242822,0.14763604116540802]","[-1,-1,-1]","[0.02689286130592767,-0.18305155245518484]","[1,1,1]","[-0.09988956055634096,-0.10665267580759169]","[1,1,1]","[-0.16551080748228636,-0.07183495674803118]","[-1,-1,-1]","[0.0848416934917928,0.1119355529415129]","[1,1,1]","[-0.0173969420234703,0.1782993538173673]","[1,1,1]","[-0.11108090777478445,0.01732334247612354]","[-1,-1,-1]","[-0.019514372689818076,-0.01827242528436148]","[1,1,1]","[0.02388512880447909,0.1568124638174018]","[-1,-1,-1]","[0.02,0.02]",173.3971,0,17,17,146,1,,,,,,,
,,,,,,,55a2159bfdf99b3cec08f1a9,682f0fc0fbab2d8779208fc4,2025-05-22_13h51.33.490,cuing_paradigm_dot,2024.1.5,Win32,142.8571429,682d573fa47f1360d1451895,,,,,,,,,,,173.3973,173.8971,,,174.1475,174.4041,right,0.2475,,,,,,,,,0.45,,,,,,173.8971,174.1474,174.4041,"[-0.12399386333706552,0.10761684098906414]","[1,1,1]","[-0.051590766967701235,-0.01739506567061167]","[1,1,1]","[0.14298653396976602,-0.026255060878691488]","[-1,-1,-1]","[0.042896726328520506,0.022874462803680103]","[-1,-1,-1]","[-0.06217377803186237,0.1623866752682669]","[1,1,1]","[0.14091623700187075,0.10685328365298395]","[1,1,1]","[0.02716959636617129,-0.14275206618457373]","[1,1,1]","[-0.10384690218075841,-0.1187937324543096]","[-1,-1,-1]","[-0.10646314045735088,-0.04002576211636862]","[1,1,1]","[-0.10026853121293881,0.05413303702395522]","[-1,-1,-1]","[-0.07856201356768068,-0.07862053937064938]","[1,1,1]","[0.04026651141461617,0.10289273767367108]","[-1,-1,-1]","[0.11543499409621713,0.07472397899506797]","[-1,-1,-1]","[0.14196987785683687,-0.09356568256447176]","[-1,-1,-1]","[-0.14540901949275234,-0.09077219281103562]","[1,1,1]","[0.0570520120341831,0.14433715916139486]","[-1,-1,-1]","[0.08633429926692728,-0.022809313329873536]","[1,1,1]","[0.06378798339644874,-0.11472969980079724]","[1,1,1]","[-0.1765699300157649,-0.052003280712153176]","[-1,-1,-1]","[0.001628671693312409,-0.19471870610104253]","[1,1,1]","[0.017055870608694786,-0.034060907365841255]","[1,1,1]","[0.09224206783021728,0.1709069571514231]","[-1,-1,-1]","[0.18105560886484748,-0.004242754362515759]","[1,1,1]","[-0.11036213682613875,0.012624318083263624]","[-1,-1,-1]","[-0.007381691128495791,0.10657288887568753]","[-1,-1,-1]","[0.09132113928058244,-0.06745279333805926]","[-1,-1,-1]","[-0.04591771672409034,0.02781759242506605]","[-1,-1,-1]","[-0.03019706865422399,-0.16719066447958725]","[1,1,1]","[-0.17912858272534998,0.003983326041950859]","[-1,-1,-1]","[-0.14348928831018457,0.06914948078220785]","[-1,-1,-1]","[0.058000808044690176,0.06689045098766758]","[-1,-1,-1]","[0.1134295569697629,-0.13161763333866391]","[-1,-1,-1]","[0.02,0.02]",175.5015,0,18,18,67,1,,,,,,,
,,,,,,,55a2159bfdf99b3cec08f1a9,682f0fc0fbab2d8779208fc4,2025-05-22_13h51.33.490,cuing_paradigm_dot,2024.1.5,Win32,142.8571429,682d573fa47f1360d1451895,,,,,,,,,,,175.5016,176.0016,,,176.2516,176.8002,right,0.5392,,,,,,,,,0.1,,,,,,176.0016,176.2516,176.8002,"[0.1576337950071157,-0.038358379127112]","[1,1,1]","[0.1422585508260835,0.1325170901119461]","[1,1,1]","[0.03764637316448704,0.10221387650814552]","[-1,-1,-1]","[0.06315908373119712,-0.026095316176593407]","[-1,-1,-1]","[-0.013549491600376624,0.06689269901925571]","[-1,-1,-1]","[0.15422841180378874,0.052452485559674064]","[-1,-1,-1]","[-0.10322823108289754,0.020414421456957467]","[-1,-1,-1]","[-0.14291168464437976,-0.008692779910745414]","[-1,-1,-1]","[0.11373713402118323,-0.07471214340246343]","[-1,-1,-1]","[-0.06147622065145022,0.03325610465086193]","[-1,-1,-1]","[-0.027816276375920605,0.10447044587621311]","[-1,-1,-1]","[0.0811293251140183,-0.12933470712364595]","[-1,-1,-1]","[0.13741240796563178,-0.12973441917911283]","[-1,-1,-1]","[-0.04151324638366783,-0.012918684064935643]","[-1,-1,-1]","[-0.18666166332958234,-0.02529244809378289]","[-1,-1,-1]","[-0.0645083424494188,-0.11308348819724007]","[-1,-1,-1]","[-0.00963909018820658,-0.15486715760529024]","[-1,-1,-1]","[-0.07056791533472767,0.11461603634343848]","[-1,-1,-1]","[0.09849190297456224,0.07474702366336491]","[-1,-1,-1]","[-0.05916931727942922,0.16775995741873628]","[-1,-1,-1]","[0.01641076171923273,-0.05877133246969538]","[-1,-1,-1]","[-0.18326770431122533,0.05085971309566044]","[-1,-1,-1]","[-0.11664793766484774,-0.15079283987819875]","[-1,-1,-1]","[-0.08335666679041803,-0.06993753204603158]","[-1,-1,-1]","[0.17608342146648595,0.006469594559601103]","[-1,-1,-1]","[0.05884778399536778,0.1737132365827512]","[-1,-1,-1]","[0.07313598703705541,-0.08869369993939683]","[-1,-1,-1]","[0.10709865991864918,-0.011884535194254317]","[-1,-1,-1]","[0.03799071187245185,-0.14097816192366588]","[-1,-1,-1]","[-0.007315314839609253,-0.10902668435922416]","[-1,-1,-1]","[0.03075227130353815,0.14278706916781483]","[-1,-1,-1]","[-0.0006407361541121521,0.1983888107724744]","[1,1,1]","[0.02,0.02]",177.8975,0,19,19,0,1,,,,,,,
,,,,,,,55a2159bfdf99b3cec08f1a9,682f0fc0fbab2d8779208fc4,2025-05-22_13h51.33.490,cuing_paradigm_dot,2024.1.5,Win32,142.8571429,682d573fa47f1360d1451895,,,,,,,,,,,177.8977,178.3976,,,178.6478,178.9949,right,0.335,,,,,,,,,0.1,,,,,,178.3976,178.6478,178.9949,"[0.08984804294187511,-0.12955805651702826]","[-1,-1,-1]","[0.011302340977317471,0.04143616187096353]","[-1,-1,-1]","[-0.08015139323157823,-0.026606989222600932]","[-1,-1,-1]","[-0.0698184052185775,-0.07450565981027903]","[-1,-1,-1]","[0.1392569234728489,0.0347259159579032]","[-1,-1,-1]","[0.16773845701899662,-0.045704780589962975]","[-1,-1,-1]","[0.08608218091614388,0.17395703811887728]","[-1,-1,-1]","[0.0048988061658981515,0.11327768575795576]","[-1,-1,-1]","[0.0949357887132988,-0.008486083266487858]","[-1,-1,-1]","[0.01617816556122763,-0.1063636878738813]","[-1,-1,-1]","[-0.05028979020449594,-0.18159460629153007]","[-1,-1,-1]","[-0.12435161663346256,0.017579820561693927]","[-1,-1,-1]","[0.08024070625734255,-0.09066101071821764]","[-1,-1,-1]","[-0.18177208587619403,-0.001069372508675224]","[-1,-1,-1]","[0.07062702443338398,0.13544265842791786]","[-1,-1,-1]","[-0.052751436550073666,0.057211040013967644]","[-1,-1,-1]","[-0.10373615833787153,0.10537047657006958]","[-1,-1,-1]","[0.040174206792957134,-0.02570038112360619]","[1,1,1]","[0.0004036934893655622,-0.17063198819301864]","[-1,-1,-1]","[-0.10754699760633599,0.15460719004763865]","[1,1,1]","[0.10446974491584303,-0.052476647711787554]","[-1,-1,-1]","[0.011615556474704967,0.17069206753496896]","[-1,-1,-1]","[0.18065053031385558,0.07814110613894779]","[-1,-1,-1]","[-0.030460688370170883,0.14423538079082082]","[-1,-1,-1]","[-0.17883262851634715,-0.05250821546221252]","[-1,-1,-1]","[-0.08354043952532163,-0.14831903784439154]","[-1,-1,-1]","[-0.13887605135089448,-0.028291995756021763]","[-1,-1,-1]","[-0.024673509199791877,-0.1356402712363111]","[-1,-1,-1]","[-0.0183127734237525,0.014220168539045277]","[-1,-1,-1]","[0.13008955470009106,0.07439754200235298]","[1,1,1]","[0.13455534032312155,-0.015754407180081993]","[-1,-1,-1]","[-0.07190464322789057,0.18399559220701628]","[-1,-1,-1]","[0.02,0.02]",180.0923,0,20,20,24,1,,,,,,,
,,,,,,,55a2159bfdf99b3cec08f1a9,682f0fc0fbab2d8779208fc4,2025-05-22_13h51.33.490,cuing_paradigm_dot,2024.1.5,Win32,142.8571429,682d573fa47f1360d1451895,,,,,,,,,,,180.0925,180.5923,,,180.8425,181.2521,right,0.3987,,,,,,,,,0.4,,,,,,180.5923,180.8425,181.2521,"[-0.11173503441436707,0.060311443298650076]","[1,1,1]","[-0.030020964599378492,-0.025912737609907463]","[-1,-1,-1]","[-0.05366507778693564,-0.16575548350948108]","[-1,-1,-1]","[0.042909323051361095,0.07512732332403475]","[1,1,1]","[-0.1576364367276505,-0.05650673994109276]","[1,1,1]","[0.10234312534632921,0.07141584216752712]","[-1,-1,-1]","[-0.08504071525869443,0.1628825543488058]","[1,1,1]","[0.1025169230186221,0.020374248637147763]","[1,1,1]","[0.005470536583990486,-0.12161185420042192]","[-1,-1,-1]","[-0.08446893956222261,0.11953322000577063]","[-1,-1,-1]","[0.09418699651024448,-0.03373010063905873]","[-1,-1,-1]","[0.11107811818485813,-0.15792168382361801]","[-1,-1,-1]","[0.13530544467219266,-0.02389496943604086]","[1,1,1]","[-0.0659284488780425,0.07462982279494444]","[-1,-1,-1]","[-0.10236794725817046,0.0008902007902299632]","[1,1,1]","[0.07673623856899821,-0.08234364616751998]","[-1,-1,-1]","[0.063924150252216,-0.12428246336247177]","[1,1,1]","[0.19004662129765035,0.04251227106339833]","[1,1,1]","[-0.05216490730878043,-0.06805847342150657]","[-1,-1,-1]","[0.08841983163012235,0.16057527175465822]","[-1,-1,-1]","[0.026413017473965374,-0.082376984382497]","[-1,-1,-1]","[0.006891966039194132,0.025041923932694093]","[1,1,1]","[0.17079776477807104,0.10167671935522961]","[1,1,1]","[0.03190917815581619,-0.01993416991679033]","[-1,-1,-1]","[0.01088764771731202,0.13799717051523572]","[-1,-1,-1]","[0.17154736360867812,-0.06848327919207434]","[-1,-1,-1]","[-0.1754595970016646,0.09273783687029541]","[-1,-1,-1]","[-0.14292150467106945,-0.012315474419608346]","[-1,-1,-1]","[-0.01632568786621837,-0.1889889756245122]","[1,1,1]","[0.12556578467189394,-0.07964675006556765]","[-1,-1,-1]","[-0.0950650798062295,-0.0881112656789063]","[1,1,1]","[0.11222306743383481,-0.1176054653170453]","[-1,-1,-1]","[0.02,0.02]",182.3494,0,21,21,57,1,,,,,,,
,,,,,,,55a2159bfdf99b3cec08f1a9,682f0fc0fbab2d8779208fc4,2025-05-22_13h51.33.490,cuing_paradigm_dot,2024.1.5,Win32,142.8571429,682d573fa47f1360d1451895,,,,,,,,,,,182.3496,182.8495,,,183.0996,183.5024,left,0.3905,,,,,,,,,0.55,,,,,,182.8495,183.0996,183.5024,"[0.06794955287355449,-0.014196358318956735]","[1,1,1]","[-0.18102450102350942,-0.0686728370804566]","[-1,-1,-1]","[-0.09864994701819585,0.11759008928300616]","[1,1,1]","[0.03772051636970594,0.09471845546348213]","[1,1,1]","[0.12930808784990167,-0.04799399517025067]","[1,1,1]","[-0.12677586626780407,-0.05957323586767452]","[1,1,1]","[0.01315403605165551,0.003428550758274511]","[1,1,1]","[0.19131696529616357,-0.031082101149952676]","[-1,-1,-1]","[0.07607159043544828,-0.1608370958649203]","[-1,-1,-1]","[-0.029196057476229352,-0.08640836944084895]","[-1,-1,-1]","[0.03343495348221158,-0.1935675258894126]","[1,1,1]","[0.1439465951097255,0.12255716437188295]","[1,1,1]","[-0.15724778510800858,-0.11756196422044146]","[-1,-1,-1]","[0.13999415884112262,0.04241857242455434]","[-1,-1,-1]","[-0.08163370663454507,0.05266726778569187]","[-1,-1,-1]","[-0.07478373695831628,0.0005107326730843725]","[-1,-1,-1]","[0.048567573167224376,0.05218911430911334]","[-1,-1,-1]","[-0.0519811250994273,-0.03288866391423574]","[1,1,1]","[0.09297835889253252,0.12288676941732513]","[1,1,1]","[0.01807426228499009,-0.12322926930969452]","[-1,-1,-1]","[-0.08130947244998463,-0.17121929667643312]","[1,1,1]","[0.1883873624770072,0.058504837101779596]","[-1,-1,-1]","[0.1366440781386189,-0.0895407276308934]","[1,1,1]","[-0.05396551310264122,0.11521339910826461]","[1,1,1]","[0.07928302239597143,0.18087632170882578]","[-1,-1,-1]","[-0.0678406828238749,0.15691686533079233]","[1,1,1]","[-0.166578865444743,0.08797464910912939]","[1,1,1]","[0.15547715532226675,0.00042582600362844723]","[1,1,1]","[-0.024148531509388487,-0.16201346640725023]","[1,1,1]","[0.08325457847733951,-0.08910416886327008]","[-1,-1,-1]","[-0.05932185026998674,-0.12073378755021147]","[-1,-1,-1]","[-0.14768893962167476,0.12929748828783774]","[1,1,1]","[0.02,0.02]",184.5997,0,22,22,137,1,,,,,,,
,,,,,,,55a2159bfdf99b3cec08f1a9,682f0fc0fbab2d8779208fc4,2025-05-22_13h51.33.490,cuing_paradigm_dot,2024.1.5,Win32,142.8571429,682d573fa47f1360d1451895,,,,,,,,,,,184.5999,185.0998,,,185.3499,185.6345,right,0.2743,,,,,,,,,0.4,,,,,,185.0998,185.3499,185.6345,"[0.0733259544842155,0.0734618498391196]","[1,1,1]","[-0.04607066086225161,-0.05461514903130827]","[-1,-1,-1]","[-0.10148346604211692,0.047116141893640544]","[-1,-1,-1]","[0.15683427083298337,-0.056942436750478366]","[1,1,1]","[0.0678100574291676,-0.07776034226293331]","[-1,-1,-1]","[-0.04262430562163548,0.08450509601893234]","[1,1,1]","[-0.10659702229255967,0.09358887606758026]","[1,1,1]","[-0.002531143236323588,0.15152612403758692]","[-1,-1,-1]","[0.012429152287784304,0.04545745050191143]","[-1,-1,-1]","[-0.031862116778276973,-0.09421304001166457]","[-1,-1,-1]","[-0.10238404515852897,-0.004220169241571841]","[-1,-1,-1]","[0.11919569034518156,0.10245863094481109]","[-1,-1,-1]","[-0.14880543043158165,-0.0971946816823752]","[-1,-1,-1]","[0.04425399806578655,0.11098057527733539]","[1,1,1]","[0.11594108699924233,-0.045629088500190304]","[-1,-1,-1]","[-0.05020673179329819,-0.13102636788447997]","[1,1,1]","[0.03375414946857283,-0.04655884044777685]","[-1,-1,-1]","[-0.1481159646242178,0.1036162491627557]","[1,1,1]","[-0.010229561036984532,-0.18676836938587318]","[1,1,1]","[-0.15761485447120738,0.03732353695532335]","[-1,-1,-1]","[0.04105635845195256,0.15957035856789778]","[-1,-1,-1]","[0.13021033226485892,0.010468875971026697]","[1,1,1]","[0.11367281757857554,0.15902262825322364]","[1,1,1]","[0.03147092874162001,-0.12854750000651066]","[-1,-1,-1]","[-0.03783765864480274,0.13142232906940043]","[-1,-1,-1]","[0.1917720590615486,0.005777025881578764]","[1,1,1]","[-0.043269728618987875,0.17212393725054972]","[-1,-1,-1]","[0.1753150032226765,0.08068312199251161]","[-1,-1,-1]","[-0.18919845361996362,-0.02382134481323208]","[1,1,1]","[0.09172611872614841,-0.006748029845485657]","[-1,-1,-1]","[-0.03894908067739635,0.014990175305421906]","[1,1,1]","[0.11374654491926552,-0.13749665531893893]","[-1,-1,-1]","[0.02,0.02]",186.7319,0,23,23,41,1,,,,,,,
,,,,,,,55a2159bfdf99b3cec08f1a9,682f0fc0fbab2d8779208fc4,2025-05-22_13h51.33.490,cuing_paradigm_dot,2024.1.5,Win32,142.8571429,682d573fa47f1360d1451895,,,,,,,,,,,186.7321,187.2319,,,187.4821,187.718,left,0.2241,,,,,,,,,0.9,,,,,,187.2319,187.4821,187.7181,"[0.08143204624919748,0.09136361438637564]","[1,1,1]","[0.05827632339359553,0.040059789676705156]","[1,1,1]","[-0.03054305773348233,0.08452342418348203]","[1,1,1]","[0.1369822800612165,0.05346577287536091]","[1,1,1]","[0.010806296368273665,0.06119657975148186]","[-1,-1,-1]","[-0.13349010057876673,-0.14195556226639586]","[1,1,1]","[0.17709248024090452,-0.02946692653740791]","[1,1,1]","[-0.16472348050760197,-0.09409702101483511]","[1,1,1]","[-0.04395083107124047,-0.08061588652056108]","[1,1,1]","[0.07994909864776407,-0.18146063258672268]","[1,1,1]","[-0.08194607565151729,0.1148539501011536]","[1,1,1]","[-0.05070634107856207,0.03933144462697906]","[1,1,1]","[0.0006705659917361469,-0.014912367189476698]","[1,1,1]","[0.08971256068988209,-0.0964552926511245]","[1,1,1]","[0.002159901013861257,-0.061153256552788]","[1,1,1]","[-0.013555603125666678,0.15560605757406443]","[1,1,1]","[-0.09434889000164724,-0.01588173538163445]","[1,1,1]","[0.13983672864185515,-0.10515266410865437]","[1,1,1]","[0.0008877620490996185,0.1168967437137846]","[1,1,1]","[-0.1589472315615874,-0.021464095159943773]","[1,1,1]","[-0.10723652616051622,0.06209416952002806]","[1,1,1]","[0.13606613014130295,0.13585082594877135]","[1,1,1]","[-0.165466479463056,0.038900552669598645]","[1,1,1]","[-0.08352272164728189,-0.1730875991122198]","[-1,-1,-1]","[-0.121329077330152,0.12328587031808287]","[1,1,1]","[0.15464914418873701,0.009866244369147313]","[1,1,1]","[0.10903597989452628,-0.021969275501523063]","[-1,-1,-1]","[0.04279984438113228,-0.14319171719087356]","[1,1,1]","[0.1789293610765696,0.042205370320565004]","[1,1,1]","[0.028321305268008856,0.1970161688220566]","[1,1,1]","[0.1051467529348464,-0.1489416940967202]","[1,1,1]","[0.058948582861120286,-0.06733128421411373]","[1,1,1]","[0.02,0.02]",188.8155,0,24,24,197,1,,,,,,,
,,,,,,,55a2159bfdf99b3cec08f1a9,682f0fc0fbab2d8779208fc4,2025-05-22_13h51.33.490,cuing_paradigm_dot,2024.1.5,Win32,142.8571429,682d573fa47f1360d1451895,,,,,,,,,,,188.8158,189.3155,,,189.5656,189.878,right,0.2987,,,,,,,,,0.4,,,,,,189.3155,189.5656,189.878,"[-0.06476978397784931,0.0036715342406571914]","[-1,-1,-1]","[-0.06355654542036199,-0.06648097643267514]","[-1,-1,-1]","[0.012010238736040834,0.11068762576665928]","[1,1,1]","[-0.05934458289489369,0.13811749944777432]","[1,1,1]","[-0.1541925608891677,0.1032533645264355]","[-1,-1,-1]","[-0.01517259279124376,-0.18675417166714886]","[1,1,1]","[-0.11843610517949986,-0.04519901342437394]","[-1,-1,-1]","[0.09592151627289056,0.14502636635808455]","[1,1,1]","[0.07367818664632166,-0.18288622693157763]","[-1,-1,-1]","[0.018222456371152954,0.19640811131722555]","[-1,-1,-1]","[-0.11078797626398812,0.1325476344512547]","[-1,-1,-1]","[0.1533411640540251,0.05002637501000818]","[-1,-1,-1]","[0.07968653578242779,0.033103938379086206]","[-1,-1,-1]","[-0.12109405275066742,-0.004596937265359393]","[1,1,1]","[0.08290410609719784,-0.07593610028394442]","[-1,-1,-1]","[-0.01422391727939183,-0.08317487855597482]","[1,1,1]","[-0.1639280247415688,0.03533807637713022]","[-1,-1,-1]","[0.0908675117570033,-0.13679031416209478]","[-1,-1,-1]","[-0.06484604616062888,-0.17991137438409308]","[-1,-1,-1]","[-0.0241797595249373,0.17742897768208726]","[1,1,1]","[-0.014037518644839514,-0.1377372103600943]","[-1,-1,-1]","[-0.18293232483734143,-0.05235059628122517]","[1,1,1]","[0.062248279817991595,0.10003674807776171]","[1,1,1]","[0.06557978489813851,-0.03816087899926683]","[1,1,1]","[0.11521764595261295,-0.030755990237676546]","[-1,-1,-1]","[0.058784416835095527,0.181250230983787]","[-1,-1,-1]","[-0.11478829094449833,0.08571620911848987]","[1,1,1]","[-0.19186197688958678,-0.006430874737555318]","[-1,-1,-1]","[0.026179847478153488,-0.06685410717078963]","[1,1,1]","[-0.1223020391176929,-0.1404418060607124]","[-1,-1,-1]","[-0.03371353201845909,0.03481953224295971]","[1,1,1]","[0.13335611479490375,0.11400286957954989]","[-1,-1,-1]","[0.02,0.02]",190.9754,0,25,25,46,1,,,,,,,
,,,,,,,55a2159bfdf99b3cec08f1a9,682f0fc0fbab2d8779208fc4,2025-05-22_13h51.33.490,cuing_paradigm_dot,2024.1.5,Win32,142.8571429,682d573fa47f1360d1451895,,,,,,,,,,,190.9756,191.4755,,,191.7256,192.0936,right,0.3589,,,,,,,,,0.55,,,,,,191.4755,191.7256,192.0936,"[0.07688570091830915,0.17655126784080116]","[1,1,1]","[-0.14147814010694174,-0.05860491577947634]","[-1,-1,-1]","[0.06135541862997089,0.13619243189419114]","[1,1,1]","[0.12184218874364482,-0.049015268893833876]","[1,1,1]","[-0.09502385592273506,0.010549425271620083]","[-1,-1,-1]","[0.010911340371821608,0.06049306169860215]","[-1,-1,-1]","[0.10202201020073064,-0.16686247344845706]","[-1,-1,-1]","[0.08065981035955395,0.0005299708546491978]","[1,1,1]","[-0.03778594844192962,0.18491817651770193]","[-1,-1,-1]","[0.16755307167151842,-0.07384670093838987]","[1,1,1]","[-0.03643724278495158,-0.05070320810703251]","[-1,-1,-1]","[-0.08150446670567417,0.16230579911327597]","[1,1,1]","[0.014815296470859414,0.01905979933381245]","[-1,-1,-1]","[0.12396040299027525,-0.10871971024322505]","[1,1,1]","[-0.15131737517654276,0.05962847215703567]","[1,1,1]","[-0.01875466934459951,-0.18573610700771664]","[-1,-1,-1]","[0.001974734589523094,-0.03499614878260361]","[1,1,1]","[0.009294958921558913,0.12561590623274194]","[-1,-1,-1]","[-0.10523763165675677,-0.030288634480758393]","[-1,-1,-1]","[0.056822956374960376,0.09169137460047606]","[1,1,1]","[0.04811237138527646,-0.1415123357726365]","[1,1,1]","[0.0021692182934207422,0.1956746995227316]","[1,1,1]","[0.08179214613449433,-0.04977070091583152]","[1,1,1]","[-0.09886870199163104,0.10811854678374454]","[-1,-1,-1]","[-0.07859725964745745,-0.1605935331210899]","[1,1,1]","[0.18953067884724553,0.04725434136949668]","[-1,-1,-1]","[-0.18171941891894688,0.01726959190504034]","[-1,-1,-1]","[-0.05286006953054696,0.04449186684930235]","[1,1,1]","[0.018557294447509587,-0.10441617461112783]","[-1,-1,-1]","[-0.010364849799905046,-0.13977934585197188]","[1,1,1]","[0.0467751993627038,-0.028170705957816775]","[1,1,1]","[0.16435172996181452,0.09051277423445403]","[1,1,1]","[0.02,0.02]",193.1909,0,26,26,147,1,,,,,,,
,,,,,,,55a2159bfdf99b3cec08f1a9,682f0fc0fbab2d8779208fc4,2025-05-22_13h51.33.490,cuing_paradigm_dot,2024.1.5,Win32,142.8571429,682d573fa47f1360d1451895,,,,,,,,,,,193.1911,193.691,,,193.9412,194.5384,right,0.5836,,,,,,,,,0.45,,,,,,193.691,193.9411,194.5384,"[0.019786739676192995,-0.16061473626455847]","[-1,-1,-1]","[0.025139994036719883,0.02850620576260198]","[-1,-1,-1]","[0.011808640509257293,-0.08206561073498653]","[1,1,1]","[0.027577774585299607,-0.026595936343802765]","[1,1,1]","[0.12300928308684655,-0.04498309788478763]","[-1,-1,-1]","[0.08900309432182768,-0.1609135679341267]","[-1,-1,-1]","[-0.05103965258337299,-0.020623320549065568]","[1,1,1]","[0.14414434645270263,-0.000022273621625342023]","[1,1,1]","[-0.027961919849841414,-0.05442411898224872]","[1,1,1]","[-0.14322167074039993,-0.057111551678832924]","[-1,-1,-1]","[-0.11185016692356683,-0.15930927522576985]","[1,1,1]","[-0.1226008468727275,0.0949007034906629]","[1,1,1]","[-0.09466137130663749,0.05843557488831299]","[-1,-1,-1]","[0.028811347218356778,0.18883365835889704]","[-1,-1,-1]","[0.08397065753595112,0.04986401632377214]","[-1,-1,-1]","[-0.18740268668043822,0.022594251793404043]","[1,1,1]","[-0.010579592755351546,0.06441054962110103]","[1,1,1]","[-0.1072342487921136,0.1436968309934904]","[1,1,1]","[0.15557030664251606,-0.11625130397150212]","[1,1,1]","[0.14597007501475945,0.11245611744013623]","[-1,-1,-1]","[0.04710861758139131,0.14516043609698884]","[-1,-1,-1]","[-0.144218471459458,0.02350043065730694]","[1,1,1]","[-0.045920668068820156,-0.16361984631029997]","[-1,-1,-1]","[0.10368335777065117,0.13348229248970575]","[-1,-1,-1]","[-0.0337323292547726,0.1390753651925465]","[1,1,1]","[0.18087956954901638,0.03996386989536934]","[-1,-1,-1]","[0.18992281728749796,-0.020610232548577335]","[-1,-1,-1]","[0.06463748676887851,-0.0841992004636938]","[-1,-1,-1]","[-0.10149472726232617,-0.10024920670871493]","[-1,-1,-1]","[-0.15851569638977783,0.06677839777671493]","[-1,-1,-1]","[0.029022324453015252,0.0711163152129467]","[1,1,1]","[0.08504200106678513,-0.011493994412533645]","[-1,-1,-1]","[0.02,0.02]",195.6357,0,27,27,73,1,,,,,,,
,,,,,,,55a2159bfdf99b3cec08f1a9,682f0fc0fbab2d8779208fc4,2025-05-22_13h51.33.490,cuing_paradigm_dot,2024.1.5,Win32,142.8571429,682d573fa47f1360d1451895,,,,,,,,,,,195.6359,196.1357,,,196.3858,196.7052,right,0.3078,,,,,,,,,0.45,,,,,,196.1357,196.3858,196.7053,"[0.14393442731911674,0.02285144224522669]","[-1,-1,-1]","[0.14117573095968566,-0.08269210199383469]","[-1,-1,-1]","[0.13665225917828236,-0.12721827076296105]","[1,1,1]","[-0.02881029005114874,0.14913633267905652]","[1,1,1]","[-0.0059970215637511134,-0.007046349484911714]","[1,1,1]","[-0.0344186606864243,-0.16479757944229365]","[1,1,1]","[0.03225468200263431,0.192814268121035]","[-1,-1,-1]","[-0.12421009085082789,0.10850399397749544]","[1,1,1]","[-0.16636331823897701,-0.0959134576694304]","[-1,-1,-1]","[0.0612791724135129,-0.00417104791694119]","[1,1,1]","[-0.010531132622303917,0.041014725071489386]","[-1,-1,-1]","[-0.05923779689785117,-0.038721552488364654]","[-1,-1,-1]","[-0.18109004977024876,-0.026823464145713512]","[1,1,1]","[-0.06908477388692426,0.003634539194362076]","[-1,-1,-1]","[-0.008658427248497276,0.1865242169009122]","[-1,-1,-1]","[0.1279581499392824,-0.040753665122524985]","[1,1,1]","[-0.035002220076350836,-0.11977307514461757]","[-1,-1,-1]","[0.011536105710686776,-0.15568397285560473]","[-1,-1,-1]","[0.0549246439597077,-0.14262122289206358]","[1,1,1]","[-0.09188804881687822,0.1379057498257524]","[1,1,1]","[0.07767796852780824,-0.056414779676737095]","[-1,-1,-1]","[-0.11294524287177063,0.05931099653503508]","[-1,-1,-1]","[-0.03836103493807021,0.09104752113901271]","[-1,-1,-1]","[0.1781504165702685,-0.006878698987491508]","[-1,-1,-1]","[-0.06003874543894379,0.18803366313195816]","[-1,-1,-1]","[-0.1818796747549404,0.040772620710104075]","[1,1,1]","[-0.11140433238493704,0.0014683751106041836]","[1,1,1]","[0.037662363103258066,-0.06018784711410132]","[-1,-1,-1]","[-0.08600329412200629,-0.15475665746731324]","[-1,-1,-1]","[0.04482266416527061,0.1485268910684319]","[-1,-1,-1]","[0.10025793621856223,-0.14912097162330162]","[1,1,1]","[0.0986903701313348,0.10878081709426392]","[1,1,1]","[0.02,0.02]",197.8025,0,28,28,64,1,,,,,,,
,,,,,,,55a2159bfdf99b3cec08f1a9,682f0fc0fbab2d8779208fc4,2025-05-22_13h51.33.490,cuing_paradigm_dot,2024.1.5,Win32,142.8571429,682d573fa47f1360d1451895,,,,,,,,,,,197.8027,198.3026,,,198.5527,198.9902,right,0.429,,,,,,,,,0.5,,,,,,198.3026,198.5527,198.9902,"[0.14522473101237934,0.12719180137673122]","[-1,-1,-1]","[-0.1420949393049228,0.12898995956586212]","[1,1,1]","[0.16967100395571472,0.08612730146056857]","[-1,-1,-1]","[-0.03408637025492298,0.014463011887411165]","[1,1,1]","[-0.0007517796428235126,0.0810777680701314]","[1,1,1]","[0.14040178468631193,-0.023035104382165196]","[-1,-1,-1]","[-0.06099465640453111,0.09928771451920455]","[-1,-1,-1]","[-0.18288105778128963,-0.006141499155296637]","[-1,-1,-1]","[0.0463360162198575,-0.03794116578534033]","[1,1,1]","[-0.007476818765018027,0.1708687420823408]","[-1,-1,-1]","[0.032265454745504664,0.18571927990092466]","[-1,-1,-1]","[-0.13067091366287273,-0.0997713570305826]","[-1,-1,-1]","[-0.1367935855207945,0.013711536444833554]","[1,1,1]","[-0.04094873918767473,0.1460626624295632]","[-1,-1,-1]","[-0.10760265081741262,-0.14946970218276745]","[1,1,1]","[-0.08191243293148111,0.1340783680519835]","[1,1,1]","[0.07069220400909312,-0.15778273944749277]","[1,1,1]","[-0.04637586846623769,-0.11337724782384571]","[1,1,1]","[0.03803589686893394,0.0020164221599735044]","[1,1,1]","[-0.07499690902497323,0.005138062925846487]","[-1,-1,-1]","[0.002507995618539457,-0.19696375041675393]","[-1,-1,-1]","[0.104627356366442,0.11410147070951097]","[-1,-1,-1]","[0.10846129089461293,-0.06138229287492223]","[1,1,1]","[0.019592314756226695,0.11822319499879055]","[1,1,1]","[0.12409390843997202,0.0639128142892727]","[-1,-1,-1]","[-0.038232882007846886,-0.1618889542905559]","[-1,-1,-1]","[0.016092063850005757,-0.1581720282864706]","[-1,-1,-1]","[0.16161831953411582,0.025244415451795718]","[1,1,1]","[0.19773507340026383,-0.007819085366935355]","[1,1,1]","[0.07828498559300642,-0.00637773214445038]","[1,1,1]","[0.16330680351849428,-0.08900828847264293]","[1,1,1]","[-0.04273370397156939,-0.041841639646781975]","[-1,-1,-1]","[0.02,0.02]",200.0875,0,29,29,108,1,,,,,,,
,,,,,,,55a2159bfdf99b3cec08f1a9,682f0fc0fbab2d8779208fc4,2025-05-22_13h51.33.490,cuing_paradigm_dot,2024.1.5,Win32,142.8571429,682d573fa47f1360d1451895,,,,,,,,,,,200.0877,200.5876,,,200.8377,201.1224,left,0.2721,,,,,,,,,0.9,,,,,,200.5876,200.8376,201.1224,"[0.020955597500560936,-0.09908862918604318]","[1,1,1]","[-0.11179967816461102,-0.13711933382188138]","[1,1,1]","[-0.036545671663545026,-0.07959381745503712]","[1,1,1]","[0.08409771669980382,-0.005701181680035009]","[1,1,1]","[-0.18523036445787355,-0.021197612463608923]","[1,1,1]","[0.1590642296154815,-0.10502189461523534]","[1,1,1]","[-0.1363437252024076,0.01835319277827927]","[1,1,1]","[-0.03502813694318421,0.12267580460804141]","[1,1,1]","[-0.03562151506158792,-0.005714000101684185]","[1,1,1]","[-0.05275621261008743,0.1731949116478186]","[1,1,1]","[-0.0057832608781712425,-0.14672117777077517]","[-1,-1,-1]","[-0.07759127480655317,-0.08380248521050644]","[-1,-1,-1]","[0.02871191986448237,0.0281554011217678]","[1,1,1]","[0.06066460588387206,0.06146716340411784]","[1,1,1]","[0.1753050718538101,0.0020178537564495658]","[1,1,1]","[-0.02997269289339134,0.0782153003963932]","[1,1,1]","[-0.14361591738060991,0.11115071383340158]","[1,1,1]","[0.0775906315731336,0.14937717059348884]","[1,1,1]","[-0.07550180884713838,-0.03276252874189988]","[1,1,1]","[0.12590868697381932,0.09232189125278331]","[1,1,1]","[0.07888345776882402,-0.058541645089149726]","[1,1,1]","[-0.15272128621255546,-0.049852288234024565]","[-1,-1,-1]","[0.00923110687376462,-0.016221911242525214]","[1,1,1]","[-0.10286868218658818,0.04327085289328729]","[1,1,1]","[0.013189037294051372,0.13835981604408523]","[1,1,1]","[0.08146348359469345,-0.10161874252933151]","[1,1,1]","[0.14332429512640588,-0.04348332125947115]","[1,1,1]","[-0.05316276655763454,-0.17987318771966262]","[1,1,1]","[-0.15600800980658455,-0.11898207030448302]","[1,1,1]","[0.11702058821999181,-0.14755335897965224]","[1,1,1]","[0.19498753563866905,-0.03545055377834909]","[1,1,1]","[0.0903050539608689,0.03417661810290216]","[1,1,1]","[0.02,0.02]",202.2197,0,30,30,185,1,,,,,,,
,,,,,,,55a2159bfdf99b3cec08f1a9,682f0fc0fbab2d8779208fc4,2025-05-22_13h51.33.490,cuing_paradigm_dot,2024.1.5,Win32,142.8571429,682d573fa47f1360d1451895,,,,,,,,,,,202.2199,202.7197,,,202.9705,203.4143,right,0.4341,,,,,,,,,0.1,,,,,,202.7197,202.9705,203.4143,"[0.05344807174045743,-0.03561752330132562]","[-1,-1,-1]","[0.048032566338134026,-0.1428981869007097]","[-1,-1,-1]","[-0.05427147839885225,-0.13926229913721375]","[-1,-1,-1]","[0.024822669684187462,0.14210730299749627]","[-1,-1,-1]","[0.16832804932467654,0.07660462422050757]","[-1,-1,-1]","[-0.015826164324467526,0.09962403921729575]","[-1,-1,-1]","[-0.07894371474733607,-0.09421495698127325]","[-1,-1,-1]","[0.117143535221664,-0.06492830747847611]","[-1,-1,-1]","[-0.05073615521404312,-0.026732198187546925]","[-1,-1,-1]","[0.04253550420134211,0.0224367541771367]","[-1,-1,-1]","[0.017153197773187676,-0.08106072463882186]","[-1,-1,-1]","[0.09292908718323047,-0.11454267605352797]","[-1,-1,-1]","[0.0007721576592598273,0.18676361937838085]","[-1,-1,-1]","[-0.18250427330541963,-0.018707255703856486]","[-1,-1,-1]","[0.06043533143849373,-0.18497054936666005]","[-1,-1,-1]","[0.11344273315487768,0.03592929092607123]","[-1,-1,-1]","[0.1567994024584226,0.024996473664651915]","[-1,-1,-1]","[-0.043777777893853134,0.15086757572888673]","[-1,-1,-1]","[-0.14169885586609304,-0.09392966066483269]","[1,1,1]","[-0.04816875653902485,0.07021799115516071]","[-1,-1,-1]","[-0.06015584378842756,0.1135437174078196]","[-1,-1,-1]","[0.08142625238674313,0.11454046649155764]","[-1,-1,-1]","[0.09944589747856271,-0.025019866948340266]","[-1,-1,-1]","[-0.12009853179634229,-0.13565588901878287]","[-1,-1,-1]","[0.1975958398680288,0.006327332946519031]","[-1,-1,-1]","[0.12250485301136091,0.09801153432255455]","[-1,-1,-1]","[-0.012670642595348664,-0.15101995696434498]","[1,1,1]","[-0.18411535642702115,0.052297091281436295]","[-1,-1,-1]","[-0.16186166504832858,-0.054931967582201466]","[1,1,1]","[-0.03480423796851203,0.029297296162851365]","[-1,-1,-1]","[0.09783346541929407,-0.1648246789453922]","[-1,-1,-1]","[0.15729364999178808,-0.056515720702523836]","[-1,-1,-1]","[0.02,0.02]",204.5116,0,31,31,26,1,,,,,,,
,,,,,,,55a2159bfdf99b3cec08f1a9,682f0fc0fbab2d8779208fc4,2025-05-22_13h51.33.490,cuing_paradigm_dot,2024.1.5,Win32,142.8571429,682d573fa47f1360d1451895,,,,,,,,,,,204.5118,205.0117,,,205.2618,205.5465,right,0.2742,,,,,,,,,0.45,,,,,,205.0117,205.2618,205.5465,"[0.11459381398559113,0.06522554499069849]","[1,1,1]","[-0.04319736802333006,-0.1906474034838487]","[-1,-1,-1]","[0.028128993437081966,0.02158669028871812]","[-1,-1,-1]","[0.008537003662623492,-0.08104324693877961]","[-1,-1,-1]","[0.0325710326904915,0.08570669457064452]","[1,1,1]","[-0.0194778954346305,-0.0008243403573092088]","[1,1,1]","[0.04692150666199001,-0.141645505061969]","[1,1,1]","[-0.06383632813173627,0.10120581694529365]","[1,1,1]","[-0.07832766612361192,0.16683725410836184]","[1,1,1]","[0.16527812438738942,0.011997365467705948]","[-1,-1,-1]","[-0.1031529211959285,0.03544700058552491]","[-1,-1,-1]","[0.07733305257807668,-0.00329872418090694]","[1,1,1]","[-0.03459467091020684,0.1585773947141489]","[-1,-1,-1]","[-0.0029582445622339765,-0.12032261393976476]","[1,1,1]","[0.10901511919868782,-0.144907076066797]","[1,1,1]","[-0.15582599721751456,0.1066757399418691]","[-1,-1,-1]","[-0.13888687572869554,-0.08061091120353263]","[-1,-1,-1]","[0.09736091016872592,-0.09710159883498283]","[-1,-1,-1]","[-0.17704428729629104,0.03833287926028944]","[-1,-1,-1]","[0.15911193554573924,0.07436108256320939]","[1,1,1]","[-0.04663536225500449,0.054077056062584165]","[1,1,1]","[-0.08680031929680315,-0.08355103886089078]","[-1,-1,-1]","[0.11431533465867215,-0.01954656308714383]","[1,1,1]","[-0.10336440426204686,-0.04490485170276396]","[-1,-1,-1]","[0.08554590931026479,0.17553698571846293]","[-1,-1,-1]","[0.16233226907444423,-0.059025806582223964]","[-1,-1,-1]","[0.050721828983856444,-0.18939429353030682]","[-1,-1,-1]","[-0.026401121513712336,-0.05463932261372547]","[-1,-1,-1]","[0.12169649573978271,0.12527742337262573]","[1,1,1]","[0.036288267491601404,0.16245156610004974]","[-1,-1,-1]","[-0.09868462593706834,-0.17188679772750293]","[1,1,1]","[-0.024819828100271796,0.11238208566327941]","[-1,-1,-1]","[0.02,0.02]",206.6437,0,32,32,61,1,,,,,,,
,,,,,,,55a2159bfdf99b3cec08f1a9,682f0fc0fbab2d8779208fc4,2025-05-22_13h51.33.490,cuing_paradigm_dot,2024.1.5,Win32,142.8571429,682d573fa47f1360d1451895,,,,,,,,,,,206.6439,207.1439,,,207.394,207.6161,left,0.2107,,,,,,,,,0.6,,,,,,207.1439,207.394,207.6161,"[0.09829941184736873,-0.11790246139692347]","[-1,-1,-1]","[0.06024323267594647,-0.17324048564360503]","[-1,-1,-1]","[-0.003728696006622426,-0.00070892822360234]","[-1,-1,-1]","[0.10913901257747495,-0.04846309621762243]","[1,1,1]","[0.005988528230717776,0.191831609213534]","[1,1,1]","[-0.044489717984369674,-0.015052408084076707]","[1,1,1]","[0.15297661329955115,0.05562671911734473]","[-1,-1,-1]","[0.06352462751979433,0.1308850247534112]","[1,1,1]","[-0.09298110315045793,-0.07896331327114134]","[1,1,1]","[0.004622544658426214,-0.10384267938978]","[-1,-1,-1]","[-0.1359928837213747,0.07340157432252137]","[1,1,1]","[-0.19078380642591752,0.014111854119645625]","[-1,-1,-1]","[0.09748177041474412,0.1702888743994083]","[1,1,1]","[-0.015858745443788035,0.15600707577334638]","[1,1,1]","[0.02519823280611055,-0.14850365089900805]","[1,1,1]","[0.04503826496020508,-0.042453674300516026]","[1,1,1]","[-0.05768931602476642,0.038306989192856626]","[1,1,1]","[-0.03836429310692557,0.07824898518077408]","[1,1,1]","[-0.09489159303940276,-0.16706737255054888]","[-1,-1,-1]","[-0.11040514503903326,-0.03925297850869221]","[1,1,1]","[0.08199813356724536,0.04940571965175122]","[1,1,1]","[-0.05513911802475852,-0.09891701059119272]","[-1,-1,-1]","[-0.05892313420037826,0.1209652436203355]","[1,1,1]","[-0.10181619133345818,0.03473870448872717]","[-1,-1,-1]","[-0.05783153569131498,0.18212386503026634]","[1,1,1]","[-0.17082718250605142,-0.08836371327834161]","[-1,-1,-1]","[0.1404319330866987,-0.10336306906317123]","[-1,-1,-1]","[0.03293390953572267,0.04169167458615362]","[1,1,1]","[-0.12040245438170363,0.14532965122213942]","[-1,-1,-1]","[0.10183883585648143,-0.16800957589368107]","[-1,-1,-1]","[0.11557128316465123,0.08942280117649815]","[1,1,1]","[0.17543380487736493,-0.029371473636814017]","[1,1,1]","[0.02,0.02]",208.7134,0,33,33,167,1,,,,,,,
,,,,,,,55a2159bfdf99b3cec08f1a9,682f0fc0fbab2d8779208fc4,2025-05-22_13h51.33.490,cuing_paradigm_dot,2024.1.5,Win32,142.8571429,682d573fa47f1360d1451895,,,,,,,,,,,208.7135,209.2136,,,209.4637,209.7413,right,0.2694,,,,,,,,,0.1,,,,,,209.2136,209.4636,209.7414,"[-0.02640233045058656,-0.1275088906674561]","[-1,-1,-1]","[0.11761952961376505,-0.02018737252148952]","[1,1,1]","[-0.1107152630359905,0.14743124856347517]","[-1,-1,-1]","[0.08222891368056884,-0.14608049954275212]","[-1,-1,-1]","[0.16239845156077234,-0.056022011529599146]","[-1,-1,-1]","[0.0735377941406926,-0.1039678359539999]","[-1,-1,-1]","[0.1264474481748968,-0.08354179196148333]","[1,1,1]","[-0.00504774536603123,-0.0484447337605178]","[-1,-1,-1]","[0.058880051633849524,0.054680056565225704]","[-1,-1,-1]","[0.01390601349742072,0.1267063815949898]","[-1,-1,-1]","[0.19174717793713514,0.021757123803164535]","[-1,-1,-1]","[0.04888293889179685,-0.04552812882410669]","[-1,-1,-1]","[-0.039230533625767734,0.15422171995340384]","[-1,-1,-1]","[-0.04880245502330896,-0.1847906256662886]","[-1,-1,-1]","[0.15850878320478404,0.10302296074639275]","[-1,-1,-1]","[-0.0968961455504372,-0.17410716454648056]","[-1,-1,-1]","[-0.1710925431461349,-0.009496420934751566]","[-1,-1,-1]","[-0.14096499336373372,-0.12322264363130978]","[-1,-1,-1]","[0.042205616851404275,-0.16451680278568553]","[-1,-1,-1]","[-0.13449773957445607,0.06647898582227489]","[-1,-1,-1]","[-0.09553489611432803,-0.03894193007270534]","[-1,-1,-1]","[0.09127382856882205,0.1478018011701139]","[-1,-1,-1]","[0.11645957562543842,0.06829183428674987]","[-1,-1,-1]","[0.00817068120111194,0.0788081796073521]","[-1,-1,-1]","[0.03017093082765577,0.16487617370161622]","[-1,-1,-1]","[-0.11255800003016314,0.10029919449029624]","[-1,-1,-1]","[0.024432231875777106,-0.08925612122781217]","[-1,-1,-1]","[-0.1420311882291938,0.02038309823490901]","[-1,-1,-1]","[-0.13577934225911387,-0.08139640039062733]","[-1,-1,-1]","[-0.1766686476753743,-0.07312413682774879]","[-1,-1,-1]","[-0.07466336504139401,-0.1406159019638956]","[1,1,1]","[-0.0669113935222753,0.06104951997912359]","[-1,-1,-1]","[0.02,0.02]",210.8387,0,34,34,27,1,,,,,,,
,,,,,,,55a2159bfdf99b3cec08f1a9,682f0fc0fbab2d8779208fc4,2025-05-22_13h51.33.490,cuing_paradigm_dot,2024.1.5,Win32,142.8571429,682d573fa47f1360d1451895,,,,,,,,,,,210.8388,211.3387,,,211.5889,212.2694,left,0.6683,,,,,,,,,0.55,,,,,,211.3387,211.5889,212.2695,"[0.024189572095237945,-0.06683150125651022]","[-1,-1,-1]","[-0.12550196803238592,0.01377491672524074]","[1,1,1]","[-0.032279840966615264,0.12407317746322874]","[1,1,1]","[-0.08752568621197564,0.15309969736899512]","[-1,-1,-1]","[0.1291227304769245,-0.021267176884871525]","[-1,-1,-1]","[0.11208148470917212,0.13905338975196438]","[-1,-1,-1]","[-0.11710831115280389,0.11207273146659427]","[1,1,1]","[-0.006656588950931948,0.07624065438721013]","[1,1,1]","[-0.18103950375773592,0.007005673561540532]","[-1,-1,-1]","[-0.05432487681458084,-0.17791015746308292]","[1,1,1]","[-0.1907031557245649,-0.03583824855412311]","[-1,-1,-1]","[-0.11319744652104034,-0.16391175926983723]","[1,1,1]","[-0.0059831361684705734,0.010494581015657553]","[1,1,1]","[0.1387954477441253,0.05435924739336929]","[1,1,1]","[-0.019113329259152205,0.16872968485213177]","[-1,-1,-1]","[0.07156871520721667,-0.012249851724944133]","[-1,-1,-1]","[-0.10164137668652974,-0.09451759997136923]","[-1,-1,-1]","[-0.08968276683628092,0.07413797276544454]","[1,1,1]","[0.05476879639496683,0.13005549310128905]","[1,1,1]","[-0.17253455704665085,-0.07509080675935961]","[1,1,1]","[-0.04116655054999734,-0.1076583044689548]","[1,1,1]","[0.16819604107210415,0.09475031340598733]","[-1,-1,-1]","[0.08053746260117918,-0.17448146974712925]","[-1,-1,-1]","[-0.06804089715110372,-0.027811935308095483]","[-1,-1,-1]","[0.09060517053410373,0.09453469878012755]","[-1,-1,-1]","[0.006092216013085014,-0.11325375049063972]","[1,1,1]","[0.08888674711684909,-0.1020457524900769]","[1,1,1]","[-0.1488313005724932,0.08485307551645214]","[1,1,1]","[0.021761683131399066,0.1616640026647311]","[-1,-1,-1]","[0.1668547637713126,0.0032570874413108404]","[1,1,1]","[0.15518696557268374,-0.06420878855439767]","[1,1,1]","[0.0576658825579844,-0.13913869474836693]","[1,1,1]","[0.02,0.02]",213.3667,0,35,35,123,1,,,,,,,
,,,,,,,55a2159bfdf99b3cec08f1a9,682f0fc0fbab2d8779208fc4,2025-05-22_13h51.33.490,cuing_paradigm_dot,2024.1.5,Win32,142.8571429,682d573fa47f1360d1451895,,,,,,,,,,,213.3669,213.8667,,,214.1171,214.5891,right,0.4586,,,,,,,,,0.6,,,,,,213.8667,214.117,214.5891,"[0.013009450995160862,-0.1687808075107748]","[1,1,1]","[0.15258302054131442,-0.11453610257663935]","[1,1,1]","[0.08313490530563514,0.13089778199007104]","[-1,-1,-1]","[0.0026183822421986264,0.19841931488700534]","[1,1,1]","[-0.0863244447577214,-0.10356787101656849]","[-1,-1,-1]","[-0.06482939915529261,0.08894515047204728]","[1,1,1]","[0.03606087245755984,-0.011037719652251214]","[1,1,1]","[-0.03479659218962953,-0.037195954098725774]","[-1,-1,-1]","[-0.026209311615256806,0.009449297680047222]","[1,1,1]","[-0.024229624459869325,-0.0839797698379387]","[-1,-1,-1]","[-0.13248744922690991,-0.11558858795080493]","[-1,-1,-1]","[0.032471542783067645,0.0739422621411422]","[1,1,1]","[0.15348155141610043,0.07431254251692482]","[1,1,1]","[0.08352451449063285,-0.13937604067987727]","[1,1,1]","[-0.08773685064957577,-0.04469645002290486]","[1,1,1]","[0.03953330660011898,-0.1238982111428623]","[-1,-1,-1]","[0.08347665289699976,0.014802301791204321]","[-1,-1,-1]","[-0.10221875004034026,0.0702988595323979]","[1,1,1]","[0.1142819174130838,-0.027789343255282112]","[1,1,1]","[-0.18914404112631983,-0.04028382487068485]","[-1,-1,-1]","[-0.1730891140786859,0.025596884931252988]","[1,1,1]","[0.19310042452451331,-0.02639037752549159]","[1,1,1]","[-0.05972536187132253,-0.16599596775353573]","[-1,-1,-1]","[0.1412657649336257,0.116576971258395]","[1,1,1]","[-0.15193860783811086,0.07994274028080257]","[1,1,1]","[0.10606961968978594,-0.08423844704387254]","[1,1,1]","[-0.014635666975942655,0.05166610970056484]","[-1,-1,-1]","[0.15092882105151792,0.02971458336847]","[1,1,1]","[-0.14662232570262776,-0.0577995094656364]","[1,1,1]","[-0.09487608086278379,0.15023144445874828]","[-1,-1,-1]","[0.1139503278542377,0.06620682417180107]","[-1,-1,-1]","[0.15204909583835652,-0.07032715621175384]","[-1,-1,-1]","[0.02,0.02]",215.6864,0,36,36,160,1,,,,,,,
,,,,,,,55a2159bfdf99b3cec08f1a9,682f0fc0fbab2d8779208fc4,2025-05-22_13h51.33.490,cuing_paradigm_dot,2024.1.5,Win32,142.8571429,682d573fa47f1360d1451895,,,,,,,,,,,215.6867,216.1865,,,216.4367,216.9783,right,0.5288,,,,,,,,,0.6,,,,,,216.1865,216.4366,216.9783,"[-0.13110750723715356,-0.08689651908227598]","[-1,-1,-1]","[-0.0589482301172691,0.06315917852576054]","[-1,-1,-1]","[0.0642321733637303,0.1818419229432531]","[-1,-1,-1]","[0.15595330178306435,-0.11201678814713592]","[1,1,1]","[0.12737658551708766,0.0012981033128790429]","[1,1,1]","[0.07273616858655946,-0.1455284894193364]","[1,1,1]","[0.13501933886602474,-0.04724016241127246]","[1,1,1]","[0.1811691327499704,0.06124078266485182]","[-1,-1,-1]","[-0.03702805007416352,-0.06364210656192164]","[1,1,1]","[-0.13243182299393677,0.045014256615893665]","[-1,-1,-1]","[0.017689104660203438,-0.1467660492205935]","[-1,-1,-1]","[0.05137607018743752,0.1176132759149095]","[1,1,1]","[-0.06547055487326259,0.16006443412607999]","[1,1,1]","[-0.008733507921654542,0.16521633898634405]","[-1,-1,-1]","[0.1875848837031449,-0.01648810340724721]","[1,1,1]","[-0.14930485185289355,-0.12324579045889168]","[-1,-1,-1]","[-0.03345429640194236,0.13116782899644358]","[-1,-1,-1]","[0.017376579570351065,0.058483918158816955]","[-1,-1,-1]","[-0.03284564791503463,-0.01787674870896234]","[1,1,1]","[0.08923578056533142,-0.09660093003491176]","[-1,-1,-1]","[-0.06796132205391946,-0.11414192304792954]","[1,1,1]","[-0.13651374514752612,0.1199344736000271]","[1,1,1]","[0.046531385046436974,-0.0008709530599811704]","[1,1,1]","[-0.039272185687349456,0.023576404352556323]","[1,1,1]","[0.19775787173564785,0.02397551503100727]","[1,1,1]","[0.11836971032835421,-0.13957261387986514]","[1,1,1]","[0.026912012605408736,-0.1072624146694979]","[1,1,1]","[0.023596206738039326,0.19601168588925105]","[-1,-1,-1]","[0.11517973425119322,0.15087460970226294]","[-1,-1,-1]","[-0.18203203473382062,0.06234746514283485]","[1,1,1]","[0.06977347917863398,-0.048000860298905136]","[1,1,1]","[0.14914767318999542,0.09032039326296104]","[1,1,1]","[0.02,0.02]",218.0756,0,37,37,170,1,,,,,,,
,,,,,,,55a2159bfdf99b3cec08f1a9,682f0fc0fbab2d8779208fc4,2025-05-22_13h51.33.490,cuing_paradigm_dot,2024.1.5,Win32,142.8571429,682d573fa47f1360d1451895,,,,,,,,,,,218.0758,218.5756,,,218.8258,219.18,left,0.3468,,,,,,,,,0.9,,,,,,218.5757,218.8258,219.18,"[-0.0646988717125566,-0.1440022712445756]","[1,1,1]","[-0.09301052522947748,0.1347314278565171]","[1,1,1]","[0.01847773909223709,-0.00800079334725982]","[-1,-1,-1]","[0.04985814390681744,0.12008741503772138]","[1,1,1]","[-0.000368918862739847,-0.12653405227410972]","[1,1,1]","[0.1741263351212298,-0.09543396023856654]","[1,1,1]","[0.12244232958435736,0.07855688930720738]","[1,1,1]","[-0.054843044188918985,0.02163629229651147]","[1,1,1]","[0.028808730171049617,-0.07043148594041172]","[1,1,1]","[0.01887084816942624,0.06648617601190207]","[1,1,1]","[-0.010983892253916019,0.1534439972659012]","[1,1,1]","[-0.15639627168756134,-0.0668821439572392]","[1,1,1]","[0.17776233891194554,-0.0483901324457234]","[1,1,1]","[0.08832308944901146,-0.12939163749369734]","[1,1,1]","[0.04069077373705066,-0.17461540856447805]","[1,1,1]","[-0.05569793697852574,-0.0699436227538502]","[1,1,1]","[-0.11243550713804881,0.06362166657457069]","[1,1,1]","[-0.14707685574731968,-0.012485289997573704]","[1,1,1]","[-0.16773902096434273,0.03104576588967189]","[1,1,1]","[0.09269971773136508,0.17322977127829042]","[1,1,1]","[0.19955812566022182,0.010989883979938046]","[1,1,1]","[0.06805355006096762,-0.04104617967648328]","[1,1,1]","[-0.05674602445987338,0.08425001023241711]","[1,1,1]","[-0.1078182453042689,-0.14097451496842087]","[1,1,1]","[0.11807164077707129,0.027620304734561275]","[1,1,1]","[-0.017169267449596265,0.19925642101218644]","[1,1,1]","[0.12536760480510878,-0.012339868438063837]","[1,1,1]","[0.0737225955818184,0.034207422546075644]","[1,1,1]","[-0.09771758700911241,-0.038500604918415095]","[1,1,1]","[-0.1033739488686949,0.022357585747854233]","[-1,-1,-1]","[0.13608187126312557,0.12142867234501525]","[-1,-1,-1]","[-0.022090567104148744,0.11294555043371755]","[1,1,1]","[0.02,0.02]",220.2772,0,38,38,202,1,,,,,,,
,,,,,,,55a2159bfdf99b3cec08f1a9,682f0fc0fbab2d8779208fc4,2025-05-22_13h51.33.490,cuing_paradigm_dot,2024.1.5,Win32,142.8571429,682d573fa47f1360d1451895,,,,,,,,,,,220.2774,220.7773,,,221.0275,221.3885,right,0.3512,,,,,,,,,0.45,,,,,,220.7773,221.0274,221.3885,"[-0.01514362810368619,-0.02517806964977461]","[1,1,1]","[0.1348474587389642,0.039291126658747295]","[-1,-1,-1]","[0.15637848904443313,0.08895837445454557]","[1,1,1]","[-0.01697651909986772,0.06961320819102952]","[1,1,1]","[0.03778228787208623,-0.1914276377899465]","[-1,-1,-1]","[-0.1484140051684573,-0.08076263877719565]","[1,1,1]","[-0.006234441398806388,0.14745753238697493]","[-1,-1,-1]","[-0.0944121464054737,-0.048503702893768146]","[1,1,1]","[0.11118492608689677,0.09346743018068635]","[1,1,1]","[0.06296641823646323,-0.10727223405662147]","[-1,-1,-1]","[-0.1342236981646081,0.09138378508736601]","[1,1,1]","[0.09288672458772196,0.046234049812950664]","[-1,-1,-1]","[0.0406128070609748,0.09840312172357275]","[-1,-1,-1]","[-0.09375510958644606,0.032216303446540945]","[-1,-1,-1]","[-0.11704338217385744,-0.1584374110820201]","[1,1,1]","[-0.19801059360476858,-0.02111691265389088]","[1,1,1]","[0.10598898879846527,-0.15541760010783676]","[1,1,1]","[0.05004036500884028,-0.05742902707500768]","[-1,-1,-1]","[-0.05266603597537082,0.1741005777053879]","[-1,-1,-1]","[-0.03691284610995393,-0.12407746330142164]","[-1,-1,-1]","[0.09961303362453863,-0.02965864824969327]","[1,1,1]","[0.15233542428483188,-0.051965730636232686]","[-1,-1,-1]","[0.01654401505743508,0.04647662922780429]","[-1,-1,-1]","[0.1239254913096333,0.15261363877007508]","[-1,-1,-1]","[0.048884677027976796,0.1449086088615775]","[-1,-1,-1]","[-0.17914055146717714,0.05781537131426114]","[-1,-1,-1]","[0.1677108135053614,-0.09146667390886119]","[1,1,1]","[0.09895509871855777,-0.07957329918629023]","[-1,-1,-1]","[-0.009986642002485334,-0.15435352324476426]","[1,1,1]","[-0.045768885108998174,0.11046256428121284]","[1,1,1]","[-0.0835905430765186,-0.08725485365057142]","[-1,-1,-1]","[-0.1218875696614316,0.1431605499962979]","[-1,-1,-1]","[0.02,0.02]",222.4858,0,39,39,88,1,,,,,,,
,,,,,,,55a2159bfdf99b3cec08f1a9,682f0fc0fbab2d8779208fc4,2025-05-22_13h51.33.490,cuing_paradigm_dot,2024.1.5,Win32,142.8571429,682d573fa47f1360d1451895,,,,,,,,,,,222.4859,222.9858,,,223.236,223.9512,left,0.7048,,,,,,,,,0.5,,,,,,222.9858,223.2359,223.9513,"[-0.08122856064902108,-0.17722312363394707]","[1,1,1]","[-0.02382728142009596,0.12499736136115516]","[-1,-1,-1]","[0.04264206460289172,-0.030877330143229565]","[1,1,1]","[-0.06900396048644113,0.1305590799271647]","[1,1,1]","[-0.15664394562007047,-0.08629923112533724]","[-1,-1,-1]","[0.0374929537277061,-0.15865319908881015]","[-1,-1,-1]","[0.018459714017241956,0.1682665796449989]","[-1,-1,-1]","[-0.003286147245739914,-0.17079884858750477]","[1,1,1]","[-0.15581846474133335,0.061770135385867064]","[1,1,1]","[0.0537372116949299,0.07685031683709864]","[-1,-1,-1]","[0.11490792141942845,-0.130345066573744]","[-1,-1,-1]","[-0.09815335829854815,-0.09329959451922082]","[1,1,1]","[0.09784000216801687,0.06536461645130806]","[1,1,1]","[-0.10200831744913094,0.07740926916861837]","[-1,-1,-1]","[-0.05155193959713748,0.17220183928625332]","[-1,-1,-1]","[0.13961929703795928,-0.06439688436572555]","[-1,-1,-1]","[0.10670383316068849,0.020856773963017664]","[-1,-1,-1]","[-0.19267088588936115,0.04030976943568852]","[-1,-1,-1]","[-0.043679135899714054,0.06681814759675972]","[1,1,1]","[0.17542318056528775,0.0657822893159064]","[1,1,1]","[-0.040492338629515935,-0.09143451729253324]","[1,1,1]","[0.18951042265317333,-0.052806055840426996]","[1,1,1]","[0.0030995797518775007,-0.075307420938479]","[1,1,1]","[-0.023979612354490615,0.015973958762843982]","[-1,-1,-1]","[0.08748486487387751,0.12962968668015246]","[1,1,1]","[-0.13066986265865677,-0.12616207013631223]","[-1,-1,-1]","[0.19140472255352564,-0.0019189384992334977]","[-1,-1,-1]","[0.05270820571249725,-0.11945483492255393]","[1,1,1]","[-0.06987992993104598,0.028019427181921065]","[1,1,1]","[0.013697923328794112,0.05392589341064736]","[1,1,1]","[-0.1592593058772327,0.00745924707574846]","[-1,-1,-1]","[-0.0896285460357534,-0.012035464440506115]","[-1,-1,-1]","[0.02,0.02]",225.0486,0,40,40,112,1,,,,,,,
,,,,,,,55a2159bfdf99b3cec08f1a9,682f0fc0fbab2d8779208fc4,2025-05-22_13h51.33.490,cuing_paradigm_dot,2024.1.5,Win32,142.8571429,682d573fa47f1360d1451895,,,,,,,,,,,225.0488,225.5487,,,225.7987,226.257,right,0.4482,,,,,,,,,0.55,,,,,,225.5487,225.7987,226.257,"[0.06943091109501133,-0.166397857556691]","[1,1,1]","[-0.03723704252085773,0.10203294826034735]","[1,1,1]","[0.0063455500023736,-0.163523973290454]","[-1,-1,-1]","[-0.05129014528080151,-0.09118222691856759]","[-1,-1,-1]","[0.07954251874536855,0.0013445466207518213]","[-1,-1,-1]","[0.13346044265367354,-0.012962791638735954]","[1,1,1]","[-0.08320716934298646,0.14487690878808415]","[-1,-1,-1]","[0.034961089582540426,0.09764942063722182]","[1,1,1]","[-0.14167773314672563,0.08031496980606255]","[1,1,1]","[0.09648553157358852,-0.05274182152927518]","[1,1,1]","[0.1845678934269249,-0.07606276682470624]","[1,1,1]","[-0.0786287343128402,0.09367233014459568]","[-1,-1,-1]","[-0.1429231472835902,-0.037618836464612684]","[1,1,1]","[0.16561115856436673,0.03796010509172837]","[-1,-1,-1]","[-0.03914849333937462,-0.13653754253741357]","[-1,-1,-1]","[0.038314241837918143,0.029780374955340094]","[1,1,1]","[-0.02028949581615465,0.19373603007670903]","[-1,-1,-1]","[0.14079333834041025,0.11466578919277746]","[1,1,1]","[-0.10256209599248121,-0.12496733620786962]","[1,1,1]","[-0.14628446522214386,0.13456368693404913]","[-1,-1,-1]","[-0.12355344685883474,0.008404940147808692]","[1,1,1]","[-0.09254276917307636,-0.027984075448316173]","[1,1,1]","[0.07710663361081445,0.15082506084939237]","[1,1,1]","[-0.1918328630919671,0.023195888334026235]","[-1,-1,-1]","[-0.06594787172569137,0.006773268660807419]","[1,1,1]","[0.03758236667316242,-0.08922211785441554]","[1,1,1]","[0.026538168380339944,-0.020518036403718732]","[1,1,1]","[0.11490208285903934,-0.09101014137847772]","[-1,-1,-1]","[0.057760026412949514,0.1869209718366746]","[-1,-1,-1]","[-0.10390690859112163,-0.06983356659472152]","[1,1,1]","[-0.13658875753553984,-0.10370304796203385]","[-1,-1,-1]","[-0.030033782196934807,-0.05327204043824616]","[-1,-1,-1]","[0.02,0.02]",227.3544,0,41,41,127,1,,,,,,,
,,,,,,,55a2159bfdf99b3cec08f1a9,682f0fc0fbab2d8779208fc4,2025-05-22_13h51.33.490,cuing_paradigm_dot,2024.1.5,Win32,142.8571429,682d573fa47f1360d1451895,,,,,,,,,,,227.3545,227.8545,,,228.1045,228.417,right,0.3003,,,,,,,,,0.4,,,,,,227.8545,228.1045,228.417,"[-0.1552061101640417,0.020394152098833242]","[1,1,1]","[-0.006556198021907264,0.03322505720697899]","[-1,-1,-1]","[-0.16404611500556376,-0.04918422017105437]","[-1,-1,-1]","[0.10759896194647063,0.11560722721788928]","[-1,-1,-1]","[-0.19045464808433782,-0.019132470495667096]","[-1,-1,-1]","[0.04333172256225867,0.17619533572018606]","[-1,-1,-1]","[-0.14436924349682442,-0.10528669950279135]","[-1,-1,-1]","[0.1727143238848808,0.07266558345365615]","[1,1,1]","[-0.021992834951113066,-0.14390610906332094]","[-1,-1,-1]","[-0.0848093990046018,0.02103867253855765]","[1,1,1]","[0.15726371060900945,-0.016174491066717724]","[-1,-1,-1]","[0.12266804793207535,-0.03639107891726226]","[1,1,1]","[0.13810289937541234,0.02834963133509061]","[-1,-1,-1]","[-0.07606959097229617,-0.07380249954501751]","[-1,-1,-1]","[-0.11414665747023604,-0.14626856388560902]","[1,1,1]","[0.014730959106943484,-0.017820999607233635]","[1,1,1]","[-0.04437231433813526,0.17778970451409226]","[1,1,1]","[-0.13727042573665532,0.06510046933704153]","[1,1,1]","[0.07898934302160186,-0.1220350536265344]","[-1,-1,-1]","[-0.11623973224738708,0.13519677757760237]","[1,1,1]","[-0.06021397788060422,-0.16502836926207612]","[-1,-1,-1]","[0.12999489165773417,-0.14156338796518292]","[1,1,1]","[0.0030906579834849095,0.09830051434939546]","[-1,-1,-1]","[0.08668967143782842,0.16031444571602302]","[-1,-1,-1]","[-0.051155226345622765,-0.0159121466255273]","[-1,-1,-1]","[0.16581986749751584,-0.09124721618900335]","[-1,-1,-1]","[-0.1184631724579445,-0.06704438673252727]","[-1,-1,-1]","[-0.0687508265498378,0.10913154537792995]","[1,1,1]","[0.03224885217130419,-0.06081124282787492]","[-1,-1,-1]","[0.046068961323209354,-0.16870175647765892]","[1,1,1]","[-0.18872356530467135,0.05788254774099137]","[1,1,1]","[-0.06701628692670088,-0.11965329161881708]","[-1,-1,-1]","[0.02,0.02]",229.5144,0,42,42,30,1,,,,,,,
,,,,,,,55a2159bfdf99b3cec08f1a9,682f0fc0fbab2d8779208fc4,2025-05-22_13h51.33.490,cuing_paradigm_dot,2024.1.5,Win32,142.8571429,682d573fa47f1360d1451895,,,,,,,,,,,229.5145,230.0144,,,230.2651,230.5631,left,0.2864,,,,,,,,,0.9,,,,,,230.0144,230.2651,230.5631,"[0.025180134789947566,0.05844944181171158]","[1,1,1]","[-0.15791644369906446,-0.09993907669095883]","[1,1,1]","[0.13437514373941087,0.032582601955328444]","[1,1,1]","[0.07319880629141927,-0.001716077612129208]","[1,1,1]","[0.011287698000176902,-0.08493740953955291]","[1,1,1]","[-0.14451452422426966,0.022587983480625365]","[1,1,1]","[-0.09326006920734722,0.03541434114586496]","[1,1,1]","[0.09543651952883432,0.10630206380894208]","[1,1,1]","[0.03462218032406457,-0.12125536821783633]","[1,1,1]","[0.14950095180012332,0.11242575021780189]","[1,1,1]","[-0.04186572765465488,-0.00877040695559284]","[-1,-1,-1]","[-0.08629918528795638,0.11192866900733224]","[1,1,1]","[0.14716066438704778,-0.13531039126525546]","[-1,-1,-1]","[-0.022266571149044224,0.15646067861045224]","[1,1,1]","[0.03316466343476656,0.19574220515155946]","[1,1,1]","[-0.13414268762087644,-0.04561505041437985]","[1,1,1]","[-0.07794722880159805,-0.14374520534173257]","[1,1,1]","[-0.006678116943530646,-0.13843356015268085]","[-1,-1,-1]","[0.02761995571745166,0.11933183701141578]","[1,1,1]","[-0.14304452520604055,0.11714351123985504]","[1,1,1]","[0.0498140199218181,-0.052510370153248866]","[1,1,1]","[-0.017437143932905602,0.09270848466996091]","[1,1,1]","[-0.18609604749445843,0.03728567774127304]","[1,1,1]","[0.06861340585563867,-0.1525494319605925]","[1,1,1]","[-0.07125589096039854,0.16107693613727544]","[1,1,1]","[-0.08598606171510553,-0.07165064028644784]","[1,1,1]","[0.03704779474858913,-0.19296878222054845]","[1,1,1]","[0.16123128999237601,-0.07197422737207412]","[1,1,1]","[0.1793779901830723,0.0004958379842059262]","[1,1,1]","[-0.044528793214155364,-0.12003245263609887]","[1,1,1]","[-0.19242487666117955,-0.0377773951844767]","[1,1,1]","[0.09026025340818805,0.04744905111175464]","[1,1,1]","[0.02,0.02]",231.6604,0,43,43,199,1,,,,,,,
,,,,,,,55a2159bfdf99b3cec08f1a9,682f0fc0fbab2d8779208fc4,2025-05-22_13h51.33.490,cuing_paradigm_dot,2024.1.5,Win32,142.8571429,682d573fa47f1360d1451895,,,,,,,,,,,231.6606,232.1605,,,232.4106,232.7439,left,0.3216,,,,,,,,,0.9,,,,,,232.1605,232.4106,232.7439,"[-0.16910998345326764,0.0843533912617485]","[1,1,1]","[0.1704824318249484,0.08963576116508656]","[1,1,1]","[-0.11940359291581518,-0.07875790875434567]","[-1,-1,-1]","[-0.05664648485127763,0.01240211003590519]","[-1,-1,-1]","[-0.044223824713526684,0.0709346626260593]","[1,1,1]","[-0.17488451293252366,-0.03818551098338104]","[1,1,1]","[0.030468055395039002,-0.02726318371989808]","[1,1,1]","[0.049949442028612234,-0.07055234967967135]","[-1,-1,-1]","[-0.18811068918925197,0.029671703502136344]","[1,1,1]","[-0.12260963834701723,0.030359982428620032]","[1,1,1]","[0.05632557219069416,0.03959588864330136]","[1,1,1]","[0.055907459014083415,0.11400078588535262]","[1,1,1]","[0.15950112571279074,-0.03736131389275595]","[1,1,1]","[-0.04716847817177426,-0.10532764075556814]","[1,1,1]","[-0.003418813426745436,-0.1229163567346009]","[1,1,1]","[0.10650083054823707,-0.11871893948749618]","[1,1,1]","[-0.10499239235046885,0.09497288071322534]","[1,1,1]","[0.12408205740921098,0.07675665061005571]","[1,1,1]","[0.027187565361487247,-0.18148599480851604]","[1,1,1]","[0.0923131699730028,-0.019985319701226086]","[1,1,1]","[-0.0017444482314757628,0.004395953598024801]","[1,1,1]","[-0.10061936621617427,-0.008328350546957615]","[1,1,1]","[0.011895578289162486,0.17821009897938764]","[1,1,1]","[-0.06964391048379388,0.11529287700322698]","[1,1,1]","[0.10439510124290878,0.03662257203553629]","[1,1,1]","[-0.05261847638706188,-0.05795673077597943]","[1,1,1]","[0.1047087485101373,0.1443466593432641]","[1,1,1]","[0.162218718850224,0.01736227467188347]","[1,1,1]","[-0.012764752376162702,-0.0747697372792104]","[1,1,1]","[0.12008502886599105,-0.1566549220043285]","[1,1,1]","[-0.06204888559302403,-0.16320699044493056]","[1,1,1]","[-0.11302180845716578,-0.15728352035341064]","[1,1,1]","[0.02,0.02]",233.8412,0,44,44,196,1,,,,,,,
