right,left,explain.started,explain.stopped,key_resp_3.keys,key_resp_3.rt,key_resp_3.duration,participant,session,date,expName,psychopyVersion,OS,frameRate,study_id,explain_2.started,explain_2.stopped,key_resp_4.keys,key_resp_4.rt,key_resp_4.duration,explain_3.started,explain_3.stopped,key_resp_5.keys,key_resp_5.rt,key_resp_5.duration,fixation.started,fixation.stopped,practice.started,practice.stopped,response.started,response.stopped,key_resp.keys,key_resp.rt,key_resp.duration,feedback.started,feedback.stopped,trials_2.thisRepN,trials_2.thisTrialN,trials_2.thisN,trials_2.thisIndex,trials_2.ran,white_ratio,explain_4.started,explain_4.stopped,key_resp_6.keys,key_resp_6.rt,key_resp_6.duration,dotDisplay.started,dotDisplay.stopped,ITI.started,polygon_1.pos,polygon_1.color,polygon_2.pos,polygon_2.color,polygon_3.pos,polygon_3.color,polygon_4.pos,polygon_4.color,polygon_5.pos,polygon_5.color,polygon_6.pos,polygon_6.color,polygon_7.pos,polygon_7.color,polygon_8.pos,polygon_8.color,polygon_9.pos,polygon_9.color,polygon_10.pos,polygon_10.color,polygon_11.pos,polygon_11.color,polygon_12.pos,polygon_12.color,polygon_13.pos,polygon_13.color,polygon_14.pos,polygon_14.color,polygon_15.pos,polygon_15.color,polygon_16.pos,polygon_16.color,polygon_17.pos,polygon_17.color,polygon_18.pos,polygon_18.color,polygon_19.pos,polygon_19.color,polygon_20.pos,polygon_20.color,polygon_21.pos,polygon_21.color,polygon_22.pos,polygon_22.color,polygon_23.pos,polygon_23.color,polygon_24.pos,polygon_24.color,polygon_25.pos,polygon_25.color,polygon_26.pos,polygon_26.color,polygon_27.pos,polygon_27.color,polygon_28.pos,polygon_28.color,polygon_29.pos,polygon_29.color,polygon_30.pos,polygon_30.color,polygon_31.pos,polygon_31.color,polygon_32.pos,polygon_32.color,dot_size,ITI.stopped,trials.thisRepN,trials.thisTrialN,trials.thisN,trials.thisIndex,trials.ran,break_2.started,break_2.stopped,trials_3.thisRepN,trials_3.thisTrialN,trials_3.thisN,trials_3.thisIndex,trials_3.ran
subject chose black,subject chose white,0.0004,99.0961,space,84.0683,,573dbfc9cc30e7000dc57410,682f0fc0bf2047d27ea98c6e,2025-05-22_12h51.52.748,cuing_paradigm_dot,2024.1.5,Win32,58.13953488,682d573fa47f1360d1451895,,,,,,,,,,,,,,,,,,,,,,,,,,,,,,,,,,,,,,,,,,,,,,,,,,,,,,,,,,,,,,,,,,,,,,,,,,,,,,,,,,,,,,,,,,,,,,,,,,,,,,,,,,,,,,,,,
,,,,,,,573dbfc9cc30e7000dc57410,682f0fc0bf2047d27ea98c6e,2025-05-22_12h51.52.748,cuing_paradigm_dot,2024.1.5,Win32,58.13953488,682d573fa47f1360d1451895,99.0964,138.585,space,9.4744,,,,,,,,,,,,,,,,,,,,,,,,,,,,,,,,,,,,,,,,,,,,,,,,,,,,,,,,,,,,,,,,,,,,,,,,,,,,,,,,,,,,,,,,,,,,,,,,,,,,,,,,,,,,,
,,,,,,,573dbfc9cc30e7000dc57410,682f0fc0bf2047d27ea98c6e,2025-05-22_12h51.52.748,cuing_paradigm_dot,2024.1.5,Win32,58.13953488,682d573fa47f1360d1451895,,,,,,138.5854,145.9858,space,4.3859,,,,,,,,,,,,,,,,,,,,,,,,,,,,,,,,,,,,,,,,,,,,,,,,,,,,,,,,,,,,,,,,,,,,,,,,,,,,,,,,,,,,,,,,,,,,,,,,,,,,,,,,
,,,,,,,573dbfc9cc30e7000dc57410,682f0fc0bf2047d27ea98c6e,2025-05-22_12h51.52.748,cuing_paradigm_dot,2024.1.5,Win32,58.13953488,682d573fa47f1360d1451895,,,,,,,,,,,146.0273,146.4975,146.4979,146.7484,146.7486,147.2248,right,0.4401,,147.2254,148.3246,0,0,0,0,1,0.8,,,,,,,,,,,,,,,,,,,,,,,,,,,,,,,,,,,,,,,,,,,,,,,,,,,,,,,,,,,,,,,,,,,,,,,,,,,,,,,,,,,,,,
,,,,,,,573dbfc9cc30e7000dc57410,682f0fc0bf2047d27ea98c6e,2025-05-22_12h51.52.748,cuing_paradigm_dot,2024.1.5,Win32,58.13953488,682d573fa47f1360d1451895,,,,,,,,,,,148.3252,148.8244,148.8245,149.0749,149.075,149.7912,left,0.7047,,149.7913,150.8909,0,1,1,1,1,0.2,,,,,,,,,,,,,,,,,,,,,,,,,,,,,,,,,,,,,,,,,,,,,,,,,,,,,,,,,,,,,,,,,,,,,,,,,,,,,,,,,,,,,,
,,,,,,,573dbfc9cc30e7000dc57410,682f0fc0bf2047d27ea98c6e,2025-05-22_12h51.52.748,cuing_paradigm_dot,2024.1.5,Win32,58.13953488,682d573fa47f1360d1451895,,,,,,,,,,,,,,,,,,,,,,,,,,,,150.8914,156.3928,space,2.4843,,,,,,,,,,,,,,,,,,,,,,,,,,,,,,,,,,,,,,,,,,,,,,,,,,,,,,,,,,,,,,,,,,,,,,,,,,,,,,,,,,
,,,,,,,573dbfc9cc30e7000dc57410,682f0fc0bf2047d27ea98c6e,2025-05-22_12h51.52.748,cuing_paradigm_dot,2024.1.5,Win32,58.13953488,682d573fa47f1360d1451895,,,,,,,,,,,156.4176,156.9074,,,157.1577,158.4407,left,1.2683,,,,,,,,,0.55,,,,,,156.9077,157.1577,158.4411,"[0.030216667531562307,-0.08749979822322583]","[1,1,1]","[-0.06753118857552445,-0.054246342190278705]","[1,1,1]","[0.10941887000426959,-0.00212046133470213]","[-1,-1,-1]","[0.013522618292971564,0.042786811503041866]","[-1,-1,-1]","[-0.15644636730600092,0.06589869919131824]","[1,1,1]","[0.05579090076995411,-0.12136465874028281]","[1,1,1]","[-0.11188730170732435,0.1369310820858806]","[-1,-1,-1]","[0.029519587739747714,-0.03576775587706325]","[-1,-1,-1]","[-0.04570057738617741,-0.01427013250637828]","[-1,-1,-1]","[0.12936306289329905,0.13922038240394333]","[1,1,1]","[-0.06682086288617767,0.1745457055030518]","[1,1,1]","[-0.04414079794103055,0.07811326311524612]","[1,1,1]","[0.08335911173401205,-0.1551577986722406]","[1,1,1]","[0.04412827355072078,0.1032482197184751]","[-1,-1,-1]","[-0.13383492603741906,-0.14207964934405903]","[1,1,1]","[-0.12634456119298523,-0.08145028365710281]","[1,1,1]","[0.11701208994077132,-0.07773636175437466]","[-1,-1,-1]","[0.06291521789109296,0.1429840803926618]","[-1,-1,-1]","[-0.011580949486078447,-0.04813148985620272]","[-1,-1,-1]","[-0.0020795148109882707,-0.11972122542717477]","[-1,-1,-1]","[-0.018828680978645925,0.17850431516015855]","[1,1,1]","[0.08474115259485163,0.0727201355992232]","[-1,-1,-1]","[0.0521969525132229,-0.19199597684559944]","[1,1,1]","[-0.04718066157646758,0.12209974182558622]","[1,1,1]","[0.17006733529924256,-0.031175460887202834]","[1,1,1]","[-0.08900817590478909,0.07062686646517048]","[1,1,1]","[-0.17454347572315992,-0.03406833887194798]","[1,1,1]","[0.17344052629666384,-0.08910423047721325]","[1,1,1]","[0.06519517979237334,-0.013256246961669969]","[1,1,1]","[0.16896654204570727,0.03352160259035428]","[-1,-1,-1]","[-0.12389513917714891,-0.0063011111651567675]","[-1,-1,-1]","[-0.18555874234735636,0.01768296252828481]","[-1,-1,-1]","[0.02,0.02]",159.5409,0,0,0,149,1,,,,,,,
,,,,,,,573dbfc9cc30e7000dc57410,682f0fc0bf2047d27ea98c6e,2025-05-22_12h51.52.748,cuing_paradigm_dot,2024.1.5,Win32,58.13953488,682d573fa47f1360d1451895,,,,,,,,,,,159.5413,160.0406,,,160.2911,161.0407,left,0.7348,,,,,,,,,0.9,,,,,,160.0407,160.291,161.0407,"[-0.026566719865689568,-0.1044013086153412]","[1,1,1]","[0.05327328031133494,0.1281902682342965]","[-1,-1,-1]","[0.028970755384391922,-0.1519694554467134]","[1,1,1]","[-0.07274538770687107,-0.12718874837613692]","[1,1,1]","[-0.10857443383458659,0.14147393952981588]","[-1,-1,-1]","[-0.10791929929175556,0.044441477168033226]","[1,1,1]","[-0.0382290586831045,-0.15628737863647824]","[1,1,1]","[0.024531539835820012,0.07005902964250425]","[1,1,1]","[0.10559405665752081,-0.01909718544049931]","[1,1,1]","[0.10848110634678772,-0.08398592967736565]","[1,1,1]","[-0.08284673277142403,-0.08385489435850228]","[1,1,1]","[-0.16359604883803908,0.11048124172742867]","[1,1,1]","[0.13486798466032016,0.09350995530267579]","[1,1,1]","[-0.16330628161401253,-0.07160304736833367]","[1,1,1]","[-0.06531563084351132,0.1653901737613774]","[1,1,1]","[-0.008774813872852201,-0.0638011198855468]","[1,1,1]","[0.05563614024514766,-0.022018666054222816]","[1,1,1]","[-0.14778297992199302,-0.11836894268700791]","[1,1,1]","[-0.16896822940120018,0.057603264012088935]","[-1,-1,-1]","[0.09422851103474383,0.1600836055666984]","[1,1,1]","[-0.10084170319323708,-0.16651252474537834]","[1,1,1]","[-0.0928566544193879,-0.011462724316519122]","[1,1,1]","[-0.04613891600572324,0.013526725792478874]","[1,1,1]","[0.18885873753501922,0.03734624251030297]","[1,1,1]","[0.09250698733697509,-0.13754461374191304]","[1,1,1]","[0.011454404863822296,0.1804708460524744]","[1,1,1]","[-0.055313728938263675,0.10433213095837611]","[1,1,1]","[0.03747325044214578,-0.1927530834384778]","[1,1,1]","[-0.140927821511621,-0.01188226600603364]","[1,1,1]","[-0.017300146976955137,0.12094580654491596]","[1,1,1]","[-0.1884293158925297,-0.004821614935667626]","[1,1,1]","[0.15434536018768477,-0.04387303007742904]","[1,1,1]","[0.02,0.02]",162.1402,0,1,1,204,1,,,,,,,
,,,,,,,573dbfc9cc30e7000dc57410,682f0fc0bf2047d27ea98c6e,2025-05-22_12h51.52.748,cuing_paradigm_dot,2024.1.5,Win32,58.13953488,682d573fa47f1360d1451895,,,,,,,,,,,162.1406,162.6404,,,162.8908,164.2405,left,1.3342,,,,,,,,,0.5,,,,,,162.6404,162.8908,164.2405,"[0.00011077679794006004,-0.18954363229392046]","[1,1,1]","[-0.003909978243232559,-0.10564933345381743]","[1,1,1]","[0.07982780653224977,-0.15303017809077432]","[1,1,1]","[-0.017522632652175515,-0.022993932936676193]","[-1,-1,-1]","[-0.17091252671917112,-0.021574425048534733]","[-1,-1,-1]","[-0.06049189440924771,-0.043212350878707596]","[1,1,1]","[-0.1309051528360027,-0.12194537605905348]","[-1,-1,-1]","[0.023802655485432454,0.005205971746807292]","[1,1,1]","[0.04663926220631,0.11601010854350689]","[1,1,1]","[0.001066296630034592,0.1441381665537476]","[1,1,1]","[0.06473851357910859,-0.07495272610100688]","[1,1,1]","[0.14163378137328608,0.007708545134421911]","[1,1,1]","[-0.06868375369102732,0.1050102726093196]","[-1,-1,-1]","[0.14511466208547188,0.13140754934017201]","[-1,-1,-1]","[0.1356527414421053,-0.03927010687536618]","[-1,-1,-1]","[-0.13422037810005388,0.13974116490289504]","[1,1,1]","[-0.08607832247251268,0.03084046431905508]","[1,1,1]","[-0.11373051606283614,-0.05133362146541549]","[-1,-1,-1]","[-0.11223059042693193,0.09028121733072036]","[-1,-1,-1]","[-0.02232510107800357,0.09916992074461202]","[-1,-1,-1]","[-0.06334511363636477,0.1545909979246576]","[-1,-1,-1]","[0.15146855530926123,0.05224308510181699]","[1,1,1]","[-0.009872368983053097,0.19922767880348746]","[1,1,1]","[0.063781647573023,0.16568416277410725]","[-1,-1,-1]","[0.011947466511509255,-0.053095934811006315]","[-1,-1,-1]","[-0.035406230911802734,-0.1504233452056599]","[-1,-1,-1]","[-0.0808567299675228,-0.16968219380356012]","[1,1,1]","[0.11114489374823538,0.15308877166333193]","[-1,-1,-1]","[0.194887254747948,0.037779343888297866]","[1,1,1]","[0.1490197829740139,-0.11138270245666299]","[-1,-1,-1]","[-0.06380162233415795,-0.08464333300431194]","[1,1,1]","[0.061509999300306005,0.02940438620698041]","[-1,-1,-1]","[0.02,0.02]",165.3425,0,2,2,111,1,,,,,,,
,,,,,,,573dbfc9cc30e7000dc57410,682f0fc0bf2047d27ea98c6e,2025-05-22_12h51.52.748,cuing_paradigm_dot,2024.1.5,Win32,58.13953488,682d573fa47f1360d1451895,,,,,,,,,,,165.3431,165.8408,,,166.0913,167.1238,left,1.0175,,,,,,,,,0.5,,,,,,165.8409,166.0913,167.1239,"[-0.11236885715647366,-0.10635175934002418]","[-1,-1,-1]","[0.037825806566471415,-0.05188017366196077]","[-1,-1,-1]","[-0.07231185783255084,0.14110891543348436]","[1,1,1]","[0.016589702180879424,-0.16718919600758386]","[1,1,1]","[-0.06783560257980908,0.09912432274468909]","[1,1,1]","[-0.17680492897410355,0.08742836911034535]","[1,1,1]","[-0.13363499552289823,-0.07012529803096772]","[1,1,1]","[0.06446606973427906,-0.08709969391796166]","[-1,-1,-1]","[0.08646012093928061,0.06887880970426936]","[1,1,1]","[-0.05187267520449404,-0.021859512948406594]","[1,1,1]","[-0.008067798759455347,-0.0568074614021818]","[1,1,1]","[0.12651565246480898,0.047003650593163845]","[-1,-1,-1]","[0.023661067473858984,0.10962280379444406]","[-1,-1,-1]","[-0.12913156468943732,0.017500134071949353]","[1,1,1]","[0.11947780079439722,-0.1076064621056964]","[-1,-1,-1]","[0.16050276466743324,0.11580531820491552]","[1,1,1]","[-0.1026358529044074,-0.019348007884939726]","[1,1,1]","[-0.024217357816733218,-0.15992186961963112]","[1,1,1]","[-0.08380331014724132,0.023898152932168515]","[1,1,1]","[-0.0411594442199904,0.1671507534586441]","[1,1,1]","[-0.04524243019987825,0.058298742263951174]","[-1,-1,-1]","[-0.018715073409152325,0.1291522366514446]","[-1,-1,-1]","[-0.06652534843164745,-0.1494730748380105]","[-1,-1,-1]","[0.12997577956478581,-0.06743403639643869]","[-1,-1,-1]","[-0.032812243488012885,-0.11955087903543164]","[-1,-1,-1]","[-0.02794252336901438,0.018475541513160727]","[-1,-1,-1]","[-0.11870359627236454,0.1052377751643307]","[-1,-1,-1]","[0.026529259721440122,-0.10974514432743344]","[1,1,1]","[0.19188149815809827,0.004109024761813016]","[-1,-1,-1]","[-0.04931409687379465,-0.07482060950117253]","[1,1,1]","[0.08302516749983944,-0.023393897804677072]","[-1,-1,-1]","[0.05231472482345637,0.045706107784380716]","[-1,-1,-1]","[0.02,0.02]",168.2234,0,3,3,118,1,,,,,,,
,,,,,,,573dbfc9cc30e7000dc57410,682f0fc0bf2047d27ea98c6e,2025-05-22_12h51.52.748,cuing_paradigm_dot,2024.1.5,Win32,58.13953488,682d573fa47f1360d1451895,,,,,,,,,,,168.2239,168.723,,,168.9736,169.6078,left,0.6255,,,,,,,,,0.6,,,,,,168.7231,168.9735,169.6078,"[0.13088896220269255,0.06266006199628778]","[-1,-1,-1]","[-0.0703550248643313,-0.170518352631062]","[1,1,1]","[-0.05990050545907784,0.1657830078440779]","[1,1,1]","[0.09478096099884376,-0.14629686079718499]","[1,1,1]","[0.09493988970383092,0.08448129688500013]","[1,1,1]","[0.015711649613168902,-0.13539001437545092]","[1,1,1]","[0.06707105616266472,0.13432090438255323]","[-1,-1,-1]","[0.06064880547549913,0.1828615249020316]","[1,1,1]","[0.07626420264027477,-0.09234058079985533]","[1,1,1]","[-0.11073750678989841,0.06388407141372404]","[-1,-1,-1]","[-0.05527649997063569,-0.04531098117431826]","[-1,-1,-1]","[-0.0033913519161395222,0.1924603684845419]","[-1,-1,-1]","[0.19084100406732685,0.004199282004368343]","[-1,-1,-1]","[-0.03467395259161468,0.041556547770130285]","[-1,-1,-1]","[-0.04393626614956055,-0.09254991378598199]","[1,1,1]","[0.0848275275200274,-0.021139953508080248]","[1,1,1]","[-0.08748506251458738,-0.08912198423660311]","[1,1,1]","[-0.06521887150914696,-0.130343172161482]","[-1,-1,-1]","[0.16732406841421066,-0.06219884250633699]","[1,1,1]","[-0.0008347538543837585,0.09458592065709104]","[1,1,1]","[-0.12397553239440805,0.004266589715978705]","[1,1,1]","[0.11080323214072868,0.15083503660642214]","[1,1,1]","[-0.19881286637509749,-0.021568291353702904]","[1,1,1]","[-0.09046161554004913,0.1065601269124515]","[1,1,1]","[0.1538033855287616,-0.02104234095632743]","[1,1,1]","[-0.13237394975247807,-0.1199896002431652]","[-1,-1,-1]","[0.02657125076273785,0.1280850607690984]","[-1,-1,-1]","[-0.041405712093203116,0.10885250256455485]","[1,1,1]","[-0.002664073583585165,-0.0032877891015213]","[1,1,1]","[-0.16657441082294747,0.08989045388714635]","[-1,-1,-1]","[-0.07992689090008959,0.009973707474094215]","[-1,-1,-1]","[0.027170240818482544,-0.06646819574435277]","[-1,-1,-1]","[0.02,0.02]",170.7067,0,4,4,172,1,,,,,,,
,,,,,,,573dbfc9cc30e7000dc57410,682f0fc0bf2047d27ea98c6e,2025-05-22_12h51.52.748,cuing_paradigm_dot,2024.1.5,Win32,58.13953488,682d573fa47f1360d1451895,,,,,,,,,,,170.7071,171.2067,,,171.457,172.0077,left,0.5339,,,,,,,,,0.55,,,,,,171.2067,171.4569,172.0078,"[0.1752664845821235,0.04008101977699828]","[1,1,1]","[-0.04809546052111984,0.1566656735380677]","[1,1,1]","[0.001664777646323758,0.18573519185644144]","[-1,-1,-1]","[-0.14776425228290085,-0.03573413180543013]","[1,1,1]","[0.025223018516920943,-0.003582247312087537]","[-1,-1,-1]","[0.04358925083061553,0.19059223310004766]","[-1,-1,-1]","[-0.1264080201631178,0.06074806378971386]","[-1,-1,-1]","[-0.05059304666472662,-0.03961072762632938]","[1,1,1]","[0.11210553789613076,-0.14876116026773092]","[1,1,1]","[0.17327515470291563,0.09569949444667955]","[1,1,1]","[0.03898847404508665,-0.19017814184182216]","[1,1,1]","[-0.07828682215347,-0.15771244198546608]","[-1,-1,-1]","[0.07568779379708071,-0.01960554343880848]","[1,1,1]","[-0.13489886341255647,-0.12139682128484429]","[1,1,1]","[0.06846077555973636,0.15749026364721008]","[-1,-1,-1]","[0.156320432611394,-0.014690230665128694]","[1,1,1]","[0.011202293007448901,-0.13145561466464303]","[1,1,1]","[0.07483333885277599,0.11238398461138971]","[1,1,1]","[-0.12581048905108994,0.11318768721501782]","[1,1,1]","[0.1335848767253261,-0.09661924660773397]","[-1,-1,-1]","[0.0027486764205774668,0.1379494737133404]","[-1,-1,-1]","[-0.02791005685656014,-0.09986838872444563]","[1,1,1]","[0.12367108867814344,0.05988053996024911]","[-1,-1,-1]","[0.005174678162294424,-0.07086768413679051]","[-1,-1,-1]","[-0.09006170390446554,0.09101121692199142]","[1,1,1]","[-0.1699070602051807,-0.09561751437948564]","[-1,-1,-1]","[0.0784199020494753,-0.09151872163818689]","[1,1,1]","[-0.019432967798491928,-0.19229431330843147]","[1,1,1]","[-0.017945122544354337,0.0025220976795159744]","[1,1,1]","[0.18526156911505795,-0.04374336559448819]","[-1,-1,-1]","[-0.18553493972659973,-0.002649007781271941]","[-1,-1,-1]","[0.13376020974057815,0.1386111990437078]","[-1,-1,-1]","[0.02,0.02]",173.1072,0,5,5,135,1,,,,,,,
,,,,,,,573dbfc9cc30e7000dc57410,682f0fc0bf2047d27ea98c6e,2025-05-22_12h51.52.748,cuing_paradigm_dot,2024.1.5,Win32,58.13953488,682d573fa47f1360d1451895,,,,,,,,,,,173.1075,173.6066,,,173.8569,174.7067,left,0.8348,,,,,,,,,0.4,,,,,,173.6066,173.8569,174.7068,"[-0.13121800036968004,0.10126947013408989]","[1,1,1]","[-0.1223598148004206,0.04512762594233076]","[-1,-1,-1]","[-0.13690700803352193,-0.10572331502975356]","[-1,-1,-1]","[0.15647672942277374,-0.010211968327353362]","[-1,-1,-1]","[0.10582885794608457,-0.1580087828802024]","[1,1,1]","[0.06144054523933248,0.025349609045839796]","[-1,-1,-1]","[0.03761442843395354,0.10262126598010468]","[-1,-1,-1]","[-0.03165136312282661,0.015063606572475335]","[-1,-1,-1]","[0.1493966174396494,0.05318720469564876]","[1,1,1]","[0.09592643253437666,-0.027827436960635492]","[-1,-1,-1]","[-0.1014960253921499,-0.05291757126291255]","[-1,-1,-1]","[0.10709511260669793,0.09567565470764751]","[-1,-1,-1]","[-0.18161730304195473,0.05734949187304516]","[-1,-1,-1]","[-0.059091242475060334,0.0727813418152675]","[1,1,1]","[0.05220440539888417,-0.1756636752307759]","[1,1,1]","[-0.06883176928276902,-0.028957414557457286]","[-1,-1,-1]","[0.09726037380920512,0.0454124768395801]","[1,1,1]","[-0.007749613918525137,0.09254264751414197]","[-1,-1,-1]","[0.016985853452710774,-0.019481252516632803]","[-1,-1,-1]","[-0.0324732211367232,0.17043111632112276]","[1,1,1]","[0.011755541466548216,0.02071767585223274]","[-1,-1,-1]","[0.11454980988981593,0.1591040898590511]","[-1,-1,-1]","[-0.020806066905513218,-0.15739447988408492]","[1,1,1]","[-0.09735495602847903,0.15968091036410048]","[-1,-1,-1]","[-0.04883020465853847,0.11852110077371045]","[-1,-1,-1]","[-0.15731439138860778,0.020674248695644836]","[-1,-1,-1]","[0.00668109256347609,-0.09355491917072135]","[-1,-1,-1]","[-0.038026996180550464,-0.06313968896822503]","[1,1,1]","[0.14365701329799246,-0.09661769499207609]","[1,1,1]","[0.16955717451245128,0.1027577941371103]","[1,1,1]","[-0.18927989234744713,-0.06009922228845084]","[1,1,1]","[-0.12661119518817612,-0.14693682225542817]","[1,1,1]","[0.02,0.02]",175.8063,0,6,6,38,1,,,,,,,
,,,,,,,573dbfc9cc30e7000dc57410,682f0fc0bf2047d27ea98c6e,2025-05-22_12h51.52.748,cuing_paradigm_dot,2024.1.5,Win32,58.13953488,682d573fa47f1360d1451895,,,,,,,,,,,175.8068,176.3061,,,176.5567,177.2899,right,0.7173,,,,,,,,,0.45,,,,,,176.3062,176.5567,177.2899,"[0.057095090813010174,-0.19139427254693958]","[-1,-1,-1]","[-0.03533246831321532,-0.04533591747438889]","[-1,-1,-1]","[0.007248700314070255,0.05145638509494355]","[-1,-1,-1]","[-0.03736548848376594,-0.13550031182277486]","[1,1,1]","[0.02178742901218245,-0.16397960805540912]","[-1,-1,-1]","[0.1293172932177043,0.14604513366866947]","[1,1,1]","[0.0739306366968734,0.03703376992598109]","[-1,-1,-1]","[0.08070880860702512,0.16236685216908175]","[1,1,1]","[-0.1851051099216018,0.05193747724927745]","[1,1,1]","[-0.061317672189139125,0.011195673764500369]","[1,1,1]","[-0.14414424376842241,-0.022143447050275603]","[-1,-1,-1]","[0.19165804591489166,0.05164446564928628]","[-1,-1,-1]","[-0.06385253292204025,0.14068474757908994]","[-1,-1,-1]","[0.012299345762924038,-0.0588211814785702]","[-1,-1,-1]","[-0.1720939739843554,0.010981533752352378]","[1,1,1]","[0.12388199931865566,-0.06205976054745633]","[-1,-1,-1]","[0.10320154613703142,-0.1496275206888205]","[1,1,1]","[0.04416463186117656,0.10123940804364547]","[1,1,1]","[0.04870780158338134,-0.11742269278439112]","[-1,-1,-1]","[-0.14973958782923125,0.12386777748924475]","[-1,-1,-1]","[-0.1336532121056688,0.023949633777596402]","[1,1,1]","[0.049375999692017516,-0.023248808408762377]","[-1,-1,-1]","[-0.09760100841617002,-0.10180839852408935]","[1,1,1]","[0.002797568848010396,0.1302942747450769]","[1,1,1]","[0.0286856526295506,0.16652605622043534]","[-1,-1,-1]","[-0.0769578090741842,-0.17085153657558222]","[1,1,1]","[-0.1139746303204056,0.14412350291063847]","[-1,-1,-1]","[-0.01885603166763759,0.1765977849086319]","[1,1,1]","[0.15708364509055983,0.004821858335649745]","[1,1,1]","[-0.07022542380108483,0.07743248508799754]","[-1,-1,-1]","[0.1526725833909568,0.11073267892870345]","[-1,-1,-1]","[0.14979619966781255,-0.10633056002176568]","[-1,-1,-1]","[0.02,0.02]",178.3907,0,7,7,78,1,,,,,,,
,,,,,,,573dbfc9cc30e7000dc57410,682f0fc0bf2047d27ea98c6e,2025-05-22_12h51.52.748,cuing_paradigm_dot,2024.1.5,Win32,58.13953488,682d573fa47f1360d1451895,,,,,,,,,,,178.391,178.8897,,,179.14,179.8575,right,0.7086,,,,,,,,,0.5,,,,,,178.8897,179.14,179.8576,"[-0.054015171837792406,0.07871536485855604]","[-1,-1,-1]","[-0.06116040279314735,0.1798185439906764]","[-1,-1,-1]","[0.02741659805642858,-0.1963393383499891]","[-1,-1,-1]","[-0.07687305230320882,-0.16492572281523613]","[-1,-1,-1]","[0.00464141356482941,-0.09036794141169593]","[-1,-1,-1]","[0.05640827490286967,0.034286350104840366]","[1,1,1]","[0.08312148366371173,-0.11344128136285765]","[1,1,1]","[0.18705629969484813,0.04494357812072085]","[1,1,1]","[-0.08262487407181283,0.14520896545120857]","[1,1,1]","[0.0015530719421050737,-0.1349614451232448]","[1,1,1]","[-0.16261325606868893,0.09064221652471319]","[1,1,1]","[-0.09620034157971687,0.10690718497771327]","[1,1,1]","[0.0491850708461963,-0.08251719302624194]","[-1,-1,-1]","[0.13947557298826427,-0.04901221578563076]","[-1,-1,-1]","[0.09980845592959531,0.1499221637660981]","[-1,-1,-1]","[-0.007453429585926367,0.19925622065040619]","[-1,-1,-1]","[0.09882296417235445,-0.07478960943975761]","[1,1,1]","[-0.19425935914321896,-0.04160787668570999]","[1,1,1]","[0.1431149523590716,0.09497421827528212]","[1,1,1]","[-0.11955629900683235,0.006115552580429014]","[1,1,1]","[0.055289609763840605,-0.038079316733271334]","[1,1,1]","[-0.00297449979547162,-0.02140905735168571]","[-1,-1,-1]","[-0.14393312720337514,-0.058317046536635005]","[-1,-1,-1]","[-0.18957264343065636,0.04136606333644851]","[1,1,1]","[0.07569056948558697,-0.1849286829699744]","[-1,-1,-1]","[-0.03275201669671999,-0.05462799496740946]","[-1,-1,-1]","[-0.04354932773437214,0.03363187592437524]","[1,1,1]","[-0.09524726248339462,-0.0820224096807405]","[-1,-1,-1]","[0.12434239519013396,-0.008033235284882553]","[1,1,1]","[-0.16386227312831192,-0.10109075208359301]","[-1,-1,-1]","[-0.1602330671013224,-0.0009021808763002547]","[1,1,1]","[-0.04258126328629926,-0.13317359712461668]","[-1,-1,-1]","[0.02,0.02]",180.9561,0,8,8,99,1,,,,,,,
,,,,,,,573dbfc9cc30e7000dc57410,682f0fc0bf2047d27ea98c6e,2025-05-22_12h51.52.748,cuing_paradigm_dot,2024.1.5,Win32,58.13953488,682d573fa47f1360d1451895,,,,,,,,,,,180.9565,181.4562,,,181.7065,182.5397,left,0.8186,,,,,,,,,0.55,,,,,,181.4563,181.7065,182.5397,"[-0.020893819857143912,0.11240423400319786]","[-1,-1,-1]","[-0.013883177187470832,-0.17704638866496075]","[1,1,1]","[0.15296684968411386,-0.10072470902146984]","[-1,-1,-1]","[0.04895841899426008,0.0791837155474201]","[-1,-1,-1]","[0.08999151400030933,-0.14443326012095248]","[1,1,1]","[-0.13702790220577996,0.14355703771306694]","[1,1,1]","[0.1733454318694656,0.021886015350865075]","[1,1,1]","[0.08709303336307575,0.053787300498753035]","[1,1,1]","[0.06342765995973551,0.17168110393969002]","[1,1,1]","[0.12610891871222846,-0.07031020168028813]","[1,1,1]","[-0.03679175105079222,-0.11766117179175706]","[1,1,1]","[0.028693013702656384,-0.07643480341310557]","[-1,-1,-1]","[0.10576199024194521,0.111136499113127]","[1,1,1]","[-0.10924437965967486,0.0320739871853254]","[1,1,1]","[-0.03173607487117154,-0.05941640288125055]","[-1,-1,-1]","[-0.18549694127972957,0.02208938020316415]","[-1,-1,-1]","[-0.12902566131283152,-0.019692417395213196]","[-1,-1,-1]","[-0.0723902102170054,-0.004099602099157735]","[-1,-1,-1]","[0.023938562326871648,0.12384517284175216]","[1,1,1]","[0.02683338615085025,0.006920144971392315]","[-1,-1,-1]","[-0.1723939695877732,-0.06427755011483588]","[1,1,1]","[-0.1664993180330633,0.07403464921270078]","[-1,-1,-1]","[-0.1439240266818677,-0.10435566421436634]","[-1,-1,-1]","[-0.048964279950653763,0.1505468767259979]","[1,1,1]","[-0.10047392672627509,-0.13978419028311034]","[-1,-1,-1]","[0.00009865143961354163,0.19561596793173266]","[-1,-1,-1]","[0.05952216639893159,-0.032071613608757765]","[1,1,1]","[-0.1982065034545657,-0.02208617814120728]","[1,1,1]","[-0.11957780741433803,0.09204328921831788]","[1,1,1]","[-0.07860124427424897,-0.049264306064717815]","[1,1,1]","[0.1554535603114671,-0.03951863288900909]","[-1,-1,-1]","[0.127563301728313,0.004632018552699503]","[1,1,1]","[0.02,0.02]",183.6394,0,9,9,130,1,,,,,,,
,,,,,,,573dbfc9cc30e7000dc57410,682f0fc0bf2047d27ea98c6e,2025-05-22_12h51.52.748,cuing_paradigm_dot,2024.1.5,Win32,58.13953488,682d573fa47f1360d1451895,,,,,,,,,,,183.6398,184.1397,,,184.3897,184.9896,right,0.5845,,,,,,,,,0.4,,,,,,184.1397,184.3897,184.9896,"[-0.03698314508509511,0.1261992394846936]","[-1,-1,-1]","[-0.032423857160242146,0.02195487775500514]","[-1,-1,-1]","[-0.16013696306758413,-0.10284826075724382]","[-1,-1,-1]","[0.1793572094278273,-0.016184879507095077]","[-1,-1,-1]","[0.06756625283737801,0.145193942896399]","[-1,-1,-1]","[0.09003693160295188,-0.052496332002385265]","[-1,-1,-1]","[0.11797724406256828,-0.14034270653935138]","[-1,-1,-1]","[0.0784640433016823,0.07477415822670548]","[-1,-1,-1]","[0.003091485723680208,0.12182510011249767]","[1,1,1]","[-0.12846945628092094,-0.05930053184386896]","[-1,-1,-1]","[-0.023787866857353655,-0.06585529672970906]","[-1,-1,-1]","[0.08845965188463284,0.025631446524548615]","[1,1,1]","[0.033553246896974635,-0.05082299593779479]","[-1,-1,-1]","[-0.14849287179300777,0.09716057339463374]","[-1,-1,-1]","[-0.05930255329615813,-0.17289808017664401]","[1,1,1]","[-0.09929359381943721,-0.13738639681791864]","[-1,-1,-1]","[0.1156904260419819,0.05764910901084113]","[1,1,1]","[-0.062044796313005426,-0.03978843248506098]","[-1,-1,-1]","[-0.025553927638093846,0.17536617916296587]","[1,1,1]","[0.03256243588709325,0.03781434365024418]","[1,1,1]","[0.04962208376056155,-0.1665101548505642]","[1,1,1]","[0.09932932587087757,0.10953088085721366]","[-1,-1,-1]","[-0.005482485969231647,-0.020229868004763705]","[1,1,1]","[-0.08618697048785062,0.1776544095526413]","[-1,-1,-1]","[0.006206196345686646,0.06803046353245777]","[1,1,1]","[0.01848447148584818,0.1848776179620724]","[-1,-1,-1]","[-0.1065626018280933,0.09850751901738619]","[1,1,1]","[-0.09050441046579956,-0.0002618585689042673]","[1,1,1]","[0.18515581141286633,0.06388537175025565]","[1,1,1]","[0.06440204037303697,-0.11472503371248681]","[-1,-1,-1]","[-0.1362496520431575,0.045951096547065085]","[1,1,1]","[0.11786878386566411,0.15044940929675113]","[-1,-1,-1]","[0.02,0.02]",186.0894,0,10,10,36,1,,,,,,,
,,,,,,,573dbfc9cc30e7000dc57410,682f0fc0bf2047d27ea98c6e,2025-05-22_12h51.52.748,cuing_paradigm_dot,2024.1.5,Win32,58.13953488,682d573fa47f1360d1451895,,,,,,,,,,,186.0898,186.5893,,,186.8396,187.7395,left,0.8841,,,,,,,,,0.4,,,,,,186.5893,186.8396,187.7395,"[-0.1469627346533594,-0.01701488401720831]","[-1,-1,-1]","[-0.14508556922162566,0.09437330942957164]","[-1,-1,-1]","[-0.004241168405160936,-0.1625827613733662]","[-1,-1,-1]","[0.1294249948044811,-0.12442888134869536]","[-1,-1,-1]","[0.10261031001911791,-0.0763321851171297]","[1,1,1]","[0.05872508189906589,-0.10896896646784061]","[-1,-1,-1]","[-0.02753904971688541,0.030184619933232563]","[-1,-1,-1]","[-0.087029545385896,0.11519723406368529]","[-1,-1,-1]","[-0.03914358479148714,0.1659363971594792]","[1,1,1]","[-0.08093492979848935,-0.16894567153845091]","[1,1,1]","[0.08973543894115266,0.005651649425681312]","[-1,-1,-1]","[-0.03289938866007843,0.11752618372035104]","[-1,-1,-1]","[0.018481793894168843,-0.12851587863213013]","[1,1,1]","[-0.13618201079093525,-0.14198790080842352]","[1,1,1]","[0.033257416264071665,-0.07206614414480302]","[-1,-1,-1]","[0.07794113478972539,-0.16121011099007918]","[1,1,1]","[-0.09038332915728539,-0.051444142108535706]","[1,1,1]","[0.13970020109695133,0.07972644405129577]","[-1,-1,-1]","[0.08845053643120591,0.07612680782731258]","[1,1,1]","[-0.08924537750222088,0.061248163723333825]","[1,1,1]","[-0.135549204796795,-0.09891324549358982]","[1,1,1]","[0.17254321051985566,0.03592942196793268]","[1,1,1]","[0.13412318500656598,0.009135178659488735]","[-1,-1,-1]","[0.1634460043938538,-0.09762767744729196]","[1,1,1]","[-0.02368243981160039,-0.11313639320717342]","[-1,-1,-1]","[0.030486295719467427,0.02835107601058809]","[-1,-1,-1]","[-0.17178973870165554,0.056267374329280175]","[-1,-1,-1]","[0.006755656320905388,-0.024728850348923786]","[1,1,1]","[0.03089457830769625,0.07774168913761813]","[-1,-1,-1]","[0.17727030336781174,-0.014897259039656432]","[-1,-1,-1]","[-0.008588667179287034,0.19739043195967254]","[-1,-1,-1]","[-0.0883764637966731,-0.008986527660885313]","[-1,-1,-1]","[0.02,0.02]",188.8392,0,11,11,59,1,,,,,,,
,,,,,,,573dbfc9cc30e7000dc57410,682f0fc0bf2047d27ea98c6e,2025-05-22_12h51.52.748,cuing_paradigm_dot,2024.1.5,Win32,58.13953488,682d573fa47f1360d1451895,,,,,,,,,,,188.8395,189.3393,,,189.5896,190.4558,right,0.852,,,,,,,,,0.45,,,,,,189.3393,189.5896,190.4558,"[-0.057210658198738704,-0.012384508689713192]","[-1,-1,-1]","[-0.17288832695973078,0.0929558687391437]","[-1,-1,-1]","[0.11623962102931992,0.08448910443105163]","[1,1,1]","[0.06649686728475913,-0.11194863895394876]","[-1,-1,-1]","[-0.11521547533954715,-0.034394184351909954]","[-1,-1,-1]","[0.06385416446753932,-0.18689559168252654]","[-1,-1,-1]","[-0.05921141193606814,-0.09640212107885725]","[-1,-1,-1]","[0.1720741888457722,-0.05652038007228183]","[-1,-1,-1]","[-0.14024866103482117,0.06356331011347449]","[-1,-1,-1]","[0.14557058390040614,-0.10820888586073182]","[-1,-1,-1]","[0.03349557321437624,0.13377819801738852]","[1,1,1]","[0.017381778592548455,-0.14562428933888646]","[1,1,1]","[-0.17149533878296302,0.008773298056383782]","[-1,-1,-1]","[0.13426291987716024,0.008838276958089551]","[-1,-1,-1]","[-0.1397106921464038,-0.09020824450717704]","[1,1,1]","[0.020198072745510012,0.04469897029965204]","[1,1,1]","[0.05032846370546974,0.017965988943115203]","[-1,-1,-1]","[0.12670565368177827,0.1269528119562156]","[1,1,1]","[-0.07173524342587306,0.11983342988466009]","[-1,-1,-1]","[0.11351013333856502,-0.054568818915787326]","[1,1,1]","[0.17157804807129018,0.05671482880857205]","[1,1,1]","[-0.05587614451472703,0.15893848566357718]","[1,1,1]","[0.04021451557063292,-0.05693656393541463]","[-1,-1,-1]","[0.08987119316484211,0.040424244650701734]","[1,1,1]","[-0.08294005023730038,0.05048331069485866]","[1,1,1]","[0.06026094761100315,0.08433967430574554]","[-1,-1,-1]","[-0.009230306222360481,0.08867580111958077]","[-1,-1,-1]","[0.1983911117154581,-0.012584558906195274]","[1,1,1]","[-0.014409515375808628,-0.19757733418794007]","[-1,-1,-1]","[-0.05032422425391707,-0.16181150446338322]","[1,1,1]","[-0.020678960623418043,-0.05381194843534395]","[1,1,1]","[-0.13731951190357175,-0.14455344483856217]","[-1,-1,-1]","[0.02,0.02]",191.5556,0,12,12,89,1,,,,,,,
,,,,,,,573dbfc9cc30e7000dc57410,682f0fc0bf2047d27ea98c6e,2025-05-22_12h51.52.748,cuing_paradigm_dot,2024.1.5,Win32,58.13953488,682d573fa47f1360d1451895,,,,,,,,,,,191.5561,192.0567,,,192.3058,193.1391,left,0.8205,,,,,,,,,0.45,,,,,,192.0567,192.3058,193.1392,"[-0.04505278652238563,0.18329234121166707]","[1,1,1]","[-0.07624503461572973,-0.03260512609178536]","[1,1,1]","[0.024337132800092576,-0.13912095603482053]","[1,1,1]","[0.11628408634212074,0.06575700903224886]","[-1,-1,-1]","[0.1439303051394599,-0.018222104066676823]","[-1,-1,-1]","[-0.043212889104995135,0.1067811298468709]","[1,1,1]","[-0.17003916084689913,0.07681871540635375]","[1,1,1]","[-0.05317010637089079,-0.08569772584012293]","[1,1,1]","[0.06625861512607933,-0.1387951866690621]","[1,1,1]","[-0.13686486253524197,-0.006502427074142262]","[-1,-1,-1]","[0.07790868266428402,-0.09473532455819497]","[-1,-1,-1]","[-0.0021705736243530878,-0.011511952183557548]","[-1,-1,-1]","[0.11882874692054742,-0.09831153805729691]","[-1,-1,-1]","[0.019497970321113885,0.06320924032166676]","[-1,-1,-1]","[-0.14257624465830473,0.035467446915630765]","[1,1,1]","[0.013777971309340506,0.18668937103101957]","[1,1,1]","[0.05654222781654078,0.037022363566904117]","[-1,-1,-1]","[-0.013724693120634904,0.1524139110785577]","[-1,-1,-1]","[-0.09294733580472019,0.11159790383948867]","[-1,-1,-1]","[-0.12527145210338458,-0.15085692840712103]","[-1,-1,-1]","[0.07855887039793367,-0.17861831886216373]","[1,1,1]","[0.14717034855019004,0.1353600555531925]","[-1,-1,-1]","[0.0005107112343069542,-0.05354390456448021]","[-1,-1,-1]","[-0.013084364918796903,0.03366718974538821]","[-1,-1,-1]","[0.10553720936465462,-0.04240540231537367]","[-1,-1,-1]","[-0.053054060866309434,0.03781519051285898]","[1,1,1]","[-0.06504888705518133,-0.18747904952475047]","[1,1,1]","[0.19427519068713925,-0.014624893137364056]","[-1,-1,-1]","[0.060130959329140185,0.1402596128864165]","[1,1,1]","[0.1682403462697857,0.05345195623967934]","[-1,-1,-1]","[-0.09826687947634141,0.021086184167841474]","[-1,-1,-1]","[-0.06154767273565376,-0.12568456640586004]","[1,1,1]","[0.02,0.02]",194.2388,0,13,13,66,1,,,,,,,
,,,,,,,573dbfc9cc30e7000dc57410,682f0fc0bf2047d27ea98c6e,2025-05-22_12h51.52.748,cuing_paradigm_dot,2024.1.5,Win32,58.13953488,682d573fa47f1360d1451895,,,,,,,,,,,194.2393,194.7389,,,194.9891,195.8718,left,0.8706,,,,,,,,,0.9,,,,,,194.739,194.989,195.872,"[0.13649045930458045,-0.1307484425775386]","[1,1,1]","[0.11663240279664872,-0.07490632287032285]","[1,1,1]","[0.03183054329341298,-0.003171651685053278]","[1,1,1]","[0.1605327923929845,0.02537217500300183]","[1,1,1]","[-0.08377721268771875,-0.07261621495256673]","[1,1,1]","[0.1648916292382777,-0.09713705616027896]","[1,1,1]","[0.07431316317453016,0.039911432713442094]","[1,1,1]","[0.015212452478419045,-0.13296925479025398]","[1,1,1]","[-0.02986752988212627,0.11769651430329732]","[1,1,1]","[-0.08669308627238648,-0.12446511926032225]","[1,1,1]","[-0.04675931200167707,-0.18824719027585626]","[-1,-1,-1]","[0.1459499751908777,0.10811608115740218]","[1,1,1]","[0.11393308300747973,0.04621006802481765]","[1,1,1]","[-0.13328574534335133,-0.046117842279810355]","[-1,-1,-1]","[-0.18541154002938393,-0.04218278378709263]","[1,1,1]","[0.010265432598050527,0.11789007770397365]","[1,1,1]","[-0.13079403261326056,-0.09588292191278401]","[1,1,1]","[-0.08630068521063854,0.026677984333706675]","[1,1,1]","[-0.022334659995227827,0.022714171427591568]","[1,1,1]","[-0.04096711794367527,-0.08348051340619739]","[1,1,1]","[0.07632651082850501,-0.17849683485932566]","[1,1,1]","[0.026052231401766244,-0.06574247342760142]","[1,1,1]","[0.12765945226823858,0.14390182091762402]","[1,1,1]","[0.05048340901795927,0.07945022441854888]","[1,1,1]","[0.09850086915299917,0.10118392635614212]","[1,1,1]","[-0.03488480340131416,-0.13493138527487342]","[-1,-1,-1]","[-0.19291211648445059,0.036909539228265974]","[1,1,1]","[-0.03594144551194227,0.061657360872131334]","[1,1,1]","[0.09315075181302843,-0.020596372017510436]","[1,1,1]","[-0.12652210639353115,0.09098099487417631]","[1,1,1]","[0.16690255843566257,0.06545310945087753]","[1,1,1]","[0.02893746308376665,0.1890373997424451]","[1,1,1]","[0.02,0.02]",196.9722,0,14,14,180,1,,,,,,,
,,,,,,,573dbfc9cc30e7000dc57410,682f0fc0bf2047d27ea98c6e,2025-05-22_12h51.52.748,cuing_paradigm_dot,2024.1.5,Win32,58.13953488,682d573fa47f1360d1451895,,,,,,,,,,,196.9726,197.4719,,,197.7271,198.3727,right,0.6314,,,,,,,,,0.45,,,,,,197.4719,197.7271,198.3727,"[-0.061464911005807754,-0.13238962977481897]","[1,1,1]","[0.07549990683085989,0.057614291061399404]","[-1,-1,-1]","[0.033129426230403554,-0.028961245155391613]","[1,1,1]","[-0.1551486897989049,0.07969755759232358]","[-1,-1,-1]","[0.024853577667139838,0.022370797629510802]","[1,1,1]","[0.17737428271807543,0.03969702332234719]","[-1,-1,-1]","[-0.1197632462527354,0.005215279420657016]","[-1,-1,-1]","[-0.19555801092747874,0.013030234490252576]","[-1,-1,-1]","[-0.11634627407145658,-0.03845297387799926]","[-1,-1,-1]","[-0.02721687324309962,0.10249849029322244]","[1,1,1]","[0.0022619288273731182,-0.18747443924562843]","[-1,-1,-1]","[0.09180480240043527,-0.08342966567054518]","[-1,-1,-1]","[-0.01999359460445815,0.03761801747377528]","[-1,-1,-1]","[-0.058043562777899266,0.06264073961507544]","[1,1,1]","[0.06575636306325,-0.14324759559748376]","[-1,-1,-1]","[0.006351625180724568,0.0795188414188639]","[1,1,1]","[-0.09823468384785945,0.10262088767124851]","[1,1,1]","[0.14769527758054002,-0.1261653619029929]","[-1,-1,-1]","[-0.1483775940332954,-0.10525247316265365]","[-1,-1,-1]","[0.10075455350281881,0.01484942905848967]","[-1,-1,-1]","[0.019557125079468298,0.17589175349394687]","[-1,-1,-1]","[-0.046742435515703736,-0.08166723765328947]","[-1,-1,-1]","[-0.10395389205942375,-0.08570246018100865]","[1,1,1]","[0.029870708861723657,0.11589710495306803]","[1,1,1]","[0.16980790629776987,0.10283431362740708]","[1,1,1]","[0.02015117783285244,-0.1294196127963865]","[-1,-1,-1]","[0.1421990145836497,-0.01122610121583439]","[1,1,1]","[-0.08644634116382918,0.16987078346701887]","[1,1,1]","[-0.17133148038025578,-0.03026507900329329]","[1,1,1]","[0.0733158408331904,-0.02734643471298284]","[-1,-1,-1]","[0.12106766624704875,0.09977282881807573]","[1,1,1]","[0.1464507184346106,-0.08287229941281551]","[-1,-1,-1]","[0.02,0.02]",199.4721,0,15,15,60,1,,,,,,,
,,,,,,,573dbfc9cc30e7000dc57410,682f0fc0bf2047d27ea98c6e,2025-05-22_12h51.52.748,cuing_paradigm_dot,2024.1.5,Win32,58.13953488,682d573fa47f1360d1451895,,,,,,,,,,,199.4726,199.9725,,,200.2225,200.9054,right,0.6693,,,,,,,,,0.1,,,,,,199.9726,200.2224,200.9054,"[0.0022845887402058325,-0.13510840708960487]","[-1,-1,-1]","[0.07169639231337932,0.15008611970468674]","[-1,-1,-1]","[-0.0970123411078643,0.03806154098424935]","[-1,-1,-1]","[-0.010425062368223974,0.06103019226710846]","[-1,-1,-1]","[-0.19696609449744518,0.027076305607908097]","[-1,-1,-1]","[0.03801210403451689,-0.03697716822696179]","[-1,-1,-1]","[0.12669120039570383,0.11845561770354009]","[-1,-1,-1]","[0.12126897181037856,0.046364260623984195]","[-1,-1,-1]","[-0.050106368751705495,-0.01847192926509308]","[-1,-1,-1]","[-0.017464715490430514,0.11553772470286157]","[-1,-1,-1]","[0.026903695986118976,0.028273582249626547]","[-1,-1,-1]","[-0.048297650928127316,0.15296118685798327]","[1,1,1]","[0.029057690667601405,0.17489729390096945]","[-1,-1,-1]","[0.0011376469835000205,-0.06788754762779209]","[1,1,1]","[0.049667733964618814,-0.11202133305503247]","[-1,-1,-1]","[0.1313954888147496,-0.12074791228110698]","[-1,-1,-1]","[0.19289219125256488,-0.032416250612253186]","[-1,-1,-1]","[-0.10208942354242113,0.10587941762619549]","[-1,-1,-1]","[-0.15809767792633533,-0.03593630056975957]","[-1,-1,-1]","[-0.02269598035766471,0.013589011655918484]","[-1,-1,-1]","[0.07879400491633763,0.05773599890683861]","[-1,-1,-1]","[0.14091319909375777,-0.08084526191070195]","[-1,-1,-1]","[-0.1311789232552481,-0.11973549217209166]","[-1,-1,-1]","[-0.0920040255718676,-0.11161022175421045]","[-1,-1,-1]","[0.166486083186875,0.0708713240056565]","[-1,-1,-1]","[0.06603013476871368,0.0038460756707615986]","[-1,-1,-1]","[0.10545870425506432,-0.053571882392190455]","[-1,-1,-1]","[0.12386135009735486,-0.004144843491513047]","[-1,-1,-1]","[-0.13000712430106307,0.13979372717288982]","[1,1,1]","[-0.06744329181986337,-0.18018930799342903]","[-1,-1,-1]","[-0.0909987597670683,-0.04721999709032882]","[-1,-1,-1]","[0.040682584045521664,-0.16414167490994083]","[-1,-1,-1]","[0.02,0.02]",202.0053,0,16,16,5,1,,,,,,,
,,,,,,,573dbfc9cc30e7000dc57410,682f0fc0bf2047d27ea98c6e,2025-05-22_12h51.52.748,cuing_paradigm_dot,2024.1.5,Win32,58.13953488,682d573fa47f1360d1451895,,,,,,,,,,,202.0057,202.505,,,202.7557,203.7385,left,0.968,,,,,,,,,0.55,,,,,,202.505,202.7557,203.7386,"[0.02677190065366235,0.10176284795274138]","[1,1,1]","[0.12272706363799289,-0.11085992701647035]","[1,1,1]","[0.1309579268016773,0.02616058166173363]","[1,1,1]","[0.09563274025485968,-0.16777501262900432]","[1,1,1]","[0.023068375442187528,-0.10650244637450967]","[-1,-1,-1]","[0.06237364399598234,0.1568434749390255]","[1,1,1]","[-0.12682744607267946,0.07652543025334012]","[-1,-1,-1]","[-0.11021719301850295,0.12375410532449817]","[-1,-1,-1]","[-0.05561716207319543,0.027744211934858088]","[-1,-1,-1]","[-0.00930844077228903,-0.18673797116191654]","[-1,-1,-1]","[-0.03132520412091537,-0.13242187823331714]","[-1,-1,-1]","[-0.18130570159132064,-0.009625184068940994]","[1,1,1]","[0.017324573465564035,-0.05937569010878984]","[-1,-1,-1]","[-0.11887806272318657,0.033359256427364425]","[1,1,1]","[0.18260453995018333,0.03761049534617759]","[-1,-1,-1]","[0.02132426717218469,0.053298279510506696]","[-1,-1,-1]","[0.10553832295027389,0.06673029532101837]","[-1,-1,-1]","[-0.1548586145036664,-0.12248008258326525]","[-1,-1,-1]","[0.10770621861984861,0.16737070875559015]","[1,1,1]","[-0.18757820411572185,-0.061669092612059356]","[1,1,1]","[0.03064107524104166,-0.19544941556619114]","[-1,-1,-1]","[0.1451033169396398,-0.018599881928253924]","[1,1,1]","[0.03546888916921916,-0.14610330707882568]","[-1,-1,-1]","[-0.1003919986920171,-0.14990033485070325]","[1,1,1]","[0.0016165861857075261,0.014983690299754982]","[1,1,1]","[0.000002489891366499424,0.15876948984591688]","[1,1,1]","[0.08916535816193624,0.012921143112306261]","[1,1,1]","[0.074562268074944,-0.0808575753198808]","[1,1,1]","[-0.03454429867195751,0.13700007642049658]","[1,1,1]","[-0.0687336086179746,0.17792552522389563]","[-1,-1,-1]","[-0.10057831621856626,-0.10359652067790327]","[1,1,1]","[-0.031179182796755262,-0.08179965087970244]","[1,1,1]","[0.02,0.02]",204.8389,0,17,17,146,1,,,,,,,
,,,,,,,573dbfc9cc30e7000dc57410,682f0fc0bf2047d27ea98c6e,2025-05-22_12h51.52.748,cuing_paradigm_dot,2024.1.5,Win32,58.13953488,682d573fa47f1360d1451895,,,,,,,,,,,204.8393,205.3391,,,205.5889,206.1387,right,0.5337,,,,,,,,,0.45,,,,,,205.3392,205.5888,206.1387,"[0.1379505978847806,-0.0929673355514555]","[-1,-1,-1]","[0.053743041897037665,-0.07331769933930345]","[-1,-1,-1]","[-0.09956325323983357,0.10346371867740903]","[-1,-1,-1]","[0.08733790894089107,0.04403112485728617]","[1,1,1]","[0.041102253682185376,0.00246983428019277]","[1,1,1]","[-0.11857517325877433,-0.012879444296637265]","[1,1,1]","[-0.1588183991301145,0.06110150186979368]","[1,1,1]","[-0.039028099782981884,0.006120531531650438]","[-1,-1,-1]","[-0.030463100370883237,-0.1388716364604497]","[-1,-1,-1]","[0.025224643396080982,0.09419837293149201]","[1,1,1]","[-0.0575942208336611,0.16310299174197954]","[-1,-1,-1]","[0.16211988816730533,-0.008516414599883119]","[-1,-1,-1]","[-0.015107260473770128,0.15148459022346855]","[1,1,1]","[-0.08512104426578743,-0.16618217416982284]","[-1,-1,-1]","[-0.06058463312508665,-0.034507444331739155]","[-1,-1,-1]","[-0.03699855247962157,0.07883096707840906]","[-1,-1,-1]","[0.15846694306153675,-0.05730548028259441]","[1,1,1]","[-0.07347298192512668,-0.10299409089831384]","[1,1,1]","[0.05686849800893849,-0.1427368336652949]","[-1,-1,-1]","[0.15286037366821853,0.03749169397417875]","[-1,-1,-1]","[0.017710867997847646,-0.09527349058324687]","[1,1,1]","[0.04112099525189277,0.1802240984835306]","[-1,-1,-1]","[-0.0011766122649991882,0.18984784523967313]","[-1,-1,-1]","[-0.10028451594350253,0.1474999946288554]","[1,1,1]","[-0.11276798026810801,-0.07207218741302127]","[1,1,1]","[-0.1230967518244254,-0.15187245136714095]","[-1,-1,-1]","[0.03502587411342399,-0.18933698795390738]","[1,1,1]","[0.1257234808164786,0.0674638249592912]","[-1,-1,-1]","[-0.1824438305206764,-0.04839551800808943]","[1,1,1]","[0.18306020196039205,0.07404592542231551]","[-1,-1,-1]","[0.12881944951246513,0.1275093571236665]","[-1,-1,-1]","[-0.011469402390897748,-0.044933314503114614]","[1,1,1]","[0.02,0.02]",207.2384,0,18,18,81,1,,,,,,,
,,,,,,,573dbfc9cc30e7000dc57410,682f0fc0bf2047d27ea98c6e,2025-05-22_12h51.52.748,cuing_paradigm_dot,2024.1.5,Win32,58.13953488,682d573fa47f1360d1451895,,,,,,,,,,,207.2387,207.7381,,,207.9881,208.6052,left,0.6025,,,,,,,,,0.55,,,,,,207.7381,207.9881,208.6052,"[-0.056861307100859265,-0.0840929011350596]","[1,1,1]","[-0.06449710774649611,-0.12559112362606756]","[1,1,1]","[0.014874343745320111,-0.03552902078188401]","[1,1,1]","[-0.10657368823477884,-0.053877517680373]","[1,1,1]","[-0.012086674554885083,0.14999347569261037]","[-1,-1,-1]","[0.07047712330102963,0.09433887135336227]","[1,1,1]","[-0.15287527390047223,0.044863810745886294]","[1,1,1]","[-0.12616039138686674,0.11897963909410121]","[1,1,1]","[-0.08942724156669556,0.15413218387194014]","[1,1,1]","[-0.031112177515328163,0.10762808868121629]","[-1,-1,-1]","[0.058832257484032306,-0.16856906541140834]","[-1,-1,-1]","[0.12051340106049963,0.01265710942610594]","[-1,-1,-1]","[-0.10229365203441686,-0.16073411371716198]","[1,1,1]","[-0.03523876568611443,0.18323711995873654]","[-1,-1,-1]","[0.061275545805934084,0.047022911964914114]","[-1,-1,-1]","[0.1462307162437993,0.06310066109162234]","[-1,-1,-1]","[-0.08305569119204755,0.1058530187464208]","[1,1,1]","[-0.0045422317251032455,0.07327868811901071]","[-1,-1,-1]","[0.025835307431626885,-0.11282031866254684]","[-1,-1,-1]","[0.1294989932403074,-0.11236760461896482]","[-1,-1,-1]","[-0.14709204113782295,-0.11719852219656307]","[1,1,1]","[-0.15934222805038403,-0.06513709357652149]","[-1,-1,-1]","[0.09283558515500707,0.13347022174773737]","[-1,-1,-1]","[0.024071110068493,0.13252509159961623]","[1,1,1]","[0.05355522168518392,0.18845098597489526]","[-1,-1,-1]","[-0.10740415105981461,0.04210636645189001]","[-1,-1,-1]","[-0.0558166135507564,0.06660931457354852]","[1,1,1]","[0.00747741958811944,-0.17561727522793558]","[1,1,1]","[-0.18847543988014745,-0.02391376104628487]","[1,1,1]","[0.17937039370711122,-0.07375978554076816]","[1,1,1]","[-0.17468235705860588,0.09655431425922026]","[1,1,1]","[-0.016077690832379393,-0.08383228762405986]","[1,1,1]","[0.02,0.02]",209.7048,0,19,19,131,1,,,,,,,
,,,,,,,573dbfc9cc30e7000dc57410,682f0fc0bf2047d27ea98c6e,2025-05-22_12h51.52.748,cuing_paradigm_dot,2024.1.5,Win32,58.13953488,682d573fa47f1360d1451895,,,,,,,,,,,209.7051,210.205,,,210.4553,210.9892,right,0.5236,,,,,,,,,0.4,,,,,,210.205,210.4552,210.9892,"[0.05835641956133915,0.03436788577483431]","[-1,-1,-1]","[0.06769620353089456,0.11168926609294728]","[-1,-1,-1]","[-0.021002635068871862,-0.06615217139847011]","[-1,-1,-1]","[-0.04742234239754694,-0.18911803325687726]","[-1,-1,-1]","[-0.0734406452035804,-0.08958783916464315]","[1,1,1]","[0.03254969882021906,-0.04976423130907505]","[1,1,1]","[-0.03607508601633394,-0.009503048533530812]","[-1,-1,-1]","[0.0009947041424018892,0.18182876283380678]","[1,1,1]","[0.139340871237365,-0.0026009780394624107]","[1,1,1]","[-0.14548561255141634,0.0737689691950056]","[1,1,1]","[-0.12306163001849586,0.13399884436929246]","[1,1,1]","[0.11189479233535905,0.14598489251077157]","[-1,-1,-1]","[0.12937938421819364,-0.07958581287386116]","[-1,-1,-1]","[0.031398929355231045,0.14330447031659393]","[-1,-1,-1]","[-0.10162305339247125,-0.12535354128627127]","[1,1,1]","[0.018081435019983223,0.09559857679202113]","[-1,-1,-1]","[0.12003692280986389,-0.1358608562408301]","[-1,-1,-1]","[0.18036181888262393,0.06162041891095854]","[1,1,1]","[-0.03358506917797028,0.10330348852576803]","[-1,-1,-1]","[0.10233118096062414,-0.034555274623670036]","[-1,-1,-1]","[0.04655909404249447,-0.008719219302379708]","[-1,-1,-1]","[0.12619278397154213,0.03926466533925421]","[-1,-1,-1]","[-0.16937409198664044,-0.0949348939215612]","[-1,-1,-1]","[-0.10348901867874244,0.04400686178809053]","[1,1,1]","[-0.1337921872353456,-0.034545805380184674]","[-1,-1,-1]","[-0.043430189332125495,-0.13069136831697914]","[1,1,1]","[0.1736523661743064,-0.02492103381572779]","[1,1,1]","[0.03232150461266082,-0.14080500074633012]","[-1,-1,-1]","[0.09234583038151854,0.06844091566255403]","[-1,-1,-1]","[-0.08359937915671184,0.1665859448553454]","[1,1,1]","[-0.03842154070399851,0.1908563363092321]","[-1,-1,-1]","[0.0008407052661326081,0.02847078592952039]","[1,1,1]","[0.02,0.02]",212.0881,0,20,20,44,1,,,,,,,
,,,,,,,573dbfc9cc30e7000dc57410,682f0fc0bf2047d27ea98c6e,2025-05-22_12h51.52.748,cuing_paradigm_dot,2024.1.5,Win32,58.13953488,682d573fa47f1360d1451895,,,,,,,,,,,212.0885,212.5882,,,212.8384,213.4715,left,0.6211,,,,,,,,,0.5,,,,,,212.5882,212.8383,213.4715,"[-0.014615891589720886,-0.1981638886753312]","[1,1,1]","[-0.05526825209883093,-0.15510052546801867]","[1,1,1]","[-0.05197104914198701,0.15431110656948704]","[1,1,1]","[-0.01898648572002209,-0.06492030937083919]","[-1,-1,-1]","[-0.11660518014533809,-0.02296126908852813]","[1,1,1]","[0.015770864473156204,0.09411589126736342]","[1,1,1]","[-0.048118079025758514,0.04438404606584469]","[1,1,1]","[0.018344934981492336,-0.09388691619581167]","[1,1,1]","[-0.028988085727914323,0.09443539054378101]","[-1,-1,-1]","[0.07253215075168225,0.17174835078980963]","[1,1,1]","[0.06511746940595396,-0.04354355515705641]","[1,1,1]","[-0.006515671178062682,0.1709415018445966]","[1,1,1]","[0.08244813306673046,-0.17858739440317264]","[-1,-1,-1]","[0.10722560319084841,-0.046695701366816625]","[1,1,1]","[0.1941824744053198,0.04787582977320543]","[1,1,1]","[-0.12220768389560442,-0.11344793185357342]","[-1,-1,-1]","[0.025752624692732838,-0.19448655441747778]","[-1,-1,-1]","[-0.10805074718269266,0.01973152805372001]","[-1,-1,-1]","[0.11432785667859074,0.006324062421357059]","[-1,-1,-1]","[0.016977573181978147,0.006437331933167771]","[-1,-1,-1]","[-0.15954424993647842,0.06656561465522659]","[-1,-1,-1]","[-0.1843281167032969,-0.05476723988658491]","[1,1,1]","[0.05659642117399234,-0.12268875375821911]","[-1,-1,-1]","[0.026169271309372275,0.1342867061430905]","[-1,-1,-1]","[0.14075160538078302,0.07189058757494197]","[-1,-1,-1]","[0.19841961670514874,0.0019316757954087591]","[-1,-1,-1]","[0.06929774340979543,0.08753964328312876]","[-1,-1,-1]","[0.16239583046277437,-0.07657278032157439]","[1,1,1]","[0.0650975302443599,0.020030762831374498]","[-1,-1,-1]","[0.09104093130634339,-0.0937248662163062]","[-1,-1,-1]","[0.11087503881555973,-0.12903731646621144]","[1,1,1]","[0.1562111018237401,0.01919021238303475]","[1,1,1]","[0.02,0.02]",214.5711,0,21,21,92,1,,,,,,,
,,,,,,,573dbfc9cc30e7000dc57410,682f0fc0bf2047d27ea98c6e,2025-05-22_12h51.52.748,cuing_paradigm_dot,2024.1.5,Win32,58.13953488,682d573fa47f1360d1451895,,,,,,,,,,,214.5715,215.0713,,,215.3219,216.3214,right,0.9843,,,,,,,,,0.55,,,,,,215.0713,215.3218,216.3215,"[0.08086438012801567,-0.10020160096131635]","[1,1,1]","[-0.10222829630233024,-0.03164033503154064]","[-1,-1,-1]","[-0.13242863347960535,-0.07176056556474447]","[-1,-1,-1]","[0.08041811290388289,0.044369679959903686]","[-1,-1,-1]","[0.1287987302897652,-0.05058434559259393]","[1,1,1]","[-0.08807060771416528,0.02158060272387739]","[-1,-1,-1]","[0.0435926662856325,0.13348730889357868]","[1,1,1]","[0.016925203995273898,-0.17953794232439582]","[1,1,1]","[-0.09030718788390593,-0.1635282254510019]","[1,1,1]","[-0.06593126936615737,-0.12424817523631879]","[1,1,1]","[-0.031250807926286116,0.12484846716790012]","[1,1,1]","[0.04184989036982506,0.08712070816410078]","[1,1,1]","[0.03742460902546469,-0.0027625945336061048]","[-1,-1,-1]","[0.014028452155660074,-0.06548983834768518]","[-1,-1,-1]","[-0.12739351021300313,-0.1372602543500826]","[-1,-1,-1]","[0.07884416731733945,0.1550618024141088]","[1,1,1]","[-0.18525597551997663,0.04466032011950846]","[1,1,1]","[0.11491899142881701,0.09815270679308673]","[1,1,1]","[-0.015644827232753306,-0.12375138873243902]","[-1,-1,-1]","[0.1638110449456865,0.08596870759803067]","[-1,-1,-1]","[-0.1503672465456516,0.11953734745034833]","[1,1,1]","[0.1298308276531467,-0.1438065501401921]","[1,1,1]","[-0.07491429021691197,0.1276155641091579]","[-1,-1,-1]","[-0.035000040998812376,0.16684001319044267]","[1,1,1]","[-0.07192636153198116,0.07796702773090014]","[1,1,1]","[-0.19477338873607125,-0.010259005933923227]","[1,1,1]","[-0.0475692453805625,0.011594391190740058]","[-1,-1,-1]","[-0.10263755728282677,-0.09871819614550456]","[1,1,1]","[-0.05269467646476738,-0.08184717048665409]","[-1,-1,-1]","[0.0604865996622411,-0.15277785913622885]","[-1,-1,-1]","[0.11348124917773073,0.002587606523744797]","[-1,-1,-1]","[0.025069098093921074,0.19031183640900867]","[1,1,1]","[0.02,0.02]",217.421,0,22,22,125,1,,,,,,,
,,,,,,,573dbfc9cc30e7000dc57410,682f0fc0bf2047d27ea98c6e,2025-05-22_12h51.52.748,cuing_paradigm_dot,2024.1.5,Win32,58.13953488,682d573fa47f1360d1451895,,,,,,,,,,,217.4214,217.9212,,,218.1713,218.9547,right,0.7677,,,,,,,,,0.45,,,,,,217.9214,218.1713,218.9547,"[0.18377101052662337,0.05346314838135497]","[1,1,1]","[0.14379835236891472,0.11021863964091871]","[-1,-1,-1]","[0.07531735566553202,0.1311961851537193]","[-1,-1,-1]","[-0.10491916664529957,-0.16581058935349344]","[-1,-1,-1]","[-0.09515851133503835,0.0730607465937368]","[-1,-1,-1]","[0.06680399244941645,-0.05550388313003443]","[1,1,1]","[0.03499983938982561,-0.1851898218099369]","[1,1,1]","[0.04060079375264414,-0.11840387573147985]","[1,1,1]","[-0.016994141765558544,-0.03927315671624166]","[-1,-1,-1]","[0.11130585296625277,-0.15026275123047042]","[-1,-1,-1]","[0.06254943561372867,0.005063008271263864]","[-1,-1,-1]","[-0.030183712432019495,0.14805940579888688]","[1,1,1]","[0.03131803256255265,-0.028623610988043734]","[1,1,1]","[-0.17742019659140487,0.08557257670619202]","[-1,-1,-1]","[-0.06759910247669872,-0.06422825003642024]","[-1,-1,-1]","[-0.04078799700391984,-0.1354186248162189]","[1,1,1]","[0.16179414913602416,-0.028870729987787436]","[-1,-1,-1]","[-0.00805822260181523,0.07252231140859842]","[1,1,1]","[-0.11331665052444288,-0.010443726579811104]","[-1,-1,-1]","[0.09626168965313268,0.16756611645605596]","[-1,-1,-1]","[-0.12857199081979437,-0.05772350809308331]","[1,1,1]","[0.048895810571247825,0.048363046847028655]","[-1,-1,-1]","[-0.1067216584340909,0.1459275214678191]","[-1,-1,-1]","[0.15115435994744747,0.009800940127072914]","[-1,-1,-1]","[-0.16298621926708834,-0.0909732734897446]","[1,1,1]","[-0.1800360837169175,-0.01074321300147251]","[-1,-1,-1]","[0.12168278053411771,-0.0559964071437041]","[1,1,1]","[-0.03457044509767675,-0.1849218133526677]","[-1,-1,-1]","[0.1921204270992822,0.011870251341209597]","[1,1,1]","[0.01749102442052546,0.0234242147339439]","[1,1,1]","[0.06730700322389556,0.08985566931035209]","[1,1,1]","[-0.06026885531978662,0.048075819839448745]","[-1,-1,-1]","[0.02,0.02]",220.0545,0,23,23,83,1,,,,,,,
,,,,,,,573dbfc9cc30e7000dc57410,682f0fc0bf2047d27ea98c6e,2025-05-22_12h51.52.748,cuing_paradigm_dot,2024.1.5,Win32,58.13953488,682d573fa47f1360d1451895,,,,,,,,,,,220.0549,220.5544,,,220.8048,221.3046,left,0.4842,,,,,,,,,0.9,,,,,,220.5544,220.8048,221.3047,"[-0.043940254843792124,-0.1528199533589003]","[1,1,1]","[-0.17659945183589595,-0.000207665874790508]","[1,1,1]","[-0.010373611422305251,0.1339054575650505]","[1,1,1]","[0.13611860940595963,-0.005681380622959493]","[-1,-1,-1]","[-0.0936911359395387,0.02277418345916448]","[1,1,1]","[0.05618129507052625,0.17938901018428607]","[1,1,1]","[-0.027945556674153455,0.05675260131299129]","[1,1,1]","[0.09957275607078471,-0.16040987076522611]","[1,1,1]","[-0.14842108799399403,0.031935307897524245]","[1,1,1]","[0.11170277720342202,0.03436758520595352]","[1,1,1]","[-0.08377918395741252,-0.0627323311790088]","[1,1,1]","[-0.06627531230215014,0.08119095690486133]","[1,1,1]","[-0.029448402435793043,-0.07191882071077414]","[1,1,1]","[-0.149130477481034,-0.11613739534967159]","[1,1,1]","[0.03580821328037607,-0.12785941396263834]","[1,1,1]","[-0.029148226246309163,-0.19595454361008996]","[1,1,1]","[-0.007540818021921969,0.19255056997061387]","[1,1,1]","[0.018014410766417584,-0.18045311163608957]","[1,1,1]","[0.009485900953175076,0.003251172926705327]","[1,1,1]","[-0.11137763137783234,-0.021070717965863586]","[-1,-1,-1]","[-0.09552690020820362,0.1647901624307615]","[1,1,1]","[-0.10336621688508478,-0.12588970932959634]","[1,1,1]","[-0.13741249848993692,0.13502067698477282]","[1,1,1]","[0.06165294791366508,-0.06763275978876952]","[1,1,1]","[0.1141885448170865,0.16256192733605135]","[1,1,1]","[-0.1572934492833097,-0.058388307471366224]","[1,1,1]","[0.09805141406115057,-0.11376698323620144]","[1,1,1]","[0.0883287976745259,-0.011266987088683348]","[1,1,1]","[-0.05046129554433693,0.1555057147145622]","[1,1,1]","[-0.14220188001946757,0.08100227579531802]","[1,1,1]","[0.05869434865569382,0.08131488475241803]","[-1,-1,-1]","[0.1658215950673276,0.03660205496449672]","[1,1,1]","[0.02,0.02]",222.4044,0,24,24,182,1,,,,,,,
,,,,,,,573dbfc9cc30e7000dc57410,682f0fc0bf2047d27ea98c6e,2025-05-22_12h51.52.748,cuing_paradigm_dot,2024.1.5,Win32,58.13953488,682d573fa47f1360d1451895,,,,,,,,,,,222.4047,222.904,,,223.1548,223.7545,left,0.5865,,,,,,,,,0.6,,,,,,222.9041,223.1547,223.7546,"[-0.0922316758785035,0.0327442892023443]","[1,1,1]","[-0.187850250765756,-0.04706226729852476]","[-1,-1,-1]","[-0.09395377424021739,-0.11536618789575871]","[1,1,1]","[-0.1865189582347066,0.045768361160804204]","[1,1,1]","[0.0016986003756910757,0.036723586608146834]","[1,1,1]","[-0.13111912281765925,-0.019929592919955066]","[-1,-1,-1]","[-0.054233324201543205,-0.051923649050611954]","[-1,-1,-1]","[0.0501659317351031,0.18469648236840927]","[1,1,1]","[-0.092122497895185,0.09112092672350074]","[-1,-1,-1]","[0.1309702423617594,-0.0342080559694061]","[-1,-1,-1]","[-0.026182234211031667,-0.11361153901508161]","[1,1,1]","[0.1178720525986944,0.14414267333936465]","[1,1,1]","[0.1045327550542188,-0.1358444415541958]","[1,1,1]","[0.1554175546385421,0.10351985220679617]","[1,1,1]","[-0.14304119347884256,-0.09161767863389829]","[-1,-1,-1]","[0.07271968416926025,-0.16387716715598602]","[1,1,1]","[0.0030621806301362495,-0.02645333960013155]","[-1,-1,-1]","[-0.12806408449062415,0.0733014111636731]","[-1,-1,-1]","[-0.008008196906097186,-0.16350912589681987]","[-1,-1,-1]","[0.08659991561105121,0.0847148584401555]","[1,1,1]","[0.05340520351650357,-0.03749741358249982]","[1,1,1]","[0.05653095399831498,0.03311998440638098]","[-1,-1,-1]","[0.04215659165665435,-0.19245327271591745]","[1,1,1]","[-0.005534364659937248,0.12066560272706157]","[-1,-1,-1]","[0.08220561906539291,-0.09744214834265578]","[1,1,1]","[-0.09125934829715977,0.13994911362680826]","[1,1,1]","[0.0270320936577919,-0.11550405501115858]","[1,1,1]","[0.024446088668558644,-0.07247837729041894]","[1,1,1]","[0.08701326974735346,-0.0016924704517442559]","[1,1,1]","[0.1881488917665543,-0.05183250090687711]","[-1,-1,-1]","[0.14447839453228406,0.04226158084239542]","[1,1,1]","[-0.013581791703712943,0.1789854609291391]","[-1,-1,-1]","[0.02,0.02]",224.8543,0,25,25,161,1,,,,,,,
,,,,,,,573dbfc9cc30e7000dc57410,682f0fc0bf2047d27ea98c6e,2025-05-22_12h51.52.748,cuing_paradigm_dot,2024.1.5,Win32,58.13953488,682d573fa47f1360d1451895,,,,,,,,,,,224.8548,225.354,,,225.6046,226.1376,left,0.5185,,,,,,,,,0.55,,,,,,225.354,225.6045,226.1377,"[0.11986585412679389,0.04369889097958265]","[-1,-1,-1]","[0.09126757414557322,-0.1322648659747416]","[1,1,1]","[-0.08711412178488814,-0.021140364692397353]","[-1,-1,-1]","[-0.07297518372677171,-0.14935303792846508]","[1,1,1]","[0.15457201374284335,0.012791392412929264]","[1,1,1]","[-0.1386882712990035,-0.030695876799655426]","[1,1,1]","[-0.18366648455332923,-0.013864401394083214]","[1,1,1]","[0.15761451101347823,-0.04813278867302312]","[1,1,1]","[-0.03484597285891392,0.18171696922699856]","[-1,-1,-1]","[-0.1356184248354491,0.11100200841378424]","[-1,-1,-1]","[-0.024815959936604327,-0.08812047526648964]","[1,1,1]","[0.031032006123989,0.005176669232948471]","[1,1,1]","[-0.019684098240198514,0.07839784292227257]","[1,1,1]","[-0.08099497949059456,0.16240173927405202]","[-1,-1,-1]","[0.033178016683649975,-0.08829968559814447]","[-1,-1,-1]","[-0.12838176218719483,0.05908063639052219]","[-1,-1,-1]","[0.06883870064316396,0.06801590461887926]","[1,1,1]","[0.09039676505806307,0.0053191515690490685]","[-1,-1,-1]","[0.19397617349747298,0.02580073056406476]","[1,1,1]","[0.14348614312951463,-0.09647054751039635]","[1,1,1]","[-0.03268126433501405,-0.008144474169907389]","[1,1,1]","[0.15586523908192604,0.10301870557572856]","[1,1,1]","[-0.16012317621752178,-0.09100631342114546]","[1,1,1]","[0.09518777408776559,-0.039014055920900216]","[-1,-1,-1]","[-0.029648537197743206,0.03895159902219651]","[-1,-1,-1]","[0.06906499684368081,0.17212923883962758]","[1,1,1]","[0.02015909788070236,-0.1972352029097982]","[-1,-1,-1]","[0.0508789736637107,-0.17126853808880274]","[1,1,1]","[-0.03077394377465938,-0.19599638085729593]","[-1,-1,-1]","[0.0053502519954040356,-0.12342782981206284]","[-1,-1,-1]","[0.13413586088052545,0.13846210362122255]","[-1,-1,-1]","[-0.18884562832488255,0.050032512524688225]","[1,1,1]","[0.02,0.02]",227.2374,0,26,26,144,1,,,,,,,
,,,,,,,573dbfc9cc30e7000dc57410,682f0fc0bf2047d27ea98c6e,2025-05-22_12h51.52.748,cuing_paradigm_dot,2024.1.5,Win32,58.13953488,682d573fa47f1360d1451895,,,,,,,,,,,227.2378,227.7369,,,227.9877,228.6541,right,0.6507,,,,,,,,,0.45,,,,,,227.737,227.9877,228.6542,"[-0.06254426064992881,0.05942540542934546]","[-1,-1,-1]","[0.05636730294927928,0.0953610803846058]","[-1,-1,-1]","[0.09585255828308505,0.17295465792365425]","[-1,-1,-1]","[-0.09363365221061286,-0.1248688283133462]","[-1,-1,-1]","[0.01630130798744844,-0.09618188396402294]","[-1,-1,-1]","[-0.023203912948342516,0.08642430802534211]","[-1,-1,-1]","[-0.10597572986842821,0.06571587336252566]","[-1,-1,-1]","[0.1793396815395034,0.019267876893722613]","[-1,-1,-1]","[-0.10461834405726954,0.1669240818731765]","[1,1,1]","[0.01868661596619537,0.042502030046204856]","[1,1,1]","[-0.07052697387310926,-0.00274975158117163]","[1,1,1]","[0.19173684803090513,-0.05436570521472487]","[1,1,1]","[0.13905263128015513,-0.0915711915445298]","[1,1,1]","[-0.039658239228138124,0.1392820471755296]","[1,1,1]","[-0.10933151303926765,0.11068409886840687]","[1,1,1]","[0.10789756274549425,0.07700517832657154]","[1,1,1]","[0.06790319894636561,-0.18602763849671]","[-1,-1,-1]","[0.03680183011605351,-0.04514760585800172]","[-1,-1,-1]","[0.031664352989269236,0.1540615563096224]","[1,1,1]","[0.16105699534312615,-0.020403080979052475]","[1,1,1]","[0.0025713155945029558,-0.014616625315731829]","[-1,-1,-1]","[-0.13998883994828018,0.1409035463179006]","[-1,-1,-1]","[-0.16714127288963113,-0.011056817485406694]","[1,1,1]","[0.05898707312112625,-0.1447311218924755]","[1,1,1]","[-0.0039730738955937525,-0.17543595675368406]","[1,1,1]","[-0.1351542158780305,-0.05426636211185036]","[-1,-1,-1]","[0.09065594351801254,-0.08698908761128439]","[-1,-1,-1]","[-0.025650978594478343,-0.08469112191507969]","[-1,-1,-1]","[-0.06980124406144081,-0.17790702734081737]","[-1,-1,-1]","[0.09276675629633405,0.026606566362635847]","[-1,-1,-1]","[-0.019832369488292343,-0.12787028924972882]","[-1,-1,-1]","[0.11246398787524349,-0.03185596688724623]","[1,1,1]","[0.02,0.02]",229.754,0,27,27,64,1,,,,,,,
,,,,,,,573dbfc9cc30e7000dc57410,682f0fc0bf2047d27ea98c6e,2025-05-22_12h51.52.748,cuing_paradigm_dot,2024.1.5,Win32,58.13953488,682d573fa47f1360d1451895,,,,,,,,,,,229.7543,230.2546,,,230.5055,231.038,right,0.5175,,,,,,,,,0.5,,,,,,230.2546,230.5055,231.0381,"[0.00927359237374001,0.07410330172434035]","[1,1,1]","[-0.0925715129912163,-0.1689125653374984]","[1,1,1]","[0.14700215774411576,0.05531724723132412]","[1,1,1]","[0.04099197405947779,-0.02086342701071625]","[-1,-1,-1]","[-0.07284098143805894,-0.08656825802748282]","[-1,-1,-1]","[-0.006647504634435486,-0.10851133337836388]","[-1,-1,-1]","[-0.11220791052045627,-0.061111133856507065]","[1,1,1]","[0.05699798356179188,0.18838894964634645]","[1,1,1]","[-0.027687681105529785,0.1276940592718585]","[-1,-1,-1]","[-0.14471335872950875,-0.09526026476554099]","[1,1,1]","[-0.08165245759087135,0.17522042579327335]","[-1,-1,-1]","[-0.12316097784135094,0.1325267617791022]","[1,1,1]","[0.1192074231209439,-0.14940216585494354]","[1,1,1]","[0.11968520346849652,0.11924164202475762]","[1,1,1]","[0.011598539698309212,0.1473272294858837]","[-1,-1,-1]","[-0.181817162438156,-0.08011807517071674]","[-1,-1,-1]","[0.06902132123291066,0.11018246833833213]","[1,1,1]","[-0.16074391000121543,-0.012626045442538094]","[1,1,1]","[-0.10703776074790004,0.07033399509422344]","[-1,-1,-1]","[0.020337601109836498,-0.1751862868848914]","[-1,-1,-1]","[-0.11514855616060596,0.0021878381934982106]","[-1,-1,-1]","[0.08010202745712641,0.06493742279735426]","[1,1,1]","[0.12445242389994705,-0.03293343309295968]","[-1,-1,-1]","[-0.040420541964590266,-0.03378550777894295]","[-1,-1,-1]","[0.08537293833173148,-0.0920543374526017]","[1,1,1]","[-0.07463551840984915,0.09656301250098145]","[1,1,1]","[-0.19360065044706706,0.01157244129530111]","[1,1,1]","[-0.0022646223118208257,-0.060971884316673775]","[1,1,1]","[0.13652148448794552,-0.10113447419995909]","[-1,-1,-1]","[-0.025355001281379692,-0.17765492414522507]","[-1,-1,-1]","[0.1746796336643345,-0.024268100186240177]","[-1,-1,-1]","[0.05194830679702163,0.032271873954095136]","[-1,-1,-1]","[0.02,0.02]",232.1373,0,28,28,100,1,,,,,,,
,,,,,,,573dbfc9cc30e7000dc57410,682f0fc0bf2047d27ea98c6e,2025-05-22_12h51.52.748,cuing_paradigm_dot,2024.1.5,Win32,58.13953488,682d573fa47f1360d1451895,,,,,,,,,,,232.1378,232.6374,,,232.8876,233.8374,right,0.9338,,,,,,,,,0.4,,,,,,232.6375,232.8876,233.8374,"[-0.053396456326373624,-0.07459355297168002]","[1,1,1]","[0.06589419234285922,-0.18332621632074597]","[-1,-1,-1]","[-0.000992454959227183,0.11044485898590665]","[1,1,1]","[0.019523005927027232,0.18621285767341095]","[-1,-1,-1]","[0.15900216173275206,-0.05506146966918226]","[-1,-1,-1]","[0.16034049446916412,0.1139363688303832]","[-1,-1,-1]","[0.07400843625586934,0.07738077413407075]","[1,1,1]","[0.06047232032101526,0.022057195735191222]","[-1,-1,-1]","[-0.004415544130748034,-0.06488286829208954]","[1,1,1]","[0.10721858970587134,0.01937908575663596]","[-1,-1,-1]","[-0.054226635161790736,0.036088423888986094]","[1,1,1]","[0.0355760163557919,-0.04659573295209192]","[-1,-1,-1]","[-0.14440247552137445,-0.11333402324746315]","[1,1,1]","[-0.039519675356096774,-0.03626358416651066]","[1,1,1]","[-0.08354580879858158,0.008045550704527766]","[1,1,1]","[0.10715121744302994,-0.09254382053370053]","[1,1,1]","[0.09254263501854404,0.17046649357032434]","[-1,-1,-1]","[0.03293725968240874,0.053548835667498386]","[-1,-1,-1]","[-0.18359264662832397,0.06476464969700922]","[-1,-1,-1]","[-0.044959548299240655,-0.17876925795277127]","[1,1,1]","[0.050422294198193496,0.1606971842361919]","[-1,-1,-1]","[0.15304762524263885,0.018281588757674796]","[-1,-1,-1]","[-0.0012971704802509272,0.005471691733785091]","[-1,-1,-1]","[-0.05316141115884557,0.15184252907930432]","[-1,-1,-1]","[-0.19103260960736718,-0.022012896009382894]","[1,1,1]","[-0.1333147603252411,0.07620674723123858]","[-1,-1,-1]","[-0.15329333653551838,0.03492736767384207]","[1,1,1]","[-0.12152150734782675,-0.03321117168723214]","[1,1,1]","[0.006358198775290414,-0.17301360987652803]","[-1,-1,-1]","[0.04289446522971812,0.10871721591163003]","[-1,-1,-1]","[-0.053023324714795435,0.09631103639072397]","[-1,-1,-1]","[-0.00004397046653784755,-0.1301005200983433]","[-1,-1,-1]","[0.02,0.02]",234.9372,0,29,29,53,1,,,,,,,
,,,,,,,573dbfc9cc30e7000dc57410,682f0fc0bf2047d27ea98c6e,2025-05-22_12h51.52.748,cuing_paradigm_dot,2024.1.5,Win32,58.13953488,682d573fa47f1360d1451895,,,,,,,,,,,234.9376,235.4368,,,235.6874,236.2872,left,0.5842,,,,,,,,,0.6,,,,,,235.4368,235.6874,236.2873,"[0.13203060399046906,0.04533246160892066]","[1,1,1]","[0.15656392608469796,-0.01385322140328446]","[-1,-1,-1]","[0.07557072039660544,0.1708916728332999]","[-1,-1,-1]","[0.048324022114546464,0.09370086528331058]","[1,1,1]","[-0.1462800209106704,-0.0673488753428955]","[-1,-1,-1]","[0.1186315934021983,-0.07404858377170083]","[-1,-1,-1]","[0.008729210323419797,-0.1444511061018605]","[1,1,1]","[0.035397938883638964,-0.06983009936180018]","[1,1,1]","[-0.08410499086568848,-0.12384945012947673]","[1,1,1]","[0.09565414135765427,0.13003808958831067]","[-1,-1,-1]","[0.09417069918339427,-0.03455410645329778]","[-1,-1,-1]","[-0.011164042347278774,0.11139709703238532]","[1,1,1]","[-0.013965373234724151,0.02876535847640626]","[1,1,1]","[-0.06900070638924412,-0.02531990903572904]","[-1,-1,-1]","[-0.09563784091168856,0.017900541883876003]","[1,1,1]","[-0.13905850746628937,0.12860576402273227]","[1,1,1]","[0.13702332314744964,0.1354680588930349]","[1,1,1]","[0.04884365173779338,-0.17492083293995667]","[-1,-1,-1]","[0.08142138015664559,-0.1263595422441418]","[1,1,1]","[0.09613851577439386,0.02325194958797843]","[1,1,1]","[-0.15423493914474717,0.050204958371536317]","[1,1,1]","[-0.02310059909494327,-0.027616134565610476]","[1,1,1]","[0.17052317689685073,-0.06378331717278563]","[1,1,1]","[-0.08937075519170112,0.07663189702682395]","[-1,-1,-1]","[-0.09730129086757132,0.11766679298241894]","[1,1,1]","[-0.1117769383851418,-0.03604369040630937]","[1,1,1]","[0.12229728274765587,-0.1216301267146374]","[-1,-1,-1]","[-0.015475297864126877,-0.08017581836024909]","[-1,-1,-1]","[0.18352022690144137,0.06825287823600659]","[1,1,1]","[0.05705704779626813,0.05284877462691451]","[1,1,1]","[-0.018349522682361404,0.18819330726756386]","[-1,-1,-1]","[-0.0567813498627495,0.15120829185214868]","[-1,-1,-1]","[0.02,0.02]",237.3876,0,30,30,166,1,,,,,,,
,,,,,,,573dbfc9cc30e7000dc57410,682f0fc0bf2047d27ea98c6e,2025-05-22_12h51.52.748,cuing_paradigm_dot,2024.1.5,Win32,58.13953488,682d573fa47f1360d1451895,,,,,,,,,,,237.3879,237.8873,,,238.1376,238.904,right,0.7505,,,,,,,,,0.5,,,,,,237.8873,238.1376,238.9041,"[-0.04757134442254454,0.18177236089181462]","[1,1,1]","[0.10323121285048402,0.08406360907065458]","[-1,-1,-1]","[-0.04008160158542063,0.037613297797083244]","[1,1,1]","[0.0013970601328985928,0.13351144842675533]","[-1,-1,-1]","[0.07666926054284222,0.15515774533943796]","[-1,-1,-1]","[-0.12761238123820742,-0.1509731544008368]","[1,1,1]","[0.05379870133256497,-0.11559975148903848]","[1,1,1]","[0.19347398149085698,-0.02050930798338372]","[-1,-1,-1]","[-0.12616488511317644,0.06542428344835108]","[1,1,1]","[-0.09824453179508184,-0.1165809321920867]","[-1,-1,-1]","[-0.08910794122050969,0.002995761766784726]","[-1,-1,-1]","[0.1202378791710132,-0.08472525837561977]","[-1,-1,-1]","[0.04091300724433313,0.0827080842283552]","[1,1,1]","[0.14095332470340816,0.034463915279756105]","[-1,-1,-1]","[-0.022338578795889616,0.07796151854846384]","[-1,-1,-1]","[-0.15473435779875372,-0.01837617909821004]","[-1,-1,-1]","[-0.003197726920185453,-0.10254061725884592]","[-1,-1,-1]","[0.07705922979448276,-0.05004078852118792]","[-1,-1,-1]","[-0.10065329591865345,-0.03808862032134858]","[1,1,1]","[0.023175812857415386,-0.02174073447451391]","[1,1,1]","[0.1431791886971423,-0.13591769679501822]","[-1,-1,-1]","[0.014467822328584064,0.047658481345878474]","[1,1,1]","[-0.08361701294773029,0.060162494380694306]","[1,1,1]","[0.021440461229364105,-0.19669018943455616]","[-1,-1,-1]","[-0.015824230359525727,-0.04529314291596023]","[1,1,1]","[-0.09515686057234121,0.10669387000572578]","[1,1,1]","[0.1667125706984195,-0.07911423380207357]","[1,1,1]","[0.16827426558419625,0.0898312664847171]","[-1,-1,-1]","[0.019656617328612472,0.18080361116985746]","[1,1,1]","[-0.05874059673251866,-0.14635675272287343]","[1,1,1]","[0.0956847150460635,0.04160748560594323]","[1,1,1]","[-0.1952047625962074,0.03772884967480858]","[-1,-1,-1]","[0.02,0.02]",240.004,0,31,31,114,1,,,,,,,
,,,,,,,573dbfc9cc30e7000dc57410,682f0fc0bf2047d27ea98c6e,2025-05-22_12h51.52.748,cuing_paradigm_dot,2024.1.5,Win32,58.13953488,682d573fa47f1360d1451895,,,,,,,,,,,240.0045,240.5034,,,240.754,241.3703,right,0.6006,,,,,,,,,0.45,,,,,,240.5034,240.7539,241.3704,"[0.15049638426416898,0.047482269818182286]","[1,1,1]","[-0.04772196741228608,0.1209924779025083]","[-1,-1,-1]","[0.03251216980370926,0.08729942975692734]","[1,1,1]","[0.1506038322564511,-0.03194645234911727]","[1,1,1]","[-0.0776380140487648,-0.05369664988282722]","[-1,-1,-1]","[0.06001830788048348,-0.06624371641740567]","[1,1,1]","[-0.008650002749505498,0.09313609052608]","[-1,-1,-1]","[-0.0804372352931034,0.02818916617636277]","[-1,-1,-1]","[0.014088963149097947,-0.12301619207825391]","[-1,-1,-1]","[-0.05457080445030991,-0.14241987840419817]","[-1,-1,-1]","[-0.15104339760884053,0.03398693719705119]","[1,1,1]","[-0.09972510671240502,0.13921050592769274]","[-1,-1,-1]","[-0.020237838923111786,-0.012819926205589291]","[-1,-1,-1]","[-0.10376199596186303,-0.16925879966909474]","[1,1,1]","[-0.061692289589735765,-0.09776947982005506]","[1,1,1]","[0.07186015023242703,-0.1341345277018735]","[-1,-1,-1]","[0.07197148985765102,0.059331235592354856]","[1,1,1]","[0.0010486754493770078,0.15650069569012665]","[1,1,1]","[-0.15836336720563807,-0.06489724809009072]","[-1,-1,-1]","[-0.12108881407378559,0.10302969880187797]","[-1,-1,-1]","[0.032688416571315285,0.04485606160126985]","[1,1,1]","[0.137517115671335,0.08985832953207619]","[-1,-1,-1]","[0.12595829444237444,-0.12074725703153191]","[-1,-1,-1]","[0.05315382983335595,0.12767363755856695]","[1,1,1]","[-0.06650089049589625,0.1821352651014732]","[-1,-1,-1]","[0.08439192933635802,0.17181044707835594]","[-1,-1,-1]","[-0.02004215424457594,-0.06950275357154893]","[-1,-1,-1]","[0.04844053413046588,-0.18061358497010904]","[-1,-1,-1]","[0.12325182436216439,0.1292199268493911]","[1,1,1]","[-0.12718711339327332,-0.11956628836232136]","[-1,-1,-1]","[-0.04208447869472631,0.055258725442664976]","[1,1,1]","[-0.009846114084961844,-0.18030340255656035]","[1,1,1]","[0.02,0.02]",242.47,0,32,32,79,1,,,,,,,
,,,,,,,573dbfc9cc30e7000dc57410,682f0fc0bf2047d27ea98c6e,2025-05-22_12h51.52.748,cuing_paradigm_dot,2024.1.5,Win32,58.13953488,682d573fa47f1360d1451895,,,,,,,,,,,242.4704,242.9698,,,243.2207,244.2703,right,1.0344,,,,,,,,,0.4,,,,,,242.9698,243.2207,244.2703,"[-0.020534714035694193,0.014295775682102458]","[-1,-1,-1]","[0.009501720906833837,-0.14337565978856837]","[-1,-1,-1]","[0.10956048206879757,-0.15612242165138115]","[-1,-1,-1]","[-0.014929969754033604,0.1774039094873231]","[1,1,1]","[0.06183011228020882,0.05436165793174602]","[1,1,1]","[0.05351309902196895,0.12505285954697318]","[-1,-1,-1]","[-0.08205728876249088,-0.17008754995887898]","[-1,-1,-1]","[0.05150916042269338,-0.0026541291137441975]","[1,1,1]","[0.0865718528289761,0.1520462359793942]","[-1,-1,-1]","[-0.07289617951671677,-0.06373886167885397]","[-1,-1,-1]","[-0.013013888824467084,-0.09653328901947979]","[1,1,1]","[-0.03573305034362833,-0.1852432157385275]","[1,1,1]","[-0.020342752373996915,-0.034951801241119754]","[1,1,1]","[-0.0780111280309032,0.1809108340336197]","[1,1,1]","[-0.15042776861101007,0.11375521298138852]","[-1,-1,-1]","[0.18871400879984981,0.014910700666478066]","[-1,-1,-1]","[-0.1814028752855447,0.029400491722661036]","[-1,-1,-1]","[-0.10997040041451803,-0.11163628155969166]","[-1,-1,-1]","[-0.10539928922859383,0.019748610165343523]","[-1,-1,-1]","[0.1469033992598438,-0.11198130624095957]","[-1,-1,-1]","[0.097920137577205,-0.0945403446520238]","[1,1,1]","[0.11036303379715602,0.06619700147735359]","[-1,-1,-1]","[0.02838284245829204,-0.07326618512969915]","[1,1,1]","[0.09019984767043047,-0.026279340382303763]","[1,1,1]","[-0.16127780945896847,-0.1163205493411847]","[-1,-1,-1]","[-0.12287522879269197,-0.07255196624479689]","[1,1,1]","[-0.05580845705670446,0.08163220174242004]","[-1,-1,-1]","[-0.10017187517304088,0.14677636122066384]","[-1,-1,-1]","[0.18345426550594954,-0.030710301749356936]","[-1,-1,-1]","[0.1291606009662527,0.0175751105213037]","[1,1,1]","[0.04974245223450681,-0.18471919841388673]","[1,1,1]","[-0.06730111972649028,-0.10393644228185006]","[-1,-1,-1]","[0.02,0.02]",245.37,0,33,33,40,1,,,,,,,
,,,,,,,573dbfc9cc30e7000dc57410,682f0fc0bf2047d27ea98c6e,2025-05-22_12h51.52.748,cuing_paradigm_dot,2024.1.5,Win32,58.13953488,682d573fa47f1360d1451895,,,,,,,,,,,245.3703,245.87,,,246.1203,246.9864,left,0.8513,,,,,,,,,0.55,,,,,,245.87,246.1202,246.9865,"[-0.07587587568345237,-0.11029819020025745]","[1,1,1]","[-0.004592011264731967,0.05631754667248611]","[1,1,1]","[-0.12490435531477721,0.12342545056062039]","[1,1,1]","[0.05334258487915994,0.1554091883758095]","[-1,-1,-1]","[0.11172120533128065,0.11759601156052812]","[-1,-1,-1]","[0.05869179599614099,-0.1016819699846059]","[-1,-1,-1]","[-0.12112676890777761,0.009915970503131765]","[-1,-1,-1]","[-0.09094621220140568,-0.020023090427607127]","[-1,-1,-1]","[0.10882272413506162,-0.07806637094109946]","[1,1,1]","[0.17043400547151394,-0.03827132074063143]","[-1,-1,-1]","[0.04058457312714339,-0.061899473698185055]","[1,1,1]","[0.09198502086601551,0.07640567813216899]","[1,1,1]","[0.1053883245844619,-0.16689137628155334]","[1,1,1]","[-0.0021599057428244614,0.14069488513261919]","[1,1,1]","[0.154225551161411,0.062253655066739674]","[1,1,1]","[-0.08564601193828082,0.16578440566695157]","[1,1,1]","[-0.06520310468768323,0.03548323913056584]","[-1,-1,-1]","[-0.04773950826012579,-0.030174923815480443]","[1,1,1]","[0.1083895964904706,-0.015743888601051675]","[-1,-1,-1]","[-0.17695041648453053,0.047543539487708626]","[1,1,1]","[-0.17651868749420177,-0.06723631569637559]","[1,1,1]","[0.00037106606134890607,-0.1129700052884395]","[-1,-1,-1]","[0.16093800506011233,0.008225220504860438]","[1,1,1]","[0.1625111141962795,0.10228088536475614]","[-1,-1,-1]","[-0.020570247721465273,-0.17747596375855737]","[-1,-1,-1]","[0.03639742190287749,0.007884073791816004]","[-1,-1,-1]","[-0.13637307560853093,-0.0699320146775705]","[1,1,1]","[0.04365379408283748,-0.1743890646859405]","[1,1,1]","[-0.00602215043486354,-0.07334722183357006]","[-1,-1,-1]","[-0.0930347961770825,-0.1604699838132551]","[1,1,1]","[-0.19006715099719138,-0.018636432833038608]","[-1,-1,-1]","[0.0840211431425337,0.01815282961633451]","[1,1,1]","[0.02,0.02]",248.0865,0,34,34,147,1,,,,,,,
,,,,,,,573dbfc9cc30e7000dc57410,682f0fc0bf2047d27ea98c6e,2025-05-22_12h51.52.748,cuing_paradigm_dot,2024.1.5,Win32,58.13953488,682d573fa47f1360d1451895,,,,,,,,,,,248.0869,248.5865,,,248.8365,249.3864,left,0.5334,,,,,,,,,0.9,,,,,,248.5865,248.8365,249.3864,"[0.16828498543673134,-0.02268386528353638]","[1,1,1]","[-0.19807570724791754,-0.007291772255375884]","[1,1,1]","[0.06082281071186748,-0.09274536467443759]","[1,1,1]","[-0.10261776118500035,0.03550874782512179]","[1,1,1]","[-0.05782729889666948,0.09961065637891348]","[1,1,1]","[0.1134190276007567,0.08438798512999912]","[1,1,1]","[0.05830940965245333,-0.009595551488652593]","[1,1,1]","[-0.05796734355031347,-0.016479509619388773]","[1,1,1]","[0.028468941852547638,-0.11658617775748847]","[-1,-1,-1]","[0.08885377611766516,-0.17414863361474278]","[1,1,1]","[-0.04298017525119232,-0.14108647792197673]","[-1,-1,-1]","[0.019404960449024636,0.06786506451487666]","[1,1,1]","[0.19633787271025357,0.01886103525562144]","[1,1,1]","[0.06409846778404502,0.1773205721798989]","[1,1,1]","[-0.059523182360001495,-0.10208915402803174]","[1,1,1]","[0.11758288626498549,-0.1355319551745868]","[1,1,1]","[0.035973271010404144,-0.1671044859654591]","[1,1,1]","[0.15200731844142232,0.038901521748789254]","[1,1,1]","[-0.03622496755106208,0.13403904495742847]","[1,1,1]","[0.06897810469632634,0.11846809628733034]","[1,1,1]","[-0.05311168376287565,0.17508495582581848]","[1,1,1]","[-0.12668968207388798,0.0031728832641461434]","[1,1,1]","[-0.06272910728408869,-0.18495413140213587]","[1,1,1]","[0.028691456010009,0.11941382272117756]","[1,1,1]","[-0.14442682910577548,0.13377547719093505]","[1,1,1]","[-0.12170492073501799,-0.04681794915697027]","[1,1,1]","[0.025158157861733314,-0.05130156379892463]","[-1,-1,-1]","[-0.08226435122259294,-0.14968833203621684]","[1,1,1]","[-0.17341393950780226,-0.08722220750776183]","[1,1,1]","[0.12500885069573128,0.005402069375625918]","[1,1,1]","[-0.017933916542048935,-0.0045142535415572905]","[1,1,1]","[-0.14729788561615703,0.08419556065558541]","[1,1,1]","[0.02,0.02]",250.4864,0,35,35,191,1,,,,,,,
,,,,,,,573dbfc9cc30e7000dc57410,682f0fc0bf2047d27ea98c6e,2025-05-22_12h51.52.748,cuing_paradigm_dot,2024.1.5,Win32,58.13953488,682d573fa47f1360d1451895,,,,,,,,,,,250.4869,250.9861,,,251.2365,251.6864,left,0.4346,,,,,,,,,0.9,,,,,,250.9862,251.2364,251.6865,"[0.10900724347385618,-0.044634392025170264]","[-1,-1,-1]","[0.057012108381343206,0.021155886106835557]","[1,1,1]","[0.021419197779349548,0.19721697600119834]","[1,1,1]","[-0.008119135052799818,0.04598029705345316]","[1,1,1]","[-0.029485985734595294,0.00927320236848212]","[1,1,1]","[0.15414756993692186,0.05837498697501089]","[1,1,1]","[-0.010342379513154051,-0.027528195609110222]","[1,1,1]","[-0.022938094554964962,0.19859223041079854]","[1,1,1]","[-0.1277957018083021,0.01934355549658945]","[1,1,1]","[-0.059717394766388106,-0.06548040287440471]","[1,1,1]","[-0.07068486400962262,0.05089982480188698]","[1,1,1]","[-0.18210374750767191,-0.07683289486341859]","[1,1,1]","[-0.07731609474855354,0.16076201146453437]","[1,1,1]","[-0.06163852686412628,-0.14071178795226566]","[1,1,1]","[-0.03224940014061317,0.13307875321672183]","[1,1,1]","[0.0026989634394276765,-0.09643052599485283]","[1,1,1]","[0.11805396523146851,0.023674213000791932]","[1,1,1]","[-0.149944441155897,0.10845208393169607]","[1,1,1]","[0.17896829051064103,-0.032451951058824695]","[1,1,1]","[0.05424991432775408,-0.11544991358312677]","[1,1,1]","[0.07424585571459331,0.10581188486788401]","[1,1,1]","[0.06320840811939665,0.1604870009253285]","[-1,-1,-1]","[0.01919120227866834,-0.1561870792475548]","[1,1,1]","[-0.09994085638177064,-0.08404544724562026]","[1,1,1]","[0.1896851502746474,0.015862831301190625]","[-1,-1,-1]","[-0.1282496268834056,0.06255525598401308]","[1,1,1]","[0.047016621660974485,-0.06127313711161071]","[1,1,1]","[-0.14210269555813468,-0.13503683479739204]","[1,1,1]","[0.18075749025028104,-0.0770331168693959]","[1,1,1]","[-0.026264317445244045,-0.16709806825699625]","[1,1,1]","[0.10607838987767412,-0.08990349232564314]","[1,1,1]","[-0.1510960506122259,-0.020757612652965586]","[1,1,1]","[0.02,0.02]",252.7862,0,36,36,201,1,,,,,,,
,,,,,,,573dbfc9cc30e7000dc57410,682f0fc0bf2047d27ea98c6e,2025-05-22_12h51.52.748,cuing_paradigm_dot,2024.1.5,Win32,58.13953488,682d573fa47f1360d1451895,,,,,,,,,,,252.7866,253.2864,,,253.5366,253.8869,right,0.3363,,,,,,,,,0.1,,,,,,253.2865,253.5365,253.887,"[-0.048050636922998956,0.04648274921179045]","[-1,-1,-1]","[-0.13706863133877034,0.023315597014727837]","[1,1,1]","[-0.09912980154036069,0.16711752185438725]","[-1,-1,-1]","[0.01261935106137361,-0.15913009224066502]","[-1,-1,-1]","[0.08301649335916646,-0.12092177777171556]","[-1,-1,-1]","[0.13909812616252554,-0.07432255448633059]","[-1,-1,-1]","[-0.10612760705765695,-0.043576216309077036]","[-1,-1,-1]","[0.06675736842644521,0.12135845092699159]","[-1,-1,-1]","[0.11836637702056915,0.03095560192027057]","[-1,-1,-1]","[-0.163104266402315,0.10960189845580656]","[-1,-1,-1]","[0.1212101780712518,-0.03695009518381823]","[-1,-1,-1]","[0.05706706672013856,-0.17643095008069945]","[-1,-1,-1]","[-0.1549112432903537,-0.03311675108846654]","[-1,-1,-1]","[-0.04768842554903232,0.14766915921589177]","[-1,-1,-1]","[-0.08363533190478922,0.10057716433864142]","[-1,-1,-1]","[0.19242166672620006,0.03662622001285636]","[-1,-1,-1]","[0.15651248745794968,-0.00617958598123034]","[-1,-1,-1]","[-0.08942683493381724,0.011048440204624612]","[-1,-1,-1]","[0.04976790557901767,0.03690071597128461]","[-1,-1,-1]","[0.047627454507030285,-0.05726456835326272]","[-1,-1,-1]","[0.16550190419864266,-0.11021158581006847]","[-1,-1,-1]","[0.07437569170891917,-0.01366259482142689]","[1,1,1]","[-0.04125943040251702,-0.05464932603211037]","[-1,-1,-1]","[-0.10341745038853926,-0.08527868785107572]","[-1,-1,-1]","[0.00039847223266621586,-0.07716189454758265]","[-1,-1,-1]","[0.07059951808409906,0.1655829088667466]","[1,1,1]","[0.010447928772949184,0.08584846634721725]","[-1,-1,-1]","[-0.05629152303386446,-0.11594436807172118]","[-1,-1,-1]","[0.11266285409974659,0.09863025210293365]","[-1,-1,-1]","[-0.028145671841391776,-0.1489006936226702]","[-1,-1,-1]","[0.02078829291906704,0.0035912928037761045]","[-1,-1,-1]","[-0.05470874925411751,-0.18197909638673743]","[-1,-1,-1]","[0.02,0.02]",254.9863,0,37,37,6,1,,,,,,,
,,,,,,,573dbfc9cc30e7000dc57410,682f0fc0bf2047d27ea98c6e,2025-05-22_12h51.52.748,cuing_paradigm_dot,2024.1.5,Win32,58.13953488,682d573fa47f1360d1451895,,,,,,,,,,,254.9867,255.4857,,,255.7363,256.1536,right,0.408,,,,,,,,,0.1,,,,,,255.4859,255.7363,256.1536,"[-0.005596510567188529,-0.12354105260088379]","[-1,-1,-1]","[0.12352315259029245,-0.06443683109742943]","[1,1,1]","[-0.10491026725953924,-0.16365951396099931]","[-1,-1,-1]","[-0.11211445162363617,0.10973132372854176]","[-1,-1,-1]","[-0.028332753376827193,-0.011400627355923478]","[-1,-1,-1]","[0.09452445668562051,0.006569166880039788]","[-1,-1,-1]","[0.14469048226009545,-0.13384191932960957]","[-1,-1,-1]","[0.09190894686599548,0.06820655614681322]","[-1,-1,-1]","[0.18954093344776854,0.050926702622622826]","[-1,-1,-1]","[-0.018512733204029828,0.17065728505248387]","[-1,-1,-1]","[0.011880812714004348,-0.02191462627504099]","[-1,-1,-1]","[-0.07023049579902618,0.13352086747660888]","[-1,-1,-1]","[0.03397463881605446,0.11509966517664029]","[-1,-1,-1]","[0.0014024106661164855,0.02480512250600736]","[-1,-1,-1]","[-0.0012131719098677303,0.09362251180929752]","[-1,-1,-1]","[0.15403663645444207,0.07200177945691803]","[1,1,1]","[0.18131162845121912,-0.022072443744480558]","[-1,-1,-1]","[-0.14621584021142278,-0.13347883620016673]","[-1,-1,-1]","[-0.009682495419882938,-0.17321272974080718]","[-1,-1,-1]","[-0.14750673228902605,0.0744668126971685]","[-1,-1,-1]","[-0.06996894301725193,-0.04942019359297241]","[-1,-1,-1]","[-0.08143230198888553,0.025250704789825048]","[-1,-1,-1]","[0.07740437240157874,0.133723527523557]","[-1,-1,-1]","[0.07545356914978459,-0.1132049237757559]","[1,1,1]","[0.03671333047597071,0.1643766101148512]","[-1,-1,-1]","[-0.18061789704214629,-0.011734033521394084]","[-1,-1,-1]","[-0.05031452736554255,-0.13285258855634335]","[-1,-1,-1]","[-0.03189257283928514,-0.0694804373447414]","[-1,-1,-1]","[-0.11106539758929086,-0.10104187564204584]","[-1,-1,-1]","[-0.13532240722451108,-0.02772994205140488]","[-1,-1,-1]","[0.11082280528736624,0.16266272525868825]","[-1,-1,-1]","[0.08749675441800984,-0.15219111065389415]","[-1,-1,-1]","[0.02,0.02]",257.2529,0,38,38,11,1,,,,,,,
,,,,,,,573dbfc9cc30e7000dc57410,682f0fc0bf2047d27ea98c6e,2025-05-22_12h51.52.748,cuing_paradigm_dot,2024.1.5,Win32,58.13953488,682d573fa47f1360d1451895,,,,,,,,,,,257.2533,257.7525,,,258.003,258.9692,right,0.951,,,,,,,,,0.5,,,,,,257.7526,258.003,258.9693,"[-0.00017452247508418462,-0.1997204890822163]","[-1,-1,-1]","[0.027001037450594425,0.10989767121806271]","[1,1,1]","[0.08037697069714528,0.06341895764274982]","[-1,-1,-1]","[0.13957036794360314,-0.10981281489622616]","[1,1,1]","[0.154011718672533,0.08548512635589192]","[-1,-1,-1]","[0.07942019988242373,-0.05358499048921909]","[1,1,1]","[0.11129002653122667,0.12238288356349308]","[-1,-1,-1]","[0.05254281558495891,-0.11804615403867491]","[1,1,1]","[-0.15676643918036512,0.09697003467352683]","[1,1,1]","[-0.012362476710502768,0.013471563420585718]","[1,1,1]","[-0.03263861035607046,0.10147785842650649]","[-1,-1,-1]","[0.036187586976505946,0.15826944993821204]","[-1,-1,-1]","[0.17201632086609928,-0.02139200388086972]","[-1,-1,-1]","[0.09483063105497967,-0.11647596133222761]","[1,1,1]","[-0.05169915047145149,-0.08585905642330544]","[1,1,1]","[-0.11904735655555941,0.11629853877003737]","[-1,-1,-1]","[-0.04565680782661454,0.05353688168148009]","[1,1,1]","[-0.17395079646518252,-0.0355048348937799]","[-1,-1,-1]","[-0.07381960290217748,-0.04631842833732201]","[-1,-1,-1]","[0.0047451971124221285,-0.14910807887480398]","[-1,-1,-1]","[-0.05174600018167358,-0.1824460446931775]","[1,1,1]","[-0.11906223716363575,0.031483965106366724]","[-1,-1,-1]","[-0.19762058820958994,0.014022964678246161]","[-1,-1,-1]","[-0.07880762375019944,0.11338060371700938]","[1,1,1]","[-0.08190111643417793,0.16598877494957529]","[-1,-1,-1]","[0.0751400003027902,0.01303301958248636]","[1,1,1]","[0.018665530857125842,-0.03059070299152521]","[1,1,1]","[-0.005990139959548243,-0.09793687843300357]","[1,1,1]","[-0.11911927750782715,-0.10310190850436067]","[1,1,1]","[-0.033336074509052606,-0.02099141542778805]","[1,1,1]","[-0.017947758413664947,0.17972572362876804]","[-1,-1,-1]","[-0.07524116069775845,0.01680499811330247]","[-1,-1,-1]","[0.02,0.02]",260.0692,0,39,39,117,1,,,,,,,
,,,,,,,573dbfc9cc30e7000dc57410,682f0fc0bf2047d27ea98c6e,2025-05-22_12h51.52.748,cuing_paradigm_dot,2024.1.5,Win32,58.13953488,682d573fa47f1360d1451895,,,,,,,,,,,260.0696,260.569,,,260.8196,261.3695,left,0.5396,,,,,,,,,0.55,,,,,,260.569,260.8195,261.3695,"[0.004868778387082865,-0.07701259781059315]","[1,1,1]","[-0.1717313931661558,-0.03376099310598476]","[1,1,1]","[0.13798285625904896,-0.07880940627458223]","[1,1,1]","[-0.1351951001510016,-0.10229312275409154]","[1,1,1]","[-0.02150937620344243,0.006034081744432951]","[1,1,1]","[0.055751393451894525,-0.1381626019887668]","[1,1,1]","[0.09970350023333628,0.021241960811483152]","[1,1,1]","[0.03374915582321224,0.056619387063651674]","[-1,-1,-1]","[0.024680838021485733,-0.19523142930312323]","[1,1,1]","[-0.032197686688407404,0.08429420729735423]","[-1,-1,-1]","[-0.11116734404348728,-0.02072977225084369]","[-1,-1,-1]","[0.01976387913635853,0.1934033043255188]","[1,1,1]","[-0.10298361672684814,0.07983620376477407]","[1,1,1]","[0.15655816915425366,0.006753770309228752]","[-1,-1,-1]","[0.0488353051925915,0.0012128963159663557]","[-1,-1,-1]","[0.03534138526290581,-0.043246009192487896]","[-1,-1,-1]","[-0.12810283854280866,0.037341454687705236]","[-1,-1,-1]","[-0.15962620163126445,0.08243299811309615]","[-1,-1,-1]","[-0.09144396597902084,0.01974749138959596]","[-1,-1,-1]","[0.13453559044312702,0.13241141811994864]","[1,1,1]","[-0.16890600482172421,0.01685094499890476]","[1,1,1]","[0.125194673975373,0.06949996443058912]","[-1,-1,-1]","[0.18384674843539253,0.06463822002655457]","[-1,-1,-1]","[0.19570368857821704,-0.03474413585839196]","[1,1,1]","[-0.05136829358348349,-0.08769109307841738]","[-1,-1,-1]","[0.010511493484587839,0.12722084197383796]","[1,1,1]","[-0.04299043761140557,-0.1592555133808606]","[1,1,1]","[0.14031312190353196,-0.14049862932676907]","[-1,-1,-1]","[0.05680114234739471,0.13978293777618922]","[1,1,1]","[0.01346607267028496,-0.1407640998194957]","[1,1,1]","[0.09201052381738285,-0.051914033667621456]","[-1,-1,-1]","[-0.06368922466343013,0.1707127529019795]","[1,1,1]","[0.02,0.02]",262.4692,0,40,40,136,1,,,,,,,
,,,,,,,573dbfc9cc30e7000dc57410,682f0fc0bf2047d27ea98c6e,2025-05-22_12h51.52.748,cuing_paradigm_dot,2024.1.5,Win32,58.13953488,682d573fa47f1360d1451895,,,,,,,,,,,262.4696,262.9696,,,263.2197,263.9361,left,0.7017,,,,,,,,,0.6,,,,,,262.9696,263.2197,263.9361,"[0.03979359840747098,0.1257605753188453]","[-1,-1,-1]","[0.05641889059933721,-0.1505629523951856]","[1,1,1]","[0.025811776499212662,0.0632834792211594]","[1,1,1]","[0.09535748986467775,-0.008449413002590802]","[-1,-1,-1]","[-0.11020051247585473,-0.02529891842392749]","[1,1,1]","[-0.010476172308957386,0.1824781672502476]","[1,1,1]","[0.0014760146435874731,-0.020599994297273286]","[1,1,1]","[-0.11505170636234824,0.05096924400569609]","[1,1,1]","[-0.033649746944054613,-0.19535710274493243]","[-1,-1,-1]","[0.10363534630635485,0.03122191240075687]","[1,1,1]","[-0.06659659284257685,-0.10581425265040523]","[1,1,1]","[-0.020443174456943235,-0.1407846986225189]","[1,1,1]","[0.14574496621025998,-0.12382690117053818]","[-1,-1,-1]","[0.06578511281454338,0.16100107156772903]","[-1,-1,-1]","[0.13103172677440414,-0.03448396376469853]","[1,1,1]","[-0.06164482146687493,-0.01403589407400664]","[1,1,1]","[0.06505008976339557,0.07309137587719239]","[-1,-1,-1]","[-0.11484883916031692,-0.1029248078396263]","[-1,-1,-1]","[0.18038848561227444,-0.0844044431201925]","[-1,-1,-1]","[0.0822493080826888,-0.07481660028074956]","[-1,-1,-1]","[-0.08210455487541446,0.13093341223978971]","[1,1,1]","[0.13094216177890178,-0.07806263607666496]","[1,1,1]","[0.16384089297248974,0.07706645203064987]","[1,1,1]","[-0.16328966630217695,0.11317366551640717]","[1,1,1]","[-0.03516957015395527,-0.05369012320235741]","[-1,-1,-1]","[0.1652504046040295,0.029278155621809476]","[1,1,1]","[0.18406425870724677,-0.008601040446387855]","[1,1,1]","[-0.07851695057271547,-0.17357859845975548]","[-1,-1,-1]","[0.0035324342901456537,0.14373439723762094]","[-1,-1,-1]","[-0.15963918781422326,0.05167899524470942]","[1,1,1]","[0.14920927127086725,0.12412016595592923]","[1,1,1]","[0.10361055264696666,-0.14156206100526678]","[-1,-1,-1]","[0.02,0.02]",265.0359,0,41,41,165,1,,,,,,,
,,,,,,,573dbfc9cc30e7000dc57410,682f0fc0bf2047d27ea98c6e,2025-05-22_12h51.52.748,cuing_paradigm_dot,2024.1.5,Win32,58.13953488,682d573fa47f1360d1451895,,,,,,,,,,,265.0363,265.536,,,265.7852,266.1525,right,0.3508,,,,,,,,,0.1,,,,,,265.536,265.7852,266.1526,"[-0.09847694329957143,-0.17246223896728924]","[-1,-1,-1]","[-0.03714974470402769,-0.04809203795361741]","[-1,-1,-1]","[0.016092636217599533,0.13131423827852945]","[-1,-1,-1]","[-0.1415550842268454,-0.10960156562197074]","[-1,-1,-1]","[0.14187200195888539,0.13352044070548058]","[-1,-1,-1]","[-0.0726615157941362,-0.017091843308964846]","[-1,-1,-1]","[-0.10469384151778478,-0.0904906850734274]","[-1,-1,-1]","[-0.13632832446733306,0.0494762035941933]","[1,1,1]","[0.01205263475640233,-0.19268513102130086]","[-1,-1,-1]","[0.17971875368603793,0.012664364284114191]","[1,1,1]","[0.02572532792298695,0.040865892174612284]","[-1,-1,-1]","[0.06049456195042847,-0.03722816850770412]","[-1,-1,-1]","[0.16518952493919592,-0.04442578548635191]","[-1,-1,-1]","[-0.09152049946911009,0.13476371533111708]","[1,1,1]","[0.07316402731552113,0.06092328008622725]","[-1,-1,-1]","[0.1154402416128358,-0.02681532121479652]","[-1,-1,-1]","[-0.17612345476602134,-0.0299776367015258]","[-1,-1,-1]","[-0.029690224547904414,0.07832601231554488]","[-1,-1,-1]","[-0.11747877908227204,-0.005533106357558248]","[-1,-1,-1]","[-0.07748569283596667,0.17296238145787396]","[-1,-1,-1]","[-0.030015188546460573,0.0019112120434611568]","[-1,-1,-1]","[-0.0950829278238996,0.06577692960954212]","[-1,-1,-1]","[-0.13054296694359938,0.10697741785414122]","[-1,-1,-1]","[-0.01200467686720591,0.18182066010060027]","[-1,-1,-1]","[-0.03614151603660482,-0.15089490770026512]","[-1,-1,-1]","[0.05367374424052021,-0.1435706437541406]","[-1,-1,-1]","[-0.014789025818652747,-0.09324172965011263]","[-1,-1,-1]","[0.0295248231885147,-0.08834655464416902]","[-1,-1,-1]","[-0.026880488169938432,0.14465220830751913]","[-1,-1,-1]","[0.09451034800015676,-0.06560059070966141]","[-1,-1,-1]","[-0.059677933965183436,-0.11349758015437822]","[-1,-1,-1]","[-0.18631705004499174,0.009410812002749328]","[-1,-1,-1]","[0.02,0.02]",267.2521,0,42,42,23,1,,,,,,,
,,,,,,,573dbfc9cc30e7000dc57410,682f0fc0bf2047d27ea98c6e,2025-05-22_12h51.52.748,cuing_paradigm_dot,2024.1.5,Win32,58.13953488,682d573fa47f1360d1451895,,,,,,,,,,,267.2525,267.7522,,,268.0023,268.6532,right,0.6427,,,,,,,,,0.5,,,,,,267.7522,268.0022,268.6532,"[0.10773926387840194,-0.052089407332864594]","[1,1,1]","[-0.029690163222162745,0.13595311990927622]","[-1,-1,-1]","[0.08033871817472307,0.13376583724953706]","[1,1,1]","[0.015459162940014991,0.02695230812806232]","[1,1,1]","[0.06333641969659225,-0.06942473829044338]","[-1,-1,-1]","[0.16309474646563135,0.0632042524587776]","[1,1,1]","[0.009506225003262345,0.19258521195142148]","[1,1,1]","[-0.03191982493152522,-0.07480932018389821]","[1,1,1]","[-0.16857282037905608,-0.07168042976214574]","[-1,-1,-1]","[-0.13471125028556546,-0.14043278772501336]","[-1,-1,-1]","[-0.10544858934714645,0.004428494319082569]","[1,1,1]","[0.021090600195299156,-0.10714079292969851]","[1,1,1]","[-0.18035560979512277,-0.016846582265803652]","[-1,-1,-1]","[0.1151374008845486,0.019866036885449963]","[1,1,1]","[-0.10206699480121532,0.13855816330097553]","[-1,-1,-1]","[-0.07467279777306264,-0.07592254097632437]","[-1,-1,-1]","[-0.006976099526206305,-0.14087652742127782]","[-1,-1,-1]","[0.10923029184719349,-0.10593587099121733]","[1,1,1]","[-0.08765454478719967,0.05721411958714723]","[-1,-1,-1]","[-0.07806904246771099,-0.1660790454451303]","[1,1,1]","[0.09828238439182549,-0.17043892943165107]","[1,1,1]","[-0.1313365246269411,0.057909933426205804]","[1,1,1]","[0.18191163785852033,-0.05669045564886872]","[1,1,1]","[0.023985924347249138,0.14205239243077114]","[-1,-1,-1]","[0.028159038573034242,-0.011419507144507011]","[-1,-1,-1]","[0.051982508632117654,0.10430503101705438]","[-1,-1,-1]","[-0.02574999137319439,-0.02296908160440491]","[-1,-1,-1]","[-0.05668158268907619,0.0130342158693108]","[1,1,1]","[-0.0225997562981141,0.04594423821019947]","[-1,-1,-1]","[-0.15360540518116392,0.09551833909094697]","[1,1,1]","[0.14764781706953903,-0.030745148693063183]","[-1,-1,-1]","[0.06685751812516448,-0.11150000829601747]","[-1,-1,-1]","[0.02,0.02]",269.7528,0,43,43,105,1,,,,,,,
,,,,,,,573dbfc9cc30e7000dc57410,682f0fc0bf2047d27ea98c6e,2025-05-22_12h51.52.748,cuing_paradigm_dot,2024.1.5,Win32,58.13953488,682d573fa47f1360d1451895,,,,,,,,,,,269.7534,270.2524,,,270.5028,271.3527,right,0.8365,,,,,,,,,0.5,,,,,,270.2524,270.5028,271.3527,"[0.013300420432140135,0.13074743184449567]","[-1,-1,-1]","[0.13117192855509552,0.13257072647741427]","[1,1,1]","[-0.011147543159983732,-0.17475666295337602]","[-1,-1,-1]","[0.13332466193624135,0.07497435109863353]","[1,1,1]","[0.07746976786789976,0.14975615095886927]","[-1,-1,-1]","[0.012694570880210355,-0.11960811267988199]","[1,1,1]","[-0.07400941849938623,-0.17456840306269936]","[1,1,1]","[0.1505528923799573,-0.01621560885847232]","[1,1,1]","[0.10293391718127577,-0.11090102960937959]","[-1,-1,-1]","[-0.17618286006512038,0.009917955898560463]","[1,1,1]","[-0.004129389876358365,-0.05890548042947945]","[-1,-1,-1]","[-0.15280011923389328,0.05000574452384451]","[-1,-1,-1]","[-0.03571695642124715,0.085013341138535]","[-1,-1,-1]","[-0.04746874141321176,0.12812140306480943]","[1,1,1]","[-0.04204658212907214,0.033523677100205033]","[1,1,1]","[0.011983382787344813,0.039634729486319784]","[1,1,1]","[0.16212829279291438,0.044344161429277544]","[1,1,1]","[-0.11431770979465448,-0.08801174402283081]","[-1,-1,-1]","[0.06851928773569244,-0.029518760489835916]","[-1,-1,-1]","[-0.06412901153316129,-0.12416948238303728]","[1,1,1]","[0.16996144903425986,-0.0773424392483424]","[-1,-1,-1]","[0.10998677393310115,-0.07099558138721161]","[-1,-1,-1]","[-0.13385592815897598,-0.04045247626627531]","[-1,-1,-1]","[-0.0012396614410933957,-0.012984000896893173]","[-1,-1,-1]","[-0.17299011581366255,-0.05559551523670005]","[1,1,1]","[0.09421250503716568,0.05283141734741001]","[-1,-1,-1]","[-0.1669485941533827,0.09050105732897618]","[1,1,1]","[-0.08331365654872812,0.07914696041048527]","[-1,-1,-1]","[-0.09412080787277306,-0.014431741336460224]","[1,1,1]","[-0.11860064352522996,-0.15238172097093824]","[-1,-1,-1]","[-0.019506814455849737,0.1648380635975736]","[1,1,1]","[-0.12314496644675771,0.12726634079805538]","[1,1,1]","[0.02,0.02]",272.4521,0,44,44,96,1,,,,,,,
