right,left,explain.started,explain.stopped,key_resp_3.keys,key_resp_3.rt,key_resp_3.duration,participant,session,date,expName,psychopyVersion,OS,frameRate,study_id,explain_2.started,explain_2.stopped,key_resp_4.keys,key_resp_4.rt,key_resp_4.duration,explain_3.started,explain_3.stopped,key_resp_5.keys,key_resp_5.rt,key_resp_5.duration,fixation.started,fixation.stopped,practice.started,practice.stopped,response.started,response.stopped,key_resp.keys,key_resp.rt,key_resp.duration,feedback.started,feedback.stopped,trials_2.thisRepN,trials_2.thisTrialN,trials_2.thisN,trials_2.thisIndex,trials_2.ran,white_ratio,explain_4.started,explain_4.stopped,key_resp_6.keys,key_resp_6.rt,key_resp_6.duration,dotDisplay.started,dotDisplay.stopped,ITI.started,polygon_1.pos,polygon_1.color,polygon_2.pos,polygon_2.color,polygon_3.pos,polygon_3.color,polygon_4.pos,polygon_4.color,polygon_5.pos,polygon_5.color,polygon_6.pos,polygon_6.color,polygon_7.pos,polygon_7.color,polygon_8.pos,polygon_8.color,polygon_9.pos,polygon_9.color,polygon_10.pos,polygon_10.color,polygon_11.pos,polygon_11.color,polygon_12.pos,polygon_12.color,polygon_13.pos,polygon_13.color,polygon_14.pos,polygon_14.color,polygon_15.pos,polygon_15.color,polygon_16.pos,polygon_16.color,polygon_17.pos,polygon_17.color,polygon_18.pos,polygon_18.color,polygon_19.pos,polygon_19.color,polygon_20.pos,polygon_20.color,polygon_21.pos,polygon_21.color,polygon_22.pos,polygon_22.color,polygon_23.pos,polygon_23.color,polygon_24.pos,polygon_24.color,polygon_25.pos,polygon_25.color,polygon_26.pos,polygon_26.color,polygon_27.pos,polygon_27.color,polygon_28.pos,polygon_28.color,polygon_29.pos,polygon_29.color,polygon_30.pos,polygon_30.color,polygon_31.pos,polygon_31.color,polygon_32.pos,polygon_32.color,dot_size,ITI.stopped,trials.thisRepN,trials.thisTrialN,trials.thisN,trials.thisIndex,trials.ran,break_2.started,break_2.stopped,trials_3.thisRepN,trials_3.thisTrialN,trials_3.thisN,trials_3.thisIndex,trials_3.ran
subject chose white,subject chose black,0.0004,18.9408,space,3.9272,,5997043dbbe84800017964a7,682db3ac53d3621bbd066ad5,2025-05-21_12h06.41.314,cuing_paradigm_dot,2024.1.5,Win32,59.88023952,682d556593cb38ad0a074487,,,,,,,,,,,,,,,,,,,,,,,,,,,,,,,,,,,,,,,,,,,,,,,,,,,,,,,,,,,,,,,,,,,,,,,,,,,,,,,,,,,,,,,,,,,,,,,,,,,,,,,,,,,,,,,,,
,,,,,,,5997043dbbe84800017964a7,682db3ac53d3621bbd066ad5,2025-05-21_12h06.41.314,cuing_paradigm_dot,2024.1.5,Win32,59.88023952,682d556593cb38ad0a074487,18.9415,49.9999,space,1.0396,,,,,,,,,,,,,,,,,,,,,,,,,,,,,,,,,,,,,,,,,,,,,,,,,,,,,,,,,,,,,,,,,,,,,,,,,,,,,,,,,,,,,,,,,,,,,,,,,,,,,,,,,,,,,
,,,,,,,5997043dbbe84800017964a7,682db3ac53d3621bbd066ad5,2025-05-21_12h06.41.314,cuing_paradigm_dot,2024.1.5,Win32,59.88023952,682d556593cb38ad0a074487,,,,,,50.0001,54.2114,space,1.1908,,,,,,,,,,,,,,,,,,,,,,,,,,,,,,,,,,,,,,,,,,,,,,,,,,,,,,,,,,,,,,,,,,,,,,,,,,,,,,,,,,,,,,,,,,,,,,,,,,,,,,,,
,,,,,,,5997043dbbe84800017964a7,682db3ac53d3621bbd066ad5,2025-05-21_12h06.41.314,cuing_paradigm_dot,2024.1.5,Win32,59.88023952,682d556593cb38ad0a074487,,,,,,,,,,,54.2451,54.7271,54.7277,54.9782,54.9786,56.1312,right,1.1268,,56.1314,57.2269,0,0,0,0,1,0.8,,,,,,,,,,,,,,,,,,,,,,,,,,,,,,,,,,,,,,,,,,,,,,,,,,,,,,,,,,,,,,,,,,,,,,,,,,,,,,,,,,,,,,
,,,,,,,5997043dbbe84800017964a7,682db3ac53d3621bbd066ad5,2025-05-21_12h06.41.314,cuing_paradigm_dot,2024.1.5,Win32,59.88023952,682d556593cb38ad0a074487,,,,,,,,,,,57.228,57.725,57.725,57.9639,57.9641,58.447,left,0.4664,,58.4473,59.543,0,1,1,1,1,0.2,,,,,,,,,,,,,,,,,,,,,,,,,,,,,,,,,,,,,,,,,,,,,,,,,,,,,,,,,,,,,,,,,,,,,,,,,,,,,,,,,,,,,,
,,,,,,,5997043dbbe84800017964a7,682db3ac53d3621bbd066ad5,2025-05-21_12h06.41.314,cuing_paradigm_dot,2024.1.5,Win32,59.88023952,682d556593cb38ad0a074487,,,,,,,,,,,,,,,,,,,,,,,,,,,,59.5439,63.5201,space,0.9658,,,,,,,,,,,,,,,,,,,,,,,,,,,,,,,,,,,,,,,,,,,,,,,,,,,,,,,,,,,,,,,,,,,,,,,,,,,,,,,,,,
,,,,,,,5997043dbbe84800017964a7,682db3ac53d3621bbd066ad5,2025-05-21_12h06.41.314,cuing_paradigm_dot,2024.1.5,Win32,59.88023952,682d556593cb38ad0a074487,,,,,,,,,,,63.5415,64.0215,,,64.267,64.7822,right,0.5062,,,,,,,,,0.4,,,,,,64.0223,64.267,64.7829,"[0.09592548411567714,-0.16853070027774544]","[1,1,1]","[0.0546544235435391,-0.07814811634084963]","[-1,-1,-1]","[-0.1494095123123606,0.0007359066846749591]","[1,1,1]","[0.04467849151296873,0.19343526197722716]","[-1,-1,-1]","[0.01866785608236992,0.09923571672808619]","[1,1,1]","[-0.18349480407011967,0.029327985533129687]","[1,1,1]","[-0.0030729196402716303,-0.027968869383782735]","[-1,-1,-1]","[-0.040859420754073054,0.17027690515430416]","[-1,-1,-1]","[0.10293626420718725,0.11298893768004874]","[1,1,1]","[0.1043155997638551,-0.03682040845238855]","[-1,-1,-1]","[-0.0860562768304876,0.01696555613656923]","[-1,-1,-1]","[-0.04125673031263204,-0.12901894192053606]","[1,1,1]","[0.019654066789969032,0.1483690928667673]","[-1,-1,-1]","[-0.06239025662780028,-0.037728561972109345]","[-1,-1,-1]","[-0.06241189757809391,0.08874672365859622]","[1,1,1]","[-0.05322155380309052,-0.08935068475785692]","[-1,-1,-1]","[-0.04294786731070454,0.001264201169738016]","[1,1,1]","[-0.08429424341003401,-0.15392539975600306]","[1,1,1]","[-0.11522822736138882,-0.10933095725196801]","[-1,-1,-1]","[-0.08241489124546737,0.14760133974477455]","[-1,-1,-1]","[-0.13076916416026974,0.07757915041015839]","[1,1,1]","[-0.1756613817877666,-0.09103943768840475]","[-1,-1,-1]","[0.043501196185823446,0.036185636444647784]","[1,1,1]","[0.05837943915167931,0.08462618478654259]","[-1,-1,-1]","[-0.015931113404608396,0.047983280841823836]","[-1,-1,-1]","[0.17431877656098646,-0.005036411561724364]","[-1,-1,-1]","[0.14704996089093156,-0.05589478295693704]","[-1,-1,-1]","[-0.01285098191426528,-0.17212246822466268]","[-1,-1,-1]","[0.1872089468656488,-0.05111384662132653]","[1,1,1]","[0.16413540929389955,0.07380992241572241]","[-1,-1,-1]","[0.03458655872920247,-0.12564972882290493]","[1,1,1]","[-0.009554512148349377,-0.10168784555690036]","[-1,-1,-1]","[0.02,0.02]",65.8808,0,0,0,47,1,,,,,,,
,,,,,,,5997043dbbe84800017964a7,682db3ac53d3621bbd066ad5,2025-05-21_12h06.41.314,cuing_paradigm_dot,2024.1.5,Win32,59.88023952,682d556593cb38ad0a074487,,,,,,,,,,,65.8817,66.3804,,,66.6304,66.8798,left,0.2348,,,,,,,,,0.1,,,,,,66.3805,66.6304,66.8799,"[0.11275743135837751,0.08453660890508315]","[-1,-1,-1]","[-0.04407963647825501,-0.18317154901510496]","[-1,-1,-1]","[-0.10314093253263255,-0.14354785103448814]","[-1,-1,-1]","[-0.06265386505378204,-0.06870777886381894]","[-1,-1,-1]","[-0.13691406566322814,-0.07566572552642116]","[-1,-1,-1]","[0.09738623092353682,0.03219576491890362]","[-1,-1,-1]","[-0.17759521158105823,-0.0885030614692769]","[-1,-1,-1]","[0.06927158886808579,0.1144112599600645]","[1,1,1]","[0.07445128029708513,-0.15570564019540056]","[-1,-1,-1]","[0.02516900259251662,-0.14583408337974443]","[-1,-1,-1]","[-0.19292043616316198,-0.04072936406471351]","[-1,-1,-1]","[0.014552046856361158,0.1746661950770176]","[-1,-1,-1]","[-0.02636419922235235,-0.0016621933094141614]","[-1,-1,-1]","[-0.0718085699282571,-0.005978890110896386]","[-1,-1,-1]","[0.17188753547227117,0.09644828200289601]","[-1,-1,-1]","[-0.002577155580970087,0.06989152396207518]","[-1,-1,-1]","[-0.030814742361586052,0.14212605350702176]","[-1,-1,-1]","[-0.10528661914059698,0.14319486740676154]","[-1,-1,-1]","[-0.07480545245033071,0.10437337995460368]","[1,1,1]","[-0.1240228980012418,0.09678608282078673]","[-1,-1,-1]","[0.11573560412788707,-0.05184858804347069]","[-1,-1,-1]","[0.1898598552371477,0.029487412517736795]","[-1,-1,-1]","[0.056657679740865066,0.06372709940549875]","[-1,-1,-1]","[-0.18200693517320307,0.00804458368717517]","[-1,-1,-1]","[0.008754667181967208,-0.048218716187031836]","[-1,-1,-1]","[0.016686490993040887,0.1149735057857533]","[-1,-1,-1]","[0.03132498709561597,-0.08134467698724522]","[-1,-1,-1]","[-0.14246405511809915,-0.13556498858658744]","[-1,-1,-1]","[-0.11768380525933728,0.03504502569587442]","[-1,-1,-1]","[-0.051091802111140186,0.04129224288858635]","[1,1,1]","[0.14843293336953467,-0.09560214650659965]","[-1,-1,-1]","[0.17929832247581276,-0.04971197587876191]","[-1,-1,-1]","[0.02,0.02]",67.9787,0,1,1,22,1,,,,,,,
,,,,,,,5997043dbbe84800017964a7,682db3ac53d3621bbd066ad5,2025-05-21_12h06.41.314,cuing_paradigm_dot,2024.1.5,Win32,59.88023952,682d556593cb38ad0a074487,,,,,,,,,,,67.9792,68.4775,,,68.7277,68.961,left,0.2254,,,,,,,,,0.1,,,,,,68.4775,68.7277,68.961,"[0.05130323412364919,-0.02548956083824533]","[-1,-1,-1]","[0.006736581784873019,-0.1017074848308099]","[-1,-1,-1]","[-0.1774115589905916,0.08391472735772479]","[-1,-1,-1]","[0.01574152827247593,0.09848631884215266]","[-1,-1,-1]","[0.02402944524046234,0.16337298308792078]","[-1,-1,-1]","[-0.09952436711867063,-0.02259322058294901]","[-1,-1,-1]","[-0.04082457388825687,0.15364027362505445]","[1,1,1]","[0.11449448402751085,-0.14550317985153105]","[-1,-1,-1]","[-0.019584504585599617,-0.15827349720531336]","[-1,-1,-1]","[-0.10210441149312811,0.031772980391606184]","[-1,-1,-1]","[0.04519402237539817,-0.13108973994746198]","[-1,-1,-1]","[-0.1280381469333296,-0.08109622912241429]","[-1,-1,-1]","[-0.022599675214725983,-0.05251597071557119]","[-1,-1,-1]","[0.08001563208496743,0.07248166623560394]","[1,1,1]","[-0.10036506416940622,-0.16733493463161517]","[-1,-1,-1]","[0.1486102355902488,0.05192905464185471]","[-1,-1,-1]","[0.10291326550395648,-0.06935522039658526]","[-1,-1,-1]","[-0.10077995557699183,0.08382316197874644]","[-1,-1,-1]","[-0.1427000382889527,-0.13618204396814132]","[-1,-1,-1]","[-0.06361556963630496,-0.15099254215958502]","[-1,-1,-1]","[-0.08071866449541658,-0.09104817811614017]","[-1,-1,-1]","[0.07685112269497496,0.14585310624245412]","[1,1,1]","[-0.13166311212075987,0.004468087022971325]","[-1,-1,-1]","[0.15506247353224584,-0.06012671684052725]","[-1,-1,-1]","[-0.11476204342380124,0.15681411430178566]","[-1,-1,-1]","[0.013258833790978974,0.03486734278468308]","[-1,-1,-1]","[0.08793422184028492,0.0014164451572001159]","[-1,-1,-1]","[0.010418402085523021,-0.026538124708191925]","[-1,-1,-1]","[-0.13027307329209578,0.11732227453986767]","[-1,-1,-1]","[0.18737375497408731,-0.012145395579065727]","[-1,-1,-1]","[-0.19617124208129014,0.014317011243322412]","[-1,-1,-1]","[0.17278923724901446,0.08842853511035378]","[-1,-1,-1]","[0.02,0.02]",70.0592,0,2,2,17,1,,,,,,,
,,,,,,,5997043dbbe84800017964a7,682db3ac53d3621bbd066ad5,2025-05-21_12h06.41.314,cuing_paradigm_dot,2024.1.5,Win32,59.88023952,682d556593cb38ad0a074487,,,,,,,,,,,70.0598,70.5589,,,70.8094,71.3914,right,0.5662,,,,,,,,,0.55,,,,,,70.559,70.8093,71.3915,"[0.18564467944881463,0.013005383300856719]","[-1,-1,-1]","[0.08233103699995405,-0.02951008814240406]","[1,1,1]","[0.15366890559584692,0.08756121826726052]","[-1,-1,-1]","[-0.12378930801389906,-0.13758727262825002]","[-1,-1,-1]","[-0.058122346097963656,0.07333532077635131]","[-1,-1,-1]","[0.00301946734568516,0.0977493052019577]","[1,1,1]","[0.004790480079150137,-0.19206939101601908]","[1,1,1]","[-0.14734927290156277,0.06728421150608066]","[1,1,1]","[-0.04011368389873339,0.11665208348321021]","[-1,-1,-1]","[0.12117793684236612,0.0024189159065407875]","[-1,-1,-1]","[0.02959677673339156,-0.06704179558994465]","[1,1,1]","[-0.0818206213444563,-0.17283423407759124]","[-1,-1,-1]","[-0.011897831019807818,-0.04649393148972188]","[-1,-1,-1]","[-0.04881257948523564,0.18933878834670528]","[1,1,1]","[0.07410855797300006,0.16562097091949793]","[-1,-1,-1]","[-0.07413440493758591,-0.10777422916543454]","[1,1,1]","[0.09494364056172822,-0.16962939223713172]","[1,1,1]","[0.12518869410329,0.12267174900885122]","[-1,-1,-1]","[-0.08957233923776581,-0.005109991454446843]","[1,1,1]","[-0.031195311448896527,-0.14210180962479108]","[-1,-1,-1]","[0.05850410341988948,0.07695134393167714]","[1,1,1]","[-0.09152967178121584,0.1110855103118767]","[1,1,1]","[-0.17328441895778351,0.03434613399041439]","[1,1,1]","[0.033329235717975976,-0.15020216914420362]","[-1,-1,-1]","[0.10817911021868087,-0.08869517782123938]","[1,1,1]","[-0.129236174181357,-0.07572025902354415]","[1,1,1]","[0.01330563550569295,0.005032734171822067]","[-1,-1,-1]","[0.03445979463954529,0.1824519317615015]","[1,1,1]","[-0.08620445076092079,-0.048736512016013284]","[-1,-1,-1]","[0.17939274060257032,-0.07430587928969996]","[1,1,1]","[-0.011326715787386933,-0.09941802593772836]","[1,1,1]","[-0.002422137372909699,0.04637647813754424]","[1,1,1]","[0.02,0.02]",72.4896,0,3,3,147,1,,,,,,,
,,,,,,,5997043dbbe84800017964a7,682db3ac53d3621bbd066ad5,2025-05-21_12h06.41.314,cuing_paradigm_dot,2024.1.5,Win32,59.88023952,682d556593cb38ad0a074487,,,,,,,,,,,72.4904,72.9893,,,73.2395,73.8053,right,0.553,,,,,,,,,0.9,,,,,,72.9894,73.2394,73.8055,"[-0.0376315068226701,-0.14922623696102016]","[1,1,1]","[0.024394588989958322,0.13140691607737645]","[-1,-1,-1]","[-0.15634341050733466,0.09780698804029152]","[1,1,1]","[0.019503500495916797,0.18223636923832923]","[1,1,1]","[0.027068764910837283,-0.054019085317931564]","[1,1,1]","[-0.012073846101701662,0.10894513752280716]","[1,1,1]","[-0.06465388441668357,0.0037729761834348397]","[1,1,1]","[-0.10806457338664455,-0.16819417916768514]","[-1,-1,-1]","[0.1696729423621408,0.018406734759196235]","[1,1,1]","[-0.05819940180567407,0.08859450236324798]","[1,1,1]","[-0.12810131184713,-0.03478282880414553]","[-1,-1,-1]","[-0.0034063598266169315,-0.015372959602165842]","[1,1,1]","[-0.011474162440243286,-0.19290425689580762]","[1,1,1]","[0.14205163129074794,0.08677676671844424]","[1,1,1]","[-0.16649344896970747,-0.07433153861389169]","[1,1,1]","[0.04601778079752215,-0.016369428669028425]","[1,1,1]","[0.10074062545541894,0.14283177432396607]","[1,1,1]","[-0.12466327153892313,0.012543411088529462]","[1,1,1]","[0.12469965954189315,-0.1393861980606263]","[1,1,1]","[0.08773771241607524,0.049774722180522285]","[1,1,1]","[0.019875798310296712,0.057615262130272224]","[1,1,1]","[0.18747879002749196,0.05796002316312083]","[1,1,1]","[0.06749418966825627,-0.07337437292103204]","[1,1,1]","[-0.15939643935856948,-0.12051281063807312]","[1,1,1]","[0.10827967440801343,-0.052228653293072545]","[1,1,1]","[0.18995183034024793,-0.018528335428260552]","[1,1,1]","[0.15475590945335596,-0.05883828764569722]","[1,1,1]","[-0.10534345246553432,0.049022389887624175]","[1,1,1]","[0.12282366976813387,-0.0010721876485362055]","[1,1,1]","[-0.17085023331432483,0.04123253488399947]","[1,1,1]","[-0.07849726085536872,-0.056423576709887166]","[1,1,1]","[-0.02816121815061101,-0.06902994987414234]","[1,1,1]","[0.02,0.02]",74.9036,0,4,4,206,1,,,,,,,
,,,,,,,5997043dbbe84800017964a7,682db3ac53d3621bbd066ad5,2025-05-21_12h06.41.314,cuing_paradigm_dot,2024.1.5,Win32,59.88023952,682d556593cb38ad0a074487,,,,,,,,,,,74.9043,75.4031,,,75.6534,76.0858,left,0.424,,,,,,,,,0.45,,,,,,75.4031,75.6534,76.0858,"[-0.007616859376159365,0.011887090679758527]","[-1,-1,-1]","[0.03771729869569659,-0.13227371379823602]","[-1,-1,-1]","[-0.0369309588259972,0.09977889206528359]","[-1,-1,-1]","[0.00893824210620599,0.11459353887486644]","[-1,-1,-1]","[0.11946916317370249,-0.15701563341453922]","[1,1,1]","[-0.19269133355471835,0.007497275230767437]","[1,1,1]","[0.091065857970903,0.04449588172337525]","[-1,-1,-1]","[-0.1205644394168831,-0.027245773438694776]","[-1,-1,-1]","[-0.04664469373498851,-0.1330225009109801]","[1,1,1]","[0.03947793500456087,0.14607313728445734]","[1,1,1]","[0.06424172067305915,0.18145977493950532]","[-1,-1,-1]","[0.0790952762832708,-0.11314084959812329]","[-1,-1,-1]","[-0.10359752721917247,0.14030589399825044]","[-1,-1,-1]","[-0.12769412051755805,-0.1332844608626365]","[1,1,1]","[-0.1548888344142891,0.09530040502435486]","[-1,-1,-1]","[0.011219855873427649,-0.1980277336186124]","[-1,-1,-1]","[-0.0458685685274827,0.18054314908406058]","[-1,-1,-1]","[0.12384187372210861,-0.021975511616716244]","[-1,-1,-1]","[-0.07417563721378712,0.0578461560249284]","[1,1,1]","[0.1672155582611445,0.09128025863307548]","[1,1,1]","[0.09266678546992826,0.1453845088396707]","[1,1,1]","[-0.08386518041526281,-0.06393332288690567]","[-1,-1,-1]","[0.05209518916654488,-0.05701172668065783]","[-1,-1,-1]","[0.07776534524147832,0.09924923219778976]","[1,1,1]","[-0.09955097610224921,0.025992121649252454]","[1,1,1]","[0.164326948559706,-0.07594569393137109]","[1,1,1]","[0.010298236064894745,-0.07688841292007323]","[-1,-1,-1]","[0.053912686717100276,0.002314328834682023]","[1,1,1]","[-0.1373325854247133,0.04671350106049843]","[-1,-1,-1]","[-0.07775759812248743,-0.022904495639826238]","[-1,-1,-1]","[0.11959171790326655,0.1064867959481932]","[1,1,1]","[-0.12163568020734737,-0.0841253334206505]","[1,1,1]","[0.02,0.02]",77.1841,0,5,5,75,1,,,,,,,
,,,,,,,5997043dbbe84800017964a7,682db3ac53d3621bbd066ad5,2025-05-21_12h06.41.314,cuing_paradigm_dot,2024.1.5,Win32,59.88023952,682d556593cb38ad0a074487,,,,,,,,,,,77.1848,77.6836,,,77.9339,78.7159,left,0.7697,,,,,,,,,0.6,,,,,,77.6836,77.9338,78.716,"[0.08649750862833866,0.10877716836786143]","[-1,-1,-1]","[-0.12133166903590716,-0.05961089394051661]","[1,1,1]","[-0.05895548411644569,-0.1485020844430116]","[1,1,1]","[-0.020768254420128224,0.18367340754759764]","[-1,-1,-1]","[-0.16309180740060714,-0.023632779785372815]","[1,1,1]","[0.1499841028689737,0.08512709078383215]","[-1,-1,-1]","[0.037578120388856946,0.08897970423220233]","[-1,-1,-1]","[0.06112370617418578,0.18746336773443692]","[1,1,1]","[0.021536030642717603,-0.017357113498494416]","[1,1,1]","[-0.13444985110699018,0.12512409461037552]","[-1,-1,-1]","[0.12547980821504906,0.015287648404205222]","[1,1,1]","[0.056801929071962215,-0.04600897604283763]","[1,1,1]","[-0.018380151943335275,-0.06060566825875884]","[-1,-1,-1]","[0.13100322747483195,-0.04856952680435107]","[-1,-1,-1]","[-0.1444757749125417,0.07356995166559908]","[1,1,1]","[0.045048110639315915,-0.14163238945688644]","[1,1,1]","[-0.09116613061677506,0.13516607927403598]","[1,1,1]","[0.09098658777147818,0.1577446958851666]","[-1,-1,-1]","[-0.10407156644947396,-0.10993798036518515]","[1,1,1]","[0.05359109585288692,0.13527857356255021]","[1,1,1]","[-0.08003556224006346,0.08401202258572517]","[-1,-1,-1]","[-0.05190033457838942,-0.023590484157819978]","[-1,-1,-1]","[0.18333943099004968,0.03351364021954149]","[-1,-1,-1]","[-0.02522371888343012,0.13199542559241625]","[1,1,1]","[-0.0856941636240626,0.0083803181424316]","[1,1,1]","[0.00044387346523569677,-0.14210356820287487]","[1,1,1]","[-0.19733914474495154,0.018233919437683804]","[1,1,1]","[0.17222125435159935,-0.06911203635656762]","[1,1,1]","[-0.13446946153499487,-0.13849888043435996]","[-1,-1,-1]","[0.1656314581774755,-0.01325049051381177]","[-1,-1,-1]","[-0.009528731469892398,0.0723540546193958]","[1,1,1]","[0.13590964739386036,0.14035352410309532]","[1,1,1]","[0.02,0.02]",79.815,0,6,6,174,1,,,,,,,
,,,,,,,5997043dbbe84800017964a7,682db3ac53d3621bbd066ad5,2025-05-21_12h06.41.314,cuing_paradigm_dot,2024.1.5,Win32,59.88023952,682d556593cb38ad0a074487,,,,,,,,,,,79.8156,80.3145,,,80.5643,81.629,left,1.0533,,,,,,,,,0.5,,,,,,80.3145,80.5642,81.629,"[-0.08594147847765483,0.06594276428258251]","[-1,-1,-1]","[-0.02781563855156936,-0.14332940234780978]","[1,1,1]","[-0.15528207006102315,-0.11846350279894119]","[-1,-1,-1]","[-0.07590333607476721,-0.1734927103898376]","[1,1,1]","[0.07910784108008306,0.08241078905436855]","[1,1,1]","[-0.08540834256565921,0.16237712459962694]","[1,1,1]","[0.10139306203807413,0.03410137300667492]","[-1,-1,-1]","[-0.05742592301694346,-0.05469713072200149]","[-1,-1,-1]","[-0.027632807423450027,-0.18657387789599852]","[1,1,1]","[0.02968938824112464,-0.09569743457049663]","[-1,-1,-1]","[-0.13608619823629947,0.007231548054455037]","[1,1,1]","[-0.0011613354958375747,0.18622249268164306]","[1,1,1]","[-0.0421366797855216,0.08389212876655124]","[1,1,1]","[0.031363536170028974,-0.03822450421925271]","[1,1,1]","[0.04869798277058092,0.18135446591825372]","[-1,-1,-1]","[-0.10404644782078257,0.1212044964741004]","[1,1,1]","[-0.17236224133671882,0.07119099643142886]","[1,1,1]","[0.124388898706204,0.09065914731389552]","[-1,-1,-1]","[0.054529477041437895,-0.16424552698473885]","[-1,-1,-1]","[0.01488165274361358,0.13716074682547144]","[-1,-1,-1]","[-0.17047790350385048,-0.01971783217752688]","[-1,-1,-1]","[0.0037088425494752907,0.09655939860805995]","[1,1,1]","[-0.16766616068791299,-0.07773043216752487]","[-1,-1,-1]","[0.09106211701081673,-0.12058890874121703]","[-1,-1,-1]","[0.05591103567778216,0.030853842545571213]","[-1,-1,-1]","[-0.10464554756381188,-0.13314661429913638]","[1,1,1]","[0.06979969989032712,-0.04953806082960937]","[1,1,1]","[0.0012819159110151318,0.052766836819959036]","[1,1,1]","[0.17265609353173383,0.007452204696140548]","[1,1,1]","[-0.048276946069058975,0.0440348523913995]","[-1,-1,-1]","[-0.09153864082280574,-0.08550175732984847]","[-1,-1,-1]","[0.10566884023075404,0.14266010025075018]","[-1,-1,-1]","[0.02,0.02]",82.7281,0,7,7,111,1,,,,,,,
,,,,,,,5997043dbbe84800017964a7,682db3ac53d3621bbd066ad5,2025-05-21_12h06.41.314,cuing_paradigm_dot,2024.1.5,Win32,59.88023952,682d556593cb38ad0a074487,,,,,,,,,,,82.7288,83.2271,,,83.4774,84.0931,right,0.6029,,,,,,,,,0.6,,,,,,83.2272,83.4773,84.0931,"[0.005210521871734689,0.1834138415506019]","[1,1,1]","[-0.11800438953439978,-0.12090274975913586]","[-1,-1,-1]","[-0.09280626661740686,0.04843723634419083]","[-1,-1,-1]","[-0.07372032722569627,-0.05325488751563908]","[1,1,1]","[0.0450256641572799,0.07720845442467231]","[1,1,1]","[0.05576956667481497,-0.03305144388691299]","[1,1,1]","[-0.12925850557653984,-0.056195638342506536]","[-1,-1,-1]","[-0.010219036854754981,-0.029256044480690455]","[1,1,1]","[-0.14550666100860518,0.0010894092372392096]","[1,1,1]","[-0.1502014026118935,0.0865448760536164]","[1,1,1]","[-0.02722938479871319,0.11620771301843345]","[-1,-1,-1]","[-0.07911910888065661,0.12011661933019283]","[1,1,1]","[0.05108234971305645,-0.07390122381187185]","[1,1,1]","[0.08707980247954901,-0.15516286567321713]","[1,1,1]","[0.1030014748995225,-0.07555956908704788]","[-1,-1,-1]","[-0.05031569770042642,-0.14891899819851132]","[-1,-1,-1]","[-0.056118056488380995,0.1570963619700273]","[-1,-1,-1]","[0.08168994836921567,0.1586413943896229]","[1,1,1]","[0.13853465465025683,0.02236763324256342]","[1,1,1]","[0.134793711745975,-0.12648779159637558]","[1,1,1]","[0.1024979125245052,-0.030998582006612325]","[-1,-1,-1]","[-0.021197239732996635,-0.07817709821188809]","[-1,-1,-1]","[0.1587491625141074,-0.07203376399030488]","[-1,-1,-1]","[-0.1923150526298956,0.023404269662659537]","[1,1,1]","[0.13678908584134833,0.12627942289536473]","[1,1,1]","[0.19032425488673643,-0.034605916367829975]","[1,1,1]","[-0.06096359507718837,0.010093393144784572]","[-1,-1,-1]","[-0.008471263809018324,-0.14273129373625618]","[1,1,1]","[0.023438734123373044,-0.001689180961928457]","[-1,-1,-1]","[-0.1349016234385608,0.13237101704942206]","[-1,-1,-1]","[-0.10702053300284815,0.16743900319855162]","[1,1,1]","[0.03500862450817139,-0.11396252070765883]","[1,1,1]","[0.02,0.02]",85.1916,0,8,8,172,1,,,,,,,
,,,,,,,5997043dbbe84800017964a7,682db3ac53d3621bbd066ad5,2025-05-21_12h06.41.314,cuing_paradigm_dot,2024.1.5,Win32,59.88023952,682d556593cb38ad0a074487,,,,,,,,,,,85.1922,85.6913,,,85.9413,86.8403,left,0.8817,,,,,,,,,0.4,,,,,,85.6914,85.9413,86.8404,"[0.04524985828114736,-0.10620136091923461]","[-1,-1,-1]","[0.08256954104268693,-0.16698884563713967]","[-1,-1,-1]","[0.054421049944405345,-0.03513399385527305]","[1,1,1]","[0.13608825716232034,0.12450654450780584]","[1,1,1]","[0.033048312004017165,0.08195262008152933]","[-1,-1,-1]","[-0.04744444893135767,0.10918265434903413]","[-1,-1,-1]","[0.016729825752070066,-0.0047664223048830235]","[1,1,1]","[-0.12286145922446139,0.005003683922593201]","[1,1,1]","[-0.01127702889243818,0.14817791890755833]","[1,1,1]","[-0.12818592494746436,-0.13387032174546712]","[1,1,1]","[-0.00891093163486249,0.055297891927331595]","[-1,-1,-1]","[-0.05167944450218878,-0.020252225404392775]","[-1,-1,-1]","[-0.0639214655160735,0.05029245228594854]","[1,1,1]","[0.14923582515396733,0.011309894045363634]","[-1,-1,-1]","[0.10722230224946568,-0.027223575078413983]","[-1,-1,-1]","[0.11737937549610827,-0.08835923357547915]","[-1,-1,-1]","[0.16433720864293647,-0.0591442796379401]","[-1,-1,-1]","[0.04818517036657379,0.13161646220857345]","[1,1,1]","[-0.13190555104005264,-0.08049738896013268]","[1,1,1]","[0.11703753545752604,0.07959031999593488]","[-1,-1,-1]","[-0.11175036052413362,0.1560607412430569]","[-1,-1,-1]","[0.19224388250559662,0.004792156935379951]","[1,1,1]","[0.10134808561034318,0.1679913907823741]","[-1,-1,-1]","[0.09156848165148193,0.01929005195409649]","[-1,-1,-1]","[0.0881170349379336,0.12280982070665004]","[-1,-1,-1]","[-0.17507334941169375,-0.07371785697586179]","[-1,-1,-1]","[-0.10665932467284937,0.1147193170781141]","[1,1,1]","[0.053695323384144164,0.18232780826633754]","[-1,-1,-1]","[-0.13158601257699082,0.07923690765538804]","[1,1,1]","[-0.012262319660791438,-0.08358904231340263]","[1,1,1]","[0.009206834274650688,-0.15145056654119393]","[-1,-1,-1]","[0.16426316928842824,0.08974368964447575]","[-1,-1,-1]","[0.02,0.02]",87.9383,0,9,9,42,1,,,,,,,
,,,,,,,5997043dbbe84800017964a7,682db3ac53d3621bbd066ad5,2025-05-21_12h06.41.314,cuing_paradigm_dot,2024.1.5,Win32,59.88023952,682d556593cb38ad0a074487,,,,,,,,,,,87.9389,88.4378,,,88.6883,89.4371,left,0.7339,,,,,,,,,0.5,,,,,,88.4378,88.6882,89.4371,"[0.03855542013606936,-0.17929243700296282]","[-1,-1,-1]","[-0.014502138621159781,-0.029521879383628016]","[1,1,1]","[0.05815496189818025,-0.09238152686358705]","[1,1,1]","[-0.06382419384128545,0.16779072613173682]","[1,1,1]","[-0.12877342733159125,0.02161053313840804]","[1,1,1]","[-0.08327154532008858,-0.09121158447665718]","[-1,-1,-1]","[-0.10988955723926054,0.06044656437783248]","[1,1,1]","[-0.17462234001765997,-0.09136370903469616]","[-1,-1,-1]","[-0.040257960331244694,-0.09576909618397629]","[-1,-1,-1]","[0.1925981149507104,-0.028950209393717615]","[1,1,1]","[0.11832232614928664,0.06681312545675705]","[-1,-1,-1]","[0.10597425951584012,-0.01120598929698935]","[1,1,1]","[0.03380773603055722,0.06974505408570608]","[1,1,1]","[0.13282438523614135,-0.13100826579716066]","[1,1,1]","[-0.11510575216443707,0.14158051689824255]","[-1,-1,-1]","[-0.1437683989704657,-0.12209669479325409]","[1,1,1]","[-0.08565161201989627,-0.1521420810785319]","[-1,-1,-1]","[0.10184513267591792,-0.06805756404544826]","[-1,-1,-1]","[-0.17971066889122314,-0.05152300051563039]","[-1,-1,-1]","[0.08986482716095157,0.11551691812499983]","[1,1,1]","[0.19228951163941696,0.04121296753820866]","[-1,-1,-1]","[-0.006244961159881504,0.1259045262461481]","[-1,-1,-1]","[-0.07963501436335893,0.09538531263673311]","[-1,-1,-1]","[-0.1528924546797557,0.12441440036587403]","[-1,-1,-1]","[-0.12851811627370457,-0.04603022519258232]","[1,1,1]","[-0.16474990335831877,0.06052145381018248]","[1,1,1]","[-0.022341521859532847,0.022169586965947993]","[1,1,1]","[-0.17871039833080676,-0.006875610852729172]","[-1,-1,-1]","[0.03445188160854368,0.16886513729224015]","[-1,-1,-1]","[0.044863096275228685,-0.03492583201626311]","[1,1,1]","[0.04784779287959601,-0.13663772574850622]","[-1,-1,-1]","[0.0322589267720382,0.029379307314950875]","[1,1,1]","[0.02,0.02]",90.5355,0,10,10,97,1,,,,,,,
,,,,,,,5997043dbbe84800017964a7,682db3ac53d3621bbd066ad5,2025-05-21_12h06.41.314,cuing_paradigm_dot,2024.1.5,Win32,59.88023952,682d556593cb38ad0a074487,,,,,,,,,,,90.5362,91.0348,,,91.2855,91.7346,right,0.4339,,,,,,,,,0.5,,,,,,91.0349,91.2854,91.7346,"[0.0343601099904409,0.17783103130643216]","[1,1,1]","[0.11933192161004241,-0.01827212240812317]","[1,1,1]","[-0.06185348692738478,0.169181790024763]","[1,1,1]","[0.034055497596883304,0.06579190013235132]","[1,1,1]","[-0.0985225562346121,0.09904744315821735]","[-1,-1,-1]","[0.02871218153285913,-0.12218337146107308]","[-1,-1,-1]","[-0.09542614421236117,-0.14386169764141332]","[-1,-1,-1]","[0.048642594610333996,-0.014505893455733413]","[-1,-1,-1]","[-0.00925124971531514,0.05007268156203274]","[1,1,1]","[-0.015747142170601587,-0.12629880564090054]","[1,1,1]","[-0.09640823018118473,-0.025330108429664922]","[-1,-1,-1]","[-0.03461024965184946,0.002659479164034871]","[1,1,1]","[0.07202168696823552,0.023915490583360087]","[-1,-1,-1]","[0.11286531524964163,0.029852620519850766]","[-1,-1,-1]","[-0.171129343087011,-0.06354379856608432]","[1,1,1]","[0.06634798113222382,-0.08467407373735254]","[1,1,1]","[0.1702271756903815,0.05265528206031109]","[1,1,1]","[-0.054105163738513214,-0.1141621678011218]","[1,1,1]","[0.014806214551052788,-0.07630544836517668]","[-1,-1,-1]","[-0.06580366288951633,0.06437119354484855]","[1,1,1]","[0.024378440100096137,-0.16626408042282095]","[-1,-1,-1]","[-0.16341503332105264,-0.024042083593538426]","[-1,-1,-1]","[0.18482187086119237,0.013023309054449319]","[-1,-1,-1]","[0.07346237754621904,0.15879197301738804]","[-1,-1,-1]","[-0.0012376760885529374,-0.19922147738374602]","[-1,-1,-1]","[0.1420221398865418,0.12377210277999658]","[1,1,1]","[0.08505785011836489,-0.1595203509540894]","[-1,-1,-1]","[-0.026176455119042697,0.14239503242013882]","[1,1,1]","[-0.16844694938884858,0.06932075873263681]","[-1,-1,-1]","[0.13363471927940418,-0.09180196914903276]","[1,1,1]","[-0.048102905902820306,-0.05881137875113415]","[1,1,1]","[0.07910334051472614,0.08250091769470533]","[-1,-1,-1]","[0.02,0.02]",92.8327,0,11,11,103,1,,,,,,,
,,,,,,,5997043dbbe84800017964a7,682db3ac53d3621bbd066ad5,2025-05-21_12h06.41.314,cuing_paradigm_dot,2024.1.5,Win32,59.88023952,682d556593cb38ad0a074487,,,,,,,,,,,92.8333,93.3321,,,93.5827,94.1484,left,0.5534,,,,,,,,,0.55,,,,,,93.3322,93.5827,94.1485,"[-0.000548764568485358,0.06887534264088749]","[-1,-1,-1]","[0.11659619540155419,-0.13304197463570183]","[1,1,1]","[-0.010483639548242595,-0.1478267995804316]","[1,1,1]","[-0.12578106466102942,-0.07298837598234145]","[1,1,1]","[-0.01949941317995805,-0.10441533357253413]","[-1,-1,-1]","[-0.038304447793597284,0.04224139739593213]","[1,1,1]","[-0.06950166528686459,0.1389733948326455]","[1,1,1]","[-0.13711422176966187,-0.12345469559465337]","[-1,-1,-1]","[-0.1430954944555511,0.07905472322911412]","[1,1,1]","[0.0032356024380227983,-0.04727935699179816]","[-1,-1,-1]","[-0.0979939160949334,0.06456366535389686]","[-1,-1,-1]","[0.09620714055881555,-0.031410099796853004]","[-1,-1,-1]","[0.027464139963187823,-0.012632421708268136]","[1,1,1]","[-0.06780004839329948,-0.058596078294535586]","[-1,-1,-1]","[-0.17860017028869368,-0.0853012254716009]","[-1,-1,-1]","[0.05925108608081965,0.06841867739307689]","[1,1,1]","[0.17576871408482558,-0.05953960711984971]","[1,1,1]","[0.008263911596078992,0.1600693233468554]","[-1,-1,-1]","[0.033090852937162074,-0.09025061375289088]","[-1,-1,-1]","[0.1152955061608451,0.04415748021313182]","[1,1,1]","[0.17765838973522252,0.05293297487660736]","[-1,-1,-1]","[-0.09374899093948351,-0.10455129435079272]","[1,1,1]","[0.1279708530425623,-0.08725733603926777]","[1,1,1]","[-0.08868755374901598,0.003829864065396135]","[1,1,1]","[-0.03050840633671069,-0.18248793984750805]","[-1,-1,-1]","[-0.08830901159604349,-0.14854253698322117]","[1,1,1]","[0.06739510690816981,0.012251112802856186]","[-1,-1,-1]","[-0.00855430047551798,0.0058123807738609205]","[-1,-1,-1]","[-0.0146318974310495,0.11400668294966547]","[1,1,1]","[0.0818432108492773,-0.07413637658655371]","[1,1,1]","[-0.11235290444154813,0.13160873312067026]","[1,1,1]","[0.12102481367892197,0.13198364840868393]","[1,1,1]","[0.02,0.02]",95.247,0,12,12,140,1,,,,,,,
,,,,,,,5997043dbbe84800017964a7,682db3ac53d3621bbd066ad5,2025-05-21_12h06.41.314,cuing_paradigm_dot,2024.1.5,Win32,59.88023952,682d556593cb38ad0a074487,,,,,,,,,,,95.2476,95.746,,,95.9961,96.4956,right,0.4833,,,,,,,,,0.9,,,,,,95.7461,95.9961,96.4956,"[-0.015828288581595903,-0.06754383449421168]","[-1,-1,-1]","[-0.13712993778307372,-0.029471907556422133]","[1,1,1]","[0.06467415324917479,0.1181537732520959]","[1,1,1]","[0.12895579580222818,0.027690573315214195]","[1,1,1]","[-0.027994571929253614,0.10932575177861746]","[1,1,1]","[-0.08251521451383631,0.16947109544726432]","[1,1,1]","[-0.07730090693497875,0.08875210855392776]","[1,1,1]","[0.05121771759070085,0.04120131861703067]","[1,1,1]","[-0.027221704676418948,0.18806741045419753]","[1,1,1]","[0.0879376340179093,0.07607038104858253]","[1,1,1]","[0.06674928020836546,0.1615990284563772]","[1,1,1]","[0.04681727701154581,-0.159312139269403]","[-1,-1,-1]","[-0.04159040891237036,-0.013133794992666922]","[1,1,1]","[0.018665787682987413,0.14402440258037186]","[1,1,1]","[-0.1812250521302557,0.020008912328633804]","[1,1,1]","[-0.08107082320063806,-0.0725595885713078]","[1,1,1]","[-0.17831838103922285,-0.046671235634956634]","[1,1,1]","[0.028354824608603297,-0.08756089687974034]","[1,1,1]","[0.165042511527199,-0.02148043279549852]","[1,1,1]","[-0.11319104835937469,0.1103985368341109]","[1,1,1]","[0.08653880762159574,-0.097403012297923]","[1,1,1]","[0.08295467160479596,-0.02124839165154692]","[1,1,1]","[-0.08642423296486385,-0.15281039219907738]","[1,1,1]","[0.11943139052862903,-0.06688025438584135]","[1,1,1]","[0.12559800989335804,0.09369390893046775]","[1,1,1]","[-0.10189713901712984,0.03435866233813375]","[1,1,1]","[-0.007276358250201098,0.01486713810761008]","[1,1,1]","[0.10301272849550003,0.12972302392151527]","[1,1,1]","[0.006751534425802735,-0.03233019073089637]","[1,1,1]","[-0.08253269997218808,-0.011903916025600796]","[1,1,1]","[0.16746928076901973,0.038663203454168064]","[1,1,1]","[0.1673898451046326,-0.07281514284846026]","[-1,-1,-1]","[0.02,0.02]",97.5945,0,13,13,190,1,,,,,,,
,,,,,,,5997043dbbe84800017964a7,682db3ac53d3621bbd066ad5,2025-05-21_12h06.41.314,cuing_paradigm_dot,2024.1.5,Win32,59.88023952,682d556593cb38ad0a074487,,,,,,,,,,,97.5952,98.0932,,,98.3434,98.8763,right,0.5189,,,,,,,,,0.9,,,,,,98.0932,98.3434,98.8764,"[0.16195481013975654,-0.014948381099478117]","[1,1,1]","[0.02776230652743561,-0.11789714236628308]","[1,1,1]","[0.022435398966012585,-0.06515538347472963]","[1,1,1]","[-0.09102281199412829,-0.14147333954002247]","[1,1,1]","[0.10938246941722156,0.11392370344557576]","[1,1,1]","[-0.014964733310825496,-0.11424929059209252]","[1,1,1]","[-0.158326529384685,0.01072988327042193]","[1,1,1]","[-0.030989113972870623,0.15236176976350652]","[1,1,1]","[0.05057492201544924,0.09029970070294074]","[-1,-1,-1]","[-0.11296241120116315,-0.10296638446154165]","[1,1,1]","[-0.1476051387398861,0.12042482241080261]","[1,1,1]","[0.07523449704041452,-0.04488957184329136]","[1,1,1]","[0.09849683946250339,-0.16363116240006925]","[1,1,1]","[0.02560320573391866,0.15941995257663816]","[-1,-1,-1]","[-0.13741526254388353,-0.06918639604533466]","[1,1,1]","[-0.08702859349285562,0.16794013470812075]","[1,1,1]","[-0.11412760935581968,0.0016774292334035554]","[1,1,1]","[0.04672346316781849,-0.016583408499174956]","[-1,-1,-1]","[0.042301971212245576,-0.1660868070852209]","[1,1,1]","[-0.0975864433049276,0.07865340827347465]","[1,1,1]","[-0.06775462021653549,-0.06293813502649513]","[1,1,1]","[0.015441585659827412,-0.19590568183241946]","[1,1,1]","[-0.19497859186679825,0.027834358649555125]","[1,1,1]","[0.07459178001641023,0.18045034620110353]","[1,1,1]","[0.0052300240866789,0.06637046018031734]","[1,1,1]","[0.16437021621943293,0.043964127311727844]","[1,1,1]","[0.15509064104686027,-0.05866203961786227]","[1,1,1]","[-0.010785834547292721,0.010118423744344986]","[1,1,1]","[-0.15917328776572218,-0.11205166047018093]","[1,1,1]","[-0.04922332752845108,-0.17070281006153207]","[1,1,1]","[0.11432089158394533,-0.10240641674822763]","[1,1,1]","[0.15125776310093636,-0.1237341763300315]","[1,1,1]","[0.02,0.02]",99.9744,0,14,14,183,1,,,,,,,
,,,,,,,5997043dbbe84800017964a7,682db3ac53d3621bbd066ad5,2025-05-21_12h06.41.314,cuing_paradigm_dot,2024.1.5,Win32,59.88023952,682d556593cb38ad0a074487,,,,,,,,,,,99.975,100.474,,,100.7244,101.2733,left,0.5341,,,,,,,,,0.4,,,,,,100.474,100.7243,101.2734,"[0.09784349824556604,0.0815175724208287]","[-1,-1,-1]","[0.11299974194084422,-0.13726360698008702]","[-1,-1,-1]","[-0.09636684848163511,-0.11402434288498897]","[1,1,1]","[-0.15725774482781144,-0.03482989286205118]","[-1,-1,-1]","[-0.010346719944768216,-0.06946512231865228]","[1,1,1]","[-0.09075717398431596,0.10073645997233308]","[1,1,1]","[0.019395135211970393,-0.04184728785434043]","[1,1,1]","[-0.044052236851779995,0.1061944255358332]","[-1,-1,-1]","[0.16941678021647247,0.09113363743302486]","[-1,-1,-1]","[-0.11599254628539139,-0.016806750403805783]","[1,1,1]","[0.17691238283908722,0.015365680214111513]","[-1,-1,-1]","[-0.013209808067907962,0.18076479187934458]","[1,1,1]","[-0.033056019783954366,-0.009592881097782594]","[1,1,1]","[0.02990403608052202,0.16539082964809307]","[-1,-1,-1]","[0.02286045104338491,0.01245592392433109]","[-1,-1,-1]","[-0.06886640132774348,0.17337413607846233]","[-1,-1,-1]","[-0.037687590609446715,0.045536497577199596]","[1,1,1]","[0.07312410168402379,-0.00726738429925251]","[-1,-1,-1]","[0.10057859014295628,-0.05348192534516973]","[-1,-1,-1]","[0.13829247112025028,0.044378957166812505]","[1,1,1]","[-0.10978183943116446,-0.07530719427254941]","[-1,-1,-1]","[0.048476248831077644,0.1245983741225016]","[-1,-1,-1]","[0.15113124450559512,-0.11677250261218504]","[-1,-1,-1]","[0.09574325729628347,0.15065056902283502]","[-1,-1,-1]","[0.16049321945845996,-0.023231697354335674]","[1,1,1]","[0.01547355266956304,-0.16246630516381416]","[1,1,1]","[-0.09171657628039286,-0.16520492100195844]","[-1,-1,-1]","[-0.14527674165770857,0.05116892725667043]","[1,1,1]","[0.051144902131610825,0.06565245826148408]","[-1,-1,-1]","[-0.030525397270829372,-0.11948654604629876]","[-1,-1,-1]","[-0.1721489935010545,-0.072399703473787]","[-1,-1,-1]","[0.006460786933221101,0.11165106237704017]","[1,1,1]","[0.02,0.02]",102.3722,0,15,15,54,1,,,,,,,
,,,,,,,5997043dbbe84800017964a7,682db3ac53d3621bbd066ad5,2025-05-21_12h06.41.314,cuing_paradigm_dot,2024.1.5,Win32,59.88023952,682d556593cb38ad0a074487,,,,,,,,,,,102.3728,102.8711,,,103.1214,103.6375,left,0.5031,,,,,,,,,0.5,,,,,,102.8711,103.1212,103.6376,"[-0.09040083536452916,0.047250153801204044]","[1,1,1]","[-0.05521089242906511,-0.03022452276222006]","[-1,-1,-1]","[-0.05503018488874202,0.17552706961980963]","[1,1,1]","[-0.17650866822619515,0.08795435957145843]","[-1,-1,-1]","[0.03736034094338353,-0.16379383704796047]","[-1,-1,-1]","[0.06657286828594494,0.04025391398678435]","[-1,-1,-1]","[-0.0326660615160254,-0.11303381427645988]","[1,1,1]","[0.06284666687490707,-0.09139672301609317]","[-1,-1,-1]","[0.00659105200473038,0.17626173200815853]","[1,1,1]","[-0.00751674307374334,-0.07588410236691889]","[1,1,1]","[0.031990395724442885,-0.014376731468460358]","[1,1,1]","[-0.12967228048394563,-0.043876721736679926]","[-1,-1,-1]","[0.11258980605099662,-0.03377322457124381]","[-1,-1,-1]","[0.13026268100844896,0.07661286736366549]","[-1,-1,-1]","[-0.05615243978646423,0.11096194649740557]","[1,1,1]","[-0.19770831661897112,0.01266461562926498]","[1,1,1]","[-0.16523438429052772,-0.10159645049014539]","[-1,-1,-1]","[-0.004060854759985858,0.08714735683265148]","[-1,-1,-1]","[-0.1312797444158425,0.12332432298946365]","[1,1,1]","[0.13181059856293964,0.14462994688956668]","[1,1,1]","[-0.1833200313633639,-0.03355197935294212]","[1,1,1]","[0.14493494715461835,-0.009610807029731343]","[1,1,1]","[0.11861585189967677,-0.11445594936346512]","[-1,-1,-1]","[-0.08463003155043593,-0.08054418010610362]","[-1,-1,-1]","[-0.00896786230162644,-0.03586414543916124]","[1,1,1]","[-0.04449382196098865,0.059490548985588206]","[-1,-1,-1]","[-0.13417010589180886,0.06860753235795992]","[1,1,1]","[-0.045860783284599894,-0.18869173343593987]","[-1,-1,-1]","[-0.13782880891093513,0.002664062893929117]","[-1,-1,-1]","[0.16037945602777387,-0.0878353551170784]","[1,1,1]","[0.07645124454227921,0.14721954784317068]","[-1,-1,-1]","[-0.12689854866525713,-0.11621249706918087]","[1,1,1]","[0.02,0.02]",104.7362,0,16,16,92,1,,,,,,,
,,,,,,,5997043dbbe84800017964a7,682db3ac53d3621bbd066ad5,2025-05-21_12h06.41.314,cuing_paradigm_dot,2024.1.5,Win32,59.88023952,682d556593cb38ad0a074487,,,,,,,,,,,104.7368,105.235,,,105.4852,106.5837,left,1.086,,,,,,,,,0.6,,,,,,105.235,105.4852,106.5839,"[-0.014094816274878299,0.12868202632810183]","[1,1,1]","[0.14154968812677302,0.13607211776198203]","[1,1,1]","[0.11304716043966083,-0.133055594391925]","[1,1,1]","[-0.056819296416602855,-0.10034865006234356]","[1,1,1]","[0.09072619090405357,0.17732375129112055]","[1,1,1]","[0.027517147645062,0.06758483112791161]","[1,1,1]","[-0.19202362587705102,-0.028744137341342006]","[1,1,1]","[-0.0858419068047446,0.04543498431278465]","[-1,-1,-1]","[0.1065058845314867,-0.0026331033175308887]","[1,1,1]","[-0.005178166276821902,-0.12096408406513913]","[-1,-1,-1]","[-0.13940784966967248,-0.028879773975878865]","[-1,-1,-1]","[0.03861663291596318,-0.123597822137706]","[1,1,1]","[0.026093316400458866,0.17047531555237178]","[-1,-1,-1]","[0.15811922216567348,-0.021057443382374617]","[-1,-1,-1]","[-0.08530912751663947,-0.17330329449061768]","[1,1,1]","[-0.0022338499496393125,-0.007141102551765286]","[-1,-1,-1]","[-0.03771033736421705,-0.059352364380355925]","[1,1,1]","[0.046930028047244915,-0.029054753967803947]","[1,1,1]","[-0.1401137725076769,0.0809445382370904]","[-1,-1,-1]","[-0.11967253740903543,0.14199634130882746]","[-1,-1,-1]","[-0.12240854766608573,0.022548661133391195]","[-1,-1,-1]","[-0.059836582544219606,0.09015924350232354]","[-1,-1,-1]","[-0.13928669241181732,-0.11029219270205656]","[1,1,1]","[0.06532625689014547,0.13486945719449236]","[1,1,1]","[0.08200286718223218,0.05623626526217379]","[1,1,1]","[0.029401710643466045,-0.07968696437728637]","[1,1,1]","[0.192178076125801,-0.05263011729912166]","[1,1,1]","[0.170718214055055,0.05258174215102979]","[-1,-1,-1]","[0.010911345872576247,-0.1764965653113106]","[1,1,1]","[-0.07182495060559493,-0.007570552464408738]","[-1,-1,-1]","[-0.17614628956169476,0.02164799704774383]","[1,1,1]","[-0.07337648439156287,0.17398836199236398]","[-1,-1,-1]","[0.02,0.02]",107.6822,0,17,17,159,1,,,,,,,
,,,,,,,5997043dbbe84800017964a7,682db3ac53d3621bbd066ad5,2025-05-21_12h06.41.314,cuing_paradigm_dot,2024.1.5,Win32,59.88023952,682d556593cb38ad0a074487,,,,,,,,,,,107.6829,108.1817,,,108.433,109.5468,left,1.1056,,,,,,,,,0.5,,,,,,108.1817,108.4329,109.5469,"[-0.07909742756947691,0.1757076477966668]","[-1,-1,-1]","[0.09885382675716486,0.06465007426449577]","[1,1,1]","[-0.10654826262318372,-0.021987781765762115]","[-1,-1,-1]","[0.16269412670352384,-0.014124869901075606]","[-1,-1,-1]","[-0.01795862212053822,0.03816004569314214]","[-1,-1,-1]","[-0.013255935972567759,-0.10137426625683184]","[1,1,1]","[-0.1572702616272876,0.02242500606214317]","[-1,-1,-1]","[-0.12237948515273092,-0.15437526524050152]","[1,1,1]","[0.17197267295721452,0.028839315410410182]","[1,1,1]","[0.02513075974032898,0.05093629781011075]","[1,1,1]","[0.04752500404648218,0.10747954719310707]","[-1,-1,-1]","[0.09690857908021795,0.1081994739953415]","[-1,-1,-1]","[-0.05157958975586559,0.10090532455969498]","[-1,-1,-1]","[-0.18740208761962737,-0.04109373665169381]","[1,1,1]","[-0.00495880031386534,0.1558069484394078]","[1,1,1]","[-0.12094599084711695,0.11023484502317579]","[-1,-1,-1]","[-0.03443616520017471,-0.03262767498007965]","[-1,-1,-1]","[0.11194754976293061,0.012914762021690018]","[1,1,1]","[0.09226689071299032,-0.11582516483651754]","[-1,-1,-1]","[0.08503937163648052,-0.07114496454613888]","[-1,-1,-1]","[0.09723190362149361,0.15802763685157253]","[-1,-1,-1]","[0.13412795329209495,0.14217401624982556]","[1,1,1]","[0.15610897176991245,-0.110934924113642]","[1,1,1]","[0.08140529345853613,-0.1662114622335135]","[-1,-1,-1]","[-0.11075635838438047,0.05281854085915498]","[-1,-1,-1]","[0.03151216022251214,-0.034816090806464424]","[1,1,1]","[-0.031885838490325315,-0.15574800690896246]","[-1,-1,-1]","[-0.1587293819455695,0.07744452350621743]","[1,1,1]","[-0.1281096182017372,-0.09583931336783717]","[1,1,1]","[-0.0756298619895887,-0.17319112128464345]","[1,1,1]","[0.15496593115064566,-0.05490796883636227]","[1,1,1]","[-0.0698250701637193,0.03107061513234929]","[1,1,1]","[0.02,0.02]",110.6456,0,18,18,101,1,,,,,,,
,,,,,,,5997043dbbe84800017964a7,682db3ac53d3621bbd066ad5,2025-05-21_12h06.41.314,cuing_paradigm_dot,2024.1.5,Win32,59.88023952,682d556593cb38ad0a074487,,,,,,,,,,,110.6463,111.1449,,,111.3952,112.2609,left,0.8531,,,,,,,,,0.4,,,,,,111.1449,111.3952,112.261,"[0.03579447858876419,0.186060923223081]","[1,1,1]","[-0.04750253447802104,-0.004171538963132609]","[1,1,1]","[-0.04101726212626458,-0.10904037937769012]","[-1,-1,-1]","[0.048794412271357425,-0.12970768071753122]","[-1,-1,-1]","[0.03343442416036945,0.05621363417353558]","[1,1,1]","[-0.10689845790915914,0.00746035442298995]","[-1,-1,-1]","[0.04214612892348362,0.09564017916988928]","[-1,-1,-1]","[0.10149062902233746,-0.12010824450379488]","[1,1,1]","[-0.12316918954848488,0.14301382807209878]","[-1,-1,-1]","[0.19603934770856582,0.0034550092350065587]","[1,1,1]","[0.10462493208968839,0.06393542429656252]","[-1,-1,-1]","[0.030898084539269025,-0.06366678198230835]","[-1,-1,-1]","[0.16312543026778387,-0.060105785819355564]","[1,1,1]","[-0.062496300236118074,-0.17762431782585172]","[-1,-1,-1]","[0.10580285380048371,-0.056920564842341904]","[1,1,1]","[-0.1352106856038824,0.060334381252651496]","[-1,-1,-1]","[0.012825050704623673,0.12396278741377692]","[1,1,1]","[-0.1663925360595067,-0.054648019955838845]","[-1,-1,-1]","[-0.08120738672779525,-0.10248520490958435]","[-1,-1,-1]","[-0.041813636278083585,0.11194026377427864]","[-1,-1,-1]","[0.05170985880476673,0.012591842005000195]","[1,1,1]","[-0.07377362792989717,0.08642937311478052]","[-1,-1,-1]","[0.13347960824479438,-0.09458588095027072]","[-1,-1,-1]","[-0.18712385332237783,0.0161091434125724]","[1,1,1]","[0.08299396118427589,0.1506500516538658]","[-1,-1,-1]","[0.09379265475044465,0.023341074096283863]","[-1,-1,-1]","[0.02950805170344251,-0.1890419120504034]","[-1,-1,-1]","[-0.07641690038271484,0.13633506025205097]","[1,1,1]","[-0.0017985370728949765,-0.12679605382436715]","[1,1,1]","[-0.034127778428747674,0.17299854622236907]","[1,1,1]","[-0.08664543949572046,0.1759901366325089]","[-1,-1,-1]","[-0.003483851495912184,0.0376890055306259]","[-1,-1,-1]","[0.02,0.02]",113.359,0,19,19,53,1,,,,,,,
,,,,,,,5997043dbbe84800017964a7,682db3ac53d3621bbd066ad5,2025-05-21_12h06.41.314,cuing_paradigm_dot,2024.1.5,Win32,59.88023952,682d556593cb38ad0a074487,,,,,,,,,,,113.3597,113.8583,,,114.109,114.8239,right,0.6983,,,,,,,,,0.5,,,,,,113.8584,114.1088,114.824,"[-0.02849993352704794,0.13522473069982943]","[1,1,1]","[-0.09047813104776208,0.12114325159917821]","[-1,-1,-1]","[0.10330925417841103,-0.10757041994178623]","[-1,-1,-1]","[0.058882787937595514,-0.008391156676278122]","[1,1,1]","[-0.0430752847341613,-0.029375687136780286]","[-1,-1,-1]","[0.0060805345599959345,-0.14821772793881477]","[-1,-1,-1]","[0.07460861717366754,-0.06893904531381431]","[1,1,1]","[0.020620579717992832,0.10319256159764986]","[1,1,1]","[0.07220837250229525,0.18548108938754568]","[-1,-1,-1]","[0.03176090204114218,0.15043416981764454]","[-1,-1,-1]","[-0.11208140957880297,-0.0859098272270427]","[1,1,1]","[0.18818373080592835,-0.027499312643505403]","[1,1,1]","[-0.01395389362794217,0.0667394347983823]","[-1,-1,-1]","[-0.11263538632115601,0.05698281562704315]","[1,1,1]","[-0.0505544490670244,0.04508454670276082]","[-1,-1,-1]","[0.10316197023555228,0.025813396243900864]","[-1,-1,-1]","[-0.05270949323888941,-0.1058403390957371]","[1,1,1]","[-0.05451861076724149,0.18433793518133224]","[-1,-1,-1]","[0.1769558246444998,0.07946396981945802]","[-1,-1,-1]","[-0.11995830433687593,0.00794909314617553]","[1,1,1]","[-0.18526347199406837,-0.0031802075343204308]","[-1,-1,-1]","[-0.10741393776665085,-0.14250644522720526]","[1,1,1]","[-0.1485161321723896,-0.11497107864939136]","[1,1,1]","[0.13096744733656895,-0.06179001329191496]","[1,1,1]","[-0.04901691147294693,0.09636548667244028]","[1,1,1]","[0.11858733454916648,0.08098774148248143]","[1,1,1]","[-0.18870151926869527,0.05611800312387307]","[1,1,1]","[0.11737404135648531,-0.14540055784753447]","[1,1,1]","[0.04978519104120338,-0.18414372028863896]","[-1,-1,-1]","[0.04268114027647637,0.0475571074923417]","[-1,-1,-1]","[0.09627421653224595,-0.02545933111556199]","[-1,-1,-1]","[0.12172959261900397,0.12291267892945104]","[-1,-1,-1]","[0.02,0.02]",115.9225,0,20,20,109,1,,,,,,,
,,,,,,,5997043dbbe84800017964a7,682db3ac53d3621bbd066ad5,2025-05-21_12h06.41.314,cuing_paradigm_dot,2024.1.5,Win32,59.88023952,682d556593cb38ad0a074487,,,,,,,,,,,115.923,116.4448,,,116.6777,117.1236,right,0.4293,,,,,,,,,0.9,,,,,,116.4448,116.6776,117.1237,"[-0.021579580901764456,-0.11166914141240616]","[1,1,1]","[0.06815866645922097,-0.00602279912669078]","[1,1,1]","[0.12399352727696941,-0.11486637768051021]","[-1,-1,-1]","[-0.040453236330662494,0.18086018035701004]","[-1,-1,-1]","[-0.1668792635247318,0.0691357517362407]","[1,1,1]","[0.040621099348593474,0.07544335709388578]","[1,1,1]","[0.031532439822512214,-0.06178663876704712]","[1,1,1]","[0.02149124551934506,0.1372090259151761]","[1,1,1]","[-0.08394504849946512,0.12148825610080449]","[1,1,1]","[0.09858898232315914,0.11764463870506797]","[1,1,1]","[-0.005244699367210133,0.00725294138587563]","[1,1,1]","[0.16902923620576182,-0.04993570375708385]","[1,1,1]","[-0.11347472606268953,0.08152398239238491]","[-1,-1,-1]","[-0.14133280889321312,-0.13840103636795573]","[1,1,1]","[0.19795552099141503,-0.00941898503214314]","[1,1,1]","[-0.07271070460006043,0.018310619200994332]","[1,1,1]","[-0.006923747203836897,-0.1491125314368998]","[1,1,1]","[-0.1369162080956665,0.0247110900586088]","[1,1,1]","[-0.049504946845385533,-0.15392539162194518]","[1,1,1]","[-0.05222580710703275,0.0530944594535589]","[1,1,1]","[0.09949944815529257,-0.03665859748995393]","[1,1,1]","[0.047513931209234764,-0.17417103601661205]","[1,1,1]","[-0.13861365864021258,0.11498102919405459]","[1,1,1]","[-0.11181082151817297,-0.09026466408325495]","[1,1,1]","[0.06745955075119085,0.17163466686800016]","[1,1,1]","[-0.08889693274396215,-0.1614171433894923]","[1,1,1]","[0.09832010597159457,-0.15887580502968265]","[1,1,1]","[-0.17341947123728294,-0.012811333414197379]","[1,1,1]","[0.0979493099699315,0.021737933819321813]","[1,1,1]","[-0.07158020229732749,-0.10134494280487981]","[1,1,1]","[0.09525217425909156,0.06836897188869318]","[1,1,1]","[-0.07073388710273273,-0.05677403784975482]","[1,1,1]","[0.02,0.02]",118.2235,0,21,21,203,1,,,,,,,
,,,,,,,5997043dbbe84800017964a7,682db3ac53d3621bbd066ad5,2025-05-21_12h06.41.314,cuing_paradigm_dot,2024.1.5,Win32,59.88023952,682d556593cb38ad0a074487,,,,,,,,,,,118.224,118.7205,,,118.9594,119.4703,right,0.4873,,,,,,,,,0.9,,,,,,118.7206,118.9594,119.4703,"[-0.14178040892590302,0.06753302288258127]","[1,1,1]","[0.048202103488536006,0.11108694432759109]","[1,1,1]","[0.09109399483528227,0.08226900183961702]","[1,1,1]","[0.09227202479076409,-0.02981991619574785]","[1,1,1]","[0.024231503345996788,0.06377002622989165]","[1,1,1]","[0.17168286059014598,0.011342864775361585]","[-1,-1,-1]","[0.07793951077459706,-0.1002036582086541]","[-1,-1,-1]","[0.038550936295327236,-0.14005048678260365]","[1,1,1]","[0.13699680210072798,-0.01142857158234603]","[1,1,1]","[0.129086168694162,0.04831177578658676]","[1,1,1]","[-0.14349951606371736,0.012959135754815044]","[1,1,1]","[-0.019242321406391892,-0.10943077001863254]","[-1,-1,-1]","[-0.11680482481287978,0.15950138834563077]","[1,1,1]","[-0.12097090419309994,-0.12261447734737424]","[1,1,1]","[-0.0545384608308812,0.013806014182301317]","[1,1,1]","[-0.07657172625433038,0.15369763740789655]","[1,1,1]","[-0.0996954783254359,-0.16170794539454553]","[1,1,1]","[0.0896909269667887,0.16344343146594417]","[1,1,1]","[-0.08170223688096981,0.11213431823342]","[1,1,1]","[-0.03706049254360896,-0.030368832493653287]","[1,1,1]","[-0.1766683880328192,-0.06163159735324021]","[1,1,1]","[-0.0972703693146778,-0.06661321523532658]","[1,1,1]","[-0.10811382679944559,0.044624450522294905]","[1,1,1]","[0.0025303838935877795,-0.03712928787412268]","[1,1,1]","[-0.007097382531102934,0.09485456129155836]","[1,1,1]","[0.15186671889660958,-0.12015192487194779]","[1,1,1]","[-0.19003336951293226,0.055159310984850135]","[1,1,1]","[-0.06251107520493782,-0.13005235013350946]","[1,1,1]","[-0.00455031600866862,0.15525795813835475]","[1,1,1]","[-0.011351811931267601,-0.18931033173292328]","[1,1,1]","[-0.022451661194621504,0.04115269469861512]","[1,1,1]","[-0.12578640740870128,0.1107666991459277]","[1,1,1]","[0.02,0.02]",120.569,0,22,22,208,1,,,,,,,
,,,,,,,5997043dbbe84800017964a7,682db3ac53d3621bbd066ad5,2025-05-21_12h06.41.314,cuing_paradigm_dot,2024.1.5,Win32,59.88023952,682d556593cb38ad0a074487,,,,,,,,,,,120.5697,121.0694,,,121.3231,121.9006,left,0.557,,,,,,,,,0.1,,,,,,121.0695,121.323,121.9006,"[0.14860308905697872,-0.1316559040535442]","[-1,-1,-1]","[-0.0027734151441723503,-0.11698369308351075]","[-1,-1,-1]","[-0.12068623808847395,-0.04227739527593431]","[-1,-1,-1]","[0.04385137695594377,0.12175931608816416]","[-1,-1,-1]","[-0.17934899042400254,-0.012937664979306183]","[-1,-1,-1]","[0.1481803174647123,0.0893580584553293]","[-1,-1,-1]","[0.06449760538697429,0.05436772776076987]","[-1,-1,-1]","[-0.10568456654906472,0.003566039034484334]","[-1,-1,-1]","[-0.0775787708621394,0.03242998848342368]","[-1,-1,-1]","[0.07555180544252971,0.09570227703100499]","[-1,-1,-1]","[0.003947579594842547,-0.17933186558790246]","[-1,-1,-1]","[0.034820124500290664,-0.02006588698672222]","[-1,-1,-1]","[0.11195816523297653,0.018709915586456818]","[-1,-1,-1]","[0.005296206904939158,0.14553473683500692]","[-1,-1,-1]","[-0.09290392502362366,-0.15482327404043042]","[1,1,1]","[0.17128049222612773,-0.07869841743985855]","[-1,-1,-1]","[0.06895447054436331,-0.14527604061078117]","[-1,-1,-1]","[-0.06497471401575362,-0.11563812479934342]","[-1,-1,-1]","[0.11584105054727367,0.13958974704178223]","[-1,-1,-1]","[0.17470531940284661,0.03020236899990763]","[1,1,1]","[-0.14199735998550395,0.10838316685078633]","[-1,-1,-1]","[0.023239493010919966,0.07280407797498142]","[-1,-1,-1]","[-0.029534867691429077,-0.07733615979538369]","[-1,-1,-1]","[0.009627403365303617,-0.05152756374461472]","[-1,-1,-1]","[0.17188188769638665,-0.011686313018476335]","[1,1,1]","[-0.052574199768682515,-0.15877218115274316]","[-1,-1,-1]","[0.04800976152994769,-0.06399859684537577]","[-1,-1,-1]","[0.040931373284290515,-0.11404779655275112]","[-1,-1,-1]","[-0.058577046194799816,0.18576184907168758]","[-1,-1,-1]","[-0.021488934345132937,-0.024762420027986076]","[-1,-1,-1]","[0.10555458788902713,-0.0815274260887454]","[-1,-1,-1]","[0.08873979207671441,0.17560841478530112]","[-1,-1,-1]","[0.02,0.02]",123.0031,0,23,23,4,1,,,,,,,
,,,,,,,5997043dbbe84800017964a7,682db3ac53d3621bbd066ad5,2025-05-21_12h06.41.314,cuing_paradigm_dot,2024.1.5,Win32,59.88023952,682d556593cb38ad0a074487,,,,,,,,,,,123.0037,123.5023,,,123.7538,124.2978,left,0.521,,,,,,,,,0.45,,,,,,123.5024,123.7538,124.2979,"[0.1565071050714303,-0.022047222222636807]","[1,1,1]","[0.06708088019474588,-0.06348308028488324]","[-1,-1,-1]","[-0.1157056794237198,-0.00572371579779077]","[-1,-1,-1]","[-0.14926582258794857,-0.06877520325528474]","[-1,-1,-1]","[-0.02446658841936034,0.17387283984698057]","[-1,-1,-1]","[-0.047082711027194815,0.10128749286506179]","[1,1,1]","[0.10611678479709923,0.06002118339595655]","[-1,-1,-1]","[-0.0365666088208838,-0.08052048708704478]","[-1,-1,-1]","[0.002096662172936722,-0.11563834313152851]","[-1,-1,-1]","[0.07280907898970006,0.1784887144392081]","[-1,-1,-1]","[-0.00037607898502086453,0.09030067689386934]","[-1,-1,-1]","[-0.13285284930371638,0.14552717708435295]","[1,1,1]","[0.019336088887906625,-0.1785717078997931]","[1,1,1]","[-0.18732153698876777,-0.002816954691183787]","[-1,-1,-1]","[0.14755577653918966,0.07804435006103679]","[-1,-1,-1]","[-0.02108691539674772,-0.016580165344539533]","[1,1,1]","[-0.029142487072554214,-0.1574116387045555]","[-1,-1,-1]","[0.08165446779045389,-0.12100102428427423]","[-1,-1,-1]","[-0.05292526828071885,0.02412252662136471]","[1,1,1]","[0.18155138495599346,-0.05554416532782439]","[1,1,1]","[0.1277155536204619,-0.1154184910612365]","[1,1,1]","[-0.13868272173322677,0.04837312072148515]","[-1,-1,-1]","[0.06631050690249589,0.12360912710888215]","[-1,-1,-1]","[-0.12213116850267716,-0.1099122802167504]","[-1,-1,-1]","[-0.08476493589719669,-0.17338206005311743]","[1,1,1]","[-0.09318921355319586,-0.06949389146064776]","[1,1,1]","[0.058811452598117424,0.07097844007953186]","[1,1,1]","[0.0692434488312093,-0.010093954651537179]","[1,1,1]","[0.16712655774361224,-0.10845065191832887]","[-1,-1,-1]","[0.019021007995448903,0.19625186600093122]","[1,1,1]","[0.1862722773400312,0.017042103583969025]","[-1,-1,-1]","[-0.07563443333889718,0.14158027897738246]","[1,1,1]","[0.02,0.02]",125.3979,0,24,24,78,1,,,,,,,
,,,,,,,5997043dbbe84800017964a7,682db3ac53d3621bbd066ad5,2025-05-21_12h06.41.314,cuing_paradigm_dot,2024.1.5,Win32,59.88023952,682d556593cb38ad0a074487,,,,,,,,,,,125.3986,125.9006,,,126.1472,127.0116,right,0.8405,,,,,,,,,0.55,,,,,,125.9008,126.1471,127.0117,"[-0.0039626524492550235,0.040262713921498064]","[1,1,1]","[-0.10557967358733962,-0.09755241635383607]","[1,1,1]","[0.07050094559312539,-0.021325907966832394]","[1,1,1]","[0.03666287936744586,-0.08957284260324191]","[1,1,1]","[0.055736960001812295,-0.16176138354440395]","[-1,-1,-1]","[-0.058065818718325155,0.11127393100159014]","[-1,-1,-1]","[-0.10032871377184448,0.13948645323336636]","[-1,-1,-1]","[0.08081582756282217,0.11153846805960471]","[-1,-1,-1]","[-0.11284757545918835,0.038024791887980754]","[-1,-1,-1]","[0.04053805883417289,0.16204552465877334]","[1,1,1]","[-0.029235406055885104,-0.08256563775008884]","[1,1,1]","[0.08772053520624214,0.05987151056739406]","[1,1,1]","[0.10804870813866058,-0.14267240844566498]","[-1,-1,-1]","[-0.1681245368500247,0.001588490111797384]","[1,1,1]","[-0.12021406248242832,0.0779412106560083]","[1,1,1]","[-0.049747041639434476,-0.18266679952825102]","[1,1,1]","[-0.0014953642084140051,-0.18768322886781835]","[1,1,1]","[-0.0907735821268133,-0.1578661863253133]","[-1,-1,-1]","[-0.11010732013213696,-0.004298757952010177]","[-1,-1,-1]","[0.09154424832529608,-0.0910446726988856]","[-1,-1,-1]","[0.12965925418011115,-0.000202047445575798]","[1,1,1]","[0.15342927721510038,-0.09062004412110126]","[1,1,1]","[0.020863990770241758,0.11014233982362433]","[1,1,1]","[-0.056665005840961964,-0.0005980395658578301]","[1,1,1]","[0.18783331413723062,0.054124013127165006]","[1,1,1]","[-0.029459447866391045,0.15407906753974626]","[-1,-1,-1]","[0.1912482121666414,0.009637762347972199]","[-1,-1,-1]","[-0.0566340906569386,0.05040086106785428]","[-1,-1,-1]","[-0.127637953811487,-0.05313765962090219]","[-1,-1,-1]","[0.03955442929617069,0.04696171317851633]","[-1,-1,-1]","[0.12067323880308103,0.1300826850326051]","[1,1,1]","[-0.17819003044203816,-0.06836543024548693]","[1,1,1]","[0.02,0.02]",128.1137,0,25,25,133,1,,,,,,,
,,,,,,,5997043dbbe84800017964a7,682db3ac53d3621bbd066ad5,2025-05-21_12h06.41.314,cuing_paradigm_dot,2024.1.5,Win32,59.88023952,682d556593cb38ad0a074487,,,,,,,,,,,128.1144,128.6104,,,128.8649,129.4252,left,0.5431,,,,,,,,,0.45,,,,,,128.6104,128.8648,129.4253,"[-0.036829958096832524,0.028653679194091154]","[-1,-1,-1]","[-0.09460233378311393,-0.10102090871356262]","[1,1,1]","[0.02381078552110475,0.029910090706881786]","[1,1,1]","[0.08569568518442747,-0.015087972754276964]","[-1,-1,-1]","[0.10021159331751595,-0.12863867769905044]","[1,1,1]","[-0.19133838247861298,0.018251161413961825]","[1,1,1]","[0.1680910832836409,0.05708409560857184]","[-1,-1,-1]","[-0.15102588041090662,0.023812890613147966]","[-1,-1,-1]","[-0.03777321942815128,-0.16317736006420008]","[-1,-1,-1]","[-0.06940564262968285,0.09531082928957549]","[-1,-1,-1]","[-0.02263936252164283,0.09656639574734582]","[-1,-1,-1]","[0.08600146254398579,-0.06281870973989945]","[1,1,1]","[-0.14776179286859456,-0.06606342250519213]","[1,1,1]","[0.06787826494564281,0.1352792799856458]","[-1,-1,-1]","[0.17076673811225362,-0.028436276447063553]","[1,1,1]","[0.05738307898657987,0.05417543495384781]","[1,1,1]","[-0.06723080965159432,-0.02859621347330271]","[-1,-1,-1]","[0.038883081403223586,-0.057573227418552045]","[-1,-1,-1]","[-0.19091935258651965,-0.033706079710709026]","[-1,-1,-1]","[0.059305572951950145,-0.0957659190836836]","[-1,-1,-1]","[0.0212216104597448,0.08804787491411163]","[-1,-1,-1]","[-0.02249202152524472,0.14715013477235386]","[1,1,1]","[-0.1450759434771524,-0.11024772296111947]","[-1,-1,-1]","[0.1017959596577811,0.05275029080333339]","[-1,-1,-1]","[-0.06648658769417938,0.17259421819826806]","[-1,-1,-1]","[0.04261567449720856,-0.19284329639513195]","[-1,-1,-1]","[-0.17144422942439105,0.07922705961134006]","[-1,-1,-1]","[0.027617683136084592,0.1284553090043479]","[1,1,1]","[0.14929253327970135,-0.09560967726718231]","[1,1,1]","[0.020251289880180063,0.19612935928500302]","[1,1,1]","[0.1180632851526456,0.1482648654423965]","[1,1,1]","[-0.14502983984779452,0.12255766346106986]","[1,1,1]","[0.02,0.02]",130.5275,0,26,26,89,1,,,,,,,
,,,,,,,5997043dbbe84800017964a7,682db3ac53d3621bbd066ad5,2025-05-21_12h06.41.314,cuing_paradigm_dot,2024.1.5,Win32,59.88023952,682d556593cb38ad0a074487,,,,,,,,,,,130.5282,131.027,,,131.2785,131.7096,right,0.4145,,,,,,,,,0.9,,,,,,131.0271,131.2784,131.7097,"[0.17388481285796337,-0.028905562634288933]","[1,1,1]","[-0.06771725125962362,-0.17921199523600573]","[1,1,1]","[-0.1854177072818051,-0.05233293464489284]","[1,1,1]","[0.01701700742402158,-0.14868127809399653]","[1,1,1]","[0.05362836202620449,0.1826548165635318]","[1,1,1]","[-0.10762880287429728,0.1681502649024192]","[1,1,1]","[0.009615434738211456,0.14048900025710928]","[1,1,1]","[0.07508313715778656,-0.11310275573543216]","[1,1,1]","[-0.10495181260081568,0.12466755837682496]","[1,1,1]","[0.17557877000506955,0.07213181515262337]","[1,1,1]","[0.07595595266235962,0.10073019065640784]","[1,1,1]","[-0.11972278585314977,0.04702859819698717]","[1,1,1]","[0.12334623121873492,0.09682574262778482]","[1,1,1]","[-0.10077364024462925,-0.11805925282995178]","[1,1,1]","[-0.12635347542562717,-0.15391818547175726]","[1,1,1]","[-0.0890354787722083,0.02033369374589481]","[1,1,1]","[0.09775086216141762,0.14920555623113188]","[1,1,1]","[0.1275263220414045,0.009224096663559195]","[-1,-1,-1]","[0.02651318132131801,0.04170278370387749]","[1,1,1]","[-0.04337253670129251,-0.0010508940004025854]","[1,1,1]","[-0.1509866127693366,0.10547299727452225]","[1,1,1]","[0.1533750331230444,-0.10126762050055962]","[1,1,1]","[0.014490523721306192,-0.19244882896348028]","[1,1,1]","[0.11533819948309021,-0.14562529162829665]","[1,1,1]","[-0.02802997246607336,-0.10601612191259421]","[1,1,1]","[0.13444819895282634,-0.05823826970116778]","[1,1,1]","[-0.17646606403834145,0.02018336028337689]","[-1,-1,-1]","[0.07482792376457002,0.031576166234554386]","[1,1,1]","[-0.10832967398663369,-0.01750838611805145]","[1,1,1]","[-0.17035463426182307,0.0673508349083872]","[1,1,1]","[-0.030492474163301603,0.09239663909213654]","[1,1,1]","[-0.02491393680531327,0.19215696020561268]","[-1,-1,-1]","[0.02,0.02]",132.8056,0,27,27,207,1,,,,,,,
,,,,,,,5997043dbbe84800017964a7,682db3ac53d3621bbd066ad5,2025-05-21_12h06.41.314,cuing_paradigm_dot,2024.1.5,Win32,59.88023952,682d556593cb38ad0a074487,,,,,,,,,,,132.8063,133.3076,,,133.5593,134.0407,left,0.4648,,,,,,,,,0.55,,,,,,133.3077,133.5592,134.0408,"[0.08123412547052707,-0.11176241376386381]","[1,1,1]","[0.016537445543183905,-0.14782870725869346]","[1,1,1]","[-0.10516474814673875,0.04184725769076272]","[1,1,1]","[0.0342315745710357,0.11747647227310173]","[-1,-1,-1]","[0.1190174636505505,-0.0875738708051139]","[-1,-1,-1]","[-0.14135707090547805,-0.01633783968091951]","[1,1,1]","[0.1285077500985429,0.07901290919505673]","[-1,-1,-1]","[0.08992531188215905,0.033765757374518354]","[1,1,1]","[0.1688857525426659,-0.07594632620384378]","[1,1,1]","[-0.07096705597591774,-0.17340981635890132]","[1,1,1]","[-0.020415534153248264,-0.11108502446597386]","[1,1,1]","[-0.03967058362771019,-0.05526908442146998]","[1,1,1]","[-0.02870169787513362,0.030736204156416425]","[1,1,1]","[0.01651095948666694,0.012861462581914191]","[1,1,1]","[0.12298077850579876,0.13691810332165177]","[1,1,1]","[0.002647215880176437,-0.03694958877603123]","[1,1,1]","[-0.060808677813752154,0.07772584836829827]","[-1,-1,-1]","[-0.06036239909608489,-0.09356766242122114]","[-1,-1,-1]","[-0.07911880358990736,0.1325215537658318]","[-1,-1,-1]","[0.0033309437083334967,0.14532631067689647]","[-1,-1,-1]","[0.07567637763205273,0.10330731715572623]","[1,1,1]","[0.03716738825845923,-0.06731561370794753]","[1,1,1]","[-0.14314237516479064,0.08297746278176409]","[-1,-1,-1]","[0.18330604230428166,0.010546103252953966]","[-1,-1,-1]","[-0.004659541447182668,0.06964241645196459]","[-1,-1,-1]","[-0.11358557911989388,-0.08171966992622366]","[-1,-1,-1]","[0.18420398710034674,0.0705859379198866]","[1,1,1]","[-0.18277995659386762,-0.027948607278605125]","[1,1,1]","[0.1384202682855551,-0.12926431642793465]","[-1,-1,-1]","[-0.14079333855816195,0.12628168898747827]","[1,1,1]","[-0.1549728104297199,-0.111402586245]","[-1,-1,-1]","[0.07371786500415707,-0.029108267868803647]","[-1,-1,-1]","[0.02,0.02]",135.1352,0,28,28,142,1,,,,,,,
,,,,,,,5997043dbbe84800017964a7,682db3ac53d3621bbd066ad5,2025-05-21_12h06.41.314,cuing_paradigm_dot,2024.1.5,Win32,59.88023952,682d556593cb38ad0a074487,,,,,,,,,,,135.1357,135.6358,,,135.8899,136.402,left,0.4957,,,,,,,,,0.45,,,,,,135.636,135.8898,136.4021,"[0.09650115412252855,0.10172620176791063]","[1,1,1]","[-0.09641295533696356,0.05358086355213915]","[1,1,1]","[0.15034179846162124,-0.06683615958469016]","[-1,-1,-1]","[-0.08386783312150928,0.17787613617934672]","[-1,-1,-1]","[-0.07676547209139624,-0.13130324215239828]","[1,1,1]","[-0.00010726782861246384,-0.19069231971964531]","[1,1,1]","[0.016940484651931098,0.060263957598712774]","[-1,-1,-1]","[-0.0031088422534267454,-0.006491976510836234]","[1,1,1]","[0.051669229258189446,-0.08463198782892872]","[-1,-1,-1]","[0.05750013155858999,0.04532800553824727]","[-1,-1,-1]","[0.18377887817515023,0.03587614797443607]","[-1,-1,-1]","[-0.12134600390254767,-0.006797921036183112]","[1,1,1]","[-0.12333266916355017,-0.152503934668244]","[-1,-1,-1]","[0.08794809657372024,-0.03570894488460811]","[1,1,1]","[-0.18579872138915327,-0.024588346150714615]","[-1,-1,-1]","[-0.1677071853961533,0.10295059097847194]","[1,1,1]","[0.13961696901194867,0.04300963757741365]","[-1,-1,-1]","[0.09327746290440025,-0.16581965419431827]","[-1,-1,-1]","[-0.10327961517792765,-0.052719506700904445]","[1,1,1]","[-0.11291436661098454,0.10889869586093516]","[-1,-1,-1]","[0.07138684251578482,0.17855893370820014]","[-1,-1,-1]","[0.010607397571719815,0.14411045035437148]","[-1,-1,-1]","[0.12310430768688502,-0.014548567834581383]","[1,1,1]","[-0.07965029414948382,-0.17529010728277872]","[-1,-1,-1]","[-0.02803932946021861,-0.1583891347641671]","[1,1,1]","[-0.044083274857140455,0.028377863715078618]","[1,1,1]","[-0.1740457761808981,-0.06393579255055941]","[1,1,1]","[0.09740044754691465,-0.11094884237762957]","[1,1,1]","[-0.0034647188373727465,-0.051837781284749404]","[-1,-1,-1]","[-0.07603459278918648,-0.01681823518416989]","[-1,-1,-1]","[-0.14927543724520878,0.022832048379067906]","[-1,-1,-1]","[0.014531358471263661,-0.12229521974510332]","[-1,-1,-1]","[0.02,0.02]",137.5005,0,29,29,86,1,,,,,,,
,,,,,,,5997043dbbe84800017964a7,682db3ac53d3621bbd066ad5,2025-05-21_12h06.41.314,cuing_paradigm_dot,2024.1.5,Win32,59.88023952,682d556593cb38ad0a074487,,,,,,,,,,,137.5012,138.0015,,,138.2538,138.7643,left,0.4855,,,,,,,,,0.45,,,,,,138.0015,138.2537,138.7645,"[-0.17476459803284483,0.0022072276807312045]","[-1,-1,-1]","[0.06377724240044112,0.10468589669815948]","[-1,-1,-1]","[-0.15114752987442434,0.07265465790795882]","[-1,-1,-1]","[-0.0654984667007897,-0.1221355319877317]","[-1,-1,-1]","[-0.05649485114738919,0.17995468657882374]","[-1,-1,-1]","[-0.17123400168362815,-0.10286732436365606]","[-1,-1,-1]","[-0.02218918059758696,0.05156389495061833]","[-1,-1,-1]","[0.04693492597197404,-0.005306944181028882]","[1,1,1]","[-0.04182468172833181,-0.03298507097445673]","[1,1,1]","[0.10493910655361853,-0.11833250160823387]","[1,1,1]","[0.12802964272008793,-0.03066676230396517]","[-1,-1,-1]","[-0.10297126327319946,0.05815314847577275]","[-1,-1,-1]","[-0.12544757935776277,-0.05470442201653691]","[-1,-1,-1]","[0.045005009547961855,-0.19253718630849345]","[1,1,1]","[0.013717865803483024,0.030380122597757398]","[1,1,1]","[0.18426929567320982,0.0753674606041622]","[-1,-1,-1]","[0.0793169568535548,-0.1690895701031564]","[1,1,1]","[0.1052819694494844,0.1532891166213451]","[-1,-1,-1]","[-0.010633988355198215,-0.09900126246484746]","[1,1,1]","[0.1378214950214832,0.042015366047790166]","[1,1,1]","[-0.0026598064142684934,-0.04736774605618203]","[1,1,1]","[0.10206690304333496,0.008011331414617899]","[-1,-1,-1]","[0.04887392929113204,-0.13917672066272913]","[-1,-1,-1]","[0.09365927030412034,-0.068508849197216]","[1,1,1]","[-0.11478137554371687,0.10805964974420146]","[-1,-1,-1]","[-0.18683169870780691,-0.05194396942576656]","[-1,-1,-1]","[-0.011599011036764698,-0.19048926235577984]","[1,1,1]","[-0.037555770499003285,0.1329077764468889]","[1,1,1]","[-0.10677600437919595,-0.1640707226615613]","[1,1,1]","[0.17877866479320975,-0.0183094156441092]","[-1,-1,-1]","[0.13717358880396321,0.090092183985702]","[1,1,1]","[0.03127753895472846,0.15733552374419105]","[-1,-1,-1]","[0.02,0.02]",139.8653,0,30,30,88,1,,,,,,,
,,,,,,,5997043dbbe84800017964a7,682db3ac53d3621bbd066ad5,2025-05-21_12h06.41.314,cuing_paradigm_dot,2024.1.5,Win32,59.88023952,682d556593cb38ad0a074487,,,,,,,,,,,139.866,140.3652,,,140.6175,141.0633,left,0.4299,,,,,,,,,0.4,,,,,,140.3653,140.6174,141.0634,"[-0.10243421341196375,0.07119877592806835]","[-1,-1,-1]","[0.15777251157716898,0.017967980420603165]","[-1,-1,-1]","[0.06552834439215192,-0.13490873681987625]","[1,1,1]","[0.11488741352983801,-0.04781156279639178]","[-1,-1,-1]","[0.012333567277860228,0.1607942398179487]","[1,1,1]","[-0.01087686315269741,0.11568198376901191]","[1,1,1]","[-0.09058229089416787,0.15101586079724474]","[1,1,1]","[0.1728604837041582,0.07124082961334037]","[1,1,1]","[0.14616091670004905,0.11065529564916311]","[-1,-1,-1]","[-0.03638026007282285,-0.15824466021497902]","[1,1,1]","[0.17906706427608454,-0.059028953069833974]","[-1,-1,-1]","[-0.1326328262339846,-0.10593285574667989]","[1,1,1]","[-0.0557930362399389,0.0481250823569452]","[-1,-1,-1]","[0.058770114984702276,-0.08897706146399546]","[-1,-1,-1]","[0.024907703726350382,0.09018113617782875]","[-1,-1,-1]","[-0.04395930440863032,-0.03067068489088623]","[-1,-1,-1]","[-0.15218744536386142,-0.04057995403113448]","[-1,-1,-1]","[-0.08148050109357399,-0.14637254188983662]","[-1,-1,-1]","[0.029619713867380038,-0.021183997884696746]","[-1,-1,-1]","[0.09826415906293343,0.1250829114190011]","[1,1,1]","[-0.11256631766430888,0.02788890919915873]","[1,1,1]","[-0.0353091734553912,0.1682343801642093]","[1,1,1]","[0.008544747113591085,-0.08449173140618892]","[-1,-1,-1]","[0.008256521345310248,0.03481745446521594]","[1,1,1]","[0.04460311772828167,0.05501864673896831]","[1,1,1]","[-0.16195858189080184,0.09308817486412392]","[1,1,1]","[-0.09390373182107076,-0.08923407599618303]","[-1,-1,-1]","[0.19854955287965267,-0.003696257935152743]","[-1,-1,-1]","[0.005527732459434548,-0.17110503258596188]","[-1,-1,-1]","[0.019927135216409278,-0.124924334563588]","[-1,-1,-1]","[-0.035200640470528156,-0.10589241904855967]","[-1,-1,-1]","[-0.13166258727801605,-0.15019906370536257]","[-1,-1,-1]","[0.02,0.02]",142.1638,0,31,31,51,1,,,,,,,
,,,,,,,5997043dbbe84800017964a7,682db3ac53d3621bbd066ad5,2025-05-21_12h06.41.314,cuing_paradigm_dot,2024.1.5,Win32,59.88023952,682d556593cb38ad0a074487,,,,,,,,,,,142.1645,142.6629,,,142.9096,143.4256,left,0.4915,,,,,,,,,0.45,,,,,,142.6629,142.9095,143.4256,"[-0.10855683436678187,-0.06405891632192494]","[1,1,1]","[-0.0973915040065708,0.1244231979655694]","[1,1,1]","[0.031093521803654146,-0.15154241405922692]","[-1,-1,-1]","[-0.04548295181356276,0.0862481349268105]","[-1,-1,-1]","[-0.07872263021847783,-0.0003106231408572202]","[-1,-1,-1]","[0.013907290312230664,0.06878762102842406]","[1,1,1]","[0.07279646727514098,-0.1276693620823987]","[-1,-1,-1]","[-0.04879405640806257,0.18142924458244025]","[-1,-1,-1]","[-0.04677253481448312,0.04064654263175767]","[1,1,1]","[0.11632064235973379,-0.1279061838707765]","[1,1,1]","[-0.0047869714124916226,-0.0564711067987733]","[1,1,1]","[-0.17185558043481697,0.02472326459481078]","[-1,-1,-1]","[0.0015733412109836988,-0.007390842633756528]","[1,1,1]","[0.13157705786025828,-0.055905930850489574]","[-1,-1,-1]","[-0.17285684515448926,0.066015662426277]","[1,1,1]","[0.037908769839913814,-0.10777836222962031]","[-1,-1,-1]","[-0.09588466219115106,0.1713501208616107]","[-1,-1,-1]","[0.007316138664599697,0.1255587219168954]","[-1,-1,-1]","[0.10222707283808642,-0.17086760546891316]","[-1,-1,-1]","[0.039135018074753024,-0.05633759097896942]","[1,1,1]","[0.09613925557260788,0.10418708846074418]","[-1,-1,-1]","[-0.04637126994886975,-0.06102879028616646]","[1,1,1]","[-0.11751060365477856,-0.1193378378121798]","[-1,-1,-1]","[-0.13192300976760837,0.032875575068056544]","[-1,-1,-1]","[-0.1152285015440981,-0.02251390317762719]","[-1,-1,-1]","[-0.0241283955537632,-0.195852175144737]","[-1,-1,-1]","[0.11881386506808406,-0.0007420766148183963]","[-1,-1,-1]","[0.17395648341669684,-0.06046616572038874]","[1,1,1]","[0.1645402695345087,0.008717834460268867]","[-1,-1,-1]","[0.05602081969682331,0.060134786589611966]","[1,1,1]","[-0.17477839534841566,-0.02224497438224082]","[1,1,1]","[0.1348946835366059,0.05858257482171577]","[1,1,1]","[0.02,0.02]",144.529,0,32,32,61,1,,,,,,,
,,,,,,,5997043dbbe84800017964a7,682db3ac53d3621bbd066ad5,2025-05-21_12h06.41.314,cuing_paradigm_dot,2024.1.5,Win32,59.88023952,682d556593cb38ad0a074487,,,,,,,,,,,144.5297,145.0295,,,145.2735,145.6929,right,0.4134,,,,,,,,,0.55,,,,,,145.0295,145.2735,145.693,"[-0.13657004609249845,0.13987683717602667]","[-1,-1,-1]","[0.011510245476642833,0.08817862763309114]","[-1,-1,-1]","[-0.17149555019204946,-0.08944689048185198]","[-1,-1,-1]","[0.06746990582444329,0.061663106824392744]","[-1,-1,-1]","[-0.03544211333065882,-0.17042478381755774]","[1,1,1]","[-0.026535909557704317,0.13291507330724825]","[1,1,1]","[-0.1446440784282556,0.0740844647720524]","[-1,-1,-1]","[0.13329408917801508,0.11875072685398505]","[1,1,1]","[-0.027390271221544894,0.17741314843751202]","[1,1,1]","[0.02247254106407341,0.17176542662326338]","[1,1,1]","[-0.03650627105094482,-0.03485759302458079]","[1,1,1]","[0.05346987959968557,0.11705471944059927]","[-1,-1,-1]","[-0.027527159685492773,0.008206552636338625]","[-1,-1,-1]","[0.02437345947374515,-0.1866267022108454]","[1,1,1]","[0.10593312930628175,0.07981096981955522]","[1,1,1]","[0.17791644469795118,-0.0844261952500708]","[-1,-1,-1]","[-0.1628985271010866,0.01783035618632335]","[1,1,1]","[0.059747947320943295,-0.04804645149553246]","[1,1,1]","[0.12429295126986804,-0.11487572361733536]","[-1,-1,-1]","[-0.14176459044953252,-0.1225629236450013]","[1,1,1]","[0.12311093648941186,-0.025763855641464814]","[1,1,1]","[-0.08180241185958331,-0.021042896610055928]","[1,1,1]","[0.02188375633910575,-0.08151030404476345]","[1,1,1]","[0.08880263518031892,0.01573403249607796]","[-1,-1,-1]","[-0.020396157323687446,-0.1298557389841666]","[1,1,1]","[0.011038819111590556,-0.0375274279552507]","[1,1,1]","[-0.10436399536350682,-0.09329468091522718]","[1,1,1]","[-0.014701094651012134,0.04773610236270066]","[-1,-1,-1]","[0.07851386695550848,-0.09829124392671325]","[1,1,1]","[-0.06451356182943742,0.09009058890963448]","[-1,-1,-1]","[-0.17434161628496753,-0.0495414455742151]","[-1,-1,-1]","[0.03877110743607033,-0.1283324359972913]","[-1,-1,-1]","[0.02,0.02]",146.7914,0,33,33,122,1,,,,,,,
,,,,,,,5997043dbbe84800017964a7,682db3ac53d3621bbd066ad5,2025-05-21_12h06.41.314,cuing_paradigm_dot,2024.1.5,Win32,59.88023952,682d556593cb38ad0a074487,,,,,,,,,,,146.7919,147.2886,,,147.5428,148.1242,left,0.5654,,,,,,,,,0.4,,,,,,147.2888,147.5428,148.1242,"[-0.18360184442171237,-0.07497409090860857]","[1,1,1]","[-0.022212870040153626,-0.024506323689213808]","[-1,-1,-1]","[-0.10688460121459151,0.12452577111647196]","[-1,-1,-1]","[0.14172633181561983,-0.13439711373830385]","[-1,-1,-1]","[0.08227172807756382,-0.12301268058931861]","[-1,-1,-1]","[-0.14163730710286382,-0.0006426710894309848]","[1,1,1]","[0.17951467857789238,-0.03098524425090138]","[-1,-1,-1]","[0.048545372125547034,0.16767229675128684]","[1,1,1]","[-0.038255395868565585,-0.11074670010044296]","[-1,-1,-1]","[-0.002775234829155504,0.05818705400392831]","[-1,-1,-1]","[0.08225833110803635,0.07603575570760175]","[-1,-1,-1]","[-0.009773572640279367,0.13603142179880487]","[-1,-1,-1]","[0.0405385432475594,-0.1740875513100405]","[1,1,1]","[-0.097136719073402,-0.07942724969810076]","[-1,-1,-1]","[-0.10202557171005475,-0.12527227597209986]","[-1,-1,-1]","[0.07844071466034827,-0.017546422162168028]","[1,1,1]","[0.10536175500330139,0.149893360346684]","[1,1,1]","[0.015569731310486121,-0.11390525834102877]","[-1,-1,-1]","[0.0019739400755483198,-0.05912308406711488]","[1,1,1]","[0.11324436643562379,0.011558385278386454]","[1,1,1]","[-0.18043527998714326,0.060560652616576956]","[-1,-1,-1]","[0.03196292791342045,0.12620191449374418]","[-1,-1,-1]","[-0.08185151508074416,0.05908301100526368]","[1,1,1]","[-0.09863362128496961,0.1668539035869344]","[-1,-1,-1]","[0.14550954916921519,0.10579964297411147]","[1,1,1]","[0.18387427110150323,-0.07169570784162953]","[-1,-1,-1]","[0.1917024965120589,0.02093288880812592]","[1,1,1]","[-0.0734702047720906,-0.1662760228714279]","[1,1,1]","[0.12861575430365108,0.05536513167566707]","[-1,-1,-1]","[-0.009589572225229178,0.19633853077630103]","[1,1,1]","[0.06857860226422276,0.030425983348816393]","[-1,-1,-1]","[0.07139892432523354,-0.0723066072866622]","[-1,-1,-1]","[0.02,0.02]",149.2216,0,34,34,30,1,,,,,,,
,,,,,,,5997043dbbe84800017964a7,682db3ac53d3621bbd066ad5,2025-05-21_12h06.41.314,cuing_paradigm_dot,2024.1.5,Win32,59.88023952,682d556593cb38ad0a074487,,,,,,,,,,,149.2223,149.7179,,,149.9574,150.5676,left,0.5871,,,,,,,,,0.6,,,,,,149.7181,149.9574,150.5676,"[0.0688864501398524,-0.030783252333595718]","[-1,-1,-1]","[-0.01732922267706417,-0.1862020991406131]","[1,1,1]","[-0.04951536335913152,0.13085876337690877]","[1,1,1]","[0.08116396741084868,-0.17716146613796704]","[-1,-1,-1]","[-0.10613146501615733,0.16787699299224534]","[1,1,1]","[0.10783448644388056,-0.12681397842944064]","[-1,-1,-1]","[0.13079726411337503,0.012221914372735796]","[-1,-1,-1]","[-0.03745168826894362,-0.03748905490818738]","[1,1,1]","[-0.08859541982794246,-0.01209475347205709]","[1,1,1]","[0.024822268323732778,-0.13935854736131356]","[1,1,1]","[-0.024577236317031407,-0.1447693273230749]","[1,1,1]","[0.16713479224611272,-0.10585944847196037]","[-1,-1,-1]","[-0.10813633250946432,-0.12074945705074684]","[1,1,1]","[0.11704102619063239,0.10117198147107813]","[1,1,1]","[0.014514969894010027,-0.003907385194364776]","[-1,-1,-1]","[-0.1227239239984144,0.05322131348792861]","[1,1,1]","[-0.0189867679675009,0.037555906389461755]","[-1,-1,-1]","[0.049227578146841526,0.19259204472077332]","[1,1,1]","[0.09659055904000435,-0.0814634766968516]","[1,1,1]","[0.08216183649705511,0.13027436264971862]","[1,1,1]","[0.17683035826608956,-0.00975052527562856]","[1,1,1]","[0.1747693166335947,0.08376520301876667]","[-1,-1,-1]","[0.03132716391119179,-0.06918208352148346]","[-1,-1,-1]","[-0.0653151828456188,0.021042434417276032]","[1,1,1]","[-0.16803553627198245,-0.04537502025333832]","[-1,-1,-1]","[-0.07529525658070375,-0.16843318616867725]","[1,1,1]","[0.13072386934121147,-0.05200594655397867]","[-1,-1,-1]","[-0.10888445068282201,0.10909392229982143]","[1,1,1]","[0.027631155106391567,0.07910645549419164]","[1,1,1]","[0.06347500324484487,-0.11956890105885107]","[-1,-1,-1]","[-0.012236183543043006,-0.10629270772792432]","[-1,-1,-1]","[-0.06559770877344576,-0.09470842353408968]","[1,1,1]","[0.02,0.02]",151.6657,0,35,35,177,1,,,,,,,
,,,,,,,5997043dbbe84800017964a7,682db3ac53d3621bbd066ad5,2025-05-21_12h06.41.314,cuing_paradigm_dot,2024.1.5,Win32,59.88023952,682d556593cb38ad0a074487,,,,,,,,,,,151.6665,152.1667,,,152.4168,152.8001,left,0.3633,,,,,,,,,0.1,,,,,,152.1669,152.4167,152.8001,"[0.03898713026182252,0.06957127674752446]","[-1,-1,-1]","[0.10521716480239335,-0.16335840176113922]","[-1,-1,-1]","[-0.062002593048328024,0.09340606674515278]","[-1,-1,-1]","[-0.048380183119090946,-0.11826706527231262]","[-1,-1,-1]","[-0.09506307777873067,0.05656386574874496]","[-1,-1,-1]","[-0.08202079518260524,-0.042228156956510034]","[-1,-1,-1]","[0.08252641444216122,-0.12607673311819362]","[-1,-1,-1]","[0.12007767254691036,0.009399273123136992]","[-1,-1,-1]","[0.1385257638243535,0.07879170499151572]","[-1,-1,-1]","[-0.12254815149008888,-0.046397480425377766]","[-1,-1,-1]","[-0.04922877152833961,0.0077194843986962206]","[-1,-1,-1]","[0.029574737020179508,0.0234708358000046]","[-1,-1,-1]","[-0.15191569051819934,-0.07692604415687321]","[1,1,1]","[-0.14111905310903988,-0.11912824349472181]","[-1,-1,-1]","[-0.029153463774933976,-0.07007638261617212]","[-1,-1,-1]","[-0.099171882107756,0.011616716975542092]","[-1,-1,-1]","[0.07457353429871508,0.024705887121956545]","[-1,-1,-1]","[0.01240946807655563,0.15761276504960456]","[-1,-1,-1]","[0.05096374690772756,-0.030139389913373754]","[-1,-1,-1]","[-0.15176399380452368,0.05922293513665502]","[1,1,1]","[-0.09315013651925272,-0.1208592932952625]","[-1,-1,-1]","[0.028622205507897704,0.11916145235727427]","[-1,-1,-1]","[0.09235216655495093,0.17183789647033249]","[-1,-1,-1]","[0.033693214559154146,-0.1438112041291713]","[-1,-1,-1]","[0.1566953987263871,-0.012428769019992396]","[-1,-1,-1]","[-0.04218562408897592,0.15297658030671302]","[-1,-1,-1]","[0.12243642149753035,-0.048433029584947655]","[-1,-1,-1]","[0.01636928223381593,-0.08720218580147805]","[-1,-1,-1]","[0.045494523757486076,-0.18970337358511433]","[-1,-1,-1]","[-0.034126314412168984,0.1962311080778276]","[1,1,1]","[0.07943857185027157,0.07157273706323813]","[-1,-1,-1]","[-0.15252776758030528,-0.0013583089418650503]","[-1,-1,-1]","[0.02,0.02]",153.897,0,36,36,10,1,,,,,,,
,,,,,,,5997043dbbe84800017964a7,682db3ac53d3621bbd066ad5,2025-05-21_12h06.41.314,cuing_paradigm_dot,2024.1.5,Win32,59.88023952,682d556593cb38ad0a074487,,,,,,,,,,,153.8977,154.3992,,,154.6517,155.1658,left,0.498,,,,,,,,,0.45,,,,,,154.3992,154.6516,155.1658,"[0.0831567994821077,-0.16524407886068215]","[-1,-1,-1]","[-0.0030813241064091956,-0.0043950114715367115]","[1,1,1]","[-0.13754839013107856,0.13669628915155718]","[-1,-1,-1]","[-0.08771753953349178,-0.11521414738898182]","[-1,-1,-1]","[-0.03551133388766431,0.03980536471721189]","[1,1,1]","[-0.07214641622031295,-0.1541993772333336]","[1,1,1]","[0.17846257113356287,-0.06424622607794603]","[-1,-1,-1]","[0.06048610170777721,0.016051555694741433]","[1,1,1]","[-0.17184519049175287,0.004544713419722724]","[-1,-1,-1]","[0.007347346295487322,-0.1209829777908305]","[1,1,1]","[-0.03306478878518633,-0.13349697040828443]","[-1,-1,-1]","[-0.09121256553477435,0.16201761668039366]","[1,1,1]","[0.10349332274146761,-0.06572773910945796]","[1,1,1]","[-0.10900512478200877,-0.015335427955702313]","[1,1,1]","[0.11604948234033391,0.031488335678953545]","[1,1,1]","[-0.14647198113553114,0.08663624127561342]","[1,1,1]","[0.03347342083909291,0.10550755768340578]","[-1,-1,-1]","[-0.05814801429774819,0.11737419617752455]","[-1,-1,-1]","[0.018069467847655986,0.03808036582025005]","[-1,-1,-1]","[-0.14033437134999918,-0.12320659095663726]","[-1,-1,-1]","[0.07257879511903195,0.16169758108860519]","[-1,-1,-1]","[0.06191982175470712,-0.09321909879966953]","[1,1,1]","[-0.08622470567905197,0.021573664526187357]","[-1,-1,-1]","[0.13726585602142585,0.08755570153052061]","[1,1,1]","[0.14941614858245256,0.12694920981503588]","[1,1,1]","[0.005002108725789438,0.19239669394754433]","[-1,-1,-1]","[-0.1699346346687318,0.04746002903489199]","[-1,-1,-1]","[0.1806949705780617,0.03851600841770041]","[-1,-1,-1]","[0.1203083751966799,-0.11599481907714355]","[-1,-1,-1]","[0.0004494444141425803,-0.06618679346584457]","[-1,-1,-1]","[-0.03886655219787636,-0.1878632717197462]","[1,1,1]","[0.027412910274337052,-0.18526940271639372]","[-1,-1,-1]","[0.02,0.02]",156.2609,0,37,37,79,1,,,,,,,
,,,,,,,5997043dbbe84800017964a7,682db3ac53d3621bbd066ad5,2025-05-21_12h06.41.314,cuing_paradigm_dot,2024.1.5,Win32,59.88023952,682d556593cb38ad0a074487,,,,,,,,,,,156.2615,156.7654,,,157.0149,157.4095,left,0.3851,,,,,,,,,0.1,,,,,,156.7655,157.0149,157.4095,"[0.1271889353653434,0.10317673804243434]","[-1,-1,-1]","[0.020595299343662773,-0.11261189428522489]","[-1,-1,-1]","[-0.1022474475069507,-0.06443269280411033]","[-1,-1,-1]","[-0.05387650714221594,0.1784134838765241]","[-1,-1,-1]","[0.06972698343112833,-0.013245715652035167]","[-1,-1,-1]","[-0.019006431812459552,-0.07274831079610267]","[1,1,1]","[-0.11268931418940906,0.11922623877025082]","[-1,-1,-1]","[-0.04724043389315966,-0.14328324643102713]","[-1,-1,-1]","[-0.12984592143461615,-0.14058524025260832]","[-1,-1,-1]","[0.1400391095730078,-0.0751352410259739]","[-1,-1,-1]","[-0.06749146343003289,-0.182575398217279]","[-1,-1,-1]","[0.03481821123168743,-0.06313202793138838]","[-1,-1,-1]","[0.07285483554762423,0.02704662188654037]","[-1,-1,-1]","[0.18037059393611674,0.0440882423592302]","[-1,-1,-1]","[-0.061712272771531365,-0.047836294413882076]","[1,1,1]","[-0.1386114839920381,-0.1004032743379792]","[-1,-1,-1]","[-0.056706697144223904,0.10695876110268104]","[-1,-1,-1]","[0.18905705193045833,-0.016588046880917036]","[-1,-1,-1]","[0.0781695128992341,0.1757858346533067]","[-1,-1,-1]","[0.019302640109095694,0.04665047570837608]","[-1,-1,-1]","[-0.17728712383576328,-0.054196268489020795]","[-1,-1,-1]","[-0.16782250166182944,0.08614514660073466]","[-1,-1,-1]","[-0.11108813242654896,0.07816791391072044]","[-1,-1,-1]","[0.0858387437431682,-0.10000972932461787]","[1,1,1]","[0.060315660141690465,-0.16315673728520622]","[-1,-1,-1]","[0.12232116413761117,0.15558164074348171]","[-1,-1,-1]","[-0.1420909772043007,-0.01919299342443579]","[-1,-1,-1]","[-0.10683523818582824,0.038142744423305217]","[-1,-1,-1]","[-0.06684902695798961,0.005015942468371678]","[-1,-1,-1]","[0.011874596686041088,-0.1801478065117792]","[-1,-1,-1]","[0.06491264277533834,0.07406630438699506]","[-1,-1,-1]","[0.015734883583104934,0.15761827872719295]","[-1,-1,-1]","[0.02,0.02]",158.5078,0,38,38,29,1,,,,,,,
,,,,,,,5997043dbbe84800017964a7,682db3ac53d3621bbd066ad5,2025-05-21_12h06.41.314,cuing_paradigm_dot,2024.1.5,Win32,59.88023952,682d556593cb38ad0a074487,,,,,,,,,,,158.5086,159.0111,,,159.2624,159.6237,right,0.3382,,,,,,,,,0.6,,,,,,159.0111,159.2624,159.6239,"[-0.0035209286833286168,0.0022503838527602165]","[-1,-1,-1]","[0.15007747480014774,0.06169275434097684]","[-1,-1,-1]","[0.010085128971565384,-0.15747274137377176]","[1,1,1]","[0.17009476292404768,-0.06072713255590496]","[1,1,1]","[-0.040547943145530785,-0.1311621618569958]","[1,1,1]","[-0.019242209739209492,0.10365396118465067]","[1,1,1]","[-0.005529557206430527,-0.04073294683150106]","[-1,-1,-1]","[-0.05234880741580221,0.0291598858082785]","[1,1,1]","[-0.06716863179201195,0.1167525318552819]","[-1,-1,-1]","[0.06468437513090107,0.07165884161194352]","[-1,-1,-1]","[-0.10040165097840521,-0.160883883336376]","[1,1,1]","[-0.1255530452298333,-0.12390018888758915]","[1,1,1]","[-0.13347698573928676,0.016684077193883744]","[1,1,1]","[-0.10110399662825188,0.04792836884186416]","[1,1,1]","[0.05169381511169622,-0.08116926500413925]","[1,1,1]","[0.14980527877639258,-0.01915612981724623]","[-1,-1,-1]","[0.07748241946463252,0.14159828405112668]","[1,1,1]","[0.04696976410426525,-0.016653109513377565]","[-1,-1,-1]","[0.12691347708022377,0.14022448286988334]","[1,1,1]","[0.10998294336732359,-0.005680857251726312]","[1,1,1]","[-0.11946770015378795,0.09018219722709545]","[-1,-1,-1]","[0.026189677819007502,0.18192324539018007]","[1,1,1]","[0.18435138246668714,0.018992110395989883]","[1,1,1]","[0.12486167322212063,-0.12129155605245436]","[1,1,1]","[-0.03220605086003232,-0.08804051345935639]","[-1,-1,-1]","[0.06498310005386664,-0.161413363206499]","[-1,-1,-1]","[-0.1681627944632509,0.06217713709416776]","[1,1,1]","[-0.10901976640535374,0.16686489392840367]","[-1,-1,-1]","[0.03726257240324153,-0.1940743408712769]","[1,1,1]","[-0.1597899338793858,-0.055783492432419514]","[-1,-1,-1]","[0.11377387424668196,-0.05219971497326814]","[1,1,1]","[-0.01329167145704549,0.1443674373797216]","[-1,-1,-1]","[0.02,0.02]",160.722,0,39,39,158,1,,,,,,,
,,,,,,,5997043dbbe84800017964a7,682db3ac53d3621bbd066ad5,2025-05-21_12h06.41.314,cuing_paradigm_dot,2024.1.5,Win32,59.88023952,682d556593cb38ad0a074487,,,,,,,,,,,160.7231,161.2231,,,161.4772,162.0039,right,0.5099,,,,,,,,,0.5,,,,,,161.2232,161.4772,162.0039,"[-0.1790514046776736,-0.056025791686687025]","[1,1,1]","[-0.017724911251891524,-0.13521073596338287]","[-1,-1,-1]","[-0.10403134752280631,-0.10611154940858811]","[-1,-1,-1]","[-0.0021623137226008254,0.0744006026277415]","[1,1,1]","[0.10730282732283086,-0.10566074084996345]","[1,1,1]","[0.0130170408096344,0.017482187311182184]","[-1,-1,-1]","[0.15341547815692425,0.11275512741123989]","[-1,-1,-1]","[-0.06267833086004519,-0.08650247127793603]","[1,1,1]","[-0.1333429658883887,0.01271983110893867]","[1,1,1]","[-0.062044602571617445,0.18213179089667456]","[-1,-1,-1]","[0.11751168545225622,-0.1586704905145497]","[-1,-1,-1]","[-0.014249212256428093,0.174156051812158]","[-1,-1,-1]","[0.04690139572426445,-0.13356478005022426]","[1,1,1]","[-0.10868205904645184,0.09218948893049676]","[-1,-1,-1]","[0.15287475418067956,-0.03313999218043845]","[-1,-1,-1]","[-0.10028591296992272,-0.01096231430637614]","[1,1,1]","[0.05239805995711238,0.19229264848703678]","[-1,-1,-1]","[0.12226541498831149,0.15516346779266402]","[-1,-1,-1]","[0.04844322674567523,-0.01929196402337544]","[1,1,1]","[-0.04145621790936102,0.10145490699725725]","[1,1,1]","[-0.011671502000616143,-0.017436386564778198]","[-1,-1,-1]","[-0.10896274356448007,0.16722210767165194]","[-1,-1,-1]","[0.10746581505996887,-0.04252578268867028]","[1,1,1]","[0.06140718056596809,0.03397985403367588]","[-1,-1,-1]","[-0.19336325162794585,0.022870186240971]","[1,1,1]","[-0.03845061736667054,-0.18616801236737165]","[1,1,1]","[0.07867246677389972,0.13616088659329847]","[1,1,1]","[-0.1087540658470959,-0.14922659091376858]","[-1,-1,-1]","[-0.1587587248645663,0.10505659141094129]","[1,1,1]","[-0.16671336120468097,-0.10467289458436253]","[-1,-1,-1]","[0.1840472827483195,-0.07651680837313221]","[1,1,1]","[0.06651016392354339,0.08527384701465335]","[1,1,1]","[0.02,0.02]",163.1024,0,40,40,102,1,,,,,,,
,,,,,,,5997043dbbe84800017964a7,682db3ac53d3621bbd066ad5,2025-05-21_12h06.41.314,cuing_paradigm_dot,2024.1.5,Win32,59.88023952,682d556593cb38ad0a074487,,,,,,,,,,,163.1033,163.606,,,163.8523,164.4678,right,0.5917,,,,,,,,,0.55,,,,,,163.6061,163.8523,164.4681,"[0.15783502878048034,0.0784992774025235]","[1,1,1]","[0.10334232947884078,-0.16446473469301665]","[-1,-1,-1]","[0.15366697119275255,-0.013780887722989082]","[-1,-1,-1]","[-0.03370388176123437,0.13529754077846545]","[-1,-1,-1]","[0.11600294113429291,0.12529957874976586]","[-1,-1,-1]","[-0.1537323329635402,-0.10760717315019365]","[-1,-1,-1]","[0.07152015273806477,-0.12437513560802503]","[-1,-1,-1]","[-0.15529912537906387,0.09846722494975262]","[-1,-1,-1]","[-0.07012089471044657,-0.1449051930800683]","[1,1,1]","[-0.0059359488946496685,0.16421756102254037]","[-1,-1,-1]","[0.04861934163436299,-0.0009707509886097005]","[1,1,1]","[0.13091970139605177,-0.12629640232378087]","[1,1,1]","[-0.13853608903334616,0.025585395014995065]","[1,1,1]","[0.09958233157777262,0.16532993916729322]","[-1,-1,-1]","[0.19051053337499313,-0.05960750345692872]","[1,1,1]","[0.04300655922406989,-0.05560588214425005]","[1,1,1]","[-0.16840486606315486,-0.07027964502152827]","[1,1,1]","[0.13480579390627712,0.041183815630486904]","[-1,-1,-1]","[-0.019654854275214597,0.07000572954102179]","[-1,-1,-1]","[-0.08838967460805555,0.06028076542652048]","[1,1,1]","[-0.08917884806036379,-0.05367449664483941]","[1,1,1]","[-0.04487236528481835,0.01112011425740466]","[1,1,1]","[0.08290690020813522,0.05372369784736057]","[1,1,1]","[0.006865275336989012,-0.08135670379474311]","[1,1,1]","[0.03621665902951599,0.04048055566345525]","[1,1,1]","[-0.05461769442861877,0.09443833887183918]","[-1,-1,-1]","[0.04146168914160904,0.14890575039827741]","[1,1,1]","[0.13566681726076932,-0.08261574517398652]","[1,1,1]","[-0.1830303710999108,0.023278534335704773]","[1,1,1]","[-0.017082138009358348,-0.04877106690972512]","[1,1,1]","[0.19226935495533629,0.006276764581912391]","[-1,-1,-1]","[0.05238394944519986,-0.1661794448594298]","[-1,-1,-1]","[0.02,0.02]",165.5699,0,41,41,148,1,,,,,,,
,,,,,,,5997043dbbe84800017964a7,682db3ac53d3621bbd066ad5,2025-05-21_12h06.41.314,cuing_paradigm_dot,2024.1.5,Win32,59.88023952,682d556593cb38ad0a074487,,,,,,,,,,,165.5707,166.0692,,,166.3213,166.8682,left,0.5313,,,,,,,,,0.4,,,,,,166.0692,166.3212,166.8683,"[-0.002098780461005117,-0.09104383030007554]","[-1,-1,-1]","[0.14367205120570004,0.09054625823667145]","[1,1,1]","[0.16973484072337983,0.023075106683229155]","[-1,-1,-1]","[-0.13913044704843924,0.07522866042175325]","[-1,-1,-1]","[0.08938607210868055,0.051129898791639365]","[1,1,1]","[-0.0017940090620375238,0.07703693235807746]","[1,1,1]","[-0.04588938743955812,-0.005484260004635656]","[1,1,1]","[-0.0032456339479168404,0.19264447506416413]","[-1,-1,-1]","[-0.0372337548046373,0.1268145948367099]","[1,1,1]","[-0.15190408283975032,-0.015534072223625498]","[-1,-1,-1]","[0.12184792846256949,-0.12253326997803343]","[-1,-1,-1]","[0.018936067549332643,-0.14283741966541494]","[-1,-1,-1]","[-0.07754517635193926,-0.15861155868765925]","[1,1,1]","[-0.06145595292628374,-0.06774419215197157]","[-1,-1,-1]","[0.10200135944587543,0.007025394079362274]","[-1,-1,-1]","[0.06264484365498107,0.10133062369724656]","[1,1,1]","[-0.12613564716056183,0.12542445678295763]","[1,1,1]","[0.07385210506740314,-0.09745079646308358]","[-1,-1,-1]","[-0.012169382941003224,0.029871152010039707]","[-1,-1,-1]","[0.15915718862891923,-0.03278587054018971]","[-1,-1,-1]","[0.11000030998106379,-0.06995146497825744]","[-1,-1,-1]","[0.029386775923475314,-0.05686216991688188]","[1,1,1]","[-0.0577479568383698,0.08057118438761478]","[-1,-1,-1]","[-0.10261101726282626,0.16814736725157348]","[-1,-1,-1]","[0.0956047920464743,0.16787680106349498]","[1,1,1]","[-0.09648790187565863,0.04915433503665252]","[-1,-1,-1]","[0.023523866227083638,0.008750480181696723]","[1,1,1]","[0.07591431125912423,-0.16136766908679942]","[-1,-1,-1]","[0.04476268897485128,0.18267056390597156]","[-1,-1,-1]","[0.17814250553703814,-0.07985317355069936]","[1,1,1]","[-0.021570594498137172,-0.15231826059986472]","[1,1,1]","[-0.015743132909966404,-0.19470949058402767]","[-1,-1,-1]","[0.02,0.02]",167.969,0,42,42,43,1,,,,,,,
,,,,,,,5997043dbbe84800017964a7,682db3ac53d3621bbd066ad5,2025-05-21_12h06.41.314,cuing_paradigm_dot,2024.1.5,Win32,59.88023952,682d556593cb38ad0a074487,,,,,,,,,,,167.9697,168.4665,,,168.7171,169.1174,right,0.3828,,,,,,,,,0.55,,,,,,168.4668,168.7171,169.1174,"[0.06415925695347173,0.033571989898003814]","[1,1,1]","[-0.0039900561917828575,0.11822150460283125]","[-1,-1,-1]","[0.1773321806940611,0.06988850142121025]","[-1,-1,-1]","[-0.18083421807091038,0.04447244862325075]","[1,1,1]","[-0.12899621712674783,0.151765775078446]","[-1,-1,-1]","[0.1696207648541283,-0.035932033360070705]","[1,1,1]","[0.04906209270278745,-0.15933898789473028]","[1,1,1]","[-0.04660935063650436,-0.16218470100435556]","[1,1,1]","[0.047643597521948404,-0.039172207739726954]","[1,1,1]","[0.15896626888865667,-0.10672099938654175]","[1,1,1]","[0.0031288312261763145,-0.061667739746615394]","[1,1,1]","[-0.16467486879954024,-0.0184996106515767]","[1,1,1]","[-0.06566529729112992,-0.025054203589137118]","[-1,-1,-1]","[0.11581361326629264,-0.11675500379920928]","[-1,-1,-1]","[-0.07477378455940613,0.10611801636630737]","[1,1,1]","[-0.07125321694953397,-0.11735928636325971]","[1,1,1]","[-0.004010969265368004,-0.16530394531016568]","[1,1,1]","[0.11809901331738847,0.023886716563201474]","[-1,-1,-1]","[-0.1227651912202208,0.07880928971734273]","[-1,-1,-1]","[0.07842702202625454,-0.098625932346466]","[1,1,1]","[-0.05739838437691702,0.037372898426313486]","[-1,-1,-1]","[0.01628407984366124,0.155076551196372]","[-1,-1,-1]","[-0.02059312755985712,0.020633424192882045]","[-1,-1,-1]","[0.08238787817167355,0.13078037299837642]","[1,1,1]","[-0.0022374286318431053,0.05704782463143277]","[1,1,1]","[0.15952476920173977,0.02756127425416285]","[-1,-1,-1]","[-0.02530069653812435,-0.02914230591357296]","[1,1,1]","[0.14555349326977732,0.1043107052178842]","[-1,-1,-1]","[-0.14259197974457288,-0.062257613113341735]","[1,1,1]","[-0.0387170325311811,-0.07654527495316102]","[1,1,1]","[0.0914405015131179,-0.16841089005515839]","[-1,-1,-1]","[0.10096927484460408,0.08771182563394343]","[-1,-1,-1]","[0.02,0.02]",170.2127,0,43,43,131,1,,,,,,,
,,,,,,,5997043dbbe84800017964a7,682db3ac53d3621bbd066ad5,2025-05-21_12h06.41.314,cuing_paradigm_dot,2024.1.5,Win32,59.88023952,682d556593cb38ad0a074487,,,,,,,,,,,170.2135,170.71,,,170.9653,171.7761,left,0.7861,,,,,,,,,0.5,,,,,,170.7101,170.9652,171.7762,"[-0.059054518775190905,-0.022406952176778308]","[-1,-1,-1]","[-0.14162935060781404,-0.11684306316904654]","[1,1,1]","[0.106304315458261,-0.09897008397025969]","[-1,-1,-1]","[-0.1346699866732914,0.002741420728555071]","[-1,-1,-1]","[-0.030707471127873698,-0.10912140258953075]","[-1,-1,-1]","[-0.10124465388629471,-0.14241708008957804]","[-1,-1,-1]","[0.048158433431059425,0.16865685130261135]","[1,1,1]","[0.09012068306110546,-0.05086493077017368]","[1,1,1]","[-0.011140863349953609,0.053938453772447874]","[1,1,1]","[-0.07486350827111846,0.15342714986643322]","[-1,-1,-1]","[0.18813133335706564,-0.0017972155225361613]","[1,1,1]","[0.03410444497274801,-0.10476853847354349]","[-1,-1,-1]","[-0.05824701803369254,0.06534231825452498]","[-1,-1,-1]","[-0.18207105252283107,0.061862527670501766]","[1,1,1]","[0.12888815560663014,0.027260019877992498]","[1,1,1]","[0.1495077009629886,-0.04389276022589214]","[1,1,1]","[-0.06963311638724211,-0.07811827618595106]","[1,1,1]","[0.07091424869780646,0.07130175049731376]","[-1,-1,-1]","[0.08316181781762515,0.12083004638553871]","[-1,-1,-1]","[0.04435011615791115,-0.04980583522677789]","[-1,-1,-1]","[0.011011149959359687,-0.18594392384748884]","[1,1,1]","[0.07555051937349191,-0.012941724025207886]","[-1,-1,-1]","[-0.007306992776069379,0.1324891321361897]","[1,1,1]","[-0.16953879451760692,-0.06913120535906538]","[-1,-1,-1]","[0.12393745763795884,0.13740443572273428]","[1,1,1]","[0.14663689168013463,0.08333724561033236]","[1,1,1]","[-0.11093742500451768,0.03877115677222051]","[-1,-1,-1]","[-0.139764787769712,0.11475005044095932]","[-1,-1,-1]","[0.0975916548508013,-0.14609526804255465]","[1,1,1]","[0.06385327614895467,0.02813285290176364]","[1,1,1]","[-0.12189509264606481,0.1576113975914358]","[-1,-1,-1]","[0.019518111793457874,0.015836338893849777]","[1,1,1]","[0.02,0.02]",172.8784,0,44,44,116,1,,,,,,,
