right,left,explain.started,explain.stopped,key_resp_3.keys,key_resp_3.rt,key_resp_3.duration,participant,session,date,expName,psychopyVersion,OS,frameRate,study_id,explain_2.started,explain_2.stopped,key_resp_4.keys,key_resp_4.rt,key_resp_4.duration,explain_3.started,explain_3.stopped,key_resp_5.keys,key_resp_5.rt,key_resp_5.duration,fixation.started,fixation.stopped,practice.started,practice.stopped,response.started,response.stopped,key_resp.keys,key_resp.rt,key_resp.duration,feedback.started,feedback.stopped,trials_2.thisRepN,trials_2.thisTrialN,trials_2.thisN,trials_2.thisIndex,trials_2.ran,white_ratio,explain_4.started,explain_4.stopped,key_resp_6.keys,key_resp_6.rt,key_resp_6.duration,dotDisplay.started,dotDisplay.stopped,ITI.started,polygon_1.pos,polygon_1.color,polygon_2.pos,polygon_2.color,polygon_3.pos,polygon_3.color,polygon_4.pos,polygon_4.color,polygon_5.pos,polygon_5.color,polygon_6.pos,polygon_6.color,polygon_7.pos,polygon_7.color,polygon_8.pos,polygon_8.color,polygon_9.pos,polygon_9.color,polygon_10.pos,polygon_10.color,polygon_11.pos,polygon_11.color,polygon_12.pos,polygon_12.color,polygon_13.pos,polygon_13.color,polygon_14.pos,polygon_14.color,polygon_15.pos,polygon_15.color,polygon_16.pos,polygon_16.color,polygon_17.pos,polygon_17.color,polygon_18.pos,polygon_18.color,polygon_19.pos,polygon_19.color,polygon_20.pos,polygon_20.color,polygon_21.pos,polygon_21.color,polygon_22.pos,polygon_22.color,polygon_23.pos,polygon_23.color,polygon_24.pos,polygon_24.color,polygon_25.pos,polygon_25.color,polygon_26.pos,polygon_26.color,polygon_27.pos,polygon_27.color,polygon_28.pos,polygon_28.color,polygon_29.pos,polygon_29.color,polygon_30.pos,polygon_30.color,polygon_31.pos,polygon_31.color,polygon_32.pos,polygon_32.color,dot_size,ITI.stopped,trials.thisRepN,trials.thisTrialN,trials.thisN,trials.thisIndex,trials.ran,break_2.started,break_2.stopped,trials_3.thisRepN,trials_3.thisTrialN,trials_3.thisN,trials_3.thisIndex,trials_3.ran
subject chose black,subject chose white,0.0005,37.4279,space,22.4121,,5a732956f660ae0001a9b011,682f0fbb33061f80d581d4c0,2025-05-22_13h52.17.848,cuing_paradigm_dot,2024.1.5,Win32,59.88023952,682d573fa47f1360d1451895,,,,,,,,,,,,,,,,,,,,,,,,,,,,,,,,,,,,,,,,,,,,,,,,,,,,,,,,,,,,,,,,,,,,,,,,,,,,,,,,,,,,,,,,,,,,,,,,,,,,,,,,,,,,,,,,,
,,,,,,,5a732956f660ae0001a9b011,682f0fbb33061f80d581d4c0,2025-05-22_13h52.17.848,cuing_paradigm_dot,2024.1.5,Win32,59.88023952,682d573fa47f1360d1451895,37.4284,69.4836,space,2.0378,,,,,,,,,,,,,,,,,,,,,,,,,,,,,,,,,,,,,,,,,,,,,,,,,,,,,,,,,,,,,,,,,,,,,,,,,,,,,,,,,,,,,,,,,,,,,,,,,,,,,,,,,,,,,
,,,,,,,5a732956f660ae0001a9b011,682f0fbb33061f80d581d4c0,2025-05-22_13h52.17.848,cuing_paradigm_dot,2024.1.5,Win32,59.88023952,682d573fa47f1360d1451895,,,,,,69.4838,73.8585,space,1.3585,,,,,,,,,,,,,,,,,,,,,,,,,,,,,,,,,,,,,,,,,,,,,,,,,,,,,,,,,,,,,,,,,,,,,,,,,,,,,,,,,,,,,,,,,,,,,,,,,,,,,,,,
,,,,,,,5a732956f660ae0001a9b011,682f0fbb33061f80d581d4c0,2025-05-22_13h52.17.848,cuing_paradigm_dot,2024.1.5,Win32,59.88023952,682d573fa47f1360d1451895,,,,,,,,,,,73.8897,74.3739,74.3745,74.61,74.6103,75.2563,left,0.6171,,75.2565,76.3537,0,0,0,0,1,0.8,,,,,,,,,,,,,,,,,,,,,,,,,,,,,,,,,,,,,,,,,,,,,,,,,,,,,,,,,,,,,,,,,,,,,,,,,,,,,,,,,,,,,,
,,,,,,,5a732956f660ae0001a9b011,682f0fbb33061f80d581d4c0,2025-05-22_13h52.17.848,cuing_paradigm_dot,2024.1.5,Win32,59.88023952,682d573fa47f1360d1451895,,,,,,,,,,,76.3546,76.8523,76.8524,77.1052,77.1052,77.5347,right,0.4023,,77.5349,78.6363,0,1,1,1,1,0.2,,,,,,,,,,,,,,,,,,,,,,,,,,,,,,,,,,,,,,,,,,,,,,,,,,,,,,,,,,,,,,,,,,,,,,,,,,,,,,,,,,,,,,
,,,,,,,5a732956f660ae0001a9b011,682f0fbb33061f80d581d4c0,2025-05-22_13h52.17.848,cuing_paradigm_dot,2024.1.5,Win32,59.88023952,682d573fa47f1360d1451895,,,,,,,,,,,,,,,,,,,,,,,,,,,,78.6371,84.1889,space,2.5332,,,,,,,,,,,,,,,,,,,,,,,,,,,,,,,,,,,,,,,,,,,,,,,,,,,,,,,,,,,,,,,,,,,,,,,,,,,,,,,,,,
,,,,,,,5a732956f660ae0001a9b011,682f0fbb33061f80d581d4c0,2025-05-22_13h52.17.848,cuing_paradigm_dot,2024.1.5,Win32,59.88023952,682d573fa47f1360d1451895,,,,,,,,,,,84.2096,84.7044,,,84.9405,85.5403,left,0.5828,,,,,,,,,0.5,,,,,,84.705,84.9405,85.5409,"[-0.04409528026009461,-0.1778320271594313]","[-1,-1,-1]","[0.055934515994142786,-0.04522947851782653]","[1,1,1]","[0.09654498157103876,0.10328777767555766]","[-1,-1,-1]","[0.06838004447872946,-0.09389889172430611]","[1,1,1]","[0.1542284398773918,0.09312912825540058]","[-1,-1,-1]","[-0.11240813594085516,0.004862545968519347]","[1,1,1]","[0.12514568544452184,-0.037987006859901876]","[1,1,1]","[0.012187992634649552,0.1330298286219367]","[1,1,1]","[0.13659231714739392,-0.09478578729268985]","[-1,-1,-1]","[-0.13602718470598535,0.08037369245788435]","[1,1,1]","[0.14148395276108938,0.03726871242523996]","[1,1,1]","[0.08346167083760322,0.014258306048821947]","[1,1,1]","[-0.02355760368307162,0.18243997650871596]","[-1,-1,-1]","[-0.04769460308345837,0.08705146012613135]","[-1,-1,-1]","[-0.15508958136131368,-0.045023883665782284]","[1,1,1]","[-0.1284120639171835,-0.12767698585659193]","[-1,-1,-1]","[0.04854406474435158,0.05516826451907044]","[1,1,1]","[-0.000029674828341931144,0.03212475588942931]","[1,1,1]","[0.04754770271339095,0.10620754263583283]","[-1,-1,-1]","[-0.10290487477871806,-0.05835512055391594]","[1,1,1]","[0.14394951322040223,0.1345221526041627]","[-1,-1,-1]","[-0.03954962149106237,-0.049231662957063896]","[-1,-1,-1]","[-0.08544383141957916,-0.13765135061360606]","[1,1,1]","[0.10587917846493745,-0.1507212916330871]","[-1,-1,-1]","[0.02010581465764758,-0.19329544241352822]","[1,1,1]","[0.08368388122341372,0.14169056560579546]","[-1,-1,-1]","[-0.010854721489572918,-0.020042071612497523]","[-1,-1,-1]","[-0.19216309901221368,0.045886315159078865]","[1,1,1]","[0.017022517930738598,-0.12141889742432506]","[-1,-1,-1]","[0.15884820528823865,-0.004966707717475145]","[1,1,1]","[-0.14816035699553884,-0.0887906489927561]","[-1,-1,-1]","[0.06792470114344734,-0.17184903538840482]","[-1,-1,-1]","[0.02,0.02]",86.6343,0,0,0,96,1,,,,,,,
,,,,,,,5a732956f660ae0001a9b011,682f0fbb33061f80d581d4c0,2025-05-22_13h52.17.848,cuing_paradigm_dot,2024.1.5,Win32,59.88023952,682d573fa47f1360d1451895,,,,,,,,,,,86.635,87.133,,,87.3859,87.6989,right,0.2898,,,,,,,,,0.1,,,,,,87.1331,87.3858,87.6989,"[-0.1762346112992892,0.020184620763928022]","[-1,-1,-1]","[-0.12892446190824472,0.009546893789637214]","[-1,-1,-1]","[-0.08344862761474722,0.10136801775683447]","[-1,-1,-1]","[-0.06488824662685516,0.026677536749067247]","[-1,-1,-1]","[0.1481662166035346,0.0030884245323544875]","[-1,-1,-1]","[-0.017688138758376902,-0.010796186769993873]","[-1,-1,-1]","[0.1617744663077337,-0.07165348872999239]","[-1,-1,-1]","[0.08061421177134664,-0.11303856336867459]","[-1,-1,-1]","[-0.08036642309950226,-0.1069024474905528]","[1,1,1]","[-0.03946297312269729,0.10292777920331289]","[-1,-1,-1]","[0.16771223692712497,0.08049812812306095]","[-1,-1,-1]","[0.07692366377704767,0.017526309642113058]","[-1,-1,-1]","[0.08253851184268862,0.13407848684505377]","[-1,-1,-1]","[0.005868492340144571,0.0838069635929453]","[-1,-1,-1]","[-0.15157992158364897,-0.10962610776779719]","[-1,-1,-1]","[-0.005768244745635674,0.1628506455070846]","[-1,-1,-1]","[0.0321091023475118,-0.11658547997525523]","[1,1,1]","[-0.010316909732553056,-0.16103558770949125]","[1,1,1]","[-0.10111844614727249,-0.06884873709224595]","[-1,-1,-1]","[-0.14405734855701824,0.06287091194334198]","[-1,-1,-1]","[0.10241985508349677,-0.06642996234739133]","[-1,-1,-1]","[-0.08209866394172619,-0.17499193651887232]","[-1,-1,-1]","[0.1550653210642073,-0.12618735612495172]","[-1,-1,-1]","[0.030847864448621917,0.1275045458907528]","[-1,-1,-1]","[0.07959360869070599,-0.16998104593678123]","[-1,-1,-1]","[0.11810069726286203,0.11513094452321165]","[-1,-1,-1]","[0.022065949675322712,-0.05224867884977201]","[-1,-1,-1]","[-0.16318299007442436,0.10105675251470483]","[-1,-1,-1]","[0.03171525360515701,0.04863678444881421]","[-1,-1,-1]","[-0.061859853839903486,-0.040233509790401634]","[-1,-1,-1]","[0.120096189013489,0.05020726537140072]","[-1,-1,-1]","[0.1926528911645601,0.04493709182756883]","[-1,-1,-1]","[0.02,0.02]",88.7964,0,1,1,7,1,,,,,,,
,,,,,,,5a732956f660ae0001a9b011,682f0fbb33061f80d581d4c0,2025-05-22_13h52.17.848,cuing_paradigm_dot,2024.1.5,Win32,59.88023952,682d573fa47f1360d1451895,,,,,,,,,,,88.797,89.2957,,,89.5483,89.8452,left,0.2794,,,,,,,,,0.9,,,,,,89.2957,89.5482,89.8453,"[-0.06147039927628652,-0.055443400080603326]","[1,1,1]","[0.05049273521023783,0.13073556031130734]","[1,1,1]","[0.02889337174076246,-0.08402452376702321]","[1,1,1]","[-0.11214059823271716,-0.046128508650424914]","[1,1,1]","[0.05682478440439676,-0.13819591619336663]","[1,1,1]","[-0.016942499541740114,0.018937047131911102]","[1,1,1]","[0.10993831466145841,-0.027320487937909227]","[1,1,1]","[0.084005589133021,0.0900894494820558]","[1,1,1]","[-0.008698760606457358,-0.16925235638135094]","[-1,-1,-1]","[-0.1463472695756534,-0.07738913361036452]","[1,1,1]","[0.023536620157968993,0.16347757055602666]","[1,1,1]","[-0.015706201461263603,0.12520184918690064]","[1,1,1]","[-0.1043356439050317,-0.15785649509317548]","[1,1,1]","[-0.06199841838714595,0.02996991216111806]","[1,1,1]","[0.01433969486047492,-0.022117080832175184]","[1,1,1]","[0.1617459607909129,-0.10742523464794615]","[-1,-1,-1]","[-0.12233665970024653,0.0435587296690112]","[1,1,1]","[-0.008347521124638338,0.06784589616067714]","[1,1,1]","[0.053419165795902245,-0.030761364921386942]","[1,1,1]","[-0.07950377579055673,0.14539032610977895]","[1,1,1]","[-0.1724559920720322,0.0341247171256769]","[-1,-1,-1]","[0.13994303308586534,0.03462032608203326]","[1,1,1]","[-0.1101621309812638,0.09102863757185425]","[1,1,1]","[-0.16644258863065128,0.10315016274477666]","[1,1,1]","[0.13350608839437364,0.08758558726374628]","[1,1,1]","[0.11940450601749879,0.1423658653962295]","[1,1,1]","[-0.021478899413508418,0.16894409610637007]","[1,1,1]","[-0.05307539974130605,-0.17815092384975237]","[1,1,1]","[0.05115642374714742,0.04720394342727196]","[1,1,1]","[0.11924472766759546,-0.07218106097804132]","[1,1,1]","[-0.05726136678320021,-0.12681416727648595]","[1,1,1]","[0.10968709062864954,-0.1242100871587665]","[1,1,1]","[0.02,0.02]",90.9459,0,2,2,197,1,,,,,,,
,,,,,,,5a732956f660ae0001a9b011,682f0fbb33061f80d581d4c0,2025-05-22_13h52.17.848,cuing_paradigm_dot,2024.1.5,Win32,59.88023952,682d573fa47f1360d1451895,,,,,,,,,,,90.9464,91.4414,,,91.6941,92.2594,right,0.5479,,,,,,,,,0.6,,,,,,91.4414,91.6941,92.2595,"[-0.049286062882724864,0.14666069076755683]","[1,1,1]","[-0.0441421763379686,-0.166368516979284]","[1,1,1]","[0.1723291268655415,0.024391856300926242]","[1,1,1]","[0.08758041159138222,0.1169014417580055]","[1,1,1]","[0.0182446876965264,-0.04336652416803294]","[1,1,1]","[-0.028425764354660574,0.08711485027945472]","[-1,-1,-1]","[0.17811467184763677,-0.0571609699680789]","[1,1,1]","[0.048350230195472146,0.09101098372057077]","[-1,-1,-1]","[-0.07620157533603777,0.09361275159614674]","[1,1,1]","[0.1316884281796158,0.10808248265897144]","[-1,-1,-1]","[-0.16512390318785905,0.001643787736517111]","[1,1,1]","[0.10032468934945935,-0.16738551267008786]","[-1,-1,-1]","[0.12610705189105034,0.010662100523555219]","[-1,-1,-1]","[0.1561504502778146,-0.022812925469999027]","[1,1,1]","[-0.06604405729583326,-0.08841924966172417]","[-1,-1,-1]","[0.13119102226538656,0.055248216293917955]","[-1,-1,-1]","[-0.13574898269257923,-0.06523701053286109]","[1,1,1]","[-0.11609528239042985,0.1170355629873104]","[1,1,1]","[0.014316196573467685,-0.15976836301142866]","[-1,-1,-1]","[0.15102313602051406,-0.10824684152841203]","[1,1,1]","[-0.009746962072698278,-0.006960226012279579]","[1,1,1]","[0.0837444955145106,-0.05779796911076722]","[1,1,1]","[0.03461097649521049,0.16263574823956803]","[1,1,1]","[-0.027748848984263996,-0.04443821724908254]","[-1,-1,-1]","[0.10261079280351866,-0.11516214738131843]","[-1,-1,-1]","[-0.12837306434127585,0.07039752823557845]","[1,1,1]","[0.004583414342003922,0.039483499487784575]","[1,1,1]","[0.06467705150796597,0.003869526249210642]","[-1,-1,-1]","[0.09564444223932429,0.16188684083319713]","[1,1,1]","[-0.009090522542229399,-0.09767755134987671]","[-1,-1,-1]","[0.061906316797519095,-0.13825165188003538]","[-1,-1,-1]","[0.0855385324360318,0.0653376532476119]","[1,1,1]","[0.02,0.02]",93.3546,0,3,3,156,1,,,,,,,
,,,,,,,5a732956f660ae0001a9b011,682f0fbb33061f80d581d4c0,2025-05-22_13h52.17.848,cuing_paradigm_dot,2024.1.5,Win32,59.88023952,682d573fa47f1360d1451895,,,,,,,,,,,93.3553,93.8564,,,94.1063,94.686,left,0.5534,,,,,,,,,0.6,,,,,,93.8564,94.1062,94.6861,"[-0.18742888440441183,-0.021441351065004076]","[-1,-1,-1]","[0.040673932587023724,-0.057093429611543185]","[1,1,1]","[-0.029956458903003,0.16788900612876154]","[1,1,1]","[-0.1170289750467561,-0.12373556058914296]","[-1,-1,-1]","[0.08055564328115619,0.07676231687787383]","[1,1,1]","[-0.04855189433910978,0.0874831119350658]","[1,1,1]","[0.10583458894863138,-0.12315384587638004]","[1,1,1]","[-0.04693834407491684,-0.06067409147133293]","[1,1,1]","[0.10391182616859691,0.02867646974861019]","[1,1,1]","[0.011314371166886049,-0.15891333266117924]","[1,1,1]","[-0.09469340203103356,0.13748087486587507]","[-1,-1,-1]","[0.17596493448844225,0.04025928277975154]","[1,1,1]","[0.16047111720145338,0.10801902058637354]","[1,1,1]","[-0.05487742538377443,-0.005767296090914091]","[-1,-1,-1]","[-0.09926023843720944,-0.08265893293502485]","[-1,-1,-1]","[-0.1796163636069021,0.028613896008787824]","[1,1,1]","[0.17156164346720013,-0.02355040029365052]","[1,1,1]","[-0.043268176245680925,-0.17724089318213276]","[1,1,1]","[0.027293307588872218,-0.11889367125717254]","[1,1,1]","[0.06057209384447406,0.011354244051775219]","[1,1,1]","[0.00954306294247442,-0.006659880301127085]","[1,1,1]","[0.08538047708744978,-0.04519548604877449]","[1,1,1]","[-0.09870027916832078,0.061860801583160596]","[-1,-1,-1]","[0.0040554245085199486,0.13266452474802912]","[-1,-1,-1]","[-0.0008394722724054863,-0.08503150012039713]","[-1,-1,-1]","[0.16703102414181834,-0.08916535300459742]","[-1,-1,-1]","[-0.15545058517206561,-0.07299340431850566]","[-1,-1,-1]","[-0.13944797600268247,0.12684523539999207]","[-1,-1,-1]","[0.05247974139138997,0.1420280600632762]","[-1,-1,-1]","[0.10460738520535487,0.12345590255897024]","[1,1,1]","[0.06867357035489088,-0.09736472202554611]","[-1,-1,-1]","[0.0502504462278007,-0.1747784068657208]","[1,1,1]","[0.02,0.02]",95.7833,0,4,4,171,1,,,,,,,
,,,,,,,5a732956f660ae0001a9b011,682f0fbb33061f80d581d4c0,2025-05-22_13h52.17.848,cuing_paradigm_dot,2024.1.5,Win32,59.88023952,682d573fa47f1360d1451895,,,,,,,,,,,95.784,96.2824,,,96.5352,97.3473,right,0.7883,,,,,,,,,0.5,,,,,,96.2824,96.5352,97.3474,"[0.1507397585374646,0.06367552957279846]","[1,1,1]","[-0.10068443180161862,-0.10008247891771965]","[-1,-1,-1]","[0.09341999974710137,0.04168621876271054]","[-1,-1,-1]","[-0.050383426307412243,-0.08127213830214076]","[1,1,1]","[0.008766710004831332,0.12049295545524875]","[1,1,1]","[0.08505985329154639,-0.043126785514443614]","[1,1,1]","[0.0437218325675336,0.004269355438590632]","[-1,-1,-1]","[-0.17393702357602825,0.09308310295384196]","[-1,-1,-1]","[-0.1423429334070063,0.038992144460625926]","[1,1,1]","[-0.07266284981892367,0.061872715488079044]","[-1,-1,-1]","[-0.183838864972883,-0.046930810703286197]","[1,1,1]","[-0.010950807485625394,-0.020416190397193917]","[-1,-1,-1]","[-0.11714025348887261,0.07496276146265662]","[-1,-1,-1]","[-0.02488313464945338,-0.1434626337408476]","[1,1,1]","[-0.025184255007041943,0.1623502246050587]","[-1,-1,-1]","[0.13732379985589005,0.1051298483799579]","[-1,-1,-1]","[-0.03809502815345985,0.020003857869202054]","[-1,-1,-1]","[0.00832944226028655,0.1984427775406787]","[-1,-1,-1]","[-0.06894563198572902,-0.037777935590381284]","[1,1,1]","[0.032802195047208625,-0.19728287566571412]","[1,1,1]","[-0.18295457127677048,0.0016032974076675656]","[1,1,1]","[0.058126821592119744,0.06775289399468748]","[1,1,1]","[0.03572257226966005,-0.0821923774646208]","[1,1,1]","[0.1046434819775549,-0.0015787018448736479]","[-1,-1,-1]","[0.17988129677798936,-0.048969832331425704]","[-1,-1,-1]","[0.03792710125218616,-0.035438742109606305]","[1,1,1]","[-0.017878359990049626,0.06753501473590048]","[1,1,1]","[0.07714439146868901,-0.17734820122462794]","[1,1,1]","[0.11148913715533892,-0.14857319786628245]","[-1,-1,-1]","[-0.05394224124556995,0.09803826414073426]","[-1,-1,-1]","[0.09672794147299045,-0.09931514963078457]","[-1,-1,-1]","[0.10230815957124242,0.142380110680725]","[1,1,1]","[0.02,0.02]",98.4449,0,5,5,92,1,,,,,,,
,,,,,,,5a732956f660ae0001a9b011,682f0fbb33061f80d581d4c0,2025-05-22_13h52.17.848,cuing_paradigm_dot,2024.1.5,Win32,59.88023952,682d573fa47f1360d1451895,,,,,,,,,,,98.4454,98.9441,,,99.1974,99.5598,right,0.3348,,,,,,,,,0.1,,,,,,98.9442,99.1973,99.5598,"[-0.060084703380285584,-0.0531912423167698]","[-1,-1,-1]","[-0.01625563521304753,0.16359339556488536]","[-1,-1,-1]","[-0.13333854932982325,-0.08077516524768373]","[-1,-1,-1]","[-0.10646892439794461,-0.0407247092207951]","[-1,-1,-1]","[0.12409887624971615,-0.13092033393855296]","[-1,-1,-1]","[0.02523643537123542,0.04600652135932144]","[-1,-1,-1]","[-0.1721477029372165,0.08538443960404193]","[-1,-1,-1]","[0.125317431810254,0.1505940397709084]","[-1,-1,-1]","[0.08603535674611013,0.11899840073303361]","[-1,-1,-1]","[0.09640735055022459,0.01571831666567328]","[-1,-1,-1]","[0.02231842804814466,-0.06220951146769117]","[-1,-1,-1]","[0.07272226509976557,-0.1713315812611837]","[-1,-1,-1]","[0.061253311263467884,0.16013501945648198]","[-1,-1,-1]","[-0.12946585836899,-0.15147086752743452]","[-1,-1,-1]","[0.008261256508557486,0.0016080812668725667]","[-1,-1,-1]","[-0.07993113565477106,0.10964832425437883]","[-1,-1,-1]","[-0.044748118606192815,0.021721096252012934]","[-1,-1,-1]","[-0.006723322841787998,-0.15333465506093652]","[1,1,1]","[0.06880317206763416,0.08139385729652591]","[-1,-1,-1]","[0.03307148353740995,-0.1637376967938062]","[-1,-1,-1]","[-0.1502894493152166,-0.02688692135575116]","[-1,-1,-1]","[0.18393905775485644,0.035002892691544156]","[-1,-1,-1]","[-0.04858699461679222,0.07786745093697936]","[1,1,1]","[0.0724777362079787,-0.061971441238659275]","[-1,-1,-1]","[-0.08645984877255894,-0.11708174329276726]","[-1,-1,-1]","[0.12577263045954812,-0.03861145358938724]","[-1,-1,-1]","[-0.17241849103140164,-0.07089798919019467]","[1,1,1]","[-0.11422380546344223,0.023480495842484798]","[-1,-1,-1]","[-0.11343080737669473,0.13742305899126153]","[-1,-1,-1]","[-0.06500684991081988,-0.18456905289555556]","[-1,-1,-1]","[0.1665520231449822,-0.03959711043692795]","[-1,-1,-1]","[0.013630035499900696,0.1947211494193523]","[-1,-1,-1]","[0.02,0.02]",100.6573,0,6,6,13,1,,,,,,,
,,,,,,,5a732956f660ae0001a9b011,682f0fbb33061f80d581d4c0,2025-05-22_13h52.17.848,cuing_paradigm_dot,2024.1.5,Win32,59.88023952,682d573fa47f1360d1451895,,,,,,,,,,,100.6577,101.1593,,,101.4111,101.9387,left,0.4997,,,,,,,,,0.6,,,,,,101.1594,101.4111,101.9388,"[0.1265785264290121,0.031026459577113023]","[-1,-1,-1]","[0.10279320330799159,0.12269704623896813]","[1,1,1]","[-0.016744746929785857,-0.07622498303128566]","[1,1,1]","[-0.08366720711033725,0.09088540053479235]","[1,1,1]","[-0.06674549357957908,-0.07511490852559646]","[-1,-1,-1]","[0.1429385435074895,-0.027091254601637173]","[-1,-1,-1]","[-0.1502769878138588,0.07569131554611808]","[-1,-1,-1]","[0.02599980736474657,0.16239180384266733]","[-1,-1,-1]","[-0.09287000323234643,-0.1261050684405983]","[-1,-1,-1]","[0.12239740588779106,-0.12186811178311494]","[-1,-1,-1]","[-0.13611314478774314,0.12604657584746917]","[1,1,1]","[0.13596102643336114,0.09860112921738279]","[1,1,1]","[0.1711177898167671,-0.0930208389279919]","[-1,-1,-1]","[-0.11369834681848671,0.020294004656650905]","[1,1,1]","[-0.07491411693321283,-0.01792399712445687]","[1,1,1]","[0.06104294886951066,0.018948404204001054]","[-1,-1,-1]","[-0.00758247262261857,-0.16250263218005348]","[1,1,1]","[0.04861183151920905,-0.13828596548196956]","[-1,-1,-1]","[-0.13693987634179913,-0.09488081419061328]","[-1,-1,-1]","[-0.011910387237131528,0.14072521812712505]","[1,1,1]","[-0.02483970200134657,0.19177687161439202]","[1,1,1]","[0.013029147035009543,-0.11152825289186215]","[1,1,1]","[-0.10683490927166737,-0.06539710352137798]","[1,1,1]","[-0.043242372651635747,-0.12404584207025991]","[-1,-1,-1]","[0.0990055981697315,-0.016439873382099904]","[1,1,1]","[0.0680663288318559,0.18320166761651477]","[1,1,1]","[-0.045418439762870154,-0.193375234196738]","[1,1,1]","[-0.017839870568871468,0.03266130243942235]","[1,1,1]","[0.08853849043860916,-0.1450109032909533]","[1,1,1]","[0.17276043631294397,0.06646926955820986]","[-1,-1,-1]","[0.03787820737876902,-0.04645392769814252]","[1,1,1]","[0.04268402361336494,0.10565154973730309]","[1,1,1]","[0.02,0.02]",103.0363,0,7,7,152,1,,,,,,,
,,,,,,,5a732956f660ae0001a9b011,682f0fbb33061f80d581d4c0,2025-05-22_13h52.17.848,cuing_paradigm_dot,2024.1.5,Win32,59.88023952,682d573fa47f1360d1451895,,,,,,,,,,,103.0368,103.5355,,,103.7881,104.1181,right,0.3033,,,,,,,,,0.1,,,,,,103.5355,103.788,104.1181,"[-0.018143616676103286,0.14344042611861543]","[-1,-1,-1]","[-0.13258110325650402,0.0009681139882992697]","[-1,-1,-1]","[-0.014749445624023538,0.08472129662645331]","[-1,-1,-1]","[-0.06143336660469351,0.10246469493077887]","[-1,-1,-1]","[0.03551289768827372,0.07101780064991185]","[-1,-1,-1]","[0.09594107005582196,-0.13756186239099907]","[-1,-1,-1]","[0.05375866062501912,0.15370247124697695]","[-1,-1,-1]","[0.05164921876539758,-0.1151928420675388]","[1,1,1]","[0.10354098595169792,-0.08833493685439882]","[1,1,1]","[-0.1325086417880196,-0.13934437700126767]","[-1,-1,-1]","[0.06727914684482632,-0.18166096958264338]","[-1,-1,-1]","[0.11655874533041166,-0.009874017571371843]","[-1,-1,-1]","[-0.05803244724965283,-0.14632482493829613]","[-1,-1,-1]","[0.02818942722096495,-0.039841452268763795]","[-1,-1,-1]","[-0.10723698016124471,0.056370500072682656]","[-1,-1,-1]","[0.14900266383988237,-0.11712143486961181]","[-1,-1,-1]","[0.07176430962627874,0.09521335502764389]","[-1,-1,-1]","[-0.01536877312052814,0.018804950020294645]","[-1,-1,-1]","[-0.06977390821755847,-0.030647029446344964]","[-1,-1,-1]","[0.0775030897843721,0.029707308563868228]","[-1,-1,-1]","[-0.16216263272633819,0.08114853679583878]","[-1,-1,-1]","[0.13396376820725692,0.12967102376974832]","[-1,-1,-1]","[-0.02079598661048359,-0.09564179272656478]","[-1,-1,-1]","[-0.10831711435143478,-0.05045440862193999]","[-1,-1,-1]","[0.16463744275130796,0.06404973716388229]","[1,1,1]","[-0.15330003694121333,-0.04389588756832724]","[-1,-1,-1]","[-0.07758269791051192,0.16752427125216607]","[-1,-1,-1]","[-0.10514104502927088,0.13244191847847617]","[-1,-1,-1]","[-0.03615870336936091,0.1854712476347027]","[-1,-1,-1]","[0.1973778857687469,0.020073618534095616]","[-1,-1,-1]","[0.07414545359499335,-0.026793610555214002]","[-1,-1,-1]","[-0.013163480056155632,-0.16207856278053542]","[-1,-1,-1]","[0.02,0.02]",105.2155,0,8,8,14,1,,,,,,,
,,,,,,,5a732956f660ae0001a9b011,682f0fbb33061f80d581d4c0,2025-05-22_13h52.17.848,cuing_paradigm_dot,2024.1.5,Win32,59.88023952,682d573fa47f1360d1451895,,,,,,,,,,,105.216,105.7146,,,105.9679,106.3471,left,0.3564,,,,,,,,,0.9,,,,,,105.7147,105.9679,106.3471,"[-0.13224128290355164,-0.1191739835846315]","[1,1,1]","[0.07021892464843238,0.15154918667895304]","[-1,-1,-1]","[0.022191863494247784,0.11269060503304362]","[1,1,1]","[0.15942371248353557,-0.044692966928933674]","[1,1,1]","[0.18874279014193976,0.009886662584236075]","[1,1,1]","[0.028197435422625487,-0.17781712047624976]","[1,1,1]","[-0.08516719858003918,-0.14560154337934]","[1,1,1]","[0.00890882256936251,-0.06414062702681891]","[1,1,1]","[0.12794354447296474,0.0466356954858299]","[1,1,1]","[0.03752238687677079,0.03559060826373411]","[1,1,1]","[-0.1408893100449271,0.0295856739558137]","[1,1,1]","[-0.06694677474503043,-0.06858345630672764]","[1,1,1]","[-0.06120490177043635,0.08835088783991955]","[1,1,1]","[-0.021824211239155535,-0.17523571606889174]","[1,1,1]","[-0.061243762867770515,0.01095812279212465]","[1,1,1]","[-0.012153948342305203,0.053664049390424046]","[1,1,1]","[-0.10111011127319966,0.10173782398613533]","[1,1,1]","[0.14230201727754818,0.09553122697406126]","[1,1,1]","[0.11624569908424989,0.13230945778577902]","[1,1,1]","[0.15628298076389044,-0.10830039285495204]","[1,1,1]","[-0.024566594055830584,-0.13169037743994816]","[1,1,1]","[-0.028249486851561183,-0.02792767007243247]","[1,1,1]","[-0.15040118757950013,0.11928254026635217]","[1,1,1]","[0.10154808516606341,-0.17048537644795544]","[1,1,1]","[0.060586462387158396,0.0958948387076566]","[1,1,1]","[-0.15786719520110812,-0.0817688091201226]","[1,1,1]","[-0.024821993852552807,0.18395680223927108]","[-1,-1,-1]","[0.042460373963082366,-0.11520058230585621]","[1,1,1]","[-0.049400706321620455,0.14569669413701947]","[1,1,1]","[-0.17726979752307537,-0.03664951580547542]","[-1,-1,-1]","[0.027513083242221098,0.1744885403268761]","[1,1,1]","[0.08108503379243795,-0.07141131376392319]","[1,1,1]","[0.02,0.02]",107.4446,0,9,9,206,1,,,,,,,
,,,,,,,5a732956f660ae0001a9b011,682f0fbb33061f80d581d4c0,2025-05-22_13h52.17.848,cuing_paradigm_dot,2024.1.5,Win32,59.88023952,682d573fa47f1360d1451895,,,,,,,,,,,107.4454,107.9436,,,108.197,108.5767,left,0.3534,,,,,,,,,0.9,,,,,,107.9436,108.1969,108.5767,"[-0.11723108387744667,0.12953478631703227]","[1,1,1]","[0.07205483670777675,-0.15397284615882886]","[1,1,1]","[0.17387149878547353,-0.03486580471948666]","[1,1,1]","[-0.05005732496033283,0.07157760713583364]","[1,1,1]","[-0.16243819421138356,0.0958138526789256]","[1,1,1]","[-0.016731194235613985,-0.04281479552223813]","[1,1,1]","[0.07205048618087245,-0.05515900324467993]","[-1,-1,-1]","[-0.0753710040037201,-0.06611707888113667]","[1,1,1]","[0.052691779364855446,0.14645761757055598]","[1,1,1]","[-0.12083520781837899,-0.13490379301970604]","[1,1,1]","[-0.1220088680170765,0.06805646564800143]","[1,1,1]","[0.13863295323977945,-0.09042079435296208]","[1,1,1]","[0.01979913228850575,-0.10341140892979449]","[1,1,1]","[-0.03844066528100395,0.021658408148825734]","[1,1,1]","[0.013055505172694984,-0.18441425104436815]","[1,1,1]","[-0.018678130842079265,-0.15504933641977922]","[-1,-1,-1]","[0.03387496466030464,0.10365408109377132]","[1,1,1]","[-0.05051011600366883,-0.1842279023143443]","[1,1,1]","[-0.018765978615445114,0.15026015867160925]","[1,1,1]","[0.004086154472173436,0.07335214451415853]","[1,1,1]","[0.007049905510520794,0.19651428183917846]","[1,1,1]","[0.022205215500649023,-0.05790522422668831]","[1,1,1]","[0.09210887202904236,0.15519989107720722]","[1,1,1]","[0.09816400865390487,0.07268939725620818]","[1,1,1]","[0.10090939167653111,-0.005169377682081496]","[1,1,1]","[-0.08089289066581938,0.021195343856281516]","[-1,-1,-1]","[-0.09232483339263056,0.17028359730382472]","[1,1,1]","[0.11954067802214093,-0.15492016075136744]","[1,1,1]","[0.0381363577036383,0.01571604803402427]","[1,1,1]","[-0.1731909604141337,-0.09333207181524487]","[1,1,1]","[-0.18034199799338288,0.025191277477620806]","[1,1,1]","[0.12573283884458414,0.10912771934449021]","[1,1,1]","[0.02,0.02]",109.6738,0,10,10,202,1,,,,,,,
,,,,,,,5a732956f660ae0001a9b011,682f0fbb33061f80d581d4c0,2025-05-22_13h52.17.848,cuing_paradigm_dot,2024.1.5,Win32,59.88023952,682d573fa47f1360d1451895,,,,,,,,,,,109.6744,110.1727,,,110.4255,110.7884,right,0.3378,,,,,,,,,0.45,,,,,,110.1728,110.4254,110.7885,"[-0.10031612830023652,-0.03723736911346388]","[-1,-1,-1]","[0.035981624666734525,0.13679601204023412]","[-1,-1,-1]","[0.053603476927390974,-0.13540935636022197]","[-1,-1,-1]","[0.19437297282089527,-0.018741693121337197]","[-1,-1,-1]","[-0.09865299417981091,-0.12704150477711604]","[1,1,1]","[0.04565483266263744,-0.09011170599855486]","[-1,-1,-1]","[-0.17583175220446734,-0.014928215413919725]","[1,1,1]","[-0.04481915759819068,-0.003353487780754164]","[-1,-1,-1]","[0.062226458927656256,0.09987238525343202]","[-1,-1,-1]","[0.12900301509134224,-0.1311241393336841]","[1,1,1]","[0.1649832719491038,-0.06392886905758806]","[1,1,1]","[0.1266375988641211,0.0104489066184697]","[1,1,1]","[0.08162201008759662,0.03167568982978176]","[1,1,1]","[0.14423571403352003,0.0708082537765982]","[-1,-1,-1]","[-0.17800598403838988,0.07155664130303606]","[1,1,1]","[-0.18423162353680178,0.026314021638996495]","[1,1,1]","[-0.07342942830429272,0.17609863498355574]","[1,1,1]","[0.004787692112434587,-0.07437624512545145]","[1,1,1]","[-0.054690335653911834,-0.1344462957073255]","[-1,-1,-1]","[-0.11124930682808681,0.09143915507825877]","[-1,-1,-1]","[-0.03344426478200893,0.06023924303172395]","[-1,-1,-1]","[0.09561713809296404,-0.07885725725006798]","[-1,-1,-1]","[-0.0167163674148291,-0.1978184370606171]","[-1,-1,-1]","[0.07066629564606011,-0.18482162401449337]","[-1,-1,-1]","[-0.08406237559609636,-0.08608204606689793]","[-1,-1,-1]","[-0.04133978518826192,0.10984577696795109]","[-1,-1,-1]","[0.05013820840501963,0.187071349137536]","[-1,-1,-1]","[-0.01258419345174074,-0.12271079433643575]","[1,1,1]","[0.1284529444786774,0.15056856320100978]","[-1,-1,-1]","[-0.005337088847389494,0.16218566867484213]","[1,1,1]","[0.1324380913941988,0.11076234850357032]","[1,1,1]","[0.12302092650185345,-0.04592370045323802]","[1,1,1]","[0.02,0.02]",111.8862,0,11,11,65,1,,,,,,,
,,,,,,,5a732956f660ae0001a9b011,682f0fbb33061f80d581d4c0,2025-05-22_13h52.17.848,cuing_paradigm_dot,2024.1.5,Win32,59.88023952,682d573fa47f1360d1451895,,,,,,,,,,,111.8869,112.3853,,,112.6379,112.9178,left,0.2533,,,,,,,,,0.1,,,,,,112.3854,112.6379,112.9178,"[-0.1851553172884486,-0.05761737059863821]","[-1,-1,-1]","[-0.03672512088227147,-0.18251031537671347]","[-1,-1,-1]","[-0.0055852025095793996,-0.04534734256575764]","[-1,-1,-1]","[-0.05955655055652048,-0.13577130632997114]","[-1,-1,-1]","[0.11709138424638563,0.12433481501614499]","[1,1,1]","[0.09659349787968437,0.0031702460352479042]","[-1,-1,-1]","[0.12893318429638062,-0.03761654066766959]","[-1,-1,-1]","[0.0017131660751706465,-0.1363706232719132]","[-1,-1,-1]","[-0.19930546193620413,0.011726925048451966]","[-1,-1,-1]","[0.031008496437163673,-0.0844899813117863]","[-1,-1,-1]","[0.041288693317307425,0.0747975968376973]","[-1,-1,-1]","[-0.17691705891802867,0.055379162398187125]","[-1,-1,-1]","[0.007223946111577823,0.01155517151876121]","[-1,-1,-1]","[0.19441575608325296,-0.027898468716901475]","[-1,-1,-1]","[0.18356000649730123,0.06821270357749794]","[1,1,1]","[-0.10591357447934012,0.1517303798335281]","[-1,-1,-1]","[0.15309906783342922,-0.08085533965840479]","[1,1,1]","[-0.06420203440296317,0.09526061821083442]","[-1,-1,-1]","[-0.013483373327297071,0.14224313574283934]","[-1,-1,-1]","[0.06383696148113296,-0.10881056362689663]","[-1,-1,-1]","[0.04130234105726447,-0.03714245654310022]","[-1,-1,-1]","[0.14937760919727316,0.029268151438040617]","[-1,-1,-1]","[-0.04220169126887107,-0.08800993483113909]","[-1,-1,-1]","[0.03823287961355812,-0.18240784382706168]","[-1,-1,-1]","[-0.005621441580829015,0.19795025272465247]","[-1,-1,-1]","[-0.13506309227391836,-0.09472838599195225]","[-1,-1,-1]","[-0.09934487987167175,0.04959169353405008]","[-1,-1,-1]","[-0.012529695650450071,0.04786316035470266]","[-1,-1,-1]","[0.10022249733174955,-0.0835135932355402]","[-1,-1,-1]","[0.07317257093369414,0.11248292985124973]","[-1,-1,-1]","[-0.08867585498000159,-0.05322964845923971]","[-1,-1,-1]","[0.05845842303547915,0.038238108377489866]","[-1,-1,-1]","[0.02,0.02]",114.0182,0,12,12,2,1,,,,,,,
,,,,,,,5a732956f660ae0001a9b011,682f0fbb33061f80d581d4c0,2025-05-22_13h52.17.848,cuing_paradigm_dot,2024.1.5,Win32,59.88023952,682d573fa47f1360d1451895,,,,,,,,,,,114.0186,114.518,,,114.7672,115.1177,left,0.3333,,,,,,,,,0.9,,,,,,114.5181,114.7671,115.1178,"[-0.11178369929683775,-0.14694374270074334]","[1,1,1]","[0.09258655970890936,-0.00939652804364572]","[-1,-1,-1]","[-0.007018971485876126,0.07421232860592936]","[-1,-1,-1]","[-0.12223988165734521,0.07262240726396263]","[1,1,1]","[0.1397156543598162,-0.09346931008216157]","[1,1,1]","[-0.05052302979351245,-0.10194505466946162]","[1,1,1]","[-0.09378467331101575,-0.017849750114701954]","[1,1,1]","[-0.04173892884602725,0.02829840052898337]","[1,1,1]","[0.019506835330982582,-0.1196085370900976]","[1,1,1]","[0.0051037775220626695,-0.026237096711388158]","[1,1,1]","[-0.13128480861389144,-0.04175614132221336]","[1,1,1]","[-0.15069472000876932,0.03085343820222814]","[1,1,1]","[0.0600151389353206,0.16826234396363754]","[1,1,1]","[-0.03302785998784926,0.13731266118421598]","[1,1,1]","[0.1810204597673068,-0.007582326243394005]","[1,1,1]","[0.12418908091050065,0.01602770782100902]","[1,1,1]","[-0.09777359798298882,0.15050083488263943]","[1,1,1]","[-0.12343454456450095,-0.10097371507890707]","[1,1,1]","[0.017041801672606043,0.036557673220480154]","[1,1,1]","[0.08699248917616803,0.049131994948456464]","[1,1,1]","[-0.18413920441490406,-0.02952288767575524]","[1,1,1]","[0.07619555955029828,-0.0514641098277699]","[1,1,1]","[-0.07168056340636993,-0.14821515557036177]","[1,1,1]","[0.09734547074923403,-0.15473479649533906]","[1,1,1]","[0.07915446657484906,0.13091759316466206]","[1,1,1]","[-0.03871888998444695,-0.048952082497936124]","[1,1,1]","[-0.06200864580895887,-0.18784681541424014]","[1,1,1]","[0.12179604728357447,0.08121971830900186]","[1,1,1]","[0.04577526240835689,0.07037822328887963]","[1,1,1]","[-0.010493966339888331,-0.19019065596374932]","[1,1,1]","[0.13169998177666475,0.13089425090381782]","[-1,-1,-1]","[0.014594769052115718,0.11806718980138192]","[1,1,1]","[0.02,0.02]",116.2114,0,13,13,189,1,,,,,,,
,,,,,,,5a732956f660ae0001a9b011,682f0fbb33061f80d581d4c0,2025-05-22_13h52.17.848,cuing_paradigm_dot,2024.1.5,Win32,59.88023952,682d573fa47f1360d1451895,,,,,,,,,,,116.212,116.7123,,,116.9636,117.493,right,0.5046,,,,,,,,,0.4,,,,,,116.7124,116.9636,117.493,"[-0.04337532927840155,0.18000957178370802]","[1,1,1]","[0.06282248801791493,0.06279232280771173]","[1,1,1]","[0.11621761724652878,0.16247624777706388]","[-1,-1,-1]","[0.09531797182503986,-0.16364631518949932]","[1,1,1]","[0.16054280830370216,0.09906683074739275]","[1,1,1]","[-0.06607886886517446,0.019284565526323905]","[-1,-1,-1]","[-0.1257813109139404,-0.1396164961314787]","[-1,-1,-1]","[-0.03619643853215898,0.09126109478329139]","[-1,-1,-1]","[-0.18183610533397365,0.032502653903301724]","[1,1,1]","[0.0661261137692017,0.1589353179990813]","[-1,-1,-1]","[0.09187577774566245,-0.05649988382026402]","[-1,-1,-1]","[-0.05828529282409323,-0.03182338643137643]","[-1,-1,-1]","[0.043707400724717176,-0.0877799823583054]","[1,1,1]","[-0.1744540021135078,-0.0875509334872667]","[-1,-1,-1]","[-0.027487923769356014,-0.004788910872231505]","[-1,-1,-1]","[-0.13094981685482135,-0.09323928919281632]","[1,1,1]","[-0.12395221240977693,-0.01104474067132152]","[-1,-1,-1]","[0.012775129716009965,-0.12257030029552927]","[-1,-1,-1]","[0.017828327886595212,0.0899126333808322]","[-1,-1,-1]","[0.11390812058775354,-0.10632514347047738]","[-1,-1,-1]","[0.1658045790909819,0.056278707586006275]","[1,1,1]","[-0.16683689504554702,-0.004591586465770823]","[-1,-1,-1]","[-0.10629821720262304,0.042919004398039834]","[-1,-1,-1]","[-0.06831192171053224,-0.1207208568654427]","[1,1,1]","[-0.11300524185412258,-0.05741532813415544]","[1,1,1]","[-0.021491843660530054,-0.047922290015803164]","[1,1,1]","[0.017586871960432775,-0.19909144201920662]","[1,1,1]","[-0.0869473750389904,0.13263324068111504]","[-1,-1,-1]","[0.0875667052113126,0.12255472045626008]","[-1,-1,-1]","[-0.06944276129586362,-0.17803148850024117]","[1,1,1]","[-0.011065619235115108,0.12455787763163824]","[-1,-1,-1]","[-0.004072972663613925,0.05616364683791379]","[-1,-1,-1]","[0.02,0.02]",118.5937,0,14,14,32,1,,,,,,,
,,,,,,,5a732956f660ae0001a9b011,682f0fbb33061f80d581d4c0,2025-05-22_13h52.17.848,cuing_paradigm_dot,2024.1.5,Win32,59.88023952,682d573fa47f1360d1451895,,,,,,,,,,,118.5942,119.0893,,,119.3426,119.7383,right,0.3734,,,,,,,,,0.1,,,,,,119.0893,119.3426,119.7384,"[0.1367268661512535,-0.058771052442389435]","[-1,-1,-1]","[0.09332677142697957,-0.1705475196690992]","[-1,-1,-1]","[-0.1445842798308568,0.12075039281117889]","[-1,-1,-1]","[-0.1541708512144619,-0.023815077008156275]","[-1,-1,-1]","[-0.059520898874420566,-0.1804450943165607]","[1,1,1]","[0.1791173785996697,0.008835983983902647]","[-1,-1,-1]","[-0.1529491305242102,0.04512481146167667]","[1,1,1]","[0.0790212247640074,0.0366730724653472]","[-1,-1,-1]","[0.16077987053307746,0.05759733508068116]","[-1,-1,-1]","[-0.06276019662728856,-0.08718069511652331]","[-1,-1,-1]","[0.12744370650200434,0.12006936639165758]","[-1,-1,-1]","[0.054846057999531427,0.0941004333646358]","[-1,-1,-1]","[-0.07345271758118507,0.16778179209221902]","[-1,-1,-1]","[0.0626149274928032,-0.13369770294212963]","[-1,-1,-1]","[-0.06045751386912828,0.09451833678181376]","[-1,-1,-1]","[0.07435573220844734,0.14209003672701254]","[-1,-1,-1]","[0.01886874829226334,0.17668728669521624]","[-1,-1,-1]","[-0.09357820934255666,-0.034740552173578215]","[-1,-1,-1]","[0.015018599676508081,0.03107453661818469]","[-1,-1,-1]","[-0.00920107031632751,0.08486138746888812]","[-1,-1,-1]","[0.13774791532514277,-0.10295526254683898]","[-1,-1,-1]","[0.00860689344470214,0.13487543908826116]","[-1,-1,-1]","[-0.01595816189387287,-0.15067677679814254]","[-1,-1,-1]","[-0.025005554964061455,-0.06045788476271837]","[-1,-1,-1]","[-0.06671364854216104,0.006358737658480626]","[-1,-1,-1]","[-0.1250760276361102,-0.10884738259963654]","[1,1,1]","[0.05234443080200658,-0.17961401558855017]","[-1,-1,-1]","[-0.10197165527654521,0.07765328713977143]","[-1,-1,-1]","[0.009009564793262844,-0.030538510990738774]","[-1,-1,-1]","[0.09064988774164744,-0.09658074624718002]","[-1,-1,-1]","[-0.0005428235534815066,-0.11096571974914937]","[-1,-1,-1]","[0.11812190275138464,0.07192583073266832]","[-1,-1,-1]","[0.02,0.02]",120.8359,0,15,15,16,1,,,,,,,
,,,,,,,5a732956f660ae0001a9b011,682f0fbb33061f80d581d4c0,2025-05-22_13h52.17.848,cuing_paradigm_dot,2024.1.5,Win32,59.88023952,682d573fa47f1360d1451895,,,,,,,,,,,120.8365,121.3348,,,121.5877,122.0507,left,0.4397,,,,,,,,,0.6,,,,,,121.335,121.5877,122.0507,"[-0.14016588000516894,0.10738287417019557]","[1,1,1]","[-0.1350314484512418,0.02729736069315229]","[-1,-1,-1]","[-0.04977255992565699,0.03627216617087497]","[1,1,1]","[-0.07708313848436762,-0.039683021971018355]","[1,1,1]","[-0.1518582372622752,-0.07560198382376683]","[-1,-1,-1]","[-0.023068426699145158,-0.045722464311035826]","[1,1,1]","[-0.035157787893332376,-0.1752737188391883]","[-1,-1,-1]","[-0.0020515583821012146,-0.11151279373582018]","[1,1,1]","[0.0003425807533204279,0.17447213791905097]","[-1,-1,-1]","[0.12285554765981128,0.1060925828869427]","[1,1,1]","[-0.014718686743196572,0.010213333150580222]","[-1,-1,-1]","[0.10287287980025493,0.010490423672612641]","[1,1,1]","[0.08165624291589495,0.10423516644981332]","[1,1,1]","[-0.06285829830445276,-0.09449423144649495]","[1,1,1]","[-0.19097521054912453,-0.04613290005694163]","[-1,-1,-1]","[0.08847782022698898,-0.08494392035979151]","[1,1,1]","[0.09302572535573303,-0.14763071775116726]","[-1,-1,-1]","[0.04369391760515894,-0.06720750007053702]","[1,1,1]","[-0.06646354939375955,0.07640273934426094]","[1,1,1]","[-0.0874428192111626,0.1358897347478012]","[1,1,1]","[-0.00814203391795282,0.06148929756083489]","[1,1,1]","[0.04572775214866381,0.023706798445585642]","[1,1,1]","[-0.06829916669794922,0.17451556647243474]","[1,1,1]","[0.14759390511834464,0.019810793966794825]","[-1,-1,-1]","[0.008728938201703212,0.12376267875438407]","[-1,-1,-1]","[0.10003066332192274,0.1709478107541474]","[1,1,1]","[0.03266737551001085,-0.17301787877608676]","[1,1,1]","[0.19193492622631664,0.008251146253020045]","[-1,-1,-1]","[0.14078098435619976,-0.10034926847626555]","[-1,-1,-1]","[0.17474651388899268,0.07404521767949415]","[-1,-1,-1]","[0.059434217871076625,0.17334272455772615]","[-1,-1,-1]","[-0.0923947413095697,-0.13509419765367095]","[1,1,1]","[0.02,0.02]",123.1483,0,16,16,176,1,,,,,,,
,,,,,,,5a732956f660ae0001a9b011,682f0fbb33061f80d581d4c0,2025-05-22_13h52.17.848,cuing_paradigm_dot,2024.1.5,Win32,59.88023952,682d573fa47f1360d1451895,,,,,,,,,,,123.1489,123.6472,,,123.9003,124.2673,right,0.35,,,,,,,,,0.1,,,,,,123.6472,123.9001,124.2673,"[0.06686541526378748,0.1860341025807104]","[1,1,1]","[0.07614019265352857,-0.018020016362102702]","[-1,-1,-1]","[-0.018108375115886765,-0.07262062280821836]","[-1,-1,-1]","[-0.11356731994503448,-0.1224320378805911]","[-1,-1,-1]","[0.16918784349801902,0.007923517210472958]","[-1,-1,-1]","[0.05198714794726026,0.06188783288005243]","[-1,-1,-1]","[-0.10408740957712918,-0.06485427462530145]","[-1,-1,-1]","[0.023117120135390988,0.021558474419920547]","[-1,-1,-1]","[-0.01801968089524002,-0.16109878610582004]","[-1,-1,-1]","[-0.1506382906645973,0.05782130365967997]","[-1,-1,-1]","[0.029197642415573946,0.14690003790998457]","[-1,-1,-1]","[0.09273637026561052,0.12441005199284678]","[-1,-1,-1]","[0.11542613558062895,-0.06364958308738672]","[-1,-1,-1]","[0.1675954771015876,0.0706580811046697]","[-1,-1,-1]","[0.17851101554501123,-0.056052784892770775]","[-1,-1,-1]","[-0.03169599843591973,0.010056359266832795]","[-1,-1,-1]","[-0.17743283590921521,0.021053790187129048]","[-1,-1,-1]","[0.06723441357301153,-0.14579926976151075]","[-1,-1,-1]","[0.15293175770781958,0.11494126097272048]","[-1,-1,-1]","[-0.005180132613750842,0.07093980029961315]","[-1,-1,-1]","[-0.07001250820173228,-0.09513757578214321]","[1,1,1]","[-0.03987537905674709,0.12110132448964618]","[-1,-1,-1]","[-0.13555317998693128,0.13298673114556356]","[-1,-1,-1]","[0.022288859120100955,-0.146500388866305]","[-1,-1,-1]","[-0.14827990421062792,-0.04563842166071844]","[-1,-1,-1]","[-0.11751348533772818,-0.012106183128869616]","[-1,-1,-1]","[-0.08727917526438626,0.08458749098715052]","[-1,-1,-1]","[0.020004166721245924,-0.10635335750169289]","[1,1,1]","[0.10170024079582435,0.16578721047918188]","[-1,-1,-1]","[0.12331737779125147,-0.10451060375500819]","[-1,-1,-1]","[0.10545666953188476,0.023891563058684197]","[-1,-1,-1]","[-0.0885282582946784,-0.1602252999753014]","[-1,-1,-1]","[0.02,0.02]",125.3607,0,17,17,6,1,,,,,,,
,,,,,,,5a732956f660ae0001a9b011,682f0fbb33061f80d581d4c0,2025-05-22_13h52.17.848,cuing_paradigm_dot,2024.1.5,Win32,59.88023952,682d573fa47f1360d1451895,,,,,,,,,,,125.3612,125.8597,,,126.1126,126.528,right,0.398,,,,,,,,,0.4,,,,,,125.8599,126.1126,126.528,"[-0.04826906680540015,0.03533932686838187]","[-1,-1,-1]","[-0.04384855379595388,0.08828294599949599]","[-1,-1,-1]","[-0.09582558460394719,0.1339213851529792]","[-1,-1,-1]","[-0.1155888395704144,0.08478786619162268]","[-1,-1,-1]","[-0.1754204584207364,-0.06853076202886942]","[-1,-1,-1]","[-0.05010825960605747,0.1564407089040717]","[1,1,1]","[-0.15838695427584343,0.01364728907399551]","[1,1,1]","[0.04659608455085115,0.11474036172369875]","[-1,-1,-1]","[-0.08019521901680236,-0.1679453964107177]","[-1,-1,-1]","[0.02851063800810792,-0.18940624476835158]","[1,1,1]","[0.047729367842388216,0.05658218740812704]","[-1,-1,-1]","[0.00012563276402486676,-0.11930585169989312]","[1,1,1]","[0.18791353840572328,-0.04195153038399583]","[-1,-1,-1]","[0.08602256830653403,0.003878235320321714]","[-1,-1,-1]","[0.027963460207334475,0.15615233901142214]","[1,1,1]","[-0.18034106548836643,0.04739967870317514]","[-1,-1,-1]","[0.0030436456699392206,-0.04135680905444235]","[1,1,1]","[-0.08631179180200724,-0.11678806959456488]","[1,1,1]","[-0.00635803524058424,0.04951081265633571]","[-1,-1,-1]","[-0.13350157988424413,-0.11145259618826117]","[1,1,1]","[0.14667438399634664,0.0283089440070069]","[-1,-1,-1]","[0.07556475140734555,-0.10631544605601728]","[-1,-1,-1]","[-0.12222240608700818,-0.06641708329409333]","[-1,-1,-1]","[-0.058744491052009025,-0.04854359214111222]","[1,1,1]","[0.028736550582340616,-0.008038475671124333]","[-1,-1,-1]","[-0.010300756096936776,-0.17399493517471865]","[1,1,1]","[0.13219517585787527,0.0889407128311916]","[-1,-1,-1]","[-0.013205391401431137,0.12871342308624917]","[1,1,1]","[0.08679398359262289,-0.056369887887372294]","[1,1,1]","[-0.04634937306039153,-0.11320406702543705]","[-1,-1,-1]","[-0.09068090121782774,0.00463425241004177]","[1,1,1]","[0.10861166386931002,0.12384551132412913]","[-1,-1,-1]","[0.02,0.02]",127.6232,0,18,18,54,1,,,,,,,
,,,,,,,5a732956f660ae0001a9b011,682f0fbb33061f80d581d4c0,2025-05-22_13h52.17.848,cuing_paradigm_dot,2024.1.5,Win32,59.88023952,682d573fa47f1360d1451895,,,,,,,,,,,127.6238,128.1222,,,128.3748,128.8583,left,0.4663,,,,,,,,,0.6,,,,,,128.1224,128.3747,128.8584,"[-0.03249004926965419,-0.016738865132679262]","[1,1,1]","[0.09004945657734154,0.03183549376169984]","[1,1,1]","[-0.11090011922503211,0.012225674116107766]","[1,1,1]","[0.1188003126906518,-0.084969222828778]","[1,1,1]","[-0.10510669184305388,0.05545563913485505]","[1,1,1]","[0.11538482327867736,0.09937300338632947]","[-1,-1,-1]","[-0.04934853751065465,0.09205045585235212]","[1,1,1]","[0.06814185998088299,-0.13918453736128722]","[1,1,1]","[0.03124365484451527,-0.06432747646938458]","[-1,-1,-1]","[-0.12266280650943595,-0.07011442171366257]","[1,1,1]","[0.09840684149693626,0.14635996997456205]","[-1,-1,-1]","[-0.13519590415708763,-0.022203145160030725]","[-1,-1,-1]","[0.08159202479686811,-0.05834870822294196]","[1,1,1]","[-0.012531574263527556,-0.16186910533208754]","[1,1,1]","[0.12413323353751207,0.007767029621193779]","[-1,-1,-1]","[0.17380226580086694,-0.01637801259662717]","[1,1,1]","[-0.18353926009686014,0.02237117911007251]","[-1,-1,-1]","[0.05906349495828675,-0.09686880584700965]","[1,1,1]","[-0.000660504508137392,0.15899608156760714]","[-1,-1,-1]","[0.02598388187488433,-0.14642082794559746]","[1,1,1]","[-0.14325642074490907,0.10823601861465566]","[-1,-1,-1]","[-0.04291171050967926,0.031700923524214865]","[-1,-1,-1]","[0.0615973707238126,0.18505316396064542]","[-1,-1,-1]","[0.15756947707284238,0.03350608234764142]","[1,1,1]","[-0.08288270338028804,0.15310530168651057]","[1,1,1]","[0.00344727409785473,0.0725016111257416]","[1,1,1]","[0.1880327292175996,-0.05929651102004147]","[1,1,1]","[-0.005387110764503623,-0.047575668504052745]","[-1,-1,-1]","[-0.17408206581232483,-0.0752788308562118]","[1,1,1]","[-0.08532173317601728,-0.14851980547708185]","[-1,-1,-1]","[0.15786880742890835,0.1098261283911574]","[1,1,1]","[-0.026462881207785262,-0.10324246365885577]","[-1,-1,-1]","[0.02,0.02]",129.9521,0,19,19,179,1,,,,,,,
,,,,,,,5a732956f660ae0001a9b011,682f0fbb33061f80d581d4c0,2025-05-22_13h52.17.848,cuing_paradigm_dot,2024.1.5,Win32,59.88023952,682d573fa47f1360d1451895,,,,,,,,,,,129.9528,130.4511,,,130.7037,131.1832,right,0.4596,,,,,,,,,0.55,,,,,,130.4512,130.7037,131.1833,"[0.11886267532642533,0.11605092906634781]","[1,1,1]","[-0.01865393792780436,0.115890270663527]","[-1,-1,-1]","[-0.11228373788981971,0.14607544748657936]","[1,1,1]","[0.006870375412542131,0.050610373285832636]","[1,1,1]","[0.026496211667853122,-0.07703350101579771]","[1,1,1]","[0.12318850624226006,-0.09515484753871649]","[-1,-1,-1]","[-0.1252818275647826,-0.04975490113923633]","[-1,-1,-1]","[-0.1914623583594185,-0.03289684605708781]","[1,1,1]","[-0.054678999114554136,0.0788898879519574]","[1,1,1]","[0.021640904532931448,0.1572476663170139]","[-1,-1,-1]","[0.04185250495210576,0.08634236740876942]","[1,1,1]","[-0.07367595711837693,-0.13042365541764353]","[-1,-1,-1]","[0.0012304455026644157,-0.19939505577255975]","[-1,-1,-1]","[0.18190746740271863,-0.004096006120101593]","[1,1,1]","[-0.08528340660885268,-0.08243490269423641]","[-1,-1,-1]","[0.026514889628317852,-0.033392923585150905]","[-1,-1,-1]","[-0.1246608861113288,-0.09933989724858061]","[1,1,1]","[0.10304039160459226,-0.16873913334364798]","[1,1,1]","[0.15179376015724824,0.03088573286897684]","[-1,-1,-1]","[0.15875694241358274,0.10826185357725615]","[1,1,1]","[-0.02197565905491952,-0.1560500695575177]","[-1,-1,-1]","[-0.12277657243640239,-0.1571415815177677]","[-1,-1,-1]","[0.11173441112745144,0.1625207848181651]","[1,1,1]","[0.07068376946794667,-0.022475676378835217]","[-1,-1,-1]","[-0.16134743395987594,0.055597779008651885]","[1,1,1]","[0.1896127428696592,-0.044762333958392714]","[-1,-1,-1]","[0.07084173326749872,0.04075708753732712]","[1,1,1]","[-0.06822945601233105,0.15662103496227014]","[1,1,1]","[0.04072146808402467,-0.18821963145022494]","[-1,-1,-1]","[-0.17304655787840495,-0.09097351501410245]","[1,1,1]","[-0.01893626858336844,0.016282277871904824]","[1,1,1]","[0.10113781239136306,0.07168641266350545]","[1,1,1]","[0.02,0.02]",132.2809,0,20,20,136,1,,,,,,,
,,,,,,,5a732956f660ae0001a9b011,682f0fbb33061f80d581d4c0,2025-05-22_13h52.17.848,cuing_paradigm_dot,2024.1.5,Win32,59.88023952,682d573fa47f1360d1451895,,,,,,,,,,,132.2813,132.782,,,133.0333,133.579,left,0.5164,,,,,,,,,0.6,,,,,,132.782,133.0333,133.579,"[0.1641551566015088,0.03996772914811951]","[1,1,1]","[0.0006040388853020099,0.06831887467268309]","[-1,-1,-1]","[-0.13680639501176156,-0.12638564687715706]","[1,1,1]","[0.08777844203366912,-0.019333511487795215]","[-1,-1,-1]","[0.10119546909000547,0.09707344162943515]","[1,1,1]","[0.13351679695582852,0.010743479086416803]","[1,1,1]","[-0.06329730008913895,0.15067041584853563]","[1,1,1]","[0.16077280863952947,-0.11472841732755987]","[-1,-1,-1]","[-0.12433275675478152,0.03747219654235423]","[1,1,1]","[-0.09700849109854039,0.10557166431091151]","[-1,-1,-1]","[0.043490089629944995,0.14970278673483228]","[1,1,1]","[0.09625742456206604,0.05299965930074003]","[-1,-1,-1]","[-0.19164704613925024,0.020173881637171497]","[-1,-1,-1]","[-0.050290390795468425,0.031385652282087624]","[-1,-1,-1]","[0.040770393569134235,-0.1821771973563989]","[1,1,1]","[0.025562350747187927,0.10011009593029656]","[-1,-1,-1]","[-0.08894946523296078,-0.17796289319654215]","[-1,-1,-1]","[-0.1741839059833441,-0.04207599207039558]","[1,1,1]","[-0.015775734099113307,0.0030779775394993115]","[1,1,1]","[0.03533028547122134,0.038751820372543586]","[-1,-1,-1]","[0.12905355745579267,0.128387829903946]","[1,1,1]","[0.19078122618695084,-0.056313159540217116]","[-1,-1,-1]","[-0.07027443773237863,-0.04364374170591001]","[1,1,1]","[0.08852201133768174,-0.16101902436160181]","[-1,-1,-1]","[-0.11945852469228815,-0.007446531855696393]","[-1,-1,-1]","[-0.017701717826766456,0.17552648352298236]","[1,1,1]","[0.047711780772753086,-0.08604549551744363]","[1,1,1]","[-0.04393547165732238,-0.10518275888035278]","[1,1,1]","[0.095852591647709,-0.0782285779458204]","[1,1,1]","[-0.029824619099503853,-0.18720312916760914]","[1,1,1]","[0.045004842891886956,0.19029903644178064]","[1,1,1]","[-0.14831585315306012,0.09352469730656646]","[1,1,1]","[0.02,0.02]",134.6765,0,21,21,155,1,,,,,,,
,,,,,,,5a732956f660ae0001a9b011,682f0fbb33061f80d581d4c0,2025-05-22_13h52.17.848,cuing_paradigm_dot,2024.1.5,Win32,59.88023952,682d573fa47f1360d1451895,,,,,,,,,,,134.6771,135.1754,,,135.4288,135.958,left,0.5031,,,,,,,,,0.55,,,,,,135.1756,135.4288,135.9581,"[-0.08245392334228814,0.1294328169631997]","[1,1,1]","[0.06095950647619089,0.15057798681139847]","[-1,-1,-1]","[0.0035886948101376335,-0.1141870509085844]","[-1,-1,-1]","[0.15510081074313517,-0.014004693585542365]","[-1,-1,-1]","[-0.03844162476345572,-0.16120546659492113]","[1,1,1]","[-0.0951966003583054,-0.03326437971559882]","[1,1,1]","[0.06358827955406537,-0.0030185584062777837]","[-1,-1,-1]","[-0.0035892085106502087,0.07075312023110521]","[-1,-1,-1]","[-0.15766620406604265,-0.013845644719087604]","[1,1,1]","[0.1706268012905689,0.0402814164815812]","[1,1,1]","[-0.016581750190992218,0.021612572709342245]","[1,1,1]","[-0.13096125855542476,0.13064952494936222]","[-1,-1,-1]","[0.17102663745588648,-0.057874640027332905]","[-1,-1,-1]","[-0.05213862976508409,-0.060968159770268815]","[1,1,1]","[0.05067227258617461,-0.11167976050134319]","[1,1,1]","[0.19708041936458967,0.008654254284498243]","[-1,-1,-1]","[-0.166280840657784,-0.055806637371174604]","[1,1,1]","[-0.05363412759850067,-0.013857468241098446]","[-1,-1,-1]","[-0.09929843763974248,-0.1587492219384936]","[-1,-1,-1]","[0.024614832415372566,-0.04675776806248352]","[-1,-1,-1]","[-0.16947838404873844,0.06572104694265836]","[-1,-1,-1]","[-0.020809911360352453,0.1984007614539205]","[1,1,1]","[0.09380547262774676,-0.12968639739107377]","[1,1,1]","[-0.09398054820734258,-0.07609133428668172]","[1,1,1]","[-0.042158828249130004,-0.1157133887852858]","[1,1,1]","[-0.15422472234657816,0.02663580300788797]","[-1,-1,-1]","[-0.1267370645296395,0.07693629635101212]","[1,1,1]","[-0.02420979026467911,0.139132580502852]","[-1,-1,-1]","[-0.07825207339661236,0.05948511028219454]","[1,1,1]","[0.1260730054244139,-0.10459953398365417]","[1,1,1]","[0.1718939784390729,0.08437480467895977]","[1,1,1]","[0.02680989077173493,0.17719588064015102]","[1,1,1]","[0.02,0.02]",137.0554,0,22,22,146,1,,,,,,,
,,,,,,,5a732956f660ae0001a9b011,682f0fbb33061f80d581d4c0,2025-05-22_13h52.17.848,cuing_paradigm_dot,2024.1.5,Win32,59.88023952,682d573fa47f1360d1451895,,,,,,,,,,,137.0561,137.5543,,,137.8071,138.1205,right,0.2923,,,,,,,,,0.1,,,,,,137.5545,137.8071,138.1206,"[-0.07060898966838164,0.02621055157849517]","[-1,-1,-1]","[0.02266841916608112,0.17583628074087662]","[1,1,1]","[-0.020341510469053137,0.09334883883856034]","[-1,-1,-1]","[-0.13509365681010477,0.14035197754405523]","[-1,-1,-1]","[0.02675639444760348,-0.15195061648741123]","[-1,-1,-1]","[-0.1695091621096906,0.06563462828957947]","[-1,-1,-1]","[0.06832027312185286,-0.016221456098887983]","[-1,-1,-1]","[-0.13695880706513572,0.0896883565676292]","[-1,-1,-1]","[-0.07259008842814836,-0.12033901029715292]","[-1,-1,-1]","[0.12399800313607753,-0.0013312274941723297]","[-1,-1,-1]","[-0.04792181945775614,-0.021421220732335978]","[-1,-1,-1]","[0.15489980798273287,-0.11611513547906349]","[-1,-1,-1]","[0.06619585601708258,0.10483506887574022]","[-1,-1,-1]","[0.07320154134326519,-0.11258275135863458]","[-1,-1,-1]","[-0.14242397594409134,-0.12912980844880845]","[-1,-1,-1]","[-0.060319744475657966,-0.18970297491211346]","[-1,-1,-1]","[0.10735293904640324,0.10874675350427232]","[1,1,1]","[0.1513423129755178,0.05504126622131837]","[-1,-1,-1]","[-0.18636799580388733,-0.004968561097882229]","[-1,-1,-1]","[0.19427631688698277,0.0044568269716390215]","[-1,-1,-1]","[-0.05775749853428774,0.18293772477043344]","[-1,-1,-1]","[-0.11426723358224858,0.011411294856714885]","[-1,-1,-1]","[0.08489102216196258,-0.1588872139670039]","[-1,-1,-1]","[-0.019714168569693873,0.1524788662811975]","[-1,-1,-1]","[0.17508436608696032,-0.05365457930666873]","[-1,-1,-1]","[-0.1183349719078314,-0.07997066038972626]","[-1,-1,-1]","[0.03152584748111575,-0.04576823613195026]","[-1,-1,-1]","[0.01813179441962092,0.1187144172945193]","[1,1,1]","[-0.014868255727974457,-0.07230360797386043]","[-1,-1,-1]","[0.10162153524433604,-0.07397520372723276]","[-1,-1,-1]","[-0.06368633564967802,0.13619447532095447]","[-1,-1,-1]","[0.09135870282250279,0.052793970219754585]","[-1,-1,-1]","[0.02,0.02]",139.2179,0,23,23,23,1,,,,,,,
,,,,,,,5a732956f660ae0001a9b011,682f0fbb33061f80d581d4c0,2025-05-22_13h52.17.848,cuing_paradigm_dot,2024.1.5,Win32,59.88023952,682d573fa47f1360d1451895,,,,,,,,,,,139.2184,139.717,,,139.9704,140.3162,right,0.3217,,,,,,,,,0.1,,,,,,139.7171,139.9703,140.3163,"[0.1277111793572377,0.10188016512181741]","[1,1,1]","[-0.136888520958361,0.09446859537505428]","[-1,-1,-1]","[-0.0691164484037547,-0.025695004244573404]","[-1,-1,-1]","[0.023390217163575193,-0.1429976842314032]","[-1,-1,-1]","[-0.08419198718537273,-0.15320942983742364]","[-1,-1,-1]","[0.06428519774828151,0.1622795139728673]","[-1,-1,-1]","[-0.09739495784424118,0.053246301062262566]","[-1,-1,-1]","[0.10374746240610754,0.06215121706778123]","[-1,-1,-1]","[0.07335452779063212,-0.009931136340433045]","[-1,-1,-1]","[0.0064610857733250066,-0.09004702737149749]","[-1,-1,-1]","[0.16016425274094473,0.019497373108618498]","[-1,-1,-1]","[-0.02938574979052986,0.17970548477157147]","[-1,-1,-1]","[-0.11970362883780314,-0.07856002591527855]","[-1,-1,-1]","[-0.04508868521754806,-0.1185153573794568]","[-1,-1,-1]","[-0.056497479737082024,0.07920907091790953]","[-1,-1,-1]","[0.013725227743098794,-0.03901206591305999]","[-1,-1,-1]","[0.031010036770777478,0.11777059869316188]","[-1,-1,-1]","[0.13235748801967365,-0.0944646693767393]","[-1,-1,-1]","[-0.022585135191156635,0.029997427733659616]","[-1,-1,-1]","[-0.13821133369023852,0.027211634748764306]","[-1,-1,-1]","[0.08438885951112648,-0.14377473540984734]","[1,1,1]","[-0.17661929640809837,0.009254943108839021]","[-1,-1,-1]","[-0.08731382632801715,0.1519481419198193]","[-1,-1,-1]","[-0.19018638773132554,-0.04691146022381343]","[-1,-1,-1]","[0.11868148999181259,0.013304075814136783]","[-1,-1,-1]","[-0.016845409865631825,-0.1755794829379545]","[-1,-1,-1]","[-0.16357120387977664,0.05907884386518753]","[-1,-1,-1]","[-0.14328949485459694,-0.11736735429407279]","[-1,-1,-1]","[0.073053269204411,0.10003218006894804]","[-1,-1,-1]","[0.05065154082650677,-0.11103363456218117]","[-1,-1,-1]","[0.18954968324562713,-0.01955110779886444]","[1,1,1]","[0.16401385916019567,0.07308456982801496]","[-1,-1,-1]","[0.02,0.02]",141.4138,0,24,24,3,1,,,,,,,
,,,,,,,5a732956f660ae0001a9b011,682f0fbb33061f80d581d4c0,2025-05-22_13h52.17.848,cuing_paradigm_dot,2024.1.5,Win32,59.88023952,682d573fa47f1360d1451895,,,,,,,,,,,141.4143,141.9129,,,142.1661,142.5456,right,0.3576,,,,,,,,,0.1,,,,,,141.9129,142.166,142.5457,"[0.06505927440378145,-0.18023872831839396]","[-1,-1,-1]","[-0.16000426525506764,0.00944420811399316]","[-1,-1,-1]","[0.18099120205833966,0.00663856410857899]","[-1,-1,-1]","[0.05844280592846386,-0.07603700056339618]","[1,1,1]","[-0.08067413020651641,0.11518089407418396]","[-1,-1,-1]","[0.13175997829822034,0.028972434538869937]","[-1,-1,-1]","[-0.1640729977119537,-0.11016458511563255]","[-1,-1,-1]","[-0.04749043462938011,-0.03899255865434635]","[-1,-1,-1]","[0.06510605372270033,0.06939936176760457]","[-1,-1,-1]","[-0.050567751708146154,0.05837124207302921]","[-1,-1,-1]","[0.12775400022959318,0.126948076632207]","[-1,-1,-1]","[0.070332574212127,-0.02677436776321669]","[-1,-1,-1]","[0.023833247952346006,-0.10366932891569498]","[-1,-1,-1]","[-0.11403700466344516,0.029805455068142042]","[1,1,1]","[0.14963040188154159,-0.04445436329962901]","[1,1,1]","[0.010549516877022264,0.19590119911377918]","[-1,-1,-1]","[-0.12395247029063626,0.11733657683010035]","[-1,-1,-1]","[-0.018580346164414924,0.16787706386937887]","[-1,-1,-1]","[0.08179925024936409,0.13056692727750577]","[-1,-1,-1]","[0.010041053984089835,0.10493680166114158]","[-1,-1,-1]","[0.14197452914157657,-0.09213921112986125]","[-1,-1,-1]","[-0.0712995737866577,0.16923371884858293]","[-1,-1,-1]","[0.048661475948620324,0.15565032825733705]","[-1,-1,-1]","[-0.04502592734650288,-0.19027419677434948]","[-1,-1,-1]","[-0.03043128961551551,0.10719454274368408]","[-1,-1,-1]","[0.09152872881592818,0.028340065511055265]","[-1,-1,-1]","[0.08607753485409103,0.1730304127814785]","[-1,-1,-1]","[-0.02213363786175056,-0.0008921806141337086]","[-1,-1,-1]","[-0.08206263026218534,-0.13241132934880948]","[-1,-1,-1]","[0.10946121844661118,-0.12224108702194114]","[-1,-1,-1]","[-0.11184645679784884,-0.02234894805263465]","[-1,-1,-1]","[-0.12364814977946287,-0.14344630503885453]","[-1,-1,-1]","[0.02,0.02]",143.6429,0,25,25,15,1,,,,,,,
,,,,,,,5a732956f660ae0001a9b011,682f0fbb33061f80d581d4c0,2025-05-22_13h52.17.848,cuing_paradigm_dot,2024.1.5,Win32,59.88023952,682d573fa47f1360d1451895,,,,,,,,,,,143.6436,144.1418,,,144.3954,145.1443,right,0.7324,,,,,,,,,0.5,,,,,,144.1419,144.3953,145.1443,"[0.1363809653725475,-0.0445473177643486]","[-1,-1,-1]","[0.029543557065655972,0.0784756039784821]","[1,1,1]","[-0.08163060330279433,-0.0466637131173014]","[1,1,1]","[0.15069724188997058,0.08779030230733006]","[-1,-1,-1]","[0.031840495605789144,-0.13703675337851157]","[-1,-1,-1]","[0.16870241650464976,0.05139010527966758]","[1,1,1]","[0.19258378821630515,-0.05393453832471306]","[-1,-1,-1]","[0.08980121572333655,-0.09171252545993168]","[-1,-1,-1]","[-0.0851591190978862,0.07833983029367803]","[1,1,1]","[0.0518959167224637,-0.03452548309271223]","[-1,-1,-1]","[-0.04868920936703101,-0.07678625027670635]","[1,1,1]","[-0.005891066763778227,-0.06890572039039608]","[1,1,1]","[0.04795893695554096,-0.0996415451217798]","[1,1,1]","[-0.06149297360431832,0.164297190587805]","[1,1,1]","[-0.017409354615386875,0.18932074480677838]","[1,1,1]","[-0.14976947909258742,0.1080014419298779]","[-1,-1,-1]","[-0.04835422281187495,0.11859128781097793]","[-1,-1,-1]","[0.003433566628462193,0.15005556194866862]","[-1,-1,-1]","[-0.028078159554746355,0.08038167141908517]","[-1,-1,-1]","[0.10528879522441471,0.06846339590723291]","[1,1,1]","[-0.059509247938680294,-0.1260969668738629]","[1,1,1]","[-0.0023641897996808233,-0.18391310064208588]","[-1,-1,-1]","[0.06066391374215516,0.18453793187199743]","[1,1,1]","[-0.11799563633911422,-0.14124491429817812]","[1,1,1]","[-0.048439265448741886,-0.1930551517327141]","[1,1,1]","[-0.08216440819177087,-0.0006385331284307358]","[1,1,1]","[-0.16274466562376433,0.020631306560050765]","[1,1,1]","[0.14140801768982625,-0.1227695850360486]","[-1,-1,-1]","[0.11102096160028445,0.15376593642581987]","[-1,-1,-1]","[0.13941004336345286,0.011593950274897409]","[-1,-1,-1]","[0.07896594947168238,0.10463893356337077]","[-1,-1,-1]","[-0.15919735671010898,-0.10812657855416218]","[-1,-1,-1]","[0.02,0.02]",146.2378,0,26,26,104,1,,,,,,,
,,,,,,,5a732956f660ae0001a9b011,682f0fbb33061f80d581d4c0,2025-05-22_13h52.17.848,cuing_paradigm_dot,2024.1.5,Win32,59.88023952,682d573fa47f1360d1451895,,,,,,,,,,,146.2384,146.739,,,146.9896,147.5026,right,0.4934,,,,,,,,,0.4,,,,,,146.739,146.9896,147.5027,"[0.0031636389582523133,0.12009255910586716]","[-1,-1,-1]","[-0.15710952083890822,-0.060986048657734826]","[1,1,1]","[0.07648934224558628,-0.10030897846718491]","[-1,-1,-1]","[0.09844133501181375,0.07226551064516286]","[1,1,1]","[0.02040754678682239,-0.07999369607094323]","[-1,-1,-1]","[0.14523042726904767,-0.10095493125378709]","[-1,-1,-1]","[-0.02024287107041364,-0.1839969041132884]","[-1,-1,-1]","[-0.014724542204694005,-0.04928234224519026]","[-1,-1,-1]","[-0.11473140125202166,0.021682597029789596]","[-1,-1,-1]","[-0.01792541992127483,0.19710464409810996]","[1,1,1]","[-0.11573741991955,0.10649383538950752]","[1,1,1]","[-0.04456439991071255,0.015834855924092058]","[-1,-1,-1]","[0.14235761888448864,0.094465430104694]","[1,1,1]","[0.07418017879351481,0.026483465932798753]","[-1,-1,-1]","[0.07110731695280174,-0.04853342765191643]","[1,1,1]","[-0.0759294875477595,0.11575988920692189]","[1,1,1]","[-0.16863895245565394,0.08126071516565321]","[1,1,1]","[-0.05827777991340286,0.1625713404072328]","[-1,-1,-1]","[0.12939761614344286,0.14519048539608548]","[-1,-1,-1]","[0.040888718363637534,0.16032938018038922]","[-1,-1,-1]","[0.0794849441858388,0.13064430990864784]","[1,1,1]","[0.13804746015249234,-0.03269956356490139]","[-1,-1,-1]","[-0.07019001267326552,-0.12100362269421643]","[1,1,1]","[-0.10894066905480781,-0.07020362569286512]","[-1,-1,-1]","[0.06755217652171268,-0.1439921410956358]","[-1,-1,-1]","[0.0050116646628590505,-0.12876025532986016]","[1,1,1]","[0.1142322143565921,-0.13984216967091997]","[-1,-1,-1]","[0.18066458112898748,-0.023880954346614646]","[-1,-1,-1]","[-0.06140712041676699,-0.02088055906355573]","[1,1,1]","[-0.13531621109165234,-0.14470132642655384]","[-1,-1,-1]","[0.04904615383149539,-0.1910630386004872]","[-1,-1,-1]","[0.042772823689498765,0.10359528752028054]","[1,1,1]","[0.02,0.02]",148.6002,0,27,27,51,1,,,,,,,
,,,,,,,5a732956f660ae0001a9b011,682f0fbb33061f80d581d4c0,2025-05-22_13h52.17.848,cuing_paradigm_dot,2024.1.5,Win32,59.88023952,682d573fa47f1360d1451895,,,,,,,,,,,148.6006,149.0992,,,149.3519,149.5986,left,0.2192,,,,,,,,,0.9,,,,,,149.0992,149.3519,149.5987,"[-0.03225158337853726,-0.12267868196418656]","[1,1,1]","[0.06739443431136989,-0.15897059185290988]","[1,1,1]","[0.10806888174101248,0.0870337943254399]","[1,1,1]","[-0.19163410214072538,0.024785584674626958]","[1,1,1]","[-0.14350661706016912,0.131823916142956]","[-1,-1,-1]","[-0.052757021476865736,0.10766250993526118]","[1,1,1]","[-0.10781412371773982,-0.0346933316998726]","[1,1,1]","[0.04947333328752895,-0.0019019763427899881]","[1,1,1]","[0.08323751152485273,-0.051685096573127684]","[1,1,1]","[0.00023329996336625842,0.018769244559633257]","[1,1,1]","[0.03488560974901895,0.05878320242015816]","[1,1,1]","[-0.06274720037850123,-0.15609902189675703]","[1,1,1]","[0.09685916224270438,-0.09038982681908765]","[1,1,1]","[0.17718385091226463,-0.05706520025033134]","[1,1,1]","[-0.10819796142673566,-0.1385738618429497]","[1,1,1]","[0.06441355235306508,0.10384657262585607]","[1,1,1]","[-0.159463988243707,-0.005888840007835287]","[1,1,1]","[0.136464195246798,0.05878883023530935]","[1,1,1]","[0.037662198651637384,-0.12069345184806313]","[1,1,1]","[-0.00931459259569346,0.10272741458516915]","[1,1,1]","[-0.03810601717074346,0.1678085611136186]","[1,1,1]","[-0.09366091599276538,0.09728412778383902]","[1,1,1]","[-0.13128733504943835,-0.10279706496575552]","[1,1,1]","[0.027793280938017473,-0.03779132291904522]","[1,1,1]","[0.1258513979351655,-0.03359625805031539]","[1,1,1]","[-0.020090896411951067,-0.19589887554022792]","[1,1,1]","[-0.07025988770015136,-0.07348104633200067]","[1,1,1]","[0.08759553743565944,0.14238710955300235]","[1,1,1]","[0.12607879451894186,0.1259909411333445]","[-1,-1,-1]","[0.17284864815018575,0.005728022432039656]","[-1,-1,-1]","[0.12520835873361102,0.006756758441183209]","[1,1,1]","[-0.0487772435864208,0.021426409198300172]","[1,1,1]","[0.02,0.02]",150.6963,0,28,28,208,1,,,,,,,
,,,,,,,5a732956f660ae0001a9b011,682f0fbb33061f80d581d4c0,2025-05-22_13h52.17.848,cuing_paradigm_dot,2024.1.5,Win32,59.88023952,682d573fa47f1360d1451895,,,,,,,,,,,150.6969,151.1954,,,151.4481,151.8302,right,0.3651,,,,,,,,,0.4,,,,,,151.1955,151.4481,151.8302,"[0.02625727046668895,-0.12450396226111586]","[-1,-1,-1]","[-0.04355705486204867,-0.005991905703842165]","[-1,-1,-1]","[-0.11668158141922311,0.06211225900118738]","[-1,-1,-1]","[-0.021415326170541274,0.1132930260619073]","[-1,-1,-1]","[-0.1945240777265065,-0.03834336218920347]","[1,1,1]","[0.11174080673834458,0.02380815967129596]","[-1,-1,-1]","[0.09120325109244647,-0.08057738639680978]","[1,1,1]","[0.045534971388701814,-0.16556378737976843]","[1,1,1]","[0.04046007686962262,0.17522140123861912]","[-1,-1,-1]","[-0.18068666542820136,0.010004589492469308]","[-1,-1,-1]","[-0.10382005738708255,0.007803569154889677]","[-1,-1,-1]","[0.1594657320295542,0.0875286614113963]","[1,1,1]","[0.18670690245933852,0.03305775481098489]","[1,1,1]","[0.08117614639257084,-0.12256322576476351]","[-1,-1,-1]","[0.18084645020788648,-0.018239427280131264]","[-1,-1,-1]","[-0.05221930835041104,0.07520954512556152]","[-1,-1,-1]","[0.0575513581462782,0.10309176861939087]","[-1,-1,-1]","[-0.07943491202311816,-0.09247645043107991]","[1,1,1]","[0.1411454730027331,-0.08464405143536088]","[-1,-1,-1]","[-0.04164492562531045,0.1831738315042167]","[1,1,1]","[0.03687337209706303,0.0015354157621188444]","[-1,-1,-1]","[0.010840420430756122,0.0886785663108722]","[-1,-1,-1]","[0.08049372569783786,-0.029183869871319688]","[-1,-1,-1]","[0.10438035923747113,0.16397653533452822]","[1,1,1]","[-0.15761823789615081,0.04450006760718378]","[-1,-1,-1]","[0.0024723024232641134,-0.07247786660285092]","[1,1,1]","[0.07214040489044196,0.041826129047055745]","[1,1,1]","[0.11378682382930107,-0.15418157327536808]","[-1,-1,-1]","[-0.011005515548734857,0.04264751702464427]","[1,1,1]","[0.0009659974011277902,-0.1740125196338431]","[-1,-1,-1]","[-0.08947426134458196,0.16592258240301314]","[1,1,1]","[0.1338026753896085,0.13536120422844766]","[1,1,1]","[0.02,0.02]",152.9255,0,29,29,35,1,,,,,,,
,,,,,,,5a732956f660ae0001a9b011,682f0fbb33061f80d581d4c0,2025-05-22_13h52.17.848,cuing_paradigm_dot,2024.1.5,Win32,59.88023952,682d573fa47f1360d1451895,,,,,,,,,,,152.9261,153.4244,,,153.6772,154.2568,left,0.5501,,,,,,,,,0.5,,,,,,153.4245,153.6771,154.2568,"[-0.05375091510806421,0.06943313705520515]","[-1,-1,-1]","[0.015769456815148266,-0.18793463169458233]","[1,1,1]","[0.06249423588119316,-0.05267435165386035]","[1,1,1]","[0.012403480808555821,-0.13081124384935566]","[1,1,1]","[-0.1557665907583268,-0.03224252009747099]","[-1,-1,-1]","[-0.09674242998196146,-0.15053258502243153]","[1,1,1]","[-0.13066592521544107,0.09846907149461118]","[-1,-1,-1]","[0.14579397323857335,0.04764247347568728]","[-1,-1,-1]","[-0.0459459321623587,-0.07956346526541747]","[-1,-1,-1]","[0.0065568528357379295,0.015914594102451208]","[1,1,1]","[0.06598865024618801,0.06409934885139693]","[1,1,1]","[-0.0867494019664925,0.0016017028463658513]","[1,1,1]","[0.18346054289729524,0.06872639228738507]","[1,1,1]","[-0.1925072015170206,0.022378595857438274]","[1,1,1]","[-0.1580747733351565,0.05044697261289132]","[-1,-1,-1]","[0.18111461737588605,-0.03733275192229079]","[-1,-1,-1]","[-0.0797503792460977,-0.05736789788298808]","[-1,-1,-1]","[-0.08824669624821489,0.13386342635503998]","[-1,-1,-1]","[0.11811181005559314,0.008731312570814095]","[1,1,1]","[0.09022034388790741,0.15064991374172537]","[1,1,1]","[0.11690021655049385,0.09659266359732768]","[-1,-1,-1]","[0.07038107516156897,0.018455136587139168]","[-1,-1,-1]","[-0.07506581066038875,-0.1161917162419994]","[-1,-1,-1]","[0.057346640428475905,-0.17683279673513685]","[-1,-1,-1]","[-0.018690126762365443,-0.04204590035517579]","[-1,-1,-1]","[-0.17038132437298842,0.09337307038703895]","[1,1,1]","[0.002666702761464169,0.16626237027471272]","[1,1,1]","[-0.06313874801002217,-0.18932172033944153]","[1,1,1]","[-0.03521291851278471,0.12207802816254221]","[1,1,1]","[-0.1470246457310218,-0.11046733447248426]","[-1,-1,-1]","[-0.11478914943171764,-0.03026988332307498]","[-1,-1,-1]","[0.09535929111955545,-0.16402820791738043]","[1,1,1]","[0.02,0.02]",155.3542,0,30,30,93,1,,,,,,,
,,,,,,,5a732956f660ae0001a9b011,682f0fbb33061f80d581d4c0,2025-05-22_13h52.17.848,cuing_paradigm_dot,2024.1.5,Win32,59.88023952,682d573fa47f1360d1451895,,,,,,,,,,,155.3549,155.8553,,,156.106,156.6856,left,0.5534,,,,,,,,,0.55,,,,,,155.8553,156.106,156.6856,"[-0.13346415219316313,0.04887149248385399]","[-1,-1,-1]","[0.18651831784210585,0.04152507632847315]","[1,1,1]","[0.169988454961433,-0.044869408938590837]","[1,1,1]","[0.04749261277636365,0.1632683383850691]","[1,1,1]","[-0.15647439383204703,-0.09999346635444775]","[1,1,1]","[-0.06530704761441268,0.15189986873619282]","[-1,-1,-1]","[-0.01368834743850556,0.18184421934522374]","[-1,-1,-1]","[-0.06492717591176231,-0.09899382742196125]","[1,1,1]","[-0.16620016317657144,0.10942972729607155]","[-1,-1,-1]","[-0.014547219202170628,0.08335492316590583]","[1,1,1]","[0.11472742877844967,0.022463141110415783]","[-1,-1,-1]","[0.058607645788528395,-0.006934877404198205]","[1,1,1]","[-0.10816872034134632,-0.016902262086146085]","[-1,-1,-1]","[0.07649845276532163,0.08612358013697982]","[-1,-1,-1]","[-0.1202811299730609,-0.15485972537135909]","[-1,-1,-1]","[-0.03387191372329442,-0.1587135671994444]","[1,1,1]","[0.01285314920127019,0.12716182127251668]","[1,1,1]","[-0.08349656065994751,0.10297724885011823]","[-1,-1,-1]","[0.12377754750635772,-0.021977665359597626]","[1,1,1]","[-0.07294839560461872,0.007424102188860786]","[1,1,1]","[-0.032369022576869896,0.1265750331510384]","[-1,-1,-1]","[0.018791303077416666,0.0110740372138873]","[1,1,1]","[0.11040825372126269,0.16023819129303002]","[-1,-1,-1]","[-0.030352259252098997,-0.06389349282118774]","[-1,-1,-1]","[0.005009324285174872,-0.10374179613965136]","[1,1,1]","[0.00971166901839516,-0.02867403506200112]","[1,1,1]","[0.04503673136191816,0.05851129969136064]","[1,1,1]","[0.058489641227069615,-0.14094900394340956]","[-1,-1,-1]","[-0.0944306012837093,0.06246163180785007]","[-1,-1,-1]","[0.157593083850725,0.001760843361039359]","[1,1,1]","[0.09392267923667176,-0.058378581667347273]","[1,1,1]","[-0.10859088340775232,-0.08048493728190614]","[1,1,1]","[0.02,0.02]",157.7827,0,31,31,125,1,,,,,,,
,,,,,,,5a732956f660ae0001a9b011,682f0fbb33061f80d581d4c0,2025-05-22_13h52.17.848,cuing_paradigm_dot,2024.1.5,Win32,59.88023952,682d573fa47f1360d1451895,,,,,,,,,,,157.7833,158.2839,,,158.5356,158.8977,left,0.3408,,,,,,,,,0.9,,,,,,158.284,158.5356,158.8979,"[0.18256303891046222,0.009311468085137432]","[1,1,1]","[0.06527595611985536,0.026428035596162802]","[-1,-1,-1]","[0.03663556408638669,0.13996614655384526]","[1,1,1]","[-0.1572967235617473,-0.11044476808538088]","[1,1,1]","[-0.04085442803364577,-0.01740325386132526]","[1,1,1]","[-0.09774005028940232,0.1434453377392597]","[1,1,1]","[-0.10848861427239168,-0.10675870409654477]","[1,1,1]","[0.012621522364919511,0.18465729797484093]","[1,1,1]","[0.12170128015688367,0.0014943626521225404]","[1,1,1]","[0.06275051835479283,-0.18888811994380486]","[1,1,1]","[-0.17095279683505799,0.06520296554972262]","[1,1,1]","[0.03247567943598364,-0.1380658190599235]","[1,1,1]","[0.03560470389124091,-0.04489865943211388]","[1,1,1]","[-0.1922569112066028,-0.011497740945955192]","[1,1,1]","[-0.04668734361374628,-0.08664854231493273]","[1,1,1]","[-0.07148602175415403,-0.18350797755789008]","[1,1,1]","[0.0035438958966370823,0.048619938300773005]","[-1,-1,-1]","[0.0781049324209985,0.10914840650116615]","[1,1,1]","[0.14921151250032164,-0.0309009906779608]","[1,1,1]","[-0.018774398801863677,-0.19765452048044305]","[-1,-1,-1]","[0.14665970055063635,0.039212108063934235]","[1,1,1]","[-0.087115968322876,0.028928079794257718]","[1,1,1]","[0.08266032627486362,-0.08598561607548882]","[1,1,1]","[-0.12787317215198785,0.10339608133574478]","[1,1,1]","[0.06651445179494252,0.1862347724332316]","[1,1,1]","[-0.023608536265826232,-0.1563212054770405]","[1,1,1]","[0.15762847172501948,-0.08360414481471504]","[1,1,1]","[0.08194528838320292,-0.040456696274374766]","[1,1,1]","[-0.06537982908922813,-0.050234630643178554]","[1,1,1]","[0.13803954497703402,0.12818333866869286]","[1,1,1]","[0.09655204100478429,0.06193396203762089]","[1,1,1]","[-0.08873844777003001,0.0865916252361178]","[1,1,1]","[0.02,0.02]",159.9954,0,32,32,184,1,,,,,,,
,,,,,,,5a732956f660ae0001a9b011,682f0fbb33061f80d581d4c0,2025-05-22_13h52.17.848,cuing_paradigm_dot,2024.1.5,Win32,59.88023952,682d573fa47f1360d1451895,,,,,,,,,,,159.996,160.4945,,,160.7472,161.6124,left,0.8483,,,,,,,,,0.55,,,,,,160.4945,160.7471,161.6124,"[-0.06667229728556812,-0.07207389865149387]","[-1,-1,-1]","[0.1042236262165782,-0.0008457658992335004]","[-1,-1,-1]","[0.1752742075874445,-0.06662563796821466]","[1,1,1]","[0.16194569170485942,-0.011509467203579083]","[1,1,1]","[0.09929478267594231,-0.10468696423802996]","[1,1,1]","[-0.13777481510909673,-0.10173182505560674]","[1,1,1]","[-0.011009262551814558,-0.1370777420062615]","[1,1,1]","[-0.10287226309035764,-0.13351266401058004]","[1,1,1]","[0.05497716798943765,-0.18806263761170705]","[-1,-1,-1]","[0.13073291487482702,0.12080244249245825]","[1,1,1]","[-0.021139888391327605,-0.04280270223516635]","[-1,-1,-1]","[0.006500921746234469,0.0488535916390626]","[1,1,1]","[0.060470659511146684,-0.033929590855868545]","[1,1,1]","[0.047960066861751326,-0.08220503683926599]","[1,1,1]","[-0.06960255275853691,-0.17315817245949952]","[1,1,1]","[-0.09201910791676252,0.11285518215344785]","[1,1,1]","[0.0752339119296042,0.18161130556163202]","[-1,-1,-1]","[-0.0906710007894164,0.03451384635582928]","[-1,-1,-1]","[-0.18548390053699168,0.031667092416602045]","[-1,-1,-1]","[0.0052249918932947125,-0.004267516850167311]","[1,1,1]","[-0.17241471504446437,-0.0638334097131559]","[1,1,1]","[0.0034083031774645384,-0.0927504395835944]","[1,1,1]","[0.06517991889663023,0.05324130850247995]","[-1,-1,-1]","[0.02924455513047303,0.1265830554785461]","[1,1,1]","[-0.09202213050600015,-0.025060373955541605]","[-1,-1,-1]","[-0.07823470551259333,0.1530223066134708]","[-1,-1,-1]","[0.16086684633572143,-0.11312671139995677]","[1,1,1]","[-0.05701719144045916,-0.13448106317613423]","[-1,-1,-1]","[0.044283429067624766,0.01639803349298802]","[-1,-1,-1]","[-0.03739434997689026,0.17045570540478652]","[1,1,1]","[0.11778001595709797,0.0824056190964199]","[-1,-1,-1]","[-0.042943588232585324,-0.006690937185284566]","[-1,-1,-1]","[0.02,0.02]",162.707,0,33,33,131,1,,,,,,,
,,,,,,,5a732956f660ae0001a9b011,682f0fbb33061f80d581d4c0,2025-05-22_13h52.17.848,cuing_paradigm_dot,2024.1.5,Win32,59.88023952,682d573fa47f1360d1451895,,,,,,,,,,,162.7076,163.2059,,,163.4605,163.9551,right,0.4727,,,,,,,,,0.4,,,,,,163.206,163.4605,163.9553,"[-0.008730227466208308,-0.06282371473094928]","[-1,-1,-1]","[-0.11965429851690648,-0.1352676238427167]","[1,1,1]","[0.021561449743588465,-0.016520176357770144]","[-1,-1,-1]","[-0.08894084739252972,0.05872206629469199]","[1,1,1]","[0.1446546978491264,-0.025342781218327823]","[-1,-1,-1]","[-0.06126382294397626,-0.01656426555263057]","[-1,-1,-1]","[0.05619186441634838,-0.1904957604195988]","[1,1,1]","[0.025033386168688273,0.17761185552703518]","[1,1,1]","[0.017088359096796266,0.08733342284997503]","[1,1,1]","[0.018014549091262266,-0.1713167718927197]","[-1,-1,-1]","[0.19579496396585583,0.003861614144933295]","[-1,-1,-1]","[-0.18881559724866262,-0.037332840278726374]","[-1,-1,-1]","[0.01343438943227846,0.13869719966285401]","[-1,-1,-1]","[0.18045067481226937,0.05646899336253206]","[1,1,1]","[-0.07724269585347224,0.09996613035380053]","[-1,-1,-1]","[0.10965659964913547,-0.07103878020186552]","[1,1,1]","[-0.025966757924431608,-0.188320235144591]","[1,1,1]","[0.05355016354579706,-0.11726204164074339]","[1,1,1]","[0.10202175612125976,-0.009342942551747292]","[-1,-1,-1]","[0.11842297375666506,-0.16039641653937486]","[-1,-1,-1]","[-0.10676632727726251,-0.06981044122544049]","[1,1,1]","[-0.11827407190846338,0.12926283933240496]","[-1,-1,-1]","[-0.025714555960299996,0.0029200465879860725]","[-1,-1,-1]","[-0.11175994414915297,-0.02732513671218491]","[-1,-1,-1]","[0.08182045975714103,0.15108458991799378]","[-1,-1,-1]","[-0.016183250628270446,-0.143510189941421]","[-1,-1,-1]","[-0.13916373958928496,0.0592504934643789]","[-1,-1,-1]","[0.044999394230012264,0.023635342657785316]","[1,1,1]","[-0.1654032396536159,0.02066020534120295]","[-1,-1,-1]","[-0.15415886412954113,-0.059029804532966856]","[-1,-1,-1]","[0.1197614676868947,0.050690659312960726]","[1,1,1]","[-0.021926917386771282,-0.10220222932038102]","[1,1,1]","[0.02,0.02]",165.0525,0,34,34,47,1,,,,,,,
,,,,,,,5a732956f660ae0001a9b011,682f0fbb33061f80d581d4c0,2025-05-22_13h52.17.848,cuing_paradigm_dot,2024.1.5,Win32,59.88023952,682d573fa47f1360d1451895,,,,,,,,,,,165.0531,165.5534,,,165.8053,166.519,right,0.6976,,,,,,,,,0.4,,,,,,165.5535,165.8052,166.5191,"[-0.04227800916035939,-0.04806687221132842]","[-1,-1,-1]","[0.1358125874084653,-0.12921522149622983]","[-1,-1,-1]","[0.1483865778156221,0.040134723982069985]","[1,1,1]","[-0.095275885548639,-0.0022398318131984203]","[-1,-1,-1]","[-0.015885126938665856,-0.08670984049031666]","[-1,-1,-1]","[0.0537341245459234,0.005925786226915081]","[-1,-1,-1]","[-0.016612710031452874,0.1556879063687432]","[1,1,1]","[-0.06371509915299887,-0.1482327545603077]","[-1,-1,-1]","[0.08263014461534228,0.08940087839969854]","[-1,-1,-1]","[0.022906194713009958,0.1886924506814434]","[1,1,1]","[-0.1839233028909044,0.0030673139392738942]","[1,1,1]","[-0.054609098663228745,-0.18907753731305288]","[1,1,1]","[-0.10694736376814547,-0.11972186803395798]","[1,1,1]","[-0.13398278002199804,-0.07969761942392256]","[-1,-1,-1]","[-0.1243060095747048,0.07640725118815009]","[-1,-1,-1]","[-0.09199553403842084,0.11304906590620649]","[-1,-1,-1]","[0.17231193254855506,0.08141641081143655]","[1,1,1]","[0.14740091992550397,-0.04224509058453693]","[1,1,1]","[-0.0016713453130572477,0.04484966880726311]","[1,1,1]","[0.04469442247497812,-0.09250062286147925]","[-1,-1,-1]","[0.11384636927670694,0.12009860494671785]","[1,1,1]","[0.02419838934413955,0.07707739982484356]","[1,1,1]","[-0.0016232014391443605,-0.1842037649110447]","[1,1,1]","[-0.11603088397399564,0.15862173312776037]","[-1,-1,-1]","[0.16892682776780796,0.005560778084364627]","[-1,-1,-1]","[-0.044329730046796086,0.08654738534947509]","[-1,-1,-1]","[-0.1578284005973173,-0.04223748640990201]","[-1,-1,-1]","[-0.006554419346287971,-0.12978771446053422]","[1,1,1]","[0.10361819757209433,0.041946437725640474]","[-1,-1,-1]","[0.06154696365782814,0.1271388892654244]","[-1,-1,-1]","[0.17274148988060464,-0.08584098401787073]","[-1,-1,-1]","[-0.07845815247084427,0.05928332086135042]","[-1,-1,-1]","[0.02,0.02]",167.6144,0,35,35,58,1,,,,,,,
,,,,,,,5a732956f660ae0001a9b011,682f0fbb33061f80d581d4c0,2025-05-22_13h52.17.848,cuing_paradigm_dot,2024.1.5,Win32,59.88023952,682d573fa47f1360d1451895,,,,,,,,,,,167.615,168.1161,,,168.3666,169.0455,right,0.6615,,,,,,,,,0.5,,,,,,168.1161,168.3666,169.0456,"[0.13456576391181074,0.12645878966197968]","[1,1,1]","[-0.09076707394271474,-0.10135375912149337]","[-1,-1,-1]","[-0.008925838725185058,0.19819126081147193]","[-1,-1,-1]","[-0.0557169996326592,0.06272593583353653]","[1,1,1]","[-0.02294810985476765,0.13391491749295512]","[1,1,1]","[-0.05320201780192591,-0.022206414291673884]","[1,1,1]","[-0.1253792489022885,0.10999836504284706]","[1,1,1]","[0.06402434978206842,0.035792762898006286]","[1,1,1]","[0.016957785892290578,0.1285548799610164]","[1,1,1]","[0.05315290667257297,0.09720331325645834]","[-1,-1,-1]","[0.029721104494587376,0.16830136320240466]","[1,1,1]","[0.09984312602638049,0.055767679979240044]","[-1,-1,-1]","[0.1443337884655707,-0.09111582563102996]","[1,1,1]","[0.026504584654921195,-0.13095289241540295]","[1,1,1]","[-0.011011106288905215,0.03066911059455596]","[1,1,1]","[-0.11802635642603351,0.04041131073812541]","[1,1,1]","[-0.013083864585207083,-0.17503788681839116]","[-1,-1,-1]","[0.07645191857167129,-0.07134721058005612]","[-1,-1,-1]","[0.08308151636794829,0.18075694584892407]","[-1,-1,-1]","[-0.0820071434387159,-0.14920944613416667]","[1,1,1]","[0.14222199381572065,0.012179300661465718]","[-1,-1,-1]","[-0.1609424284660611,0.061883599116012]","[-1,-1,-1]","[0.17919192334343234,0.0821793866865824]","[-1,-1,-1]","[-0.060598997805440404,0.15107620056959195]","[1,1,1]","[-0.14400584224265445,-0.12482342502012284]","[-1,-1,-1]","[0.015312191819175409,-0.06211617153471852]","[1,1,1]","[0.06362701640540382,-0.17661006879970387]","[-1,-1,-1]","[-0.10213571594070457,-0.0416597950511011]","[-1,-1,-1]","[0.18791180030016466,-0.017437879563539583]","[1,1,1]","[0.10530333413025011,-0.015846867077550498]","[-1,-1,-1]","[0.006620809426364504,0.07252386148752832]","[-1,-1,-1]","[-0.11424963838800699,0.1493165825267892]","[-1,-1,-1]","[0.02,0.02]",170.1428,0,36,36,118,1,,,,,,,
,,,,,,,5a732956f660ae0001a9b011,682f0fbb33061f80d581d4c0,2025-05-22_13h52.17.848,cuing_paradigm_dot,2024.1.5,Win32,59.88023952,682d573fa47f1360d1451895,,,,,,,,,,,170.1436,170.642,,,170.8953,171.4073,left,0.4928,,,,,,,,,0.6,,,,,,170.642,170.8953,171.4075,"[0.07494789546791208,0.15611875183935842]","[1,1,1]","[-0.12920399360031135,-0.14004785952541943]","[-1,-1,-1]","[0.17156143294915932,0.09960396543830022]","[-1,-1,-1]","[-0.08436158124444496,0.1351743502012021]","[1,1,1]","[-0.1346783753645181,-0.012650099594392415]","[1,1,1]","[-0.17681567027312106,0.08014993245398179]","[-1,-1,-1]","[-0.0018857942583970415,0.13936578654288279]","[1,1,1]","[-0.09069865118088945,0.06255779490295584]","[1,1,1]","[-0.036886074454625224,0.049586992113408335]","[1,1,1]","[0.06847924887010741,-0.042341555720154404]","[1,1,1]","[0.027904301724341066,0.021645792423267196]","[-1,-1,-1]","[0.12704254202838794,-0.13959635925683178]","[-1,-1,-1]","[0.12624542446408415,-0.042728984143958225]","[1,1,1]","[0.04519422101788353,-0.16771724261162807]","[1,1,1]","[-0.13616734916977133,0.06712158390353722]","[-1,-1,-1]","[0.04170484929792222,0.1200949173148077]","[-1,-1,-1]","[0.06108924267890552,-0.08837040726546738]","[1,1,1]","[-0.11994395149883115,0.11272855873404931]","[1,1,1]","[0.08648450104025614,0.007963470581062851]","[1,1,1]","[0.064500375801581,0.06693465774925159]","[-1,-1,-1]","[-0.06935991060980538,-0.12851166095326275]","[1,1,1]","[-0.18054810191886353,-0.041715815758022544]","[-1,-1,-1]","[-0.03064740162071608,-0.006634359071033343]","[1,1,1]","[-0.04734976061142358,0.09026105353836705]","[1,1,1]","[0.0376255414804158,-0.12237186525767867]","[1,1,1]","[-0.03721934130792536,-0.1010110869364701]","[-1,-1,-1]","[0.17013347964679193,-0.05267774213079776]","[1,1,1]","[0.09653457311679518,0.09617438524369533]","[-1,-1,-1]","[-0.06617773024126947,-0.1744280006561931]","[1,1,1]","[0.14702891214475833,0.03615547693510766]","[-1,-1,-1]","[0.006305067481965858,-0.057330455858033105]","[1,1,1]","[-0.022879977910492778,-0.18367916138740123]","[-1,-1,-1]","[0.02,0.02]",172.5051,0,37,37,175,1,,,,,,,
,,,,,,,5a732956f660ae0001a9b011,682f0fbb33061f80d581d4c0,2025-05-22_13h52.17.848,cuing_paradigm_dot,2024.1.5,Win32,59.88023952,682d573fa47f1360d1451895,,,,,,,,,,,172.5057,173.006,,,173.2577,173.9884,left,0.7144,,,,,,,,,0.55,,,,,,173.0061,173.2576,173.9884,"[-0.10578912747141653,-0.03800830516603388]","[1,1,1]","[-0.015207563649741636,-0.14147034834238892]","[1,1,1]","[-0.04741058320036136,0.03172149531478188]","[1,1,1]","[0.047352731096399744,-0.15462059950450407]","[1,1,1]","[-0.15571870978438498,-0.009827290435255648]","[1,1,1]","[-0.020238501005240328,-0.18142108204956578]","[1,1,1]","[0.12463156079939006,0.13166306469651096]","[-1,-1,-1]","[-0.15977486529020427,-0.06563114277926937]","[-1,-1,-1]","[0.19260863498800485,0.051216597810967025]","[1,1,1]","[0.15867387231516997,-0.009365414247996313]","[-1,-1,-1]","[-0.19223086156524485,0.024657568265042423]","[1,1,1]","[-0.16271187673527315,0.09504532243535346]","[1,1,1]","[0.11171268921991041,-0.08521340105720486]","[1,1,1]","[-0.09483574582518714,-0.12871771207731697]","[-1,-1,-1]","[0.09557461720395355,-0.011653911661938153]","[-1,-1,-1]","[0.03652442271293826,-0.05097706558916345]","[1,1,1]","[0.007291722213976984,-0.011294879147513114]","[1,1,1]","[-0.12949239936345522,0.1312181664898452]","[-1,-1,-1]","[0.031941754908003335,0.08012052096829947]","[1,1,1]","[-0.04530405432415095,-0.05321028309685568]","[1,1,1]","[0.14045204776070616,-0.11798883092644334]","[-1,-1,-1]","[-0.06344709067623218,0.1364857573997726]","[-1,-1,-1]","[0.11156802800845284,-0.15955294822343402]","[1,1,1]","[-0.031815854479760215,0.17156078540590167]","[-1,-1,-1]","[0.017201564417465006,0.04120909225029857]","[-1,-1,-1]","[-0.11655845957568843,0.001324804537770949]","[-1,-1,-1]","[0.04577302550904319,0.19404556861483416]","[-1,-1,-1]","[-0.12870949244255583,0.057481074990017894]","[1,1,1]","[-0.09558873875014112,-0.1720210437761713]","[1,1,1]","[0.14299290632923803,0.04871873192338606]","[-1,-1,-1]","[-0.009130934358780764,0.0784384284014335]","[-1,-1,-1]","[0.19609171432726802,0.00539863440713273]","[1,1,1]","[0.02,0.02]",175.0837,0,38,38,122,1,,,,,,,
,,,,,,,5a732956f660ae0001a9b011,682f0fbb33061f80d581d4c0,2025-05-22_13h52.17.848,cuing_paradigm_dot,2024.1.5,Win32,59.88023952,682d573fa47f1360d1451895,,,,,,,,,,,175.0843,175.5826,,,175.836,176.3979,right,0.536,,,,,,,,,0.55,,,,,,175.5828,175.8359,176.3981,"[0.0853573888531254,0.06354662715606153]","[-1,-1,-1]","[-0.15795386148924845,0.07151586855291577]","[-1,-1,-1]","[-0.11903882201089891,-0.017887227929960923]","[-1,-1,-1]","[-0.06390179123650062,0.17473779950386334]","[1,1,1]","[-0.0008223107135663694,0.13945410169548617]","[1,1,1]","[0.028531780361957595,0.1010747822722863]","[1,1,1]","[-0.016611667586971166,-0.03398073354421103]","[-1,-1,-1]","[0.1101017335553078,-0.027198111964030814]","[1,1,1]","[0.04230245085530234,-0.10793092614929987]","[1,1,1]","[-0.011026100176516123,0.06805941538861195]","[1,1,1]","[-0.1802963723114445,-0.08507182163964512]","[-1,-1,-1]","[0.05506983186485543,0.1547673542347224]","[1,1,1]","[0.051486027954353135,-0.002965553197596315]","[1,1,1]","[0.16531530220332263,0.008146650278992201]","[-1,-1,-1]","[0.11748814337589784,0.03725081110722594]","[-1,-1,-1]","[0.08978289806665897,0.1139558107559329]","[-1,-1,-1]","[-0.0424909097564593,-0.06648788279965037]","[1,1,1]","[0.10631440924259779,-0.06915523325973175]","[-1,-1,-1]","[0.13165830771061546,0.1448162025769016]","[1,1,1]","[-0.08096263849640509,-0.13385359740349556]","[1,1,1]","[0.16097836771470106,0.10432429982207822]","[1,1,1]","[0.14399100544985707,-0.12723530496292565]","[1,1,1]","[-0.10320520033009449,0.09710529378133385]","[1,1,1]","[-0.10968361665613577,0.03908752098074118]","[1,1,1]","[-0.0016244702763837176,-0.17814395628367707]","[1,1,1]","[-0.03383706659734599,0.10318662167534806]","[-1,-1,-1]","[-0.05024247837465946,-0.16518556927744435]","[-1,-1,-1]","[-0.13372523260737948,0.13605596663228586]","[-1,-1,-1]","[-0.17919055947859813,-0.002931244410557166]","[-1,-1,-1]","[-0.1166202828764338,-0.06708609244953495]","[1,1,1]","[0.03482449368721405,-0.05190959570329208]","[-1,-1,-1]","[-0.07094613989472426,0.06865109339227886]","[1,1,1]","[0.02,0.02]",177.4955,0,39,39,145,1,,,,,,,
,,,,,,,5a732956f660ae0001a9b011,682f0fbb33061f80d581d4c0,2025-05-22_13h52.17.848,cuing_paradigm_dot,2024.1.5,Win32,59.88023952,682d573fa47f1360d1451895,,,,,,,,,,,177.4961,177.9947,,,178.2479,178.6937,right,0.4278,,,,,,,,,0.1,,,,,,177.9948,178.2479,178.6938,"[-0.005345935784678282,-0.0023546017908224887]","[-1,-1,-1]","[-0.03496919355277719,-0.12233699166257858]","[-1,-1,-1]","[-0.032449385169492584,-0.18233980244627257]","[-1,-1,-1]","[-0.11584058812157896,-0.06305403243181527]","[-1,-1,-1]","[0.06153618451017314,-0.10768462969176461]","[-1,-1,-1]","[-0.009882697798889215,0.1068028058134858]","[-1,-1,-1]","[-0.1612643153150336,-0.058542889670159595]","[-1,-1,-1]","[-0.053282318425348606,-0.07301257716408369]","[-1,-1,-1]","[-0.14933431184227902,0.015383896896579843]","[-1,-1,-1]","[-0.09513194377599551,-0.12023447142648315]","[-1,-1,-1]","[-0.0623432313065049,0.025886464900090587]","[-1,-1,-1]","[-0.06362183482633385,0.07397446589587021]","[-1,-1,-1]","[-0.043847840897170205,-0.021192436121171145]","[-1,-1,-1]","[0.13587914783368996,-0.043162562711079426]","[-1,-1,-1]","[0.03339465788585564,0.10679406865070824]","[-1,-1,-1]","[-0.012205671869818526,0.04480774769186497]","[-1,-1,-1]","[0.15059213672731755,0.08495884450704294]","[-1,-1,-1]","[0.13081901162600418,-0.1187498760349978]","[-1,-1,-1]","[-0.15355812306095623,-0.12201584763899699]","[-1,-1,-1]","[0.025070208746735486,0.18993896236145322]","[-1,-1,-1]","[0.09136856343650047,-0.171684090497957]","[-1,-1,-1]","[0.18603247754395041,-0.04112536543794428]","[1,1,1]","[-0.09575973551850549,0.0008418007096275665]","[1,1,1]","[0.001711615195862089,-0.08772992829537732]","[-1,-1,-1]","[0.0775400842245192,0.1210581793729544]","[-1,-1,-1]","[0.007911564513231262,-0.18504992033396456]","[-1,-1,-1]","[-0.18522488816790672,0.054411701504758096]","[-1,-1,-1]","[0.04012684952976936,-0.14213876903249176]","[-1,-1,-1]","[-0.1071566625755953,0.11286425469527506]","[-1,-1,-1]","[0.1370825933592635,0.023558110544477266]","[-1,-1,-1]","[0.09349362587585418,0.03462935381403426]","[-1,-1,-1]","[-0.07861199279334682,-0.1608073758194577]","[1,1,1]","[0.02,0.02]",179.7913,0,40,40,9,1,,,,,,,
,,,,,,,5a732956f660ae0001a9b011,682f0fbb33061f80d581d4c0,2025-05-22_13h52.17.848,cuing_paradigm_dot,2024.1.5,Win32,59.88023952,682d573fa47f1360d1451895,,,,,,,,,,,179.7918,180.2903,,,180.543,181.0059,left,0.4443,,,,,,,,,0.6,,,,,,180.2903,180.5429,181.006,"[0.020189148313396823,-0.07368810854752024]","[-1,-1,-1]","[0.11164525751824547,-0.05571711180705976]","[1,1,1]","[0.05676127233926125,-0.10630558074447523]","[1,1,1]","[-0.005362850190766397,-0.17171732879844143]","[1,1,1]","[0.1974267782505341,0.03127357677191882]","[1,1,1]","[-0.001676819372110218,0.06305540181567222]","[-1,-1,-1]","[0.07611115247845372,0.03399115778274616]","[-1,-1,-1]","[0.026934499010598127,0.16300832135679308]","[-1,-1,-1]","[-0.06369229427450028,0.010070236959165414]","[1,1,1]","[0.1404882191015634,-0.09804089528549036]","[-1,-1,-1]","[0.07916563265917283,0.18027289666001695]","[-1,-1,-1]","[-0.031336683384677426,0.10859168126224278]","[1,1,1]","[0.1341543640533922,0.031200173506080623]","[1,1,1]","[0.10986331826690351,0.13667834566014686]","[1,1,1]","[-0.038808230381938216,-0.07897756086063319]","[1,1,1]","[-0.17035544146246928,-0.026263291627231882]","[1,1,1]","[0.05886598242932322,-0.005547579033050843]","[1,1,1]","[0.10004880384093,-0.15844956874882946]","[1,1,1]","[0.04669443975484423,-0.17491116177934551]","[1,1,1]","[0.01731827738860148,0.11037571015933911]","[-1,-1,-1]","[-0.030500486944702466,-0.13233632399568165]","[-1,-1,-1]","[-0.07738003207195403,-0.10051182864700471]","[1,1,1]","[0.16486755043306936,0.08272384825406659]","[1,1,1]","[-0.17375806114206443,-0.06948143227315538]","[1,1,1]","[0.010780065771696233,0.016775968708804725]","[-1,-1,-1]","[-0.093867493925387,-0.15771695893984078]","[1,1,1]","[-0.12988419856616842,0.12931688339862948]","[1,1,1]","[-0.03559071761486376,-0.03297252482323525]","[1,1,1]","[-0.015909799270985188,0.15860593501096582]","[-1,-1,-1]","[-0.06067346822737383,0.051433357029889604]","[-1,-1,-1]","[0.0723543739078771,-0.0459833679687139]","[-1,-1,-1]","[-0.11472187497994753,0.08785912136906092]","[-1,-1,-1]","[0.02,0.02]",182.1036,0,41,41,172,1,,,,,,,
,,,,,,,5a732956f660ae0001a9b011,682f0fbb33061f80d581d4c0,2025-05-22_13h52.17.848,cuing_paradigm_dot,2024.1.5,Win32,59.88023952,682d573fa47f1360d1451895,,,,,,,,,,,182.1043,182.6026,,,182.856,183.1186,left,0.2441,,,,,,,,,0.9,,,,,,182.6027,182.856,183.1187,"[0.01513061826306143,-0.008851804374284266]","[1,1,1]","[0.11845776540601631,0.14839662611699392]","[1,1,1]","[0.1410259840305099,0.04811171895533753]","[1,1,1]","[-0.11638962975593883,0.15190833561517697]","[1,1,1]","[-0.07748850604508897,0.02102744216848089]","[1,1,1]","[-0.06935807374152933,-0.1440858426370162]","[1,1,1]","[0.0031559910282628998,-0.07196485002665887]","[1,1,1]","[0.10780152808734725,-0.09217696045753962]","[1,1,1]","[0.022380122711835714,-0.13608811087485492]","[1,1,1]","[0.06908073624063926,0.0412976455990469]","[1,1,1]","[0.032194548617476074,-0.19374888390083508]","[1,1,1]","[-0.034128932711057616,-0.05581504938948929]","[1,1,1]","[0.02379967817926657,0.16457323983188196]","[-1,-1,-1]","[0.11129557305014313,-0.13617506969388612]","[1,1,1]","[-0.12265063213391379,-0.11268637140896616]","[1,1,1]","[0.09533752746112836,-0.03134814318162128]","[1,1,1]","[-0.082479652375954,0.09123975798168592]","[1,1,1]","[-0.14545184218244614,-0.05763890114074538]","[1,1,1]","[0.07482054084664,0.15089060231591736]","[-1,-1,-1]","[-0.18168467769629887,0.029039348693009132]","[1,1,1]","[-0.0548830523239942,0.1547782303142971]","[1,1,1]","[0.07179947770925586,0.10028290145819414]","[1,1,1]","[0.05760605582119718,-0.10125763005374781]","[1,1,1]","[-0.036925631404145544,0.032579782300281]","[1,1,1]","[-0.07897983088649557,-0.07745475755175119]","[1,1,1]","[-0.03352215648844033,0.0781012749191084]","[1,1,1]","[0.15551122892040678,-0.10614207499560428]","[1,1,1]","[-0.09622060888014547,-0.021571960034539036]","[1,1,1]","[-0.15170533180676418,0.12175375270511231]","[1,1,1]","[-0.15207469229617496,0.07166977637624482]","[1,1,1]","[0.1459362968265544,-0.04764101341223129]","[-1,-1,-1]","[0.16309378515199202,0.11571292186054886]","[1,1,1]","[0.02,0.02]",184.2197,0,42,42,209,1,,,,,,,
,,,,,,,5a732956f660ae0001a9b011,682f0fbb33061f80d581d4c0,2025-05-22_13h52.17.848,cuing_paradigm_dot,2024.1.5,Win32,59.88023952,682d573fa47f1360d1451895,,,,,,,,,,,184.2203,184.7154,,,184.9681,185.4309,left,0.4434,,,,,,,,,0.9,,,,,,184.7154,184.968,185.4309,"[0.10338710663041509,-0.028154915262165518]","[1,1,1]","[-0.037313478901955494,-0.14786645506151078]","[1,1,1]","[0.15481116692670338,-0.06335041455196824]","[1,1,1]","[-0.0914322972435684,-0.06879355386613754]","[1,1,1]","[0.0028462544397098227,-0.03864873717008387]","[1,1,1]","[0.009914896272450457,0.08535985291011329]","[1,1,1]","[0.15737555338051884,-0.12300113667493565]","[1,1,1]","[0.09895259101881264,0.1270370046097459]","[-1,-1,-1]","[-0.13203864388626996,-0.1034739915041178]","[-1,-1,-1]","[-0.017642053240575516,0.023958342338749685]","[1,1,1]","[-0.09708672132022042,-0.13284509259939764]","[1,1,1]","[0.06387884393183108,-0.10904814541626695]","[1,1,1]","[-0.16983547041597907,-0.05345607133264019]","[1,1,1]","[0.18812033280057833,0.003659819254461173]","[1,1,1]","[0.052683996332817534,0.18435766880441717]","[1,1,1]","[-0.011521990196169257,-0.08111857869264497]","[1,1,1]","[0.0589080171390881,-0.1876928261267242]","[1,1,1]","[0.15639607942136588,0.04796033697327722]","[1,1,1]","[-0.09047317998094823,0.087184220734705]","[1,1,1]","[-0.12107795102677774,0.003234595535572114]","[-1,-1,-1]","[-0.18348737366172027,0.035129319345285785]","[1,1,1]","[0.12760512443363012,0.017530283172294835]","[1,1,1]","[-0.055629000147336245,0.056050363343638575]","[1,1,1]","[0.032544849009110546,-0.07265725366797736]","[1,1,1]","[-0.03670532666722857,0.1492946577188949]","[1,1,1]","[0.14084328411715635,0.10519559610067762]","[1,1,1]","[0.10661148712358742,-0.12119169002124208]","[1,1,1]","[-0.07500784861809423,-0.1835072356215365]","[1,1,1]","[0.02262870943608984,0.02621831706137539]","[1,1,1]","[-0.12446223147655767,0.1390350477008084]","[1,1,1]","[-0.14268767703176494,0.05692393999302661]","[1,1,1]","[-0.09812206058907336,0.041249294964363546]","[1,1,1]","[0.02,0.02]",186.5285,0,43,43,188,1,,,,,,,
,,,,,,,5a732956f660ae0001a9b011,682f0fbb33061f80d581d4c0,2025-05-22_13h52.17.848,cuing_paradigm_dot,2024.1.5,Win32,59.88023952,682d573fa47f1360d1451895,,,,,,,,,,,186.5291,187.0276,,,187.2803,187.5937,left,0.2908,,,,,,,,,0.9,,,,,,187.0276,187.2803,187.5939,"[0.029094408824579854,0.1732315365496887]","[1,1,1]","[-0.059856047013239905,0.07005937303259083]","[-1,-1,-1]","[-0.18867971889455692,-0.055337320547496835]","[1,1,1]","[-0.021927073090528694,0.1914630444592207]","[1,1,1]","[0.09567908783734762,0.06486006332320671]","[1,1,1]","[-0.17820299905496292,0.06729936061546751]","[1,1,1]","[-0.006937462901234851,-0.09625776931094927]","[1,1,1]","[0.03167785266434797,0.056753376243330225]","[1,1,1]","[-0.10803838681972106,0.09118581538216454]","[1,1,1]","[0.16503943522439188,0.10825575439933857]","[1,1,1]","[-0.022515409219518893,0.13492476749539808]","[1,1,1]","[-0.001317209469389779,-0.013180215963285433]","[1,1,1]","[0.18272793409310908,0.0619939958780933]","[1,1,1]","[-0.1340978151012144,0.02622639836983364]","[1,1,1]","[0.07214893323834481,-0.09579494369333949]","[1,1,1]","[-0.056172882555348434,-0.18568957358195395]","[1,1,1]","[-0.0049330385794715565,-0.1665083245779595]","[1,1,1]","[-0.09799516558777689,-0.07672666279522443]","[1,1,1]","[0.11898999178060009,-0.0992293399823464]","[1,1,1]","[0.0686801752879217,-0.18628216293435473]","[1,1,1]","[0.04819730505149158,-0.013325314854147084]","[-1,-1,-1]","[0.12996263960482313,-0.028110120193615393]","[1,1,1]","[-0.19748859362015056,0.014269237078497372]","[1,1,1]","[-0.12409114257586487,-0.01541913091137818]","[1,1,1]","[0.1023686174044052,0.16026322580060623]","[1,1,1]","[-0.07985658157538617,-0.036682092780564536]","[-1,-1,-1]","[-0.12260806005453546,0.13485415132949777]","[1,1,1]","[-0.06709888847763165,0.1411694571782875]","[1,1,1]","[-0.034379960918499194,-0.05338010964093861]","[1,1,1]","[-0.0978766108196534,-0.14379489847411564]","[1,1,1]","[0.1278042281298697,-0.13977519756589935]","[1,1,1]","[0.17515085983099665,0.007100779185423638]","[1,1,1]","[0.02,0.02]",188.6912,0,44,44,205,1,,,,,,,
