right,left,explain.started,explain.stopped,key_resp_3.keys,key_resp_3.rt,key_resp_3.duration,participant,session,date,expName,psychopyVersion,OS,frameRate,study_id,explain_2.started,explain_2.stopped,key_resp_4.keys,key_resp_4.rt,key_resp_4.duration,explain_3.started,explain_3.stopped,key_resp_5.keys,key_resp_5.rt,key_resp_5.duration,fixation.started,fixation.stopped,practice.started,practice.stopped,response.started,response.stopped,key_resp.keys,key_resp.rt,key_resp.duration,feedback.started,feedback.stopped,trials_2.thisRepN,trials_2.thisTrialN,trials_2.thisN,trials_2.thisIndex,trials_2.ran,white_ratio,explain_4.started,explain_4.stopped,key_resp_6.keys,key_resp_6.rt,key_resp_6.duration,dotDisplay.started,dotDisplay.stopped,ITI.started,polygon_1.pos,polygon_1.color,polygon_2.pos,polygon_2.color,polygon_3.pos,polygon_3.color,polygon_4.pos,polygon_4.color,polygon_5.pos,polygon_5.color,polygon_6.pos,polygon_6.color,polygon_7.pos,polygon_7.color,polygon_8.pos,polygon_8.color,polygon_9.pos,polygon_9.color,polygon_10.pos,polygon_10.color,polygon_11.pos,polygon_11.color,polygon_12.pos,polygon_12.color,polygon_13.pos,polygon_13.color,polygon_14.pos,polygon_14.color,polygon_15.pos,polygon_15.color,polygon_16.pos,polygon_16.color,polygon_17.pos,polygon_17.color,polygon_18.pos,polygon_18.color,polygon_19.pos,polygon_19.color,polygon_20.pos,polygon_20.color,polygon_21.pos,polygon_21.color,polygon_22.pos,polygon_22.color,polygon_23.pos,polygon_23.color,polygon_24.pos,polygon_24.color,polygon_25.pos,polygon_25.color,polygon_26.pos,polygon_26.color,polygon_27.pos,polygon_27.color,polygon_28.pos,polygon_28.color,polygon_29.pos,polygon_29.color,polygon_30.pos,polygon_30.color,polygon_31.pos,polygon_31.color,polygon_32.pos,polygon_32.color,dot_size,ITI.stopped,trials.thisRepN,trials.thisTrialN,trials.thisN,trials.thisIndex,trials.ran,break_2.started,break_2.stopped,trials_3.thisRepN,trials_3.thisTrialN,trials_3.thisN,trials_3.thisIndex,trials_3.ran
subject chose white,subject chose black,0.0003,368.426,space,31.4881,,5b9d57e5737d030001ad2cbf,682db4174f5d1d86fa6e0820,2025-05-21_12h08.19.763,cuing_paradigm_dot,2024.1.5,Win32,60.24096386,682d556593cb38ad0a074487,,,,,,,,,,,,,,,,,,,,,,,,,,,,,,,,,,,,,,,,,,,,,,,,,,,,,,,,,,,,,,,,,,,,,,,,,,,,,,,,,,,,,,,,,,,,,,,,,,,,,,,,,,,,,,,,,
,,,,,,,5b9d57e5737d030001ad2cbf,682db4174f5d1d86fa6e0820,2025-05-21_12h08.19.763,cuing_paradigm_dot,2024.1.5,Win32,60.24096386,682d556593cb38ad0a074487,368.4262,402.2533,space,3.8186,,,,,,,,,,,,,,,,,,,,,,,,,,,,,,,,,,,,,,,,,,,,,,,,,,,,,,,,,,,,,,,,,,,,,,,,,,,,,,,,,,,,,,,,,,,,,,,,,,,,,,,,,,,,,
,,,,,,,5b9d57e5737d030001ad2cbf,682db4174f5d1d86fa6e0820,2025-05-21_12h08.19.763,cuing_paradigm_dot,2024.1.5,Win32,60.24096386,682d556593cb38ad0a074487,,,,,,402.2534,441.6525,space,36.3906,,,,,,,,,,,,,,,,,,,,,,,,,,,,,,,,,,,,,,,,,,,,,,,,,,,,,,,,,,,,,,,,,,,,,,,,,,,,,,,,,,,,,,,,,,,,,,,,,,,,,,,,
,,,,,,,5b9d57e5737d030001ad2cbf,682db4174f5d1d86fa6e0820,2025-05-21_12h08.19.763,cuing_paradigm_dot,2024.1.5,Win32,60.24096386,682d556593cb38ad0a074487,,,,,,,,,,,441.6611,442.1527,442.1528,442.4046,442.4047,443.1702,left,0.7346,,443.1703,444.2711,0,0,0,1,1,0.2,,,,,,,,,,,,,,,,,,,,,,,,,,,,,,,,,,,,,,,,,,,,,,,,,,,,,,,,,,,,,,,,,,,,,,,,,,,,,,,,,,,,,,
,,,,,,,5b9d57e5737d030001ad2cbf,682db4174f5d1d86fa6e0820,2025-05-21_12h08.19.763,cuing_paradigm_dot,2024.1.5,Win32,60.24096386,682d556593cb38ad0a074487,,,,,,,,,,,444.2713,444.7714,444.7714,445.0217,445.0218,445.3385,right,0.2845,,445.3386,446.4395,0,1,1,0,1,0.8,,,,,,,,,,,,,,,,,,,,,,,,,,,,,,,,,,,,,,,,,,,,,,,,,,,,,,,,,,,,,,,,,,,,,,,,,,,,,,,,,,,,,,
,,,,,,,5b9d57e5737d030001ad2cbf,682db4174f5d1d86fa6e0820,2025-05-21_12h08.19.763,cuing_paradigm_dot,2024.1.5,Win32,60.24096386,682d556593cb38ad0a074487,,,,,,,,,,,,,,,,,,,,,,,,,,,,446.4397,449.8757,space,0.4262,,,,,,,,,,,,,,,,,,,,,,,,,,,,,,,,,,,,,,,,,,,,,,,,,,,,,,,,,,,,,,,,,,,,,,,,,,,,,,,,,,
,,,,,,,5b9d57e5737d030001ad2cbf,682db4174f5d1d86fa6e0820,2025-05-21_12h08.19.763,cuing_paradigm_dot,2024.1.5,Win32,60.24096386,682d556593cb38ad0a074487,,,,,,,,,,,449.8811,450.376,,,450.6264,451.2601,right,0.6006,,,,,,,,,0.45,,,,,,450.3762,450.6264,451.2602,"[-0.1392355264775518,0.06495610604296326]","[-1,-1,-1]","[-0.17985570640850815,0.024613843329243493]","[-1,-1,-1]","[-0.15682805688489426,-0.023215031000913045]","[1,1,1]","[0.0720742189698572,0.13936894342051162]","[-1,-1,-1]","[0.10756603407827715,-0.07926831180694285]","[1,1,1]","[-0.11179881757130769,-0.1298869245760586]","[-1,-1,-1]","[0.12511135553342323,0.07895324347968487]","[1,1,1]","[0.0682205792858823,-0.1421284080392254]","[-1,-1,-1]","[0.11949608766768008,-0.006617136463141335]","[-1,-1,-1]","[-0.012589460790352095,-0.06465673593740419]","[1,1,1]","[0.12587182402734765,0.1394517259942834]","[-1,-1,-1]","[0.007472971699020301,-0.024695827780644452]","[-1,-1,-1]","[0.023124323516407193,0.11024881058830446]","[-1,-1,-1]","[0.18199944935972626,0.03870159252437255]","[-1,-1,-1]","[-0.07121227933815384,0.1414805929780165]","[1,1,1]","[-0.03734548725455417,0.1832249664897221]","[-1,-1,-1]","[-0.017977338423552466,-0.17010265987499384]","[-1,-1,-1]","[-0.10168704252203944,-0.045609393237801964]","[-1,-1,-1]","[0.08279697902491256,0.09526678244030992]","[1,1,1]","[-0.026071309811086237,0.12009046732172168]","[-1,-1,-1]","[-0.06329015842394571,0.05804929183879053]","[1,1,1]","[0.08747396724026812,-0.044645445800377076]","[1,1,1]","[0.058647592504491614,-0.016515738491367334]","[-1,-1,-1]","[0.002027771802111069,-0.13423306816233696]","[1,1,1]","[0.12470069392480741,-0.14298093735012238]","[1,1,1]","[0.0038399406790404133,0.1930650226575659]","[-1,-1,-1]","[-0.06301136670941264,-0.16373097222665559]","[1,1,1]","[0.1696130167813211,0.09418440218270359]","[-1,-1,-1]","[-0.17093644648681172,-0.06463727725370623]","[-1,-1,-1]","[0.17617604254307248,-0.06981168880439809]","[1,1,1]","[0.054137215441300804,-0.18157156287619503]","[1,1,1]","[0.019475559219544355,0.15080702691874978]","[1,1,1]","[0.02,0.02]",452.3612,0,0,0,79,1,,,,,,,
,,,,,,,5b9d57e5737d030001ad2cbf,682db4174f5d1d86fa6e0820,2025-05-21_12h08.19.763,cuing_paradigm_dot,2024.1.5,Win32,60.24096386,682d556593cb38ad0a074487,,,,,,,,,,,452.3614,452.8616,,,453.1117,453.6287,left,0.4841,,,,,,,,,0.4,,,,,,452.8616,453.1117,453.6287,"[0.050119611978123715,0.16784953588810086]","[1,1,1]","[-0.04441913547292059,-0.1643973096873967]","[-1,-1,-1]","[0.09719744024821786,0.021919847671021796]","[-1,-1,-1]","[-0.017358192198976878,0.04879681026396161]","[1,1,1]","[0.12331268839195554,-0.1496593742305423]","[-1,-1,-1]","[0.15297466474887803,-0.11686775511558337]","[1,1,1]","[-0.12086469319061331,0.05648227457382878]","[-1,-1,-1]","[0.15694878254908862,0.06540446429580689]","[1,1,1]","[0.046891185397735985,-0.038848717604822405]","[1,1,1]","[-0.13710456521983735,0.09340032500538432]","[-1,-1,-1]","[-0.0460304064824207,-0.11101422588562854]","[-1,-1,-1]","[0.08871963705676593,0.12273542535133417]","[-1,-1,-1]","[0.10990890701802133,-0.10757926011240182]","[1,1,1]","[0.1918919612246824,-0.012067289432055662]","[1,1,1]","[-0.05696350520304315,0.030209320703581514]","[-1,-1,-1]","[-0.17783287719775015,0.03779577893958565]","[-1,-1,-1]","[-0.06086540162189584,0.13185475802607033]","[-1,-1,-1]","[-0.01166936945943404,-0.028445978418446847]","[-1,-1,-1]","[0.04856993356155145,-0.10014675231435793]","[-1,-1,-1]","[-0.16748432548187625,-0.06707652941010554]","[-1,-1,-1]","[0.1453293349148583,-0.06802439055249157]","[1,1,1]","[0.09856950419755461,0.16401618423699582]","[-1,-1,-1]","[-0.15989818607531261,-0.11751976007641092]","[1,1,1]","[-0.005943773959861287,-0.14226074034213965]","[1,1,1]","[0.05505118183970743,-0.1775974582874789]","[-1,-1,-1]","[0.04924214447648787,0.09281565484787592]","[-1,-1,-1]","[-0.1217915377425102,-0.010794699680064468]","[1,1,1]","[-0.0032815870034696554,0.13532245981733362]","[1,1,1]","[-0.11901501622526305,-0.09908331302265598]","[1,1,1]","[0.004224786796772988,-0.06845086430063668]","[-1,-1,-1]","[-0.1879653508220918,-0.0011940779496389833]","[-1,-1,-1]","[0.19022391042394513,-0.054882367335321855]","[-1,-1,-1]","[0.02,0.02]",454.73,0,1,1,41,1,,,,,,,
,,,,,,,5b9d57e5737d030001ad2cbf,682db4174f5d1d86fa6e0820,2025-05-21_12h08.19.763,cuing_paradigm_dot,2024.1.5,Win32,60.24096386,682d556593cb38ad0a074487,,,,,,,,,,,454.7301,455.2302,,,455.4803,455.6803,right,0.1779,,,,,,,,,0.9,,,,,,455.2302,455.4803,455.6803,"[-0.1737612356805385,0.06936109822851545]","[1,1,1]","[-0.11785424074298295,-0.03818078881930981]","[1,1,1]","[0.03423430828144517,0.01812410773674151]","[1,1,1]","[-0.046172706085113334,-0.08204608199558439]","[1,1,1]","[0.15780321741176787,-0.003443999105815683]","[1,1,1]","[-0.1421147767537767,0.024035692778617387]","[1,1,1]","[-0.025813396600829402,0.05046547134237073]","[1,1,1]","[0.17935902147083382,-0.08282347865993288]","[1,1,1]","[-0.08333714012626248,0.17739256157150052]","[1,1,1]","[0.05355973486838902,0.17878607136686558]","[1,1,1]","[0.0349150033061218,-0.13576828014567086]","[1,1,1]","[0.10965995378209518,-0.10808103474776895]","[1,1,1]","[0.004547791329584444,-0.07345093684617432]","[1,1,1]","[-0.11666411419932583,-0.11959423708921182]","[1,1,1]","[-0.02441839797056142,0.18848048292932634]","[1,1,1]","[0.002863230363620181,-0.19934841465939246]","[-1,-1,-1]","[-0.03776232624508241,0.13154938456672158]","[-1,-1,-1]","[-0.011341074575571953,0.009293950616758365]","[1,1,1]","[0.008736870042381743,0.11147895316449061]","[1,1,1]","[-0.07036259828748857,0.07065447422841777]","[1,1,1]","[0.027115514075125916,-0.02268202510255476]","[1,1,1]","[-0.14408170928462846,-0.07403231369142625]","[1,1,1]","[-0.08104097454277166,-0.1509284525934795]","[1,1,1]","[0.13241284920439378,0.08272971104803803]","[1,1,1]","[-0.14400778799011843,0.12913788781213875]","[1,1,1]","[0.060268903720392945,0.049758228217354136]","[1,1,1]","[0.13777320993956446,0.1440407120209005]","[1,1,1]","[0.04874376062529467,-0.07003146501800234]","[1,1,1]","[-0.061400408827954,-0.01723600925636577]","[1,1,1]","[0.10011197731545189,0.02115450142612606]","[-1,-1,-1]","[0.1522493842302031,0.03929569032046631]","[1,1,1]","[-0.18629851698907576,0.001556596597543084]","[1,1,1]","[0.02,0.02]",456.7812,0,2,2,199,1,,,,,,,
,,,,,,,5b9d57e5737d030001ad2cbf,682db4174f5d1d86fa6e0820,2025-05-21_12h08.19.763,cuing_paradigm_dot,2024.1.5,Win32,60.24096386,682d556593cb38ad0a074487,,,,,,,,,,,456.7815,457.2817,,,457.5322,458.2158,right,0.6542,,,,,,,,,0.5,,,,,,457.2818,457.5322,458.2158,"[-0.01736315272370403,0.15052292622146574]","[1,1,1]","[0.06230504347242853,0.02296880083216934]","[1,1,1]","[0.00770556913585725,-0.1726110569429231]","[1,1,1]","[-0.09546673195978508,0.1649469458029305]","[1,1,1]","[0.1923212707272877,0.018398993830602912]","[1,1,1]","[-0.0834179226818843,0.10374975693614621]","[1,1,1]","[-0.14772500851443757,0.062914664616515]","[-1,-1,-1]","[0.10716301377411498,-0.03988004313039217]","[-1,-1,-1]","[-0.10141868661633248,-0.055020819580945714]","[1,1,1]","[-0.03398320375286401,-0.09412442016901042]","[-1,-1,-1]","[0.15430993240138327,-0.001378718425541636]","[-1,-1,-1]","[0.07237724805714293,-0.12119996645877518]","[-1,-1,-1]","[-0.1445095715662551,-0.09665915491124429]","[-1,-1,-1]","[-0.04746172962059233,0.047690732552785414]","[1,1,1]","[0.0033351900458148654,0.08621598796750547]","[-1,-1,-1]","[0.0341035483951849,-0.08229639910067718]","[1,1,1]","[0.05765074368721856,0.1658445376756998]","[-1,-1,-1]","[0.16927751329070903,0.052836863569698855]","[1,1,1]","[-0.08524182994411464,-0.11375289203905962]","[-1,-1,-1]","[0.04199476008316748,0.10060683020897454]","[1,1,1]","[0.0926758587335261,-0.16776255215638716]","[-1,-1,-1]","[0.15182029504064265,0.1292133129928137]","[1,1,1]","[-0.11027290698948745,-0.15270826620512026]","[1,1,1]","[-0.1732375792159601,0.016650311251144714]","[-1,-1,-1]","[-0.024223478054756675,-0.0456034634286661]","[-1,-1,-1]","[0.1255942580193092,0.09615087377668535]","[1,1,1]","[0.13158136311161583,-0.10307453458950736]","[-1,-1,-1]","[0.1803851276352623,-0.05413416171489247]","[-1,-1,-1]","[-0.16709844329679324,-0.033593487670586966]","[-1,-1,-1]","[0.11023433256922449,0.15268779788376916]","[1,1,1]","[-0.05438180052345523,0.004123853629397943]","[-1,-1,-1]","[-0.10329912873387599,0.04969005617056583]","[1,1,1]","[0.02,0.02]",459.3169,0,3,3,109,1,,,,,,,
,,,,,,,5b9d57e5737d030001ad2cbf,682db4174f5d1d86fa6e0820,2025-05-21_12h08.19.763,cuing_paradigm_dot,2024.1.5,Win32,60.24096386,682d556593cb38ad0a074487,,,,,,,,,,,459.3171,459.8171,,,460.0674,460.5844,right,0.4868,,,,,,,,,0.9,,,,,,459.8171,460.0673,460.5845,"[0.0005618896368704907,0.16267138012220736]","[1,1,1]","[0.14921308984252413,-0.11015375091697487]","[1,1,1]","[0.15012973066579757,-0.06087557807003527]","[1,1,1]","[0.008024566684766516,0.1057757123460885]","[1,1,1]","[-0.05980203313632988,0.12451480385906957]","[1,1,1]","[0.1432872457861606,0.007061275923800583]","[1,1,1]","[0.03787117329503959,-0.05720125460828277]","[1,1,1]","[-0.05355999254897494,-0.1900059375292288]","[1,1,1]","[0.11987025447375965,0.14131811749929798]","[1,1,1]","[0.07827825489425186,0.0110995753413375]","[1,1,1]","[0.10837263365608393,-0.11853333999425499]","[1,1,1]","[-0.07721663720026424,-0.1387950183475057]","[1,1,1]","[-0.05696188206489323,-0.06585853604600077]","[1,1,1]","[0.018412628605675975,-0.1475371433517458]","[1,1,1]","[-0.005794232616375759,0.00022480454492145063]","[1,1,1]","[0.08822348113226508,-0.02900696956076863]","[1,1,1]","[-0.12641291282142783,0.013947530892231823]","[1,1,1]","[-0.18209182615109357,-0.06106586872639612]","[1,1,1]","[0.047651785254804624,0.1816462131286814]","[1,1,1]","[-0.07368839720630703,0.07534132347399265]","[1,1,1]","[-0.14050911384546327,-0.026726343556318526]","[-1,-1,-1]","[0.13952885811336024,0.06266866847128433]","[1,1,1]","[-0.11362249477770675,-0.10283881845865062]","[1,1,1]","[-0.00131854053406161,0.053180777499699204]","[1,1,1]","[-0.16043813800876025,-0.11382280172195948]","[1,1,1]","[-0.08188404570334559,-0.010455993515092228]","[-1,-1,-1]","[-0.17951332086052835,0.07435372420117285]","[-1,-1,-1]","[-0.1229700414711288,0.1154749523263278]","[1,1,1]","[0.0648601311467512,-0.17450302616958482]","[1,1,1]","[-0.049694752069869716,0.18675136802408113]","[1,1,1]","[-0.02057227243365287,-0.10551059264847587]","[1,1,1]","[0.14223314770958706,0.1040220932979143]","[1,1,1]","[0.02,0.02]",461.6852,0,4,4,192,1,,,,,,,
,,,,,,,5b9d57e5737d030001ad2cbf,682db4174f5d1d86fa6e0820,2025-05-21_12h08.19.763,cuing_paradigm_dot,2024.1.5,Win32,60.24096386,682d556593cb38ad0a074487,,,,,,,,,,,461.6855,462.1857,,,462.436,462.953,left,0.4861,,,,,,,,,0.55,,,,,,462.1857,462.4359,462.953,"[0.1078166701464367,-0.11552160241916133]","[-1,-1,-1]","[-0.10139045416988146,-0.15490812149227912]","[-1,-1,-1]","[-0.03994225646062084,0.17629014863175668]","[1,1,1]","[0.0002256518643490174,-0.18263431080099077]","[1,1,1]","[0.02250517441494771,0.1314892580937924]","[-1,-1,-1]","[-0.001657347777309877,-0.10826539752295841]","[1,1,1]","[-0.01944170882567703,0.051377589302440345]","[-1,-1,-1]","[-0.07496077419282789,-0.013001140321069376]","[-1,-1,-1]","[-0.08374929851310796,0.11690165488578659]","[-1,-1,-1]","[-0.1556127186928319,0.11465307259053448]","[1,1,1]","[0.08403470623008255,0.12838356566524847]","[-1,-1,-1]","[0.05763116766844041,0.15969668668254391]","[1,1,1]","[0.035914119426310495,-0.008613184584911103]","[1,1,1]","[-0.15987393906852354,0.01355025866854479]","[-1,-1,-1]","[0.1064147493316861,0.07837904424189304]","[-1,-1,-1]","[-0.08184860829358348,-0.10872229612034501]","[1,1,1]","[-0.10909556045172483,0.06659292403754787]","[1,1,1]","[-0.16577254295294133,0.06912481981632496]","[1,1,1]","[0.17789375384746414,0.08275123400188147]","[-1,-1,-1]","[-0.12581737172526772,-0.08561399639350735]","[-1,-1,-1]","[-0.038534827095926934,-0.03941764347437334]","[1,1,1]","[0.06234605488203121,-0.15949098303003936]","[-1,-1,-1]","[0.04915497795826218,-0.11974445891754723]","[1,1,1]","[0.1546088688369892,0.03786064168900571]","[-1,-1,-1]","[0.08041296720149867,-0.05850210256759769]","[-1,-1,-1]","[-0.16654016269188354,-0.10740964161612443]","[1,1,1]","[0.10977931541404905,-0.014847127621601005]","[1,1,1]","[-0.08534923230569012,0.17074591043092846]","[1,1,1]","[-0.1770782144477797,-0.04728982670132955]","[1,1,1]","[0.0541702947664198,0.05429613046425211]","[1,1,1]","[0.00042783404987474825,0.014978307274007133]","[1,1,1]","[-0.00043284165933283643,0.09505633880799036]","[1,1,1]","[0.02,0.02]",464.0539,0,5,5,135,1,,,,,,,
,,,,,,,5b9d57e5737d030001ad2cbf,682db4174f5d1d86fa6e0820,2025-05-21_12h08.19.763,cuing_paradigm_dot,2024.1.5,Win32,60.24096386,682d556593cb38ad0a074487,,,,,,,,,,,464.0539,464.5542,,,464.8049,465.1881,right,0.3575,,,,,,,,,0.9,,,,,,464.5542,464.8049,465.1881,"[-0.012668761631261209,-0.12548645751190735]","[-1,-1,-1]","[-0.05992651788922961,-0.09392061484141663]","[1,1,1]","[0.06656412639913735,-0.056619250862499755]","[1,1,1]","[-0.004164860771209703,0.05029614634216388]","[1,1,1]","[-0.14687629102696717,0.04187741185735429]","[1,1,1]","[0.1247962272043458,0.05607881742146198]","[1,1,1]","[-0.03216677017597621,0.09262855690574076]","[1,1,1]","[0.008457214006178115,0.09752851835847483]","[1,1,1]","[0.008600389532005327,0.17173083822011795]","[1,1,1]","[-0.07559702388162892,0.0926365499256891]","[1,1,1]","[0.0402525337338482,-0.10913074703330751]","[1,1,1]","[-0.10438096964109655,-0.09194325981574115]","[1,1,1]","[-0.17345821769111083,0.006964456088555109]","[1,1,1]","[-0.15735050114935967,-0.08205500573574208]","[1,1,1]","[0.09600965563127993,0.10605162462306496]","[1,1,1]","[0.11121401935833185,0.008065158627560303]","[1,1,1]","[-0.07289138780613386,-0.041728718742976484]","[1,1,1]","[0.04156756432774861,0.04198603649191588]","[1,1,1]","[0.03875171011037887,-0.007072151184730973]","[1,1,1]","[-0.06369347194953318,0.18540857759943413]","[1,1,1]","[0.09429119363201556,-0.16739032217451502]","[1,1,1]","[-0.11429278552730399,0.14860968902134306]","[1,1,1]","[-0.004117759118240655,-0.0675052026831027]","[1,1,1]","[0.05864789071384468,0.08694875300723666]","[1,1,1]","[0.1655488972771662,-0.09675837342325862]","[1,1,1]","[-0.14205593928278895,0.09612917602943048]","[1,1,1]","[-0.1475862164041838,-0.04098658302074155]","[1,1,1]","[-0.12797112703530256,0.00029170454308560486]","[1,1,1]","[0.1258654104837681,-0.057804456282891443]","[1,1,1]","[-0.06513387554223299,0.033769256574524474]","[-1,-1,-1]","[-0.14778948104798237,-0.13044000306338516]","[-1,-1,-1]","[-0.06674674442390291,-0.16747649232378592]","[1,1,1]","[0.02,0.02]",466.289,0,6,6,208,1,,,,,,,
,,,,,,,5b9d57e5737d030001ad2cbf,682db4174f5d1d86fa6e0820,2025-05-21_12h08.19.763,cuing_paradigm_dot,2024.1.5,Win32,60.24096386,682d556593cb38ad0a074487,,,,,,,,,,,466.2891,466.7894,,,467.0408,467.54,left,0.4743,,,,,,,,,0.45,,,,,,466.7894,467.0408,467.54,"[0.01755240321582748,0.09841635188039907]","[-1,-1,-1]","[-0.07080055852499162,0.08344142002864557]","[-1,-1,-1]","[0.06702887089688046,0.07667136068269559]","[-1,-1,-1]","[-0.17371207081908485,0.05346780859547587]","[-1,-1,-1]","[-0.10821536264522096,-0.13669230985587405]","[-1,-1,-1]","[0.05781044917613339,-0.15295945431238714]","[1,1,1]","[0.026379893628879127,-0.10070946257295103]","[-1,-1,-1]","[0.13380820779609984,0.01923079306768244]","[1,1,1]","[-0.054113420835760054,-0.030522639846349477]","[1,1,1]","[0.03875523341591405,0.14096416946476115]","[-1,-1,-1]","[0.13721863677472912,0.11677240802614748]","[-1,-1,-1]","[-0.11968727074722134,0.038791528697334036]","[1,1,1]","[-0.054893224054522245,0.12861277568178367]","[1,1,1]","[-0.1021709448224426,-0.05324646089522755]","[1,1,1]","[-0.15573764332557496,-0.04839914883863947]","[1,1,1]","[0.011809813516032722,-0.13841094979079854]","[-1,-1,-1]","[0.17482176422004664,-0.07255659811827805]","[-1,-1,-1]","[0.06956092131533823,-0.045459568934384846]","[1,1,1]","[-0.04910604710107723,-0.13381080972731244]","[1,1,1]","[-0.1673263977424422,0.0033440716546827777]","[1,1,1]","[0.17788943960818387,0.02316222365079103]","[-1,-1,-1]","[0.0907750050462454,-0.08621813656805488]","[1,1,1]","[0.07828689762702037,0.0248474459872087]","[1,1,1]","[0.16526339865483528,-0.03228713112010195]","[-1,-1,-1]","[-0.11533182123303429,0.14840796325375202]","[-1,-1,-1]","[-0.009663042537277445,0.12923261163717875]","[1,1,1]","[-0.01785214557626361,-0.06581761487858781]","[-1,-1,-1]","[0.017424579701846393,0.03522493180710261]","[-1,-1,-1]","[0.11285944983079306,-0.15519220572269657]","[-1,-1,-1]","[0.1251582400231053,0.07480030119173185]","[-1,-1,-1]","[-0.028044578831495446,0.018573778115819103]","[-1,-1,-1]","[0.01935843314966251,-0.04939890709744186]","[1,1,1]","[0.02,0.02]",468.6409,0,7,7,62,1,,,,,,,
,,,,,,,5b9d57e5737d030001ad2cbf,682db4174f5d1d86fa6e0820,2025-05-21_12h08.19.763,cuing_paradigm_dot,2024.1.5,Win32,60.24096386,682d556593cb38ad0a074487,,,,,,,,,,,468.6411,469.1413,,,469.3916,470.1589,right,0.7465,,,,,,,,,0.6,,,,,,469.1413,469.3916,470.1589,"[-0.16546407727034723,-0.03852663782524705]","[-1,-1,-1]","[-0.04083216350151354,-0.0985018937854483]","[1,1,1]","[-0.12493422020749988,0.1499500442205859]","[1,1,1]","[-0.017059270509648332,-0.14786144852446906]","[1,1,1]","[-0.1374431511701436,-0.0081626844098632]","[1,1,1]","[-0.16417694281898232,0.027693891424510585]","[1,1,1]","[0.006423318462502851,-0.0434958088306551]","[-1,-1,-1]","[-0.08796727050619141,0.0667178694135822]","[1,1,1]","[0.06969569558153162,-0.08654616520681896]","[-1,-1,-1]","[0.029162581687468728,0.024795675850258384]","[-1,-1,-1]","[-0.09294094736671309,0.1070466982362606]","[1,1,1]","[-0.06946781671642364,-0.1775522265557911]","[1,1,1]","[-0.10323460252962284,-0.14879456464040974]","[-1,-1,-1]","[0.14722126108147243,-0.0649492010811929]","[1,1,1]","[-0.02991676921102976,0.04355723339977713]","[-1,-1,-1]","[-0.09380505252571122,-0.06569666682878897]","[1,1,1]","[0.05241305902973831,0.05912185789360733]","[1,1,1]","[0.06710477184930315,0.18233948948274967]","[-1,-1,-1]","[0.05211000237237514,0.14075104818783674]","[-1,-1,-1]","[-0.05124597383284545,0.16974711051900077]","[-1,-1,-1]","[0.026594515126516,-0.19361312629232144]","[-1,-1,-1]","[0.11404525649320947,-0.0949497608854636]","[1,1,1]","[0.19641949418065288,-0.01158564938942234]","[1,1,1]","[0.0004044114885072484,0.16051970216325254]","[1,1,1]","[0.05670456171577666,-0.030539539093520612]","[-1,-1,-1]","[-0.05306131959230635,-0.02518006392606454]","[1,1,1]","[-0.049139173552178554,0.12929749142211175]","[1,1,1]","[0.10802454215788318,0.0855376858681443]","[1,1,1]","[0.08126847721050359,-0.16369215769822512]","[-1,-1,-1]","[0.18459409327477078,0.049661484151346094]","[1,1,1]","[0.12009343007350624,0.046923267936096066]","[-1,-1,-1]","[-0.14907317196108377,-0.12762632144256938]","[1,1,1]","[0.02,0.02]",471.2601,0,8,8,162,1,,,,,,,
,,,,,,,5b9d57e5737d030001ad2cbf,682db4174f5d1d86fa6e0820,2025-05-21_12h08.19.763,cuing_paradigm_dot,2024.1.5,Win32,60.24096386,682d556593cb38ad0a074487,,,,,,,,,,,471.2601,471.7602,,,472.0104,472.8444,left,0.8008,,,,,,,,,0.4,,,,,,471.7602,472.0104,472.8444,"[0.006113168854604514,-0.01897220199353906]","[1,1,1]","[-0.1410722108379106,-0.026750843144461793]","[1,1,1]","[-0.06006054139622613,-0.034537333807463336]","[1,1,1]","[-0.10047965637025845,-0.15832787270171608]","[-1,-1,-1]","[0.04862495715820284,-0.05316639040181849]","[-1,-1,-1]","[-0.0883455733305442,-0.10016315783794093]","[-1,-1,-1]","[0.15055280321371342,0.05166421690888738]","[1,1,1]","[-0.10583561174854667,0.039337176528963166]","[-1,-1,-1]","[0.1515783627736758,-0.04800254497353825]","[1,1,1]","[-0.14675732282832932,0.02229508804062338]","[-1,-1,-1]","[0.004695601930188081,-0.19067619970330738]","[-1,-1,-1]","[0.12374333318016795,0.09218442127370564]","[1,1,1]","[0.09855385590479417,0.05275315275681986]","[-1,-1,-1]","[0.007807117391202944,0.13085908062199894]","[1,1,1]","[0.12254315016852386,0.1500896951525111]","[-1,-1,-1]","[0.1349846009374716,-0.11831503691600403]","[-1,-1,-1]","[0.023931380830469053,0.09105966631926658]","[-1,-1,-1]","[0.05341685312024903,-0.1107325781164648]","[1,1,1]","[0.018621283223068594,-0.13901149550042063]","[1,1,1]","[-0.12796849190860668,0.08549177837502865]","[1,1,1]","[-0.057409224470342746,0.15074489326462573]","[-1,-1,-1]","[-0.09885408337652726,0.11766251672383124]","[-1,-1,-1]","[0.19594217206005185,0.034616442743375525]","[-1,-1,-1]","[-0.12107469858115613,-0.0638263677971982]","[1,1,1]","[-0.02234105198821874,-0.13253294670888402]","[-1,-1,-1]","[-0.19230605109718246,0.041114671700879575]","[-1,-1,-1]","[0.06632231900484908,0.14456117159949775]","[1,1,1]","[-0.13218854113452275,-0.10627575346937726]","[-1,-1,-1]","[-0.065803726388299,0.04311227359968676]","[-1,-1,-1]","[-0.1952316335870174,-0.013361420049011202]","[-1,-1,-1]","[0.11430954991472106,-0.1633533782458608]","[-1,-1,-1]","[0.0520104667546983,0.04132271659823626]","[1,1,1]","[0.02,0.02]",473.9453,0,9,9,32,1,,,,,,,
,,,,,,,5b9d57e5737d030001ad2cbf,682db4174f5d1d86fa6e0820,2025-05-21_12h08.19.763,cuing_paradigm_dot,2024.1.5,Win32,60.24096386,682d556593cb38ad0a074487,,,,,,,,,,,473.9455,474.446,,,474.696,475.6133,right,0.884,,,,,,,,,0.55,,,,,,474.446,474.696,475.6133,"[-0.08423809782860724,-0.11812351082668233]","[1,1,1]","[0.11426385451794406,0.08575197692193763]","[1,1,1]","[0.0922130150799655,0.0490315429574887]","[-1,-1,-1]","[-0.03206131049253828,-0.1463872692698462]","[1,1,1]","[-0.15270811453904695,0.012248137984420683]","[-1,-1,-1]","[0.12527165554414646,-0.09813698162448985]","[1,1,1]","[0.15187213706028013,-0.05490358075550284]","[-1,-1,-1]","[0.07002913059957155,0.1035777991717398]","[-1,-1,-1]","[0.02162192767493319,0.05831988692845958]","[-1,-1,-1]","[-0.012401968126388364,0.016761511745197143]","[1,1,1]","[0.06346840893187959,-0.03289342924604991]","[-1,-1,-1]","[-0.02133366207202791,0.13237233701602785]","[-1,-1,-1]","[-0.09714844232746746,-0.16315197473110046]","[-1,-1,-1]","[-0.1936234039070325,-0.0003822193596284852]","[1,1,1]","[-0.1740143176704099,-0.09045784751381354]","[-1,-1,-1]","[-0.060009043770108045,0.17522277836835623]","[1,1,1]","[0.18035532632822648,0.04133814017658781]","[1,1,1]","[-0.09015137585107451,-0.0038828194848777413]","[-1,-1,-1]","[0.05144154506967768,0.18512086597629224]","[1,1,1]","[0.06757195977447704,-0.17304362555891867]","[-1,-1,-1]","[0.09503406828426059,0.15429963593211163]","[1,1,1]","[-0.121551431232658,0.091336607652777]","[1,1,1]","[0.0383738029382508,-0.10166147208404622]","[1,1,1]","[-0.019104080499428962,-0.08038963892789729]","[1,1,1]","[-0.011065389743696332,0.19687039966277625]","[-1,-1,-1]","[0.13445439392939915,-0.010489080065088231]","[-1,-1,-1]","[-0.07157838660078146,0.0626332345739897]","[1,1,1]","[-0.09625406747609641,-0.07695090475467857]","[-1,-1,-1]","[-0.039137122257382244,-0.037411403863521195]","[1,1,1]","[0.0845163953339581,-0.07763993636871457]","[1,1,1]","[-0.08646139528292561,0.12761387020024628]","[1,1,1]","[-0.13883929786587684,-0.1160563872294669]","[1,1,1]","[0.02,0.02]",476.7145,0,10,10,123,1,,,,,,,
,,,,,,,5b9d57e5737d030001ad2cbf,682db4174f5d1d86fa6e0820,2025-05-21_12h08.19.763,cuing_paradigm_dot,2024.1.5,Win32,60.24096386,682d556593cb38ad0a074487,,,,,,,,,,,476.7146,477.2149,,,477.4652,478.0487,right,0.5608,,,,,,,,,0.55,,,,,,477.2149,477.4652,478.0487,"[-0.042434458319188954,-0.046062911734715065]","[1,1,1]","[0.10340182719319402,0.16411121037633875]","[1,1,1]","[-0.14485901355061914,0.13657997847472153]","[-1,-1,-1]","[-0.18003179442084122,-0.05443407053515736]","[-1,-1,-1]","[-0.014324988226448865,0.17199081919618778]","[1,1,1]","[0.05817266521837899,-0.1575261860604971]","[-1,-1,-1]","[0.06212198681219716,0.03578184016966822]","[-1,-1,-1]","[-0.08126772063306734,-0.02468252253971775]","[1,1,1]","[-0.009609213686693477,-0.11804345288590842]","[1,1,1]","[0.10772143904753545,-0.059871267634212626]","[1,1,1]","[-0.05261822039534668,0.18774944478321606]","[1,1,1]","[-0.1240628157609536,-0.10410848736438227]","[-1,-1,-1]","[0.07319531213043996,0.13071171877954849]","[1,1,1]","[-0.06232957776230299,0.13107010565722826]","[-1,-1,-1]","[0.021141210960991974,0.1397897043886498]","[-1,-1,-1]","[0.014370244094220693,0.035337417057622306]","[-1,-1,-1]","[-0.030107740478959727,-0.17206037085204998]","[1,1,1]","[0.0046544710403291206,-0.00963044710799546]","[1,1,1]","[-0.1588322537041006,0.05576712456371363]","[-1,-1,-1]","[0.15213312348106994,0.11352781161018298]","[-1,-1,-1]","[0.017571140104709154,-0.05878209357897836]","[-1,-1,-1]","[0.13990384221679839,-0.09053265281278602]","[-1,-1,-1]","[0.12380207550823481,-0.0011337967395048149]","[1,1,1]","[-0.10462614083839686,0.06052206136744385]","[1,1,1]","[0.09536150845936513,-0.11782743434111902]","[1,1,1]","[-0.09283608729862723,0.10381805078425835]","[1,1,1]","[0.126944975841245,0.05522662609342938]","[1,1,1]","[-0.07065846402994978,0.014561686173417849]","[-1,-1,-1]","[0.05570584539748825,-0.0317169715075702]","[-1,-1,-1]","[-0.10708962452998134,0.16401705873788036]","[1,1,1]","[-0.08292080889505425,-0.08132717189720982]","[1,1,1]","[0.035545279695394685,0.08188960649135607]","[1,1,1]","[0.02,0.02]",479.1495,0,11,11,144,1,,,,,,,
,,,,,,,5b9d57e5737d030001ad2cbf,682db4174f5d1d86fa6e0820,2025-05-21_12h08.19.763,cuing_paradigm_dot,2024.1.5,Win32,60.24096386,682d556593cb38ad0a074487,,,,,,,,,,,479.1497,479.6499,,,479.9002,480.5841,left,0.6539,,,,,,,,,0.45,,,,,,479.6499,479.9002,480.5841,"[0.1039827761613952,-0.01854919725810264]","[-1,-1,-1]","[0.1034543469320771,0.024700444683945378]","[1,1,1]","[-0.0255508782235702,0.11910293939800555]","[-1,-1,-1]","[0.07160714777208389,0.11312339640384379]","[1,1,1]","[0.006647914229014526,-0.1931645116779722]","[1,1,1]","[0.16227065189047798,0.005236358388026602]","[-1,-1,-1]","[0.14620227273919767,0.11471105952164602]","[1,1,1]","[-0.07776789156944655,0.14553181659141784]","[-1,-1,-1]","[0.11735522342035255,0.14277773384109685]","[1,1,1]","[-0.05994525288175683,-0.05598519746586345]","[1,1,1]","[-0.1074501356825786,-0.0476665772707992]","[1,1,1]","[0.039941347959014696,0.06797697336903315]","[-1,-1,-1]","[-0.034117277553482435,-0.17848475433304037]","[-1,-1,-1]","[-0.07577800755158728,-0.15177485557413406]","[1,1,1]","[-0.00037700661007477183,-0.09776847488986874]","[-1,-1,-1]","[0.17791409163389546,-0.04690236666501241]","[-1,-1,-1]","[-0.06402930059890252,0.09415202735193891]","[-1,-1,-1]","[-0.19711506089960484,0.03288499050859972]","[-1,-1,-1]","[-0.014477833900455718,0.0072548406855679525]","[-1,-1,-1]","[-0.015494654456284429,-0.039499633735610246]","[1,1,1]","[-0.14491023478065007,0.06733466145807432]","[-1,-1,-1]","[0.03250520461532659,0.15810615105567805]","[1,1,1]","[0.09408087054930427,0.06766191529375755]","[-1,-1,-1]","[-0.013246825488512656,-0.1371473075825419]","[-1,-1,-1]","[0.035643962628412504,-0.12201789456093469]","[1,1,1]","[-0.08746515754304593,0.014335457127767291]","[-1,-1,-1]","[-0.19195321352946215,-0.020205926257335933]","[1,1,1]","[0.08037456327540826,-0.06169797910840806]","[1,1,1]","[-0.15040749483793456,-0.07230091697025236]","[-1,-1,-1]","[0.06332262141884334,0.02654575329658081]","[1,1,1]","[-0.10124566106982029,-0.09640804414951061]","[-1,-1,-1]","[-0.017322031864703106,0.17919953487567095]","[-1,-1,-1]","[0.02,0.02]",481.6851,0,12,12,80,1,,,,,,,
,,,,,,,5b9d57e5737d030001ad2cbf,682db4174f5d1d86fa6e0820,2025-05-21_12h08.19.763,cuing_paradigm_dot,2024.1.5,Win32,60.24096386,682d556593cb38ad0a074487,,,,,,,,,,,481.6854,482.1856,,,482.4357,482.8026,left,0.3424,,,,,,,,,0.1,,,,,,482.1856,482.4357,482.8026,"[0.17638290307604912,-0.03696758603720937]","[-1,-1,-1]","[-0.030150369643319054,-0.022938690552293958]","[-1,-1,-1]","[-0.07990159579891432,-0.11475210917053727]","[-1,-1,-1]","[0.14631906049932747,-0.07768269727886531]","[-1,-1,-1]","[-0.003911072139829313,0.14663956434070494]","[1,1,1]","[0.10589302719642156,-0.06936699017984792]","[-1,-1,-1]","[0.01718253996652284,0.10249705120053215]","[-1,-1,-1]","[0.12330462264348584,0.03321266624067041]","[1,1,1]","[0.005103223186145098,-0.09011440554923918]","[-1,-1,-1]","[0.054276805647638295,-0.1095288014578132]","[-1,-1,-1]","[0.013277486634789054,-0.17028474043980302]","[-1,-1,-1]","[0.07049289530091081,0.054534672212854546]","[-1,-1,-1]","[-0.05583728309414022,0.1346328632491509]","[-1,-1,-1]","[-0.07506034938419828,-0.16083360858516352]","[-1,-1,-1]","[-0.1301125032771355,-0.10598590336297772]","[-1,-1,-1]","[0.05944115157991108,-0.019311246240025653]","[-1,-1,-1]","[0.1148535449221156,0.09239673589668515]","[-1,-1,-1]","[-0.08059182206531751,0.07766221616790075]","[-1,-1,-1]","[-0.06918495964431187,-0.07474366267829878]","[-1,-1,-1]","[0.10655771576399053,-0.16411503620628606]","[-1,-1,-1]","[-0.16985951292371299,0.03865531883543288]","[-1,-1,-1]","[-0.14167409575887316,0.13882529458744863]","[-1,-1,-1]","[-0.05421260998992376,0.024164505717765034]","[-1,-1,-1]","[0.1629230021140344,0.02120186500203201]","[-1,-1,-1]","[-0.039527047716627434,0.07213395404618707]","[-1,-1,-1]","[-0.09396098526591412,0.007735614793916536]","[-1,-1,-1]","[-0.0373364141291792,0.1773435226187196]","[-1,-1,-1]","[0.10983858790378782,0.13237014783156606]","[-1,-1,-1]","[-0.003935141157861003,0.0194435099816371]","[-1,-1,-1]","[-0.1651583511585103,-0.04548019848601507]","[-1,-1,-1]","[0.14088687854685836,-0.01594143951882889]","[1,1,1]","[-0.12888251048869376,0.03642301304867536]","[-1,-1,-1]","[0.02,0.02]",483.9037,0,13,13,26,1,,,,,,,
,,,,,,,5b9d57e5737d030001ad2cbf,682db4174f5d1d86fa6e0820,2025-05-21_12h08.19.763,cuing_paradigm_dot,2024.1.5,Win32,60.24096386,682d556593cb38ad0a074487,,,,,,,,,,,483.904,484.4038,,,484.6546,485.4213,left,0.7492,,,,,,,,,0.4,,,,,,484.4038,484.6546,485.4213,"[-0.1304483356994163,0.04301633488788426]","[-1,-1,-1]","[-0.0015752902633167853,0.14333209979763847]","[1,1,1]","[0.05194561644570226,-0.14337016714323592]","[1,1,1]","[0.06307969452634181,0.179849036266792]","[-1,-1,-1]","[0.06777536805188174,-0.061165371102282]","[-1,-1,-1]","[-0.07608155522081061,0.013708767382372856]","[-1,-1,-1]","[-0.08989989431580578,-0.10224830424159813]","[1,1,1]","[-0.18777986476902814,-0.0026285868284966654]","[1,1,1]","[-0.002302837569460706,0.05421150446829908]","[-1,-1,-1]","[-0.007755748959122493,-0.1832852086860602]","[-1,-1,-1]","[-0.08767491439124517,-0.05042149964204701]","[1,1,1]","[0.10356312599308011,-0.16143528606410365]","[-1,-1,-1]","[-0.029065970647146267,0.08494982379965094]","[1,1,1]","[-0.08936612222668212,0.1546421392872678]","[-1,-1,-1]","[-0.14401999761018167,-0.11341906224004344]","[-1,-1,-1]","[0.1369265245290663,-0.0009350190533735601]","[-1,-1,-1]","[-0.041572342891124804,-0.022187878017183204]","[1,1,1]","[0.07782740151066157,0.11888734970359888]","[-1,-1,-1]","[0.14691267746861564,-0.12644490012785972]","[-1,-1,-1]","[0.13925452060740662,0.1333496222398245]","[-1,-1,-1]","[0.06741354293572828,0.02439196692462885]","[-1,-1,-1]","[-0.01767382915429757,-0.13553516193331305]","[1,1,1]","[-0.03698071972873745,-0.0902264091803957]","[-1,-1,-1]","[0.1664412386579287,-0.08337244698772175]","[-1,-1,-1]","[-0.0922742432017136,-0.16852367385174818]","[1,1,1]","[0.004075801858256512,-0.029340918937390426]","[1,1,1]","[0.17703817577843073,0.057703894241319574]","[-1,-1,-1]","[-0.15742218599908112,0.11069613409285033]","[-1,-1,-1]","[-0.10934601591150486,0.1154079413438222]","[1,1,1]","[0.18925006037378048,-0.020045488846907406]","[1,1,1]","[0.12193444379779493,0.05168665012717306]","[1,1,1]","[0.12613775877890804,-0.04187915251524123]","[-1,-1,-1]","[0.02,0.02]",486.5223,0,14,14,52,1,,,,,,,
,,,,,,,5b9d57e5737d030001ad2cbf,682db4174f5d1d86fa6e0820,2025-05-21_12h08.19.763,cuing_paradigm_dot,2024.1.5,Win32,60.24096386,682d556593cb38ad0a074487,,,,,,,,,,,486.5224,487.0228,,,487.273,487.8733,right,0.5786,,,,,,,,,0.55,,,,,,487.0229,487.2729,487.8734,"[0.035633193575276764,0.042672864727466134]","[-1,-1,-1]","[-0.14126188901470002,-0.08430439306581929]","[-1,-1,-1]","[0.0005869313090692178,0.19126051493289076]","[1,1,1]","[-0.01926749932609532,0.009385649011401117]","[1,1,1]","[-0.17142623483915492,0.06946242367058957]","[1,1,1]","[-0.056471836539545565,0.13372277299670568]","[-1,-1,-1]","[-0.10594515663977543,0.03784411074434887]","[1,1,1]","[0.06337520578180071,-0.14847260535026732]","[1,1,1]","[-0.042245874780491924,0.0782682897899239]","[1,1,1]","[-0.13870109760367022,-0.1257817400311176]","[1,1,1]","[-0.058956901697247065,-0.027464198858135162]","[1,1,1]","[0.02710240312975734,-0.023839921729625995]","[-1,-1,-1]","[0.13093021997250773,0.08127552543999969]","[-1,-1,-1]","[-0.18917316422428795,-0.00242464727332302]","[1,1,1]","[0.16659190343806266,0.010764831736830788]","[-1,-1,-1]","[-0.10152977360527005,0.14969204403759143]","[-1,-1,-1]","[0.06499822434517696,-0.046072037094500154]","[-1,-1,-1]","[-0.04636159114322879,-0.1692915431871353]","[-1,-1,-1]","[0.08230160980483797,0.05000924301700004]","[-1,-1,-1]","[-0.03734304979295387,-0.08800831054860112]","[1,1,1]","[0.09780177271508697,-0.12735490933155819]","[-1,-1,-1]","[-0.09614934577351002,-0.14044326253804615]","[-1,-1,-1]","[0.018780233076351637,-0.1675484685918229]","[-1,-1,-1]","[-0.13130155274624652,0.10451091893570519]","[-1,-1,-1]","[0.08002325965568431,0.09423966854526919]","[1,1,1]","[-0.0855865566220082,-0.1799001203274208]","[1,1,1]","[0.02018416574914987,-0.09036774283964717]","[1,1,1]","[0.005815965472192186,0.12523523878935447]","[1,1,1]","[0.11599838062879081,-0.015388709842956264]","[1,1,1]","[-0.06726104385968447,0.18173616704295]","[1,1,1]","[-0.14020889602476513,0.00954331697324641]","[1,1,1]","[-0.0040986697153826135,0.05145863965347251]","[1,1,1]","[0.02,0.02]",488.9743,0,15,15,149,1,,,,,,,
,,,,,,,5b9d57e5737d030001ad2cbf,682db4174f5d1d86fa6e0820,2025-05-21_12h08.19.763,cuing_paradigm_dot,2024.1.5,Win32,60.24096386,682d556593cb38ad0a074487,,,,,,,,,,,488.9744,489.4749,,,489.7265,490.4254,right,0.6691,,,,,,,,,0.5,,,,,,489.4749,489.7265,490.4255,"[-0.13411283395504545,-0.02286705032002683]","[-1,-1,-1]","[0.17486238966402154,-0.02508728876506413]","[1,1,1]","[-0.19739024133107194,-0.03140167401353249]","[-1,-1,-1]","[-0.0791924729161872,-0.17061422636053802]","[1,1,1]","[0.05397968292312917,0.13767623595482376]","[1,1,1]","[-0.04467807445229832,0.14936080889338785]","[1,1,1]","[0.08151404623492078,-0.08683819662686977]","[1,1,1]","[-0.016484035022944134,-0.17699429234934563]","[-1,-1,-1]","[0.04213713912969371,0.019933583874932517]","[1,1,1]","[-0.13537547482256412,-0.09461665923696437]","[-1,-1,-1]","[0.12073119714860661,-0.15210934511532764]","[-1,-1,-1]","[-0.13975972639779535,0.06779048260904398]","[-1,-1,-1]","[0.10429925002310864,0.0866426325397418]","[1,1,1]","[-0.06266677782212705,-0.0918132968364703]","[1,1,1]","[-0.10846771070244585,-0.06320244089569588]","[-1,-1,-1]","[-0.030331853460186572,-0.047646515372063304]","[-1,-1,-1]","[0.03197945195604307,0.17853587837774304]","[1,1,1]","[0.012981234121920622,-0.14379631315197344]","[-1,-1,-1]","[0.06813758862746021,-0.1665699654803308]","[-1,-1,-1]","[-0.06695457397019197,-0.0032995892959973966]","[-1,-1,-1]","[-0.03674862838963734,0.09269657151345814]","[1,1,1]","[0.09189465138814583,-0.03278556640554393]","[1,1,1]","[0.013596215701177711,0.09866112003185332]","[1,1,1]","[-0.07824202043866399,0.10627183470265965]","[-1,-1,-1]","[-0.16122450285390363,0.031520507610229294]","[-1,-1,-1]","[0.045915937250955635,-0.05579466331995593]","[-1,-1,-1]","[0.036860982371923805,-0.11045077639621123]","[-1,-1,-1]","[0.13824433680548043,-0.10853122394130857]","[1,1,1]","[0.1603371971506935,0.03393027675730871]","[-1,-1,-1]","[0.018862232844187254,0.05370619972924449]","[1,1,1]","[0.0741832291830993,0.04542381193860139]","[1,1,1]","[0.093816967851516,0.15575937320641597]","[1,1,1]","[0.02,0.02]",491.5263,0,16,16,113,1,,,,,,,
,,,,,,,5b9d57e5737d030001ad2cbf,682db4174f5d1d86fa6e0820,2025-05-21_12h08.19.763,cuing_paradigm_dot,2024.1.5,Win32,60.24096386,682d556593cb38ad0a074487,,,,,,,,,,,491.5265,492.0271,,,492.277,492.8941,left,0.6135,,,,,,,,,0.1,,,,,,492.0271,492.277,492.8941,"[-0.033432844857321314,0.09245032844744061]","[-1,-1,-1]","[-0.08442586365549154,0.09940529757979355]","[-1,-1,-1]","[0.13612418506499543,-0.05129655681817196]","[-1,-1,-1]","[0.0016150246869284718,0.010726520821489326]","[-1,-1,-1]","[0.19293418942150561,0.007812139975766612]","[-1,-1,-1]","[0.09792554244922708,0.09541895613218368]","[-1,-1,-1]","[-0.1486471306864555,-0.0461063327878105]","[-1,-1,-1]","[-0.04479910759380967,-0.16975033555680694]","[1,1,1]","[-0.09553912226042623,0.1507787563010414]","[-1,-1,-1]","[-0.12131001211442517,-0.09950810468274938]","[-1,-1,-1]","[0.03095649949974634,0.13489229554581844]","[-1,-1,-1]","[0.034608714178741874,-0.03633083098631286]","[-1,-1,-1]","[-0.1437373684991741,0.048840424230981415]","[-1,-1,-1]","[0.14827023819805002,-0.09013099186219473]","[-1,-1,-1]","[0.09970318850902243,-0.026487907873107813]","[-1,-1,-1]","[-0.03953090823426531,-0.011588287413793282]","[-1,-1,-1]","[-0.046230538524951396,-0.06908245278891188]","[1,1,1]","[-0.08959569875258903,-0.17157274687174093]","[-1,-1,-1]","[0.1504495553219248,0.029958694244021502]","[-1,-1,-1]","[0.0707133092295739,-0.12334168181954844]","[-1,-1,-1]","[0.036964309818983264,0.18596686052869285]","[-1,-1,-1]","[0.04312455308959295,0.043661231165643716]","[-1,-1,-1]","[0.0685633744029908,-0.17519492826012142]","[-1,-1,-1]","[-0.01753326249422393,0.055360613210461165]","[-1,-1,-1]","[-0.1504384453838584,-0.12756928144223312]","[1,1,1]","[0.0837552018645175,0.14427256336433816]","[-1,-1,-1]","[-0.17061253601364598,0.006194831723480541]","[-1,-1,-1]","[-0.08707678544635038,-0.01504345383405266]","[-1,-1,-1]","[0.038098694250390024,0.0903270443007347]","[-1,-1,-1]","[0.0016293362318513082,-0.1287021122943247]","[-1,-1,-1]","[0.17186404835982724,0.08860679591634214]","[-1,-1,-1]","[-0.09340853158299812,-0.05859084962485513]","[-1,-1,-1]","[0.02,0.02]",493.9952,0,17,17,14,1,,,,,,,
,,,,,,,5b9d57e5737d030001ad2cbf,682db4174f5d1d86fa6e0820,2025-05-21_12h08.19.763,cuing_paradigm_dot,2024.1.5,Win32,60.24096386,682d556593cb38ad0a074487,,,,,,,,,,,493.9954,494.4958,,,494.7458,495.563,right,0.7843,,,,,,,,,0.55,,,,,,494.4958,494.7458,495.563,"[-0.057737049629715785,0.07844115435983325]","[1,1,1]","[0.048553189292045565,0.027383942115686108]","[-1,-1,-1]","[0.1510148406443372,-0.08198937834809202]","[-1,-1,-1]","[-0.014630903333788314,0.017846261430288075]","[-1,-1,-1]","[0.09086416142477048,0.052408406851529324]","[1,1,1]","[-0.14546488647059916,-0.07887014611702688]","[-1,-1,-1]","[0.08626833415719207,-0.08686029624171936]","[-1,-1,-1]","[-0.13740986575270636,0.1357492467228565]","[1,1,1]","[-0.10990729785828962,0.0234154663378232]","[1,1,1]","[0.12240237612744076,0.09843296937732002]","[-1,-1,-1]","[-0.17913394030072263,0.05476312360984986]","[-1,-1,-1]","[0.13129310086182586,-0.044257453197370525]","[-1,-1,-1]","[-0.10314061342156165,-0.10802104127556028]","[1,1,1]","[0.0485672841266677,0.06808058258289243]","[-1,-1,-1]","[-0.1872260842797537,-0.040791299299139515]","[-1,-1,-1]","[-0.03976365823990699,-0.022124343174478544]","[1,1,1]","[0.023555686516873668,-0.017977088792716]","[1,1,1]","[0.1370045875036586,-0.14546356493578233]","[1,1,1]","[-0.042562909494223485,0.18807256202909337]","[1,1,1]","[0.10215474558785578,0.15119673133003572]","[-1,-1,-1]","[-0.05977950853138534,-0.177845166104045]","[1,1,1]","[0.0003682254824672608,-0.16065951377928242]","[1,1,1]","[0.1525114233056363,0.04691119859936197]","[1,1,1]","[-0.08373910467008096,-0.009271143164547996]","[-1,-1,-1]","[-0.003772111618280247,-0.08878090781590497]","[1,1,1]","[-0.11869029014159506,-0.04778712856512105]","[1,1,1]","[0.03859348091815559,0.12188868983336744]","[1,1,1]","[0.006739628493633628,0.0524912149499561]","[1,1,1]","[0.16622145509653177,0.10723778171700553]","[1,1,1]","[-0.13922818722284494,0.06457731640672655]","[1,1,1]","[-0.07573919241627307,-0.07866741332520105]","[-1,-1,-1]","[-0.11079952294547368,-0.15870927138181368]","[-1,-1,-1]","[0.02,0.02]",496.6639,0,18,18,137,1,,,,,,,
,,,,,,,5b9d57e5737d030001ad2cbf,682db4174f5d1d86fa6e0820,2025-05-21_12h08.19.763,cuing_paradigm_dot,2024.1.5,Win32,60.24096386,682d556593cb38ad0a074487,,,,,,,,,,,496.664,497.1642,,,497.4146,498.3319,left,0.8839,,,,,,,,,0.55,,,,,,497.1642,497.4146,498.332,"[-0.059756802329819704,-0.10815357680248884]","[-1,-1,-1]","[0.019380896444601132,0.07096397758040658]","[-1,-1,-1]","[0.08759684563725963,0.17372995355685134]","[-1,-1,-1]","[-0.07267977302952346,0.17172870358308132]","[1,1,1]","[0.04965649837113884,-0.19103850836134884]","[1,1,1]","[-0.058042329496532645,0.01714306525534795]","[-1,-1,-1]","[-0.10451494874233598,-0.030073724460862674]","[1,1,1]","[0.05019744462875796,-0.1490134136558061]","[-1,-1,-1]","[-0.1496477008993192,-0.09956241067059955]","[-1,-1,-1]","[-0.09074156075691545,0.09313277912947007]","[-1,-1,-1]","[0.12700231625510078,-0.06029304539082198]","[1,1,1]","[-0.03619947833727867,0.12084902138611453]","[1,1,1]","[0.18691018814002247,0.007139827931379232]","[1,1,1]","[-0.165196242352858,-0.01220446003536655]","[1,1,1]","[0.0906602822008439,-0.1177286117835564]","[1,1,1]","[-0.11677938378979341,0.148065546758975]","[-1,-1,-1]","[0.08770296692415955,0.0375142358023106]","[1,1,1]","[0.03176511445073087,0.18590917848190108]","[1,1,1]","[0.13123966788276012,0.14704127540248246]","[1,1,1]","[0.16351164719434438,0.05499056451645709]","[-1,-1,-1]","[0.039475785498846554,-0.049277205948171705]","[-1,-1,-1]","[-0.14167060344004181,0.07839908338545983]","[1,1,1]","[-0.05171118677057746,-0.028615695734795575]","[1,1,1]","[0.08369054090530506,-0.02124073444620346]","[1,1,1]","[0.06510778343286512,0.0926126378280311]","[1,1,1]","[0.0264348063253096,-0.10283439046285098]","[1,1,1]","[-0.05748391545161994,-0.17167820472649842]","[-1,-1,-1]","[-0.18055063890300685,0.04952138252091294]","[-1,-1,-1]","[-0.09461186739856783,-0.078775602846125]","[-1,-1,-1]","[-0.11846625310231591,0.01455147254955427]","[1,1,1]","[0.13173698551421437,-0.0022949371688959427]","[1,1,1]","[0.11395402518336471,0.10463285343001756]","[-1,-1,-1]","[0.02,0.02]",499.4328,0,19,19,124,1,,,,,,,
,,,,,,,5b9d57e5737d030001ad2cbf,682db4174f5d1d86fa6e0820,2025-05-21_12h08.19.763,cuing_paradigm_dot,2024.1.5,Win32,60.24096386,682d556593cb38ad0a074487,,,,,,,,,,,499.4329,499.9332,,,500.1834,500.8173,right,0.6106,,,,,,,,,0.9,,,,,,499.9332,500.1834,500.8173,"[-0.03150211423853576,0.14169439102050443]","[1,1,1]","[-0.05581023752955201,-0.12980904339605517]","[-1,-1,-1]","[0.15536591165467062,-0.10216735528885094]","[1,1,1]","[-0.0031312692638527104,-0.11701396635513206]","[1,1,1]","[-0.17788022490216618,-0.08835402791607891]","[1,1,1]","[0.0047124277736840395,-0.1862122059550817]","[1,1,1]","[0.0844964461188987,-0.07553874427800737]","[1,1,1]","[-0.08271462010292308,-0.020938144470259788]","[1,1,1]","[0.00908652534356593,0.07709320439239666]","[1,1,1]","[0.08545992922843998,0.022970537261797305]","[1,1,1]","[-0.04275342616972465,0.06918822993027327]","[1,1,1]","[-0.07652862179829772,-0.09056717765256672]","[1,1,1]","[0.03709790051133108,0.17669888163388403]","[1,1,1]","[0.09437780999958792,-0.14128065439640483]","[1,1,1]","[-0.04621816311524854,0.010448269657759838]","[-1,-1,-1]","[-0.004976962921824652,-0.021868932697585358]","[1,1,1]","[-0.031655584930015426,-0.08173352554665445]","[1,1,1]","[0.18310275927598887,0.027332766370432422]","[1,1,1]","[-0.19802328120218254,0.011305598201963571]","[1,1,1]","[0.037936247269053806,0.027371803245543808]","[1,1,1]","[0.1461622413458168,0.10976795071533912]","[1,1,1]","[0.04195831280294656,0.1313125875636339]","[1,1,1]","[-0.13458429802345548,0.08014154112448774]","[1,1,1]","[-0.11171448762303537,-0.1534574551114881]","[-1,-1,-1]","[0.09971654050968949,0.16042817558539205]","[1,1,1]","[0.14679153736408482,-0.03128414485279153]","[1,1,1]","[-0.12222994217898363,0.02340845299128727]","[1,1,1]","[0.055454448655136844,-0.023554808945858548]","[1,1,1]","[-0.058660028188585615,-0.17451013989259428]","[1,1,1]","[-0.1856004417392236,0.069113588131892]","[1,1,1]","[-0.15281938174530518,0.12476304380908798]","[1,1,1]","[-0.08306379150974694,0.13214233713404966]","[1,1,1]","[0.02,0.02]",501.9181,0,20,20,201,1,,,,,,,
,,,,,,,5b9d57e5737d030001ad2cbf,682db4174f5d1d86fa6e0820,2025-05-21_12h08.19.763,cuing_paradigm_dot,2024.1.5,Win32,60.24096386,682d556593cb38ad0a074487,,,,,,,,,,,501.9183,502.4186,,,502.6689,503.2526,left,0.5574,,,,,,,,,0.1,,,,,,502.4186,502.6689,503.2526,"[0.014671123336027358,0.142329896835687]","[1,1,1]","[-0.09993922656800996,-0.04342652753307103]","[-1,-1,-1]","[0.09343552600260087,-0.06812079737708926]","[-1,-1,-1]","[0.06000806464774588,-0.04474939460127806]","[-1,-1,-1]","[-0.013320752805537506,-0.03068181386262504]","[1,1,1]","[-0.059341257630063836,-0.08323678743264916]","[-1,-1,-1]","[0.06191359907566426,0.05603540888748995]","[-1,-1,-1]","[-0.047655311103208225,0.1642140196646861]","[-1,-1,-1]","[-0.08712220375381702,-0.17457858520607647]","[-1,-1,-1]","[-0.015295505478256316,-0.08087025644104147]","[-1,-1,-1]","[0.14161970557783427,0.12291254028163445]","[-1,-1,-1]","[0.18132474428034787,0.06410746793675368]","[-1,-1,-1]","[0.09414517012931127,-0.012811131834924152]","[-1,-1,-1]","[-0.02280930373218656,-0.1235067113475272]","[-1,-1,-1]","[-0.06530428697736258,0.08324980965998897]","[1,1,1]","[0.03627165228208504,0.18919689042911672]","[-1,-1,-1]","[-0.17857302921161355,-0.06573522022396451]","[-1,-1,-1]","[-0.15547896852643273,-0.11811375573909533]","[-1,-1,-1]","[-0.13337863676642825,0.12395794450556233]","[-1,-1,-1]","[0.19055071352377984,0.005376790659737789]","[-1,-1,-1]","[0.08297536126330714,0.11849387298498523]","[-1,-1,-1]","[-0.02308905438539392,0.19622826872120758]","[-1,-1,-1]","[0.0003808379088779008,-0.19826563634898683]","[-1,-1,-1]","[0.05121689290050685,-0.12133659754009955]","[-1,-1,-1]","[-0.16169217994563576,0.002523138346607047]","[-1,-1,-1]","[-0.056836738676782655,0.011148714861074258]","[-1,-1,-1]","[0.09686470320618445,-0.11676042202710485]","[-1,-1,-1]","[0.0077357710086294945,0.01671213691152953]","[-1,-1,-1]","[0.14217127112573644,-0.034057595306799096]","[-1,-1,-1]","[-0.09832945252067593,-0.1279846984366562]","[-1,-1,-1]","[-0.029195945754347898,-0.163224333621523]","[-1,-1,-1]","[-0.09713656404315724,0.003952284444037833]","[-1,-1,-1]","[0.02,0.02]",504.3535,0,21,21,18,1,,,,,,,
,,,,,,,5b9d57e5737d030001ad2cbf,682db4174f5d1d86fa6e0820,2025-05-21_12h08.19.763,cuing_paradigm_dot,2024.1.5,Win32,60.24096386,682d556593cb38ad0a074487,,,,,,,,,,,504.3536,504.8539,,,505.1042,506.2885,right,1.1619,,,,,,,,,0.6,,,,,,504.8539,505.1042,506.2885,"[-0.00689099156386158,-0.058764435119335746]","[1,1,1]","[0.13393905809765805,-0.00733986533063827]","[-1,-1,-1]","[0.1086317068218259,-0.155588033603446]","[1,1,1]","[0.15500301008287992,0.07330151039352815]","[1,1,1]","[-0.15590434002994086,-0.11261189237414554]","[-1,-1,-1]","[0.18423333566575345,-0.06392560414994714]","[1,1,1]","[-0.10079966430514825,0.14571685860048497]","[1,1,1]","[-0.07684264845033308,-0.0790361340019325]","[-1,-1,-1]","[-0.03150572113347634,0.14564061823388877]","[1,1,1]","[0.09170386353883037,-0.11549319725757613]","[-1,-1,-1]","[-0.10924512302364153,0.046261582631368585]","[1,1,1]","[0.10013791130148797,0.1314975801101058]","[-1,-1,-1]","[-0.1924664844319068,-0.02453596759043839]","[1,1,1]","[-0.0850100225151552,-0.033334170445892305]","[1,1,1]","[0.010416719930169105,0.10115622236187352]","[1,1,1]","[0.00529644942248889,0.16841011841552456]","[-1,-1,-1]","[-0.1340478658467008,-0.07272500593328637]","[-1,-1,-1]","[0.13061549172499062,-0.06005061082479133]","[-1,-1,-1]","[-0.13308645848217227,0.08064325709075229]","[-1,-1,-1]","[-0.01544699869604104,-0.146626258878539]","[1,1,1]","[0.09914339531247433,0.04203275111660149]","[1,1,1]","[-0.07269062602730086,0.09578017754338101]","[-1,-1,-1]","[-0.0835146263593476,-0.16243707302212776]","[1,1,1]","[0.052935069091674544,-0.10225144858003124]","[1,1,1]","[-0.15129092275313233,0.01782827147732785]","[-1,-1,-1]","[0.05146382910426574,0.026784252092513134]","[1,1,1]","[-0.025064086077166727,0.03328542371072401]","[-1,-1,-1]","[0.029186753922372036,-0.1830899648472342]","[-1,-1,-1]","[0.1815545635667963,0.0020956702348190175]","[1,1,1]","[-0.1948743826119877,0.027502717695147394]","[1,1,1]","[-0.016079060392337682,-0.18908908693500934]","[1,1,1]","[0.06281642563665987,0.1493350109067881]","[1,1,1]","[0.02,0.02]",507.3894,0,22,22,153,1,,,,,,,
,,,,,,,5b9d57e5737d030001ad2cbf,682db4174f5d1d86fa6e0820,2025-05-21_12h08.19.763,cuing_paradigm_dot,2024.1.5,Win32,60.24096386,682d556593cb38ad0a074487,,,,,,,,,,,507.3895,507.8897,,,508.14,509.0073,left,0.8462,,,,,,,,,0.55,,,,,,507.8897,508.14,509.0074,"[-0.004577017562258822,-0.18630113753689745]","[1,1,1]","[-0.1569082174675789,-0.09193994679782691]","[1,1,1]","[-0.010540460798406011,-0.11071114674514271]","[-1,-1,-1]","[-0.07505651494421939,0.16284310386637224]","[1,1,1]","[0.07375898597803156,-0.013582592205049543]","[1,1,1]","[-0.018930887992701637,0.14690828825639096]","[1,1,1]","[0.11129740449775208,0.03251791093290532]","[1,1,1]","[0.05897924598130205,0.176369855840139]","[1,1,1]","[0.07469157893706767,-0.17401278025160027]","[-1,-1,-1]","[0.07117325285295653,0.11782337428362871]","[-1,-1,-1]","[0.1655263331271519,0.01923854953141394]","[1,1,1]","[-0.1120385868479697,-0.023044335841997093]","[-1,-1,-1]","[-0.16357690975331116,0.057150456793953926]","[-1,-1,-1]","[0.11772387156851159,0.11891744625724177]","[1,1,1]","[-0.0663105268628304,0.12254128605539125]","[1,1,1]","[-0.025126463058180976,0.1066374050391768]","[-1,-1,-1]","[-0.09815836217678765,0.030746069204251474]","[-1,-1,-1]","[-0.04403266574503474,0.040513310860262705]","[-1,-1,-1]","[-0.007795884095977613,-0.04812688477411563]","[1,1,1]","[0.16693511807626427,-0.021288209946173052]","[1,1,1]","[0.0761498158714244,-0.1011622488730154]","[-1,-1,-1]","[-0.11674641940569369,-0.11511632548009021]","[1,1,1]","[0.1267637736875938,-0.09443553123863992]","[-1,-1,-1]","[0.17576703285397216,-0.06534280818760006]","[-1,-1,-1]","[0.03287215965264794,-0.030745622954019086]","[1,1,1]","[-0.048146933490526705,-0.1826076186085514]","[1,1,1]","[0.18477313126845077,0.06332049346440961]","[-1,-1,-1]","[-0.18210887911778004,-0.04695113899096313]","[1,1,1]","[-0.10296056483487884,0.07588701335980629]","[-1,-1,-1]","[-0.06216193070553347,-0.0402827198651068]","[1,1,1]","[0.025837707331351205,-0.08977717971262536]","[1,1,1]","[0.018238317484598195,0.12624247113962295]","[-1,-1,-1]","[0.02,0.02]",510.1085,0,23,23,127,1,,,,,,,
,,,,,,,5b9d57e5737d030001ad2cbf,682db4174f5d1d86fa6e0820,2025-05-21_12h08.19.763,cuing_paradigm_dot,2024.1.5,Win32,60.24096386,682d556593cb38ad0a074487,,,,,,,,,,,510.1087,510.6086,,,510.8592,511.7596,left,0.8793,,,,,,,,,0.6,,,,,,510.6086,510.8591,511.7596,"[0.061290320154710996,-0.1566036105301388]","[1,1,1]","[-0.03499891801554559,0.05557464976962908]","[1,1,1]","[-0.07183432056254695,-0.09723817776632396]","[1,1,1]","[-0.058667497298194204,0.1367988030852448]","[1,1,1]","[-0.19329620205300188,0.03960371420218618]","[1,1,1]","[0.12841276773385504,0.1130134382946435]","[1,1,1]","[-0.11559566092866405,0.021890676766420286]","[-1,-1,-1]","[-0.08973162905916729,-0.17149146894903053]","[1,1,1]","[0.1908448858102972,-0.01411813386501619]","[-1,-1,-1]","[0.12037937067903583,-0.0716286038220316]","[1,1,1]","[-0.1168012537619959,-0.022785174058541347]","[-1,-1,-1]","[-0.12402136081259538,-0.11477196865199552]","[1,1,1]","[-0.044830546620020964,-0.13595426979656422]","[1,1,1]","[-0.19385320243540274,-0.019255146500243438]","[-1,-1,-1]","[0.07675258273163652,0.0033872907135464856]","[1,1,1]","[-0.010680838021021669,-0.008003277362464844]","[-1,-1,-1]","[0.034234782353334714,0.133316670149136]","[1,1,1]","[-0.03048965731632038,-0.07035928258536807]","[-1,-1,-1]","[-0.011459772315234925,-0.16504326642539652]","[1,1,1]","[0.09728810710055125,0.07892881379233443]","[1,1,1]","[-0.15360299389342122,0.054993937272937235]","[-1,-1,-1]","[-0.1274381311424379,-0.06768368742497682]","[-1,-1,-1]","[0.06302012466155826,-0.11601091126315405]","[-1,-1,-1]","[-0.005148145106220733,0.18525797577300132]","[-1,-1,-1]","[0.0417326846024705,0.07637834967135429]","[1,1,1]","[0.12787789004119565,-0.028536927498516523]","[-1,-1,-1]","[0.022982165234972703,-0.04953180359036232]","[1,1,1]","[-0.12309216994931221,0.09351054385987204]","[-1,-1,-1]","[-0.02508892945245614,0.10731586915459816]","[1,1,1]","[-0.07449801382430639,0.18175532463050914]","[-1,-1,-1]","[0.07104447534233563,0.0432464118973579]","[1,1,1]","[0.15222718927997753,0.07427946500817911]","[1,1,1]","[0.02,0.02]",512.8604,0,24,24,176,1,,,,,,,
,,,,,,,5b9d57e5737d030001ad2cbf,682db4174f5d1d86fa6e0820,2025-05-21_12h08.19.763,cuing_paradigm_dot,2024.1.5,Win32,60.24096386,682d556593cb38ad0a074487,,,,,,,,,,,512.8606,513.3611,,,513.6112,514.3617,left,0.7189,,,,,,,,,0.4,,,,,,513.3611,513.6112,514.3617,"[0.005718358683924391,-0.1825961109727474]","[-1,-1,-1]","[0.0873246293786771,-0.037786208958236936]","[-1,-1,-1]","[0.11869394659914068,-0.10957589706524332]","[1,1,1]","[-0.16904704311816304,0.010836116809670242]","[-1,-1,-1]","[0.05557487961603513,-0.148815614049942]","[-1,-1,-1]","[-0.11533680334512131,0.09128352470167385]","[1,1,1]","[-0.1857656331967931,0.06733695566245006]","[-1,-1,-1]","[-0.11395246555711082,0.027786889696666678]","[-1,-1,-1]","[0.11169044850754122,0.10087856911386643]","[1,1,1]","[-0.1410986645042124,-0.09220107974741977]","[-1,-1,-1]","[-0.02447751881171929,0.034929657585041025]","[1,1,1]","[-0.09133540669599063,-0.007015111178611395]","[-1,-1,-1]","[0.05320892830424148,-0.013281799116198912]","[1,1,1]","[-0.023982986687934933,-0.09550549343688412]","[1,1,1]","[0.0007570666419203622,-0.013188345425679837]","[-1,-1,-1]","[-0.04681688828795557,0.18839263801337283]","[-1,-1,-1]","[-0.07595754700859172,-0.15131987043433373]","[1,1,1]","[0.021327092970831525,-0.12688689985301743]","[1,1,1]","[0.01471082132141428,0.17116579220191422]","[-1,-1,-1]","[0.05217774771106288,0.1171925648857504]","[-1,-1,-1]","[-0.08326055503921116,0.14730723786692465]","[-1,-1,-1]","[0.0018114539609794267,0.08254445364709523]","[-1,-1,-1]","[0.0993376730474574,-0.15690323486324453]","[1,1,1]","[0.1582248770872813,-0.06579249598345457]","[-1,-1,-1]","[-0.13438663728024844,-0.03499837522392823]","[-1,-1,-1]","[0.14274674848048546,0.13934350296086362]","[-1,-1,-1]","[-0.0837134926397655,0.05682148237313241]","[1,1,1]","[0.04501992186178355,0.05473092223766624]","[-1,-1,-1]","[0.12774080345767944,-0.0012889419152232798]","[1,1,1]","[0.03296007481089056,-0.04861507677513047]","[1,1,1]","[-0.18689752945476265,-0.03923960270778149]","[-1,-1,-1]","[0.065773156767211,-0.10417587686182335]","[1,1,1]","[0.02,0.02]",515.4626,0,25,25,51,1,,,,,,,
,,,,,,,5b9d57e5737d030001ad2cbf,682db4174f5d1d86fa6e0820,2025-05-21_12h08.19.763,cuing_paradigm_dot,2024.1.5,Win32,60.24096386,682d556593cb38ad0a074487,,,,,,,,,,,515.4628,515.9632,,,516.2134,516.9305,left,0.6927,,,,,,,,,0.1,,,,,,515.9632,516.2134,516.9305,"[0.057384067360316454,0.15821779960326096]","[-1,-1,-1]","[-0.03202454908469013,0.04622698554725895]","[-1,-1,-1]","[-0.05173053334820172,-0.12687018864524616]","[-1,-1,-1]","[0.029430926070414396,-0.14869959718918693]","[-1,-1,-1]","[-0.12095728666754167,0.04951693582109189]","[-1,-1,-1]","[-0.007980252652765812,-0.09203461072096293]","[-1,-1,-1]","[-0.038050866361722856,0.1159463040500585]","[-1,-1,-1]","[0.05810462559800929,0.09044905499936265]","[1,1,1]","[0.10095381160434044,0.10611966741155057]","[-1,-1,-1]","[-0.11599455067917891,-0.12570763502356228]","[-1,-1,-1]","[0.1625723847108622,0.07409925567015667]","[-1,-1,-1]","[-0.1483934301384235,-0.06811454345750403]","[-1,-1,-1]","[0.19245473645794167,0.03288457812799422]","[1,1,1]","[0.1729824984393067,-0.014224745733329902]","[-1,-1,-1]","[0.026654805400517827,0.010845831414965866]","[1,1,1]","[0.07687678690676375,-0.09038028929774986]","[-1,-1,-1]","[0.12386102913764765,-0.1159564931957528]","[-1,-1,-1]","[0.14265607957208798,0.12033151980774452]","[-1,-1,-1]","[-0.023822438399336995,-0.16881415780956766]","[-1,-1,-1]","[-0.05388655431147042,-0.0753659681414707]","[-1,-1,-1]","[0.06861781692710459,0.012629919397054028]","[-1,-1,-1]","[0.09953245481271081,-0.16189259821205249]","[-1,-1,-1]","[-0.18681521319686697,-0.001678214815135298]","[-1,-1,-1]","[-0.07454348303892387,0.04608332658715309]","[-1,-1,-1]","[0.007397554990403325,0.10427016315196391]","[-1,-1,-1]","[-0.06281424297339443,-0.02581488952126256]","[-1,-1,-1]","[0.14678457091237612,-0.04861141740132547]","[-1,-1,-1]","[-0.011258397067651908,-0.007176415702239306]","[-1,-1,-1]","[-0.1083224856742671,0.10293277008060157]","[-1,-1,-1]","[-0.10368860267186511,0.0034040076724173606]","[-1,-1,-1]","[0.11899785449890032,0.02292672015423107]","[-1,-1,-1]","[0.049016804259785766,-0.03989324007442347]","[-1,-1,-1]","[0.02,0.02]",518.0313,0,26,26,9,1,,,,,,,
,,,,,,,5b9d57e5737d030001ad2cbf,682db4174f5d1d86fa6e0820,2025-05-21_12h08.19.763,cuing_paradigm_dot,2024.1.5,Win32,60.24096386,682d556593cb38ad0a074487,,,,,,,,,,,518.0315,518.5317,,,518.782,519.3325,right,0.5242,,,,,,,,,0.9,,,,,,518.5318,518.782,519.3325,"[-0.0889857590865802,-0.10791379035693437]","[1,1,1]","[0.02140628653513499,0.08272805370292]","[1,1,1]","[0.045432934546047896,-0.07085956136082315]","[1,1,1]","[-0.03905437939104538,0.004314033487775032]","[1,1,1]","[0.19100005556508268,-0.04924368472377237]","[1,1,1]","[-0.1347477970622013,-0.1115956613816696]","[1,1,1]","[0.14479141906650078,0.1312869032556851]","[1,1,1]","[0.030737128769488718,0.03998025912440037]","[1,1,1]","[0.09966076559858623,-0.012931671353627884]","[1,1,1]","[-0.10663393138513573,0.09287802897921427]","[1,1,1]","[-0.12150700777590835,0.007479449417319455]","[1,1,1]","[0.03539982851026713,-0.029954853057658264]","[1,1,1]","[0.09409593879153412,0.08241237428428083]","[1,1,1]","[0.13518131310762777,0.08126678218654534]","[1,1,1]","[0.12538804579652799,-0.12150060289859342]","[1,1,1]","[-0.06471449937678828,0.14902745863221334]","[-1,-1,-1]","[-0.12148443260673931,-0.06755008019310335]","[1,1,1]","[-0.16676352695683352,0.06297056161260914]","[1,1,1]","[-0.09160681123247467,-0.15326781789336053]","[-1,-1,-1]","[0.10472101100404858,0.042784003731380735]","[1,1,1]","[-0.0850186119181442,0.04920011393283888]","[1,1,1]","[-0.01535087562485191,0.10676983519636012]","[1,1,1]","[-0.18411734110036015,-0.002080009783767343]","[1,1,1]","[-0.15042540848253685,0.10283440023155688]","[1,1,1]","[0.08029757315730958,-0.12152145814958103]","[-1,-1,-1]","[-0.12324671755112683,0.15300665946444178]","[1,1,1]","[-0.02797127543506294,-0.0499970043322761]","[1,1,1]","[0.04299864357880277,0.14075189780577224]","[1,1,1]","[-0.04456676867502887,-0.13208118732789415]","[1,1,1]","[-0.01798358876581221,-0.1921066088447247]","[1,1,1]","[0.0008061036695728767,-0.12830659057663013]","[1,1,1]","[0.10453779151792857,0.12600838861238356]","[1,1,1]","[0.02,0.02]",520.4336,0,27,27,203,1,,,,,,,
,,,,,,,5b9d57e5737d030001ad2cbf,682db4174f5d1d86fa6e0820,2025-05-21_12h08.19.763,cuing_paradigm_dot,2024.1.5,Win32,60.24096386,682d556593cb38ad0a074487,,,,,,,,,,,520.4338,520.934,,,521.184,521.9346,left,0.7303,,,,,,,,,0.45,,,,,,520.934,521.184,521.9346,"[0.1685084408590128,-0.09451017449400884]","[-1,-1,-1]","[0.025547914457003957,0.0505442943577189]","[-1,-1,-1]","[-0.0874832083163434,-0.10927794303627596]","[-1,-1,-1]","[-0.1568843072113435,-0.033408726639651505]","[1,1,1]","[-0.1642021285083305,0.04182323682523586]","[1,1,1]","[-0.07221627135439225,0.16350871618559742]","[-1,-1,-1]","[0.028458223483624017,0.18256747948828378]","[1,1,1]","[-0.07129749379404483,-0.17586479274692793]","[1,1,1]","[0.0777140209115885,-0.005281109711889897]","[1,1,1]","[-0.0980849677671882,0.04367029536587308]","[-1,-1,-1]","[0.1324461131365362,0.13920050543543694]","[-1,-1,-1]","[-0.040576009592767734,0.1284485613302615]","[1,1,1]","[-0.13807067426778205,0.13196604140492654]","[1,1,1]","[0.1690182105956257,-0.034927932420624586]","[-1,-1,-1]","[0.16683106787326624,0.060282434039719446]","[1,1,1]","[0.10159179033560557,-0.12902188527283406]","[1,1,1]","[0.025459124263374214,0.10463327778151972]","[1,1,1]","[-0.04270205456064054,-0.03224650629743221]","[1,1,1]","[0.06247436337443386,-0.1522157259113449]","[-1,-1,-1]","[-0.12446059184130995,0.003908519193428397]","[1,1,1]","[0.06456605692369456,0.12491207010902365]","[1,1,1]","[-0.04700538992695366,0.07779087927638839]","[-1,-1,-1]","[0.003384635157437006,-0.05996523063915106]","[-1,-1,-1]","[-0.16051890160219942,-0.11037322447168474]","[-1,-1,-1]","[-0.12158516799515288,-0.07706640131613042]","[1,1,1]","[0.09362189177700093,0.031773060797934925]","[-1,-1,-1]","[0.10619391248650006,0.07820721661116982]","[-1,-1,-1]","[0.15524571798880116,0.005072092600887821]","[-1,-1,-1]","[0.0579099988517385,-0.09304040706592884]","[-1,-1,-1]","[0.007005352843174822,-0.019126683244821443]","[-1,-1,-1]","[-0.055019784469893085,0.02989897417752989]","[-1,-1,-1]","[0.19601880007479197,0.004606095662664499]","[-1,-1,-1]","[0.02,0.02]",523.0354,0,28,28,75,1,,,,,,,
,,,,,,,5b9d57e5737d030001ad2cbf,682db4174f5d1d86fa6e0820,2025-05-21_12h08.19.763,cuing_paradigm_dot,2024.1.5,Win32,60.24096386,682d556593cb38ad0a074487,,,,,,,,,,,523.0356,523.5361,,,523.7862,524.3366,left,0.5279,,,,,,,,,0.45,,,,,,523.5361,523.7862,524.3366,"[-0.030354866108349306,0.19646751381891375]","[1,1,1]","[-0.10833642615014903,-0.09396720649971352]","[1,1,1]","[0.05877427623810385,-0.14449437795507877]","[-1,-1,-1]","[0.1658833527296975,-0.07499555619117773]","[-1,-1,-1]","[0.005970783224524301,0.10941091902627056]","[-1,-1,-1]","[0.1725157709317674,0.045889174984618565]","[-1,-1,-1]","[-0.19896827621922517,0.011713922936863857]","[1,1,1]","[-0.13593710256677055,0.04362872439194671]","[1,1,1]","[-0.15731813253295318,0.008844507596104258]","[-1,-1,-1]","[0.03730638408818373,0.07205817855786267]","[1,1,1]","[0.0962094381034072,0.10588448298418537]","[-1,-1,-1]","[-0.12888531776355452,0.13219846987728306]","[-1,-1,-1]","[-0.11440379719763885,-0.15503091759169624]","[1,1,1]","[-0.029013351569217027,0.15491108638664264]","[-1,-1,-1]","[-0.04895496289184078,-0.0918800424291183]","[-1,-1,-1]","[-0.05971583452943466,-0.1718172007938281]","[1,1,1]","[0.01542809408563107,0.15103369034610167]","[1,1,1]","[0.061839387433903444,-0.1033390958487402]","[1,1,1]","[-0.009972366394560256,0.06781669909292551]","[-1,-1,-1]","[-0.08234470173634897,0.05938382338839666]","[1,1,1]","[-0.013732834877424577,-0.14481913628248483]","[1,1,1]","[0.025301191459834477,-0.059824193251923556]","[-1,-1,-1]","[-0.08870536874512239,-0.00859293183470617]","[-1,-1,-1]","[0.05862763345680813,-0.03278014680602415]","[1,1,1]","[-0.04131423060649195,-0.04192096909338882]","[-1,-1,-1]","[0.02304397401469249,-0.006916038106604552]","[-1,-1,-1]","[0.12225657270697045,-0.07145256403563119]","[-1,-1,-1]","[0.0848674495746233,0.1559792901871084]","[-1,-1,-1]","[0.14935627406636054,-0.030995460371464407]","[1,1,1]","[0.1255123438047015,0.04558925037846534]","[-1,-1,-1]","[-0.07262814571750488,0.1409890881563105]","[-1,-1,-1]","[-0.08047773455817642,-0.13146330739111456]","[1,1,1]","[0.02,0.02]",525.4376,0,29,29,72,1,,,,,,,
,,,,,,,5b9d57e5737d030001ad2cbf,682db4174f5d1d86fa6e0820,2025-05-21_12h08.19.763,cuing_paradigm_dot,2024.1.5,Win32,60.24096386,682d556593cb38ad0a074487,,,,,,,,,,,525.4378,525.9379,,,526.1881,526.7885,left,0.5741,,,,,,,,,0.45,,,,,,525.9379,526.1881,526.7885,"[-0.13937570176508282,0.10280485388148977]","[1,1,1]","[-0.1075522741303046,-0.07267629259113295]","[-1,-1,-1]","[-0.038014933698241944,-0.07794556268818452]","[1,1,1]","[0.08546177109147439,0.15569792942566613]","[1,1,1]","[-0.15344192534078113,-0.07964277750936867]","[1,1,1]","[0.12265727172548026,-0.1309674686635373]","[-1,-1,-1]","[0.028546938562847814,0.08321193319568873]","[1,1,1]","[0.1348022299986545,-0.053719199977158905]","[1,1,1]","[0.08124275123643403,-0.1800579409578717]","[1,1,1]","[-0.12233267962166108,0.010017658569323948]","[-1,-1,-1]","[-0.039286369080579746,0.10036873696321394]","[1,1,1]","[0.08757627896394499,-0.0814961042699554]","[1,1,1]","[-0.00751481812543028,-0.1519054859871901]","[1,1,1]","[0.15136928750224118,0.1293186412120984]","[-1,-1,-1]","[-0.06469396719082539,-0.13420686074954435]","[-1,-1,-1]","[-0.12626001209448628,0.14376189002748477]","[1,1,1]","[0.03421364371853722,-0.19261082476355718]","[-1,-1,-1]","[0.04442232081739102,-0.05476013752398986]","[-1,-1,-1]","[-0.08040815744569248,-0.0079669341645931]","[-1,-1,-1]","[0.008713687436951195,0.1312789782003808]","[-1,-1,-1]","[0.19560802957915588,0.03382422495477154]","[-1,-1,-1]","[0.015381179140601144,-0.013580436369029104]","[1,1,1]","[-0.1740613226383774,-0.016884730935625734]","[-1,-1,-1]","[0.12560736679778148,0.053180323367034175]","[-1,-1,-1]","[0.17672064252210082,-0.08354667637323861]","[1,1,1]","[-0.08186625087341495,0.05381726000997567]","[1,1,1]","[0.1080218947110762,-0.019890028218342647]","[-1,-1,-1]","[0.06690100832288483,-0.13932128590106935]","[-1,-1,-1]","[0.18553005968986297,-0.03981545132347616]","[-1,-1,-1]","[0.15333809435339069,0.013306173675020681]","[-1,-1,-1]","[0.06080305107912481,0.12259755838058838]","[-1,-1,-1]","[-0.1270218800825094,0.052905199288923406]","[-1,-1,-1]","[0.02,0.02]",527.8894,0,30,30,83,1,,,,,,,
,,,,,,,5b9d57e5737d030001ad2cbf,682db4174f5d1d86fa6e0820,2025-05-21_12h08.19.763,cuing_paradigm_dot,2024.1.5,Win32,60.24096386,682d556593cb38ad0a074487,,,,,,,,,,,527.8896,528.3898,,,528.6402,529.2573,right,0.5859,,,,,,,,,0.9,,,,,,528.3898,528.6402,529.2573,"[0.13384930170194057,0.11504197119681857]","[1,1,1]","[-0.044624996900511735,-0.0068432625386596465]","[1,1,1]","[0.1045898402594649,-0.08050527270691805]","[1,1,1]","[-0.036608523765338324,-0.15368663204483793]","[1,1,1]","[-0.11664555094842555,-0.11739174522866615]","[1,1,1]","[0.18026343678762727,0.057266838808477195]","[1,1,1]","[-0.11111460512689109,-0.0677558858548134]","[-1,-1,-1]","[-0.11844421229688006,0.06680638357017446]","[1,1,1]","[0.12616027520802697,-0.1272986893259367]","[1,1,1]","[0.03160654931710891,-0.19465476277128818]","[1,1,1]","[-0.16485289333289052,-0.041974034095163315]","[1,1,1]","[0.005050551228019763,-0.10119923150939307]","[1,1,1]","[-0.11312711836636155,-0.006433903767412049]","[1,1,1]","[0.0710139257957571,0.18194406507714797]","[1,1,1]","[-0.0841553462735936,0.17327977428473082]","[1,1,1]","[-0.05026977883144326,-0.08944859524596992]","[1,1,1]","[0.12732799493679273,0.014360443720819903]","[1,1,1]","[0.1542879065928138,-0.08191498417777812]","[1,1,1]","[-0.153432242272346,-0.10077371388751304]","[1,1,1]","[0.014683214882823568,0.08776965140127918]","[1,1,1]","[-0.0014444234879302477,0.0022124088539834147]","[1,1,1]","[0.0206792522942019,-0.041308165942731595]","[1,1,1]","[0.09187898123113106,0.06521773827241803]","[1,1,1]","[0.010166527305836696,-0.15913966093800033]","[1,1,1]","[0.03924980788769897,-0.07800228723088093]","[1,1,1]","[-0.04622118881049224,0.1904628689164443]","[1,1,1]","[-0.032594250098982605,0.08988185478982234]","[1,1,1]","[0.03763101692845738,0.1250426794184483]","[-1,-1,-1]","[0.08749604534117238,-0.1477937582721183]","[1,1,1]","[0.060570899573155285,-0.00787676781713675]","[1,1,1]","[-0.1966749841240319,-0.0027854118540178575]","[-1,-1,-1]","[-0.16073673009131864,0.03720812893134695]","[1,1,1]","[0.02,0.02]",530.3581,0,31,31,186,1,,,,,,,
,,,,,,,5b9d57e5737d030001ad2cbf,682db4174f5d1d86fa6e0820,2025-05-21_12h08.19.763,cuing_paradigm_dot,2024.1.5,Win32,60.24096386,682d556593cb38ad0a074487,,,,,,,,,,,530.3583,530.8585,,,531.1088,531.6592,right,0.5173,,,,,,,,,0.55,,,,,,530.8586,531.1088,531.6593,"[-0.14209053941593924,-0.06208420850094839]","[1,1,1]","[-0.08016521973144863,-0.03979635189830482]","[1,1,1]","[0.07816671285299796,-0.0732626175369376]","[1,1,1]","[-0.14246280233343525,-0.1250636128692679]","[-1,-1,-1]","[0.01711319672678889,0.06222986491973983]","[1,1,1]","[0.004403018880853821,-0.10963001986217068]","[1,1,1]","[-0.09777925000953569,0.17258147559086418]","[-1,-1,-1]","[-0.08279017839987138,-0.10213008952402289]","[-1,-1,-1]","[-0.0836313966495958,-0.15239425668539947]","[1,1,1]","[0.06633602830325248,-0.0281098277130294]","[1,1,1]","[-0.10814690530843947,0.043947395449937754]","[1,1,1]","[-0.06013495922098047,0.15298995692497966]","[-1,-1,-1]","[-0.14779561566688645,0.08371251747686786]","[1,1,1]","[-0.041441304096631104,-0.19209765186169275]","[-1,-1,-1]","[-0.023435795799622215,-0.07624327983722175]","[1,1,1]","[0.16389087383776035,-0.08644520906782718]","[-1,-1,-1]","[0.04816592332172567,-0.13159025228450733]","[-1,-1,-1]","[0.10021860314561033,0.08433999547685357]","[-1,-1,-1]","[-0.089368983219094,0.005937623406414336]","[1,1,1]","[0.16848331514706355,0.05887470331791244]","[1,1,1]","[-0.06142581825386559,0.04467755480380003]","[-1,-1,-1]","[0.0247215634686991,-0.07218008442747927]","[-1,-1,-1]","[-0.15579162768057164,-0.014029712746971849]","[-1,-1,-1]","[0.09820710012409477,-0.12512608838913641]","[1,1,1]","[0.17680018837501377,0.004453637057107048]","[1,1,1]","[-0.04508313712667453,-0.14037970223255491]","[-1,-1,-1]","[0.06610317620769919,0.1189843959677002]","[1,1,1]","[0.03992692695397721,-0.18562290765158604]","[1,1,1]","[0.07784995069506084,0.1616275210875052]","[1,1,1]","[-0.001150649803842316,0.11793129975427366]","[1,1,1]","[-0.1482097869186626,0.13361143947630086]","[-1,-1,-1]","[0.01506803935503415,-0.005055999911325069]","[-1,-1,-1]","[0.02,0.02]",532.7601,0,32,32,143,1,,,,,,,
,,,,,,,5b9d57e5737d030001ad2cbf,682db4174f5d1d86fa6e0820,2025-05-21_12h08.19.763,cuing_paradigm_dot,2024.1.5,Win32,60.24096386,682d556593cb38ad0a074487,,,,,,,,,,,532.7603,533.2609,,,533.5108,534.1112,right,0.579,,,,,,,,,0.55,,,,,,533.2609,533.5108,534.1112,"[-0.07319183523647957,0.1270883934533856]","[-1,-1,-1]","[0.10294548198765731,0.041734003784279695]","[1,1,1]","[0.17037268131110062,0.100730255439718]","[1,1,1]","[0.1445931174254153,0.015551608557901614]","[1,1,1]","[0.12682325961782998,-0.15230034596135994]","[1,1,1]","[0.04126137212607961,0.15458946153765948]","[1,1,1]","[-0.017395706247937695,0.008488384420023608]","[1,1,1]","[0.12566699470516224,0.07639638275371981]","[1,1,1]","[0.010450010816182055,-0.16541723112594484]","[1,1,1]","[0.07970305392145095,0.10738407237928053]","[1,1,1]","[-0.11479548087358413,0.03220523459229029]","[-1,-1,-1]","[0.005973175838432563,0.058545628245695376]","[-1,-1,-1]","[-0.03794441989762043,0.18720880436466242]","[-1,-1,-1]","[-0.07422009390363682,0.002178933729546354]","[-1,-1,-1]","[-0.1599260343128819,0.04953849445532996]","[-1,-1,-1]","[0.01454436488781291,0.10606252600662704]","[1,1,1]","[-0.11217052935332877,-0.151102594148134]","[1,1,1]","[0.15888032510326786,-0.04293272362491909]","[-1,-1,-1]","[0.08528696639774311,-0.055884186739505494]","[1,1,1]","[-0.18483441378465496,-0.002975367351227669]","[-1,-1,-1]","[0.0158294784923548,0.18762251200498073]","[-1,-1,-1]","[-0.02745809630180061,-0.1862031459099978]","[1,1,1]","[-0.03919008555077117,-0.05152075187688844]","[1,1,1]","[-0.03680272989156281,0.1452461358389946]","[1,1,1]","[-0.000041419117201242287,-0.07133718995899085]","[-1,-1,-1]","[0.18203803219523912,0.0012611521582014445]","[1,1,1]","[0.06062173197251065,-0.1564624661771055]","[-1,-1,-1]","[-0.036751338749549244,0.08106135134733211]","[-1,-1,-1]","[0.07214408614505356,-0.11215569183769979]","[-1,-1,-1]","[-0.058453571884023225,-0.10171631225413795]","[-1,-1,-1]","[-0.10105128960786701,-0.060213264489877974]","[1,1,1]","[-0.0829140258822814,0.07650503054238611]","[1,1,1]","[0.02,0.02]",535.2121,0,33,33,120,1,,,,,,,
,,,,,,,5b9d57e5737d030001ad2cbf,682db4174f5d1d86fa6e0820,2025-05-21_12h08.19.763,cuing_paradigm_dot,2024.1.5,Win32,60.24096386,682d556593cb38ad0a074487,,,,,,,,,,,535.2122,535.7128,,,535.9628,536.4631,right,0.4796,,,,,,,,,0.6,,,,,,535.7128,535.9628,536.4632,"[0.034890965764984086,-0.008776049620033763]","[1,1,1]","[0.14911983968796416,0.12318782442231235]","[1,1,1]","[-0.05919890812734675,-0.16849228401602612]","[-1,-1,-1]","[0.049950590542673055,-0.09526901211627672]","[-1,-1,-1]","[-0.07044752261191566,0.07125109517493258]","[-1,-1,-1]","[0.11831451703154952,-0.13390025732606323]","[1,1,1]","[-0.041345570961782575,-0.042983510982992405]","[1,1,1]","[-0.048212750819643456,0.18980237358169183]","[-1,-1,-1]","[-0.12844322305251568,-0.050457703513474145]","[1,1,1]","[0.14654830213235406,-0.055223256605303604]","[1,1,1]","[-0.13061990970812903,-0.10101801833038444]","[1,1,1]","[0.0869770538624246,-0.02413246410141565]","[1,1,1]","[0.006675201596222649,-0.1599226473137385]","[1,1,1]","[0.06534201769616975,0.11589654740745559]","[-1,-1,-1]","[0.12026753764693855,0.010708563732943748]","[-1,-1,-1]","[-0.08018252280014602,-0.028593170055808546]","[-1,-1,-1]","[-0.13837975283008797,0.06757988986053232]","[1,1,1]","[0.09807298769477425,0.1466561369777217]","[1,1,1]","[0.11316038028027126,0.08741928416239621]","[-1,-1,-1]","[0.08660845602295712,-0.1589476026530205]","[1,1,1]","[-0.13042753517162023,0.14023878652970456]","[1,1,1]","[0.005685214946509464,0.040504123094851095]","[-1,-1,-1]","[-0.10743048398756934,0.0949222853232614]","[1,1,1]","[-0.005770292548817101,-0.012718792272521673]","[-1,-1,-1]","[0.028246918006458382,0.18925854783806556]","[1,1,1]","[0.07452381178013125,0.03408410768511488]","[1,1,1]","[0.14429240849781205,-0.09710024278295713]","[-1,-1,-1]","[-0.015175469460658148,0.12791426387093036]","[-1,-1,-1]","[0.03192877618914403,0.08164053553586108]","[1,1,1]","[0.03768435432101017,-0.19144739570572353]","[1,1,1]","[-0.044261523175250915,-0.1166613040979948]","[1,1,1]","[-0.1050868268292716,0.04357163452633912]","[-1,-1,-1]","[0.02,0.02]",537.5642,0,34,34,163,1,,,,,,,
,,,,,,,5b9d57e5737d030001ad2cbf,682db4174f5d1d86fa6e0820,2025-05-21_12h08.19.763,cuing_paradigm_dot,2024.1.5,Win32,60.24096386,682d556593cb38ad0a074487,,,,,,,,,,,537.5644,538.0646,,,538.315,538.8318,right,0.4956,,,,,,,,,0.5,,,,,,538.0646,538.315,538.8318,"[-0.16584668542309747,0.0766774337877902]","[-1,-1,-1]","[0.005470247301616145,-0.12919381877880992]","[-1,-1,-1]","[0.0940962842956705,0.14879963640112617]","[-1,-1,-1]","[0.09726424414998945,-0.14047714373301098]","[-1,-1,-1]","[-0.042514576087922425,-0.14366855759123853]","[-1,-1,-1]","[-0.11376802058783637,-0.03525882147515675]","[-1,-1,-1]","[-0.06928084077248761,0.16936501881360297]","[-1,-1,-1]","[0.02309333177819017,0.13422869154741723]","[-1,-1,-1]","[0.10847623469330338,0.019106314617672558]","[1,1,1]","[-0.10420624864481924,0.025764955528493318]","[1,1,1]","[0.09552778185290252,0.08850898175922572]","[1,1,1]","[-0.00836386946960105,0.02519486855268293]","[-1,-1,-1]","[0.16011501902873773,0.018778232786104677]","[1,1,1]","[-0.03229482458609354,-0.06741524118724726]","[1,1,1]","[0.056612050408185316,-0.18776145926472113]","[1,1,1]","[0.014120006581511746,0.19625235183229667]","[1,1,1]","[-0.06934200214616251,-0.018709494633951083]","[-1,-1,-1]","[-0.16322029380878908,0.020762950441617176]","[-1,-1,-1]","[0.023640971980046742,-0.07169409032839727]","[1,1,1]","[-0.060451699746650996,0.06904161927750967]","[1,1,1]","[-0.1514464120519792,-0.018205343706804735]","[1,1,1]","[0.08549526785978932,-0.017593870443358535]","[-1,-1,-1]","[-0.024408179674274617,-0.020234600608449848]","[1,1,1]","[0.025576557763949775,-0.016909676569405407]","[1,1,1]","[0.05100828688960074,-0.10223628165034987]","[-1,-1,-1]","[0.1764181236512881,-0.05291959038420723]","[1,1,1]","[0.0063046002504382566,0.08497236279095789]","[1,1,1]","[-0.1235700527747907,-0.10225365621258556]","[1,1,1]","[-0.056559301562982174,0.1119176679752291]","[1,1,1]","[0.13526263514441242,0.12964570671940054]","[-1,-1,-1]","[-0.13391131634240472,0.10836052844611582]","[-1,-1,-1]","[0.0392309122758015,0.040033490306509954]","[-1,-1,-1]","[0.02,0.02]",539.9326,0,35,35,94,1,,,,,,,
,,,,,,,5b9d57e5737d030001ad2cbf,682db4174f5d1d86fa6e0820,2025-05-21_12h08.19.763,cuing_paradigm_dot,2024.1.5,Win32,60.24096386,682d556593cb38ad0a074487,,,,,,,,,,,539.9328,540.433,,,540.6833,541.4339,left,0.7187,,,,,,,,,0.1,,,,,,540.4331,540.6833,541.4339,"[0.02300058312451267,0.1208120722895208]","[-1,-1,-1]","[-0.026460223082885988,-0.05045817185747519]","[-1,-1,-1]","[-0.03331997315930922,0.17407297518925116]","[-1,-1,-1]","[-0.15623787586284302,-0.08726078564560596]","[-1,-1,-1]","[0.16963596105606515,-0.07013281410473789]","[-1,-1,-1]","[0.058612169728892036,0.07442695296960837]","[-1,-1,-1]","[-0.15782263879216732,-0.02486854962701466]","[-1,-1,-1]","[-0.1198461152843637,0.05667538440291704]","[-1,-1,-1]","[0.017273885338824846,-0.13321454600415733]","[-1,-1,-1]","[0.0944362613329261,-0.008165430462792543]","[-1,-1,-1]","[-0.1197791166807434,0.1238580766218927]","[1,1,1]","[0.12910687025062711,0.0514570227484416]","[1,1,1]","[-0.14394748972327287,-0.13184876016570554]","[-1,-1,-1]","[0.104901684063029,0.13466431434089113]","[-1,-1,-1]","[0.16258829500797606,0.026172507359694223]","[-1,-1,-1]","[0.08167278739016133,-0.10670980494105115]","[-1,-1,-1]","[-0.0324480949257706,-0.17030668629916645]","[-1,-1,-1]","[-0.09348966806097098,-0.08883295832866699]","[-1,-1,-1]","[-0.05747212753481013,-0.018555850880255055]","[-1,-1,-1]","[0.12232526713167062,-0.07183651605897522]","[-1,-1,-1]","[-0.12869609819264255,-0.053001394347842415]","[-1,-1,-1]","[-0.026834622550246153,0.058875707118595015]","[-1,-1,-1]","[0.1644030949156894,-0.015746790597307866]","[-1,-1,-1]","[-0.06838136648255463,-0.13009938981938915]","[-1,-1,-1]","[-0.040508069388467974,0.12124165280243702]","[-1,-1,-1]","[0.01720491299723358,-0.013651931686554307]","[1,1,1]","[0.0477517495585562,0.016396727768979172]","[-1,-1,-1]","[0.017907875176636282,0.06739685878546423]","[-1,-1,-1]","[0.14593703321942833,-0.12012986094445527]","[-1,-1,-1]","[-0.09557481846551184,-0.004795653326198529]","[-1,-1,-1]","[0.07700619494716272,-0.05935078210604947]","[-1,-1,-1]","[-0.0789309465632413,0.04177805774861962]","[-1,-1,-1]","[0.02,0.02]",542.5351,0,36,36,10,1,,,,,,,
,,,,,,,5b9d57e5737d030001ad2cbf,682db4174f5d1d86fa6e0820,2025-05-21_12h08.19.763,cuing_paradigm_dot,2024.1.5,Win32,60.24096386,682d556593cb38ad0a074487,,,,,,,,,,,542.5352,543.0352,,,543.2854,544.0695,left,0.757,,,,,,,,,0.4,,,,,,543.0352,543.2854,544.0695,"[-0.013783894889926773,-0.11510513305465296]","[1,1,1]","[0.18904497980548046,0.0185836158965021]","[-1,-1,-1]","[0.06946571949567942,0.01571403715003142]","[-1,-1,-1]","[-0.06644185856623577,0.17141867294529045]","[-1,-1,-1]","[0.029027487550833928,0.021452128173607744]","[-1,-1,-1]","[0.10831772968215184,0.14375198917139548]","[1,1,1]","[-0.04710573431523848,0.0356356608851297]","[-1,-1,-1]","[0.06064690147638496,0.170156009369728]","[-1,-1,-1]","[-0.13105460751074846,0.12866571160517698]","[-1,-1,-1]","[0.07763716403691419,-0.14825474156521634]","[1,1,1]","[0.040832047157922914,0.08077117652378428]","[-1,-1,-1]","[0.04494824769814219,-0.11442277879519407]","[-1,-1,-1]","[-0.04815898945185907,0.09863903708451739]","[-1,-1,-1]","[0.13030138837936758,-0.035039708749684914]","[1,1,1]","[0.10365819864040297,-0.09456511452358823]","[-1,-1,-1]","[-0.16791121816877633,0.019551460918643838]","[1,1,1]","[-0.021515447404274975,-0.014781715762000706]","[-1,-1,-1]","[-0.0034293177289008315,-0.17487170481547884]","[-1,-1,-1]","[-0.07548689713156907,-0.04899285711538387]","[1,1,1]","[-0.10696678877625714,0.06077443139802083]","[1,1,1]","[0.12042248523354082,0.07300956672647019]","[-1,-1,-1]","[-0.07565646319514364,-0.15792595970972106]","[1,1,1]","[0.014052014169315924,0.16484250725525096]","[-1,-1,-1]","[0.19415836562452948,-0.02240498903149659]","[-1,-1,-1]","[-0.025531967072943716,0.1921447967835835]","[1,1,1]","[-0.07835745110845306,-0.0945972805352524]","[-1,-1,-1]","[0.15150252410580714,0.12385790316625626]","[1,1,1]","[-0.12980539306011146,-0.04328869232555564]","[1,1,1]","[-0.16854751202835996,-0.05612179847507398]","[-1,-1,-1]","[0.1436664281329394,-0.0853036454499978]","[1,1,1]","[0.05956308599588097,-0.038560367607013375]","[-1,-1,-1]","[-0.16749795536002385,-0.10926674088891009]","[1,1,1]","[0.02,0.02]",545.1703,0,37,37,58,1,,,,,,,
,,,,,,,5b9d57e5737d030001ad2cbf,682db4174f5d1d86fa6e0820,2025-05-21_12h08.19.763,cuing_paradigm_dot,2024.1.5,Win32,60.24096386,682d556593cb38ad0a074487,,,,,,,,,,,545.1705,545.6707,,,545.921,546.8216,right,0.8741,,,,,,,,,0.55,,,,,,545.6707,545.921,546.8216,"[-0.008822288287594154,-0.08512808994337122]","[-1,-1,-1]","[-0.04362672269029574,0.1783467598394685]","[-1,-1,-1]","[0.0254642680007744,0.05975960557433098]","[1,1,1]","[-0.05017525489633726,-0.15877338207502012]","[1,1,1]","[0.021370024119986085,0.17628901476588732]","[-1,-1,-1]","[-0.12766008647539456,0.10272031505823603]","[-1,-1,-1]","[0.016582042927774588,-0.18422243649678594]","[-1,-1,-1]","[0.08940965533543163,0.09578487753439957]","[1,1,1]","[0.027707009497000525,-0.00220480374449711]","[1,1,1]","[0.10662159394350763,0.13949212377115974]","[1,1,1]","[0.02707518576029892,-0.107263347713504]","[1,1,1]","[-0.10402886135110667,-0.048493977788143676]","[-1,-1,-1]","[-0.045645143364937545,-0.006831615056640881]","[1,1,1]","[0.12099575119149349,-0.07979511956514591]","[1,1,1]","[0.055006030202375954,0.14889414615388918]","[1,1,1]","[-0.15843591281739966,-0.0451169334068126]","[1,1,1]","[-0.004211759530205321,0.09094626651698935]","[1,1,1]","[0.14750111491770856,0.11495117142257788]","[-1,-1,-1]","[-0.16092175582891483,-0.0020875746830859142]","[-1,-1,-1]","[0.16483728770923928,0.05804136992315606]","[1,1,1]","[0.09662668231735806,0.022297774854344657]","[1,1,1]","[-0.14846734975780393,-0.1252978432088942]","[-1,-1,-1]","[0.15963515139917425,-0.017692908452717454]","[1,1,1]","[0.14905343940612573,-0.11945276131399696]","[-1,-1,-1]","[0.033932788485559987,-0.1476819920207821]","[-1,-1,-1]","[-0.0536029238906833,0.08158542024942224]","[1,1,1]","[-0.1949645446946164,0.027886646825218145]","[1,1,1]","[-0.0940640188365462,0.1516304135624993]","[-1,-1,-1]","[-0.09975679375400952,0.027888704649710893]","[1,1,1]","[-0.1131940906605994,-0.1059026326285947]","[-1,-1,-1]","[-0.04953810488253595,0.13765644403527041]","[1,1,1]","[-0.1413791782147094,0.06100884426424868]","[-1,-1,-1]","[0.02,0.02]",547.9227,0,38,38,132,1,,,,,,,
,,,,,,,5b9d57e5737d030001ad2cbf,682db4174f5d1d86fa6e0820,2025-05-21_12h08.19.763,cuing_paradigm_dot,2024.1.5,Win32,60.24096386,682d556593cb38ad0a074487,,,,,,,,,,,547.9229,548.4229,,,548.6732,549.4571,left,0.7624,,,,,,,,,0.4,,,,,,548.4229,548.6732,549.4571,"[-0.07345438471760543,0.029090931743911874]","[-1,-1,-1]","[-0.022064070863245144,-0.12285973214941635]","[1,1,1]","[0.003658320922404782,0.14496069018282812]","[-1,-1,-1]","[-0.05184249217011171,0.10536543332808901]","[-1,-1,-1]","[0.04378932530349322,-0.05070034403915569]","[1,1,1]","[0.17099348431804315,-0.08958241373542249]","[-1,-1,-1]","[-0.18626098496049212,0.008857971888737291]","[1,1,1]","[-0.12063955821780936,-0.012180892772780151]","[1,1,1]","[-0.18388725464809397,-0.042943811086426927]","[1,1,1]","[-0.16600701456409458,-0.0930204382574642]","[1,1,1]","[-0.11539072074120628,0.09782231934991581]","[-1,-1,-1]","[0.011883808857928656,-0.1677856761404708]","[-1,-1,-1]","[0.04178877390943751,0.1111165588116352]","[-1,-1,-1]","[0.15347193022807445,-0.03752040455714036]","[-1,-1,-1]","[0.08272123554832615,0.09042993479158988]","[1,1,1]","[0.08967864736992961,-0.009794645026603849]","[-1,-1,-1]","[0.05169013558992476,-0.17598360591822673]","[-1,-1,-1]","[-0.09058301805878805,0.17430103609810596]","[-1,-1,-1]","[-0.03428779802164224,0.18391103852694837]","[-1,-1,-1]","[-0.10743445399361196,-0.1661253025596015]","[-1,-1,-1]","[0.07813917847615946,0.03759694084678065]","[-1,-1,-1]","[0.11684755797039684,-0.07335005623570554]","[1,1,1]","[0.0038048681818393824,-0.08334788221515567]","[1,1,1]","[-0.03698064627938382,-0.027842001409429377]","[1,1,1]","[-0.12640290894981474,0.13886295672201787]","[-1,-1,-1]","[0.183639285320718,0.05321559872697691]","[1,1,1]","[-0.11051856390201371,-0.10137326598828138]","[1,1,1]","[0.051711636116302515,-0.09066229871611751]","[-1,-1,-1]","[-0.08026944203797817,-0.07294366844410408]","[-1,-1,-1]","[0.053916141173038314,-0.13414368010082867]","[-1,-1,-1]","[0.016303301787953313,-0.011595889022241491]","[1,1,1]","[0.03411388001781205,0.04133634932591881]","[-1,-1,-1]","[0.02,0.02]",550.5583,0,39,39,43,1,,,,,,,
,,,,,,,5b9d57e5737d030001ad2cbf,682db4174f5d1d86fa6e0820,2025-05-21_12h08.19.763,cuing_paradigm_dot,2024.1.5,Win32,60.24096386,682d556593cb38ad0a074487,,,,,,,,,,,550.5585,551.0586,,,551.3086,552.0593,left,0.7174,,,,,,,,,0.1,,,,,,551.0586,551.3086,552.0593,"[0.16800179494182899,-0.06683676278314218]","[-1,-1,-1]","[0.01912566978056168,0.16391590039908555]","[-1,-1,-1]","[0.004671588775574627,0.03579949754953568]","[-1,-1,-1]","[-0.07540457796409512,-0.1271048346586437]","[-1,-1,-1]","[0.04313499320890483,0.07493716335729876]","[-1,-1,-1]","[0.03710897715927125,-0.05578335987190012]","[-1,-1,-1]","[0.07035470757924893,-0.09686415680055899]","[-1,-1,-1]","[-0.05794589092881735,0.13419763569844195]","[1,1,1]","[0.12703405869136133,-0.08659109749538925]","[-1,-1,-1]","[-0.04248741033835336,0.08639150103984229]","[-1,-1,-1]","[-0.049537383372941196,-0.008319535361872684]","[1,1,1]","[-0.053070619519644625,-0.17282640700193722]","[-1,-1,-1]","[-0.08307481237643223,0.04708235272628524]","[-1,-1,-1]","[0.03799261542886071,-0.1484140110644173]","[-1,-1,-1]","[0.06670951160506663,0.1550094943560428]","[-1,-1,-1]","[0.07103767177040399,0.011065541390340272]","[-1,-1,-1]","[0.004850763444318838,0.08816197559321848]","[-1,-1,-1]","[0.13343618465916737,0.11191658700214527]","[-1,-1,-1]","[0.0845416841434098,-0.028201644258152695]","[-1,-1,-1]","[0.17951376025612947,0.0777725297799579]","[-1,-1,-1]","[0.10685289005411863,0.0348953697510968]","[-1,-1,-1]","[-0.03820223892811953,0.17195378556572433]","[-1,-1,-1]","[-0.15453027139035724,0.0028594045973016013]","[-1,-1,-1]","[-0.12726055369642364,0.08508985396563193]","[-1,-1,-1]","[0.13226305686213483,-0.009543683841355314]","[-1,-1,-1]","[-0.12157613887519539,-0.04399648790393931]","[-1,-1,-1]","[-0.16796365021253373,-0.0997240872764659]","[-1,-1,-1]","[-0.11764335574106928,-0.1429596237364202]","[-1,-1,-1]","[0.0164831125930907,-0.19386174748234222]","[-1,-1,-1]","[-0.012030024181200022,-0.1161153982945743]","[1,1,1]","[0.124924762936149,0.0723988917966819]","[-1,-1,-1]","[-0.1946096029017383,0.018161867849227704]","[-1,-1,-1]","[0.02,0.02]",553.1604,0,40,40,23,1,,,,,,,
,,,,,,,5b9d57e5737d030001ad2cbf,682db4174f5d1d86fa6e0820,2025-05-21_12h08.19.763,cuing_paradigm_dot,2024.1.5,Win32,60.24096386,682d556593cb38ad0a074487,,,,,,,,,,,553.1606,553.6605,,,553.9112,554.5613,left,0.6274,,,,,,,,,0.5,,,,,,553.6605,553.9112,554.5613,"[0.09657158711445253,0.05486151776383673]","[1,1,1]","[0.1579241065050939,0.008271428339528548]","[-1,-1,-1]","[-0.14357271041401903,-0.059252561331230844]","[-1,-1,-1]","[0.14812127793236343,0.13365685129454363]","[-1,-1,-1]","[-0.17896564548835353,0.03067972451902169]","[-1,-1,-1]","[-0.10683862614584407,-0.11844293252445713]","[1,1,1]","[-0.10360280736471898,-0.03831097159978452]","[-1,-1,-1]","[-0.05616962111810265,0.16070202552726345]","[1,1,1]","[0.04294858015520042,0.08955238453033716]","[1,1,1]","[0.0541147054491212,-0.18395509294550635]","[-1,-1,-1]","[0.16433919197558985,-0.05644724586034482]","[-1,-1,-1]","[0.010767670579175178,0.04294574128467668]","[-1,-1,-1]","[-0.1182736690919506,0.10600474148089124]","[-1,-1,-1]","[-0.04479986909781748,-0.034888118310488034]","[1,1,1]","[-0.13191562736101484,0.0007062239786553904]","[-1,-1,-1]","[-0.04781635035872982,0.08207954441536117]","[-1,-1,-1]","[0.04835547909166667,-0.0654030966500311]","[1,1,1]","[0.08162934035787293,-0.013054056988053698]","[1,1,1]","[-0.0005638329207957737,-0.1242340232026342]","[-1,-1,-1]","[0.07061322177852623,-0.10822846299574448]","[-1,-1,-1]","[0.10705534595238485,-0.14544635568408967]","[1,1,1]","[0.09585182682619264,0.17256902903023594]","[1,1,1]","[0.09708558748904997,0.11180811808828184]","[1,1,1]","[-0.028799114507494093,-0.09389924075639748]","[-1,-1,-1]","[-0.011206465831168905,0.12707812411000682]","[1,1,1]","[-0.0871068397746096,0.027570104239359502]","[1,1,1]","[0.19544269456000038,0.03952153143542052]","[1,1,1]","[-0.04170992973875,-0.17935392866721112]","[1,1,1]","[-0.1503376089852719,0.06630868759677663]","[-1,-1,-1]","[0.11323629060508571,-0.046736237238532506]","[-1,-1,-1]","[-0.010109283623996152,0.19238845240129102]","[1,1,1]","[0.03852863380733884,0.13086901387826125]","[1,1,1]","[0.02,0.02]",555.6622,0,41,41,99,1,,,,,,,
,,,,,,,5b9d57e5737d030001ad2cbf,682db4174f5d1d86fa6e0820,2025-05-21_12h08.19.763,cuing_paradigm_dot,2024.1.5,Win32,60.24096386,682d556593cb38ad0a074487,,,,,,,,,,,555.6624,556.1626,,,556.4129,557.0967,left,0.6532,,,,,,,,,0.6,,,,,,556.1626,556.4128,557.0967,"[-0.09126327052492092,0.01967450822760645]","[1,1,1]","[-0.03159982115631646,-0.15191012779045393]","[1,1,1]","[0.02433679782077163,0.10216414759190245]","[-1,-1,-1]","[-0.018530718361848803,0.009750932003626709]","[1,1,1]","[0.12533612928682233,-0.0852757010898153]","[1,1,1]","[-0.16494038899833782,0.003799335427198452]","[-1,-1,-1]","[0.022265898068338664,-0.0922236836050697]","[1,1,1]","[0.03127889358364079,0.04769640648248544]","[-1,-1,-1]","[-0.1351186485415847,-0.06149351223747418]","[-1,-1,-1]","[-0.11626439579720821,-0.1584264710636735]","[-1,-1,-1]","[-0.17477762441430134,0.06756911951070489]","[1,1,1]","[0.07416505811910996,0.025924333655111046]","[1,1,1]","[-0.020052676170481575,0.11815422975034617]","[-1,-1,-1]","[-0.001015979626662353,0.18826082661525886]","[-1,-1,-1]","[-0.17448381359826237,-0.04423246689348135]","[1,1,1]","[0.19291655899474033,-0.05137305441715457]","[-1,-1,-1]","[-0.09776013560837725,-0.039687738143537696]","[-1,-1,-1]","[0.025172068935673097,-0.0026606669255913027]","[-1,-1,-1]","[-0.14514672292694208,-0.1017418204047481]","[-1,-1,-1]","[0.007257747335226876,-0.16921440424638082]","[1,1,1]","[-0.07712767347243787,-0.11963430247612354]","[1,1,1]","[0.14541902538875265,-0.007433538552316785]","[-1,-1,-1]","[0.06287888708218042,0.18182135030711924]","[1,1,1]","[0.09352617367592289,-0.1281071199375771]","[1,1,1]","[0.10032162776183375,0.07679226337041074]","[1,1,1]","[0.09513306030771994,-0.03068417845827778]","[1,1,1]","[-0.05665106002728148,-0.03802146062510864]","[-1,-1,-1]","[0.16186554610840018,0.11150581573396014]","[1,1,1]","[-0.09123298521367415,0.07025768371127722]","[1,1,1]","[0.06662570869695257,0.11061178864669265]","[1,1,1]","[0.062363134226218885,-0.10058996879414406]","[1,1,1]","[-0.13154230716638773,0.11357052001154129]","[1,1,1]","[0.02,0.02]",558.1976,0,42,42,159,1,,,,,,,
,,,,,,,5b9d57e5737d030001ad2cbf,682db4174f5d1d86fa6e0820,2025-05-21_12h08.19.763,cuing_paradigm_dot,2024.1.5,Win32,60.24096386,682d556593cb38ad0a074487,,,,,,,,,,,558.1978,558.698,,,558.9485,559.5489,left,0.5672,,,,,,,,,0.5,,,,,,558.698,558.9485,559.5489,"[-0.09033873631135725,-0.1551394254458348]","[-1,-1,-1]","[0.046838471625887355,0.18133727525239118]","[1,1,1]","[-0.06116118934843192,0.01585764598202713]","[-1,-1,-1]","[-0.05578058537033795,0.12976312378606392]","[1,1,1]","[0.021389121601586018,0.004496758642797506]","[-1,-1,-1]","[-0.08691899275479374,-0.06299640081215356]","[-1,-1,-1]","[0.07764214398329555,0.06704572420513175]","[1,1,1]","[-0.06186856771266988,0.17833748654956444]","[1,1,1]","[0.13036885755450997,0.003970539238658148]","[1,1,1]","[-0.14648431847524265,-0.0018236674948562844]","[1,1,1]","[0.07581743112940742,0.12655287755013206]","[1,1,1]","[0.00743716198081615,-0.1158402028988187]","[1,1,1]","[0.13964800423391138,0.13490388745033652]","[1,1,1]","[0.11653082997675107,-0.08994205850356375]","[-1,-1,-1]","[-0.08739961548307432,-0.10802085544335545]","[1,1,1]","[0.08312193429373049,-0.025514835619823244]","[-1,-1,-1]","[0.014627285902110914,0.08905774075763802]","[1,1,1]","[0.07167270696994617,-0.09074941964869652]","[-1,-1,-1]","[-0.023927666314317086,0.19446658195093328]","[1,1,1]","[-0.020097398128995636,-0.08267775365255801]","[-1,-1,-1]","[-0.1499456706850121,-0.1213157724561802]","[1,1,1]","[0.1929926695666137,-0.012900290942985794]","[1,1,1]","[0.14566850524277916,0.05062146122391376]","[-1,-1,-1]","[-0.18487617168402942,0.049482333316926516]","[-1,-1,-1]","[0.03667648306541321,-0.16113177223108982]","[-1,-1,-1]","[-0.08274456889052095,0.08471010703340548]","[-1,-1,-1]","[0.1573914797523979,0.08957687402469103]","[-1,-1,-1]","[-0.028244469677994315,-0.015354165908691346]","[1,1,1]","[-0.11217282237374583,0.1371878227492377]","[1,1,1]","[-0.1961507671359314,0.0010776788809577305]","[-1,-1,-1]","[-0.059231716980204255,-0.18870860698628117]","[-1,-1,-1]","[-0.1032487122435666,0.021527414831790125]","[-1,-1,-1]","[0.02,0.02]",560.6495,0,43,43,112,1,,,,,,,
,,,,,,,5b9d57e5737d030001ad2cbf,682db4174f5d1d86fa6e0820,2025-05-21_12h08.19.763,cuing_paradigm_dot,2024.1.5,Win32,60.24096386,682d556593cb38ad0a074487,,,,,,,,,,,560.6497,561.15,,,561.4003,562.1008,left,0.6738,,,,,,,,,0.5,,,,,,561.15,561.4003,562.1008,"[0.16007504394548963,0.04336901948225848]","[1,1,1]","[-0.10813867934230573,0.046264579845374694]","[-1,-1,-1]","[-0.08865083881254379,0.006456767579946694]","[1,1,1]","[-0.00427967934925692,-0.07870991780824887]","[-1,-1,-1]","[0.13400008677925146,0.10799547553793007]","[-1,-1,-1]","[-0.047047992718745706,-0.17908120792357046]","[1,1,1]","[-0.04405489729906537,-0.13210661392903492]","[-1,-1,-1]","[0.01354191353299459,0.14824426173768157]","[-1,-1,-1]","[-0.11811499902339603,-0.13766889683374786]","[1,1,1]","[0.10465435346743836,-0.10504200126652054]","[1,1,1]","[-0.16624501232361863,0.10904692252828553]","[-1,-1,-1]","[0.11161449706711947,-0.013128973413744935]","[1,1,1]","[-0.019178392244931886,0.03599652056098387]","[1,1,1]","[-0.09551438149405891,0.15310976520478164]","[1,1,1]","[-0.17196488661523698,-0.08790307049567896]","[1,1,1]","[-0.13433146789794684,-0.031092958916218633]","[-1,-1,-1]","[0.16444786124420235,-0.05743160113481267]","[-1,-1,-1]","[-0.053597015965382855,0.1787107220665201]","[-1,-1,-1]","[0.07663611726656788,-0.13848940263084508]","[-1,-1,-1]","[0.004936971971746179,-0.038346210533060664]","[1,1,1]","[-0.03434789141577473,0.08440866562664884]","[1,1,1]","[0.055326564642384016,0.03610245525346028]","[1,1,1]","[-0.18421400900801346,0.06998309728741622]","[-1,-1,-1]","[0.07803199775599255,0.10927491460992964]","[-1,-1,-1]","[0.04259717690787704,-0.11387243101455333]","[1,1,1]","[0.11182776311777619,0.14230934839934925]","[-1,-1,-1]","[0.1570231265021834,-0.11289698659402161]","[-1,-1,-1]","[-0.13496242955097798,0.13843226572364978]","[-1,-1,-1]","[-0.05386663313963241,-0.03906022993161282]","[-1,-1,-1]","[-0.09718450575301646,-0.07720837076152902]","[1,1,1]","[-0.15174565706761206,0.03201236170626208]","[1,1,1]","[0.0671410847087713,-0.18223332482879626]","[1,1,1]","[0.02,0.02]",563.2019,0,44,44,103,1,,,,,,,
