right,left,explain.started,explain.stopped,key_resp_3.keys,key_resp_3.rt,key_resp_3.duration,participant,session,date,expName,psychopyVersion,OS,frameRate,study_id,explain_2.started,explain_2.stopped,key_resp_4.keys,key_resp_4.rt,key_resp_4.duration,explain_3.started,explain_3.stopped,key_resp_5.keys,key_resp_5.rt,key_resp_5.duration,fixation.started,fixation.stopped,practice.started,practice.stopped,response.started,response.stopped,key_resp.keys,key_resp.rt,key_resp.duration,feedback.started,feedback.stopped,trials_2.thisRepN,trials_2.thisTrialN,trials_2.thisN,trials_2.thisIndex,trials_2.ran,white_ratio,explain_4.started,explain_4.stopped,key_resp_6.keys,key_resp_6.rt,key_resp_6.duration,dotDisplay.started,dotDisplay.stopped,ITI.started,polygon_1.pos,polygon_1.color,polygon_2.pos,polygon_2.color,polygon_3.pos,polygon_3.color,polygon_4.pos,polygon_4.color,polygon_5.pos,polygon_5.color,polygon_6.pos,polygon_6.color,polygon_7.pos,polygon_7.color,polygon_8.pos,polygon_8.color,polygon_9.pos,polygon_9.color,polygon_10.pos,polygon_10.color,polygon_11.pos,polygon_11.color,polygon_12.pos,polygon_12.color,polygon_13.pos,polygon_13.color,polygon_14.pos,polygon_14.color,polygon_15.pos,polygon_15.color,polygon_16.pos,polygon_16.color,polygon_17.pos,polygon_17.color,polygon_18.pos,polygon_18.color,polygon_19.pos,polygon_19.color,polygon_20.pos,polygon_20.color,polygon_21.pos,polygon_21.color,polygon_22.pos,polygon_22.color,polygon_23.pos,polygon_23.color,polygon_24.pos,polygon_24.color,polygon_25.pos,polygon_25.color,polygon_26.pos,polygon_26.color,polygon_27.pos,polygon_27.color,polygon_28.pos,polygon_28.color,polygon_29.pos,polygon_29.color,polygon_30.pos,polygon_30.color,polygon_31.pos,polygon_31.color,polygon_32.pos,polygon_32.color,dot_size,ITI.stopped,trials.thisRepN,trials.thisTrialN,trials.thisN,trials.thisIndex,trials.ran,break_2.started,break_2.stopped,trials_3.thisRepN,trials_3.thisTrialN,trials_3.thisN,trials_3.thisIndex,trials_3.ran
subject chose white,subject chose black,0,58.338,space,43.306,,5be2172e8a2c800001624f31,682db47c39ca23204937ef1e,2025-05-21_13h14.17.413,cuing_paradigm_dot,2024.1.5,Win32,59.95203837,682d556593cb38ad0a074487,,,,,,,,,,,,,,,,,,,,,,,,,,,,,,,,,,,,,,,,,,,,,,,,,,,,,,,,,,,,,,,,,,,,,,,,,,,,,,,,,,,,,,,,,,,,,,,,,,,,,,,,,,,,,,,,,
,,,,,,,5be2172e8a2c800001624f31,682db47c39ca23204937ef1e,2025-05-21_13h14.17.413,cuing_paradigm_dot,2024.1.5,Win32,59.95203837,682d556593cb38ad0a074487,58.338,107.013,space,18.653,,,,,,,,,,,,,,,,,,,,,,,,,,,,,,,,,,,,,,,,,,,,,,,,,,,,,,,,,,,,,,,,,,,,,,,,,,,,,,,,,,,,,,,,,,,,,,,,,,,,,,,,,,,,,
,,,,,,,5be2172e8a2c800001624f31,682db47c39ca23204937ef1e,2025-05-21_13h14.17.413,cuing_paradigm_dot,2024.1.5,Win32,59.95203837,682d556593cb38ad0a074487,,,,,,107.013,118.795,space,8.767,,,,,,,,,,,,,,,,,,,,,,,,,,,,,,,,,,,,,,,,,,,,,,,,,,,,,,,,,,,,,,,,,,,,,,,,,,,,,,,,,,,,,,,,,,,,,,,,,,,,,,,,
,,,,,,,5be2172e8a2c800001624f31,682db47c39ca23204937ef1e,2025-05-21_13h14.17.413,cuing_paradigm_dot,2024.1.5,Win32,59.95203837,682d556593cb38ad0a074487,,,,,,,,,,,118.82,119.308,119.308,119.562,119.563,120.394,left,0.779,,120.394,121.492,0,0,0,1,1,0.2,,,,,,,,,,,,,,,,,,,,,,,,,,,,,,,,,,,,,,,,,,,,,,,,,,,,,,,,,,,,,,,,,,,,,,,,,,,,,,,,,,,,,,
,,,,,,,5be2172e8a2c800001624f31,682db47c39ca23204937ef1e,2025-05-21_13h14.17.413,cuing_paradigm_dot,2024.1.5,Win32,59.95203837,682d556593cb38ad0a074487,,,,,,,,,,,121.493,121.992,121.992,122.245,122.245,122.852,right,0.598,,122.852,123.944,0,1,1,0,1,0.8,,,,,,,,,,,,,,,,,,,,,,,,,,,,,,,,,,,,,,,,,,,,,,,,,,,,,,,,,,,,,,,,,,,,,,,,,,,,,,,,,,,,,,
,,,,,,,5be2172e8a2c800001624f31,682db47c39ca23204937ef1e,2025-05-21_13h14.17.413,cuing_paradigm_dot,2024.1.5,Win32,59.95203837,682d556593cb38ad0a074487,,,,,,,,,,,,,,,,,,,,,,,,,,,,123.944,130.979,space,4.011,,,,,,,,,,,,,,,,,,,,,,,,,,,,,,,,,,,,,,,,,,,,,,,,,,,,,,,,,,,,,,,,,,,,,,,,,,,,,,,,,,
,,,,,,,5be2172e8a2c800001624f31,682db47c39ca23204937ef1e,2025-05-21_13h14.17.413,cuing_paradigm_dot,2024.1.5,Win32,59.95203837,682d556593cb38ad0a074487,,,,,,,,,,,131.008,131.492,,,131.746,132.509,right,0.753,,,,,,,,,0.9,,,,,,131.492,131.746,132.509,"[0.09860285665955205,-0.1487749660649749]","[1,1,1]","[0.1850254578108851,-0.024762399260734938]","[1,1,1]","[-0.08575215731805208,0.05560543536976057]","[1,1,1]","[0.07558368584476358,0.1421585758354447]","[1,1,1]","[0.011935151738780523,0.039826633407675366]","[1,1,1]","[-0.015528295726463196,-0.16085770795868057]","[1,1,1]","[0.1315858339606735,0.0861044469242302]","[1,1,1]","[0.03623207122617831,0.07460493044737165]","[1,1,1]","[0.00031509793511292554,0.09483249191821079]","[-1,-1,-1]","[-0.15656321661154518,0.037323631095085484]","[1,1,1]","[0.16107512388410083,-0.0751220589694247]","[1,1,1]","[-0.04906420895271986,0.16648371962123107]","[1,1,1]","[0.0983646359690639,0.003171009383247927]","[1,1,1]","[-0.1512139919739803,0.12459804679266989]","[1,1,1]","[-0.0660893019372479,-0.05712962110882118]","[-1,-1,-1]","[-0.08794617422417986,-0.14105017877900228]","[1,1,1]","[-0.1265217219240958,-0.09818476794269422]","[1,1,1]","[0.0050053275635005825,0.15104236957543524]","[1,1,1]","[-0.02085524587781748,-0.0032256627401529036]","[1,1,1]","[0.17992243019059112,0.086322399829604]","[1,1,1]","[0.02402752880207834,-0.05691543926141974]","[1,1,1]","[-0.03556683623362248,0.11722739565704915]","[1,1,1]","[0.08225708797374603,-0.06994790368330195]","[-1,-1,-1]","[0.19371677124948053,0.03467570529008606]","[1,1,1]","[-0.09690868967394267,0.1501090670593831]","[1,1,1]","[-0.044327003361337734,-0.1290806937601918]","[1,1,1]","[0.15202640110448565,0.0055719789154432655]","[1,1,1]","[-0.19611127763946354,-0.017232049548404668]","[1,1,1]","[-0.11164253494192916,-0.009151173481814118]","[1,1,1]","[0.08778357905495654,0.1038790703909139]","[1,1,1]","[0.04787685749439352,-0.14409523108910857]","[1,1,1]","[-0.0036910222667484558,0.19497992882736132]","[1,1,1]","[0.02,0.02]",133.611,0,0,0,184,1,,,,,,,
,,,,,,,5be2172e8a2c800001624f31,682db47c39ca23204937ef1e,2025-05-21_13h14.17.413,cuing_paradigm_dot,2024.1.5,Win32,59.95203837,682d556593cb38ad0a074487,,,,,,,,,,,133.612,134.108,,,134.36,134.861,right,0.482,,,,,,,,,0.9,,,,,,134.109,134.36,134.861,"[0.13129964096726765,0.14997428708729255]","[1,1,1]","[0.16458088877681598,0.10936878061471814]","[1,1,1]","[0.12373608510435509,0.055794243962737945]","[1,1,1]","[0.050108179907321866,0.08577314101176223]","[1,1,1]","[-0.12195100732378451,-0.0554646328997116]","[1,1,1]","[0.054981455623767765,-0.105675793978478]","[1,1,1]","[0.023565892016905177,-0.07903995641743976]","[1,1,1]","[0.08154889462876543,-0.05432712912861018]","[1,1,1]","[0.007701293834757312,-0.03950746363674009]","[1,1,1]","[0.16632983232724755,-0.00830262494395868]","[1,1,1]","[-0.0737074948360394,-0.07852110149295025]","[1,1,1]","[-0.04350784883527135,0.10862813956944543]","[1,1,1]","[0.03305780387124895,0.15318457470804608]","[1,1,1]","[-0.04340720415774967,0.009682222092673573]","[1,1,1]","[0.033698812118947305,0.04495843960796363]","[-1,-1,-1]","[0.01763431808320097,-0.15218142191611755]","[1,1,1]","[0.11134398282469354,-0.1249800772154085]","[1,1,1]","[-0.17832018084527396,0.08116960910632814]","[1,1,1]","[-0.14082225586487773,0.06070938700750287]","[1,1,1]","[0.0997051392105619,0.0957856822525556]","[1,1,1]","[-0.18839335993292108,-0.0665084709159145]","[1,1,1]","[-0.10934836631110996,0.00763304462615078]","[-1,-1,-1]","[-0.08908632679076355,-0.029489785385102846]","[-1,-1,-1]","[-0.12050784622478725,-0.1424836122134937]","[1,1,1]","[-0.027751096274927025,0.15167833247418788]","[1,1,1]","[0.006563895417522471,0.1911504360938815]","[1,1,1]","[-0.02135832127761877,-0.13370449421305133]","[1,1,1]","[-0.14349421044181376,0.11288070139175839]","[1,1,1]","[-0.038909330920847876,-0.05312584281604701]","[1,1,1]","[-0.08057362641271411,0.044260096963958453]","[1,1,1]","[-0.12175644819442044,-0.09878403357516653]","[1,1,1]","[-0.12398205605736141,0.1527755974329226]","[1,1,1]","[0.02,0.02]",135.962,0,1,1,199,1,,,,,,,
,,,,,,,5be2172e8a2c800001624f31,682db47c39ca23204937ef1e,2025-05-21_13h14.17.413,cuing_paradigm_dot,2024.1.5,Win32,59.95203837,682d556593cb38ad0a074487,,,,,,,,,,,135.964,136.459,,,136.71,137.561,left,0.83,,,,,,,,,0.6,,,,,,136.459,136.71,137.561,"[0.09327476153932553,0.07343332217587101]","[1,1,1]","[0.027445752274365944,0.10033275669718873]","[1,1,1]","[-0.09349970072665545,0.013727690025002043]","[-1,-1,-1]","[0.10514101397974167,-0.0804549700060574]","[1,1,1]","[0.09287794685738823,-0.1676146676233079]","[-1,-1,-1]","[0.09955604619262064,0.12254637145081648]","[-1,-1,-1]","[0.059033568253754665,-0.11834397903906768]","[1,1,1]","[-0.0060753864335627555,-0.1642805779709213]","[-1,-1,-1]","[0.017603265542476085,-0.05704629562039529]","[1,1,1]","[-0.06261757270137057,0.13482054123631418]","[-1,-1,-1]","[-0.040184946108239104,0.0677512353464976]","[1,1,1]","[0.01201375138319891,-0.10489862375490261]","[-1,-1,-1]","[0.14550045702744377,0.052294034786654967]","[1,1,1]","[-0.12927562666411177,0.1208271049712151]","[1,1,1]","[-0.1445355827411389,-0.07726433229964495]","[1,1,1]","[-0.018363129005433212,0.18044070421877811]","[-1,-1,-1]","[-0.19107552326757932,-0.0366647105633753]","[-1,-1,-1]","[-0.13452654098661251,-0.010028518211620235]","[1,1,1]","[0.04375140843757875,0.19256239783947765]","[1,1,1]","[0.17736328919735497,0.026460540503190733]","[1,1,1]","[-0.1941311993063411,0.008658724555889211]","[-1,-1,-1]","[-0.000721969713811928,0.012020752145813525]","[1,1,1]","[0.14040813323180554,0.0006848733026953013]","[1,1,1]","[-0.0793392357967147,0.056195423181891725]","[-1,-1,-1]","[-0.1803216071891731,0.06732470771701553]","[1,1,1]","[-0.05438669892870712,-0.06062457354221073]","[-1,-1,-1]","[0.0953876728228949,-0.0017289447845282061]","[1,1,1]","[0.16385129907475554,0.10946815722425976]","[1,1,1]","[0.07198776338762529,-0.0427894149083308]","[-1,-1,-1]","[0.033349977869438704,0.059614819008023304]","[1,1,1]","[-0.0627846583282083,0.1844036379959032]","[-1,-1,-1]","[-0.03630615750928706,-0.1169580472128108]","[1,1,1]","[0.02,0.02]",138.659,0,2,2,160,1,,,,,,,
,,,,,,,5be2172e8a2c800001624f31,682db47c39ca23204937ef1e,2025-05-21_13h14.17.413,cuing_paradigm_dot,2024.1.5,Win32,59.95203837,682d556593cb38ad0a074487,,,,,,,,,,,138.66,139.161,,,139.409,140.21,left,0.785,,,,,,,,,0.45,,,,,,139.161,139.409,140.21,"[-0.009308933567452826,-0.14071587390644757]","[1,1,1]","[-0.17171759668272576,-0.0929877055754904]","[1,1,1]","[0.04117080117319372,-0.10964475224269987]","[-1,-1,-1]","[-0.01601798567201636,-0.08892057978806688]","[-1,-1,-1]","[-0.06500035495173326,-0.18863805625170352]","[-1,-1,-1]","[0.05848416561311853,0.123863966456115]","[-1,-1,-1]","[0.15218713433564146,0.10604811170495054]","[-1,-1,-1]","[-0.12961639542142922,-0.06631042551551625]","[-1,-1,-1]","[0.15784637863728357,-0.01049638373947881]","[-1,-1,-1]","[-0.049178404711287024,0.19149436452880841]","[1,1,1]","[-0.09342754236221777,0.02968777806747386]","[1,1,1]","[-0.13047476288289098,0.05288664827230876]","[1,1,1]","[0.042306644864637484,0.051013149336386836]","[-1,-1,-1]","[0.1606560778421113,0.06303533452226141]","[1,1,1]","[0.1623399190922703,-0.08468305607911038]","[-1,-1,-1]","[-0.12396715650792003,0.11256640322169119]","[1,1,1]","[-0.17957447982894859,0.029570773744696043]","[1,1,1]","[-0.07160238343341466,0.10282746116223326]","[-1,-1,-1]","[0.15194227533131605,-0.12690295906430057]","[1,1,1]","[0.0001831132710025564,0.09515755075750823]","[1,1,1]","[-0.12080020952984202,-0.01985044680247165]","[-1,-1,-1]","[0.07933329985731744,-0.1715413837602709]","[-1,-1,-1]","[0.10477002218142523,-0.13884147019968937]","[-1,-1,-1]","[-0.07782292215195191,-0.05430097984660899]","[-1,-1,-1]","[0.014862822750232353,0.004922299439791592]","[1,1,1]","[-0.008602657937056307,0.04523659235660734]","[1,1,1]","[-0.02980579484823733,-0.034788188445620295]","[1,1,1]","[0.10987210136662728,0.0005016728290039156]","[-1,-1,-1]","[-0.05745286624867574,0.050949576589397874]","[-1,-1,-1]","[0.007219810409082429,0.1735284984236116]","[1,1,1]","[-0.18536725938752724,-0.028241150226168292]","[-1,-1,-1]","[0.11163489678978028,-0.061225264340225155]","[-1,-1,-1]","[0.02,0.02]",141.309,0,3,3,66,1,,,,,,,
,,,,,,,5be2172e8a2c800001624f31,682db47c39ca23204937ef1e,2025-05-21_13h14.17.413,cuing_paradigm_dot,2024.1.5,Win32,59.95203837,682d556593cb38ad0a074487,,,,,,,,,,,141.31,141.811,,,142.062,142.844,left,0.769,,,,,,,,,0.45,,,,,,141.811,142.062,142.844,"[0.15687103270220878,0.07034183157514066]","[-1,-1,-1]","[-0.04821597051041113,0.11418339773046216]","[1,1,1]","[0.07438376070468698,-0.0835187208323219]","[-1,-1,-1]","[-0.1467804626819217,0.05998659894587391]","[1,1,1]","[0.10137750759742829,-0.03215976155921059]","[-1,-1,-1]","[-0.11796045939513454,-0.14022209823015253]","[1,1,1]","[-0.04744102880680137,-0.19182676776304572]","[-1,-1,-1]","[0.12247189301634555,0.042439978855037905]","[-1,-1,-1]","[0.05949588691405233,0.011551074926144728]","[-1,-1,-1]","[-0.10764396291918618,0.004398880464395557]","[1,1,1]","[0.019610252346947625,0.13287857110475426]","[-1,-1,-1]","[0.13719686070795467,-0.09550528676022468]","[-1,-1,-1]","[0.00700432520475667,-0.1414371638257639]","[1,1,1]","[0.0077974931942767604,-0.05732766098733916]","[-1,-1,-1]","[0.01293977371006767,0.05607719423367645]","[1,1,1]","[0.06431189787798137,0.1474463911317623]","[1,1,1]","[-0.16593120828059774,0.015411260303380405]","[-1,-1,-1]","[0.07619765702718746,-0.13568470608497404]","[-1,-1,-1]","[-0.14601309633292803,0.1099727866065095]","[1,1,1]","[0.03754124582870807,0.19027699678767984]","[1,1,1]","[-0.12905913134864033,-0.0487239471137069]","[1,1,1]","[0.1370831890720248,0.140936711895108]","[1,1,1]","[-0.15219554055827134,-0.08781322369759602]","[1,1,1]","[-0.05832518698177207,-0.10598738047050382]","[1,1,1]","[0.19301548721669223,-0.031792549807468116]","[-1,-1,-1]","[-0.08236167835396178,-0.03103653255842343]","[-1,-1,-1]","[-0.015852239363310747,-0.01245976433432911]","[-1,-1,-1]","[-0.05487155509382753,0.16749727044304155]","[1,1,1]","[-0.07244003563888322,-0.15960325395321287]","[-1,-1,-1]","[-0.051578228995711746,0.07068642530277573]","[-1,-1,-1]","[0.084423041088002,0.07420533238022496]","[-1,-1,-1]","[0.04289295148150742,-0.19225479626294048]","[-1,-1,-1]","[0.02,0.02]",143.945,0,4,4,61,1,,,,,,,
,,,,,,,5be2172e8a2c800001624f31,682db47c39ca23204937ef1e,2025-05-21_13h14.17.413,cuing_paradigm_dot,2024.1.5,Win32,59.95203837,682d556593cb38ad0a074487,,,,,,,,,,,143.946,144.444,,,144.695,145.593,right,0.887,,,,,,,,,0.55,,,,,,144.444,144.695,145.593,"[0.16313699680804983,0.09961751459072973]","[-1,-1,-1]","[0.12942771181962542,0.004875723006193591]","[1,1,1]","[0.057467063394020905,-0.016853546873507912]","[1,1,1]","[0.040837626092609505,0.04023512991683405]","[-1,-1,-1]","[-0.04164075341576443,0.09607980393158938]","[1,1,1]","[-0.048217897181394014,-0.022643747920032726]","[1,1,1]","[-0.15927292231113918,0.004032850813406247]","[1,1,1]","[0.018623238529156455,0.13400974916396438]","[1,1,1]","[-0.07959560219750997,-0.0848012188606434]","[-1,-1,-1]","[-0.07833551933230515,0.007380069093770372]","[1,1,1]","[0.02522673135947765,-0.0761353122115933]","[-1,-1,-1]","[-0.08004058302946353,0.08434184690883481]","[1,1,1]","[0.03147523871384806,-0.12914855026812058]","[1,1,1]","[0.10083578192412121,-0.04019454011691366]","[-1,-1,-1]","[-0.12450686679547485,-0.09889728463843686]","[-1,-1,-1]","[0.07281294744466295,-0.1633276365458678]","[-1,-1,-1]","[0.08159967170529248,0.08954432252177875]","[1,1,1]","[-0.016734317426645776,0.06082090939632926]","[1,1,1]","[-0.1597432096728527,0.07242784688443256]","[-1,-1,-1]","[-0.08122805692659742,0.1244054147071662]","[-1,-1,-1]","[-0.1661889199454746,-0.04338738067214119]","[1,1,1]","[-0.09088491343429031,-0.1270206113678252]","[-1,-1,-1]","[-0.019229838669361156,-0.19321688681953514]","[-1,-1,-1]","[-0.02580697720602474,-0.07682772540369336]","[1,1,1]","[0.17735840155596527,-0.09197584368281804]","[-1,-1,-1]","[0.15202762973052675,-0.03660927606720356]","[-1,-1,-1]","[-0.07608673263846889,-0.18301661007982498]","[1,1,1]","[0.07967667678665967,-0.09374345050416313]","[1,1,1]","[-0.047683649835958596,0.19377415659851926]","[1,1,1]","[-0.11143979189511587,0.046619620131540244]","[1,1,1]","[0.08968240663291015,0.14357958987966296]","[-1,-1,-1]","[0.19295790906479543,0.03420213838617583]","[1,1,1]","[0.02,0.02]",146.694,0,5,5,136,1,,,,,,,
,,,,,,,5be2172e8a2c800001624f31,682db47c39ca23204937ef1e,2025-05-21_13h14.17.413,cuing_paradigm_dot,2024.1.5,Win32,59.95203837,682d556593cb38ad0a074487,,,,,,,,,,,146.695,147.191,,,147.43,148.458,left,1.015,,,,,,,,,0.4,,,,,,147.191,147.43,148.459,"[-0.09138930456056887,0.14725276836163473]","[-1,-1,-1]","[0.07196474473065143,-0.005413076871199874]","[1,1,1]","[0.019717844622276676,0.17135733461729347]","[-1,-1,-1]","[-0.0732544156436743,-0.1759466433563967]","[-1,-1,-1]","[0.0363966739884726,0.11722377626499138]","[-1,-1,-1]","[-0.05996487347599026,0.038100069852486464]","[1,1,1]","[0.09923987322114107,0.11180746509840331]","[1,1,1]","[0.062299260174680834,0.07848634671557723]","[1,1,1]","[0.11831836713329359,-0.04092448935617104]","[1,1,1]","[-0.02492971868496745,-0.03896911727781853]","[1,1,1]","[0.06900968132931073,-0.13085456849569937]","[1,1,1]","[-0.12398083047677777,-0.12032518568493544]","[-1,-1,-1]","[-0.05115029976369868,-0.07010422925953833]","[-1,-1,-1]","[-0.13902097847816258,0.020766574612123983]","[-1,-1,-1]","[0.14939656152712932,0.035847870560471826]","[-1,-1,-1]","[0.19403245867035868,0.03797484434117685]","[1,1,1]","[-0.05397655224463804,-0.12610030280069917]","[-1,-1,-1]","[-0.15724244425449527,-0.04084339397070656]","[-1,-1,-1]","[0.04401891072950643,-0.04670898963995722]","[-1,-1,-1]","[0.05278893267312914,-0.1856053500389626]","[-1,-1,-1]","[-0.09330900200513854,-0.0569316042577636]","[1,1,1]","[-0.04919997777086057,0.15717405084177402]","[1,1,1]","[0.09842500298473489,-0.16365765501181206]","[-1,-1,-1]","[0.18049297506376533,-0.03994754495698428]","[-1,-1,-1]","[-0.004377440910715959,-0.1292859693629381]","[-1,-1,-1]","[-0.02193389309996692,0.06476961653786165]","[1,1,1]","[0.02576686398372686,0.05293362859052767]","[-1,-1,-1]","[0.16466939537746922,0.07905156857688787]","[-1,-1,-1]","[-0.18003118329694062,-0.08539412582951889]","[-1,-1,-1]","[0.013332919268915073,-0.0002783489063221602]","[1,1,1]","[0.02954368774499182,-0.09930725633919008]","[-1,-1,-1]","[-0.09042149657389847,0.0024587312450339033]","[1,1,1]","[0.02,0.02]",149.558,0,6,6,32,1,,,,,,,
,,,,,,,5be2172e8a2c800001624f31,682db47c39ca23204937ef1e,2025-05-21_13h14.17.413,cuing_paradigm_dot,2024.1.5,Win32,59.95203837,682d556593cb38ad0a074487,,,,,,,,,,,149.559,150.058,,,150.298,150.994,left,0.686,,,,,,,,,0.4,,,,,,150.059,150.298,150.994,"[0.17392727063904553,-0.07698493989955764]","[1,1,1]","[0.12049434221120466,-0.12827776083078574]","[1,1,1]","[0.052639891290981365,-0.06369485226423145]","[1,1,1]","[-0.15406558710481294,-0.010410632669495917]","[-1,-1,-1]","[-0.03419578698618853,-0.15339235237652285]","[-1,-1,-1]","[0.011628396209482828,-0.1335843081649587]","[-1,-1,-1]","[-0.006749454279675998,-0.18836502947060932]","[1,1,1]","[-0.05672897737043767,0.07222143288077876]","[-1,-1,-1]","[-0.09552168240284578,0.14059701315503031]","[1,1,1]","[0.1276020276542702,0.11351818871190812]","[-1,-1,-1]","[-0.18729328739629422,0.06081164866553973]","[-1,-1,-1]","[-0.014076199865943934,0.11393817250807532]","[-1,-1,-1]","[0.09414636956586853,0.16559557839658795]","[-1,-1,-1]","[-0.0714200771581266,-0.12125616894934738]","[1,1,1]","[0.07002645113036231,0.07610792556582334]","[-1,-1,-1]","[0.03594595228275554,0.18206835321414697]","[1,1,1]","[-0.02653630829782515,0.18052425824800852]","[1,1,1]","[0.18032388087398554,-0.01347085888706467]","[-1,-1,-1]","[0.008134586247557122,0.08029136438136014]","[-1,-1,-1]","[-0.1364211805062403,-0.07908018207787777]","[-1,-1,-1]","[0.13478243103122878,-0.03564484316831814]","[1,1,1]","[-0.1986120124603906,-0.012149688794279759]","[-1,-1,-1]","[-0.09066269400885106,-0.03614863334021367]","[-1,-1,-1]","[0.14133440799221877,0.04663636819544845]","[-1,-1,-1]","[0.0525170370718246,-0.16453932433149912]","[-1,-1,-1]","[-0.051617415391898895,-0.05819787549434153]","[-1,-1,-1]","[0.005993129574433089,-0.029667432618734002]","[1,1,1]","[-0.015237779569169557,-0.07606326116631579]","[-1,-1,-1]","[-0.12166796531251796,-0.136974775995154]","[1,1,1]","[-0.17809764659093683,-0.05288799002378877]","[1,1,1]","[0.04811299558239969,0.12610757928466648]","[1,1,1]","[0.053619568641340896,0.030361462205662253]","[-1,-1,-1]","[0.02,0.02]",152.094,0,7,7,48,1,,,,,,,
,,,,,,,5be2172e8a2c800001624f31,682db47c39ca23204937ef1e,2025-05-21_13h14.17.413,cuing_paradigm_dot,2024.1.5,Win32,59.95203837,682d556593cb38ad0a074487,,,,,,,,,,,152.095,152.591,,,152.842,153.741,left,0.879,,,,,,,,,0.4,,,,,,152.591,152.842,153.742,"[-0.06068312523138392,-0.033174411341706164]","[1,1,1]","[-0.19928434680134402,-0.007921894219032635]","[1,1,1]","[0.07430958503367291,-0.11482537752989821]","[-1,-1,-1]","[-0.07908849274557096,0.16387464940961882]","[1,1,1]","[-0.010791614301836049,-0.08047263444574347]","[-1,-1,-1]","[-0.15731033203748135,0.05929911171348807]","[1,1,1]","[-0.09686625700830653,-0.1402030637686616]","[-1,-1,-1]","[0.008775082774409554,-0.17416034270892325]","[1,1,1]","[-0.02508383040778646,0.0961010106580028]","[-1,-1,-1]","[0.0122962056895471,0.1106772811793533]","[1,1,1]","[0.08277178503839851,0.051404722843292824]","[-1,-1,-1]","[0.11664859746812557,-0.07187659837778347]","[-1,-1,-1]","[0.18041105936720564,0.058013869999186334]","[-1,-1,-1]","[0.08729794306146643,0.1669301408147942]","[1,1,1]","[0.09431999852133696,-0.16842680244953462]","[1,1,1]","[-0.0443680150568444,-0.14644023252208863]","[-1,-1,-1]","[-0.05512538193515976,0.04938559718996234]","[-1,-1,-1]","[0.020265392990757244,0.1559805345737147]","[1,1,1]","[0.0006632595057967656,0.010915188071007548]","[-1,-1,-1]","[0.11221135401270163,-0.008879696884436405]","[-1,-1,-1]","[-0.08101883964923537,-0.0940353045662303]","[-1,-1,-1]","[-0.0896451548390347,0.12367054557125519]","[-1,-1,-1]","[-0.10321543049814004,0.022654717448480566]","[-1,-1,-1]","[-0.12098642880175366,0.0792962282657588]","[-1,-1,-1]","[0.15067718140523956,0.10841815216257414]","[-1,-1,-1]","[-0.12524506996916174,-0.01579438816843223]","[1,1,1]","[0.057158778546404145,0.11929474091197588]","[-1,-1,-1]","[0.045151247860914165,0.0650728509531743]","[1,1,1]","[0.06522362886891153,-0.0668397440040381]","[-1,-1,-1]","[-0.16857933166511435,-0.08593876338901645]","[-1,-1,-1]","[0.15612337385672267,-0.02599786042067249]","[1,1,1]","[0.12969079174620332,-0.14471657941096472]","[1,1,1]","[0.02,0.02]",154.83,0,8,8,34,1,,,,,,,
,,,,,,,5be2172e8a2c800001624f31,682db47c39ca23204937ef1e,2025-05-21_13h14.17.413,cuing_paradigm_dot,2024.1.5,Win32,59.95203837,682d556593cb38ad0a074487,,,,,,,,,,,154.831,155.311,,,155.559,156.144,right,0.562,,,,,,,,,0.9,,,,,,155.311,155.559,156.144,"[0.05735475651014833,0.18215632488454486]","[1,1,1]","[-0.048495707346073585,0.15366421046483453]","[1,1,1]","[0.09171821172609326,0.1603119858207288]","[1,1,1]","[0.08911199006356292,0.060297239453003505]","[1,1,1]","[0.1494722222662159,0.035634864611832115]","[1,1,1]","[-0.02920280849783104,-0.033788902592601824]","[1,1,1]","[0.18696137343492686,-0.04073514157015622]","[1,1,1]","[0.18432648648835112,0.014918646843021632]","[-1,-1,-1]","[0.12436601081234601,-0.07918094836674644]","[-1,-1,-1]","[0.03672290894839183,-0.0002713744667220246]","[1,1,1]","[-0.0944201119065812,-0.097072457097362]","[1,1,1]","[-0.035496916966311236,0.022570500537269108]","[1,1,1]","[-0.01408199519470396,0.1981059349893749]","[1,1,1]","[0.010901257793941929,0.14804988481992615]","[1,1,1]","[0.09374362904951093,0.013642094489399216]","[1,1,1]","[-0.15825781880553852,0.05585221236541988]","[1,1,1]","[-0.07893786364256829,-0.14354691565065741]","[1,1,1]","[-0.1291952991043973,-0.046048371258411276]","[1,1,1]","[-0.02464050906319514,0.10674036312911263]","[1,1,1]","[-0.09804354641188946,0.13091835854060582]","[1,1,1]","[0.07886973748065969,0.10451854127420435]","[-1,-1,-1]","[0.0647586656965522,-0.1755810177363824]","[1,1,1]","[0.04168216371653155,-0.14143503846832903]","[1,1,1]","[-0.16089311211684496,0.0111475152938805]","[1,1,1]","[-0.18993097892585226,-0.05512621914453519]","[1,1,1]","[-0.013542955212261325,0.06285887077562356]","[1,1,1]","[0.006930827798039766,-0.18092333442220232]","[1,1,1]","[0.056380008050620455,-0.07813577933847374]","[1,1,1]","[-0.14245833330187935,0.09450238644817616]","[1,1,1]","[-0.0658504188271785,0.10114518233678385]","[1,1,1]","[0.09153129734198874,-0.03386023274643907]","[1,1,1]","[0.07650863167610401,-0.11396753624680424]","[1,1,1]","[0.02,0.02]",157.244,0,9,9,181,1,,,,,,,
,,,,,,,5be2172e8a2c800001624f31,682db47c39ca23204937ef1e,2025-05-21_13h14.17.413,cuing_paradigm_dot,2024.1.5,Win32,59.95203837,682d556593cb38ad0a074487,,,,,,,,,,,157.245,157.741,,,157.995,158.591,left,0.568,,,,,,,,,0.45,,,,,,157.741,157.995,158.591,"[-0.12184951379355537,0.047971298293384985]","[1,1,1]","[0.15010925391752505,0.037996603570265096]","[1,1,1]","[-0.09650607177929126,-0.003952959043778959]","[1,1,1]","[0.07128083817923646,-0.08051515379926792]","[-1,-1,-1]","[0.11063910358122499,-0.003034293989323439]","[1,1,1]","[0.07952946397995607,0.04891504402636101]","[-1,-1,-1]","[0.1569482192938619,-0.06811643750219122]","[-1,-1,-1]","[-0.0022375292227893658,-0.15277223798866055]","[-1,-1,-1]","[-0.16128353078758162,-0.08843156173120781]","[-1,-1,-1]","[0.07915396693306481,0.13336470843735584]","[-1,-1,-1]","[-0.054971796437186096,-0.10437876328177921]","[-1,-1,-1]","[0.037576264785702924,-0.03512078171094498]","[1,1,1]","[-0.0957115792239589,0.1665559917193946]","[1,1,1]","[-0.05613014881630825,0.18696520510113288]","[1,1,1]","[-0.005305468194964563,0.19596814263571294]","[-1,-1,-1]","[0.08956711378188752,-0.12266634842000011]","[-1,-1,-1]","[0.0421689849527794,-0.11028577452428624]","[-1,-1,-1]","[0.18609325599213544,-0.03382370222657581]","[-1,-1,-1]","[-0.09406302670799052,0.11855372426643354]","[1,1,1]","[0.04053186683692166,0.06495407435766848]","[1,1,1]","[-0.023770468458685492,-0.055659679183753495]","[-1,-1,-1]","[0.031567006955832054,0.16774561152678613]","[1,1,1]","[-0.08320519355753622,-0.14792301513700468]","[-1,-1,-1]","[-0.034040117670475406,0.08607514452957485]","[1,1,1]","[-0.17418864216918684,0.09153860825159653]","[1,1,1]","[0.13306975097229065,0.09568034079554386]","[-1,-1,-1]","[0.03682420269785943,-0.17200399545883482]","[-1,-1,-1]","[0.0041846083861529024,0.11657509051684059]","[-1,-1,-1]","[-0.0037120535973164926,0.05983631503862526]","[-1,-1,-1]","[0.05849834220234094,0.007220250191032463]","[-1,-1,-1]","[-0.1426753712314119,-0.028125825577571217]","[1,1,1]","[0.13912645353188907,-0.1253842966497819]","[1,1,1]","[0.02,0.02]",159.696,0,10,10,69,1,,,,,,,
,,,,,,,5be2172e8a2c800001624f31,682db47c39ca23204937ef1e,2025-05-21_13h14.17.413,cuing_paradigm_dot,2024.1.5,Win32,59.95203837,682d556593cb38ad0a074487,,,,,,,,,,,159.699,160.192,,,160.443,161.478,left,1.014,,,,,,,,,0.45,,,,,,160.193,160.443,161.478,"[0.09038895085774193,0.0734122013580009]","[1,1,1]","[-0.021253684339080606,0.18944687096346471]","[-1,-1,-1]","[0.07722774542866631,-0.11195302853893338]","[1,1,1]","[-0.026790981044242768,0.12409420412724993]","[-1,-1,-1]","[0.012243593377503746,-0.15784126819018043]","[-1,-1,-1]","[-0.0919391151043149,0.03668620458798425]","[1,1,1]","[0.010569892584861518,0.02062150748705067]","[1,1,1]","[-0.054386829379393965,-0.019052209700023626]","[1,1,1]","[-0.1530637050618841,0.0745921298021315]","[-1,-1,-1]","[-0.05845029292766066,-0.0730180892472936]","[1,1,1]","[0.057881361679221116,-0.1583384805458171]","[1,1,1]","[0.017878000485705793,0.11153566734177404]","[-1,-1,-1]","[-0.044034037133820064,-0.19371083402584427]","[-1,-1,-1]","[0.15943300686753634,0.08047732212374269]","[1,1,1]","[-0.07350816629535502,-0.1590191848830956]","[-1,-1,-1]","[0.03670380979813417,0.053523941651987]","[-1,-1,-1]","[-0.16860459451613855,0.020026041878831967]","[-1,-1,-1]","[0.05882057808385059,-0.07456521342509455]","[-1,-1,-1]","[-0.1085317856227539,-0.050555191210554545]","[-1,-1,-1]","[-0.03156722033074941,0.01387587488433671]","[1,1,1]","[0.05497358953078179,0.16411174648854396]","[1,1,1]","[0.07642094108564443,0.028649612580106756]","[1,1,1]","[-0.14004080509397826,-0.1274142914181067]","[-1,-1,-1]","[0.12996539630549284,-0.011022359349050869]","[1,1,1]","[-0.0127565063697847,-0.09034939995465185]","[-1,-1,-1]","[0.10629442735115037,-0.04384069935725121]","[1,1,1]","[-0.10122415281832725,0.14900581409761443]","[-1,-1,-1]","[-0.017269676915870544,-0.036845839266640104]","[-1,-1,-1]","[-0.016416679272733686,0.06701289539759897]","[-1,-1,-1]","[0.1319658573031485,-0.13899335047857214]","[-1,-1,-1]","[0.15159026575529336,-0.09855384087084092]","[-1,-1,-1]","[-0.06692463942206678,-0.11910257569396457]","[1,1,1]","[0.02,0.02]",162.575,0,11,11,73,1,,,,,,,
,,,,,,,5be2172e8a2c800001624f31,682db47c39ca23204937ef1e,2025-05-21_13h14.17.413,cuing_paradigm_dot,2024.1.5,Win32,59.95203837,682d556593cb38ad0a074487,,,,,,,,,,,162.575,163.076,,,163.326,163.773,right,0.429,,,,,,,,,0.9,,,,,,163.076,163.326,163.773,"[0.08511560389607292,-0.1676391036159005]","[1,1,1]","[0.009490841238488697,-0.055221461564370126]","[1,1,1]","[-0.07839433790756983,-0.15720460347781587]","[1,1,1]","[0.1730160990455531,-0.035122490874670106]","[1,1,1]","[-0.08441329311784894,-0.06484607919559551]","[1,1,1]","[0.08360492597175465,-0.015254764650515418]","[1,1,1]","[-0.09015078240806584,-0.11750775057650789]","[1,1,1]","[0.00450630029083905,0.08230984529285357]","[1,1,1]","[0.08574533521680645,0.029332255274960282]","[1,1,1]","[-0.17497506174657088,-0.09608792679754768]","[1,1,1]","[-0.016330486884675265,0.15415962811558923]","[1,1,1]","[-0.04006645363855058,0.03159051008218775]","[1,1,1]","[0.09097208866224885,0.09547274430821924]","[1,1,1]","[-0.09102628965395401,0.1226643790023971]","[1,1,1]","[-0.19111924750363768,0.018266583875710903]","[1,1,1]","[-0.18539151146061664,-0.05302724386143853]","[-1,-1,-1]","[0.12073976009370316,-0.13111870538010842]","[1,1,1]","[0.040890638816406186,-0.1706017528485206]","[1,1,1]","[0.14893869117125288,-0.09051701544802473]","[1,1,1]","[0.16598547350466428,0.024795981754400703]","[-1,-1,-1]","[0.16960015227242564,0.10198882722949802]","[1,1,1]","[-0.11951316904822509,0.07234103086660086]","[1,1,1]","[0.05177379899421253,0.08558517529015075]","[1,1,1]","[0.09318849988766566,-0.057324066252534285]","[-1,-1,-1]","[-0.039698995041541826,-0.0845702386533569]","[1,1,1]","[-0.03199399535046695,0.10941812376335246]","[1,1,1]","[-0.14081412790171677,-0.0735063421869145]","[1,1,1]","[0.14234425005165388,0.06693627550488136]","[1,1,1]","[0.0890977794973943,0.15328786864713992]","[1,1,1]","[0.12391916730669217,0.012531242470587971]","[1,1,1]","[-0.14321528513486492,-0.0018400578301585096]","[1,1,1]","[-0.04290072488447991,-0.13533757475681635]","[1,1,1]","[0.02,0.02]",164.854,0,12,12,202,1,,,,,,,
,,,,,,,5be2172e8a2c800001624f31,682db47c39ca23204937ef1e,2025-05-21_13h14.17.413,cuing_paradigm_dot,2024.1.5,Win32,59.95203837,682d556593cb38ad0a074487,,,,,,,,,,,164.856,165.353,,,165.611,166.593,left,0.959,,,,,,,,,0.45,,,,,,165.353,165.611,166.593,"[-0.021040295815576857,0.10667728683453598]","[-1,-1,-1]","[-0.09018922621784507,0.1515093917522872]","[1,1,1]","[-0.0965080256386729,-0.14410731653792164]","[-1,-1,-1]","[0.10617633605188292,0.05924941474588632]","[1,1,1]","[0.016705248950867235,0.1390538921769431]","[1,1,1]","[0.05890805587081315,-0.0573882616262821]","[-1,-1,-1]","[-0.09302075373046295,0.09196653534964641]","[1,1,1]","[-0.16512698154757122,-0.07392134138700159]","[1,1,1]","[-0.19375568453915026,0.0008076354269648371]","[1,1,1]","[-0.02097269288193818,-0.17919164062557766]","[-1,-1,-1]","[0.010114383352595145,0.008081005071205445]","[-1,-1,-1]","[0.03858777046787191,0.07455278536197218]","[-1,-1,-1]","[-0.154970870054049,0.10228334852533968]","[-1,-1,-1]","[0.0723774435285231,0.13356312038016155]","[-1,-1,-1]","[-0.12409858500358122,0.02897585661331905]","[1,1,1]","[0.04350901217791804,-0.1756541921602895]","[-1,-1,-1]","[0.170960197460904,-0.028185871686152428]","[1,1,1]","[-0.10771682728429831,-0.019216853055915643]","[-1,-1,-1]","[-0.06597575255685237,-0.052083866937462545]","[-1,-1,-1]","[0.10831334833990669,0.01282096388521304]","[1,1,1]","[0.05426087867676008,0.01995157920567345]","[-1,-1,-1]","[0.13376236500961608,0.12416257340599564]","[-1,-1,-1]","[-0.031314536372000955,-0.01749967116977633]","[-1,-1,-1]","[0.08812717446360502,0.17267410211025921]","[1,1,1]","[0.15017339936377358,0.059419506191322205]","[1,1,1]","[0.12626053810122545,-0.06675974353881707]","[-1,-1,-1]","[-0.015065366111416486,0.17008110643070248]","[1,1,1]","[0.009059186382397716,-0.053202836314667205]","[1,1,1]","[0.14871572558935853,-0.12478620804039955]","[-1,-1,-1]","[-0.053297452142926964,-0.10622712085226357]","[1,1,1]","[-0.13123029641468043,-0.10628395614359534]","[-1,-1,-1]","[0.17280163446445768,0.02553760582068335]","[-1,-1,-1]","[0.02,0.02]",167.689,0,13,13,80,1,,,,,,,
,,,,,,,5be2172e8a2c800001624f31,682db47c39ca23204937ef1e,2025-05-21_13h14.17.413,cuing_paradigm_dot,2024.1.5,Win32,59.95203837,682d556593cb38ad0a074487,,,,,,,,,,,167.691,168.18,,,168.419,168.896,right,0.453,,,,,,,,,0.9,,,,,,168.18,168.419,168.896,"[0.04315883538651963,-0.04664718937029936]","[1,1,1]","[-0.032151614879201235,0.1923535062999945]","[1,1,1]","[-0.1719147002778854,-0.04237669045841416]","[1,1,1]","[0.0851035173348019,0.07995790953625592]","[1,1,1]","[-0.002678381412354026,-0.10946724356913103]","[1,1,1]","[0.12348377542079333,0.14881964518965382]","[-1,-1,-1]","[-0.14898681757840115,0.05035673471661247]","[1,1,1]","[-0.10990167015433817,0.09078419211523907]","[1,1,1]","[0.0002741968347072181,0.1430906693541444]","[-1,-1,-1]","[0.05720556834923676,-0.11389555237637394]","[1,1,1]","[-0.11797971543880466,0.024470856299456365]","[1,1,1]","[0.040336275626831564,-0.005470215236284016]","[-1,-1,-1]","[-0.12205513295490338,0.13834088448190848]","[1,1,1]","[0.042272077487493356,0.18475003803737286]","[1,1,1]","[-0.06604777276056437,0.1057858462993319]","[1,1,1]","[0.16481436679295605,0.014635795032793684]","[1,1,1]","[-0.03805699824027985,-0.14293455413864414]","[1,1,1]","[0.09688397687653723,-0.09516554963095471]","[1,1,1]","[-0.07245026854214393,0.1845876054054453]","[1,1,1]","[0.11610001285415651,-0.006687087575499051]","[1,1,1]","[0.12586539884261236,-0.14971202490962152]","[1,1,1]","[-0.008003730183083714,-0.18030678255472352]","[1,1,1]","[0.1681604660797623,-0.039642031295447716]","[1,1,1]","[-0.045644644904718,-0.0581558282702913]","[1,1,1]","[-0.007341018595703922,0.04691217367225344]","[1,1,1]","[0.1349750289147441,-0.07670574991718578]","[1,1,1]","[-0.046475686508416124,-0.10104997825649083]","[1,1,1]","[0.04490458301073238,-0.18826235003204245]","[1,1,1]","[-0.10791379949856471,-0.0906054647642294]","[1,1,1]","[0.15352107302803475,0.0879894685059234]","[1,1,1]","[-0.09648467503632209,-0.014531170774054455]","[1,1,1]","[0.07769142134766847,-0.16274185344395117]","[1,1,1]","[0.02,0.02]",169.984,0,14,14,185,1,,,,,,,
,,,,,,,5be2172e8a2c800001624f31,682db47c39ca23204937ef1e,2025-05-21_13h14.17.413,cuing_paradigm_dot,2024.1.5,Win32,59.95203837,682d556593cb38ad0a074487,,,,,,,,,,,169.986,170.464,,,170.671,171.281,left,0.585,,,,,,,,,0.1,,,,,,170.464,170.671,171.281,"[-0.046059121519515724,-0.11134158477325527]","[-1,-1,-1]","[0.12954912942023689,-0.09252136456882301]","[-1,-1,-1]","[0.050587874206835325,0.0959820830220353]","[-1,-1,-1]","[0.11428509976471012,-0.1513736962432554]","[-1,-1,-1]","[-0.005378463770777857,-0.04483920422714787]","[-1,-1,-1]","[-0.08553585004429215,0.06328665219710335]","[-1,-1,-1]","[0.04091030152336304,0.1951922132080735]","[-1,-1,-1]","[0.1704106019804262,-0.0467225681070539]","[-1,-1,-1]","[-0.06471102711994073,-0.1495633454380325]","[-1,-1,-1]","[-0.051371646753302816,0.042199276554595926]","[1,1,1]","[-0.16977335216898193,-0.050850678480949214]","[-1,-1,-1]","[0.03901133174887439,0.01580887916185232]","[-1,-1,-1]","[0.15699928769890456,0.02754474719116617]","[-1,-1,-1]","[0.03227858804885663,-0.059030220759845084]","[-1,-1,-1]","[-0.051597846908235614,-0.06124548597847318]","[-1,-1,-1]","[-0.13288863235138104,-0.0003481924292959865]","[-1,-1,-1]","[-0.03053526717961419,-0.18750474707204323]","[-1,-1,-1]","[0.0747644142972759,0.04992647705803154]","[-1,-1,-1]","[0.06415468050598036,0.15169778483060958]","[-1,-1,-1]","[-0.12371940006355532,-0.14914553972683198]","[-1,-1,-1]","[0.12999559145235773,0.14900321589009316]","[-1,-1,-1]","[0.10707202402739535,-0.03948622576416133]","[-1,-1,-1]","[-0.008361886559346778,0.17040458630164404]","[-1,-1,-1]","[0.133498809447975,0.07482364027477174]","[-1,-1,-1]","[-0.07039618136710062,0.1041137461308829]","[-1,-1,-1]","[-0.04999525319463684,0.1922587283927221]","[-1,-1,-1]","[-0.05130855383288386,0.14870197078641414]","[1,1,1]","[-0.10635314755826819,-0.08991419827393121]","[-1,-1,-1]","[-0.11947320282145472,0.15513191623579362]","[-1,-1,-1]","[-0.01660142754782075,0.12722859426536587]","[-1,-1,-1]","[0.06837677944773647,-0.17360452706208462]","[-1,-1,-1]","[-0.043380162529041345,-0.015008514614547837]","[1,1,1]","[0.02,0.02]",172.365,0,15,15,24,1,,,,,,,
,,,,,,,5be2172e8a2c800001624f31,682db47c39ca23204937ef1e,2025-05-21_13h14.17.413,cuing_paradigm_dot,2024.1.5,Win32,59.95203837,682d556593cb38ad0a074487,,,,,,,,,,,172.365,172.846,,,173.115,174.134,right,1.002,,,,,,,,,0.5,,,,,,172.846,173.115,174.134,"[0.09821643836320193,0.01654700788952059]","[1,1,1]","[-0.025110550102958713,-0.16050500020969372]","[-1,-1,-1]","[0.050189616512602384,0.059679126484732795]","[1,1,1]","[0.10595831778376393,0.06870378921737105]","[-1,-1,-1]","[-0.05876778229514424,0.15263949975779223]","[-1,-1,-1]","[0.09890179120656287,-0.17060714138246325]","[1,1,1]","[0.01564378352572572,-0.15942837173348798]","[-1,-1,-1]","[-0.098681204237715,-0.12275075080032588]","[1,1,1]","[-0.18457830107766482,0.07663747303393197]","[-1,-1,-1]","[-0.05302427512887456,-0.03630007052232322]","[-1,-1,-1]","[0.06757906541812722,-0.09044295578383116]","[-1,-1,-1]","[-0.09078054026339336,0.07226137297225292]","[-1,-1,-1]","[-0.16740877478503702,0.027161574711037254]","[1,1,1]","[-0.05476558352025571,0.02955356127512587]","[1,1,1]","[0.14263948118595343,-0.12142174258878653]","[-1,-1,-1]","[-0.05513561965898653,-0.10215411416570236]","[1,1,1]","[0.07820269284617903,-0.04650123418295696]","[1,1,1]","[0.043524238830673655,-0.02174969644999332]","[1,1,1]","[0.06901356412988133,0.13561216475096488]","[-1,-1,-1]","[-0.013183219315007856,-0.08316412181127608]","[1,1,1]","[0.025188973080139586,-0.11691882685660188]","[1,1,1]","[0.16229099241553446,0.0007423898224426064]","[1,1,1]","[-0.0011733088986168388,-0.026879945671786972]","[1,1,1]","[-0.03148519144641563,0.09744605849357926]","[-1,-1,-1]","[-0.1623322093591991,-0.10558478721069026]","[1,1,1]","[-0.08979040362974591,-0.06730160538870035]","[1,1,1]","[0.1817205659379896,0.03778555123146603]","[1,1,1]","[0.11008819586974494,0.15970312998465036]","[-1,-1,-1]","[0.058495430536860335,-0.17390704074199811]","[-1,-1,-1]","[-0.11920426657389346,0.12972615242701843]","[-1,-1,-1]","[0.009746790333402556,0.1487536181814347]","[-1,-1,-1]","[-0.07956091663922266,0.11821167911115932]","[-1,-1,-1]","[0.02,0.02]",175.222,0,16,16,104,1,,,,,,,
,,,,,,,5be2172e8a2c800001624f31,682db47c39ca23204937ef1e,2025-05-21_13h14.17.413,cuing_paradigm_dot,2024.1.5,Win32,59.95203837,682d556593cb38ad0a074487,,,,,,,,,,,175.223,175.733,,,175.977,176.692,right,0.687,,,,,,,,,0.6,,,,,,175.733,175.977,176.692,"[-0.1289329953080036,0.06243862293503841]","[-1,-1,-1]","[0.15310290912345534,-0.12648132515713037]","[1,1,1]","[-0.09212285502722589,-0.10806169251347932]","[-1,-1,-1]","[-0.05306039551648976,0.030706834454200686]","[1,1,1]","[0.14699135353173784,0.09859748806263893]","[-1,-1,-1]","[0.04081060621080406,0.1541075116699589]","[-1,-1,-1]","[-0.1067397595084643,0.14547668589712887]","[-1,-1,-1]","[0.13469561915198516,-0.008835374802330064]","[1,1,1]","[0.1262187311440272,0.054464700953346]","[1,1,1]","[-0.029497803292117947,-0.14682363395997974]","[-1,-1,-1]","[0.12468595220288389,0.15467259874799275]","[1,1,1]","[-0.11626527071630459,-0.03463561349451782]","[1,1,1]","[0.06565550512191486,0.10142533180978494]","[1,1,1]","[-0.015483942699331621,0.07797113319255634]","[-1,-1,-1]","[0.09940936261152804,-0.08982114479794416]","[1,1,1]","[-0.022104759707063795,0.16258642958542535]","[1,1,1]","[0.09760270657985405,-0.14474150608509043]","[1,1,1]","[0.15153368193773611,-0.0744318970030472]","[1,1,1]","[-0.11986404710622929,-0.14954282768240543]","[1,1,1]","[0.19070679353272663,0.001990674457152186]","[-1,-1,-1]","[-0.06536854300975843,-0.03243500953450746]","[-1,-1,-1]","[0.026760086090190836,-0.13120422511114255]","[1,1,1]","[-0.1563860693720878,0.00930773153755245]","[-1,-1,-1]","[0.061442908803188416,-0.047582199181800414]","[-1,-1,-1]","[-0.03414658589413259,-0.07755960775261021]","[-1,-1,-1]","[0.0016097804526883119,-0.053566496790789994]","[1,1,1]","[-0.10404754164022649,0.030826674091653558]","[1,1,1]","[0.044178757043125946,-0.19427378795652142]","[1,1,1]","[-0.0008123187832706067,-0.188251220037034]","[1,1,1]","[-0.004497923373675727,0.027846389277613473]","[-1,-1,-1]","[0.03936963109888207,0.01595973187517638]","[1,1,1]","[-0.09547484454136296,0.09774964192593275]","[1,1,1]","[0.02,0.02]",177.796,0,17,17,178,1,,,,,,,
,,,,,,,5be2172e8a2c800001624f31,682db47c39ca23204937ef1e,2025-05-21_13h14.17.413,cuing_paradigm_dot,2024.1.5,Win32,59.95203837,682d556593cb38ad0a074487,,,,,,,,,,,177.797,178.281,,,178.528,179.731,left,1.179,,,,,,,,,0.5,,,,,,178.281,178.523,179.731,"[0.11795594129561676,0.06176870867121618]","[1,1,1]","[0.12536773536571957,0.13042806120283046]","[1,1,1]","[-0.09939687296843978,0.035171699922415735]","[1,1,1]","[-0.08399319219454696,0.0909932436910813]","[-1,-1,-1]","[-0.02350663935142732,-0.03882779998623033]","[-1,-1,-1]","[-0.12643593090848831,-0.08210732478124107]","[1,1,1]","[-0.0022447084400139695,0.1993010043100605]","[-1,-1,-1]","[0.01693084681973681,-0.15569522563173843]","[-1,-1,-1]","[0.12125706206234821,-0.10054713782762986]","[1,1,1]","[0.0457686486990056,0.10101712885661632]","[-1,-1,-1]","[-0.09140541206946157,-0.062468744753809514]","[-1,-1,-1]","[0.029335169250022754,-0.017647374704394866]","[-1,-1,-1]","[-0.0818250353392572,-0.1113225883633663]","[1,1,1]","[0.19195311898910547,-0.03746085772701775]","[-1,-1,-1]","[-0.13127515266331918,0.13841468097011672]","[1,1,1]","[0.008357677830987773,0.02213189374920634]","[1,1,1]","[-0.04419914824868834,0.010324405016357053]","[-1,-1,-1]","[0.09780575211282445,-0.02010290658939507]","[-1,-1,-1]","[0.01142796359667202,0.06922878392997191]","[-1,-1,-1]","[0.08296688692763293,0.18034952099118187]","[-1,-1,-1]","[0.035605934812433924,0.18398228983083473]","[1,1,1]","[-0.03991891243949212,-0.07986933541926673]","[1,1,1]","[-0.010740914419810768,0.1455019926618289]","[-1,-1,-1]","[-0.16421106706937083,-0.02298142548025036]","[-1,-1,-1]","[-0.035917859053968854,-0.14006773040383086]","[-1,-1,-1]","[0.16701558786332182,0.04306384910400641]","[1,1,1]","[0.15981032546535487,-0.08566889925038848]","[1,1,1]","[0.07135675916585844,-0.173812515300372]","[1,1,1]","[0.12385831815400819,-0.14992936564803452]","[1,1,1]","[-0.10280850150680552,-0.169152913318513]","[-1,-1,-1]","[0.0656612813726488,0.037476183031490015]","[1,1,1]","[-0.1739600370937027,0.04684902416707097]","[1,1,1]","[0.02,0.02]",180.813,0,18,18,95,1,,,,,,,
,,,,,,,5be2172e8a2c800001624f31,682db47c39ca23204937ef1e,2025-05-21_13h14.17.413,cuing_paradigm_dot,2024.1.5,Win32,59.95203837,682d556593cb38ad0a074487,,,,,,,,,,,180.814,181.326,,,181.571,182.306,left,0.713,,,,,,,,,0.4,,,,,,181.326,181.571,182.306,"[0.15325957527804587,-0.018445951269966877]","[-1,-1,-1]","[-0.07294288760581064,0.056335150451878396]","[-1,-1,-1]","[0.06684781636282229,0.02918966408238839]","[-1,-1,-1]","[-0.15084945937469307,0.06891200476082111]","[1,1,1]","[-0.19124923415036543,0.010109358488765121]","[1,1,1]","[-0.03564705842262851,-0.03100816839549558]","[-1,-1,-1]","[-0.07150768534898516,-0.18500857653192893]","[1,1,1]","[-0.0008770441642422332,0.12261290488408501]","[-1,-1,-1]","[-0.029199335115989974,0.08364858899536647]","[1,1,1]","[-0.027519848602438102,-0.16299898312660133]","[-1,-1,-1]","[-0.08460159596973749,-0.011829754916695228]","[1,1,1]","[0.11586517511479785,-0.16287527324468215]","[-1,-1,-1]","[-0.06335767635782591,-0.0612336152375628]","[1,1,1]","[-0.014063002119388043,0.18260405619835934]","[-1,-1,-1]","[0.1495169142307784,0.08101530524182406]","[1,1,1]","[0.00451070943882329,0.01762988990775042]","[-1,-1,-1]","[0.06074232213096282,-0.1438481927215887]","[-1,-1,-1]","[-0.08392504166625604,-0.12047398333546407]","[1,1,1]","[0.025056496771046752,-0.049553161863638125]","[-1,-1,-1]","[0.08247414255416693,0.16129553465346183]","[1,1,1]","[-0.15377316228607346,-0.06960209404104954]","[-1,-1,-1]","[0.008942946102996811,0.06536954612108374]","[-1,-1,-1]","[0.03079196703313212,-0.09939134962178499]","[1,1,1]","[-0.13782636921760164,0.12450899886813013]","[1,1,1]","[-0.19068452524128782,0.05519378057966716]","[1,1,1]","[0.09171196696604154,0.1085478431825863]","[-1,-1,-1]","[-0.1339309787654236,0.028354267954725797]","[1,1,1]","[0.1027105441737834,-0.02215170171021247]","[-1,-1,-1]","[0.10273100595358348,-0.11856590389791251]","[-1,-1,-1]","[-0.056017786713675875,0.17466430261486746]","[-1,-1,-1]","[0.13049249876811386,0.12545070377768663]","[-1,-1,-1]","[0.10429335470819204,-0.06607513207897185]","[-1,-1,-1]","[0.02,0.02]",183.395,0,19,19,31,1,,,,,,,
,,,,,,,5be2172e8a2c800001624f31,682db47c39ca23204937ef1e,2025-05-21_13h14.17.413,cuing_paradigm_dot,2024.1.5,Win32,59.95203837,682d556593cb38ad0a074487,,,,,,,,,,,183.395,183.896,,,184.147,184.548,right,0.39,,,,,,,,,0.9,,,,,,183.896,184.147,184.548,"[-0.03506246955812068,0.019305766179391132]","[1,1,1]","[0.04006663606569895,-0.18509361146424977]","[1,1,1]","[0.042344390579198546,-0.124152473403547]","[1,1,1]","[-0.1974651295670702,-0.0019006056233251683]","[-1,-1,-1]","[-0.13028027446251536,-0.11869815767236269]","[1,1,1]","[-0.07364521986314651,0.16860800836349113]","[1,1,1]","[0.028737963209740543,0.0010042237239723509]","[1,1,1]","[-0.10255148814809989,-0.15737860236619272]","[1,1,1]","[0.09544433693537432,-0.08106363916791952]","[1,1,1]","[-0.12498020536800777,0.127697630521136]","[1,1,1]","[0.07328060686888102,0.09772653469894207]","[1,1,1]","[0.03200742803653587,0.1363427577631004]","[1,1,1]","[-0.016833478090483522,0.16930807008524848]","[1,1,1]","[-0.013146682865737865,-0.11466278035378512]","[1,1,1]","[-0.12222059701179507,0.05813473021533724]","[1,1,1]","[-0.1461320634614012,-0.04261127250632968]","[1,1,1]","[-0.16649037383739862,0.025627154565187365]","[1,1,1]","[0.02944731044403461,-0.05807442814607568]","[1,1,1]","[-0.17222978345383796,0.07453506247250526]","[-1,-1,-1]","[-0.0893515922874183,-0.018648209769659512]","[1,1,1]","[-0.05231472640767516,-0.03932555417810939]","[1,1,1]","[0.11864655330528079,0.10856126316413243]","[1,1,1]","[-0.01593204015991126,0.1109636656523309]","[1,1,1]","[0.12261547180436501,0.011894193449723674]","[1,1,1]","[-0.08474207914585732,0.09266989481447056]","[-1,-1,-1]","[0.09547842531070341,-0.1722910706104091]","[1,1,1]","[0.11544992202079277,-0.11818338733578342]","[1,1,1]","[0.13324640760848458,0.05769271034994501]","[1,1,1]","[0.19597827263005896,-0.03485756958352721]","[1,1,1]","[0.0301823844078178,0.07018817492817507]","[1,1,1]","[-0.08746149309407618,-0.10855508022776339]","[1,1,1]","[0.08541002877438404,0.05093958115755587]","[1,1,1]","[0.02,0.02]",185.644,0,20,20,209,1,,,,,,,
,,,,,,,5be2172e8a2c800001624f31,682db47c39ca23204937ef1e,2025-05-21_13h14.17.413,cuing_paradigm_dot,2024.1.5,Win32,59.95203837,682d556593cb38ad0a074487,,,,,,,,,,,185.645,186.144,,,186.394,187.311,left,0.901,,,,,,,,,0.45,,,,,,186.144,186.394,187.311,"[0.1499282538731634,0.08583988844384313]","[1,1,1]","[0.012618251784570775,-0.12456356887958038]","[-1,-1,-1]","[-0.1374526694682307,-0.05004876864625816]","[1,1,1]","[-0.04826573947170916,-0.028723426229779518]","[-1,-1,-1]","[0.1161928274283489,-0.051075013662210685]","[-1,-1,-1]","[-0.0396115783438018,-0.0706282497720155]","[-1,-1,-1]","[0.09454057921803483,-0.17181191179903144]","[1,1,1]","[0.06680960173725752,-0.004943113348503095]","[-1,-1,-1]","[0.024538775987014854,0.01037170149215068]","[1,1,1]","[-0.04601709599956792,0.10417614614571725]","[-1,-1,-1]","[-0.06185590048327839,0.015577332563226588]","[-1,-1,-1]","[0.11588083850272196,-0.005860893722361618]","[-1,-1,-1]","[-0.11863422310491079,0.054805637782718505]","[-1,-1,-1]","[0.02766969246710212,0.0804010742488835]","[-1,-1,-1]","[0.045630896640988815,-0.05951440017258966]","[-1,-1,-1]","[0.07090081086136114,0.17498148071930006]","[-1,-1,-1]","[-0.08700554303295459,-0.12699018156754935]","[1,1,1]","[-0.03491275755796933,-0.12083339237213674]","[-1,-1,-1]","[-0.1350941214676845,0.1244682051223762]","[-1,-1,-1]","[0.0029875744067135086,0.1746743091147994]","[1,1,1]","[0.14909598620784717,-0.09003528080492992]","[1,1,1]","[-0.03558339042901085,-0.18092109702037867]","[1,1,1]","[-0.11779071504144506,0.00025014736264653014]","[1,1,1]","[-0.01890284754954093,0.14042595917476144]","[-1,-1,-1]","[-0.10970363404365045,0.157805032385783]","[-1,-1,-1]","[-0.16679900923886049,0.09662935998748061]","[1,1,1]","[-0.10333294876797622,-0.08501591431532508]","[1,1,1]","[0.1432613224562415,0.038723289355474595]","[1,1,1]","[-0.16009243457082115,-0.11005992987831942]","[1,1,1]","[0.1681230353529328,-0.012952950091039875]","[-1,-1,-1]","[-0.18839245286148404,-0.004748046816232183]","[-1,-1,-1]","[-0.17450690796214055,0.05210843453072465]","[1,1,1]","[0.02,0.02]",188.411,0,21,21,76,1,,,,,,,
,,,,,,,5be2172e8a2c800001624f31,682db47c39ca23204937ef1e,2025-05-21_13h14.17.413,cuing_paradigm_dot,2024.1.5,Win32,59.95203837,682d556593cb38ad0a074487,,,,,,,,,,,188.411,188.911,,,189.161,189.811,left,0.64,,,,,,,,,0.45,,,,,,188.911,189.161,189.811,"[0.04881212038063245,-0.13292387729043012]","[1,1,1]","[-0.048914947163125236,-0.03249849884043442]","[-1,-1,-1]","[0.08688607457673142,0.10335148128379941]","[1,1,1]","[0.03826684651655339,0.06030600429499892]","[-1,-1,-1]","[-0.04326201749262162,0.017855566889136854]","[-1,-1,-1]","[-0.1448736598324179,-0.03858036719918475]","[-1,-1,-1]","[-0.04150579437039389,-0.1592421032058237]","[-1,-1,-1]","[-0.16463776194022064,0.05383926650837989]","[-1,-1,-1]","[-0.016737759493026215,-0.19437124280673407]","[-1,-1,-1]","[0.013586157903768473,-0.009119364108013712]","[-1,-1,-1]","[0.10430276736152969,0.0664258547575854]","[1,1,1]","[-0.020379919737609605,0.18403654249770024]","[1,1,1]","[-0.05592807079058157,0.16269668722186692]","[-1,-1,-1]","[0.17693143333805864,0.05138087760052475]","[1,1,1]","[-0.005899892359552623,0.1154123612053925]","[-1,-1,-1]","[-0.10685207424688267,-0.017051227894931742]","[1,1,1]","[-0.10348728888841775,0.12022854415061822]","[1,1,1]","[0.15649182689716376,-0.04875611219186237]","[-1,-1,-1]","[-0.022318465872191794,0.06778985775604013]","[1,1,1]","[-0.11086519177086807,-0.14559202870842453]","[1,1,1]","[0.09898335737965612,0.14354173294901168]","[-1,-1,-1]","[0.10457892104740572,-0.003062395951709419]","[-1,-1,-1]","[-0.1493607732720684,-0.1192824235335336]","[-1,-1,-1]","[-0.19794506070714754,-0.026649464350646784]","[1,1,1]","[0.07211239628127851,-0.07792105683902598]","[-1,-1,-1]","[0.1490744214022782,-0.12328437153594973]","[-1,-1,-1]","[0.11456277153758032,-0.07833679021289403]","[-1,-1,-1]","[0.08335413219264816,-0.15459105593174546]","[1,1,1]","[-0.05231616219095755,-0.09054749283954773]","[1,1,1]","[0.18604971585518643,-0.017223473488108803]","[1,1,1]","[-0.1029398074617813,0.04727961318322286]","[1,1,1]","[0.0785710543577126,0.03532319167907935]","[-1,-1,-1]","[0.02,0.02]",190.903,0,22,22,64,1,,,,,,,
,,,,,,,5be2172e8a2c800001624f31,682db47c39ca23204937ef1e,2025-05-21_13h14.17.413,cuing_paradigm_dot,2024.1.5,Win32,59.95203837,682d556593cb38ad0a074487,,,,,,,,,,,190.904,191.394,,,191.644,192.061,left,0.4,,,,,,,,,0.1,,,,,,191.394,191.644,192.061,"[-0.03928624090238078,-0.02454726261495787]","[-1,-1,-1]","[-0.09528277129028012,-0.10356563471965433]","[-1,-1,-1]","[-0.06193721106822464,0.15258766346119348]","[-1,-1,-1]","[0.09051830108891279,0.15730562366208234]","[-1,-1,-1]","[0.0034596247988846343,0.06962154311830568]","[-1,-1,-1]","[0.12229820801769296,0.12153493269203493]","[-1,-1,-1]","[0.02143263858666679,-0.113245203636581]","[-1,-1,-1]","[-0.059705837180035595,0.07505641704317374]","[-1,-1,-1]","[0.1809124311617339,0.07650191108599678]","[-1,-1,-1]","[0.05192007825228306,-0.16292598569660985]","[-1,-1,-1]","[0.10776398010805105,-0.04271627119693075]","[-1,-1,-1]","[0.03885328300378161,0.017750235778994476]","[1,1,1]","[0.12950511139371554,0.0603207017657704]","[-1,-1,-1]","[-0.1781066411095058,0.025901755325051862]","[-1,-1,-1]","[-0.12186725369058755,0.1207931516624268]","[1,1,1]","[-0.09732528661966312,0.029774208459714707]","[-1,-1,-1]","[-0.0009701099868966417,-0.19985566681032324]","[-1,-1,-1]","[-0.006336164537217547,-0.048023827347479835]","[-1,-1,-1]","[-0.007923953736971055,0.10854294362777452]","[-1,-1,-1]","[-0.02488068944753304,0.015468348107603712]","[-1,-1,-1]","[0.17056445177813545,-0.06312560628010257]","[-1,-1,-1]","[0.1835880430712722,-0.008463216541197228]","[-1,-1,-1]","[0.04956328765921813,0.19142733461925382]","[-1,-1,-1]","[-0.08165095054274799,-0.058462380429237744]","[-1,-1,-1]","[-0.14731640794169482,-0.020187399433674973]","[-1,-1,-1]","[-0.028235992985447895,-0.1032750048554095]","[-1,-1,-1]","[0.14906320816654786,-0.10698766807843357]","[1,1,1]","[-0.15273746813712016,-0.1152300873369772]","[-1,-1,-1]","[-0.010174895623680366,-0.16073674466587512]","[-1,-1,-1]","[0.10190938227669055,-0.08408110674110872]","[-1,-1,-1]","[-0.07107915326065659,-0.17103871808932905]","[-1,-1,-1]","[-0.0115010063179234,0.19717301675787882]","[-1,-1,-1]","[0.02,0.02]",193.16,0,23,23,4,1,,,,,,,
,,,,,,,5be2172e8a2c800001624f31,682db47c39ca23204937ef1e,2025-05-21_13h14.17.413,cuing_paradigm_dot,2024.1.5,Win32,59.95203837,682d556593cb38ad0a074487,,,,,,,,,,,193.161,193.662,,,193.919,194.46,right,0.518,,,,,,,,,0.9,,,,,,193.662,193.919,194.46,"[-0.17219660155916963,0.056865484826759474]","[1,1,1]","[-0.04290988904149521,0.08532391133639007]","[1,1,1]","[-0.06866956639804883,-0.04074361797623205]","[1,1,1]","[0.046570349442831,-0.13868595882369492]","[-1,-1,-1]","[0.0355219272112349,0.11059417096147678]","[1,1,1]","[0.14907406324597727,-0.06302803540963252]","[1,1,1]","[-0.029726614983188723,0.17437478268055812]","[-1,-1,-1]","[-0.046593033021003497,-0.10123785272320227]","[1,1,1]","[-0.1724350892069384,0.010542285018820183]","[1,1,1]","[0.1144612175832058,0.12341444977865283]","[1,1,1]","[-0.11507530178657141,-0.07038186205038398]","[1,1,1]","[0.1020555691846624,-0.1296271860714422]","[1,1,1]","[0.0959525396323361,0.006779544809086032]","[1,1,1]","[-0.017139381587381302,-0.008189060280744287]","[1,1,1]","[0.061526956889230405,0.1720768305299425]","[1,1,1]","[0.10144986386082361,-0.0681072790170476]","[1,1,1]","[-0.09757858107690205,0.06429811229817786]","[1,1,1]","[0.04604423958188472,0.02994501588317686]","[1,1,1]","[0.16390110774306899,0.07343136492238131]","[1,1,1]","[-0.021890701029497982,-0.19501672921758423]","[1,1,1]","[0.10110786098456309,0.06635073531520236]","[-1,-1,-1]","[-0.09709166623291213,-0.11368400223281137]","[1,1,1]","[0.060540343164776335,0.07323529719404726]","[1,1,1]","[0.006455471596041301,-0.11891335747787682]","[1,1,1]","[-0.16125925629270849,0.1150436519804962]","[1,1,1]","[0.037861468393357904,-0.016574953723017094]","[1,1,1]","[-0.1438862036400596,-0.10540918471226864]","[1,1,1]","[0.18535354952516364,-0.04320962623562936]","[1,1,1]","[0.0477043638051392,-0.07541427706091279]","[1,1,1]","[0.16041897517554435,-0.0015335204163676225]","[1,1,1]","[-0.1012896728313215,0.11898191768158936]","[1,1,1]","[-0.1634231086677146,-0.04719842859993944]","[1,1,1]","[0.02,0.02]",195.562,0,24,24,187,1,,,,,,,
,,,,,,,5be2172e8a2c800001624f31,682db47c39ca23204937ef1e,2025-05-21_13h14.17.413,cuing_paradigm_dot,2024.1.5,Win32,59.95203837,682d556593cb38ad0a074487,,,,,,,,,,,195.566,196.06,,,196.295,196.744,right,0.437,,,,,,,,,0.9,,,,,,196.06,196.295,196.744,"[0.007609220115043392,-0.058659571243116236]","[-1,-1,-1]","[0.1436593707169545,0.05623973499461452]","[1,1,1]","[-0.086570623871412,-0.0411797553900608]","[1,1,1]","[-0.12223847369982797,-0.019760226425756904]","[1,1,1]","[0.022652339390924852,-0.13473026614967054]","[1,1,1]","[-0.06283485448943052,-0.17007625848047117]","[1,1,1]","[-0.12060093685244735,0.023734628999811845]","[1,1,1]","[-0.1940560833805141,0.047985923108276464]","[1,1,1]","[0.05422958489997054,0.14620286606834848]","[1,1,1]","[-0.14994587629483713,0.11023317996411781]","[1,1,1]","[-0.04416284013892899,-0.04869813800069385]","[1,1,1]","[0.060823070275741936,0.10036059886527059]","[1,1,1]","[0.10900423116647513,-0.08470286002077178]","[1,1,1]","[-0.04023662097950331,0.1152056366328993]","[1,1,1]","[-0.09979020624763144,0.15767480665123193]","[1,1,1]","[0.16210080336265675,-0.025347545100281987]","[1,1,1]","[0.10366433002702093,-0.15513609830564018]","[1,1,1]","[-0.010519978121385814,0.08532280880454937]","[1,1,1]","[0.053264893981583725,0.007718121577626108]","[-1,-1,-1]","[-0.10803434132569134,-0.07691519336980514]","[1,1,1]","[-0.09017543013371328,0.09403854226710733]","[1,1,1]","[-0.14872896217233864,-0.07948041687945143]","[1,1,1]","[0.060652806404810744,0.18722858667890024]","[1,1,1]","[-0.015509793197280073,-0.11444837696864198]","[1,1,1]","[0.01028189600071912,0.1795657150056804]","[1,1,1]","[-0.16736989609196282,0.012203661925451895]","[-1,-1,-1]","[0.157235176067912,-0.07616297609823765]","[1,1,1]","[-0.10980094756961231,-0.1371728150164993]","[1,1,1]","[0.1114751143133781,0.1624154886067569]","[1,1,1]","[-0.013806415481602365,-0.1690040419675625]","[1,1,1]","[0.13511432651110233,-0.12227341988069791]","[1,1,1]","[0.0723373842856336,-0.12954534335887113]","[1,1,1]","[0.02,0.02]",197.845,0,25,25,182,1,,,,,,,
,,,,,,,5be2172e8a2c800001624f31,682db47c39ca23204937ef1e,2025-05-21_13h14.17.413,cuing_paradigm_dot,2024.1.5,Win32,59.95203837,682d556593cb38ad0a074487,,,,,,,,,,,197.845,198.327,,,198.584,199.194,left,0.596,,,,,,,,,0.4,,,,,,198.327,198.584,199.194,"[-0.10236877750979224,-0.020693120143696155]","[-1,-1,-1]","[-0.12399525921865345,0.030283901869961726]","[1,1,1]","[-0.14877571371221168,0.09808981419339452]","[-1,-1,-1]","[-0.11708828420083923,-0.1295828928146073]","[1,1,1]","[0.02665402767345832,-0.0012261665922782203]","[-1,-1,-1]","[0.07708084826112156,0.043049588511609685]","[-1,-1,-1]","[0.042427069362089585,0.1917464949230499]","[1,1,1]","[0.18093836828539744,-0.03971501928294026]","[1,1,1]","[0.020481770459609996,0.12132801853900849]","[-1,-1,-1]","[-0.19512733052014214,0.03887248711177933]","[-1,-1,-1]","[-0.03420264496270983,-0.011170916649616018]","[-1,-1,-1]","[-0.03877967950739134,0.050543727984100666]","[-1,-1,-1]","[0.04876236671764634,-0.13013825763813755]","[-1,-1,-1]","[-0.017445875500604245,-0.19916101483240922]","[-1,-1,-1]","[0.08074601420561642,0.14144465551387186]","[1,1,1]","[-0.054889601189575,0.15248567928054307]","[-1,-1,-1]","[0.16085787870869725,-0.0877500971181257]","[-1,-1,-1]","[0.026072872766071033,0.06091007175767328]","[-1,-1,-1]","[-0.06482105687867554,-0.1095917143883239]","[1,1,1]","[-0.14054077807335716,-0.006815520176226447]","[1,1,1]","[-0.03820143713679144,-0.1493603319273733]","[1,1,1]","[0.06922654200821877,-0.08436750021524879]","[-1,-1,-1]","[-0.03230333711683698,0.11110274337451015]","[1,1,1]","[0.11592736408910025,-0.05557921678698388]","[-1,-1,-1]","[-0.0010175744980990404,0.16234893985953167]","[-1,-1,-1]","[-0.07144157696363913,-0.06411021277149805]","[-1,-1,-1]","[-0.10118671260206245,0.08769695827130387]","[1,1,1]","[-0.19695751174078477,-0.004625852706953646]","[-1,-1,-1]","[-0.019818807776895764,-0.05601166369115622]","[1,1,1]","[-0.11360088961763282,-0.08079331376133263]","[1,1,1]","[0.12931371302437508,-0.012865644249052323]","[-1,-1,-1]","[-0.1751903485612752,-0.04931023137270042]","[1,1,1]","[0.02,0.02]",200.278,0,26,26,40,1,,,,,,,
,,,,,,,5be2172e8a2c800001624f31,682db47c39ca23204937ef1e,2025-05-21_13h14.17.413,cuing_paradigm_dot,2024.1.5,Win32,59.95203837,682d556593cb38ad0a074487,,,,,,,,,,,200.279,200.779,,,201.029,201.693,right,0.653,,,,,,,,,0.6,,,,,,200.779,201.029,201.693,"[0.13876536728919922,0.026587976954961453]","[1,1,1]","[-0.045827363196929045,-0.1563080145802352]","[1,1,1]","[0.12118322767230486,-0.06375678115724012]","[1,1,1]","[-0.043178979915313144,0.08572191463613983]","[1,1,1]","[-0.04775050146586771,0.1269899184493454]","[-1,-1,-1]","[-0.03934256114157529,-0.08031066232599336]","[-1,-1,-1]","[0.006615899502845492,0.014660594820945203]","[1,1,1]","[-0.04184131405638822,-0.032088868428064875]","[1,1,1]","[-0.174122332345296,-0.056035337436478906]","[-1,-1,-1]","[-0.040100146012559366,0.028606058447373125]","[1,1,1]","[-0.154468368137957,-0.0949612901714997]","[1,1,1]","[0.11896917974805886,-0.14249277880901803]","[-1,-1,-1]","[-0.09632983580860703,0.09864985157388254]","[1,1,1]","[-0.16711816970172055,0.08982570761471707]","[1,1,1]","[-0.09942370959299046,0.02225104483438286]","[1,1,1]","[0.0739787899539377,-0.0713200345905352]","[-1,-1,-1]","[0.03355588465796231,0.05007889087328478]","[-1,-1,-1]","[0.03867366940904005,-0.14914772555828923]","[-1,-1,-1]","[0.13525649710110907,0.1158145458146567]","[1,1,1]","[0.01962449743045482,0.0983517186197944]","[-1,-1,-1]","[0.016397626268110626,0.14014245873593897]","[1,1,1]","[-0.1899872771214635,0.0043563454975961815]","[-1,-1,-1]","[0.0881126635035503,0.024719884676894996]","[-1,-1,-1]","[-0.09301009202241797,-0.15948750370273498]","[1,1,1]","[0.037488001052769795,-0.03640252565658156]","[1,1,1]","[0.06273438318831649,0.1327140665129719]","[-1,-1,-1]","[-0.08094501879532952,-0.0801682766133175]","[1,1,1]","[0.09153934055710958,0.16277018979236366]","[1,1,1]","[-0.08406264762800758,-0.03753215106907534]","[-1,-1,-1]","[0.1615703451207943,-0.10131271848876373]","[-1,-1,-1]","[0.1854206740551529,-0.008181656467525522]","[1,1,1]","[-0.14971825444777556,0.13032404788881144]","[1,1,1]","[0.02,0.02]",202.784,0,27,27,159,1,,,,,,,
,,,,,,,5be2172e8a2c800001624f31,682db47c39ca23204937ef1e,2025-05-21_13h14.17.413,cuing_paradigm_dot,2024.1.5,Win32,59.95203837,682d556593cb38ad0a074487,,,,,,,,,,,202.785,203.275,,,203.527,204.513,right,0.974,,,,,,,,,0.6,,,,,,203.275,203.527,204.514,"[0.10693217475189276,0.11317554324613614]","[-1,-1,-1]","[0.12696372784110443,-0.1313573933413808]","[-1,-1,-1]","[0.001375816388649929,0.1311811591835198]","[1,1,1]","[0.04989175909834176,0.010183940075905057]","[-1,-1,-1]","[-0.11418411959052432,-0.10817650827051259]","[1,1,1]","[0.142256690310254,0.009456674266060904]","[1,1,1]","[0.16410189258846036,0.10188695772629654]","[-1,-1,-1]","[-0.0590660603633603,0.16326243864639994]","[1,1,1]","[0.1868677521201061,0.06513525669385935]","[1,1,1]","[-0.035019010853417507,0.07746633774461177]","[-1,-1,-1]","[0.058182404716797594,-0.11596543060160826]","[1,1,1]","[-0.14447617341360947,0.08951927768279333]","[1,1,1]","[-0.1088336001345839,0.16431553452211417]","[-1,-1,-1]","[0.12926160797846337,-0.05364453415166427]","[-1,-1,-1]","[0.04861986942569487,0.10979423458250437]","[-1,-1,-1]","[0.06516480860025868,0.1515720078770948]","[-1,-1,-1]","[0.19285069638453858,0.020140548921726415]","[1,1,1]","[-0.17654611005122225,0.05458263145036271]","[1,1,1]","[0.06302975726670065,-0.16926389113178025]","[1,1,1]","[-0.03923114419978707,-0.156250301780051]","[1,1,1]","[0.05098597267917201,-0.06829231443965236]","[1,1,1]","[-0.02046193285676387,-0.016690424177260646]","[1,1,1]","[-0.1432932050663676,-0.0014712741631042695]","[1,1,1]","[-0.03334637774082738,-0.07080862105404019]","[1,1,1]","[-0.07918076109482486,0.11540114603738216]","[1,1,1]","[0.005779432610907992,0.07407449893209517]","[-1,-1,-1]","[-0.0670569356218735,0.04564047553248716]","[1,1,1]","[-0.1726326680664535,-0.05773022216505316]","[-1,-1,-1]","[0.09923420901478164,-0.01803961780161407]","[1,1,1]","[-0.09586241178286217,-0.004694452815558541]","[-1,-1,-1]","[0.11294945972269826,0.0522851808443339]","[1,1,1]","[-0.15752193764422745,-0.09929081227310328]","[-1,-1,-1]","[0.02,0.02]",205.608,0,28,28,169,1,,,,,,,
,,,,,,,5be2172e8a2c800001624f31,682db47c39ca23204937ef1e,2025-05-21_13h14.17.413,cuing_paradigm_dot,2024.1.5,Win32,59.95203837,682d556593cb38ad0a074487,,,,,,,,,,,205.608,206.11,,,206.361,207.692,right,1.32,,,,,,,,,0.55,,,,,,206.11,206.361,207.692,"[-0.08285352358441635,0.030315085278964]","[1,1,1]","[-0.13961932122989465,-0.09290367635472785]","[-1,-1,-1]","[-0.13030743447735196,0.04611800284037133]","[-1,-1,-1]","[0.11876783336511529,0.0003653028720881657]","[1,1,1]","[0.09320771054779653,-0.07301392286751095]","[1,1,1]","[0.053197653653204564,-0.15529291271325793]","[-1,-1,-1]","[-0.06971452202271285,0.08488319336450871]","[1,1,1]","[-0.027540604418291287,-0.014008260337671817]","[1,1,1]","[-0.03823166551441032,0.027859535030725743]","[1,1,1]","[-0.09168673550984097,-0.11715963815738713]","[1,1,1]","[-0.1476208356690849,-0.021727850854073815]","[-1,-1,-1]","[-0.010070275110890078,-0.16107819172371257]","[-1,-1,-1]","[-0.10269057584444778,0.12257836888629244]","[-1,-1,-1]","[-0.1905605879068963,0.05266568038459775]","[1,1,1]","[0.05887574436022036,0.03507411024028105]","[1,1,1]","[0.16117875525034792,0.10851631152658019]","[-1,-1,-1]","[-0.06624114106349192,0.1427476817776383]","[-1,-1,-1]","[0.016787527672460556,0.004957236403064745]","[1,1,1]","[0.03206586743054654,-0.09931173408440579]","[1,1,1]","[-0.12116503766068858,-0.05401808135410733]","[1,1,1]","[-0.018287095061103344,-0.08021868380090443]","[1,1,1]","[0.018541534146919482,0.12708183402827616]","[-1,-1,-1]","[0.17213655740452471,-0.07838125077541867]","[1,1,1]","[0.07646308885129809,0.15492327441514453]","[-1,-1,-1]","[-0.09286319573108531,-0.16902161828475779]","[-1,-1,-1]","[0.06765628664242866,-0.026072733323220583]","[1,1,1]","[0.1732801750010433,0.06342566356149953]","[-1,-1,-1]","[-0.0451636907139969,-0.18634412522822447]","[1,1,1]","[-0.055385901841512604,-0.13901488357992198]","[1,1,1]","[-0.013955077942377554,0.07587214564596592]","[-1,-1,-1]","[0.036385792435878334,0.1858586689467159]","[1,1,1]","[0.01624227407800593,-0.19424226703935019]","[-1,-1,-1]","[0.02,0.02]",208.794,0,29,29,140,1,,,,,,,
,,,,,,,5be2172e8a2c800001624f31,682db47c39ca23204937ef1e,2025-05-21_13h14.17.413,cuing_paradigm_dot,2024.1.5,Win32,59.95203837,682d556593cb38ad0a074487,,,,,,,,,,,208.795,209.294,,,209.544,210.528,left,0.969,,,,,,,,,0.45,,,,,,209.294,209.544,210.528,"[-0.13481117951977994,0.10516349594938758]","[1,1,1]","[-0.011383699826562876,-0.0745708372802084]","[-1,-1,-1]","[-0.019660118067537136,0.19535797246511336]","[-1,-1,-1]","[0.028030243967132218,0.030510336385416267]","[1,1,1]","[0.029143025092129664,0.18971580339844635]","[-1,-1,-1]","[0.0824980862053908,0.07158376758203384]","[-1,-1,-1]","[-0.17985501881058008,-0.012590859798946204]","[1,1,1]","[0.030027612840637243,0.12335638865674775]","[1,1,1]","[-0.04962898619853686,0.003468295629364238]","[-1,-1,-1]","[-0.09683194895842039,-0.12503934255033777]","[1,1,1]","[-0.019410348330893123,0.073768704517269]","[-1,-1,-1]","[-0.08798945551185854,0.11312101406601588]","[-1,-1,-1]","[0.11521100962025028,0.16125315803244358]","[-1,-1,-1]","[0.044689412031248786,-0.11969622459458643]","[-1,-1,-1]","[-0.07591981145031947,-0.0735295359687738]","[-1,-1,-1]","[0.004234435370595209,-0.010820327078191331]","[-1,-1,-1]","[0.06151715293026117,-0.06535771809528194]","[1,1,1]","[-0.009670136570532915,0.1484366282854761]","[1,1,1]","[0.17268607207859452,-0.0582483472896896]","[1,1,1]","[-0.10115698864778996,-0.024633680427156066]","[1,1,1]","[0.057093142082484866,0.15304074961265554]","[-1,-1,-1]","[0.08506254958254451,-0.10988644107109156]","[-1,-1,-1]","[0.17393630302329305,0.009309365833789541]","[-1,-1,-1]","[0.05687805561826266,-0.18044171601689402]","[1,1,1]","[-0.031687454002426986,-0.19405160367615884]","[1,1,1]","[-0.020210219407180374,-0.15285556850376253]","[1,1,1]","[-0.1825502071773289,-0.07502133005393488]","[-1,-1,-1]","[-0.10735998107697449,0.036671040336545925]","[1,1,1]","[0.11626732680243759,-0.02326670744767578]","[-1,-1,-1]","[0.05479541825356196,-0.017492515410395818]","[-1,-1,-1]","[0.13985270114955817,0.09317545346581325]","[-1,-1,-1]","[-0.13876474752261123,-0.039655980359472695]","[1,1,1]","[0.02,0.02]",211.634,0,30,30,85,1,,,,,,,
,,,,,,,5be2172e8a2c800001624f31,682db47c39ca23204937ef1e,2025-05-21_13h14.17.413,cuing_paradigm_dot,2024.1.5,Win32,59.95203837,682d556593cb38ad0a074487,,,,,,,,,,,211.635,212.127,,,212.377,212.727,left,0.328,,,,,,,,,0.1,,,,,,212.127,212.377,212.727,"[0.05564436752747587,0.06871107803689057]","[-1,-1,-1]","[0.08329466572819988,0.1088880427892535]","[1,1,1]","[0.06135854086452321,-0.12944806683237048]","[-1,-1,-1]","[-0.051880819159165786,-0.12160522977985766]","[-1,-1,-1]","[-0.015034105357196643,-0.1866778586577627]","[-1,-1,-1]","[-0.04944887672037105,0.1631625235295083]","[-1,-1,-1]","[0.0067501657393610375,-0.11671845816977004]","[-1,-1,-1]","[0.1696635181435893,0.10293419572448868]","[-1,-1,-1]","[0.09848439139568424,-0.11282181723063488]","[-1,-1,-1]","[0.025319398151570364,-0.15762197874314557]","[-1,-1,-1]","[0.11230288296838012,-0.15734204945083885]","[-1,-1,-1]","[0.012152831892752949,0.12168675183034221]","[-1,-1,-1]","[0.1267766099690896,0.11074001226729202]","[1,1,1]","[-0.1935226278684035,0.029852694746921905]","[-1,-1,-1]","[-0.09380097761016924,-0.016848448960468713]","[-1,-1,-1]","[0.0970315217933517,-0.0363764098636852]","[-1,-1,-1]","[-0.13895542850163464,0.012438106685009317]","[-1,-1,-1]","[0.031884430005406084,0.1949562027260183]","[-1,-1,-1]","[0.16471699817173732,-0.10932162832261685]","[-1,-1,-1]","[0.17745647254429803,-0.04421297363033059]","[-1,-1,-1]","[-0.08583713870404418,-0.06125360472553725]","[-1,-1,-1]","[0.19162560659478317,0.02498308914538668]","[-1,-1,-1]","[-0.0235031662526418,0.06789953398478514]","[-1,-1,-1]","[0.07010119241488681,0.15736297609573446]","[-1,-1,-1]","[-0.06590692656608604,0.057093740074736624]","[-1,-1,-1]","[0.12864610642392132,0.03260201755598451]","[1,1,1]","[-0.10648190882702278,0.1547960113869214]","[-1,-1,-1]","[-0.05305826201199732,0.11371789386440428]","[-1,-1,-1]","[-0.12536918763701962,-0.05331861711856764]","[-1,-1,-1]","[-0.032357489092961614,0.01764356815371838]","[-1,-1,-1]","[-0.014600095412719555,-0.0802375267835046]","[-1,-1,-1]","[-0.17000303731278205,-0.09824244950635226]","[-1,-1,-1]","[0.02,0.02]",213.827,0,31,31,6,1,,,,,,,
,,,,,,,5be2172e8a2c800001624f31,682db47c39ca23204937ef1e,2025-05-21_13h14.17.413,cuing_paradigm_dot,2024.1.5,Win32,59.95203837,682d556593cb38ad0a074487,,,,,,,,,,,213.827,214.327,,,214.578,215.001,right,0.411,,,,,,,,,0.6,,,,,,214.327,214.577,215.001,"[0.04218063847965183,-0.021992025719495954]","[1,1,1]","[-0.019098422461994665,0.04015830704376308]","[-1,-1,-1]","[-0.13868264225002605,-0.023559417107929127]","[-1,-1,-1]","[0.005064384928913564,0.07445809856677922]","[-1,-1,-1]","[0.03736782061613554,0.1909038292116125]","[1,1,1]","[-0.07865265379843203,-0.08058972104148192]","[1,1,1]","[-0.1780142839301341,0.009626727326056152]","[-1,-1,-1]","[0.16696670287963036,0.025881721863611058]","[1,1,1]","[0.06634353246958141,0.14111027131586412]","[-1,-1,-1]","[-0.11110254698974811,0.1097161724328414]","[1,1,1]","[-0.10413005242944046,0.024000726609216226]","[1,1,1]","[-0.042288832875711904,-0.043336896201795136]","[1,1,1]","[0.025052662065096258,0.021735875819628974]","[-1,-1,-1]","[0.14146703575901376,-0.0954208949757593]","[-1,-1,-1]","[-0.08280542409359086,-0.030018627458857836]","[1,1,1]","[0.06955226061724729,-0.10786245810698701]","[1,1,1]","[-0.09988189479893966,-0.1626299402251756]","[-1,-1,-1]","[0.1661143988720618,0.09085016067612765]","[1,1,1]","[0.013985721861582062,0.11861873880136402]","[1,1,1]","[-0.15359329418537598,0.050785796101929744]","[-1,-1,-1]","[-0.06919604872684379,0.1329014046168413]","[1,1,1]","[0.10853809361753022,0.14339911420052875]","[1,1,1]","[0.11409699038454599,-0.15365364579216476]","[1,1,1]","[0.11163828990089317,0.09362672884162206]","[1,1,1]","[-0.015052138845926072,-0.16315587637824353]","[-1,-1,-1]","[-0.020250376623160232,-0.08515907909326291]","[-1,-1,-1]","[0.015309308259250738,-0.12984088273666314]","[-1,-1,-1]","[0.036651302286595876,-0.07025204609651947]","[1,1,1]","[0.10771323360926063,0.05238162744920585]","[1,1,1]","[0.11765649236669687,-0.01197977273037357]","[1,1,1]","[0.19798618368458243,-0.019194215370870175]","[-1,-1,-1]","[-0.0483381021490754,-0.0013662018532209495]","[1,1,1]","[0.02,0.02]",216.092,0,32,32,162,1,,,,,,,
,,,,,,,5be2172e8a2c800001624f31,682db47c39ca23204937ef1e,2025-05-21_13h14.17.413,cuing_paradigm_dot,2024.1.5,Win32,59.95203837,682d556593cb38ad0a074487,,,,,,,,,,,216.093,216.591,,,216.842,217.56,right,0.701,,,,,,,,,0.55,,,,,,216.591,216.842,217.56,"[-0.10857459155975628,-0.10560104723143746]","[-1,-1,-1]","[-0.05659607415767301,0.08785247815361205]","[-1,-1,-1]","[0.05106928237526513,0.11728851878414957]","[1,1,1]","[0.10688971338189249,0.08681285684031825]","[-1,-1,-1]","[0.08859684302470162,0.1604646975261402]","[-1,-1,-1]","[0.15458862250669772,0.07399193574399797]","[1,1,1]","[0.0979071877116718,0.002765171484979935]","[1,1,1]","[0.15495008150134176,0.02928411218635182]","[-1,-1,-1]","[-0.06734250132353495,0.15871428275871038]","[-1,-1,-1]","[0.04169577245128193,0.1951582521440555]","[-1,-1,-1]","[0.12064813668972872,-0.15914442539572557]","[1,1,1]","[0.07093590674357045,-0.13465774481173212]","[1,1,1]","[0.031637744166793304,0.02221898549744599]","[-1,-1,-1]","[-0.13716353472078943,0.017510556612405446]","[1,1,1]","[-0.047296614718283586,-0.005785256471281565]","[1,1,1]","[-0.13570308181207064,0.13429546439040682]","[1,1,1]","[-0.17008448199655785,0.10010759450043606]","[-1,-1,-1]","[-0.06921699486420735,-0.08737158358373825]","[-1,-1,-1]","[-0.03139499500128598,0.03496778174409584]","[1,1,1]","[-0.026112763953583962,-0.19446667474266124]","[1,1,1]","[0.0033934523131313845,-0.1495054553299042]","[-1,-1,-1]","[-0.06416153276615141,-0.17546073739858026]","[1,1,1]","[0.12151404964833346,-0.10086091564456375]","[1,1,1]","[0.09291634670868298,0.04320209633872746]","[-1,-1,-1]","[0.002781696542767107,0.14010573692410674]","[1,1,1]","[-0.15751732659061787,-0.0820147569753607]","[-1,-1,-1]","[-0.02471507867008701,0.18392210977890341]","[1,1,1]","[0.148820519576901,-0.03729960378305785]","[-1,-1,-1]","[0.020204487993280878,0.07353684426218164]","[1,1,1]","[0.028328845800387838,-0.11234081002883874]","[1,1,1]","[-0.1122771398272562,-0.04230993480300982]","[1,1,1]","[-0.09654416351067482,0.058185262183232556]","[1,1,1]","[0.02,0.02]",218.658,0,33,33,144,1,,,,,,,
,,,,,,,5be2172e8a2c800001624f31,682db47c39ca23204937ef1e,2025-05-21_13h14.17.413,cuing_paradigm_dot,2024.1.5,Win32,59.95203837,682d556593cb38ad0a074487,,,,,,,,,,,218.659,219.158,,,219.411,219.784,right,0.359,,,,,,,,,0.9,,,,,,219.158,219.411,219.784,"[0.10966624112713719,-0.1627215294950909]","[1,1,1]","[-0.1183741999952063,0.056875388113573885]","[1,1,1]","[0.0006173783583482126,-0.04102306200523915]","[1,1,1]","[-0.1128111272545327,0.007961183409839282]","[1,1,1]","[0.05434554918498702,0.07476203576516481]","[1,1,1]","[0.06037428435382957,-0.010155043229261442]","[1,1,1]","[0.1394223448937333,-0.08178084001964418]","[1,1,1]","[-0.13012625843933337,-0.08090631085975576]","[1,1,1]","[-0.014084126322396567,0.0712602899878101]","[1,1,1]","[-0.05277670597052282,-0.08663283861026945]","[1,1,1]","[-0.03545340768146377,-0.1761346164900127]","[1,1,1]","[0.0818005812473578,0.026358131006522]","[-1,-1,-1]","[0.19682943599364489,-0.010550633396848067]","[1,1,1]","[-0.07314885571726315,-0.009141581882497373]","[1,1,1]","[0.15898318291910454,0.06946474696254876]","[1,1,1]","[-0.05558047539295755,0.09861352133855161]","[-1,-1,-1]","[0.02119055248151789,0.10627990967512164]","[1,1,1]","[0.11581187403117219,0.05483443679027361]","[1,1,1]","[0.08804587274214637,0.17547665270214902]","[1,1,1]","[0.04955381498702945,-0.15186565847815808]","[1,1,1]","[-0.004578902260896287,0.030584815522586753]","[1,1,1]","[-0.09531279786372267,-0.1687045431266417]","[1,1,1]","[-0.1601207419518935,-0.04161142550069548]","[1,1,1]","[-0.004368656065953394,0.1998945660585051]","[1,1,1]","[0.12305902829774998,0.1230923089532533]","[1,1,1]","[0.010298788324464696,-0.08447021697143248]","[1,1,1]","[0.03162112036735471,0.15336737969492473]","[-1,-1,-1]","[-0.06899621323524963,0.14735405575290061]","[1,1,1]","[-0.19061951662077878,0.05751679358134754]","[1,1,1]","[-0.09755294580738418,-0.12184765047096079]","[1,1,1]","[0.18515935797122726,-0.07539902615215284]","[1,1,1]","[0.13752131701619832,0.016141882191153503]","[1,1,1]","[0.02,0.02]",220.873,0,34,34,190,1,,,,,,,
,,,,,,,5be2172e8a2c800001624f31,682db47c39ca23204937ef1e,2025-05-21_13h14.17.413,cuing_paradigm_dot,2024.1.5,Win32,59.95203837,682d556593cb38ad0a074487,,,,,,,,,,,220.874,221.377,,,221.627,221.961,right,0.316,,,,,,,,,0.9,,,,,,221.377,221.627,221.961,"[-0.03838750603194653,0.1285882140231429]","[1,1,1]","[0.05369811515854462,-0.06977195788708011]","[1,1,1]","[-0.019437350877056395,-0.060631586038264414]","[-1,-1,-1]","[0.1963485809435349,-0.018150660268046324]","[1,1,1]","[0.0830911472507972,0.03666879207458138]","[1,1,1]","[0.17204833504614397,0.07733517612745094]","[1,1,1]","[-0.13911569022871245,0.1399215086134853]","[1,1,1]","[-0.12823053989113287,-0.04085328641348897]","[1,1,1]","[0.14052446678018052,-0.13360801698356597]","[1,1,1]","[-0.01725888357416043,-0.1792358889042328]","[1,1,1]","[0.05853730417892733,-0.16310289552931145]","[1,1,1]","[0.12525708220008233,0.018011698111322545]","[1,1,1]","[-0.1714641026376252,0.019187853719364968]","[1,1,1]","[-0.07481974218398436,0.02745955685017558]","[1,1,1]","[0.13329064682621022,-0.09203445611297738]","[1,1,1]","[0.02665248995987871,-0.12885293411270088]","[1,1,1]","[-0.058861687854433284,0.07878158243313577]","[1,1,1]","[0.05943178063657401,0.08687088271802136]","[-1,-1,-1]","[-0.12478302967655483,-0.13255867959716652]","[1,1,1]","[0.1233549866557487,-0.035318237509812826]","[1,1,1]","[-0.1799976366940683,-0.03807869787256179]","[1,1,1]","[0.0226772422103168,-0.18742126528749642]","[-1,-1,-1]","[0.0006170998142570117,0.19956505817246747]","[1,1,1]","[-0.007176704352905575,0.004937385914574046]","[1,1,1]","[-0.04556739749451585,-0.09371029683821998]","[1,1,1]","[-0.011639724477157165,0.049311919213005415]","[1,1,1]","[0.1438704564875744,0.11042498595085476]","[1,1,1]","[-0.06917192967112118,0.18189204025210637]","[1,1,1]","[-0.11953513118744764,0.044464126487565044]","[1,1,1]","[-0.17445914843273014,0.09136031842483874]","[1,1,1]","[-0.0916361297037791,0.13895152632388472]","[1,1,1]","[0.03327862425765803,0.039277671734595364]","[1,1,1]","[0.02,0.02]",223.05,0,35,35,197,1,,,,,,,
,,,,,,,5be2172e8a2c800001624f31,682db47c39ca23204937ef1e,2025-05-21_13h14.17.413,cuing_paradigm_dot,2024.1.5,Win32,59.95203837,682d556593cb38ad0a074487,,,,,,,,,,,223.05,223.541,,,223.793,224.391,right,0.575,,,,,,,,,0.6,,,,,,223.541,223.793,224.391,"[0.09081936720291972,-0.057039078457298366]","[1,1,1]","[0.1127502056669193,0.010120636226226574]","[-1,-1,-1]","[0.1468154540750805,0.10519373144653008]","[-1,-1,-1]","[0.11391319862204416,-0.10233394756458185]","[1,1,1]","[-0.03518299214666348,-0.12260058442387943]","[-1,-1,-1]","[0.19237709376704476,-0.017490309258460904]","[1,1,1]","[0.05393215368140676,-0.10319386583411533]","[1,1,1]","[0.17381172937777956,0.02461622844553899]","[1,1,1]","[-0.10820910231960887,-0.11584926573312802]","[1,1,1]","[-0.043758699111042514,-0.19025642467134882]","[1,1,1]","[-0.055898159387266055,-0.026062277678277568]","[1,1,1]","[-0.044926347457757095,0.18527272560762165]","[-1,-1,-1]","[0.07090553993249803,0.10178242441472649]","[1,1,1]","[0.0381008788661951,0.13569954088884864]","[1,1,1]","[0.0919568419219643,-0.17445824967661827]","[1,1,1]","[-0.1705745256322897,0.017939627649261602]","[1,1,1]","[0.016276289015218,-0.050194083077750896]","[-1,-1,-1]","[0.0457755124046408,0.17753972007048263]","[-1,-1,-1]","[0.11568962646358007,0.05110297545638083]","[-1,-1,-1]","[-0.09244391262992778,-0.07784841529520231]","[1,1,1]","[-0.015364642056670335,0.11387374403926716]","[1,1,1]","[-0.16790510063669348,0.0660113792003352]","[-1,-1,-1]","[-0.08205152794854231,0.04567519732844024]","[1,1,1]","[0.033994978766475926,-0.16020019655149506]","[1,1,1]","[-0.16671376228295076,-0.062413472746834134]","[-1,-1,-1]","[-0.00713662076003362,-0.17270063952060863]","[1,1,1]","[-0.06163647825859741,0.11900128154234901]","[-1,-1,-1]","[0.04136105328165548,0.015052303445873171]","[-1,-1,-1]","[0.01483730756511887,0.045373062779656206]","[-1,-1,-1]","[0.00195541083468244,0.1974033534773592]","[1,1,1]","[-0.1149574363291369,0.0801662033298666]","[1,1,1]","[-0.11766870626432951,-0.03414937511046401]","[-1,-1,-1]","[0.02,0.02]",225.496,0,36,36,170,1,,,,,,,
,,,,,,,5be2172e8a2c800001624f31,682db47c39ca23204937ef1e,2025-05-21_13h14.17.413,cuing_paradigm_dot,2024.1.5,Win32,59.95203837,682d556593cb38ad0a074487,,,,,,,,,,,225.498,225.994,,,226.238,226.745,left,0.483,,,,,,,,,0.45,,,,,,225.994,226.237,226.745,"[-0.051319179016073295,-0.10046806923332696]","[1,1,1]","[-0.035019435931121334,0.16225524295859403]","[-1,-1,-1]","[-0.08482557451995514,0.13884640069412701]","[-1,-1,-1]","[-0.1477022924897393,-0.07433463256209291]","[-1,-1,-1]","[-0.17446717487489402,-0.01784187746616338]","[-1,-1,-1]","[0.1494168848458961,0.04293713230813477]","[-1,-1,-1]","[-0.08589569234452125,-0.030737983336236827]","[-1,-1,-1]","[-0.0824289785614907,0.035866585981939175]","[-1,-1,-1]","[0.09170027109992661,-0.1770792394368024]","[-1,-1,-1]","[0.15092264413945677,-0.09539675331728444]","[1,1,1]","[0.03173511885076201,0.020944395438116516]","[1,1,1]","[-0.016235186140202165,0.010831828632011964]","[-1,-1,-1]","[0.0046341182849113935,0.06504330931998255]","[1,1,1]","[0.11668377350785117,-0.06807464785652334]","[-1,-1,-1]","[0.010330598481173696,-0.04838817588683418]","[1,1,1]","[-0.04621538536083292,0.06732362377501883]","[-1,-1,-1]","[-0.03060761553534815,-0.032905338866595975]","[-1,-1,-1]","[-0.12501337108208302,-0.005833665244153331]","[1,1,1]","[0.1817556264006764,-0.06315518744819153]","[1,1,1]","[0.14640205934796363,-0.015404881490289284]","[-1,-1,-1]","[0.12298329965222857,0.15606504382977807]","[-1,-1,-1]","[0.0528457322899499,-0.016640374617694322]","[-1,-1,-1]","[0.04738639970582077,-0.11233919046065273]","[1,1,1]","[0.050929632285478345,-0.06600685698490688]","[-1,-1,-1]","[-0.11004321175987357,-0.0962489155789565]","[1,1,1]","[0.1527190731138926,0.11249972923120077]","[1,1,1]","[0.0335730703895491,0.1002850123523725]","[1,1,1]","[-0.08218841951960724,-0.15560926919098966]","[1,1,1]","[0.11545621340610814,0.02079120275703543]","[1,1,1]","[-0.14899358090114237,0.11452535964273414]","[1,1,1]","[0.0874309608331616,-0.10405504280712013]","[-1,-1,-1]","[-0.044447947304980785,0.11190615442171975]","[-1,-1,-1]","[0.02,0.02]",227.849,0,37,37,62,1,,,,,,,
,,,,,,,5be2172e8a2c800001624f31,682db47c39ca23204937ef1e,2025-05-21_13h14.17.413,cuing_paradigm_dot,2024.1.5,Win32,59.95203837,682d556593cb38ad0a074487,,,,,,,,,,,227.85,228.345,,,228.592,229.393,left,0.786,,,,,,,,,0.1,,,,,,228.345,228.592,229.393,"[-0.16732924648422268,0.07030458422401652]","[-1,-1,-1]","[-0.0392605818734974,-0.03871948916048533]","[-1,-1,-1]","[0.1745705447692355,0.07448968316008475]","[-1,-1,-1]","[0.08648866776321834,-0.012138893363357004]","[-1,-1,-1]","[-0.09605579874975007,0.04215705522869624]","[-1,-1,-1]","[-0.1336496418586498,-0.1462447500035068]","[-1,-1,-1]","[0.09011006286759571,0.0990746700461208]","[-1,-1,-1]","[0.019713899464104546,0.18652843301623326]","[-1,-1,-1]","[0.1737802217200683,-0.005467454744768595]","[1,1,1]","[-0.008174601517960208,-0.10840211505010534]","[-1,-1,-1]","[-0.12620044219036458,0.10466978834842859]","[-1,-1,-1]","[-0.06982869205264827,-0.006348331799750072]","[-1,-1,-1]","[-0.0302948991073904,0.15005551413748888]","[-1,-1,-1]","[-0.1570157011176869,-0.004702043904713227]","[-1,-1,-1]","[0.13475407581699683,0.04355835566332608]","[-1,-1,-1]","[-0.05014273615509928,0.10626531064371862]","[-1,-1,-1]","[0.10789663436050538,-0.10699490863329023]","[-1,-1,-1]","[0.07153421069672235,-0.17191421931685283]","[-1,-1,-1]","[-0.07371435046803657,-0.13383738789248403]","[-1,-1,-1]","[0.19348425355003154,0.03259128191775986]","[1,1,1]","[-0.08857332933534454,-0.0679010532457218]","[-1,-1,-1]","[0.09292783876247236,-0.05695454434365581]","[-1,-1,-1]","[-0.001831475919355068,0.05657606466609808]","[-1,-1,-1]","[0.13330206438952144,0.08674277307512189]","[1,1,1]","[0.06477319974529712,-0.12271333211323256]","[-1,-1,-1]","[0.15552536844517062,-0.11243437829605005]","[-1,-1,-1]","[-0.03820195600298129,-0.16637788955547395]","[-1,-1,-1]","[-0.1317270783306822,-0.08436938395067786]","[-1,-1,-1]","[0.06760104087737097,0.13674159542891928]","[-1,-1,-1]","[-0.10297383053765756,-0.02899060461003325]","[-1,-1,-1]","[0.022073781248809467,-0.06956176803284109]","[-1,-1,-1]","[0.07404685465547331,0.059387475292702864]","[-1,-1,-1]","[0.02,0.02]",230.492,0,38,38,18,1,,,,,,,
,,,,,,,5be2172e8a2c800001624f31,682db47c39ca23204937ef1e,2025-05-21_13h14.17.413,cuing_paradigm_dot,2024.1.5,Win32,59.95203837,682d556593cb38ad0a074487,,,,,,,,,,,230.493,230.991,,,231.229,232.3,left,1.059,,,,,,,,,0.5,,,,,,230.991,231.229,232.3,"[0.028554464512598462,0.14621881509876844]","[-1,-1,-1]","[-0.09715262329749698,0.035640858105471955]","[1,1,1]","[-0.1208966489127881,0.1063229094771963]","[1,1,1]","[0.038339718014810974,-0.18543124475735479]","[-1,-1,-1]","[-0.12316224235960824,-0.0011701944275739516]","[1,1,1]","[-0.03944248215693435,0.06467770493277465]","[1,1,1]","[-0.07140798982725491,-0.17206466433596218]","[-1,-1,-1]","[0.06167795547374143,0.12003153979281476]","[-1,-1,-1]","[-0.007858822402495875,0.11547804856232713]","[-1,-1,-1]","[-0.0065217746988340715,0.182172310014452]","[1,1,1]","[0.03824684886581539,-0.1452698775305728]","[1,1,1]","[0.16290810462814304,-0.050063286911237646]","[1,1,1]","[-0.01563036387231138,-0.15116703416160102]","[1,1,1]","[-0.019608151526982608,-0.07253239511994075]","[-1,-1,-1]","[0.12601724090518718,0.060331481187960355]","[1,1,1]","[0.05915517188539001,-0.0910589069523845]","[-1,-1,-1]","[-0.17584638545497905,-0.017006007915235846]","[-1,-1,-1]","[0.024406625006235312,0.05346920321829067]","[-1,-1,-1]","[0.15624701803203125,-0.10525348958540565]","[-1,-1,-1]","[-0.10973198742271399,0.14842976453068688]","[1,1,1]","[-0.07960055673459861,-0.07710756547070585]","[-1,-1,-1]","[0.11164902424828778,-0.11422500539739432]","[-1,-1,-1]","[0.07881928012023813,-0.04356241943276825]","[-1,-1,-1]","[-0.09872477035097968,-0.1229427819613413]","[1,1,1]","[0.02292071985331971,-0.06711647467248]","[-1,-1,-1]","[0.17191305548570912,0.055365371006392876]","[1,1,1]","[-0.19696903480074207,0.03188798011969926]","[1,1,1]","[-0.04322538547846941,0.005398127664206413]","[1,1,1]","[-0.005329479782184725,-0.0164628640696789]","[1,1,1]","[0.1278851097451462,-0.029166822009620997]","[1,1,1]","[0.14811070381380723,0.11664135535928642]","[-1,-1,-1]","[-0.1294095963381372,-0.06068407497915907]","[-1,-1,-1]","[0.02,0.02]",233.392,0,39,39,113,1,,,,,,,
,,,,,,,5be2172e8a2c800001624f31,682db47c39ca23204937ef1e,2025-05-21_13h14.17.413,cuing_paradigm_dot,2024.1.5,Win32,59.95203837,682d556593cb38ad0a074487,,,,,,,,,,,233.393,233.894,,,234.144,234.743,right,0.579,,,,,,,,,0.6,,,,,,233.894,234.144,234.744,"[0.008640278776216107,-0.1880114349838891]","[1,1,1]","[-0.1588956297980204,-0.11600263261804143]","[1,1,1]","[0.027538401652504423,0.040027314952302856]","[1,1,1]","[0.026581150658031422,0.13725291111665439]","[-1,-1,-1]","[0.11397996654299941,-0.10119707805284783]","[-1,-1,-1]","[-0.17649211973887352,0.049529720405354756]","[1,1,1]","[-0.16887098564251324,-0.024964906936434685]","[1,1,1]","[0.09330059701342161,0.09080993959337637]","[1,1,1]","[0.04416844353234852,-0.16278281799979305]","[1,1,1]","[-0.0057772141388964995,-0.03649992586550701]","[-1,-1,-1]","[0.08007433308785794,-0.06163460831559579]","[-1,-1,-1]","[0.13124742458285635,0.07781886481298542]","[-1,-1,-1]","[-0.039208538784911644,-0.12456054948265209]","[-1,-1,-1]","[-0.05179683244713624,0.12119331544520405]","[-1,-1,-1]","[0.017041605520408065,0.09642762150660496]","[-1,-1,-1]","[-0.12596508882175667,-0.007625538793356707]","[1,1,1]","[-0.019205693547439787,0.16033819336016827]","[1,1,1]","[0.19399083860670413,-0.03089848744146293]","[-1,-1,-1]","[0.08952609530885586,-0.1343454139036923]","[1,1,1]","[-0.12393415233450028,0.07762783331869777]","[1,1,1]","[0.037249297249712994,-0.02335224339463756]","[1,1,1]","[0.121616942542135,-0.03154142022319137]","[1,1,1]","[-0.1703378870738513,-0.06589875999637805]","[1,1,1]","[0.08723318271542245,0.17257080283069523]","[1,1,1]","[0.15106527406287656,0.04061555183125237]","[-1,-1,-1]","[0.08924220556651202,0.015345789099091104]","[-1,-1,-1]","[-0.10580831059852684,-0.1011393835730215]","[1,1,1]","[0.17458224143096182,-0.06617990496275675]","[-1,-1,-1]","[-0.14705306319556863,0.1317368017410627]","[-1,-1,-1]","[-0.08952516018861204,0.16338441502386733]","[1,1,1]","[-0.03824814894566138,0.012672205865926905]","[1,1,1]","[-0.03059020442094942,-0.16635941688713587]","[1,1,1]","[0.02,0.02]",235.841,0,40,40,172,1,,,,,,,
,,,,,,,5be2172e8a2c800001624f31,682db47c39ca23204937ef1e,2025-05-21_13h14.17.413,cuing_paradigm_dot,2024.1.5,Win32,59.95203837,682d556593cb38ad0a074487,,,,,,,,,,,235.843,236.35,,,236.592,237.459,left,0.852,,,,,,,,,0.45,,,,,,236.35,236.591,237.459,"[-0.0034475549250609734,0.15236791661930824]","[-1,-1,-1]","[0.005149124473069424,0.10167425692149147]","[-1,-1,-1]","[0.1867944380600118,0.030010350989324246]","[-1,-1,-1]","[0.12056521927456619,0.08468307630346102]","[1,1,1]","[-0.11691310693516341,-0.10924513173916273]","[-1,-1,-1]","[-0.14908334669981563,-0.050327065285802254]","[-1,-1,-1]","[-0.1697394735139932,0.05743583081197531]","[-1,-1,-1]","[-0.06604749934863251,-0.0620320087244263]","[1,1,1]","[0.014718930780068877,-0.043952726924524406]","[-1,-1,-1]","[-0.04108018380803163,0.10070691000558489]","[-1,-1,-1]","[0.0779082736940692,0.10181763121530392]","[1,1,1]","[0.11809748424684814,-0.12335018061343421]","[1,1,1]","[0.0669501712840253,-0.00996539861526305]","[-1,-1,-1]","[-0.07443280030590867,-0.10959893115323183]","[-1,-1,-1]","[0.046281951494427764,0.05076387314555951]","[1,1,1]","[-0.05488743783515618,0.18788332853066983]","[1,1,1]","[0.08002167012995667,-0.15907720329256592]","[-1,-1,-1]","[-0.1273116914345196,0.0014541300666890398]","[-1,-1,-1]","[-0.03080668155750659,-0.170253656467193]","[1,1,1]","[-0.0268356410898732,-0.05404489059811786]","[-1,-1,-1]","[0.03195990069799405,-0.09974641517457666]","[-1,-1,-1]","[0.1355716912510359,0.0006850169944577615]","[1,1,1]","[-0.05786313175452605,0.06162218689842647]","[-1,-1,-1]","[0.04393775212028809,0.14462591488755883]","[1,1,1]","[0.08293122478639003,0.171009032508122]","[1,1,1]","[0.16362710743946415,-0.07387024272330348]","[1,1,1]","[-0.031837283810605174,-0.1224360989699087]","[-1,-1,-1]","[-0.037877945524583345,0.005698183259131727]","[-1,-1,-1]","[0.12948256413804218,0.042438967477635293]","[1,1,1]","[-0.13058568771118229,0.08785947595431855]","[1,1,1]","[-0.12288708472917947,0.04241427514123292]","[-1,-1,-1]","[0.008336312818950559,0.0004080663147063729]","[1,1,1]","[0.02,0.02]",238.559,0,41,41,74,1,,,,,,,
,,,,,,,5be2172e8a2c800001624f31,682db47c39ca23204937ef1e,2025-05-21_13h14.17.413,cuing_paradigm_dot,2024.1.5,Win32,59.95203837,682d556593cb38ad0a074487,,,,,,,,,,,238.56,239.061,,,239.315,239.91,right,0.579,,,,,,,,,0.6,,,,,,239.061,239.315,239.91,"[0.13397981354504437,0.017137588740686435]","[-1,-1,-1]","[-0.03086926661117113,0.08330055330055701]","[1,1,1]","[0.029470338759892415,-0.08016011504524792]","[-1,-1,-1]","[0.10653646703686484,-0.12751328759461306]","[1,1,1]","[-0.025615975639316765,-0.029759073486500236]","[1,1,1]","[0.12676720696411975,-0.07420323723016059]","[1,1,1]","[0.14297683924016122,0.09273075749135304]","[1,1,1]","[-0.09607848272447654,-0.0660852855360129]","[-1,-1,-1]","[0.04588426771865888,-0.19011219969019308]","[1,1,1]","[-0.08016757043569102,-0.16392094374778773]","[-1,-1,-1]","[0.060548078779010486,0.03620797318088356]","[1,1,1]","[-0.1279927271735547,-0.1244104196366604]","[-1,-1,-1]","[0.1143394265325659,0.14382643707042725]","[1,1,1]","[-0.024280295584832183,-0.1333546625908332]","[1,1,1]","[0.09141516373368912,0.08775521181500821]","[1,1,1]","[-0.0043193862212935275,0.0073595154655004364]","[1,1,1]","[0.008226511501957058,-0.16941214363524687]","[-1,-1,-1]","[-0.09317606460792922,0.03526938850911084]","[1,1,1]","[0.00543111680119104,0.1544510281049113]","[-1,-1,-1]","[-0.18239915036252477,0.055817616051321524]","[-1,-1,-1]","[0.07580376826256892,0.1746909079968103]","[1,1,1]","[-0.10695044708374532,-0.01432349053392532]","[1,1,1]","[0.016449839520381607,0.11105456256375922]","[-1,-1,-1]","[0.09735339626875641,-0.002449438183388564]","[1,1,1]","[-0.12362459972600373,0.09057000278256147]","[-1,-1,-1]","[-0.02666263169625194,0.18516612917724976]","[1,1,1]","[-0.06418639554959245,0.16449855043270936]","[-1,-1,-1]","[-0.19088212754488212,-0.038501652125964646]","[1,1,1]","[-0.0395541972480174,0.04132463528808065]","[-1,-1,-1]","[-0.14111952027554017,-0.04549226250904997]","[-1,-1,-1]","[-0.10802493928058672,0.14764548240059733]","[1,1,1]","[0.07024090752981978,-0.10807333846168955]","[1,1,1]","[0.02,0.02]",241.009,0,42,42,164,1,,,,,,,
,,,,,,,5be2172e8a2c800001624f31,682db47c39ca23204937ef1e,2025-05-21_13h14.17.413,cuing_paradigm_dot,2024.1.5,Win32,59.95203837,682d556593cb38ad0a074487,,,,,,,,,,,241.009,241.508,,,241.758,242.759,right,0.985,,,,,,,,,0.6,,,,,,241.508,241.758,242.76,"[0.035025391350895885,0.08719688931678936]","[-1,-1,-1]","[0.02510114358521619,-0.029789514343967535]","[1,1,1]","[0.04558908463824527,0.15113951180033153]","[-1,-1,-1]","[-0.12983681510593406,-0.006803413870129147]","[-1,-1,-1]","[-0.016465961263931284,-0.13472344306652334]","[-1,-1,-1]","[-0.09741715320839904,-0.04896438114357714]","[1,1,1]","[-0.04171820004053826,0.04308854575066547]","[1,1,1]","[-0.0027049356029466053,0.13637705589681437]","[-1,-1,-1]","[-0.14066672041981382,0.1004598141961016]","[1,1,1]","[-0.07278181816042933,0.0042018888528470594]","[-1,-1,-1]","[-0.17075123492662864,0.0066379497249030375]","[1,1,1]","[-0.12727826218323732,-0.1384090956524117]","[1,1,1]","[-0.09961107457039418,0.03964255841797379]","[1,1,1]","[0.14318092058717743,-0.12525268610438575]","[1,1,1]","[-0.06715434490808733,0.07666604907521886]","[-1,-1,-1]","[-0.06686807815884915,-0.08165528878142787]","[1,1,1]","[0.13083699273851748,0.05868406316745004]","[-1,-1,-1]","[0.1027819568532422,-0.1276180172766939]","[-1,-1,-1]","[0.09421643636189146,0.16772719889975615]","[1,1,1]","[0.08528473909041905,-0.003840479744453555]","[1,1,1]","[-0.07619311759812183,0.1779643728154225]","[1,1,1]","[-0.0417950610451081,-0.1886287159174806]","[-1,-1,-1]","[0.14831963338476828,0.021800045245440634]","[1,1,1]","[-0.003076781969880952,0.012833815912168886]","[-1,-1,-1]","[0.13902548746588872,0.11907084775946704]","[1,1,1]","[0.0018674664794471184,-0.18860010043777428]","[1,1,1]","[0.020451178424793305,-0.10644611064890108]","[1,1,1]","[0.04933510750729355,-0.06924757711184823]","[-1,-1,-1]","[0.05577629524840664,-0.12865738568747392]","[-1,-1,-1]","[-0.11117274929511044,0.1372578415010575]","[1,1,1]","[0.1238295953238594,-0.02716592086480554]","[1,1,1]","[0.09275075560447874,-0.05244099517970344]","[1,1,1]","[0.02,0.02]",243.858,0,43,43,167,1,,,,,,,
,,,,,,,5be2172e8a2c800001624f31,682db47c39ca23204937ef1e,2025-05-21_13h14.17.413,cuing_paradigm_dot,2024.1.5,Win32,59.95203837,682d556593cb38ad0a074487,,,,,,,,,,,243.859,244.357,,,244.611,245.244,left,0.617,,,,,,,,,0.45,,,,,,244.357,244.611,245.244,"[-0.016603466392340678,0.11950257878761252]","[-1,-1,-1]","[-0.13032841537726195,0.1374329705098905]","[-1,-1,-1]","[0.06987338202051303,-0.12128398115215756]","[-1,-1,-1]","[-0.0653885093162781,0.061502317120720955]","[-1,-1,-1]","[-0.0213846312767752,-0.035552296901617576]","[-1,-1,-1]","[-0.0901791845084846,0.006542573986058015]","[-1,-1,-1]","[-0.08114658642461817,0.11523663793173668]","[1,1,1]","[-0.06683061978741506,-0.15086860462795224]","[1,1,1]","[0.0536486849758742,0.13229947084498664]","[1,1,1]","[0.11239136575936128,-0.12232164496250833]","[-1,-1,-1]","[0.0650201692162638,-0.07466504718493995]","[1,1,1]","[0.03253329764295305,0.005237260002125762]","[1,1,1]","[-0.022368345191318213,-0.1911424934272116]","[1,1,1]","[0.043949566985626506,-0.19272744918626578]","[1,1,1]","[0.15368541825602833,-0.06287127754576152]","[-1,-1,-1]","[0.15001403021681026,0.05792524666044034]","[1,1,1]","[-0.01389513310319098,0.05751252497007236]","[1,1,1]","[0.07592247963352379,0.025151295730336896]","[-1,-1,-1]","[-0.04493291527030103,-0.11230283772047235]","[1,1,1]","[-0.16147865030348593,-0.10421255040415932]","[-1,-1,-1]","[-0.13806176631443393,0.07830629420894057]","[-1,-1,-1]","[0.01011801738325811,-0.1658118811010129]","[1,1,1]","[0.11761656859137391,0.023510721438506008]","[1,1,1]","[0.18810077807968872,-0.005275249585486542]","[-1,-1,-1]","[0.1084865422699058,0.1370385672577889]","[-1,-1,-1]","[0.018626011716332557,-0.07870153929459207]","[-1,-1,-1]","[0.07564377376495597,0.16970284451431264]","[1,1,1]","[0.09432745761919364,-0.023606163893447368]","[-1,-1,-1]","[0.07290272573862536,0.07552785730381914]","[-1,-1,-1]","[-0.149571373009605,-0.031662612851212024]","[-1,-1,-1]","[-0.15396162231438415,0.040940937228791004]","[-1,-1,-1]","[0.025758247826570418,0.06400575138735659]","[1,1,1]","[0.02,0.02]",246.341,0,44,44,65,1,,,,,,,
