right,left,explain.started,explain.stopped,key_resp_3.keys,key_resp_3.rt,key_resp_3.duration,participant,session,date,expName,psychopyVersion,OS,frameRate,study_id,explain_2.started,explain_2.stopped,key_resp_4.keys,key_resp_4.rt,key_resp_4.duration,explain_3.started,explain_3.stopped,key_resp_5.keys,key_resp_5.rt,key_resp_5.duration,fixation.started,fixation.stopped,practice.started,practice.stopped,response.started,response.stopped,key_resp.keys,key_resp.rt,key_resp.duration,feedback.started,feedback.stopped,trials_2.thisRepN,trials_2.thisTrialN,trials_2.thisN,trials_2.thisIndex,trials_2.ran,white_ratio,explain_4.started,explain_4.stopped,key_resp_6.keys,key_resp_6.rt,key_resp_6.duration,dotDisplay.started,dotDisplay.stopped,ITI.started,polygon_1.pos,polygon_1.color,polygon_2.pos,polygon_2.color,polygon_3.pos,polygon_3.color,polygon_4.pos,polygon_4.color,polygon_5.pos,polygon_5.color,polygon_6.pos,polygon_6.color,polygon_7.pos,polygon_7.color,polygon_8.pos,polygon_8.color,polygon_9.pos,polygon_9.color,polygon_10.pos,polygon_10.color,polygon_11.pos,polygon_11.color,polygon_12.pos,polygon_12.color,polygon_13.pos,polygon_13.color,polygon_14.pos,polygon_14.color,polygon_15.pos,polygon_15.color,polygon_16.pos,polygon_16.color,polygon_17.pos,polygon_17.color,polygon_18.pos,polygon_18.color,polygon_19.pos,polygon_19.color,polygon_20.pos,polygon_20.color,polygon_21.pos,polygon_21.color,polygon_22.pos,polygon_22.color,polygon_23.pos,polygon_23.color,polygon_24.pos,polygon_24.color,polygon_25.pos,polygon_25.color,polygon_26.pos,polygon_26.color,polygon_27.pos,polygon_27.color,polygon_28.pos,polygon_28.color,polygon_29.pos,polygon_29.color,polygon_30.pos,polygon_30.color,polygon_31.pos,polygon_31.color,polygon_32.pos,polygon_32.color,dot_size,ITI.stopped,trials.thisRepN,trials.thisTrialN,trials.thisN,trials.thisIndex,trials.ran,break_2.started,break_2.stopped,trials_3.thisRepN,trials_3.thisTrialN,trials_3.thisN,trials_3.thisIndex,trials_3.ran
subject chose black,subject chose white,0.0006,21.4746,space,6.4502,0.0045,5c0004fc4210510001725547,682f0fc64b8b30d961a3d6c0,2025-05-22_13h52.02.525,cuing_paradigm_dot,2024.1.5,MacIntel,80.64516129,682d573fa47f1360d1451895,,,,,,,,,,,,,,,,,,,,,,,,,,,,,,,,,,,,,,,,,,,,,,,,,,,,,,,,,,,,,,,,,,,,,,,,,,,,,,,,,,,,,,,,,,,,,,,,,,,,,,,,,,,,,,,,,
,,,,,,,5c0004fc4210510001725547,682f0fc64b8b30d961a3d6c0,2025-05-22_13h52.02.525,cuing_paradigm_dot,2024.1.5,MacIntel,80.64516129,682d573fa47f1360d1451895,21.475,52.5912,space,1.1039,,,,,,,,,,,,,,,,,,,,,,,,,,,,,,,,,,,,,,,,,,,,,,,,,,,,,,,,,,,,,,,,,,,,,,,,,,,,,,,,,,,,,,,,,,,,,,,,,,,,,,,,,,,,,
,,,,,,,5c0004fc4210510001725547,682f0fc64b8b30d961a3d6c0,2025-05-22_13h52.02.525,cuing_paradigm_dot,2024.1.5,MacIntel,80.64516129,682d573fa47f1360d1451895,,,,,,52.5912,57.1698,space,1.5682,,,,,,,,,,,,,,,,,,,,,,,,,,,,,,,,,,,,,,,,,,,,,,,,,,,,,,,,,,,,,,,,,,,,,,,,,,,,,,,,,,,,,,,,,,,,,,,,,,,,,,,,
,,,,,,,5c0004fc4210510001725547,682f0fc64b8b30d961a3d6c0,2025-05-22_13h52.02.525,cuing_paradigm_dot,2024.1.5,MacIntel,80.64516129,682d573fa47f1360d1451895,,,,,,,,,,,57.2002,57.6759,57.6761,57.917,57.9172,58.9733,left,1.0285,,58.9735,60.0663,0,0,0,1,1,0.2,,,,,,,,,,,,,,,,,,,,,,,,,,,,,,,,,,,,,,,,,,,,,,,,,,,,,,,,,,,,,,,,,,,,,,,,,,,,,,,,,,,,,,
,,,,,,,5c0004fc4210510001725547,682f0fc64b8b30d961a3d6c0,2025-05-22_13h52.02.525,cuing_paradigm_dot,2024.1.5,MacIntel,80.64516129,682d573fa47f1360d1451895,,,,,,,,,,,60.067,60.5595,60.5596,60.7998,60.7999,61.1868,right,0.3774,,61.1869,62.281,0,1,1,0,1,0.8,,,,,,,,,,,,,,,,,,,,,,,,,,,,,,,,,,,,,,,,,,,,,,,,,,,,,,,,,,,,,,,,,,,,,,,,,,,,,,,,,,,,,,
,,,,,,,5c0004fc4210510001725547,682f0fc64b8b30d961a3d6c0,2025-05-22_13h52.02.525,cuing_paradigm_dot,2024.1.5,MacIntel,80.64516129,682d573fa47f1360d1451895,,,,,,,,,,,,,,,,,,,,,,,,,,,,62.2814,68.1689,space,2.877,,,,,,,,,,,,,,,,,,,,,,,,,,,,,,,,,,,,,,,,,,,,,,,,,,,,,,,,,,,,,,,,,,,,,,,,,,,,,,,,,,
,,,,,,,5c0004fc4210510001725547,682f0fc64b8b30d961a3d6c0,2025-05-22_13h52.02.525,cuing_paradigm_dot,2024.1.5,MacIntel,80.64516129,682d573fa47f1360d1451895,,,,,,,,,,,68.1862,68.6748,,,68.916,69.5297,right,0.6065,,,,,,,,,0.6,,,,,,68.6751,68.9159,69.5302,"[0.08361040363120334,-0.04097596653665861]","[1,1,1]","[-0.05156859300629912,0.037109887964397244]","[-1,-1,-1]","[-0.1351275420555669,0.13825375929312683]","[1,1,1]","[-0.004631903983559516,0.0717178360355522]","[1,1,1]","[0.04972285756820843,0.027098813664425347]","[1,1,1]","[-0.0045358626153831055,-0.13348242614325445]","[1,1,1]","[0.09178619220648228,-0.08024755993997698]","[-1,-1,-1]","[0.11596212768413856,0.020624609357540506]","[-1,-1,-1]","[0.08280040128698006,-0.135579766684536]","[1,1,1]","[0.02304220348784562,-0.03706640944168752]","[-1,-1,-1]","[-0.016046417775269446,-0.04932040652126074]","[-1,-1,-1]","[0.06413926524181107,0.1354677945063295]","[1,1,1]","[0.00678241414884096,0.025797198594350697]","[-1,-1,-1]","[-0.059338592118658655,0.09318739647074877]","[1,1,1]","[-0.07639980903064664,0.1365700895795928]","[1,1,1]","[0.14440378388689126,-0.1151550177245536]","[-1,-1,-1]","[0.03634642652768668,-0.08551599244609688]","[1,1,1]","[-0.1933304038998288,0.03420081267617171]","[-1,-1,-1]","[0.13429669582124146,0.11840463057948118]","[1,1,1]","[-0.15228150577988314,0.07752266618922303]","[-1,-1,-1]","[-0.10189284252011167,0.023429032214468813]","[1,1,1]","[0.1722782093084428,-0.02013748181482175]","[-1,-1,-1]","[-0.180430861052611,-0.017513931783306687]","[1,1,1]","[-0.011850882199275235,0.11819371133091862]","[1,1,1]","[0.15773392345259146,0.029169570511638467]","[1,1,1]","[-0.11132116849173024,0.06263982145550487]","[-1,-1,-1]","[-0.0708617467967271,-0.15967970801677253]","[-1,-1,-1]","[0.02693119637809761,-0.17984892449482354]","[1,1,1]","[-0.0761922625712841,-0.0770909137462143]","[1,1,1]","[-0.02620845290605456,0.18747845976423583]","[1,1,1]","[0.016114872049110156,0.16843003780512544]","[-1,-1,-1]","[0.07955434038515674,0.07201137950583153]","[1,1,1]","[0.02,0.02]",70.6233,0,0,0,171,1,,,,,,,
,,,,,,,5c0004fc4210510001725547,682f0fc64b8b30d961a3d6c0,2025-05-22_13h52.02.525,cuing_paradigm_dot,2024.1.5,MacIntel,80.64516129,682d573fa47f1360d1451895,,,,,,,,,,,70.6236,71.1177,,,71.3712,72.173,left,0.7916,,,,,,,,,0.5,,,,,,71.1179,71.3712,72.1731,"[0.07859194075882797,0.17246198559195777]","[-1,-1,-1]","[0.023701760953096923,0.0025757457457256192]","[1,1,1]","[-0.07897696646807108,0.006878608779031107]","[-1,-1,-1]","[-0.06903848930704708,-0.17478146432223712]","[1,1,1]","[0.050327931189344324,-0.07197158369286825]","[1,1,1]","[-0.12524206524421153,-0.07381090894612397]","[1,1,1]","[-0.12637677612683695,-0.03365233950971899]","[1,1,1]","[0.08494156619798209,-0.16906329471177764]","[1,1,1]","[0.05907710360492715,0.10011943568416685]","[1,1,1]","[-0.0817192843330382,0.06339043747732677]","[1,1,1]","[-0.19246667250434524,0.041726631803994635]","[-1,-1,-1]","[0.1269489366687766,-0.01160506393225636]","[-1,-1,-1]","[-0.027199742584980757,0.14555740780808338]","[-1,-1,-1]","[0.12324392913231633,-0.14861433426440007]","[-1,-1,-1]","[-0.13176601199457783,0.05751543957031079]","[-1,-1,-1]","[0.05168213904456871,0.044099539172531274]","[-1,-1,-1]","[-0.198937873594115,0.00046444708504396476]","[1,1,1]","[0.013701673017387752,0.17267127652332306]","[-1,-1,-1]","[-0.08767506192452128,-0.08984484059766305]","[1,1,1]","[-0.034915135173515084,-0.05648082354055389]","[1,1,1]","[-0.18524406636289925,-0.05084515112991925]","[-1,-1,-1]","[-0.11093617770838231,-0.15034504388522596]","[1,1,1]","[0.005481913149883221,-0.03643443412094808]","[-1,-1,-1]","[0.008971671195409278,-0.17662974555621147]","[1,1,1]","[0.19013793465156478,0.04518177121775286]","[-1,-1,-1]","[0.15697965830325863,0.09272261124894782]","[1,1,1]","[0.11347369009382892,0.09861780108161664]","[1,1,1]","[-0.10856542548172146,0.13127397515674868]","[1,1,1]","[0.0001587633000575176,0.07790656954496772]","[-1,-1,-1]","[0.009769676367904743,-0.10097663222272661]","[-1,-1,-1]","[0.1618329654951224,-0.03762814313427552]","[-1,-1,-1]","[0.09094238995349607,-0.06115339342413203]","[-1,-1,-1]","[0.02,0.02]",73.2664,0,1,1,94,1,,,,,,,
,,,,,,,5c0004fc4210510001725547,682f0fc64b8b30d961a3d6c0,2025-05-22_13h52.02.525,cuing_paradigm_dot,2024.1.5,MacIntel,80.64516129,682d573fa47f1360d1451895,,,,,,,,,,,73.2667,73.7601,,,74.0005,74.8287,right,0.8159,,,,,,,,,0.45,,,,,,73.7601,74.0005,74.8288,"[0.08796190046182276,-0.16170150537388162]","[1,1,1]","[0.044527050844799757,-0.06157989662463473]","[-1,-1,-1]","[-0.03613762222795477,-0.08671627206158566]","[1,1,1]","[-0.09376334545449286,-0.08502927331760356]","[1,1,1]","[-0.1490962335410446,-0.00037339386660032245]","[-1,-1,-1]","[-0.1369276894170333,0.07639084852781637]","[-1,-1,-1]","[0.10970577843224205,-0.10345058836146963]","[1,1,1]","[0.028166015734466088,-0.13170712790444217]","[1,1,1]","[-0.0005394958756072453,0.09573315170868495]","[-1,-1,-1]","[0.13741974173139268,0.09628322091148415]","[1,1,1]","[-0.03666853564861416,0.012826545094807537]","[-1,-1,-1]","[0.06459409051457085,0.015268677714871502]","[-1,-1,-1]","[-0.05256738306224274,-0.033563360593598664]","[-1,-1,-1]","[0.10819444703671897,-0.06343924465627569]","[-1,-1,-1]","[0.14182828385277998,0.026015585119914208]","[-1,-1,-1]","[-0.00012074713135675767,0.04450428466186898]","[1,1,1]","[-0.03416216459847882,-0.15755822969575556]","[-1,-1,-1]","[0.026465155085474937,0.1486949184625348]","[1,1,1]","[-0.10382382399508974,0.04105665286515871]","[-1,-1,-1]","[-0.021197747025893467,0.15374306313626962]","[-1,-1,-1]","[-0.0896799218197367,-0.17503698823038555]","[1,1,1]","[-0.17894354878867283,0.06507897538751702]","[-1,-1,-1]","[-0.15713885747564213,-0.05893777266500808]","[1,1,1]","[-0.0868998678353388,0.08445723340207714]","[-1,-1,-1]","[0.08468506907288485,0.07207465951871232]","[-1,-1,-1]","[0.10860905731941237,0.14152069841143336]","[1,1,1]","[0.0762668475197992,-0.031521262930896764]","[-1,-1,-1]","[0.010293239904316805,-0.004412669381870208]","[1,1,1]","[-0.07264763973461145,0.1826297592873915]","[1,1,1]","[-0.1636650803679623,-0.10906701499909417]","[1,1,1]","[0.15664634277278972,-0.03303900900957715]","[-1,-1,-1]","[0.19215026917303288,-0.009629487710278096]","[-1,-1,-1]","[0.02,0.02]",75.9225,0,2,2,87,1,,,,,,,
,,,,,,,5c0004fc4210510001725547,682f0fc64b8b30d961a3d6c0,2025-05-22_13h52.02.525,cuing_paradigm_dot,2024.1.5,MacIntel,80.64516129,682d573fa47f1360d1451895,,,,,,,,,,,75.9228,76.4172,,,76.6709,77.4852,right,0.7995,,,,,,,,,0.55,,,,,,76.4172,76.6708,77.4853,"[-0.07520630586012075,-0.07686443548059504]","[-1,-1,-1]","[0.1525471372731128,0.09688320982647433]","[-1,-1,-1]","[-0.1630194240696253,0.07643750226053697]","[1,1,1]","[-0.09717143469735455,0.15235955863134587]","[-1,-1,-1]","[0.025450955668851003,0.08713065095291304]","[-1,-1,-1]","[-0.13705830336393857,-0.04143589255479439]","[1,1,1]","[0.07045323395024798,-0.17392930892834602]","[1,1,1]","[-0.15350922295657882,-0.10102861615408039]","[1,1,1]","[-0.05713483526892032,0.08299362195194517]","[-1,-1,-1]","[0.16876102797653403,0.01058300664616752]","[1,1,1]","[0.15358104812861353,-0.06063866005081776]","[1,1,1]","[-0.14561403597693043,0.0019488813546281003]","[1,1,1]","[0.03575894589986723,-0.13319419702193974]","[-1,-1,-1]","[-0.03315556565746479,-0.17447770154550651]","[-1,-1,-1]","[-0.19540771896129414,0.02726581073531668]","[1,1,1]","[0.0173505034331255,-0.08313237232937203]","[-1,-1,-1]","[0.04665763309364032,0.03227606631534502]","[-1,-1,-1]","[-0.030552507633631504,-0.09008685469000609]","[-1,-1,-1]","[-0.10702095123607873,-0.011333151493072428]","[1,1,1]","[0.1425181385582257,-0.13403769657240736]","[1,1,1]","[0.11183858878430762,-0.05863817307171371]","[-1,-1,-1]","[-0.12500692193672366,0.06035500023146969]","[1,1,1]","[0.0037888695933767235,-0.02741511137256013]","[-1,-1,-1]","[-0.018559981902044043,0.04698685300426977]","[1,1,1]","[-0.0408743251729615,0.14569566763521302]","[-1,-1,-1]","[0.1151977786321561,0.06685892289302905]","[-1,-1,-1]","[-0.04771557427556342,-0.017723420099466414]","[1,1,1]","[0.0748814131191132,0.06922959743390614]","[1,1,1]","[0.098361869321661,0.12358159726885534]","[1,1,1]","[0.056820106214192055,-0.06905147392982232]","[1,1,1]","[0.10505281170449111,0.013160685011457585]","[1,1,1]","[0.0635516808645857,0.15230698637641837]","[1,1,1]","[0.02,0.02]",78.5793,0,3,3,122,1,,,,,,,
,,,,,,,5c0004fc4210510001725547,682f0fc64b8b30d961a3d6c0,2025-05-22_13h52.02.525,cuing_paradigm_dot,2024.1.5,MacIntel,80.64516129,682d573fa47f1360d1451895,,,,,,,,,,,78.5795,79.0729,,,79.3267,79.9007,right,0.5647,,,,,,,,,0.45,,,,,,79.073,79.3267,79.9007,"[0.10598135354412776,0.1610028941832434]","[-1,-1,-1]","[-0.014945897147551922,0.16131833005953136]","[-1,-1,-1]","[0.1292212261956268,0.08548070858959228]","[1,1,1]","[0.015470339365460481,-0.04573817128355168]","[1,1,1]","[-0.10728766685574403,0.08144100399389839]","[-1,-1,-1]","[-0.05672963542152261,-0.13698831804822534]","[1,1,1]","[0.08639530326825026,-0.17340646302841478]","[1,1,1]","[0.03649520730958806,-0.17568848216543553]","[-1,-1,-1]","[0.06210950542170826,0.1248327486640793]","[1,1,1]","[0.07526413056160912,0.05788314009046906]","[-1,-1,-1]","[-0.1575628883511859,0.10282961587623056]","[1,1,1]","[0.13696808121827034,-0.12656889804019084]","[-1,-1,-1]","[0.027270164366814748,0.016571572724373325]","[-1,-1,-1]","[-0.046436225506282326,0.10040097083641235]","[-1,-1,-1]","[-0.019622829534279223,0.00531313551969161]","[-1,-1,-1]","[0.18187675482331878,-0.005083407071575479]","[1,1,1]","[0.0331987804384535,0.18905266235097573]","[-1,-1,-1]","[-0.1042524598163774,-0.054976266029674585]","[1,1,1]","[0.13777276133204389,0.043160035589401]","[1,1,1]","[-0.07744169518161072,-0.17858085654725211]","[-1,-1,-1]","[-0.01679504956860964,-0.1953558732141556]","[-1,-1,-1]","[0.08453039517055166,-0.1244010410773617]","[1,1,1]","[-0.0982202284743837,-0.00749929268382954]","[1,1,1]","[0.10970534351055729,0.005473316212597009]","[-1,-1,-1]","[-0.15687572796382168,-0.02270132482884425]","[1,1,1]","[0.07068364101860691,-0.05925895169346279]","[-1,-1,-1]","[-0.1010518030075235,0.16079628943607702]","[-1,-1,-1]","[-0.07048955712426395,0.026305341515222336]","[1,1,1]","[0.14416932652106423,-0.05155442324384286]","[-1,-1,-1]","[-0.1732558248117452,0.0447407805188291]","[1,1,1]","[0.008980905467286837,-0.08810048587636023]","[-1,-1,-1]","[0.02123195333283591,0.06811969571991439]","[-1,-1,-1]","[0.02,0.02]",80.9945,0,4,4,81,1,,,,,,,
,,,,,,,5c0004fc4210510001725547,682f0fc64b8b30d961a3d6c0,2025-05-22_13h52.02.525,cuing_paradigm_dot,2024.1.5,MacIntel,80.64516129,682d573fa47f1360d1451895,,,,,,,,,,,80.9947,81.4884,,,81.73,82.1292,right,0.3875,,,,,,,,,0.1,,,,,,81.4884,81.7299,82.1292,"[0.03919094729074138,0.0824793333113966]","[-1,-1,-1]","[0.047218887381339135,-0.036683420549824715]","[-1,-1,-1]","[-0.09322182752257613,-0.020612742053596]","[-1,-1,-1]","[-0.09286609914874447,-0.09055083626411829]","[-1,-1,-1]","[0.016641196482471865,-0.19639015124781212]","[-1,-1,-1]","[0.11768336304541266,0.13207528198729324]","[-1,-1,-1]","[0.1050525230039214,-0.03083364240029708]","[-1,-1,-1]","[-0.0630698982900419,0.0725163862710603]","[-1,-1,-1]","[-0.14315425444621546,-0.10154461161298389]","[-1,-1,-1]","[0.1536801431735144,-0.023989960956008666]","[-1,-1,-1]","[-0.011590168109584086,0.05220552049547048]","[1,1,1]","[-0.016342205633822438,0.11356340517736915]","[-1,-1,-1]","[-0.14517415657702887,-0.06159254726566733]","[-1,-1,-1]","[0.18953200623123914,0.001183051254994138]","[-1,-1,-1]","[-0.029409713927174307,-0.16187977976869142]","[-1,-1,-1]","[-0.1071019377550387,0.1205325674331598]","[-1,-1,-1]","[0.13958635321172302,-0.1375736579346866]","[-1,-1,-1]","[-0.028642928751924267,-0.03924318779257952]","[-1,-1,-1]","[0.14479550960698526,0.05887027576192932]","[-1,-1,-1]","[-0.06851780134326298,-0.1420406108706486]","[-1,-1,-1]","[-0.05430030581520587,0.157266535512905]","[-1,-1,-1]","[0.08345038168710259,-0.1611397757725563]","[-1,-1,-1]","[0.026880503188267037,0.014147917247130996]","[-1,-1,-1]","[-0.12468690216826143,0.03882689038965793]","[1,1,1]","[0.19054232759331352,0.0481461979753856]","[1,1,1]","[-0.06845605026643156,-0.057909002342734106]","[-1,-1,-1]","[-0.17391431738593421,0.05720602728951075]","[-1,-1,-1]","[-0.14916683545197995,0.10335463170189826]","[-1,-1,-1]","[0.05118068978949927,-0.08087117188069518]","[-1,-1,-1]","[-0.07123999702595604,0.015580484087625862]","[-1,-1,-1]","[0.04576421624143034,0.1388744498757472]","[-1,-1,-1]","[0.07251396671321376,0.10627101472638599]","[-1,-1,-1]","[0.02,0.02]",83.2244,0,5,5,19,1,,,,,,,
,,,,,,,5c0004fc4210510001725547,682f0fc64b8b30d961a3d6c0,2025-05-22_13h52.02.525,cuing_paradigm_dot,2024.1.5,MacIntel,80.64516129,682d573fa47f1360d1451895,,,,,,,,,,,83.2246,83.7183,,,83.9591,84.5726,right,0.6005,,,,,,,,,0.4,,,,,,83.7184,83.9591,84.5726,"[-0.15984908386644328,0.036676935898294925]","[-1,-1,-1]","[-0.0601652217976211,-0.1669126970802734]","[-1,-1,-1]","[0.06777914961258995,0.10003825612219061]","[-1,-1,-1]","[0.09704692823058733,-0.05107478684568521]","[1,1,1]","[0.1640502520054096,0.07742798915003651]","[1,1,1]","[0.10543760493974857,-0.09946111107104441]","[1,1,1]","[-0.124173025164695,-0.11003882932565899]","[-1,-1,-1]","[-0.08257757395787109,-0.08097628832411259]","[-1,-1,-1]","[0.09497569426955796,0.022964604671258198]","[-1,-1,-1]","[-0.010784680037885967,0.03169948802219494]","[1,1,1]","[0.0225447161731068,0.13671285544564266]","[1,1,1]","[0.02135032084507772,-0.10709852973789437]","[-1,-1,-1]","[-0.13943874524494224,-0.04148500565932917]","[1,1,1]","[0.17340539552129264,-0.0412921414921866]","[1,1,1]","[-0.1014999570130928,0.12482841171559705]","[1,1,1]","[-0.11175556642425807,0.16404464729096493]","[-1,-1,-1]","[-0.09140142663052477,-0.13626063643711744]","[-1,-1,-1]","[-0.01558965399195095,-0.15310581619187516]","[-1,-1,-1]","[-0.08264797387451833,0.055717301889928746]","[-1,-1,-1]","[-0.015436565572129444,0.10786251234712316]","[-1,-1,-1]","[-0.03166296611623678,-0.015204579535957186]","[1,1,1]","[0.12769365230020946,-0.021618686329435637]","[1,1,1]","[0.033149572544780126,-0.05993433023447195]","[1,1,1]","[-0.05427503149687723,0.1638273018049091]","[-1,-1,-1]","[0.010406931318043074,0.1870007428306093]","[-1,-1,-1]","[0.18166656542182263,-0.0009344602563107539]","[1,1,1]","[0.17333524228084304,-0.09046331212715661]","[-1,-1,-1]","[0.07736518134783296,-0.15233370226900875]","[-1,-1,-1]","[0.1159586675581465,0.1597455988096083]","[-1,-1,-1]","[0.044116556452607536,0.0007815301699489637]","[1,1,1]","[-0.13847414339760614,0.08377577791250726]","[-1,-1,-1]","[-0.18125880094282054,-0.029124438076827967]","[-1,-1,-1]","[0.02,0.02]",85.6675,0,6,6,44,1,,,,,,,
,,,,,,,5c0004fc4210510001725547,682f0fc64b8b30d961a3d6c0,2025-05-22_13h52.02.525,cuing_paradigm_dot,2024.1.5,MacIntel,80.64516129,682d573fa47f1360d1451895,,,,,,,,,,,85.6681,86.1602,,,86.415,87.2682,left,0.8442,,,,,,,,,0.45,,,,,,86.1603,86.415,87.2683,"[-0.010711610004691207,0.020018446948151667]","[-1,-1,-1]","[-0.1022869081896806,-0.035689680656069284]","[1,1,1]","[0.042333846740536495,0.1639154467424662]","[1,1,1]","[0.03233382354168879,-0.020971927591298796]","[1,1,1]","[0.06203161320288329,0.04616281533436107]","[-1,-1,-1]","[-0.05918391845129343,0.1533556783636026]","[1,1,1]","[-0.17092467737258443,-0.001327064491360007]","[-1,-1,-1]","[0.1476385401873429,-0.018506496463890992]","[1,1,1]","[0.0948102113216711,-0.12772946415287956]","[-1,-1,-1]","[-0.05280378487200273,-0.14101102060947557]","[1,1,1]","[-0.030627528177392543,0.06331657472751294]","[-1,-1,-1]","[0.17865848985366456,0.02773966876248316]","[-1,-1,-1]","[0.03924176191222852,0.1108270184693935]","[-1,-1,-1]","[0.086612750368253,-0.08655534830183999]","[-1,-1,-1]","[-0.06030983207029354,-0.09540604463029381]","[-1,-1,-1]","[-0.003379425154277494,-0.05503793389071061]","[1,1,1]","[-0.12017243615730377,0.07331414289937857]","[-1,-1,-1]","[-0.007246193565778451,-0.11099514342828473]","[-1,-1,-1]","[-0.07963520182680789,0.06334161946204768]","[-1,-1,-1]","[0.16724822462325997,-0.07023318499453247]","[-1,-1,-1]","[-0.11627472524183355,-0.08551726358938977]","[1,1,1]","[-0.08148711734815854,-0.18046227940533105]","[1,1,1]","[-0.14405932990673423,0.12806279962606837]","[1,1,1]","[0.12717477314352166,0.0978269162148194]","[-1,-1,-1]","[0.01716270260136232,-0.1526770567011475]","[1,1,1]","[0.08220813356738338,0.17568057419897032]","[1,1,1]","[0.059160543414961846,-0.1755203032464068]","[-1,-1,-1]","[-0.049167043017256974,-0.05271998606873421]","[-1,-1,-1]","[-0.014257740893025957,0.154311960081469]","[1,1,1]","[0.08900938005951405,-0.02863016361312126]","[1,1,1]","[-0.128344907430226,-0.1385640458227573]","[-1,-1,-1]","[-0.10394050803739734,0.12887379733935247]","[-1,-1,-1]","[0.02,0.02]",88.3629,0,7,7,64,1,,,,,,,
,,,,,,,5c0004fc4210510001725547,682f0fc64b8b30d961a3d6c0,2025-05-22_13h52.02.525,cuing_paradigm_dot,2024.1.5,MacIntel,80.64516129,682d573fa47f1360d1451895,,,,,,,,,,,88.3631,88.8565,,,89.0977,89.5638,right,0.4572,,,,,,,,,0.45,,,,,,88.8565,89.0977,89.5638,"[0.08347574452048441,0.06639590306083143]","[1,1,1]","[-0.060865673400253895,-0.17403782608448165]","[1,1,1]","[0.029534874197561414,0.15032374395253312]","[1,1,1]","[-0.003535290005049755,-0.060086718690239384]","[-1,-1,-1]","[-0.15383291774615832,-0.0004286546217821657]","[-1,-1,-1]","[-0.05440239522669918,-0.023620733158467185]","[-1,-1,-1]","[0.05642886531573914,-0.15544839067177485]","[-1,-1,-1]","[-0.10710817776309275,0.1500944003744603]","[-1,-1,-1]","[-0.13074852001125392,-0.14392713843996824]","[1,1,1]","[-0.04153592647776416,-0.12960629323470538]","[1,1,1]","[-0.18170364230321184,0.05785798355084648]","[-1,-1,-1]","[0.015125157391780684,-0.018188587052586785]","[-1,-1,-1]","[0.05920887349041081,0.10415845712819172]","[1,1,1]","[0.05659847980192602,-0.059324199578172074]","[1,1,1]","[-0.019024338463660653,0.05150590203852982]","[-1,-1,-1]","[0.02182195367075981,-0.18845869144961644]","[-1,-1,-1]","[-0.015912661522699583,0.1500677770639645]","[-1,-1,-1]","[-0.10462925771955402,-0.10485086947272096]","[-1,-1,-1]","[0.11813161527166516,-0.12229325940899842]","[-1,-1,-1]","[-0.19852877469524707,0.010273501440825875]","[-1,-1,-1]","[-0.07805733864345504,0.10799322283945212]","[1,1,1]","[-0.1429973478388315,0.10616226473058828]","[-1,-1,-1]","[0.04615108585572988,0.037713439568160145]","[-1,-1,-1]","[-0.0990333569806357,0.020327984887949298]","[1,1,1]","[-0.14954496997942462,-0.044583467358556714]","[-1,-1,-1]","[-0.005702041499908314,0.10479324328977555]","[-1,-1,-1]","[0.1748995265213836,-0.007469920561731181]","[1,1,1]","[0.13066821781252663,0.11659170741720301]","[-1,-1,-1]","[0.14340492260111437,-0.07758579074223962]","[1,1,1]","[0.18285610404820665,0.03811237278637717]","[1,1,1]","[-0.016179999965175548,-0.16368314884353347]","[1,1,1]","[-0.10900895042130479,-0.05440166514926838]","[1,1,1]","[0.02,0.02]",90.6582,0,8,8,85,1,,,,,,,
,,,,,,,5c0004fc4210510001725547,682f0fc64b8b30d961a3d6c0,2025-05-22_13h52.02.525,cuing_paradigm_dot,2024.1.5,MacIntel,80.64516129,682d573fa47f1360d1451895,,,,,,,,,,,90.6585,91.1523,,,91.3928,91.633,right,0.2277,,,,,,,,,0.1,,,,,,91.1523,91.3928,91.633,"[-0.08538140691020049,0.09724589944997863]","[1,1,1]","[-0.047756640057921795,0.04132771823568403]","[-1,-1,-1]","[0.19613957301238896,0.013244087016413001]","[-1,-1,-1]","[-0.07508922284993108,-0.07752828051311828]","[-1,-1,-1]","[-0.017454094130602532,-0.16390183360563976]","[-1,-1,-1]","[0.02029613079072433,0.07757311331600164]","[-1,-1,-1]","[-0.1788227127132257,-0.06427105893725504]","[-1,-1,-1]","[0.16786736532744645,-0.062476732043439724]","[1,1,1]","[-0.1085291728352774,-0.005930886664058521]","[-1,-1,-1]","[0.058478837084009375,-0.015827123031316087]","[-1,-1,-1]","[0.01684567107757779,-0.18825715645621846]","[-1,-1,-1]","[0.06753313219547473,-0.10365968877641218]","[-1,-1,-1]","[0.0924073123626325,-0.06667400989272623]","[-1,-1,-1]","[0.04662349059853942,0.025652956536224653]","[-1,-1,-1]","[0.17666059125954375,0.05894513877839426]","[-1,-1,-1]","[-0.09808387375837965,-0.1328735691524217]","[-1,-1,-1]","[-0.0018209865072327568,-0.012233295820471028]","[-1,-1,-1]","[0.03696724454373284,0.1543853408219441]","[-1,-1,-1]","[-0.057130037725983615,0.150655844503905]","[-1,-1,-1]","[0.08713503753856876,0.05825759061706771]","[-1,-1,-1]","[0.06790444745508797,-0.18292635754392836]","[-1,-1,-1]","[0.13274586950219283,0.03721119795054317]","[1,1,1]","[-0.006902124841797541,0.12807190734666873]","[-1,-1,-1]","[-0.17980463110784148,-0.007322287063251817]","[-1,-1,-1]","[0.13023368446980751,-0.11367447041794507]","[-1,-1,-1]","[-0.04690411375615279,-0.11657474576089742]","[-1,-1,-1]","[-0.12919918186375687,-0.04098113762226292]","[-1,-1,-1]","[0.1314968751246796,-0.011931114428368316]","[-1,-1,-1]","[-0.01347776247203542,-0.060858431814541425]","[-1,-1,-1]","[0.10631649589106233,-0.15041247636147742]","[-1,-1,-1]","[-0.13934489384133297,0.11555606898130172]","[-1,-1,-1]","[0.01878615729259162,-0.12807584070669092]","[-1,-1,-1]","[0.02,0.02]",92.7272,0,9,9,3,1,,,,,,,
,,,,,,,5c0004fc4210510001725547,682f0fc64b8b30d961a3d6c0,2025-05-22_13h52.02.525,cuing_paradigm_dot,2024.1.5,MacIntel,80.64516129,682d573fa47f1360d1451895,,,,,,,,,,,92.7274,93.222,,,93.4625,93.7423,right,0.2678,,,,,,,,,0.1,,,,,,93.2221,93.4625,93.7423,"[0.005914407373563384,-0.09353066678536674]","[-1,-1,-1]","[0.022916156937566927,-0.03218280655283709]","[-1,-1,-1]","[-0.05416216323174262,-0.058124383867275864]","[-1,-1,-1]","[0.08738698099411274,-0.06441001222285486]","[-1,-1,-1]","[-0.14038317832184993,-0.1208206386212466]","[-1,-1,-1]","[0.011035334627567176,0.015172972711234719]","[-1,-1,-1]","[-0.10217800393681456,-0.09933950436819015]","[-1,-1,-1]","[0.035785832193709025,-0.17212349928072188]","[-1,-1,-1]","[0.1300075937887974,-0.003809489792943261]","[1,1,1]","[0.18639232537910191,-0.06499221543014383]","[-1,-1,-1]","[0.07232906573008771,0.15012801093933004]","[-1,-1,-1]","[-0.15258150996535322,0.11948828383563416]","[-1,-1,-1]","[-0.06327092406473053,0.038565974394394895]","[-1,-1,-1]","[-0.07401306879758217,0.17836289889782064]","[-1,-1,-1]","[0.06418683467350951,0.006750496986985607]","[-1,-1,-1]","[-0.08675303612218628,-0.17159002811564622]","[-1,-1,-1]","[0.150743735055717,-0.12405936009977575]","[-1,-1,-1]","[-0.09114157567304852,-0.036069735355906164]","[-1,-1,-1]","[-0.04029915139938635,-0.13127284696596966]","[-1,-1,-1]","[-0.02832186264634642,0.16733450333829722]","[1,1,1]","[-0.02667933544535697,0.12632193675121545]","[-1,-1,-1]","[0.19763078647635185,0.02695069181856457]","[-1,-1,-1]","[0.12927877492909964,0.13087569137381877]","[-1,-1,-1]","[-0.16581731180909845,0.05227634041859512]","[-1,-1,-1]","[-0.15686135272768192,-0.0066660629991953735]","[1,1,1]","[-0.0650678654667348,0.08014909643353235]","[-1,-1,-1]","[-0.08130584217042822,0.12936893775734723]","[-1,-1,-1]","[0.06076497135771601,0.0650494555215857]","[-1,-1,-1]","[-0.17229272495850617,-0.0659411368800838]","[-1,-1,-1]","[0.016346080893920187,0.1992324078924233]","[-1,-1,-1]","[-0.10787800508503435,0.0793631663306253]","[-1,-1,-1]","[0.12890740040863596,0.07499490282696059]","[-1,-1,-1]","[0.02,0.02]",94.836,0,10,10,15,1,,,,,,,
,,,,,,,5c0004fc4210510001725547,682f0fc64b8b30d961a3d6c0,2025-05-22_13h52.02.525,cuing_paradigm_dot,2024.1.5,MacIntel,80.64516129,682d573fa47f1360d1451895,,,,,,,,,,,94.8363,95.3301,,,95.5715,96.3313,right,0.7511,,,,,,,,,0.5,,,,,,95.3301,95.5715,96.3313,"[-0.12598798231538266,-0.08662966049000466]","[1,1,1]","[0.03817653141592243,-0.05580254323828565]","[-1,-1,-1]","[0.15644009417135094,0.004175178088723336]","[-1,-1,-1]","[0.08144917862651305,-0.0694151093655069]","[1,1,1]","[-0.05087420029480089,-0.13534542551112763]","[-1,-1,-1]","[-0.14965057837284226,0.09845418827052481]","[-1,-1,-1]","[0.012809361441001617,0.0019330327804415244]","[1,1,1]","[-0.07471765579660132,-0.022007263849036764]","[-1,-1,-1]","[-0.03288023143051739,0.027825927658386124]","[-1,-1,-1]","[-0.021729148021633865,0.12598865042045723]","[1,1,1]","[-0.0445574528187148,0.0705119532171351]","[1,1,1]","[0.004436659458704212,-0.1532121320230663]","[1,1,1]","[-0.18834187078681952,-0.05646214546559333]","[-1,-1,-1]","[-0.0553850958257733,-0.1785463572472246]","[1,1,1]","[0.16903973314566156,-0.06522973873026396]","[-1,-1,-1]","[0.10103334576637454,0.07123546209007067]","[1,1,1]","[-0.051253700467799874,-0.0904984307065739]","[1,1,1]","[-0.12214912908064433,-0.028513269571647102]","[1,1,1]","[0.04473217270265075,0.13971951422976567]","[-1,-1,-1]","[-0.10916166642541295,0.04180941063620085]","[-1,-1,-1]","[-0.0696906647344268,0.18580792314327615]","[-1,-1,-1]","[0.19920623003184662,-0.0018677957525217578]","[1,1,1]","[0.1261559179067227,0.10320235290656722]","[-1,-1,-1]","[0.10426940338495586,0.004697149701276066]","[-1,-1,-1]","[-0.025658667123144588,-0.03177536168542634]","[1,1,1]","[0.11622158505189815,-0.1589111658732406]","[-1,-1,-1]","[0.019573437264741998,0.19607449634215143]","[-1,-1,-1]","[-0.08721394410398514,0.07994635089006163]","[1,1,1]","[-0.099117261219228,0.14155386893149957]","[1,1,1]","[0.09919321522849979,0.1582944423194341]","[1,1,1]","[0.14342781447670078,-0.12439530411153207]","[1,1,1]","[0.17432056553522896,0.06326415420276843]","[-1,-1,-1]","[0.02,0.02]",97.4263,0,11,11,92,1,,,,,,,
,,,,,,,5c0004fc4210510001725547,682f0fc64b8b30d961a3d6c0,2025-05-22_13h52.02.525,cuing_paradigm_dot,2024.1.5,MacIntel,80.64516129,682d573fa47f1360d1451895,,,,,,,,,,,97.4265,97.9196,,,98.161,98.6952,left,0.524,,,,,,,,,0.6,,,,,,97.9196,98.161,98.6952,"[-0.0819741704561898,0.10968629435532438]","[-1,-1,-1]","[-0.0827796834744859,0.018716104234426836]","[1,1,1]","[0.10565517626866823,0.0809816763369031]","[-1,-1,-1]","[0.022291068728515637,0.16165855879280788]","[-1,-1,-1]","[0.14475350931955042,-0.08167400442497323]","[1,1,1]","[0.052852736520902686,-0.057307479313480604]","[-1,-1,-1]","[-0.1387384689860569,-0.07664675366138063]","[1,1,1]","[-0.13970283870057584,0.04371623719332735]","[-1,-1,-1]","[0.09658493686661797,-0.11543856274987886]","[1,1,1]","[-0.018308601495493508,-0.1415064545838912]","[1,1,1]","[-0.13872126786634312,-0.025471899062272117]","[-1,-1,-1]","[-0.039461735260979326,-0.08453656909256868]","[1,1,1]","[-0.13624378581503976,-0.1175526410785244]","[-1,-1,-1]","[0.060777257714493785,-0.13820879705645442]","[1,1,1]","[0.02456212160384538,-0.1178582770626548]","[1,1,1]","[0.1301830083204404,0.0025674146595410447]","[-1,-1,-1]","[-0.058230264612243954,-0.13487214159616315]","[-1,-1,-1]","[0.044991620187309615,-0.014886280258854629]","[1,1,1]","[-0.08676388046183177,0.1517258918722338]","[1,1,1]","[-0.18237585215537536,-0.05483756861290149]","[-1,-1,-1]","[-0.12395891981854273,0.13373658976998803]","[1,1,1]","[0.05970623917085681,0.08704215226693253]","[1,1,1]","[0.025927277715498617,0.1110022807822239]","[1,1,1]","[0.16192992234174336,0.11062131530049957]","[1,1,1]","[0.08630539365953305,0.008130008711055736]","[1,1,1]","[0.006027486054215183,-0.1963213409899496]","[1,1,1]","[-0.01424604935995732,0.09550558834782313]","[-1,-1,-1]","[-0.10162699604008643,-0.04233417616978875]","[-1,-1,-1]","[-0.15245382612147837,0.09699513348231095]","[1,1,1]","[0.011087203721198001,0.027782287195226945]","[1,1,1]","[-0.05102017754204837,0.06018990009727092]","[1,1,1]","[-0.03990620438413187,-0.031606010874926545]","[-1,-1,-1]","[0.02,0.02]",99.7881,0,12,12,173,1,,,,,,,
,,,,,,,5c0004fc4210510001725547,682f0fc64b8b30d961a3d6c0,2025-05-22_13h52.02.525,cuing_paradigm_dot,2024.1.5,MacIntel,80.64516129,682d573fa47f1360d1451895,,,,,,,,,,,99.7884,100.282,,,100.5227,101.043,left,0.5127,,,,,,,,,0.55,,,,,,100.282,100.5227,101.043,"[0.19508838956412697,0.040786961704913846]","[-1,-1,-1]","[0.022094309113226136,0.07381916521282514]","[1,1,1]","[0.1874744037813751,-0.058664172126306]","[1,1,1]","[-0.06871277826106428,0.0701677460272649]","[1,1,1]","[-0.013349527884089654,-0.14071894230438803]","[1,1,1]","[0.07753362486683114,-0.1546479195550715]","[1,1,1]","[0.16724390609521486,0.08018174720081812]","[1,1,1]","[-0.157923348981387,-0.0658928896017184]","[1,1,1]","[0.014403768260443463,0.16796483973243587]","[-1,-1,-1]","[0.12247883530338438,0.08906739180438615]","[-1,-1,-1]","[-0.025700285643092163,0.05969324422712695]","[-1,-1,-1]","[0.10253757147188428,0.039759323384941585]","[1,1,1]","[0.026598355786312564,-0.14739599248083612]","[-1,-1,-1]","[-0.05289767459176565,-0.0787534161705356]","[1,1,1]","[-0.03437750547593297,0.013678723920619655]","[-1,-1,-1]","[-0.10227793039557019,-0.011601320407035895]","[-1,-1,-1]","[0.17356427316403114,-0.0035105696475187173]","[1,1,1]","[-0.06476214056646681,-0.16813121101625536]","[-1,-1,-1]","[-0.09499139879213458,0.1565368757513338]","[-1,-1,-1]","[-0.1586829682208184,0.08388032159543951]","[-1,-1,-1]","[-0.08344353463349503,0.03235353558172296]","[1,1,1]","[0.05179018529924207,-0.04914485561889578]","[-1,-1,-1]","[0.028825437609194527,-0.004151906391460721]","[1,1,1]","[0.08089049065070035,0.09365222823596704]","[1,1,1]","[0.08818248895194075,-0.08399173203101654]","[1,1,1]","[0.10450117564754968,0.16167046596793871]","[1,1,1]","[0.09225355992076958,-0.014883317844372827]","[1,1,1]","[-0.0061530146506132855,-0.0637917515716933]","[1,1,1]","[-0.11135476040299527,0.10707936279370035]","[-1,-1,-1]","[-0.15401799206583142,-0.11745903870126427]","[-1,-1,-1]","[-0.13131252126280704,0.01783723537225811]","[1,1,1]","[0.0015736875983267593,0.1271363053164349]","[-1,-1,-1]","[0.02,0.02]",102.1383,0,13,13,134,1,,,,,,,
,,,,,,,5c0004fc4210510001725547,682f0fc64b8b30d961a3d6c0,2025-05-22_13h52.02.525,cuing_paradigm_dot,2024.1.5,MacIntel,80.64516129,682d573fa47f1360d1451895,,,,,,,,,,,102.1385,102.6316,,,102.8718,103.2865,right,0.4021,,,,,,,,,0.45,,,,,,102.6317,102.8718,103.2866,"[-0.03047205968579905,-0.07139224270048386]","[1,1,1]","[0.02409274184480634,-0.14757804123237123]","[1,1,1]","[0.14776016984511214,0.09591903100584558]","[-1,-1,-1]","[-0.03261063871984525,-0.004371370406987278]","[1,1,1]","[-0.1814666235727475,0.0569241057380809]","[1,1,1]","[0.06285589526457253,0.15990478145208148]","[-1,-1,-1]","[-0.06981864072162974,0.0963779172529505]","[1,1,1]","[-0.1903204050616467,-0.036118692584058594]","[-1,-1,-1]","[0.10513555779873149,-0.13519062416663033]","[-1,-1,-1]","[-0.004051177423787236,0.13756346918144802]","[-1,-1,-1]","[0.09092402449561224,0.06266094561567048]","[1,1,1]","[0.016754174612891262,0.0766355666690509]","[-1,-1,-1]","[0.1120268369418405,-0.0674378515720055]","[-1,-1,-1]","[-0.13745681756694708,0.05340679725583497]","[1,1,1]","[0.08748760441046782,0.11874146075828423]","[1,1,1]","[-0.09866827421930237,-0.05832627366488197]","[-1,-1,-1]","[-0.05871407128130718,-0.12346584701707365]","[1,1,1]","[0.18170136215341232,-0.023113707771723235]","[-1,-1,-1]","[-0.10917959860691387,-0.13962951970232837]","[-1,-1,-1]","[-0.05661453143383838,-0.1779225317483599]","[-1,-1,-1]","[0.1839590291662942,0.06573010570208163]","[1,1,1]","[-0.14963167557491383,-0.0991869390455227]","[1,1,1]","[0.1258770105824347,0.03138469519321724]","[1,1,1]","[0.16980894430173893,-0.06673329762440008]","[-1,-1,-1]","[-0.07969972786467547,0.013634826106603451]","[1,1,1]","[0.05945134809446277,-0.028698870985997472]","[-1,-1,-1]","[0.013967321204951942,-0.09453811463861474]","[1,1,1]","[0.053164034481493136,-0.11112898056872969]","[-1,-1,-1]","[0.021244875804295217,0.18680926908174442]","[-1,-1,-1]","[-0.018749699296525375,0.03504628992907447]","[-1,-1,-1]","[0.062483320224397336,-0.1667515001518177]","[-1,-1,-1]","[-0.1365310822419206,0.14504016499235786]","[-1,-1,-1]","[0.02,0.02]",104.3801,0,14,14,84,1,,,,,,,
,,,,,,,5c0004fc4210510001725547,682f0fc64b8b30d961a3d6c0,2025-05-22_13h52.02.525,cuing_paradigm_dot,2024.1.5,MacIntel,80.64516129,682d573fa47f1360d1451895,,,,,,,,,,,104.3805,104.8747,,,105.1278,105.6488,left,0.5141,,,,,,,,,0.6,,,,,,104.8747,105.1278,105.6488,"[0.010627760819632232,0.10720178876170984]","[1,1,1]","[0.051411796740684454,0.011441807187022028]","[1,1,1]","[0.007180989849781612,0.14854411707325688]","[1,1,1]","[0.17058751283917328,0.05486366681773373]","[-1,-1,-1]","[0.14488835186097837,-0.07028427745178792]","[1,1,1]","[-0.18894755549923123,0.01123319407644105]","[-1,-1,-1]","[-0.0741733575262964,-0.07938478433403581]","[1,1,1]","[0.11987595339352757,0.1175027849646799]","[1,1,1]","[-0.1131000768582352,-0.015773415630553792]","[-1,-1,-1]","[0.06206542419645878,0.07093193898853048]","[1,1,1]","[0.07729456917194354,0.13251174955825692]","[1,1,1]","[-0.051197755355530776,-0.18530145938493411]","[-1,-1,-1]","[0.06235702117626007,-0.04096707587454805]","[1,1,1]","[-0.043392005831501844,0.026687583644287704]","[-1,-1,-1]","[0.04311207084350351,-0.11323167125326325]","[1,1,1]","[-0.019590284572282173,-0.050333729118156]","[1,1,1]","[0.09008580217128324,-0.14686113817172952]","[1,1,1]","[-0.046966038945395736,0.18572702588996562]","[1,1,1]","[-0.14419276113132193,0.12570605801204224]","[-1,-1,-1]","[0.18047099980291878,-0.018904249191710406]","[1,1,1]","[-0.1093012053726811,-0.1556781830667386]","[-1,-1,-1]","[-0.13934964461372862,0.01490588008783417]","[1,1,1]","[-0.03796895122764677,0.07178256679587038]","[1,1,1]","[-0.10783480064260387,0.16679869562937327]","[-1,-1,-1]","[-0.06415068652298057,0.13263683933499743]","[-1,-1,-1]","[-0.06827253333202615,-0.12266972444288378]","[-1,-1,-1]","[-0.09959687553929487,0.062491368111602844]","[-1,-1,-1]","[-0.1741752251537475,0.08091740926878632]","[1,1,1]","[-0.15752976228909332,-0.028163785821068016]","[1,1,1]","[-0.0843591243021434,0.022740041272888523]","[-1,-1,-1]","[0.02810620169705302,-0.07148485788252817]","[1,1,1]","[0.11454085004788875,-0.01444291690041649]","[-1,-1,-1]","[0.02,0.02]",106.7442,0,15,15,168,1,,,,,,,
,,,,,,,5c0004fc4210510001725547,682f0fc64b8b30d961a3d6c0,2025-05-22_13h52.02.525,cuing_paradigm_dot,2024.1.5,MacIntel,80.64516129,682d573fa47f1360d1451895,,,,,,,,,,,106.7446,107.2372,,,107.4805,107.8104,left,0.3169,,,,,,,,,0.9,,,,,,107.2372,107.4805,107.8104,"[-0.008024924679412005,-0.0020797742681270717]","[1,1,1]","[-0.0042780077524808965,0.047505647770212524]","[1,1,1]","[-0.05192186010208357,-0.021759222848525113]","[1,1,1]","[-0.09069757577051378,-0.09093624876934184]","[1,1,1]","[0.058267841454031105,-0.1795060200830663]","[1,1,1]","[-0.086849673611105,0.16341151449407734]","[1,1,1]","[0.08432764631453664,-0.022671300585719145]","[1,1,1]","[0.00923078512016639,0.19412767969157374]","[1,1,1]","[-0.1416334077731468,0.03890236373162939]","[1,1,1]","[-0.18564561257520049,0.020744418293826547]","[1,1,1]","[0.09488485722614892,-0.12537561692013321]","[-1,-1,-1]","[-0.14977350514113638,-0.019376818742843985]","[1,1,1]","[0.05355671909711264,0.015211708184289713]","[1,1,1]","[0.165226388680287,-0.07401110896789473]","[1,1,1]","[-0.0356853107855115,-0.1845875428523808]","[1,1,1]","[-0.135960151321825,-0.11525268337348253]","[1,1,1]","[-0.10091022205603652,0.11815413796504168]","[1,1,1]","[-0.0356358855636059,0.12528784812870924]","[-1,-1,-1]","[0.16273581942454612,0.016804991444868324]","[1,1,1]","[-0.10905119190377266,-0.009677991068463595]","[1,1,1]","[0.0568466629308756,0.13432945673303084]","[1,1,1]","[-0.08818846444647298,-0.1750377747854728]","[1,1,1]","[0.13551663445899448,-0.03254373403772127]","[1,1,1]","[-0.04138082806787753,-0.14153828011697264]","[1,1,1]","[-0.02706611545442714,-0.06321237896662114]","[1,1,1]","[0.04948297057138764,-0.09413302791874432]","[1,1,1]","[-0.19180471388053838,-0.02327317065984615]","[-1,-1,-1]","[-0.1443050954394974,0.0789147793237371]","[1,1,1]","[-0.08157179685361114,0.059260883848364226]","[1,1,1]","[0.03394349555385967,0.06925417023284242]","[1,1,1]","[-0.16607063786567813,-0.0806025494600762]","[1,1,1]","[0.09613655436716614,-0.0747625918480371]","[1,1,1]","[0.02,0.02]",108.906,0,16,16,209,1,,,,,,,
,,,,,,,5c0004fc4210510001725547,682f0fc64b8b30d961a3d6c0,2025-05-22_13h52.02.525,cuing_paradigm_dot,2024.1.5,MacIntel,80.64516129,682d573fa47f1360d1451895,,,,,,,,,,,108.9065,109.3991,,,109.6394,109.9995,right,0.3477,,,,,,,,,0.1,,,,,,109.3991,109.6394,109.9996,"[0.12543816667039812,-0.04881466212994813]","[-1,-1,-1]","[0.09971651165532644,0.16490256169755427]","[-1,-1,-1]","[-0.023663755152283042,-0.12354762929427306]","[-1,-1,-1]","[0.12665540691354854,0.01704864082826361]","[-1,-1,-1]","[-0.08647662314376703,-0.04984563749741307]","[-1,-1,-1]","[-0.045525583485424584,-0.007552871515093389]","[-1,-1,-1]","[-0.12114589506269174,-0.14853570286171194]","[-1,-1,-1]","[-0.06563483417605208,-0.16672889059014798]","[-1,-1,-1]","[0.07010436915241611,-0.17051906253215512]","[-1,-1,-1]","[0.03786763698417714,0.09897810987058513]","[-1,-1,-1]","[-0.09407885157573535,0.056024760725036246]","[-1,-1,-1]","[0.10674022060728972,0.0902345740512208]","[-1,-1,-1]","[-0.04320424048221966,0.05449852049206765]","[-1,-1,-1]","[-0.1431663547073739,-0.10688934713566961]","[-1,-1,-1]","[0.023661508617651778,0.03252706299024651]","[1,1,1]","[0.09297761540586566,-0.10859990747593742]","[1,1,1]","[-0.009500552683252877,0.1893269445173073]","[-1,-1,-1]","[-0.0754977605718613,-0.08874443648752998]","[1,1,1]","[0.18428508887278905,0.002002853809028426]","[-1,-1,-1]","[0.0522597253380676,0.16424308423651285]","[-1,-1,-1]","[-0.01246159348071773,-0.17831316920208282]","[-1,-1,-1]","[-0.09294672585673615,0.00021680092219316418]","[-1,-1,-1]","[-0.044540766548105404,-0.048316043188518384]","[-1,-1,-1]","[0.15702805957942964,-0.08139519780935768]","[-1,-1,-1]","[0.08436273753144811,-0.05415817546144565]","[-1,-1,-1]","[-0.19058690635362385,0.010591469603764376]","[-1,-1,-1]","[0.15870677044880632,0.05939035507300002]","[-1,-1,-1]","[-0.07359558159479469,0.1096173545561007]","[-1,-1,-1]","[0.15303256584718747,0.10911240038586091]","[-1,-1,-1]","[0.07514214304903456,-0.00950913223793826]","[-1,-1,-1]","[0.07260575332335445,0.04380260850501396]","[-1,-1,-1]","[-0.14548340155105907,0.04030573754890629]","[-1,-1,-1]","[0.02,0.02]",111.0948,0,17,17,27,1,,,,,,,
,,,,,,,5c0004fc4210510001725547,682f0fc64b8b30d961a3d6c0,2025-05-22_13h52.02.525,cuing_paradigm_dot,2024.1.5,MacIntel,80.64516129,682d573fa47f1360d1451895,,,,,,,,,,,111.0951,111.5887,,,111.8414,112.4554,right,0.6019,,,,,,,,,0.5,,,,,,111.5887,111.8413,112.4554,"[0.04655057891459742,0.0521898790028536]","[1,1,1]","[0.004634395024444675,-0.005690124150106451]","[-1,-1,-1]","[-0.0142566113992608,0.1329889511467332]","[-1,-1,-1]","[0.051359778354662634,-0.01912907336037875]","[1,1,1]","[-0.08582816191834179,-0.07902588099951054]","[1,1,1]","[0.11138130047445458,0.0687895500096867]","[-1,-1,-1]","[-0.14511564465506044,-0.12515475173760118]","[1,1,1]","[0.014556133237138103,-0.08313259018044725]","[-1,-1,-1]","[-0.11895184766649833,0.07832662505912699]","[1,1,1]","[0.05844303091754702,-0.12789908839021444]","[-1,-1,-1]","[-0.009477189536436932,0.18732253631379744]","[1,1,1]","[-0.12657474849173272,-0.03221054677333955]","[-1,-1,-1]","[-0.0003937139201754135,0.05007763922880588]","[1,1,1]","[0.1185485328521897,0.14898376894494728]","[1,1,1]","[-0.04806527989534878,0.1766371322489606]","[-1,-1,-1]","[0.1970938979460585,0.02532384453019276]","[-1,-1,-1]","[-0.08316783628572828,0.026211292916318702]","[1,1,1]","[0.11771489588213897,0.0073159498250972115]","[-1,-1,-1]","[-0.0200853445894526,-0.05362678869407586]","[1,1,1]","[-0.013145936003603734,-0.17947342238993377]","[1,1,1]","[0.1137059126309061,-0.07396165358534713]","[-1,-1,-1]","[-0.13199609051753441,0.13957911481137797]","[-1,-1,-1]","[0.10547776048360058,-0.14441283831057014]","[1,1,1]","[-0.06318865554419495,-0.11334099286120648]","[1,1,1]","[-0.18015091146709847,-0.03752617537379016]","[-1,-1,-1]","[0.16829564896051005,-0.058191141557793376]","[1,1,1]","[-0.09037494254152607,0.10899125237780335]","[1,1,1]","[-0.028835401653809115,-0.13758048477946613]","[-1,-1,-1]","[-0.18681376846255535,0.0427392193730595]","[1,1,1]","[-0.17967451793039108,-0.08352223918284009]","[-1,-1,-1]","[-0.06116201190835063,-0.1856631249096129]","[-1,-1,-1]","[0.0699754421473933,0.12396981972790867]","[-1,-1,-1]","[0.02,0.02]",113.5507,0,18,18,108,1,,,,,,,
,,,,,,,5c0004fc4210510001725547,682f0fc64b8b30d961a3d6c0,2025-05-22_13h52.02.525,cuing_paradigm_dot,2024.1.5,MacIntel,80.64516129,682d573fa47f1360d1451895,,,,,,,,,,,113.551,114.0436,,,114.2851,114.5783,right,0.2846,,,,,,,,,0.1,,,,,,114.0436,114.285,114.5783,"[-0.06209808393005486,-0.09503275085304312]","[-1,-1,-1]","[-0.010657375936264587,0.19174819862887646]","[-1,-1,-1]","[0.1307076211448917,0.11806739174340256]","[-1,-1,-1]","[-0.12538390168281063,0.08048015391543527]","[-1,-1,-1]","[0.1342704024745823,-0.11897858335543307]","[-1,-1,-1]","[0.08497534052147826,-0.11036465519425652]","[1,1,1]","[-0.14725446052992766,-0.08046492808554019]","[-1,-1,-1]","[0.15138564930639567,0.009171628778312846]","[-1,-1,-1]","[-0.0014422182985920945,-0.011690510123126921]","[-1,-1,-1]","[-0.10274043496740136,-0.06535993407649035]","[-1,-1,-1]","[-0.120372696445144,-0.11372211751466153]","[-1,-1,-1]","[-0.0883522132348941,0.016549686277452215]","[-1,-1,-1]","[-0.011228813406814319,-0.058936772007361055]","[-1,-1,-1]","[0.16131715247047415,-0.07232550186917973]","[-1,-1,-1]","[0.1496335068748789,0.07738136918509274]","[-1,-1,-1]","[-0.17725963394988062,0.02471482439546473]","[1,1,1]","[-0.058556214293428256,-0.04647230809690329]","[-1,-1,-1]","[0.014974821860454375,0.14203891059996102]","[-1,-1,-1]","[0.001222756457912385,-0.13001035975813613]","[-1,-1,-1]","[-0.005844786405532109,0.034587713649573124]","[-1,-1,-1]","[-0.190661031355922,-0.039220236942235996]","[-1,-1,-1]","[-0.055020909137705076,-0.13995485677629674]","[-1,-1,-1]","[-0.024045956819963996,0.08334487656214828]","[-1,-1,-1]","[0.0573167438079625,0.10637849692361719]","[-1,-1,-1]","[0.09583712606038988,-0.030243324069215906]","[-1,-1,-1]","[-0.1162270878737936,0.14565606058458866]","[-1,-1,-1]","[0.062028888095933724,-0.06232072196806507]","[1,1,1]","[0.03836927496025793,0.040642394709013686]","[-1,-1,-1]","[0.05839619385431166,0.1716191160451537]","[-1,-1,-1]","[-0.04724539260018928,0.16331392375925746]","[-1,-1,-1]","[0.024385968932060794,-0.1840546066938103]","[-1,-1,-1]","[-0.06350497721220724,0.06302781328361358]","[-1,-1,-1]","[0.02,0.02]",115.6723,0,19,19,21,1,,,,,,,
,,,,,,,5c0004fc4210510001725547,682f0fc64b8b30d961a3d6c0,2025-05-22_13h52.02.525,cuing_paradigm_dot,2024.1.5,MacIntel,80.64516129,682d573fa47f1360d1451895,,,,,,,,,,,115.6725,116.1659,,,116.4067,116.7266,right,0.308,,,,,,,,,0.1,,,,,,116.1659,116.4066,116.7266,"[-0.07366148835766669,0.11330420200461655]","[-1,-1,-1]","[0.0650059822727478,0.12153551855787717]","[-1,-1,-1]","[0.04458948994817026,-0.13972978869895164]","[-1,-1,-1]","[0.13515459040010258,-0.1024248822296773]","[-1,-1,-1]","[0.10870209686487382,-0.010644458810605644]","[-1,-1,-1]","[-0.09125463726961282,-0.12394345947251292]","[-1,-1,-1]","[-0.14834815775095656,-0.05575831643244913]","[-1,-1,-1]","[-0.16855758384233765,0.06554554199551928]","[-1,-1,-1]","[0.13186181423589727,0.03582705692211831]","[-1,-1,-1]","[-0.02851335262483874,0.13842679891510068]","[-1,-1,-1]","[0.000295896390235805,0.003966651621499402]","[-1,-1,-1]","[0.018995868993938198,0.04130656927161915]","[-1,-1,-1]","[-0.16689179987803493,-0.11001292021627203]","[1,1,1]","[0.18588309817754975,0.02973096392328548]","[-1,-1,-1]","[0.04874838900628971,-0.04642452459816866]","[-1,-1,-1]","[-0.041106871969691226,0.07623390397419312]","[-1,-1,-1]","[0.1319121056519702,0.09749752165756861]","[-1,-1,-1]","[0.0726959859830855,-0.18320585943029402]","[-1,-1,-1]","[-0.09755404176022554,-0.0262983171685566]","[-1,-1,-1]","[0.08072733138415168,0.16604611490343904]","[-1,-1,-1]","[-0.08366478420267347,0.05747231841101286]","[-1,-1,-1]","[-0.0009780881000884115,-0.18915084671940688]","[1,1,1]","[0.18114080672313848,0.07690980697317695]","[-1,-1,-1]","[0.021290037653279012,0.09768388748188599]","[-1,-1,-1]","[-0.10530508949522586,0.15535041241979045]","[-1,-1,-1]","[-0.05642261909688725,-0.07772288893123075]","[1,1,1]","[0.18062932111190294,-0.06168749595502447]","[-1,-1,-1]","[0.1716865949278869,-0.015870440568177446]","[-1,-1,-1]","[-0.13182797381302144,0.00020955408094107056]","[-1,-1,-1]","[-0.06859374315134896,0.015232191803128299]","[-1,-1,-1]","[0.06256960835985897,0.060977845727632395]","[-1,-1,-1]","[0.013973331426888714,0.1386326429214895]","[-1,-1,-1]","[0.02,0.02]",117.8221,0,20,20,13,1,,,,,,,
,,,,,,,5c0004fc4210510001725547,682f0fc64b8b30d961a3d6c0,2025-05-22_13h52.02.525,cuing_paradigm_dot,2024.1.5,MacIntel,80.64516129,682d573fa47f1360d1451895,,,,,,,,,,,117.8222,118.3158,,,118.5564,119.2235,left,0.6545,,,,,,,,,0.5,,,,,,118.3158,118.5563,119.2235,"[-0.08655396728571446,-0.16988917292213906]","[-1,-1,-1]","[-0.002617195662529571,-0.10869788955374621]","[-1,-1,-1]","[-0.0925570865240258,0.1712852605610326]","[-1,-1,-1]","[-0.054281071642991736,-0.03270825461481955]","[-1,-1,-1]","[0.07609459046908149,-0.16021092690176594]","[1,1,1]","[-0.1612828416762702,0.07823627746061708]","[1,1,1]","[0.10686598603086789,0.14578638671953745]","[-1,-1,-1]","[0.08456809527669297,-0.041343350854881264]","[-1,-1,-1]","[0.15809205530627002,0.006201767061658666]","[1,1,1]","[0.11551313795430415,0.0096810044070836]","[-1,-1,-1]","[0.024070255057481206,0.07505352270666991]","[1,1,1]","[-0.1452669764993139,-0.0864337751051806]","[1,1,1]","[0.15956401961396874,0.08964200462911466]","[-1,-1,-1]","[-0.060723862302226546,0.055835310112563326]","[-1,-1,-1]","[-0.026725263886736125,-0.15315508718249685]","[-1,-1,-1]","[-0.09635356094340151,-0.07804880646723834]","[1,1,1]","[0.035260916570933235,-0.1661817095858502]","[-1,-1,-1]","[-0.14512427411620873,-0.02900535789747032]","[1,1,1]","[-0.117453305108544,0.10623909365259157]","[-1,-1,-1]","[0.17892288766146852,-0.051773767609956035]","[-1,-1,-1]","[-0.00863049690556876,-0.04148307128274726]","[1,1,1]","[0.06193597373758892,0.15380464578567069]","[1,1,1]","[0.036629299158051055,-0.015640156927222197]","[-1,-1,-1]","[-0.02058456891535494,0.043237265455576025]","[1,1,1]","[-0.06703238662142044,0.09794644746696354]","[1,1,1]","[0.05262022424011231,-0.07735992456796142]","[-1,-1,-1]","[-0.15996034623304994,0.014897930798268209]","[1,1,1]","[-0.03095298173922382,0.16734044507511078]","[1,1,1]","[-0.1451363998155885,-0.12653833712386692]","[1,1,1]","[0.01616063551172898,0.14533284634541885]","[1,1,1]","[0.14266464332922563,0.04781871754846903]","[-1,-1,-1]","[0.16679425665278946,-0.09105602289417543]","[1,1,1]","[0.02,0.02]",120.317,0,21,21,107,1,,,,,,,
,,,,,,,5c0004fc4210510001725547,682f0fc64b8b30d961a3d6c0,2025-05-22_13h52.02.525,cuing_paradigm_dot,2024.1.5,MacIntel,80.64516129,682d573fa47f1360d1451895,,,,,,,,,,,120.3173,120.8116,,,121.0658,121.3862,left,0.3085,,,,,,,,,0.9,,,,,,120.8116,121.0658,121.3863,"[-0.0565082608404575,0.01935476701827506]","[1,1,1]","[0.035477828406025404,0.0742191597422052]","[1,1,1]","[-0.16790955183376136,-0.05825380089071368]","[1,1,1]","[0.08246370635476619,0.1669067323569734]","[-1,-1,-1]","[-0.15023537568860457,-0.09907603349209491]","[1,1,1]","[-0.05133025626798678,-0.18230514202103512]","[-1,-1,-1]","[0.13442627555187106,0.04243384264529864]","[1,1,1]","[0.008061256750567724,0.11445362597562676]","[1,1,1]","[-0.06428442867868224,0.1880508848898439]","[1,1,1]","[0.08926603807195253,-0.05328323121687228]","[1,1,1]","[0.043108921696143984,-0.1944904426443538]","[1,1,1]","[0.08002268684863731,-0.14354483020917203]","[1,1,1]","[0.03961424012316726,-0.1466409174596251]","[1,1,1]","[-0.06548797342089617,0.09260634055723876]","[-1,-1,-1]","[0.0061066885352859665,-0.0600339159812475]","[1,1,1]","[-0.12546935354075672,0.08807376828026918]","[1,1,1]","[-0.16305277590553524,0.102703655859532]","[1,1,1]","[-0.10631186322497271,-0.009027359916144125]","[1,1,1]","[0.18839658429358813,-0.020513670072515776]","[1,1,1]","[0.03862486672176936,-0.0353561536585514]","[1,1,1]","[0.006346278571436823,0.02285183585901194]","[1,1,1]","[0.05769750431589221,0.020049183259217732]","[1,1,1]","[0.13301827347998407,-0.04228242038697257]","[1,1,1]","[0.16770587525108321,0.06952901396633664]","[1,1,1]","[-0.12498430806464565,-0.04895110303852278]","[1,1,1]","[-0.04229032368796252,-0.13665951321039962]","[1,1,1]","[-0.18103341312333265,0.014262027707175218]","[1,1,1]","[-0.06555076798304446,0.1386392864817575]","[1,1,1]","[0.06825022626183293,-0.1006192890896111]","[1,1,1]","[-0.08150638724053538,-0.11126957714457371]","[1,1,1]","[-0.06174798786854955,-0.0416917172955011]","[1,1,1]","[0.14472077884639922,-0.11899718472904303]","[1,1,1]","[0.02,0.02]",122.4794,0,22,22,185,1,,,,,,,
,,,,,,,5c0004fc4210510001725547,682f0fc64b8b30d961a3d6c0,2025-05-22_13h52.02.525,cuing_paradigm_dot,2024.1.5,MacIntel,80.64516129,682d573fa47f1360d1451895,,,,,,,,,,,122.4796,122.9743,,,123.2145,123.4682,left,0.2446,,,,,,,,,0.9,,,,,,122.9743,123.2145,123.4682,"[-0.07567181507468067,0.13479131820100212]","[1,1,1]","[-0.12875857930787332,-0.07307698880722736]","[-1,-1,-1]","[-0.188705758004257,0.010841477608322981]","[1,1,1]","[-0.16029861009636917,-0.09990012457899126]","[1,1,1]","[0.09788830990376433,-0.057887535201197785]","[-1,-1,-1]","[0.051355925471063,0.035650366475802185]","[1,1,1]","[-0.1262759731707643,0.12263481973511624]","[1,1,1]","[-0.14755497131293105,-0.03502140224798697]","[1,1,1]","[-0.10353807777541124,-0.13115350189079175]","[-1,-1,-1]","[0.11468190930773678,0.1396377662739492]","[1,1,1]","[0.0683997116038299,-0.1780641865648695]","[1,1,1]","[-0.013563800140449937,-0.1498018037831898]","[1,1,1]","[0.14858123215075467,-0.11662660371362127]","[1,1,1]","[0.031205402900396112,0.11218385703647518]","[1,1,1]","[0.15541885747801681,0.054013513526610504]","[1,1,1]","[-0.029552510735257304,0.013439678945861174]","[1,1,1]","[0.14856257339740855,-0.05305852505835686]","[1,1,1]","[0.02166367517916109,-0.11941899527471447]","[1,1,1]","[-0.03768699140434153,0.060512144755672195]","[1,1,1]","[0.009712846621888184,-0.05350600062898631]","[1,1,1]","[0.14654456189325277,0.11000143471916195]","[1,1,1]","[-0.030370777194978316,-0.09935273055549275]","[1,1,1]","[-0.014248057048979298,0.19183199399203024]","[1,1,1]","[0.032822834853702715,0.1793783530767524]","[1,1,1]","[0.08334674552589107,-0.008351701750125685]","[1,1,1]","[0.08368775534617236,-0.11629198343429532]","[1,1,1]","[-0.13592059635948625,0.03987046346429397]","[1,1,1]","[-0.07481630984993845,-0.09905504324462586]","[1,1,1]","[0.012557420939445639,-0.0009722797820528288]","[1,1,1]","[0.1005102815412322,0.050101332056093184]","[1,1,1]","[-0.03314059911049098,0.14883594576652415]","[1,1,1]","[0.08035474734727517,0.1753163907907468]","[1,1,1]","[0.02,0.02]",124.5618,0,23,23,195,1,,,,,,,
,,,,,,,5c0004fc4210510001725547,682f0fc64b8b30d961a3d6c0,2025-05-22_13h52.02.525,cuing_paradigm_dot,2024.1.5,MacIntel,80.64516129,682d573fa47f1360d1451895,,,,,,,,,,,124.5621,125.0556,,,125.2962,125.5633,left,0.2537,,,,,,,,,0.9,,,,,,125.0556,125.2961,125.5633,"[-0.08978812803202106,-0.10856128496919097]","[1,1,1]","[0.07535459539845321,-0.12607292075493806]","[1,1,1]","[0.05026814695941961,-0.03966645798793779]","[1,1,1]","[0.04872113673764945,0.18656426962109138]","[1,1,1]","[-0.14487291402900607,-0.01591796061119137]","[1,1,1]","[-0.10790573564187175,0.018022516216140937]","[-1,-1,-1]","[-0.07085118741414599,0.16944021410428445]","[1,1,1]","[-0.04560908321595271,-0.054260659602100816]","[1,1,1]","[0.12474570239947953,0.15051331779259333]","[1,1,1]","[0.06321464253703361,-0.08565241913946633]","[1,1,1]","[0.03122134782454403,0.03854144660861017]","[1,1,1]","[0.014928368175287223,-0.05980545907617429]","[1,1,1]","[0.009065866313920444,-0.11144319771531445]","[1,1,1]","[-0.07074813998386899,0.08264206289701627]","[1,1,1]","[0.11087401763997504,0.011703856174756798]","[1,1,1]","[0.16373689274570016,0.10864694507093202]","[1,1,1]","[0.1772122671374258,-0.061109860121191385]","[1,1,1]","[0.002040482949810721,0.009432834165386914]","[1,1,1]","[0.12439453134171577,-0.07319545426027352]","[1,1,1]","[0.09388010009063914,-0.026333742322802837]","[1,1,1]","[0.14567275784107717,0.04447301304565013]","[1,1,1]","[-0.15228943003895454,0.0929492993890835]","[1,1,1]","[-0.1764872956249805,0.023484857328595416]","[1,1,1]","[-0.036007947765719577,0.19631842261250274]","[-1,-1,-1]","[0.012038810977808225,0.08320923216078878]","[1,1,1]","[0.11398136980485181,0.10820378268790845]","[1,1,1]","[0.1366709718490298,-0.14443794953927222]","[1,1,1]","[-0.0803877541787449,-0.013972072853554519]","[1,1,1]","[-0.05045327114493765,-0.1793614300657539]","[1,1,1]","[0.17994767309621346,-0.004499026070144876]","[1,1,1]","[-0.1563703189949507,-0.07920965178404023]","[1,1,1]","[0.04165286407441503,-0.16636796550483654]","[-1,-1,-1]","[0.02,0.02]",126.6575,0,24,24,205,1,,,,,,,
,,,,,,,5c0004fc4210510001725547,682f0fc64b8b30d961a3d6c0,2025-05-22_13h52.02.525,cuing_paradigm_dot,2024.1.5,MacIntel,80.64516129,682d573fa47f1360d1451895,,,,,,,,,,,126.6578,127.1513,,,127.3919,127.7258,right,0.321,,,,,,,,,0.6,,,,,,127.1513,127.3919,127.7258,"[-0.03289242056475682,0.028959086050017745]","[-1,-1,-1]","[0.15845245994510307,0.022461053616530932]","[-1,-1,-1]","[0.12958725362486354,0.09674814068703466]","[-1,-1,-1]","[0.03051935513734433,0.14103346054899946]","[1,1,1]","[-0.1502849744452541,0.06358396840244619]","[-1,-1,-1]","[0.02299805463096744,0.0701980900845982]","[1,1,1]","[-0.0954353922786333,-0.11012047930697451]","[1,1,1]","[0.16371557568024858,0.06583224595212224]","[1,1,1]","[-0.18572223341239594,-0.06721460744269087]","[-1,-1,-1]","[0.0864326952564482,0.10843785375043488]","[1,1,1]","[0.04685516857233012,-0.07970826810205708]","[1,1,1]","[0.08953263526194664,-0.054008989788794905]","[1,1,1]","[0.03626526626966758,-0.1858600518512475]","[1,1,1]","[-0.016117320604554865,0.1160428670483299]","[1,1,1]","[-0.14286283220562085,-0.08049312475324666]","[1,1,1]","[0.01023244649195312,-0.1001387507800811]","[-1,-1,-1]","[-0.13430029214034286,0.022966290012443873]","[1,1,1]","[-0.0574132233786832,0.113182837867824]","[1,1,1]","[0.19686744306076415,0.006653525605943057]","[-1,-1,-1]","[-0.15587585913942975,-0.030507428631284736]","[1,1,1]","[0.0768042503463914,0.16926403852058108]","[-1,-1,-1]","[-0.06396561670607398,-0.17118387802046547]","[1,1,1]","[0.1363245161797332,-0.04399015078585286]","[-1,-1,-1]","[0.04498807909158298,0.0028886895202466212]","[1,1,1]","[0.06326568854277038,0.040955343160575884]","[1,1,1]","[-0.02161679151463347,-0.1350721566991451]","[1,1,1]","[-0.08572301606947301,0.06367205881290071]","[1,1,1]","[0.11931939244399652,0.13726682953078417]","[1,1,1]","[0.08338584971190141,-0.1746113640731555]","[-1,-1,-1]","[-0.0365745176972151,0.1916997878591367]","[-1,-1,-1]","[-0.07672188742868857,0.17466744002789364]","[-1,-1,-1]","[-0.06443507947533579,-0.04360853957883176]","[-1,-1,-1]","[0.02,0.02]",128.8203,0,25,25,158,1,,,,,,,
,,,,,,,5c0004fc4210510001725547,682f0fc64b8b30d961a3d6c0,2025-05-22_13h52.02.525,cuing_paradigm_dot,2024.1.5,MacIntel,80.64516129,682d573fa47f1360d1451895,,,,,,,,,,,128.8206,129.3143,,,129.5672,129.8081,right,0.2337,,,,,,,,,0.1,,,,,,129.3144,129.5672,129.8082,"[0.010287363454848692,-0.14729037810062715]","[-1,-1,-1]","[0.04395768552794117,-0.061141989876090666]","[-1,-1,-1]","[-0.03983026253773363,-0.08930444107569527]","[-1,-1,-1]","[-0.0511039692768091,0.0025446980692204646]","[-1,-1,-1]","[0.07142033311941888,-0.12583350189990392]","[-1,-1,-1]","[-0.13155747223647174,-0.09150486271861373]","[-1,-1,-1]","[-0.18031008820474345,0.02291716256157153]","[-1,-1,-1]","[-0.0313254971023356,0.11875407633909113]","[-1,-1,-1]","[0.15617577180944917,-0.055534173175445206]","[-1,-1,-1]","[0.052639290170058806,0.16756718134806345]","[-1,-1,-1]","[0.0596257767146859,0.04207638158395663]","[-1,-1,-1]","[-0.195055947673773,-0.03973737924173965]","[-1,-1,-1]","[0.09757234320425252,0.12366415901502177]","[-1,-1,-1]","[-0.04250525547168162,-0.14976232073344464]","[1,1,1]","[0.09634241700336926,-0.06600097637557564]","[1,1,1]","[0.04133773483829096,-0.17560704021651216]","[-1,-1,-1]","[0.021759504600889698,0.012910767830272318]","[-1,-1,-1]","[-0.001700707473577944,0.18463260583941285]","[-1,-1,-1]","[0.11105331341142423,0.06952714513651266]","[-1,-1,-1]","[-0.13545868023647945,-0.014969386597410652]","[-1,-1,-1]","[-0.09461627774243199,-0.15286335785165658]","[-1,-1,-1]","[0.05966193096296944,0.1038015731946691]","[1,1,1]","[-0.01424356237580494,0.03141314938724857]","[-1,-1,-1]","[0.02836152410684457,0.13548301185751255]","[-1,-1,-1]","[-0.09029210127009044,0.03826629796481717]","[-1,-1,-1]","[-0.03983792091318503,0.1680359132512677]","[-1,-1,-1]","[0.08514641598926675,0.002476639828664764]","[-1,-1,-1]","[-0.07540651073330823,0.13064327595300865]","[-1,-1,-1]","[0.123650523812236,-0.1104590227166318]","[-1,-1,-1]","[0.19031560338719009,0.05604362309255981]","[-1,-1,-1]","[-0.012265429120630458,-0.04237902019263074]","[-1,-1,-1]","[0.014919952281531357,0.05982161157725904]","[-1,-1,-1]","[0.02,0.02]",130.9021,0,26,26,18,1,,,,,,,
,,,,,,,5c0004fc4210510001725547,682f0fc64b8b30d961a3d6c0,2025-05-22_13h52.02.525,cuing_paradigm_dot,2024.1.5,MacIntel,80.64516129,682d573fa47f1360d1451895,,,,,,,,,,,130.9027,131.3959,,,131.6361,131.9029,right,0.2544,,,,,,,,,0.4,,,,,,131.396,131.6361,131.903,"[-0.03715015975072252,0.13470217012641705]","[1,1,1]","[0.08260365756336122,-0.05534003307948615]","[1,1,1]","[0.11027379788885219,-0.10604684939511115]","[1,1,1]","[-0.015994232774383742,0.1747080179122256]","[-1,-1,-1]","[0.13439107656997687,-0.04311667187377337]","[-1,-1,-1]","[-0.11203531028565221,0.014479229734194573]","[1,1,1]","[0.14845901597485986,-0.08562275626932828]","[1,1,1]","[0.004541000315038547,-0.15496809088742294]","[1,1,1]","[-0.11223840631699321,0.16507834919979913]","[-1,-1,-1]","[0.09148298332495255,-0.016218507649752235]","[1,1,1]","[0.04438065498918882,0.10190690003438106]","[-1,-1,-1]","[-0.09437381806703979,-0.07988215203351941]","[-1,-1,-1]","[-0.016655708950962776,0.09379805620882319]","[-1,-1,-1]","[-0.05312495756443913,-0.11387623332709648]","[-1,-1,-1]","[-0.016478512633765575,-0.0891687032788976]","[1,1,1]","[-0.11905354631725956,-0.13223963639977276]","[1,1,1]","[-0.05595846854219062,-0.027410084950084432]","[-1,-1,-1]","[-0.06904683501026888,0.17376963231702675]","[-1,-1,-1]","[0.014073893653066967,-0.015426945909622925]","[-1,-1,-1]","[-0.17882363151706032,0.049108237985807594]","[1,1,1]","[0.11455761709999032,0.09232966310140929]","[-1,-1,-1]","[0.04121059992101807,0.16854373758933203]","[-1,-1,-1]","[0.08464308263186564,0.064199724600204]","[1,1,1]","[0.08415267485345886,0.14804828239950554]","[1,1,1]","[-0.15767770276400933,-0.012422281709416953]","[-1,-1,-1]","[0.05182257281904895,-0.17256112463018822]","[-1,-1,-1]","[-0.15557458990062148,-0.06063822929704914]","[-1,-1,-1]","[0.1772467425750872,0.0033770707586581027]","[1,1,1]","[-0.13711998835817482,0.0916813664712514]","[-1,-1,-1]","[0.06139916917585042,-0.12913791917626025]","[-1,-1,-1]","[-0.015703839818995025,0.029257762735967054]","[-1,-1,-1]","[0.05334769541473664,0.027099421993558255]","[-1,-1,-1]","[0.02,0.02]",132.9982,0,27,27,58,1,,,,,,,
,,,,,,,5c0004fc4210510001725547,682f0fc64b8b30d961a3d6c0,2025-05-22_13h52.02.525,cuing_paradigm_dot,2024.1.5,MacIntel,80.64516129,682d573fa47f1360d1451895,,,,,,,,,,,132.9985,133.4919,,,133.7327,133.9992,right,0.2545,,,,,,,,,0.45,,,,,,133.492,133.7326,133.9992,"[-0.18743626162094218,-0.012919154929968021]","[1,1,1]","[-0.12396848646871018,-0.15593097154836247]","[-1,-1,-1]","[0.08250041150783842,-0.03136841948860435]","[1,1,1]","[0.1279212897781525,0.09570304967087961]","[-1,-1,-1]","[0.07977240248813894,-0.16264142237838844]","[1,1,1]","[-0.0061408235562894105,0.00017877260558698312]","[-1,-1,-1]","[0.18293645294410493,0.02975160351099489]","[1,1,1]","[0.12003498384656498,-0.06969703770525672]","[-1,-1,-1]","[0.17195008622421512,0.06873785533931458]","[-1,-1,-1]","[0.04315385196865017,0.022413660991795807]","[1,1,1]","[-0.038002420261212935,-0.10182166302398803]","[-1,-1,-1]","[0.11611663757023329,-0.0012488620677049184]","[1,1,1]","[-0.052453436669069084,0.06511586083221592]","[1,1,1]","[0.02110562844849962,-0.032432157607273034]","[1,1,1]","[0.05439711562604052,0.17138562119984493]","[1,1,1]","[0.10596617045387834,-0.1196092093225539]","[1,1,1]","[-0.09540966534640914,-0.11458213404435406]","[1,1,1]","[0.067048986632418,0.09715758439027686]","[-1,-1,-1]","[-0.07033726933626702,-0.025556310354079695]","[-1,-1,-1]","[-0.10990471355680301,0.0034720003539838755]","[-1,-1,-1]","[-0.1432027167203287,0.10895921719292988]","[-1,-1,-1]","[0.013590232213837292,0.1023751411176351]","[-1,-1,-1]","[-0.08296133074401793,0.10602585980754338]","[1,1,1]","[0.14388606319516475,-0.10290856788026785]","[-1,-1,-1]","[0.1825704567496083,-0.02987632242592653]","[-1,-1,-1]","[-0.09521704260120734,0.05353329181006551]","[1,1,1]","[0.0554148350528552,-0.0976528125567879]","[-1,-1,-1]","[0.03891109697869791,-0.1664391430820283]","[-1,-1,-1]","[-0.02822791468391613,0.11709000528672024]","[-1,-1,-1]","[-0.02358828868870691,0.18227410450267567]","[-1,-1,-1]","[0.09715651581621304,0.12443566684976137]","[1,1,1]","[-0.18529898451288215,0.07042602482951488]","[-1,-1,-1]","[0.02,0.02]",135.0931,0,28,28,65,1,,,,,,,
,,,,,,,5c0004fc4210510001725547,682f0fc64b8b30d961a3d6c0,2025-05-22_13h52.02.525,cuing_paradigm_dot,2024.1.5,MacIntel,80.64516129,682d573fa47f1360d1451895,,,,,,,,,,,135.0933,135.5869,,,135.8275,136.3212,left,0.4815,,,,,,,,,0.6,,,,,,135.5869,135.8275,136.3212,"[0.16296401391975007,0.020099633152389263]","[1,1,1]","[-0.018921580146600593,-0.159502726476926]","[1,1,1]","[-0.1510181774456249,-0.047188897924333596]","[1,1,1]","[-0.017207771072591325,0.06170097740084891]","[-1,-1,-1]","[-0.04532824876694328,0.13795901717718484]","[1,1,1]","[-0.11327062957311872,0.139901578443277]","[1,1,1]","[0.14759658268861245,-0.05067764743792631]","[1,1,1]","[0.019665745761671793,0.08337698516051631]","[-1,-1,-1]","[0.03562128241468592,-0.038898186867003325]","[1,1,1]","[0.0421357238976785,0.014424018040845223]","[1,1,1]","[-0.07120596057131572,0.0003666714792980422]","[1,1,1]","[-0.19409568812027916,0.0004389129898904049]","[-1,-1,-1]","[0.1296782798964696,0.12058437984112011]","[-1,-1,-1]","[-0.18155702230114598,-0.08133546370771905]","[-1,-1,-1]","[0.11939369631988957,-0.09348490740268864]","[-1,-1,-1]","[0.056227012898781605,0.1139715517607668]","[1,1,1]","[-0.08726189707215486,-0.08079212422941474]","[1,1,1]","[0.09489885839160286,-0.008739892627045467]","[1,1,1]","[0.02541406942138001,-0.18539227421883628]","[1,1,1]","[-0.12194062098927974,-0.13794135728481172]","[-1,-1,-1]","[0.044423348050162306,-0.14735282919439474]","[1,1,1]","[-0.12245921501903306,0.0220379585559844]","[1,1,1]","[0.04145188360759457,0.15593666369527032]","[-1,-1,-1]","[-0.17659808812092975,0.08587174291390764]","[1,1,1]","[-0.10640162895044743,0.07759558391174352]","[-1,-1,-1]","[0.1477068862891646,-0.12461676849036558]","[-1,-1,-1]","[0.036920998714169866,-0.10410989640561749]","[-1,-1,-1]","[-0.141921185108749,-0.09676815075072767]","[1,1,1]","[-0.0011400821367238238,0.01916842000741379]","[-1,-1,-1]","[-0.15101149253669818,0.12621554782796682]","[1,1,1]","[0.1789784238227679,-0.02226159241152999]","[1,1,1]","[-0.005925434508324445,-0.07140140716561204]","[-1,-1,-1]","[0.02,0.02]",137.4165,0,29,29,156,1,,,,,,,
,,,,,,,5c0004fc4210510001725547,682f0fc64b8b30d961a3d6c0,2025-05-22_13h52.02.525,cuing_paradigm_dot,2024.1.5,MacIntel,80.64516129,682d573fa47f1360d1451895,,,,,,,,,,,137.4168,137.9099,,,138.1636,138.6572,left,0.4815,,,,,,,,,0.4,,,,,,137.9099,138.1636,138.6572,"[-0.03068303814840563,0.14037282914820415]","[1,1,1]","[-0.05451595261352154,-0.009941671448891659]","[-1,-1,-1]","[0.14784134714512123,0.059024364998107384]","[1,1,1]","[0.009827138173664386,-0.13421840181111683]","[-1,-1,-1]","[-0.11292407319313476,-0.03827987500649562]","[-1,-1,-1]","[-0.16219768946462007,-0.08479601205189036]","[-1,-1,-1]","[0.08457124343968361,0.15994778574438837]","[-1,-1,-1]","[0.0007641175265598619,-0.06772390286496854]","[1,1,1]","[0.1468515733159651,-0.08348477054755836]","[1,1,1]","[-0.13469605272148333,0.08185199746613306]","[-1,-1,-1]","[0.05257060913001692,-0.058572232041244864]","[1,1,1]","[0.02993718323626631,0.119025433236035]","[1,1,1]","[0.0871146530664881,0.022086886953800233]","[-1,-1,-1]","[-0.06589094434488649,-0.11107183231308322]","[-1,-1,-1]","[0.07245504303540463,-0.15776770067111676]","[-1,-1,-1]","[-0.1248785918146523,-0.15363080220550646]","[-1,-1,-1]","[-0.08690382355357601,0.030176562200911056]","[-1,-1,-1]","[0.0974163067888541,0.11190993780115649]","[-1,-1,-1]","[0.02452038295749582,0.005829829676688495]","[-1,-1,-1]","[0.012420000517224127,0.046040810276983306]","[-1,-1,-1]","[-0.05299494803141607,0.08958301670603948]","[-1,-1,-1]","[-0.1234895688656623,0.15356953894043468]","[1,1,1]","[-0.10936501648966405,-0.1132311693878133]","[1,1,1]","[0.17285849085993985,-0.006556203248681285]","[1,1,1]","[-0.16712046263059935,0.02010342433254584]","[1,1,1]","[0.032703181855945104,-0.09467541805675739]","[1,1,1]","[-0.04279306959293161,-0.052325364686199936]","[1,1,1]","[0.11017304618560504,-0.010843879123101922]","[-1,-1,-1]","[-0.09229600519731199,0.08205425086277279]","[1,1,1]","[0.15100089447270118,0.12997258154837954]","[-1,-1,-1]","[0.18882970315309663,-0.052896892719614126]","[-1,-1,-1]","[0.11266038466074078,-0.14283139228638228]","[-1,-1,-1]","[0.02,0.02]",139.7518,0,30,30,33,1,,,,,,,
,,,,,,,5c0004fc4210510001725547,682f0fc64b8b30d961a3d6c0,2025-05-22_13h52.02.525,cuing_paradigm_dot,2024.1.5,MacIntel,80.64516129,682d573fa47f1360d1451895,,,,,,,,,,,139.7521,140.2454,,,140.4866,140.9932,left,0.4997,,,,,,,,,0.4,,,,,,140.2454,140.4866,140.9933,"[-0.17493171607733235,-0.027782885802185922]","[1,1,1]","[0.16757512966895444,-0.03606323008117924]","[-1,-1,-1]","[-0.08829640730850453,-0.06943581938393703]","[-1,-1,-1]","[0.01086668955548738,-0.17107131687243168]","[1,1,1]","[0.013704983227152464,0.005322675145245864]","[-1,-1,-1]","[0.04815657842339143,-0.05876575064830002]","[1,1,1]","[0.1549939009496849,0.01288136558869024]","[-1,-1,-1]","[-0.10876221689334693,0.15973566068036676]","[1,1,1]","[-0.006361921799170928,0.11001350313242227]","[1,1,1]","[0.09701935371020307,0.03495913031107304]","[1,1,1]","[-0.033708380702977186,0.15447213805698948]","[-1,-1,-1]","[-0.15505754423697396,-0.08196313971910492]","[-1,-1,-1]","[0.07886233567079987,-0.017828470528939447]","[1,1,1]","[-0.03201261674940187,-0.1457212966402924]","[1,1,1]","[0.09897066903458858,-0.07579051244156883]","[-1,-1,-1]","[0.056996221495094375,0.09566703106613027]","[-1,-1,-1]","[-0.026429231555258538,-0.026205425775433857]","[1,1,1]","[-0.000890399710187937,-0.07550231680964203]","[-1,-1,-1]","[-0.11659370456571588,0.003770877742107813]","[-1,-1,-1]","[0.05608350451962717,0.01721426659089843]","[-1,-1,-1]","[-0.10129964682535997,-0.14976577710629727]","[1,1,1]","[0.1324300833166121,0.12044097199377905]","[-1,-1,-1]","[-0.08947059698754674,0.07936589868086223]","[1,1,1]","[-0.06270349206160424,-0.10319705151893589]","[-1,-1,-1]","[-0.1853035553530436,0.05371254387505795]","[-1,-1,-1]","[0.05573154548133815,0.18602534182886798]","[-1,-1,-1]","[-0.09489027936752682,0.11946139878842725]","[1,1,1]","[-0.14126937214129598,-0.13217995179154657]","[-1,-1,-1]","[-0.022742719930916686,0.19295794596657087]","[-1,-1,-1]","[-0.1374996069455081,0.09623836112430562]","[-1,-1,-1]","[-0.021426153131999765,0.02445759808703708]","[1,1,1]","[0.13670870506294786,-0.1407773306533854]","[-1,-1,-1]","[0.02,0.02]",142.0883,0,31,31,35,1,,,,,,,
,,,,,,,5c0004fc4210510001725547,682f0fc64b8b30d961a3d6c0,2025-05-22_13h52.02.525,cuing_paradigm_dot,2024.1.5,MacIntel,80.64516129,682d573fa47f1360d1451895,,,,,,,,,,,142.0886,142.5815,,,142.823,143.0896,right,0.2519,,,,,,,,,0.9,,,,,,142.5815,142.823,143.0896,"[0.03931823759229386,0.08040644549404627]","[1,1,1]","[0.06312115537794233,-0.07560678419763261]","[1,1,1]","[-0.18085114088406332,-0.019801210768710546]","[-1,-1,-1]","[-0.0611596688462463,0.13514118588705337]","[1,1,1]","[-0.04532376138758974,0.049381034612948016]","[1,1,1]","[-0.13247692584437426,-0.0020634632415489395]","[1,1,1]","[0.10569298772570607,-0.11161781074419114]","[1,1,1]","[0.13243394347788615,0.11954751618023761]","[1,1,1]","[0.19419364522642904,-0.029001701704370123]","[1,1,1]","[0.19081900847584568,0.058348498456465336]","[1,1,1]","[-0.09416953368790483,-0.10775739499146005]","[1,1,1]","[-0.1833012085818614,-0.06756143771191449]","[1,1,1]","[0.07623470334159733,0.10377462242406267]","[1,1,1]","[0.06547007033866248,0.17525059565706266]","[-1,-1,-1]","[-0.12411898657692318,0.07279116053992096]","[1,1,1]","[-0.015371462758553587,-0.04903926815305194]","[1,1,1]","[-0.11857681741207829,-0.04370689634036755]","[-1,-1,-1]","[0.08034643895623447,0.025929581337459005]","[1,1,1]","[-0.045148376675140024,0.0013858235852209904]","[1,1,1]","[0.006836640477937464,-0.18163747399802654]","[1,1,1]","[0.12389035767046712,-0.07416692334987639]","[1,1,1]","[-0.16425243330975509,0.0577157616613289]","[1,1,1]","[0.13765434347416253,-0.0013105973024616787]","[1,1,1]","[-0.0347307483757202,0.08801982534582595]","[1,1,1]","[-0.10283579880005604,0.11883465722683813]","[1,1,1]","[0.013103487682625582,-0.08614333692816224]","[1,1,1]","[-0.09611713613342913,-0.17523164853672646]","[1,1,1]","[0.018166371051438358,0.12440853952130136]","[1,1,1]","[-0.07441198514500814,-0.050580529498354364]","[1,1,1]","[0.06377502986622331,-0.035389340637916177]","[1,1,1]","[-0.08780719809340616,0.1712466244417644]","[1,1,1]","[-0.010545443153063704,0.19410686826361917]","[1,1,1]","[0.02,0.02]",144.1833,0,32,32,199,1,,,,,,,
,,,,,,,5c0004fc4210510001725547,682f0fc64b8b30d961a3d6c0,2025-05-22_13h52.02.525,cuing_paradigm_dot,2024.1.5,MacIntel,80.64516129,682d573fa47f1360d1451895,,,,,,,,,,,144.1835,144.677,,,144.9185,145.4777,left,0.5432,,,,,,,,,0.5,,,,,,144.677,144.9184,145.4778,"[0.07631690646330812,0.18235016061378254]","[-1,-1,-1]","[0.0507828691638178,-0.015310996904949716]","[-1,-1,-1]","[-0.1426158967544688,0.060988082984870136]","[1,1,1]","[0.04757053228992377,-0.10328120265855158]","[1,1,1]","[-0.06903405890093381,0.062025585364512595]","[-1,-1,-1]","[-0.009269543478145717,-0.16581762717557383]","[-1,-1,-1]","[-0.09071103717254393,-0.10385024115742517]","[-1,-1,-1]","[0.10237693375833005,0.0719395245726674]","[-1,-1,-1]","[0.12535500816560324,-0.1377942584001382]","[1,1,1]","[-0.1236056335357159,0.012391305585729564]","[1,1,1]","[-0.01029639974899529,0.12083166776860722]","[1,1,1]","[0.003932424815709585,-0.07518536215579184]","[1,1,1]","[0.11292207574169133,0.005558830556439278]","[-1,-1,-1]","[-0.15224243273869137,-0.021569052004515712]","[1,1,1]","[0.19971959032453074,-0.004161127995163141]","[-1,-1,-1]","[-0.07666080425783958,-0.1439854862186918]","[-1,-1,-1]","[0.16937192214821065,-0.04551444947402152]","[-1,-1,-1]","[-0.008163039874458074,0.03253886576265831]","[1,1,1]","[-0.1659671204885297,-0.06258693333105854]","[1,1,1]","[-0.0779637919868797,0.14524695328181586]","[1,1,1]","[0.0437774436812006,0.12702180620732142]","[-1,-1,-1]","[-0.07285646637731748,0.005033419127681512]","[1,1,1]","[0.09913685993633167,0.14152502230288008]","[-1,-1,-1]","[0.17901506484656068,0.06503970870460056]","[-1,-1,-1]","[0.07431942034395413,-0.16752607680971143]","[1,1,1]","[-0.16941892646996565,0.02702694048112718]","[1,1,1]","[-0.04383246297560826,-0.08932014096692482]","[1,1,1]","[0.1571547462780274,0.021091159338230345]","[1,1,1]","[0.11340606091384313,-0.08698295134566919]","[1,1,1]","[-0.1100924419314342,-0.03490385830332832]","[-1,-1,-1]","[-0.013893521955722596,0.18144651402966727]","[-1,-1,-1]","[0.08763677908306522,-0.054361610415208005]","[-1,-1,-1]","[0.02,0.02]",146.5721,0,33,33,100,1,,,,,,,
,,,,,,,5c0004fc4210510001725547,682f0fc64b8b30d961a3d6c0,2025-05-22_13h52.02.525,cuing_paradigm_dot,2024.1.5,MacIntel,80.64516129,682d573fa47f1360d1451895,,,,,,,,,,,146.5724,147.0659,,,147.3075,147.9608,right,0.6466,,,,,,,,,0.1,,,,,,147.0659,147.3075,147.9609,"[0.17177113433912208,-0.035952074405536154]","[-1,-1,-1]","[-0.12987250034467218,0.08235469155396805]","[-1,-1,-1]","[-0.007681808087949873,-0.1844084734039991]","[-1,-1,-1]","[-0.06661463471355047,-0.14762254052928833]","[-1,-1,-1]","[0.08010040227442541,0.16965795005251613]","[1,1,1]","[-0.012598837711121441,0.05400556768456114]","[-1,-1,-1]","[0.09264462377378678,-0.046176902058606396]","[-1,-1,-1]","[0.04144777551112849,-0.158111718805432]","[-1,-1,-1]","[0.1519039151264214,-0.12286160336427963]","[-1,-1,-1]","[-0.08135961955864955,0.16411673329998683]","[1,1,1]","[-0.0905146856826865,-0.053860912589694686]","[-1,-1,-1]","[0.13185512010929307,0.014186706537782834]","[-1,-1,-1]","[-0.18653656646894057,-0.028307886148471507]","[-1,-1,-1]","[-0.034869988261311234,0.12476819427564527]","[-1,-1,-1]","[0.06001438409478646,-0.1041141062177934]","[-1,-1,-1]","[-0.155594029007914,0.0020973967206159693]","[-1,-1,-1]","[0.025280619172710857,0.09715691738309834]","[-1,-1,-1]","[0.07161175236953883,0.004605543466976046]","[-1,-1,-1]","[0.013364604930802965,-0.03770051527931659]","[-1,-1,-1]","[0.06056772479110799,0.0673576993685615]","[-1,-1,-1]","[0.1777524014481436,0.042517487565490016]","[-1,-1,-1]","[-0.056496481902257055,0.04385244143336695]","[-1,-1,-1]","[0.14227636107003097,-0.07640488439729363]","[-1,-1,-1]","[-0.06250553630688667,-0.09075749471545695]","[-1,-1,-1]","[0.11943659188987076,0.05636683433121583]","[-1,-1,-1]","[-0.17437479722654736,-0.07615200415753974]","[-1,-1,-1]","[0.009234185566362615,0.1353091845626694]","[-1,-1,-1]","[-0.14997101314659564,-0.11231344434904922]","[-1,-1,-1]","[-0.09095963325232288,0.11978087728852019]","[1,1,1]","[-0.14412582804936108,0.12301391315165498]","[-1,-1,-1]","[-0.01998490954911651,-0.05993874931941676]","[-1,-1,-1]","[-0.16920003331988,0.06214953175874532]","[-1,-1,-1]","[0.02,0.02]",149.0558,0,34,34,12,1,,,,,,,
,,,,,,,5c0004fc4210510001725547,682f0fc64b8b30d961a3d6c0,2025-05-22_13h52.02.525,cuing_paradigm_dot,2024.1.5,MacIntel,80.64516129,682d573fa47f1360d1451895,,,,,,,,,,,149.0561,149.5494,,,149.7904,150.164,right,0.3617,,,,,,,,,0.1,,,,,,149.5494,149.7904,150.1641,"[-0.05458427186862037,0.12841296397064997]","[-1,-1,-1]","[0.1439791968208596,-0.07819398232845771]","[-1,-1,-1]","[0.15185952168843925,-0.0029163768183790724]","[-1,-1,-1]","[-0.0698848453244488,-0.1099538839916247]","[-1,-1,-1]","[-0.04780538558900136,0.05748019193874682]","[-1,-1,-1]","[-0.14914157096906622,-0.11478377372349259]","[-1,-1,-1]","[-0.17964006717762962,0.028276167769765763]","[-1,-1,-1]","[-0.004885473280805,-0.08400413324420335]","[1,1,1]","[-0.01459126320648582,0.16694556965139482]","[-1,-1,-1]","[0.034798773835378674,0.15236346502960485]","[-1,-1,-1]","[0.1073019704055872,0.07315232644208255]","[-1,-1,-1]","[-0.1180849283442355,0.1385010494056934]","[-1,-1,-1]","[0.060367870673686395,-0.015091397224591905]","[-1,-1,-1]","[0.1292067991838892,0.14339144209834306]","[1,1,1]","[0.14427829787857724,0.09049064983394613]","[-1,-1,-1]","[0.08112812418892254,-0.13205377457668044]","[-1,-1,-1]","[-0.021787909220882324,-0.028983163365472298]","[1,1,1]","[0.03771723099814455,0.04054963968749586]","[-1,-1,-1]","[-0.16465226828726934,-0.037347439368430685]","[-1,-1,-1]","[0.12745737877081603,-0.12026836006213937]","[-1,-1,-1]","[-0.07586308886481201,-0.02056613253585306]","[-1,-1,-1]","[0.10242911619779271,-0.013244969149196565]","[-1,-1,-1]","[-0.14445737891313004,0.09897580524844805]","[-1,-1,-1]","[-0.0369012066776479,-0.1329747910349726]","[-1,-1,-1]","[-0.08689173027057225,0.1705690268667392]","[-1,-1,-1]","[0.054845609631105505,-0.190631455459253]","[-1,-1,-1]","[0.07061527162869423,0.11947997198657329]","[-1,-1,-1]","[0.08175330853205404,0.03329087519504536]","[-1,-1,-1]","[-0.11917255710167472,-0.054675598752513155]","[-1,-1,-1]","[-0.11096267096213014,-0.129610262395772]","[-1,-1,-1]","[-0.1851845053306568,0.07147526306463345]","[-1,-1,-1]","[0.09170897790615254,-0.05941034960190455]","[-1,-1,-1]","[0.02,0.02]",151.258,0,35,35,1,1,,,,,,,
,,,,,,,5c0004fc4210510001725547,682f0fc64b8b30d961a3d6c0,2025-05-22_13h52.02.525,cuing_paradigm_dot,2024.1.5,MacIntel,80.64516129,682d573fa47f1360d1451895,,,,,,,,,,,151.2583,151.7509,,,151.9926,152.3529,left,0.3467,,,,,,,,,0.9,,,,,,151.751,151.9926,152.3529,"[-0.04856786014740241,0.09568287792653078]","[1,1,1]","[-0.018621377524654283,-0.09884656438095854]","[1,1,1]","[0.15465747489276477,0.053827518372587056]","[1,1,1]","[0.0777467757394454,0.03430982364234086]","[1,1,1]","[0.11463639586735974,-0.0650641072374065]","[1,1,1]","[0.034889250919751626,0.15713180174244376]","[1,1,1]","[-0.07884700288119166,-0.06780948371389207]","[1,1,1]","[0.10740521797052349,-0.12356105149912835]","[1,1,1]","[0.14403637124284488,-0.017943459035372793]","[-1,-1,-1]","[-0.10565432015845176,-0.1653545588392991]","[1,1,1]","[-0.1940000446020837,-0.00988472060847135]","[1,1,1]","[-0.04257185280612639,0.13967066495998612]","[1,1,1]","[0.13038589285378183,0.0865223645477089]","[1,1,1]","[0.19104823672448742,-0.030743297467302217]","[-1,-1,-1]","[0.09020193029787933,-0.02612145875248173]","[1,1,1]","[0.0023420704166287887,0.0736160245014712]","[1,1,1]","[0.06644636312864347,-0.1165439763740557]","[1,1,1]","[0.0800556159394119,0.09291765554908676]","[1,1,1]","[-0.05333061064401763,-0.13928686830431086]","[1,1,1]","[-0.022453196899665004,-0.04768771232892525]","[1,1,1]","[-0.0033537777539770766,0.008206627642467596]","[1,1,1]","[-0.021645132600767662,0.17435582678932138]","[1,1,1]","[0.1894787813652877,0.02168667550839868]","[1,1,1]","[-0.01110048212180403,-0.1922690458854503]","[1,1,1]","[-0.09122186662696516,0.008379298254046642]","[1,1,1]","[-0.17837797779744963,0.05040745823810836]","[1,1,1]","[-0.10066332744506605,0.0916378080657335]","[1,1,1]","[-0.1081637412507558,-0.09808271252875651]","[1,1,1]","[-0.09412962112420074,0.16769886940064455]","[1,1,1]","[0.01870034057738208,-0.04197161395003875]","[1,1,1]","[0.1017190985029825,0.16370074694049253]","[-1,-1,-1]","[-0.14249610344814195,0.11643635028974621]","[1,1,1]","[0.02,0.02]",153.4466,0,36,36,194,1,,,,,,,
,,,,,,,5c0004fc4210510001725547,682f0fc64b8b30d961a3d6c0,2025-05-22_13h52.02.525,cuing_paradigm_dot,2024.1.5,MacIntel,80.64516129,682d573fa47f1360d1451895,,,,,,,,,,,153.4469,153.9406,,,154.1811,154.6753,left,0.4821,,,,,,,,,0.6,,,,,,153.9406,154.181,154.6754,"[0.0630639779597855,0.13929406269018801]","[1,1,1]","[0.15100090221837528,0.04564976505430834]","[1,1,1]","[0.09186366044823396,-0.032600979748668546]","[1,1,1]","[0.019258625240491406,0.06581239993847415]","[1,1,1]","[-0.08793505197754942,-0.14626995036654825]","[-1,-1,-1]","[-0.19728794383316026,0.0007247949507872963]","[-1,-1,-1]","[-0.16754802595330526,0.0517152154846233]","[1,1,1]","[-0.07044367157947903,-0.10631269637567396]","[-1,-1,-1]","[0.023951911381125835,-0.11975269141484664]","[1,1,1]","[0.12881605583629446,-0.05794393699933922]","[-1,-1,-1]","[-0.026600149376184837,0.16817265974741086]","[1,1,1]","[-0.005161747529639644,0.015014218604023293]","[1,1,1]","[-0.04884974146267073,0.13348368076187433]","[-1,-1,-1]","[-0.12803575316878338,-0.08113126944771855]","[1,1,1]","[0.09272736288526541,-0.09685695542709533]","[-1,-1,-1]","[-0.07178210587424144,0.048468300977850834]","[1,1,1]","[-0.11169806097626216,0.015403921065917533]","[-1,-1,-1]","[-0.15130930648965701,0.10574321147470106]","[1,1,1]","[0.012553128524545406,0.12924734960699058]","[-1,-1,-1]","[0.11516437080020693,0.14391448566765386]","[1,1,1]","[-0.034949842761131306,-0.15016260967737316]","[1,1,1]","[-0.1694710498461812,-0.05127640229958826]","[1,1,1]","[0.12063460325954048,-0.1274994324207146]","[1,1,1]","[-0.013940624367786971,-0.03585533781205626]","[-1,-1,-1]","[0.04501886112820135,-0.021599705668715673]","[1,1,1]","[0.1365091631457168,-0.003123126416485484]","[-1,-1,-1]","[0.05092163882389646,0.09066649973545937]","[1,1,1]","[0.18330580335038563,-0.05222674684812557]","[-1,-1,-1]","[0.07432245221637628,-0.16680714656068002]","[1,1,1]","[0.08280792018580195,0.04502143463907094]","[-1,-1,-1]","[0.11962113635167,0.08618805158523896]","[-1,-1,-1]","[-0.0800717351079081,0.17614137593700246]","[1,1,1]","[0.02,0.02]",155.7688,0,37,37,154,1,,,,,,,
,,,,,,,5c0004fc4210510001725547,682f0fc64b8b30d961a3d6c0,2025-05-22_13h52.02.525,cuing_paradigm_dot,2024.1.5,MacIntel,80.64516129,682d573fa47f1360d1451895,,,,,,,,,,,155.7691,156.2638,,,156.5169,157.144,left,0.6148,,,,,,,,,0.6,,,,,,156.2638,156.5166,157.144,"[0.10747244548272418,-0.04613166906717958]","[1,1,1]","[-0.12450660226516527,0.0018452333718901868]","[-1,-1,-1]","[0.14561116701723903,0.06656426377028775]","[1,1,1]","[0.06400237452527924,-0.009367491007319704]","[1,1,1]","[-0.07206407756867046,-0.13529144630768528]","[1,1,1]","[0.11005465863899627,-0.10039912510355742]","[1,1,1]","[0.022812464274390598,0.044147689234895954]","[1,1,1]","[-0.0512817865437731,0.09595423150102186]","[1,1,1]","[0.009231808811360803,0.16055098096292872]","[1,1,1]","[0.018998278139313495,-0.03536188680601595]","[1,1,1]","[-0.1075698943078472,0.042208788608651356]","[-1,-1,-1]","[-0.10651311118954063,-0.07432321080628342]","[-1,-1,-1]","[-0.12148056529437551,0.10110552861088894]","[1,1,1]","[-0.022465323845150133,-0.09370234688796547]","[-1,-1,-1]","[-0.06510337658461618,-0.046573698542656396]","[1,1,1]","[-0.07705304040673332,-0.17987912478508442]","[-1,-1,-1]","[0.03406090051055557,-0.17280961338676268]","[1,1,1]","[0.04683777597598948,0.1885019187334703]","[-1,-1,-1]","[0.1148203528665927,0.012196572058779045]","[1,1,1]","[0.1773091702662974,-0.02429477918933882]","[-1,-1,-1]","[-0.011485620856827805,-0.15193267253346693]","[-1,-1,-1]","[-0.11067801977228024,0.14272677213911347]","[1,1,1]","[-0.18425788169471508,0.028793072378505598]","[-1,-1,-1]","[-0.15171260744334647,-0.0410645940352743]","[1,1,1]","[-0.03919057570871654,0.16403275973861953]","[1,1,1]","[0.06346409883309305,-0.10041305226603135]","[-1,-1,-1]","[0.1844885744146085,-0.07466073377733518]","[-1,-1,-1]","[0.1607585039559113,-0.115452888516382]","[1,1,1]","[0.11940983060833513,0.13573911623571086]","[1,1,1]","[0.06913485467666697,0.14995663246740173]","[1,1,1]","[0.19136301556641588,0.04266603710589865]","[-1,-1,-1]","[0.07789150819327924,-0.17187544028090684]","[-1,-1,-1]","[0.02,0.02]",158.2387,0,38,38,169,1,,,,,,,
,,,,,,,5c0004fc4210510001725547,682f0fc64b8b30d961a3d6c0,2025-05-22_13h52.02.525,cuing_paradigm_dot,2024.1.5,MacIntel,80.64516129,682d573fa47f1360d1451895,,,,,,,,,,,158.2392,158.7324,,,158.9732,159.2264,right,0.2402,,,,,,,,,0.1,,,,,,158.7325,158.9732,159.2265,"[-0.004493707146498094,-0.059320256806189964]","[-1,-1,-1]","[-0.05926179413315589,0.005192013272424003]","[-1,-1,-1]","[0.019176440510747655,0.13268107114365466]","[-1,-1,-1]","[0.01626422859943332,-0.17598617634941094]","[-1,-1,-1]","[-0.11638901998182584,-0.09988412711041017]","[1,1,1]","[-0.15035816473478517,0.09822663229356536]","[-1,-1,-1]","[0.06933645790472309,0.05242255596794916]","[-1,-1,-1]","[-0.17261571612456098,-0.06956148584957407]","[-1,-1,-1]","[0.059844523049463305,-0.08830981904488364]","[-1,-1,-1]","[0.08023159219183547,0.10896832582679865]","[-1,-1,-1]","[0.06321716665606783,-0.15426172727474932]","[-1,-1,-1]","[-0.04196273098102164,-0.16944879548430314]","[1,1,1]","[-0.19276282968670805,0.04440660696210078]","[-1,-1,-1]","[-0.02359789614975189,0.0666756284009753]","[-1,-1,-1]","[0.19210723241296973,0.020598037109831154]","[-1,-1,-1]","[0.019703132621573544,-0.12082889165639255]","[-1,-1,-1]","[0.10003037675953318,-0.08578009808394524]","[-1,-1,-1]","[0.03487284825773289,0.17550801162634244]","[-1,-1,-1]","[0.12043360237901318,0.13173680012072395]","[-1,-1,-1]","[-0.005026547353625721,-0.01400465921431652]","[-1,-1,-1]","[-0.043587697844587374,-0.07198777182422451]","[-1,-1,-1]","[-0.11172226148040372,-0.020656876893589415]","[-1,-1,-1]","[-0.08216975020563162,-0.15014860605078514]","[-1,-1,-1]","[-0.09451801401869295,0.07864091485465265]","[-1,-1,-1]","[-0.18394457814382234,-0.011098940797712922]","[-1,-1,-1]","[0.18989794762213194,-0.048097619855174314]","[-1,-1,-1]","[0.055185309409886765,-0.0292706240021542]","[-1,-1,-1]","[-0.12827276498499898,-0.14423712327647445]","[1,1,1]","[0.1448002602749059,0.04435895151844914]","[-1,-1,-1]","[0.09925434396140762,-0.023021226958944055]","[-1,-1,-1]","[-0.07443810051917445,0.16494468999313605]","[-1,-1,-1]","[0.02361868440551277,0.050967889714601276]","[-1,-1,-1]","[0.02,0.02]",160.3205,0,39,39,20,1,,,,,,,
,,,,,,,5c0004fc4210510001725547,682f0fc64b8b30d961a3d6c0,2025-05-22_13h52.02.525,cuing_paradigm_dot,2024.1.5,MacIntel,80.64516129,682d573fa47f1360d1451895,,,,,,,,,,,160.3208,160.8153,,,161.0558,161.5898,left,0.5257,,,,,,,,,0.55,,,,,,160.8153,161.0558,161.5899,"[0.1360603053806241,0.0693165613326127]","[1,1,1]","[0.06505414692504471,-0.08290737297569399]","[1,1,1]","[-0.1420089603846101,-0.032965320288948066]","[1,1,1]","[0.1540249709316791,-0.020680525680624524]","[-1,-1,-1]","[0.010472313691771618,0.06614173379240322]","[-1,-1,-1]","[0.004598263972609458,-0.06268390852681095]","[1,1,1]","[-0.0721039026890084,0.08682063042816467]","[-1,-1,-1]","[-0.1718834365111355,0.017341134993217742]","[-1,-1,-1]","[0.054014640811398805,-0.12805725868340606]","[1,1,1]","[-0.0801043552041296,-0.025766514008042442]","[1,1,1]","[0.04217573598553815,0.1940036405301362]","[-1,-1,-1]","[0.1690347543342298,-0.06986315143745053]","[-1,-1,-1]","[0.06747164091918757,0.04847395048667392]","[-1,-1,-1]","[-0.09522862370640764,-0.16245824252445967]","[-1,-1,-1]","[0.01464120766826632,-0.1644128935709127]","[1,1,1]","[-0.0124941010979891,-0.13049829426503154]","[1,1,1]","[0.0857853890389563,-0.043273209072327824]","[-1,-1,-1]","[-0.12458124409097682,-0.08420628996420002]","[1,1,1]","[-0.011109412787198354,0.17509264947582212]","[1,1,1]","[0.07672106650735105,-0.1661585732833238]","[-1,-1,-1]","[0.06005502390943567,0.14684167970572615]","[-1,-1,-1]","[0.1187090872209514,-0.07252629704195789]","[-1,-1,-1]","[-0.04784972409184183,0.03439998489545176]","[1,1,1]","[0.1334189126595708,0.13002186386061243]","[1,1,1]","[-0.08323826293850062,-0.07920861952850825]","[-1,-1,-1]","[-0.028698024177603088,0.12038056495028081]","[1,1,1]","[-0.018089223880955005,0.0016331577074897399]","[1,1,1]","[-0.14543404798165202,0.11512519182831676]","[1,1,1]","[0.09846421121411565,0.1023793548097631]","[1,1,1]","[-0.051373577020247974,-0.14107467849394448]","[-1,-1,-1]","[0.1168334109419698,0.0004032527504701922]","[1,1,1]","[0.06307213598356828,0.006696560196375268]","[1,1,1]","[0.02,0.02]",162.6828,0,40,40,120,1,,,,,,,
,,,,,,,5c0004fc4210510001725547,682f0fc64b8b30d961a3d6c0,2025-05-22_13h52.02.525,cuing_paradigm_dot,2024.1.5,MacIntel,80.64516129,682d573fa47f1360d1451895,,,,,,,,,,,162.6831,163.1774,,,163.4179,163.8984,left,0.4675,,,,,,,,,0.9,,,,,,163.1774,163.4179,163.8984,"[-0.1930757767018748,-0.02095441910109157]","[1,1,1]","[0.14919112854440236,-0.09069301531059153]","[1,1,1]","[-0.02641406736090414,-0.17628626143265053]","[1,1,1]","[-0.08490912180059637,-0.07791641005959817]","[1,1,1]","[-0.0051530125370409475,-0.11246657250779032]","[1,1,1]","[-0.1503254854094012,0.000767424579693132]","[1,1,1]","[0.03708421891968709,-0.10511099818525522]","[1,1,1]","[0.15634860502638645,0.02399622089761063]","[1,1,1]","[-0.08700749849766723,0.030570894424351236]","[1,1,1]","[0.11865149937275836,-0.02681648555869925]","[1,1,1]","[0.02509281333372278,-0.04503794123638244]","[-1,-1,-1]","[-0.019693859809282836,0.096910908993809]","[1,1,1]","[0.13861339409631798,-0.13168850881211192]","[1,1,1]","[0.06930321576189626,-0.010469840372742437]","[1,1,1]","[-0.06654019681171046,-0.15020640371610663]","[1,1,1]","[-0.04821118912955277,-0.04106389346378676]","[1,1,1]","[0.1219862826430412,0.15719253319605134]","[-1,-1,-1]","[0.027771524534628483,0.11193448845624336]","[1,1,1]","[0.060778013947308494,0.16398491765530573]","[1,1,1]","[-0.17623486933839497,0.043370180106788614]","[1,1,1]","[0.16114868566501772,0.08837474921656951]","[1,1,1]","[-0.005725183343634479,0.009233916286805467]","[1,1,1]","[0.09082264623215539,0.06508693493218495]","[1,1,1]","[0.04279082238995096,-0.1750007995903987]","[1,1,1]","[0.09599034386420226,0.12475706152172256]","[1,1,1]","[0.07165891601425431,-0.0781029443337946]","[1,1,1]","[0.028266766732457663,0.06630809438971123]","[1,1,1]","[-0.0731955857033179,0.10241483495035472]","[1,1,1]","[-0.14706985552234958,-0.11148116636843759]","[1,1,1]","[-0.01341162523572408,0.1527431887365763]","[1,1,1]","[-0.1422064519876704,0.07816088532322293]","[-1,-1,-1]","[-0.12905042392475644,-0.03646903641721354]","[1,1,1]","[0.02,0.02]",164.9925,0,41,41,184,1,,,,,,,
,,,,,,,5c0004fc4210510001725547,682f0fc64b8b30d961a3d6c0,2025-05-22_13h52.02.525,cuing_paradigm_dot,2024.1.5,MacIntel,80.64516129,682d573fa47f1360d1451895,,,,,,,,,,,164.9928,165.4861,,,165.7274,166.2078,left,0.4636,,,,,,,,,0.6,,,,,,165.4861,165.7274,166.2079,"[-0.07314031331261178,0.07591034549082326]","[1,1,1]","[0.027756469958556598,0.011068807254796623]","[1,1,1]","[0.09462401224552637,0.005380159833584984]","[1,1,1]","[0.05306161846139015,0.11368839574187964]","[-1,-1,-1]","[0.11261679512067468,0.06881829085706576]","[1,1,1]","[0.022968922659255084,-0.04793895123284468]","[1,1,1]","[0.13999091016747572,0.02300360013004889]","[-1,-1,-1]","[-0.04329678805432981,-0.09784564663673317]","[-1,-1,-1]","[0.0405526225151438,-0.17340540345435018]","[-1,-1,-1]","[0.00740449652523137,0.09346897819702098]","[1,1,1]","[-0.07588868468150012,0.16224053371396654]","[-1,-1,-1]","[-0.05064681026738905,-0.17727305746509855]","[1,1,1]","[-0.10759392835019291,0.11283739963097869]","[1,1,1]","[-0.12948103103490424,0.021791306917107067]","[-1,-1,-1]","[-0.13785861314954012,-0.042015606762282894]","[-1,-1,-1]","[0.01429115442089296,-0.13801638703038877]","[1,1,1]","[-0.15464696606904632,0.10792186318851184]","[1,1,1]","[0.18600001103487274,0.03381533304680278]","[1,1,1]","[0.1707170711307621,-0.08139159176197001]","[-1,-1,-1]","[-0.032271167271027315,-0.0555087029566152]","[1,1,1]","[0.15156650806014088,-0.04627038437328759]","[1,1,1]","[-0.034530984207124596,0.05448344579788136]","[-1,-1,-1]","[0.012932597454178586,-0.0894754886173537]","[-1,-1,-1]","[-0.11180288643184304,-0.16149544982249694]","[-1,-1,-1]","[-0.16925617823009248,0.05272514818045571]","[1,1,1]","[0.09299319064227024,-0.054033026542460685]","[-1,-1,-1]","[0.16622062127521908,0.09020449066563449]","[1,1,1]","[0.07184096807256717,-0.0997267609656149]","[1,1,1]","[-0.12357317040089442,0.06147586078895049]","[-1,-1,-1]","[-0.17542655770421145,-0.08413476905452187]","[1,1,1]","[-0.002978457654515669,0.18880534890364822]","[1,1,1]","[0.10664743451519253,0.12158801008264457]","[1,1,1]","[0.02,0.02]",167.3024,0,42,42,162,1,,,,,,,
,,,,,,,5c0004fc4210510001725547,682f0fc64b8b30d961a3d6c0,2025-05-22_13h52.02.525,cuing_paradigm_dot,2024.1.5,MacIntel,80.64516129,682d573fa47f1360d1451895,,,,,,,,,,,167.3027,167.7962,,,168.0367,168.6103,left,0.5605,,,,,,,,,0.9,,,,,,167.7963,168.0367,168.6103,"[-0.037336207041172347,0.12669681694450696]","[1,1,1]","[0.13554140553582542,0.06778900797940145]","[1,1,1]","[0.09117602395000186,0.04014866667298395]","[1,1,1]","[-0.17475625680954235,-0.05448940220684142]","[1,1,1]","[0.020615171118031014,-0.06272235926586153]","[1,1,1]","[0.1466840318339907,-0.03708045208735132]","[1,1,1]","[-0.034979979298323874,-0.049082352816113506]","[-1,-1,-1]","[0.00410054889308185,0.17806220404658812]","[1,1,1]","[0.07801669799123899,0.1286371142527918]","[1,1,1]","[0.014789028999965603,0.009346935634828794]","[1,1,1]","[0.0017181482419923056,0.0668548496257436]","[1,1,1]","[-0.15694762019841985,0.030300612117516022]","[1,1,1]","[-0.08327959796954834,0.09881631605303323]","[1,1,1]","[0.14588236868715995,0.1312836016964828]","[1,1,1]","[0.08512918118667426,-0.03806248837703843]","[1,1,1]","[0.06274633525749533,-0.08945190763578825]","[1,1,1]","[-0.03249226486199281,-0.17205556812766118]","[1,1,1]","[0.12313915988569703,-0.07332062755219573]","[-1,-1,-1]","[-0.06213904138009734,0.16421425711925902]","[1,1,1]","[0.08905208630019465,-0.1407897359784726]","[1,1,1]","[0.0027037894535767455,-0.1031822690768735]","[1,1,1]","[-0.03567443197968494,-0.12100241214085125]","[1,1,1]","[-0.12185464710578334,-0.06518223615885563]","[1,1,1]","[0.04348234174103177,-0.19416924753625608]","[1,1,1]","[-0.19549308092003417,-0.016232042650966696]","[1,1,1]","[-0.07084013571806845,-0.018186622933782474]","[-1,-1,-1]","[-0.10150319930699869,0.14817399167281653]","[1,1,1]","[0.05256467036940345,0.07451207425246166]","[1,1,1]","[0.07570711792790698,0.1815690506417398]","[1,1,1]","[-0.15949310666260744,0.11121604647058078]","[1,1,1]","[-0.08991334551539087,0.035454978310380525]","[1,1,1]","[0.016516392412612862,-0.1420283675430196]","[1,1,1]","[0.02,0.02]",169.7043,0,43,43,193,1,,,,,,,
,,,,,,,5c0004fc4210510001725547,682f0fc64b8b30d961a3d6c0,2025-05-22_13h52.02.525,cuing_paradigm_dot,2024.1.5,MacIntel,80.64516129,682d573fa47f1360d1451895,,,,,,,,,,,169.7047,170.1981,,,170.4396,170.7319,left,0.2806,,,,,,,,,0.9,,,,,,170.1981,170.4395,170.7319,"[0.015773551183077418,-0.1274096371373095]","[1,1,1]","[0.13061670631191724,0.12047039938287651]","[1,1,1]","[0.017163501301245644,-0.05935976665679394]","[1,1,1]","[-0.06499860282631567,0.078437787510658]","[1,1,1]","[0.0800537653523712,-0.05090959981738872]","[-1,-1,-1]","[-0.17647386439970986,0.0900619772205697]","[1,1,1]","[0.14199393132285518,-0.06881281956738047]","[1,1,1]","[-0.051622827364464184,-0.13217392817596077]","[1,1,1]","[-0.14284685009481515,-0.10785306423932775]","[1,1,1]","[-0.06612906738537833,-0.0019357695504069006]","[-1,-1,-1]","[-0.014869654088402825,0.18799614529590122]","[1,1,1]","[0.04395675439264229,0.061580129178191674]","[1,1,1]","[-0.02636865516086057,-0.05968386440445835]","[1,1,1]","[-0.11248061778435693,0.025498057810790464]","[1,1,1]","[-0.06062529542547063,0.14017033551263494]","[1,1,1]","[-0.0865851224903902,-0.04188540284191303]","[1,1,1]","[0.15907200866928403,0.06654894818566408]","[1,1,1]","[0.02297986291940742,0.10851843356403035]","[1,1,1]","[-0.10359212919560842,0.1133236315785217]","[1,1,1]","[-0.09163351225713437,-0.1653518921337553]","[1,1,1]","[0.0838354694327008,0.14905897485232797]","[-1,-1,-1]","[0.10797834100512162,0.029423350761128293]","[1,1,1]","[0.01605599789735348,0.009334192483397072]","[1,1,1]","[-0.07265615732208798,-0.0797217542831669]","[1,1,1]","[0.19449499864968783,-0.00804395134593723]","[1,1,1]","[-0.14525528717451366,-0.05208598549259183]","[1,1,1]","[-0.1969354101462478,-0.0038676579358579923]","[1,1,1]","[0.045380703805387584,-0.1737773776229487]","[1,1,1]","[-0.038290418761969064,-0.1897748108058931]","[1,1,1]","[0.11051424233432627,-0.1665156944137077]","[1,1,1]","[-0.019440930449440463,0.08420724938650632]","[1,1,1]","[0.13866567458038248,-0.004514809525571366]","[1,1,1]","[0.02,0.02]",171.8273,0,44,44,192,1,,,,,,,
