right,left,explain.started,explain.stopped,key_resp_3.keys,key_resp_3.rt,key_resp_3.duration,participant,session,date,expName,psychopyVersion,OS,frameRate,study_id,explain_2.started,explain_2.stopped,key_resp_4.keys,key_resp_4.rt,key_resp_4.duration,explain_3.started,explain_3.stopped,key_resp_5.keys,key_resp_5.rt,key_resp_5.duration,fixation.started,fixation.stopped,practice.started,practice.stopped,response.started,response.stopped,key_resp.keys,key_resp.rt,key_resp.duration,feedback.started,feedback.stopped,trials_2.thisRepN,trials_2.thisTrialN,trials_2.thisN,trials_2.thisIndex,trials_2.ran,white_ratio,explain_4.started,explain_4.stopped,key_resp_6.keys,key_resp_6.rt,key_resp_6.duration,dotDisplay.started,dotDisplay.stopped,ITI.started,polygon_1.pos,polygon_1.color,polygon_2.pos,polygon_2.color,polygon_3.pos,polygon_3.color,polygon_4.pos,polygon_4.color,polygon_5.pos,polygon_5.color,polygon_6.pos,polygon_6.color,polygon_7.pos,polygon_7.color,polygon_8.pos,polygon_8.color,polygon_9.pos,polygon_9.color,polygon_10.pos,polygon_10.color,polygon_11.pos,polygon_11.color,polygon_12.pos,polygon_12.color,polygon_13.pos,polygon_13.color,polygon_14.pos,polygon_14.color,polygon_15.pos,polygon_15.color,polygon_16.pos,polygon_16.color,polygon_17.pos,polygon_17.color,polygon_18.pos,polygon_18.color,polygon_19.pos,polygon_19.color,polygon_20.pos,polygon_20.color,polygon_21.pos,polygon_21.color,polygon_22.pos,polygon_22.color,polygon_23.pos,polygon_23.color,polygon_24.pos,polygon_24.color,polygon_25.pos,polygon_25.color,polygon_26.pos,polygon_26.color,polygon_27.pos,polygon_27.color,polygon_28.pos,polygon_28.color,polygon_29.pos,polygon_29.color,polygon_30.pos,polygon_30.color,polygon_31.pos,polygon_31.color,polygon_32.pos,polygon_32.color,dot_size,ITI.stopped,trials.thisRepN,trials.thisTrialN,trials.thisN,trials.thisIndex,trials.ran,break_2.started,break_2.stopped,trials_3.thisRepN,trials_3.thisTrialN,trials_3.thisN,trials_3.thisIndex,trials_3.ran
subject chose black,subject chose white,0,24.983,space,9.977,,5c28feff5ffcb7000128a541,682f0fc0793db9cd423e2bf8,2025-05-22_07h51.59.742,cuing_paradigm_dot,2024.1.5,Win32,144.092219,682d573fa47f1360d1451895,,,,,,,,,,,,,,,,,,,,,,,,,,,,,,,,,,,,,,,,,,,,,,,,,,,,,,,,,,,,,,,,,,,,,,,,,,,,,,,,,,,,,,,,,,,,,,,,,,,,,,,,,,,,,,,,,
,,,,,,,5c28feff5ffcb7000128a541,682f0fc0793db9cd423e2bf8,2025-05-22_07h51.59.742,cuing_paradigm_dot,2024.1.5,Win32,144.092219,682d573fa47f1360d1451895,24.983,58.169,space,3.176,,,,,,,,,,,,,,,,,,,,,,,,,,,,,,,,,,,,,,,,,,,,,,,,,,,,,,,,,,,,,,,,,,,,,,,,,,,,,,,,,,,,,,,,,,,,,,,,,,,,,,,,,,,,,
,,,,,,,5c28feff5ffcb7000128a541,682f0fc0793db9cd423e2bf8,2025-05-22_07h51.59.742,cuing_paradigm_dot,2024.1.5,Win32,144.092219,682d573fa47f1360d1451895,,,,,,58.169,62.344,space,1.17,,,,,,,,,,,,,,,,,,,,,,,,,,,,,,,,,,,,,,,,,,,,,,,,,,,,,,,,,,,,,,,,,,,,,,,,,,,,,,,,,,,,,,,,,,,,,,,,,,,,,,,,
,,,,,,,5c28feff5ffcb7000128a541,682f0fc0793db9cd423e2bf8,2025-05-22_07h51.59.742,cuing_paradigm_dot,2024.1.5,Win32,144.092219,682d573fa47f1360d1451895,,,,,,,,,,,62.351,62.85,62.85,63.1,63.101,63.885,right,0.76,,63.885,64.983,0,0,0,1,1,0.2,,,,,,,,,,,,,,,,,,,,,,,,,,,,,,,,,,,,,,,,,,,,,,,,,,,,,,,,,,,,,,,,,,,,,,,,,,,,,,,,,,,,,,
,,,,,,,5c28feff5ffcb7000128a541,682f0fc0793db9cd423e2bf8,2025-05-22_07h51.59.742,cuing_paradigm_dot,2024.1.5,Win32,144.092219,682d573fa47f1360d1451895,,,,,,,,,,,64.983,65.483,65.483,65.733,65.733,66.177,left,0.438,,66.177,67.275,0,1,1,0,1,0.8,,,,,,,,,,,,,,,,,,,,,,,,,,,,,,,,,,,,,,,,,,,,,,,,,,,,,,,,,,,,,,,,,,,,,,,,,,,,,,,,,,,,,,
,,,,,,,5c28feff5ffcb7000128a541,682f0fc0793db9cd423e2bf8,2025-05-22_07h51.59.742,cuing_paradigm_dot,2024.1.5,Win32,144.092219,682d573fa47f1360d1451895,,,,,,,,,,,,,,,,,,,,,,,,,,,,67.275,72.171,space,1.889,,,,,,,,,,,,,,,,,,,,,,,,,,,,,,,,,,,,,,,,,,,,,,,,,,,,,,,,,,,,,,,,,,,,,,,,,,,,,,,,,,
,,,,,,,5c28feff5ffcb7000128a541,682f0fc0793db9cd423e2bf8,2025-05-22_07h51.59.742,cuing_paradigm_dot,2024.1.5,Win32,144.092219,682d573fa47f1360d1451895,,,,,,,,,,,72.178,72.671,,,72.922,73.366,left,0.442,,,,,,,,,0.5,,,,,,72.671,72.922,73.366,"[-0.10372735391409285,0.14561037834264048]","[-1,-1,-1]","[0.03517730270101173,0.14160798544850986]","[1,1,1]","[0.10544856177340282,-0.12943109153586949]","[-1,-1,-1]","[-0.1414982578402747,-0.08158780044522858]","[1,1,1]","[0.09425197809894427,0.10943018991820855]","[-1,-1,-1]","[-0.08384843301560012,0.10633401832820781]","[-1,-1,-1]","[-0.03037344595348553,0.08942841784261489]","[1,1,1]","[0.032396739811425136,0.02169363090560969]","[1,1,1]","[0.15906415489959136,-0.05699444264117332]","[-1,-1,-1]","[0.0341299853889914,0.061721623075363934]","[-1,-1,-1]","[-0.08918257904370157,-0.16094308152685807]","[-1,-1,-1]","[-0.016987838629953417,-0.13755745167221162]","[-1,-1,-1]","[0.03075477573672366,-0.07476120282624808]","[1,1,1]","[0.08207024673891872,0.00491544117520076]","[-1,-1,-1]","[0.13974175473154782,0.10118590968451932]","[1,1,1]","[0.18098263044661506,0.03753957605603562]","[-1,-1,-1]","[-0.10636575692347623,0.012229995178679834]","[1,1,1]","[-0.05904967600690565,-0.016511484729250476]","[1,1,1]","[0.04465434227843788,-0.16462201132780865]","[1,1,1]","[-0.11826406711815533,0.07267966169008545]","[1,1,1]","[0.09591696448695687,0.17401664769466074]","[1,1,1]","[-0.028286916634974128,0.1914713805434539]","[1,1,1]","[-0.07186843205665418,-0.0695614236870648]","[-1,-1,-1]","[0.12806380221328517,0.057813585344559784]","[1,1,1]","[-0.17820533480851117,0.07849656840988752]","[-1,-1,-1]","[-0.06798258636863327,0.16577156457949715]","[1,1,1]","[-0.015894828079159005,-0.04204704017041393]","[1,1,1]","[0.05359561250778382,-0.04141128211281745]","[-1,-1,-1]","[0.01168059206821919,0.10856782002726459]","[-1,-1,-1]","[-0.14878561397888335,0.042597519821219676]","[1,1,1]","[-0.007242788191245433,0.14822808678353128]","[-1,-1,-1]","[0.08428706333220867,0.04990395258134399]","[-1,-1,-1]","[0.02,0.02]",74.463,0,0,0,94,1,,,,,,,
,,,,,,,5c28feff5ffcb7000128a541,682f0fc0793db9cd423e2bf8,2025-05-22_07h51.59.742,cuing_paradigm_dot,2024.1.5,Win32,144.092219,682d573fa47f1360d1451895,,,,,,,,,,,74.464,74.964,,,75.214,75.602,right,0.381,,,,,,,,,0.1,,,,,,74.964,75.214,75.602,"[0.158670281603253,0.08224058584709779]","[-1,-1,-1]","[-0.0357696555253597,-0.14683569379115285]","[-1,-1,-1]","[-0.07378252556010974,0.06983885272695806]","[-1,-1,-1]","[0.06137131840149976,-0.005066288936692498]","[-1,-1,-1]","[-0.14569943095385124,-0.06997323530465342]","[-1,-1,-1]","[0.13187667566625125,0.11283283684826774]","[-1,-1,-1]","[-0.018807509094519056,0.1919056603295564]","[-1,-1,-1]","[-0.0021866011008052195,0.051044204938374735]","[-1,-1,-1]","[-0.03263357149129472,-0.09291270852033051]","[-1,-1,-1]","[0.042763686610355754,0.1859374950073305]","[-1,-1,-1]","[-0.12837513436639642,-0.14911270957780137]","[1,1,1]","[-0.081675135488408,0.13434992728132683]","[-1,-1,-1]","[0.14158865417646782,-0.03944972893231685]","[-1,-1,-1]","[-0.017526131898854137,0.12911018511237762]","[-1,-1,-1]","[0.06830249660577603,0.1444157069831154]","[-1,-1,-1]","[0.0836275868745463,-0.17184716775473763]","[-1,-1,-1]","[0.023388028045718195,-0.17739623495594165]","[-1,-1,-1]","[-0.1649092680529521,-0.023996411904902322]","[-1,-1,-1]","[-0.1622035288529798,0.0950774312410292]","[-1,-1,-1]","[-0.08884351168561712,-0.1407351150058941]","[-1,-1,-1]","[-0.1823309641392828,0.03258324960933903]","[-1,-1,-1]","[-0.06604476430086965,0.00429221681939805]","[1,1,1]","[-0.1309078554157395,0.1336081245832332]","[-1,-1,-1]","[-0.10248455838367544,-0.08577178780449689]","[-1,-1,-1]","[-0.11144774609919865,-0.009574192800752883]","[-1,-1,-1]","[0.05707057173484458,0.07197930200826481]","[-1,-1,-1]","[0.14252872657947838,-0.09029026561631086]","[-1,-1,-1]","[0.19909647807939557,0.009653406939822516]","[-1,-1,-1]","[0.1194914910581814,0.15313600440585548]","[-1,-1,-1]","[0.012332218095215777,-0.09431578269408061]","[-1,-1,-1]","[-0.08230242443663655,-0.03886725690485472]","[1,1,1]","[0.14650601495728074,0.016730396807186857]","[-1,-1,-1]","[0.02,0.02]",76.7,0,1,1,24,1,,,,,,,
,,,,,,,5c28feff5ffcb7000128a541,682f0fc0793db9cd423e2bf8,2025-05-22_07h51.59.742,cuing_paradigm_dot,2024.1.5,Win32,144.092219,682d573fa47f1360d1451895,,,,,,,,,,,76.7,77.2,,,77.45,78.006,left,0.554,,,,,,,,,0.45,,,,,,77.2,77.45,78.006,"[0.11206505035005684,0.025424303144475854]","[-1,-1,-1]","[-0.15890464214137345,-0.007500916608386281]","[-1,-1,-1]","[0.020204950271952408,-0.01945149988571855]","[1,1,1]","[0.06884711854928273,0.1817953538913169]","[-1,-1,-1]","[-0.12896104242157339,0.0702959134675436]","[-1,-1,-1]","[0.13175788836807015,0.13244267278071295]","[-1,-1,-1]","[0.1499232713863453,0.09623071165431873]","[-1,-1,-1]","[0.06599639448797898,-0.06954036729837394]","[-1,-1,-1]","[0.014452272890453609,0.1821718498166093]","[-1,-1,-1]","[0.16402022192895072,-0.01053845168344329]","[-1,-1,-1]","[-0.13026029263019526,-0.041680349125266594]","[1,1,1]","[-0.026745388172693237,0.10360012974333953]","[1,1,1]","[-0.08898554325729663,-0.08504289075328875]","[-1,-1,-1]","[0.17122296355441544,0.029866995777350677]","[-1,-1,-1]","[0.05328401748321068,0.04122677026453119]","[1,1,1]","[0.1445839578766261,-0.05170285079207185]","[-1,-1,-1]","[-0.11707381950077896,0.15767975721800745]","[-1,-1,-1]","[0.10030427535448232,-0.03323058445308092]","[-1,-1,-1]","[-0.07048454209581977,0.11861985868516277]","[1,1,1]","[0.005518248846231523,-0.12815712261989035]","[1,1,1]","[-0.06634566626963234,0.04170225749322936]","[-1,-1,-1]","[0.060179995191786434,-0.007341628662763084]","[-1,-1,-1]","[-0.08215200940533059,-0.14757931084891582]","[1,1,1]","[-0.08735419749916423,0.0012145013156604392]","[1,1,1]","[-0.030922470614390917,-0.1891911571842642]","[1,1,1]","[0.0926567600493071,0.14176424920778166]","[1,1,1]","[0.01958531093129647,-0.1949757670364278]","[-1,-1,-1]","[-0.026001944682594542,0.1752489624853834]","[1,1,1]","[0.013704116724994591,0.10394896757431266]","[1,1,1]","[-0.16183876591656038,-0.10994842983744055]","[-1,-1,-1]","[-0.03518304407559481,0.004775380687421319]","[1,1,1]","[0.1401846047365957,-0.12582976488973618]","[1,1,1]","[0.02,0.02]",79.103,0,2,2,71,1,,,,,,,
,,,,,,,5c28feff5ffcb7000128a541,682f0fc0793db9cd423e2bf8,2025-05-22_07h51.59.742,cuing_paradigm_dot,2024.1.5,Win32,144.092219,682d573fa47f1360d1451895,,,,,,,,,,,79.103,79.603,,,79.853,80.318,left,0.462,,,,,,,,,0.6,,,,,,79.603,79.853,80.318,"[0.05544327879753879,0.16484908017272482]","[-1,-1,-1]","[0.0011952454637645688,-0.19674845125951007]","[1,1,1]","[0.03239796012533903,-0.059868655959923966]","[1,1,1]","[-0.008395957430264622,0.16579355850646416]","[1,1,1]","[0.03725132483979879,-0.11626927166588265]","[-1,-1,-1]","[-0.18192013261229212,-0.013982268588780699]","[-1,-1,-1]","[-0.15749757457037636,0.060077768796780416]","[-1,-1,-1]","[-0.08829644322048304,0.06580913770375459]","[-1,-1,-1]","[0.055703273886578,-0.1778576347546013]","[1,1,1]","[0.0008722914734889199,0.09671878979808562]","[1,1,1]","[0.09652960362128246,-0.10177912738478478]","[1,1,1]","[-0.019671006648751137,-0.03350023649356644]","[-1,-1,-1]","[-0.07928420064266568,0.10631610519467363]","[1,1,1]","[-0.07368851265257387,-0.0820815111389865]","[-1,-1,-1]","[-0.040966310863758355,0.07048020747650949]","[-1,-1,-1]","[-0.0753123012419423,-0.18267791712746959]","[1,1,1]","[-0.11298259358937332,0.12897828404962813]","[1,1,1]","[-0.1112930457507117,-0.04112481601365755]","[1,1,1]","[0.16067674668954715,0.09896789045674656]","[-1,-1,-1]","[-0.17309087731121384,-0.097936375148089]","[1,1,1]","[0.09775294615582918,0.1627949788639983]","[1,1,1]","[0.03065813214158444,0.12504321081967118]","[-1,-1,-1]","[-0.06280010236629606,0.15041736985154283]","[-1,-1,-1]","[0.11454848532524213,-0.05227871557158748]","[-1,-1,-1]","[0.13140551859745228,-0.1377936734947641]","[-1,-1,-1]","[0.01020028619806244,0.05625077953288003]","[1,1,1]","[-0.13903662890023685,-0.0764573438117237]","[1,1,1]","[0.09226707016042968,0.121397008145024]","[1,1,1]","[0.030369952732597415,-0.017437955894762824]","[1,1,1]","[0.13101806401364802,0.002904263177945346]","[1,1,1]","[-0.14364232275342523,0.018236146322196653]","[1,1,1]","[0.0784180832867021,-0.021874626274861808]","[1,1,1]","[0.02,0.02]",81.416,0,3,3,159,1,,,,,,,
,,,,,,,5c28feff5ffcb7000128a541,682f0fc0793db9cd423e2bf8,2025-05-22_07h51.59.742,cuing_paradigm_dot,2024.1.5,Win32,144.092219,682d573fa47f1360d1451895,,,,,,,,,,,81.416,81.916,,,82.166,82.513,left,0.342,,,,,,,,,0.9,,,,,,81.916,82.166,82.513,"[-0.1256243521654337,-0.09434999689540083]","[1,1,1]","[-0.021167735396973607,0.05890012406285398]","[1,1,1]","[0.006780041843240052,0.019337178028018556]","[1,1,1]","[0.10819228211575434,0.11359849611113078]","[1,1,1]","[0.035934645288518016,-0.08694836945641846]","[1,1,1]","[-0.09541764312503036,-0.009145567525633497]","[1,1,1]","[-0.08136767770946962,-0.1562347730793143]","[-1,-1,-1]","[-0.03856817286027031,-0.14482621366379064]","[1,1,1]","[0.1678405567571941,-0.05008129172882649]","[1,1,1]","[-0.12867384466270887,-0.03641368750438423]","[1,1,1]","[0.09420570408245117,0.17525842294221025]","[-1,-1,-1]","[0.09264025059534849,-0.15008770184514908]","[1,1,1]","[0.03206221138858922,0.13794786988778115]","[1,1,1]","[0.032671818238761634,-0.18783490724659713]","[1,1,1]","[-0.09734525661902245,0.1499727065647702]","[-1,-1,-1]","[-0.1448928506560812,0.1219663680366777]","[1,1,1]","[0.18480747116240762,0.0624559584163153]","[1,1,1]","[-0.014924597165046474,-0.19819924050624343]","[1,1,1]","[0.14716560361981137,0.12695668835048968]","[1,1,1]","[-0.18209986173056789,0.053183058303823236]","[1,1,1]","[0.05997034593032935,0.07832658536214437]","[1,1,1]","[-0.00423952207572211,0.16480993219500475]","[1,1,1]","[-0.09651365408011171,0.0638324190706359]","[1,1,1]","[-0.03135927621108152,-0.0641312650905408]","[1,1,1]","[-0.05337155476745621,0.18341893432927825]","[1,1,1]","[-0.08645562144843588,-0.11256968196801014]","[1,1,1]","[-0.06688671425010773,0.021450289777655635]","[1,1,1]","[0.07746227361927388,-0.09477387342319868]","[1,1,1]","[0.10755102133362854,-0.02770312501186491]","[1,1,1]","[0.05282177037698524,0.18349516749710387]","[1,1,1]","[0.10051208640810463,0.06612628471826748]","[1,1,1]","[0.03738507435322694,-0.011067301568697108]","[1,1,1]","[0.02,0.02]",83.61,0,4,4,180,1,,,,,,,
,,,,,,,5c28feff5ffcb7000128a541,682f0fc0793db9cd423e2bf8,2025-05-22_07h51.59.742,cuing_paradigm_dot,2024.1.5,Win32,144.092219,682d573fa47f1360d1451895,,,,,,,,,,,83.61,84.111,,,84.361,84.722,left,0.357,,,,,,,,,0.9,,,,,,84.111,84.361,84.722,"[-0.030656520412922866,-0.014568949305370858]","[1,1,1]","[0.06376593113906928,-0.12103052468388707]","[1,1,1]","[0.17216176391906188,0.04653964735957432]","[1,1,1]","[0.02290324426808014,-0.19640697170730115]","[1,1,1]","[0.024616863938856707,0.01802640179251375]","[1,1,1]","[0.1330721828973598,-0.07513191725702857]","[1,1,1]","[0.08368725287358385,0.17422803898164926]","[1,1,1]","[0.03322579148000491,0.09400123421614213]","[1,1,1]","[-0.1270312156022978,0.13912521488503235]","[1,1,1]","[0.05259454059356622,-0.08217994691560818]","[1,1,1]","[-0.14616771483675228,0.03023302822161087]","[1,1,1]","[-0.07923652117193852,-0.1398161459531105]","[1,1,1]","[-0.13824804067478924,-0.05787271180033666]","[1,1,1]","[0.01564743355331894,-0.10168084139758725]","[1,1,1]","[-0.08385698438200279,-0.02213608008197262]","[1,1,1]","[-0.03365728360176844,-0.10390607891715092]","[-1,-1,-1]","[-0.16383008012152536,0.11326163658459999]","[1,1,1]","[-0.09551868121239035,0.08848605602891803]","[-1,-1,-1]","[0.1137864498965547,0.07822007208863384]","[1,1,1]","[0.08689421937681815,-0.1704744588114189]","[1,1,1]","[0.0013718959880040505,-0.048309782515241685]","[-1,-1,-1]","[0.044913959339948684,0.18687687217885604]","[1,1,1]","[-0.18114588660592,-0.010764816797023175]","[1,1,1]","[0.0836568213375748,0.1215847797404556]","[1,1,1]","[-0.019369213423920284,0.15958821621443617]","[1,1,1]","[0.11491798337623176,-0.13977293380159936]","[1,1,1]","[0.18070081473776212,0.005143042448361119]","[1,1,1]","[0.1317457170926375,0.12305644276784591]","[1,1,1]","[0.03978633162006083,-0.03545828190912593]","[1,1,1]","[-0.07611859378332415,0.1485763709268462]","[1,1,1]","[-0.04064958479193957,0.047197210303168445]","[1,1,1]","[-0.005905093804647044,-0.14004877000935695]","[1,1,1]","[0.02,0.02]",85.819,0,5,5,184,1,,,,,,,
,,,,,,,5c28feff5ffcb7000128a541,682f0fc0793db9cd423e2bf8,2025-05-22_07h51.59.742,cuing_paradigm_dot,2024.1.5,Win32,144.092219,682d573fa47f1360d1451895,,,,,,,,,,,85.82,86.319,,,86.569,87.118,left,0.545,,,,,,,,,0.6,,,,,,86.319,86.569,87.118,"[-0.008274645299677683,-0.09623175981765722]","[-1,-1,-1]","[0.16144585222223234,0.08348014675913297]","[-1,-1,-1]","[-0.08738955713169475,0.16857939020840398]","[1,1,1]","[0.1974713023933022,0.02605076234115848]","[1,1,1]","[0.05330474728126802,-0.012278328321441075]","[1,1,1]","[0.0596678377718817,-0.172243789395283]","[1,1,1]","[-0.10778188215996697,-0.04733347526515345]","[1,1,1]","[0.04651399723656614,-0.061042143790277364]","[1,1,1]","[0.012427685935644972,0.017006772883885187]","[1,1,1]","[0.0618920716453983,0.1869811542768325]","[1,1,1]","[-0.04252636243284208,0.06801029910245532]","[1,1,1]","[0.1207204366270712,0.10013577928857526]","[-1,-1,-1]","[-0.03432846475123875,-0.18200523880344274]","[-1,-1,-1]","[-0.02834755571409574,0.187458390704359]","[1,1,1]","[-0.06505500087256899,0.0273726602385058]","[1,1,1]","[-0.18079830801841348,-0.041772274541474766]","[1,1,1]","[0.12484527929727315,0.032148695547542926]","[-1,-1,-1]","[-0.16650653879261362,0.05748368221818024]","[1,1,1]","[0.13548826784645435,-0.054822606812058305]","[-1,-1,-1]","[0.17671759188036573,-0.026305016079564942]","[-1,-1,-1]","[0.02730730582653929,0.07133276148457492]","[1,1,1]","[0.17376941426902429,-0.08381677213206097]","[-1,-1,-1]","[0.07406097681715494,0.06531779045949702]","[-1,-1,-1]","[-0.046575614670780884,-0.1414022020603962]","[-1,-1,-1]","[-0.02928554081127924,-0.04824493708132863]","[1,1,1]","[0.07297238710758726,-0.10674727156931632]","[-1,-1,-1]","[-0.1079962363546786,-0.15590150417212573]","[-1,-1,-1]","[0.04362073052079652,0.12356399081423981]","[-1,-1,-1]","[-0.1519194616913197,-0.07634679711512263]","[1,1,1]","[-0.15747537346655596,0.01077784591594513]","[1,1,1]","[-0.07724209396361936,0.12061852886900735]","[1,1,1]","[0.005345639562354126,-0.17174275833995595]","[1,1,1]","[0.02,0.02]",88.215,0,6,6,164,1,,,,,,,
,,,,,,,5c28feff5ffcb7000128a541,682f0fc0793db9cd423e2bf8,2025-05-22_07h51.59.742,cuing_paradigm_dot,2024.1.5,Win32,144.092219,682d573fa47f1360d1451895,,,,,,,,,,,88.215,88.715,,,88.965,89.285,left,0.318,,,,,,,,,0.9,,,,,,88.715,88.965,89.285,"[-0.0989922386334319,0.07202201053065758]","[1,1,1]","[0.1841563422448358,-0.05325681177085657]","[1,1,1]","[0.07572114625121494,-0.14585587419503418]","[1,1,1]","[0.08530110481033827,-0.06348146792658536]","[1,1,1]","[0.08980752110860114,0.09897130247621895]","[1,1,1]","[-0.02707696608160046,-0.08940173796630169]","[-1,-1,-1]","[-0.03408616361581679,0.09643939799103304]","[1,1,1]","[0.0368188635657585,0.03208192567761177]","[-1,-1,-1]","[-0.0966940612484472,-0.0993080490400994]","[1,1,1]","[-0.09962581829572471,-0.1652153018639044]","[1,1,1]","[0.08905238212377582,0.1737228049034916]","[1,1,1]","[-0.16150467383155354,-0.11550847402605462]","[1,1,1]","[0.007174938081653421,0.078601070937362]","[1,1,1]","[-0.08935098930149049,0.12343268974218478]","[-1,-1,-1]","[-0.1092939587486068,-0.03407087412353721]","[1,1,1]","[0.11862238641211846,0.008946890109253265]","[1,1,1]","[-0.03547908248194187,0.05451667838396565]","[1,1,1]","[0.047177449112424885,0.1802771994879113]","[1,1,1]","[-0.12047918047349077,0.014290927081634208]","[1,1,1]","[0.17523370774107697,0.055847180624278035]","[1,1,1]","[-0.18190371074332123,-0.04228108197880784]","[1,1,1]","[-0.16290876992813988,0.09857277906688523]","[1,1,1]","[0.031143685722478668,0.13630150144335224]","[1,1,1]","[-0.05005337868678104,-0.18485861471193135]","[1,1,1]","[0.007412280630257992,-0.16694423821919763]","[1,1,1]","[-0.03806053987357671,0.18598451564527482]","[1,1,1]","[0.12566059673158841,-0.041575293134548226]","[1,1,1]","[0.1581181640140822,-0.0837076822413885]","[1,1,1]","[0.026001801539271775,-0.04881953406653067]","[1,1,1]","[-0.1771295976909213,0.005947009352253142]","[1,1,1]","[0.02609503745069688,-0.12248106062326784]","[1,1,1]","[0.13368357850574417,0.12842309491005954]","[1,1,1]","[0.02,0.02]",90.382,0,7,7,190,1,,,,,,,
,,,,,,,5c28feff5ffcb7000128a541,682f0fc0793db9cd423e2bf8,2025-05-22_07h51.59.742,cuing_paradigm_dot,2024.1.5,Win32,144.092219,682d573fa47f1360d1451895,,,,,,,,,,,90.383,90.882,,,91.133,91.41,right,0.271,,,,,,,,,0.45,,,,,,90.882,91.133,91.41,"[-0.01047650575211191,-0.04332226332388293]","[1,1,1]","[-0.030816416856322887,0.019626818814028224]","[1,1,1]","[-0.1509343624295698,0.002368397019548973]","[1,1,1]","[0.10519279636892687,-0.09007533767200049]","[1,1,1]","[0.16875003907748343,0.05006216023427288]","[-1,-1,-1]","[-0.10938939502058048,-0.11133859732182219]","[-1,-1,-1]","[0.02008957994283376,0.1145423359955608]","[-1,-1,-1]","[0.03389880649078287,0.1947567577712912]","[-1,-1,-1]","[0.05700993135590789,-0.12970832416824693]","[1,1,1]","[-0.04848530280090845,0.09070369875657087]","[1,1,1]","[0.07021631528219913,0.015879338266688383]","[-1,-1,-1]","[0.15738784794615895,-0.021808130341723755]","[-1,-1,-1]","[0.09317957661987539,0.10648911762861168]","[1,1,1]","[0.1531985482428297,-0.11908550975708741]","[-1,-1,-1]","[-0.07837833917232008,-0.18137514805769087]","[1,1,1]","[0.17083082876745934,-0.0699873132722252]","[1,1,1]","[-0.1556859916596606,-0.11129418837061213]","[1,1,1]","[-0.18646051224655266,0.02742426485536128]","[-1,-1,-1]","[0.11961783258234861,-0.0016402784650182767]","[1,1,1]","[0.035696949117087616,0.03823070979063799]","[-1,-1,-1]","[-0.03562014127909396,0.18852796722520013]","[1,1,1]","[-0.061672443188280954,0.14692301923862203]","[-1,-1,-1]","[0.06610173484005788,-0.18521153519954145]","[-1,-1,-1]","[-0.08880198845831283,0.01631552380065062]","[-1,-1,-1]","[0.03460584651316481,-0.05841695863786884]","[1,1,1]","[0.07584695207446922,-0.03911250023462331]","[-1,-1,-1]","[0.1606290990940872,0.09009669983194538]","[-1,-1,-1]","[0.12595756616759923,0.13738152870000958]","[-1,-1,-1]","[-0.06353258879545957,0.05334953623780601]","[-1,-1,-1]","[-0.07994056930367174,-0.06837188566174694]","[-1,-1,-1]","[0.127177709581728,0.053489025133608745]","[1,1,1]","[-0.18612495700111467,-0.052856326460419156]","[-1,-1,-1]","[0.02,0.02]",92.507,0,8,8,87,1,,,,,,,
,,,,,,,5c28feff5ffcb7000128a541,682f0fc0793db9cd423e2bf8,2025-05-22_07h51.59.742,cuing_paradigm_dot,2024.1.5,Win32,144.092219,682d573fa47f1360d1451895,,,,,,,,,,,92.508,93.008,,,93.258,93.619,right,0.354,,,,,,,,,0.4,,,,,,93.008,93.258,93.619,"[0.04541953146725231,0.003778137524134578]","[-1,-1,-1]","[-0.15641238340784852,-0.09429860623335969]","[1,1,1]","[-0.1917447222712434,-0.044961214066611216]","[1,1,1]","[0.0990785092141164,-0.16954014609871826]","[1,1,1]","[0.10365364332238028,-0.07020090398668327]","[-1,-1,-1]","[-0.08853140531367544,0.11919433594479248]","[1,1,1]","[0.07785269698596568,0.09368869718907269]","[1,1,1]","[-0.0037445078544353443,-0.028757058150615834]","[-1,-1,-1]","[-0.17835443679815993,0.050866043453437135]","[1,1,1]","[0.011076582401278368,0.1437368341943409]","[-1,-1,-1]","[-0.09797349302326419,-0.15783273599574751]","[-1,-1,-1]","[0.012418433777240888,-0.16586122454587812]","[-1,-1,-1]","[-0.11072012850637021,-0.09299484530852113]","[-1,-1,-1]","[-0.02994187938780795,0.0195148054180331]","[1,1,1]","[0.17517747698649105,0.025577990236969748]","[1,1,1]","[-0.12552551911822885,-0.05251745151285857]","[-1,-1,-1]","[0.12230293081220235,0.06580592839404453]","[1,1,1]","[-0.01181971104300567,-0.10270234286375562]","[-1,-1,-1]","[-0.13850830313764878,0.05584795351012519]","[-1,-1,-1]","[0.1450715585553732,0.10464288924378626]","[-1,-1,-1]","[-0.05024021004212784,-0.1930702596265773]","[-1,-1,-1]","[0.0645375115577656,-0.035244431081232167]","[-1,-1,-1]","[0.031365031709148436,-0.10750546959461382]","[1,1,1]","[0.03162240339361169,0.10241959343589775]","[1,1,1]","[-0.062381777935497325,-0.026371265695645695]","[1,1,1]","[0.058175407469927096,0.16965414029697615]","[-1,-1,-1]","[-0.06408082972951971,-0.11183906115263453]","[-1,-1,-1]","[-0.019250261341604697,0.08997540343406368]","[-1,-1,-1]","[-0.17737846143594188,0.006976164922075656]","[-1,-1,-1]","[0.16257957999771067,0.06375550529299503]","[1,1,1]","[0.17854529206323985,-0.08139877870830783]","[-1,-1,-1]","[-0.04555524769363658,-0.1522592420516152]","[-1,-1,-1]","[0.02,0.02]",94.716,0,9,9,53,1,,,,,,,
,,,,,,,5c28feff5ffcb7000128a541,682f0fc0793db9cd423e2bf8,2025-05-22_07h51.59.742,cuing_paradigm_dot,2024.1.5,Win32,144.092219,682d573fa47f1360d1451895,,,,,,,,,,,94.716,95.216,,,95.467,95.759,right,0.289,,,,,,,,,0.1,,,,,,95.216,95.467,95.759,"[-0.060732958749557385,-0.12408864172343358]","[-1,-1,-1]","[0.13388584650261615,-0.13766125483611266]","[-1,-1,-1]","[0.021942470786807167,-0.16075409954456069]","[-1,-1,-1]","[0.05159161103025356,-0.1928909977780271]","[-1,-1,-1]","[0.010200293260662336,0.17735859178869615]","[-1,-1,-1]","[0.06330988747384578,0.17981689554395944]","[-1,-1,-1]","[0.045164932776841506,0.14219008696523122]","[-1,-1,-1]","[-0.1295451894652132,-0.1349963546792872]","[-1,-1,-1]","[0.18346196403588785,0.05038868947314138]","[-1,-1,-1]","[-0.15138825880109136,-0.06506171740849083]","[-1,-1,-1]","[0.11971872979072744,0.113281725010321]","[-1,-1,-1]","[-0.08163645311632611,-0.04645955590461275]","[-1,-1,-1]","[-0.027866086319550933,0.038827253929282324]","[-1,-1,-1]","[0.11899224740121908,-0.048815522366667724]","[-1,-1,-1]","[-0.09078629258743509,0.09739345843496433]","[1,1,1]","[0.003606197243461428,-0.11143940132314535]","[-1,-1,-1]","[0.05826375064958876,0.01670388775531272]","[-1,-1,-1]","[-0.12049114954106854,-0.012028051175976122]","[-1,-1,-1]","[-0.08953511026561653,0.1743051160213993]","[-1,-1,-1]","[0.16789110732513082,0.09768930637591103]","[-1,-1,-1]","[0.07137758389889276,-0.05621965441829333]","[-1,-1,-1]","[0.029545085244801022,0.06355171889007721]","[-1,-1,-1]","[0.17165330367505113,-0.03790905567626385]","[-1,-1,-1]","[0.010671885080997787,-0.037207623125904615]","[-1,-1,-1]","[-0.14676506524898025,0.03901927602691288]","[-1,-1,-1]","[-0.17118955163676583,-0.0011401071491218258]","[-1,-1,-1]","[0.049256629383368215,-0.09744628243423392]","[1,1,1]","[-0.04030121775272403,0.08327626538142496]","[-1,-1,-1]","[-0.041981808122807746,-0.053039506839876106]","[1,1,1]","[-0.0223090532215862,0.12296328360963256]","[-1,-1,-1]","[-0.013916940830837991,-0.18757942700045122]","[-1,-1,-1]","[-0.06795500178185637,0.037696632438912456]","[-1,-1,-1]","[0.02,0.02]",96.856,0,10,10,27,1,,,,,,,
,,,,,,,5c28feff5ffcb7000128a541,682f0fc0793db9cd423e2bf8,2025-05-22_07h51.59.742,cuing_paradigm_dot,2024.1.5,Win32,144.092219,682d573fa47f1360d1451895,,,,,,,,,,,96.856,97.355,,,97.606,97.967,right,0.357,,,,,,,,,0.4,,,,,,97.355,97.606,97.967,"[-0.08150532726338819,0.060313652376543445]","[-1,-1,-1]","[-0.17204134058056467,0.004489416225220772]","[-1,-1,-1]","[0.16961314335083497,-0.03709032991047941]","[1,1,1]","[0.003749797823467526,0.014697083924597822]","[1,1,1]","[0.13051317667038198,-0.05993398138373299]","[1,1,1]","[-0.1134217015917986,-0.003855931689695243]","[-1,-1,-1]","[-0.10086671275406708,0.11976471639546292]","[-1,-1,-1]","[-0.01190102135858469,0.07523956385811469]","[1,1,1]","[-0.07713200555254802,-0.04117022946492191]","[1,1,1]","[0.12612160501553785,0.14488396717959823]","[1,1,1]","[0.0053442358447607355,-0.04367330867186645]","[-1,-1,-1]","[0.027185653433168887,-0.18487016735671188]","[1,1,1]","[0.02575912987614062,0.16750243380051863]","[1,1,1]","[0.06795386768386588,0.0005365033531057253]","[-1,-1,-1]","[-0.15517089532125972,0.08687698560656917]","[-1,-1,-1]","[0.18684434541950687,0.03813850727289928]","[-1,-1,-1]","[0.10109068791277877,0.03261743782243586]","[-1,-1,-1]","[-0.11231176799047879,-0.07919658109361957]","[-1,-1,-1]","[-0.16912289641158132,-0.0803977149611821]","[-1,-1,-1]","[0.06910166438135604,0.14789718619567244]","[1,1,1]","[-0.019579478642610188,-0.1978325131144001]","[1,1,1]","[-0.09949476889180989,-0.11914252629127398]","[1,1,1]","[-0.03550534627068905,0.1731105931716802]","[-1,-1,-1]","[0.04913557889609341,-0.0956355550880575]","[-1,-1,-1]","[0.068674036922258,-0.04204727401132639]","[1,1,1]","[-0.08111483751294966,0.1753894977877186]","[-1,-1,-1]","[0.07615681249175724,0.09604523976376622]","[-1,-1,-1]","[0.07252829833662262,-0.14793056511141006]","[-1,-1,-1]","[0.038969366074076285,0.11096280967365338]","[-1,-1,-1]","[-0.07244388779016019,0.00912770858961487]","[-1,-1,-1]","[-0.1536576743696222,-0.12366193556783188]","[-1,-1,-1]","[-0.03709746369362048,-0.06961000762724955]","[1,1,1]","[0.02,0.02]",99.064,0,11,11,47,1,,,,,,,
,,,,,,,5c28feff5ffcb7000128a541,682f0fc0793db9cd423e2bf8,2025-05-22_07h51.59.742,cuing_paradigm_dot,2024.1.5,Win32,144.092219,682d573fa47f1360d1451895,,,,,,,,,,,99.064,99.565,,,99.814,100.245,right,0.428,,,,,,,,,0.4,,,,,,99.565,99.814,100.245,"[-0.02475387744213694,0.14735307360938835]","[-1,-1,-1]","[0.12237250119897185,-0.11972893232888672]","[1,1,1]","[0.07548772596543864,0.0962440261870449]","[1,1,1]","[-0.16859001721133715,-0.04209828709934398]","[-1,-1,-1]","[-0.10827625041863256,-0.14975996361017715]","[-1,-1,-1]","[-0.09170591534064121,0.048742521551681225]","[-1,-1,-1]","[-0.15882260086719946,0.1198650826311223]","[-1,-1,-1]","[0.05442298366122226,-0.11766093435205048]","[-1,-1,-1]","[0.06304776440693095,-0.007696921867471146]","[1,1,1]","[-0.14465712932860608,0.04303717836604024]","[-1,-1,-1]","[-0.031513013100626965,-0.09947860126650682]","[1,1,1]","[0.03157254134803308,0.06336587843092728]","[-1,-1,-1]","[0.18217652375606774,-0.056667996443076386]","[-1,-1,-1]","[-0.060455632813197886,-0.14761381378812083]","[1,1,1]","[0.17141378363309173,-0.012983663995362441]","[1,1,1]","[0.021453699860415617,-0.1625804973884068]","[-1,-1,-1]","[0.10127854997460049,0.13882897138047923]","[1,1,1]","[-0.06516590359838074,0.1575123707473168]","[1,1,1]","[-0.12353470365188478,-0.07249225399694237]","[-1,-1,-1]","[0.09940332440226422,-0.0795409218935033]","[1,1,1]","[-0.11695960807905975,0.11131302575187138]","[-1,-1,-1]","[-0.0019145572176534572,0.19459953568641142]","[1,1,1]","[-0.06833912610183948,0.09080824865192305]","[-1,-1,-1]","[-0.019457329911801415,-0.006563589225025393]","[-1,-1,-1]","[-0.05989468726402071,-0.030362574880548245]","[-1,-1,-1]","[-0.09629666040417788,-0.011159492567822843]","[1,1,1]","[-0.049407217617641094,0.04454731079749381]","[-1,-1,-1]","[-0.17465501935037572,0.00015277397413269254]","[-1,-1,-1]","[0.1782468298623836,0.04727202769537723]","[-1,-1,-1]","[0.030165094481776584,0.1292130901384913]","[-1,-1,-1]","[-0.1662320995674004,-0.09885231319329274]","[1,1,1]","[0.12705784060094777,0.08340839280123223]","[1,1,1]","[0.02,0.02]",101.343,0,12,12,50,1,,,,,,,
,,,,,,,5c28feff5ffcb7000128a541,682f0fc0793db9cd423e2bf8,2025-05-22_07h51.59.742,cuing_paradigm_dot,2024.1.5,Win32,144.092219,682d573fa47f1360d1451895,,,,,,,,,,,101.343,101.842,,,102.092,102.606,left,0.51,,,,,,,,,0.6,,,,,,101.842,102.092,102.606,"[-0.043308082088379767,0.026159182199358914]","[-1,-1,-1]","[0.15108848624748006,-0.09554785295022665]","[1,1,1]","[-0.14441334006655776,-0.03749342974960132]","[-1,-1,-1]","[-0.07576380180282946,-0.005309715273232603]","[1,1,1]","[-0.016681991642405046,0.11964240209100593]","[1,1,1]","[-0.016448088502141755,-0.16183597677034428]","[-1,-1,-1]","[-0.0969542322355106,-0.16746862315092356]","[-1,-1,-1]","[0.004597980786283539,0.06374345952911509]","[1,1,1]","[0.1574394687125028,0.0015761642628755483]","[1,1,1]","[-0.08896482144785733,0.13520954481737363]","[-1,-1,-1]","[0.125883429616104,-0.04827574657547059]","[1,1,1]","[-0.14671698516941042,0.09847172248691974]","[1,1,1]","[0.1526982774267419,0.08097931437960436]","[-1,-1,-1]","[-0.17319514538316752,0.016821825209124158]","[1,1,1]","[0.02821225032961247,0.10828660412640857]","[-1,-1,-1]","[0.04364307906850101,-0.13666295030403264]","[1,1,1]","[0.05900982195518537,-0.04381609203292984]","[1,1,1]","[0.015717095186257773,-0.06772281265454162]","[-1,-1,-1]","[-0.1276779118687218,-0.0891583431701342]","[-1,-1,-1]","[0.10082979052625066,-0.13033851581562772]","[1,1,1]","[-0.05519988864560605,-0.0959381423480653]","[-1,-1,-1]","[0.19948129605102033,0.005810736494457436]","[1,1,1]","[0.1044517711683835,0.08484493735423178]","[1,1,1]","[0.017405918545530568,0.18352473894656834]","[-1,-1,-1]","[0.10216021295979344,0.02625169458725741]","[1,1,1]","[-0.08054684317390108,0.05990585479194339]","[1,1,1]","[-0.09128658199708031,-0.054573678808106235]","[-1,-1,-1]","[0.05747665727474597,0.14669900282978166]","[-1,-1,-1]","[-0.04962938440513393,-0.19271640417028588]","[1,1,1]","[0.058417326270914983,0.025247169454124425]","[1,1,1]","[0.003941203648688803,0.018032456031329202]","[1,1,1]","[0.16642444981681515,-0.04670361392545911]","[1,1,1]","[0.02,0.02]",103.704,0,13,13,155,1,,,,,,,
,,,,,,,5c28feff5ffcb7000128a541,682f0fc0793db9cd423e2bf8,2025-05-22_07h51.59.742,cuing_paradigm_dot,2024.1.5,Win32,144.092219,682d573fa47f1360d1451895,,,,,,,,,,,103.704,104.205,,,104.454,104.794,right,0.333,,,,,,,,,0.1,,,,,,104.205,104.454,104.794,"[-0.05005285467077116,0.130097239654305]","[-1,-1,-1]","[-0.036666714040268354,-0.12495114352432926]","[-1,-1,-1]","[0.09080475748499747,0.02790763767212165]","[-1,-1,-1]","[0.0011299375995330542,0.12597954942576564]","[-1,-1,-1]","[-0.12236517771262656,0.12060745965274325]","[-1,-1,-1]","[-0.08560082209269222,-0.04957924215625658]","[-1,-1,-1]","[0.1780595764388862,0.06359394605359343]","[-1,-1,-1]","[-0.04377048070713566,-0.0086998945806616]","[-1,-1,-1]","[-0.11499225269785837,-0.10995275820159392]","[-1,-1,-1]","[-0.14007201290457053,-0.07020768209897116]","[-1,-1,-1]","[-0.05488135353412789,-0.17857637018763392]","[-1,-1,-1]","[0.033503777452467576,-0.09269470521639438]","[-1,-1,-1]","[0.0877529277095165,0.1760417878295872]","[-1,-1,-1]","[0.12245535749661737,0.08022072438715071]","[-1,-1,-1]","[-0.15561324211083963,-0.010297270380288298]","[-1,-1,-1]","[0.13148735828114044,-0.0677746845308715]","[-1,-1,-1]","[0.07420056041173266,0.09004819867383528]","[-1,-1,-1]","[0.03452235631851087,-0.16141919295366916]","[1,1,1]","[0.14849252550389994,0.13015880413368197]","[-1,-1,-1]","[0.0833934787048385,-0.0444587220647626]","[-1,-1,-1]","[0.020667097219773063,0.1646553231878222]","[-1,-1,-1]","[0.01431269709321493,0.08058347645515125]","[-1,-1,-1]","[-0.07230643980336132,0.08215582698048035]","[-1,-1,-1]","[-0.08685876828934877,0.039001860929967505]","[-1,-1,-1]","[0.001471186423948365,-0.01507305237017984]","[-1,-1,-1]","[-0.15996489194731825,0.07449957601192263]","[-1,-1,-1]","[-0.03284550815243431,0.046914220230862815]","[1,1,1]","[0.06865897436690799,-0.11687158360732981]","[-1,-1,-1]","[-0.040388036704074565,0.18507244670017015]","[-1,-1,-1]","[0.1982355734371693,-0.02574206214486027]","[-1,-1,-1]","[-0.015274135585635397,-0.08652123454842103]","[1,1,1]","[0.11408338101830727,-0.14037489104969086]","[-1,-1,-1]","[0.02,0.02]",105.891,0,14,14,16,1,,,,,,,
,,,,,,,5c28feff5ffcb7000128a541,682f0fc0793db9cd423e2bf8,2025-05-22_07h51.59.742,cuing_paradigm_dot,2024.1.5,Win32,144.092219,682d573fa47f1360d1451895,,,,,,,,,,,105.892,106.391,,,106.642,107.176,right,0.53,,,,,,,,,0.45,,,,,,106.392,106.642,107.176,"[0.07798307490595369,-0.06697351338357958]","[1,1,1]","[0.1553042644328136,0.016756540926029604]","[1,1,1]","[-0.13171180541925556,-0.014678544931291216]","[-1,-1,-1]","[-0.10435916600821915,-0.12603857144278316]","[-1,-1,-1]","[0.17886900567164873,-0.08394916339720304]","[-1,-1,-1]","[-0.06607549575531431,-0.10521322588447872]","[1,1,1]","[-0.16465123510295684,0.08347544962190702]","[1,1,1]","[-0.12113649742918339,0.02682605800313655]","[-1,-1,-1]","[0.12140774163062101,-0.09725011626268162]","[1,1,1]","[-0.060075243323078745,0.13834117543931532]","[1,1,1]","[0.12128036727875319,0.09714548976546993]","[1,1,1]","[0.046572301970421476,-0.03054468490100512]","[1,1,1]","[0.00971794567283522,-0.15246187729004182]","[1,1,1]","[-0.02737213597281626,0.009931057498933906]","[-1,-1,-1]","[0.06143232642508849,0.03214754250814004]","[-1,-1,-1]","[0.06540404765714554,0.09135316045232092]","[-1,-1,-1]","[0.11359989302483518,-0.025480933207142856]","[-1,-1,-1]","[0.18284428859851665,0.07975530214732643]","[1,1,1]","[-0.06698618631717229,-0.030576140010590506]","[-1,-1,-1]","[-0.07049515021672184,0.017286991236170973]","[1,1,1]","[0.19682838114960463,0.03537711166891101]","[1,1,1]","[-0.1650269779087013,-0.09904974117654196]","[-1,-1,-1]","[-0.0032448840116564765,0.17923843575759807]","[-1,-1,-1]","[-0.1617521915442921,0.038507927090946116]","[-1,-1,-1]","[-0.16218444711862526,-0.04433549156837557]","[-1,-1,-1]","[-0.025163107017537732,-0.03354597684919425]","[1,1,1]","[-0.1209346779322601,0.15643032011015842]","[-1,-1,-1]","[0.06243008364240364,-0.14054645733766097]","[-1,-1,-1]","[-0.05190792919875699,0.17939749085695297]","[-1,-1,-1]","[-0.01251648890377016,-0.1171138135874272]","[1,1,1]","[0.017560651457100056,0.12187959610219022]","[-1,-1,-1]","[-0.03289128396256068,0.10308932952481922]","[-1,-1,-1]","[0.02,0.02]",108.274,0,15,15,82,1,,,,,,,
,,,,,,,5c28feff5ffcb7000128a541,682f0fc0793db9cd423e2bf8,2025-05-22_07h51.59.742,cuing_paradigm_dot,2024.1.5,Win32,144.092219,682d573fa47f1360d1451895,,,,,,,,,,,108.275,108.775,,,109.025,109.546,right,0.515,,,,,,,,,0.5,,,,,,108.775,109.025,109.546,"[0.07436736026882981,0.049967903164127886]","[-1,-1,-1]","[-0.1190147840335551,0.12579852719470952]","[-1,-1,-1]","[-0.038203247631499924,0.02374216433021692]","[1,1,1]","[0.047610743313815033,-0.06035630190366607]","[1,1,1]","[0.07251220513489831,-0.17396676630721442]","[1,1,1]","[-0.1643106325420808,-0.061792243339935944]","[1,1,1]","[0.05895909339455947,-0.13140525670695402]","[1,1,1]","[-0.1893525006425264,-0.011909886495556826]","[-1,-1,-1]","[-0.08532418095841104,-0.03345479991652101]","[-1,-1,-1]","[0.014519736477012862,-0.08327811917704452]","[-1,-1,-1]","[-0.1448283690064827,-0.017498595939732152]","[-1,-1,-1]","[-0.08884491036971821,-0.17614526975678285]","[1,1,1]","[0.07107000613346094,0.15160733007487007]","[1,1,1]","[0.13129317569166896,-0.12814542671366014]","[1,1,1]","[0.022541251125205095,0.026720569261320323]","[-1,-1,-1]","[0.0256413904118976,0.12281886455627354]","[-1,-1,-1]","[-0.18383851496474687,0.06577317636287384]","[-1,-1,-1]","[-0.04314689748084521,-0.13025176461699292]","[-1,-1,-1]","[-0.08282217897523109,-0.10085854287095537]","[1,1,1]","[0.0216183941428398,-0.17552775716735414]","[-1,-1,-1]","[0.15086121835697844,-0.01376808170715998]","[1,1,1]","[-0.09633531579709284,0.056905896786972054]","[-1,-1,-1]","[0.04437281734864948,0.18673992774549494]","[-1,-1,-1]","[0.003926047899770239,0.07379538528266702]","[-1,-1,-1]","[-0.03317909369709136,-0.043048064288348634]","[1,1,1]","[-0.01626837989949629,-0.19402251586144015]","[1,1,1]","[-0.1485192258170022,-0.11257844517005208]","[-1,-1,-1]","[0.06832905452511194,-0.018409626526543054]","[1,1,1]","[-0.04643652376619826,0.17335839142177875]","[1,1,1]","[-0.15354332205411975,0.09331262159302041]","[1,1,1]","[0.0912496657411873,-0.062087408542237287]","[-1,-1,-1]","[0.12176525353534591,0.02860201953946655]","[1,1,1]","[0.02,0.02]",110.642,0,16,16,110,1,,,,,,,
,,,,,,,5c28feff5ffcb7000128a541,682f0fc0793db9cd423e2bf8,2025-05-22_07h51.59.742,cuing_paradigm_dot,2024.1.5,Win32,144.092219,682d573fa47f1360d1451895,,,,,,,,,,,110.642,111.143,,,111.393,111.865,right,0.467,,,,,,,,,0.4,,,,,,111.143,111.393,111.865,"[0.12139006937308142,-0.10815679742094968]","[1,1,1]","[-0.029839924629360606,-0.1703145445473308]","[-1,-1,-1]","[-0.027038612769474207,0.15012838028816708]","[1,1,1]","[-0.07073000465405273,-0.16996068872560477]","[-1,-1,-1]","[0.1544725229242257,0.07669854351806596]","[-1,-1,-1]","[0.040517319238784315,-0.024139385377724403]","[-1,-1,-1]","[-0.011407449341277331,0.062139464339342046]","[1,1,1]","[-0.07725497286481689,0.007493355792516154]","[-1,-1,-1]","[-0.05117609261445702,0.043813768502172265]","[-1,-1,-1]","[0.09172755644923988,-0.06039527904666729]","[-1,-1,-1]","[-0.14251625529603212,-0.11438742056607613]","[-1,-1,-1]","[0.04814273880112471,0.14733886419764325]","[1,1,1]","[-0.15007594175629663,0.08645523240962755]","[1,1,1]","[0.12203806683582737,0.15529941155900703]","[1,1,1]","[-0.036515614209399014,-0.07024489227650967]","[-1,-1,-1]","[0.03588914976954077,0.06925188299050425]","[-1,-1,-1]","[-0.1889257321745733,-0.06133452945802293]","[-1,-1,-1]","[-0.005547156454635492,-0.12438710523047547]","[-1,-1,-1]","[0.1788720780815021,0.002379423448091754]","[1,1,1]","[-0.17812123969218907,0.025151082230480747]","[-1,-1,-1]","[0.053322390877435455,-0.11298105118762133]","[-1,-1,-1]","[-0.09671663509492402,0.09187099462834693]","[1,1,1]","[-0.1220648871663852,-0.04039259871778683]","[-1,-1,-1]","[-0.12010714003787187,0.1495408706765399]","[1,1,1]","[0.003623554548743693,0.17809787200692642]","[1,1,1]","[-0.035777025549892864,-0.027103178121101273]","[1,1,1]","[0.023651406666226196,-0.15456830137505298]","[-1,-1,-1]","[0.09348569634338454,-0.1740100872784552]","[-1,-1,-1]","[0.14796722892150468,-0.0343035370647087]","[1,1,1]","[0.16613692225878324,-0.10783353378942992]","[-1,-1,-1]","[0.09899699569024308,0.022042542178835105]","[1,1,1]","[0.10261406259611577,0.07305767588275879]","[-1,-1,-1]","[0.02,0.02]",112.963,0,17,17,57,1,,,,,,,
,,,,,,,5c28feff5ffcb7000128a541,682f0fc0793db9cd423e2bf8,2025-05-22_07h51.59.742,cuing_paradigm_dot,2024.1.5,Win32,144.092219,682d573fa47f1360d1451895,,,,,,,,,,,112.964,113.463,,,113.712,114.018,left,0.299,,,,,,,,,0.9,,,,,,113.463,113.712,114.019,"[-0.07201421227813011,-0.12567747411216515]","[1,1,1]","[-0.12575969275167784,0.004488142748049027]","[1,1,1]","[-0.13509645778097887,-0.12847428994167698]","[1,1,1]","[0.10887136446955695,0.09711740418587372]","[1,1,1]","[0.18999628401374305,0.055155128184138036]","[1,1,1]","[0.13597528722194027,-0.10876927570943551]","[1,1,1]","[0.06883930654813544,-0.00817685317382725]","[1,1,1]","[-0.023640594690626314,-0.017069044168623714]","[1,1,1]","[-0.10466492433313786,-0.06974391705343538]","[1,1,1]","[0.021728330626709414,0.017086878780496414]","[1,1,1]","[-0.11085418703748466,0.09235988010506858]","[1,1,1]","[0.07879659384421576,-0.1284425326914721]","[1,1,1]","[-0.18031113998914808,0.02641841581371458]","[1,1,1]","[0.12422913327182375,0.02952017727377444]","[1,1,1]","[0.000882378884697778,0.1260720563804496]","[1,1,1]","[0.19078651226240045,-0.009331975995225289]","[1,1,1]","[-0.1846369071373165,-0.021914077744890032]","[1,1,1]","[-0.0018536887430043788,-0.07656226547554101]","[1,1,1]","[0.037930563557772586,-0.10256211289787402]","[1,1,1]","[-0.09200886389913465,0.16398185295130957]","[1,1,1]","[-0.01615504134636536,0.07831675734736836]","[1,1,1]","[-0.15542674581289057,0.09481451312427634]","[1,1,1]","[-0.004159345830303953,-0.14568557185657677]","[1,1,1]","[0.13513305867790637,-0.03665584154731436]","[-1,-1,-1]","[0.0520449166882315,-0.1653595506902326]","[1,1,1]","[0.04314318587294285,0.07393360359428669]","[-1,-1,-1]","[-0.16107836997241326,-0.060708451329707154]","[1,1,1]","[0.14637084696096603,0.1137576491692179]","[-1,-1,-1]","[0.09214935659071287,-0.0512517290180476]","[1,1,1]","[-0.06434489191466061,0.11913941827854463]","[1,1,1]","[-0.07963920968521805,0.001641237223736409]","[1,1,1]","[0.06337673856233209,0.17191880030251633]","[1,1,1]","[0.02,0.02]",115.115,0,18,18,193,1,,,,,,,
,,,,,,,5c28feff5ffcb7000128a541,682f0fc0793db9cd423e2bf8,2025-05-22_07h51.59.742,cuing_paradigm_dot,2024.1.5,Win32,144.092219,682d573fa47f1360d1451895,,,,,,,,,,,115.115,115.615,,,115.865,116.282,left,0.41,,,,,,,,,0.6,,,,,,115.615,115.865,116.282,"[-0.12646584037783334,-0.15151358062889467]","[1,1,1]","[-0.17468420980503205,-0.05196735404381844]","[1,1,1]","[-0.06217929515147505,0.17938486308532295]","[1,1,1]","[0.1316262743473279,0.02350994630889762]","[1,1,1]","[-0.0018949873585427954,-0.16464922118804123]","[-1,-1,-1]","[-0.19698378325842927,-0.0010838083818520132]","[-1,-1,-1]","[0.18877337414325332,-0.007337311821262194]","[1,1,1]","[-0.013169728642074822,-0.1202966474032169]","[-1,-1,-1]","[-0.03947210961806515,-0.0014058474867281634]","[1,1,1]","[0.07888360911326303,0.0272481334361104]","[-1,-1,-1]","[0.18570140523203818,0.07038076256580611]","[-1,-1,-1]","[-0.1388334341114421,0.04955869726586363]","[1,1,1]","[0.05946294959493288,-0.06614566525441382]","[1,1,1]","[-0.10722543339891619,0.14119180795745517]","[-1,-1,-1]","[0.10865511635089821,-0.13479188156231106]","[1,1,1]","[0.046969252926365244,0.08915972356556734]","[1,1,1]","[0.04097408759584792,-0.15505964751526022]","[1,1,1]","[-0.06247184985065254,-0.039735923883010636]","[1,1,1]","[-0.04079463992076414,-0.1805107462138005]","[1,1,1]","[0.13288207736807323,-0.025610734768039715]","[-1,-1,-1]","[0.10177913466791275,-0.054787875236102825]","[1,1,1]","[0.1455999650194527,0.08423498115167595]","[1,1,1]","[0.11306271469586367,0.11453449757512268]","[-1,-1,-1]","[0.14793086713773454,-0.07258421462569735]","[-1,-1,-1]","[-0.08563731965352038,-0.17682096653253518]","[-1,-1,-1]","[-0.004456866627729861,-0.040389947677585906]","[1,1,1]","[-0.05041862346976859,0.037310140351472704]","[1,1,1]","[-0.14651850423532858,-0.02243523666025234]","[1,1,1]","[0.059524734504651254,0.1401417512831863]","[-1,-1,-1]","[-0.0003086897419278031,0.08226142892694276]","[1,1,1]","[0.15698040002291255,0.12349375575601787]","[-1,-1,-1]","[-0.07297781144293322,0.08692371394990082]","[-1,-1,-1]","[0.02,0.02]",117.38,0,19,19,179,1,,,,,,,
,,,,,,,5c28feff5ffcb7000128a541,682f0fc0793db9cd423e2bf8,2025-05-22_07h51.59.742,cuing_paradigm_dot,2024.1.5,Win32,144.092219,682d573fa47f1360d1451895,,,,,,,,,,,117.38,117.88,,,118.13,118.553,right,0.417,,,,,,,,,0.5,,,,,,117.88,118.129,118.553,"[-0.1411782829591534,0.06991225815667614]","[-1,-1,-1]","[0.12488427873627775,0.12184663705057601]","[-1,-1,-1]","[0.04292847052062746,0.11572500722391114]","[1,1,1]","[-0.11091779485795622,-0.12356423007687131]","[-1,-1,-1]","[0.019594366020547673,0.06845472039491828]","[-1,-1,-1]","[0.1304605425751107,-0.07189978945682407]","[1,1,1]","[0.12702059564671161,0.07707943751732842]","[-1,-1,-1]","[-0.15570965475940968,-0.055422052453456154]","[-1,-1,-1]","[0.044727859638003374,0.1746201199355497]","[1,1,1]","[-0.16410368281043447,-0.014334686951003817]","[1,1,1]","[0.12621245521007513,-0.1493047917265244]","[1,1,1]","[-0.030938198131300648,0.06293585753290365]","[-1,-1,-1]","[0.019654152345872443,-0.1669635857556802]","[1,1,1]","[0.08136293024631604,0.07641261051796071]","[1,1,1]","[-0.04603142849963889,0.1428033353274632]","[-1,-1,-1]","[-0.0982155821865472,0.025976435333093743]","[1,1,1]","[0.06867589593095781,0.025902733379628007]","[-1,-1,-1]","[0.19256666943984102,0.05184229641302189]","[-1,-1,-1]","[-0.08181560098879723,0.16092932017051773]","[-1,-1,-1]","[0.108007618573293,-0.01673153342814407]","[1,1,1]","[-0.18186921970810033,0.06478417935526853]","[1,1,1]","[-0.08359413935631145,-0.049846612029663576]","[1,1,1]","[-0.06055303635125926,-0.18077557550959536]","[-1,-1,-1]","[0.013882960961781973,0.016382149987234574]","[-1,-1,-1]","[-0.03923632685900038,-0.07415484915086806]","[-1,-1,-1]","[-0.020792816565241658,-0.12643757619720092]","[1,1,1]","[0.022815585217514252,-0.0684548712964414]","[-1,-1,-1]","[0.16538083581785074,-0.03316410966050527]","[1,1,1]","[0.0049926452415563136,0.1534663136198284]","[1,1,1]","[0.09850689558598916,0.16660461872473753]","[1,1,1]","[0.00045162466580811635,0.1950025850582312]","[-1,-1,-1]","[0.0831053997190941,-0.10658208862631992]","[1,1,1]","[0.02,0.02]",119.651,0,20,20,107,1,,,,,,,
,,,,,,,5c28feff5ffcb7000128a541,682f0fc0793db9cd423e2bf8,2025-05-22_07h51.59.742,cuing_paradigm_dot,2024.1.5,Win32,144.092219,682d573fa47f1360d1451895,,,,,,,,,,,119.651,120.151,,,120.401,120.97,left,0.563,,,,,,,,,0.9,,,,,,120.151,120.401,120.97,"[-0.027901752429321667,-0.01560640897385725]","[1,1,1]","[-0.01974388046484178,-0.12218666552604279]","[1,1,1]","[0.13316171367973006,-0.14065129603274013]","[1,1,1]","[-0.17585207564492125,0.023229718084031927]","[1,1,1]","[0.006674315266273837,-0.1676974471508992]","[1,1,1]","[0.027551368873195186,-0.07226016343065043]","[1,1,1]","[0.19893991990363333,-0.019869034929366352]","[1,1,1]","[-0.08174336718471022,0.05936003566146542]","[1,1,1]","[0.12536251594285788,-0.025669939466367003]","[1,1,1]","[0.13717249244659596,0.11025178224456592]","[1,1,1]","[0.04350300905804011,-0.031928547211830624]","[1,1,1]","[0.126259754743716,-0.0936360966466799]","[1,1,1]","[-0.07552682906187137,-0.09409738070660668]","[1,1,1]","[-0.15653393011230796,-0.09506185147178223]","[-1,-1,-1]","[0.04442306141345648,0.08698702314529022]","[1,1,1]","[0.032854973304193034,0.0070775221548594015]","[1,1,1]","[0.15139563010021045,0.02983639297494616]","[1,1,1]","[-0.09883143864690744,-0.13545078419764964]","[1,1,1]","[-0.06584022349823558,0.15011470377770203]","[1,1,1]","[0.08341966104039966,-0.013431388584273587]","[1,1,1]","[-0.10395198398666591,0.1204290351177474]","[-1,-1,-1]","[-0.024188712936898015,0.06918689648069117]","[1,1,1]","[0.0442186592442601,0.13023139942662795]","[1,1,1]","[-0.17299250575279396,-0.04340772072623495]","[1,1,1]","[0.17301055638534,-0.05971705488114765]","[1,1,1]","[0.0792550976957079,0.1588957081412005]","[1,1,1]","[-0.13223199893214685,0.0023084274847693623]","[1,1,1]","[-0.16813503255330697,0.10013976636564334]","[1,1,1]","[0.06639051594579894,-0.10862870409829163]","[1,1,1]","[0.003536010902222121,0.13961963675661798]","[-1,-1,-1]","[-0.017952474285983518,0.1872916444418231]","[1,1,1]","[0.07615171081872468,-0.1528686049542393]","[1,1,1]","[0.02,0.02]",122.068,0,21,21,205,1,,,,,,,
,,,,,,,5c28feff5ffcb7000128a541,682f0fc0793db9cd423e2bf8,2025-05-22_07h51.59.742,cuing_paradigm_dot,2024.1.5,Win32,144.092219,682d573fa47f1360d1451895,,,,,,,,,,,122.068,122.568,,,122.818,123.151,left,0.329,,,,,,,,,0.9,,,,,,122.568,122.818,123.151,"[-0.03860544588362098,-0.18052691595494177]","[1,1,1]","[-0.17848688770308796,-0.06477022168000479]","[1,1,1]","[0.09262432039281418,-0.0963984273457163]","[1,1,1]","[-0.05276991030796102,-0.020924480276567233]","[1,1,1]","[-0.14087853442392445,0.13341686468693803]","[1,1,1]","[-0.0898704352192443,-0.11443334987497467]","[1,1,1]","[-0.001456917119123264,0.15730443340366723]","[1,1,1]","[-0.13437100706518423,0.04335575879693739]","[1,1,1]","[-0.0955645566514542,-0.15738721785542414]","[1,1,1]","[-0.08311124155052393,0.12188101342984142]","[-1,-1,-1]","[0.1193071535128775,0.05937679031292534]","[-1,-1,-1]","[0.14361066276668383,-0.056890477508268936]","[1,1,1]","[-0.032029949945999676,-0.07418427889239852]","[1,1,1]","[0.07068390883644549,0.10027657899001981]","[1,1,1]","[0.19373338058448233,0.013781917916884252]","[1,1,1]","[-0.011170387992149016,0.004269953318585655]","[1,1,1]","[0.05565115554035566,0.17060985520825675]","[1,1,1]","[0.07645332469559143,-0.05290227079892416]","[1,1,1]","[0.10850177567217721,-0.020008101533413432]","[1,1,1]","[0.03653378939798828,0.013555995888817597]","[1,1,1]","[0.04073899223494402,0.12750547642025287]","[1,1,1]","[-0.010886275557651278,-0.14301181788464032]","[1,1,1]","[-0.18861171501196008,0.0032514025630130685]","[-1,-1,-1]","[0.0324248899820619,-0.09160736753065701]","[1,1,1]","[-0.130289568090313,-0.013627451348084832]","[1,1,1]","[0.11148303416634193,-0.16201639020225506]","[1,1,1]","[-0.04527389354875074,0.16251770278067387]","[1,1,1]","[-0.17255181693886154,0.08486990735344505]","[1,1,1]","[-0.0803939318445405,-0.05782591507923915]","[1,1,1]","[0.07153958732270503,-0.17635997973521755]","[1,1,1]","[0.07476059355797655,0.0444733373725478]","[1,1,1]","[-0.06584157778943223,0.04112374118128138]","[1,1,1]","[0.02,0.02]",124.249,0,22,22,202,1,,,,,,,
,,,,,,,5c28feff5ffcb7000128a541,682f0fc0793db9cd423e2bf8,2025-05-22_07h51.59.742,cuing_paradigm_dot,2024.1.5,Win32,144.092219,682d573fa47f1360d1451895,,,,,,,,,,,124.249,124.749,,,124.999,125.242,right,0.236,,,,,,,,,0.1,,,,,,124.749,124.999,125.242,"[-0.04917222661281861,-0.1455778815759879]","[-1,-1,-1]","[-0.12879080917964453,-0.1445170331262531]","[-1,-1,-1]","[-0.052281752300764546,0.1511474807284975]","[1,1,1]","[0.12322663260641598,-0.09799123655685885]","[-1,-1,-1]","[-0.17282419447523104,0.061463213883744754]","[-1,-1,-1]","[0.0730673498492146,-0.06479250299554254]","[-1,-1,-1]","[-0.08679541700339628,0.06422030796733852]","[-1,-1,-1]","[0.1532340622201404,-0.024864005556935794]","[-1,-1,-1]","[-0.12008645134891217,-0.05857050127519967]","[-1,-1,-1]","[0.1804801291080001,0.005178759451373915]","[-1,-1,-1]","[-0.06416135491972913,0.10158384385591165]","[-1,-1,-1]","[0.06117379617034635,0.0766140281337054]","[-1,-1,-1]","[0.10336119963938505,0.07186941581554765]","[-1,-1,-1]","[0.02885673576125217,0.04941102772365826]","[-1,-1,-1]","[0.1937521906796933,0.04844777220102288]","[-1,-1,-1]","[-0.1780634510059334,-0.030832850648190517]","[-1,-1,-1]","[0.05718767008963352,-0.13363011680231282]","[-1,-1,-1]","[-0.07966201313375168,-0.08594309667703567]","[-1,-1,-1]","[0.005620085887721018,-0.11293462192317563]","[-1,-1,-1]","[-0.14651434729786803,0.09383476733767673]","[-1,-1,-1]","[0.09309519428711666,0.1356806655615798]","[-1,-1,-1]","[-0.16368442604798983,-0.1028022006619819]","[1,1,1]","[0.01034640611281971,0.12200030210433432]","[1,1,1]","[-0.00933533180486744,-0.16971208764531512]","[-1,-1,-1]","[-0.04590774575572971,0.029602343205365724]","[-1,-1,-1]","[0.14429637537647705,0.04296310392999739]","[-1,-1,-1]","[-0.005729559000356006,-0.016218686689535404]","[-1,-1,-1]","[0.013116572468365074,-0.05310655586015511]","[-1,-1,-1]","[0.01292939163526714,0.17760738623164443]","[-1,-1,-1]","[0.10307422199653685,-0.14114847042999806]","[-1,-1,-1]","[-0.11229578031349037,0.1300461523281179]","[-1,-1,-1]","[-0.12772090428187605,0.01013484963298723]","[-1,-1,-1]","[0.02,0.02]",126.34,0,23,23,10,1,,,,,,,
,,,,,,,5c28feff5ffcb7000128a541,682f0fc0793db9cd423e2bf8,2025-05-22_07h51.59.742,cuing_paradigm_dot,2024.1.5,Win32,144.092219,682d573fa47f1360d1451895,,,,,,,,,,,126.34,126.84,,,127.09,127.645,right,0.554,,,,,,,,,0.1,,,,,,126.84,127.09,127.645,"[0.0038132994788880005,0.16823522212045594]","[-1,-1,-1]","[-0.0467615712102938,-0.1107736166332097]","[-1,-1,-1]","[0.18986081687879486,-0.03864169255814275]","[-1,-1,-1]","[0.12884503208232456,0.018181292643016395]","[-1,-1,-1]","[0.08208830131108408,-0.08107365571229151]","[-1,-1,-1]","[-0.08626395596870287,0.10300550162397648]","[-1,-1,-1]","[0.05036419232778702,-0.1286802845231123]","[1,1,1]","[-0.0914218780689727,0.003283292249704514]","[-1,-1,-1]","[-0.09995485469088718,-0.06587049791322984]","[-1,-1,-1]","[0.06794193029982715,0.0797125981837667]","[-1,-1,-1]","[-0.1027387337037591,0.14285881339114065]","[-1,-1,-1]","[0.0055274375978919335,-0.16098595106989216]","[-1,-1,-1]","[-0.026306635649116946,0.08968941791666953]","[-1,-1,-1]","[-0.10172691881597089,-0.16608021891880753]","[-1,-1,-1]","[0.019200788068004307,-0.023330759573022147]","[-1,-1,-1]","[0.08072114378574374,0.017854624837481698]","[-1,-1,-1]","[0.122608863759542,-0.08725938018359367]","[-1,-1,-1]","[0.11260683074873115,-0.02916767369352718]","[-1,-1,-1]","[-0.13572064893502456,0.03309796185181966]","[-1,-1,-1]","[0.02885133865351737,-0.09038189905062166]","[-1,-1,-1]","[-0.03933657837123363,-0.028939962081938074]","[-1,-1,-1]","[-0.059235068959138465,0.03503219530101521]","[-1,-1,-1]","[-0.1374621245552591,-0.09647736987870233]","[-1,-1,-1]","[-0.17026043210720967,-0.05522051808979834]","[-1,-1,-1]","[0.009406845258993376,0.05670755376182141]","[-1,-1,-1]","[0.14472161152667767,0.0985331085435679]","[1,1,1]","[0.025355599609870886,0.1263804857235828]","[-1,-1,-1]","[-0.004286567736909305,-0.05824272495446004]","[-1,-1,-1]","[0.07044352117394564,0.16513742408380003]","[-1,-1,-1]","[0.10704072939240762,0.1283259821078342]","[1,1,1]","[0.06809856968326693,-0.17147682307294604]","[-1,-1,-1]","[0.09895552900115004,-0.12976861951489602]","[-1,-1,-1]","[0.02,0.02]",128.743,0,24,24,5,1,,,,,,,
,,,,,,,5c28feff5ffcb7000128a541,682f0fc0793db9cd423e2bf8,2025-05-22_07h51.59.742,cuing_paradigm_dot,2024.1.5,Win32,144.092219,682d573fa47f1360d1451895,,,,,,,,,,,128.743,129.243,,,129.493,130.055,right,0.559,,,,,,,,,0.55,,,,,,129.243,129.493,130.055,"[0.004622292788470949,-0.03715647970265056]","[-1,-1,-1]","[0.17262862610981156,0.08048622912936819]","[1,1,1]","[0.028194735051999098,-0.19332980791122495]","[-1,-1,-1]","[-0.1100334766483542,-0.07020098856066688]","[1,1,1]","[0.10814332205991026,0.1666919776625198]","[1,1,1]","[0.10374344911482795,0.10185105625933583]","[-1,-1,-1]","[0.00799187735824205,0.16018764797813975]","[-1,-1,-1]","[-0.10158524148604524,0.09159335762820622]","[-1,-1,-1]","[0.06439865727036621,0.08236153847607065]","[1,1,1]","[0.11628951586331387,-0.08949887435294436]","[1,1,1]","[0.04248643992617825,0.024745773937459442]","[-1,-1,-1]","[-0.18669666206381597,0.00829059305768942]","[1,1,1]","[-0.02897934122555608,0.17553569521340193]","[1,1,1]","[0.09970084547494952,-0.0522076229088585]","[1,1,1]","[-0.07057117749371444,-0.05521714431684504]","[-1,-1,-1]","[-0.15294664962676713,0.1276888998636395]","[1,1,1]","[0.09975470752450169,0.037057195479792616]","[-1,-1,-1]","[0.05941915871879993,-0.11731134046314531]","[1,1,1]","[-0.027777682650240866,-0.17117873847296897]","[-1,-1,-1]","[0.17596976296453323,-0.08903874216051114]","[1,1,1]","[-0.0341170909815883,-0.1312475689633055]","[-1,-1,-1]","[0.012031447577966935,-0.13513195308110945]","[-1,-1,-1]","[0.1477717896379749,-0.047289114271938645]","[1,1,1]","[-0.1444325023298093,-0.11830950071569875]","[1,1,1]","[-0.0793998327136274,-0.12159895959533844]","[1,1,1]","[-0.014752964043666779,-0.08742555424658902]","[1,1,1]","[-0.020141035691299047,0.01979909891954296]","[1,1,1]","[0.039007499212712,0.1940725062413781]","[1,1,1]","[0.035226400733047496,-0.06942185785971904]","[-1,-1,-1]","[-0.04406205579544941,0.10340586971146751]","[-1,-1,-1]","[-0.04818151005607242,0.059502707346763134]","[-1,-1,-1]","[-0.07350633836816665,0.008843604428276329]","[1,1,1]","[0.02,0.02]",131.153,0,25,25,146,1,,,,,,,
,,,,,,,5c28feff5ffcb7000128a541,682f0fc0793db9cd423e2bf8,2025-05-22_07h51.59.742,cuing_paradigm_dot,2024.1.5,Win32,144.092219,682d573fa47f1360d1451895,,,,,,,,,,,131.153,131.653,,,131.903,132.514,left,0.605,,,,,,,,,0.55,,,,,,131.653,131.903,132.514,"[-0.17243757509625413,0.0411568098987829]","[-1,-1,-1]","[0.09407549511973838,-0.08090955201313962]","[-1,-1,-1]","[0.03926232560893206,-0.023124014235243864]","[1,1,1]","[-0.05754052830580784,-0.0149898741380405]","[1,1,1]","[0.029819702298196492,0.056554144666988056]","[-1,-1,-1]","[-0.0016964045745686022,0.02421410488981013]","[1,1,1]","[-0.1314498494607634,0.03685700922403653]","[1,1,1]","[-0.10616662872613532,-0.09945475257633658]","[-1,-1,-1]","[-0.0640581299537418,-0.13685172968068682]","[-1,-1,-1]","[-0.09167546017073856,0.024701787023552062]","[1,1,1]","[0.041511909894228254,0.09560354182808178]","[1,1,1]","[-0.0137676516505523,0.13901114459204736]","[-1,-1,-1]","[-0.07791772922468036,0.10518409916077526]","[-1,-1,-1]","[0.11476300112432157,-0.14213173862367354]","[-1,-1,-1]","[-0.13870550876173765,-0.13975892321964473]","[1,1,1]","[-0.048126563549938835,0.06693105073240828]","[-1,-1,-1]","[0.14546409035420094,0.08300211018039058]","[1,1,1]","[-0.17399883307691988,-0.039892955054758455]","[1,1,1]","[0.1761918051596518,0.02336944058472761]","[1,1,1]","[0.13641044534941274,-0.07090429812758882]","[1,1,1]","[0.13701527444346423,-0.014433426511227575]","[1,1,1]","[-0.14897746685726676,-0.08981723497611079]","[-1,-1,-1]","[-0.17086762045637469,0.10273716225676634]","[1,1,1]","[-0.037142601973251664,0.17622696498064574]","[1,1,1]","[0.09240856239559106,0.035043091782706676]","[-1,-1,-1]","[0.023421157502582477,-0.08710485082868236]","[1,1,1]","[0.03681331857591032,0.16268659552891565]","[1,1,1]","[-0.03586079131066601,-0.05426184527082571]","[1,1,1]","[0.03644099110470105,-0.14800728595860074]","[-1,-1,-1]","[-0.09713920703579468,0.15810183221802454]","[-1,-1,-1]","[-0.006067017932989082,-0.14643995934979573]","[-1,-1,-1]","[0.09833783656369258,0.1345997678970533]","[1,1,1]","[0.02,0.02]",133.611,0,26,26,120,1,,,,,,,
,,,,,,,5c28feff5ffcb7000128a541,682f0fc0793db9cd423e2bf8,2025-05-22_07h51.59.742,cuing_paradigm_dot,2024.1.5,Win32,144.092219,682d573fa47f1360d1451895,,,,,,,,,,,133.612,134.111,,,134.362,134.716,right,0.347,,,,,,,,,0.45,,,,,,134.112,134.361,134.716,"[-0.09984096739452772,0.025681631196818662]","[-1,-1,-1]","[-0.04816581016105261,-0.10940834348645984]","[-1,-1,-1]","[0.030524402786846677,-0.027043774504881702]","[-1,-1,-1]","[-0.012712445973888212,0.027410895400587304]","[-1,-1,-1]","[0.15504333740657525,-0.02049247320474937]","[1,1,1]","[-0.0018417650652962259,-0.06636079989025229]","[1,1,1]","[0.04129452183900071,-0.16848498373934212]","[-1,-1,-1]","[0.009024608056936842,0.15081241174065027]","[-1,-1,-1]","[0.16723511728757348,0.06982017947495706]","[1,1,1]","[-0.16688239999146615,0.10604192659091226]","[-1,-1,-1]","[0.07937175063718423,-0.03828049103002298]","[1,1,1]","[-0.17797801381663492,-0.07435254014522312]","[-1,-1,-1]","[0.08092029973957703,-0.09095128225932911]","[-1,-1,-1]","[0.06015533304785518,0.02441102635092829]","[-1,-1,-1]","[0.0386504338691524,-0.1157651896347]","[-1,-1,-1]","[0.09450417961890524,0.1396729109704254]","[-1,-1,-1]","[-0.09662404568596356,0.10669836232086974]","[-1,-1,-1]","[-0.11065571665326347,-0.10114971247816157]","[-1,-1,-1]","[0.17770889639075654,0.029159887121864708]","[1,1,1]","[-0.07971459847952046,0.1547240424491587]","[-1,-1,-1]","[0.15018582980919348,-0.06506279753504703]","[1,1,1]","[-0.1603654040595224,-0.11795864901429383]","[1,1,1]","[0.12207956774694821,0.044497014027242134]","[1,1,1]","[-0.0052867722769075415,-0.18887793193266264]","[-1,-1,-1]","[-0.078247442673255,-0.011741872309111305]","[1,1,1]","[-0.02380188130269494,-0.02046159556672659]","[-1,-1,-1]","[-0.09888209660553275,-0.056096560356059255]","[1,1,1]","[-0.03533533877128515,0.13175534935386987]","[-1,-1,-1]","[0.012783321972313057,0.06742424038551513]","[1,1,1]","[0.029315258562120212,0.19449192654018585]","[1,1,1]","[-0.11347652524219581,-0.1639501549764647]","[1,1,1]","[-0.05353919250962342,0.05474090867965352]","[1,1,1]","[0.02,0.02]",135.813,0,27,27,88,1,,,,,,,
,,,,,,,5c28feff5ffcb7000128a541,682f0fc0793db9cd423e2bf8,2025-05-22_07h51.59.742,cuing_paradigm_dot,2024.1.5,Win32,144.092219,682d573fa47f1360d1451895,,,,,,,,,,,135.813,136.313,,,136.563,136.911,right,0.344,,,,,,,,,0.45,,,,,,136.313,136.563,136.911,"[-0.12659779415610808,0.14627595265796642]","[1,1,1]","[-0.19976010586348997,-0.007054326188558088]","[1,1,1]","[0.0007070388130663331,-0.03901229681643025]","[-1,-1,-1]","[0.027013325864606065,-0.11698193483832378]","[-1,-1,-1]","[0.03574511199436288,0.07694477991053184]","[1,1,1]","[-0.07341942095372148,-0.12050911116797967]","[-1,-1,-1]","[-0.18175167553888663,-0.07466488806624019]","[-1,-1,-1]","[-0.10009950953191357,0.09633842428701853]","[-1,-1,-1]","[-0.046294398333521856,-0.16954481387439135]","[1,1,1]","[0.08157125293011144,0.07311999532141532]","[-1,-1,-1]","[-0.0756601601923069,0.006945181464773876]","[-1,-1,-1]","[0.14917269885771262,-0.0727681315661199]","[1,1,1]","[-0.11377019691392289,-0.10914521141841785]","[1,1,1]","[-0.08173708865676833,0.1821942942298331]","[-1,-1,-1]","[0.017419248364959186,0.129566099455757]","[-1,-1,-1]","[-0.07551694683863018,-0.0534539170397076]","[-1,-1,-1]","[0.17457176755166862,0.08223441743162893]","[1,1,1]","[0.13591889321268627,0.14459913238907574]","[1,1,1]","[-0.12817344397921604,-0.03380093312323854]","[1,1,1]","[0.14115539536216945,0.054427524654085686]","[1,1,1]","[-0.15215882289317473,-0.1264490803642825]","[-1,-1,-1]","[0.07980698160228389,0.1625472700647089]","[1,1,1]","[-0.14438238397825856,0.0758472190285858]","[1,1,1]","[0.14515287576202915,-0.13129100599516558]","[-1,-1,-1]","[0.004985839123231526,-0.16227714278141298]","[-1,-1,-1]","[0.10570165603025171,-0.11209554561373142]","[-1,-1,-1]","[-0.15192045196170903,0.012446264586870592]","[-1,-1,-1]","[-0.021548189955194634,0.0813550280888159]","[-1,-1,-1]","[-0.038810975971130854,0.1587729767685864]","[-1,-1,-1]","[0.03279323774740188,0.18857725224655075]","[-1,-1,-1]","[0.026720259988550613,-0.0006904668030129877]","[1,1,1]","[-0.02153096171265899,0.0003768794043147911]","[1,1,1]","[0.02,0.02]",138.008,0,28,28,68,1,,,,,,,
,,,,,,,5c28feff5ffcb7000128a541,682f0fc0793db9cd423e2bf8,2025-05-22_07h51.59.742,cuing_paradigm_dot,2024.1.5,Win32,144.092219,682d573fa47f1360d1451895,,,,,,,,,,,138.008,138.508,,,138.758,139.237,right,0.478,,,,,,,,,0.45,,,,,,138.508,138.758,139.237,"[0.022563752578180746,-0.11440839567622343]","[-1,-1,-1]","[-0.1317037436814024,0.0014238359544838238]","[1,1,1]","[-0.03268523798261708,0.01646007521305329]","[-1,-1,-1]","[-0.07038056893542301,0.135957525783578]","[1,1,1]","[-0.12128930069891182,0.14744805425828839]","[-1,-1,-1]","[0.04921061070460122,-0.033204331082752794]","[-1,-1,-1]","[0.05998358458019086,0.027405408395530656]","[-1,-1,-1]","[-0.1031837643934432,-0.05513296430066527]","[1,1,1]","[0.06862268702891385,0.10866603565978572]","[-1,-1,-1]","[-0.004543628730829858,0.19990605993747776]","[-1,-1,-1]","[-0.060612055565459386,-0.15384709389435205]","[-1,-1,-1]","[-0.08917053546436235,0.005176007904340622]","[1,1,1]","[0.050036915332963984,0.14611374631356863]","[1,1,1]","[0.012496825301158771,0.10933147239325836]","[-1,-1,-1]","[-0.16875582854360047,-0.07096872463217939]","[1,1,1]","[0.1208431990087106,0.15400061334243836]","[1,1,1]","[0.03417538655091951,-0.1565564243127382]","[-1,-1,-1]","[-0.0010160928433216108,0.04285105783343038]","[-1,-1,-1]","[0.142707062277189,0.0427310482150279]","[1,1,1]","[-0.18751814660444963,0.06018573421319571]","[-1,-1,-1]","[-0.0739825072254834,-0.09676076523952284]","[1,1,1]","[-0.15337847554297163,0.09117962312340083]","[1,1,1]","[-0.11097325437100616,0.04582096656348974]","[-1,-1,-1]","[-0.02482391010324672,-0.18373558978076776]","[-1,-1,-1]","[0.06365562185955977,-0.10849745543893588]","[-1,-1,-1]","[-0.04349231648173629,-0.038190325242594504]","[1,1,1]","[0.1766429283934646,0.017479138719677212]","[1,1,1]","[0.1014399847393215,0.06959023020574848]","[-1,-1,-1]","[-0.019457379495455496,0.1534424396116408]","[1,1,1]","[0.12503097194044957,-0.14660590679830468]","[1,1,1]","[0.16124977426123863,-0.09863995793124751]","[-1,-1,-1]","[-0.04593406922747292,0.18788583222555189]","[-1,-1,-1]","[0.02,0.02]",140.335,0,29,29,83,1,,,,,,,
,,,,,,,5c28feff5ffcb7000128a541,682f0fc0793db9cd423e2bf8,2025-05-22_07h51.59.742,cuing_paradigm_dot,2024.1.5,Win32,144.092219,682d573fa47f1360d1451895,,,,,,,,,,,140.335,140.835,,,141.085,141.557,left,0.471,,,,,,,,,0.55,,,,,,140.835,141.085,141.557,"[0.06011544198246512,0.1294860642115679]","[1,1,1]","[-0.07757313580516093,0.12386559249914587]","[-1,-1,-1]","[0.11784680910336512,-0.15522469795008687]","[-1,-1,-1]","[-0.025991127248081867,0.12370486030923757]","[1,1,1]","[0.11069620094493486,-0.09978659379491026]","[1,1,1]","[0.13768874396426006,0.034343106472944494]","[1,1,1]","[0.11095749960588257,0.09432624417076378]","[1,1,1]","[-0.07349328783951364,-0.10802201743575267]","[-1,-1,-1]","[0.16516715839146232,-0.09202635370254483]","[1,1,1]","[-0.05728909619800451,0.01627092206549551]","[1,1,1]","[0.17515847603189363,0.07304423395369546]","[1,1,1]","[-0.09217202328301427,-0.05862864659522731]","[-1,-1,-1]","[-0.17860251807417418,-0.006082835922240444]","[-1,-1,-1]","[-0.13164523363224823,-0.10391681572140851]","[1,1,1]","[0.08716166559782523,-0.023721680030222243]","[1,1,1]","[0.012517562615323254,-0.15535287806532994]","[-1,-1,-1]","[-0.0050985177312395415,0.007115595700230099]","[-1,-1,-1]","[-0.10226223595852799,0.1675290933874553]","[-1,-1,-1]","[-0.18839795455339764,0.040863831005273236]","[1,1,1]","[-0.018363391665154816,0.1825683998956506]","[1,1,1]","[-0.05708798582866738,-0.1858307152919862]","[-1,-1,-1]","[0.12217056664459021,0.1563747396701534]","[1,1,1]","[-0.11873840135228635,0.07550265400170669]","[-1,-1,-1]","[0.17905003977199302,-0.035176807814019544]","[1,1,1]","[0.05777085074122214,-0.12760479401534947]","[1,1,1]","[0.026982520484708818,-0.020461286953800444]","[-1,-1,-1]","[0.13905396685185403,-0.02792179945219526]","[1,1,1]","[-0.0965569113746056,-0.018044821386158105]","[1,1,1]","[-0.08198729261096903,0.05290451504364011]","[1,1,1]","[0.05666467355696014,-0.08534221849246547]","[-1,-1,-1]","[0.01994599059951337,0.13516787402433542]","[-1,-1,-1]","[-0.026962249864202547,0.08004091774756508]","[-1,-1,-1]","[0.02,0.02]",142.654,0,30,30,140,1,,,,,,,
,,,,,,,5c28feff5ffcb7000128a541,682f0fc0793db9cd423e2bf8,2025-05-22_07h51.59.742,cuing_paradigm_dot,2024.1.5,Win32,144.092219,682d573fa47f1360d1451895,,,,,,,,,,,142.654,143.154,,,143.404,143.759,right,0.351,,,,,,,,,0.5,,,,,,143.154,143.404,143.759,"[0.04729559002022927,-0.11776913707874025]","[1,1,1]","[0.0989471174443402,0.14025640026783737]","[-1,-1,-1]","[-0.0908429048627663,-0.08237736668960254]","[-1,-1,-1]","[-0.1749188772863124,0.016325197323569275]","[1,1,1]","[-0.034751632389799246,-0.05700998340848315]","[-1,-1,-1]","[0.10222294418540558,-0.07598757979501077]","[-1,-1,-1]","[0.16779853060166297,0.07996814968089558]","[-1,-1,-1]","[-0.0066673113132358925,0.061746984083856996]","[-1,-1,-1]","[-0.11795493076711223,0.11782237840053512]","[-1,-1,-1]","[0.04643942539352787,0.027570037480432002]","[1,1,1]","[0.16300115645280963,0.026035431630187095]","[-1,-1,-1]","[0.04754593644509576,-0.15864228908087846]","[1,1,1]","[-0.14505871595731373,0.04900122092615821]","[1,1,1]","[-0.026373167072821866,-0.16465377402440917]","[-1,-1,-1]","[-0.16089660433707106,0.08860099401468245]","[-1,-1,-1]","[-0.001294089738801626,-0.027736817034177044]","[-1,-1,-1]","[-0.04067632784537579,0.15346377300497316]","[1,1,1]","[0.16005974797322858,-0.03283333583002432]","[1,1,1]","[-0.0686869903682435,0.009947207351067487]","[-1,-1,-1]","[-0.15027403541569173,-0.10022369386541345]","[1,1,1]","[-0.015229140636943446,-0.0989531634584566]","[1,1,1]","[-0.102969993374726,-0.1432938628757146]","[1,1,1]","[-0.0778303037609588,-0.04142759830564634]","[-1,-1,-1]","[0.0743083827931429,0.09007666995729043]","[-1,-1,-1]","[0.10234975395552803,0.05045997814178869]","[-1,-1,-1]","[0.10702926917126658,-0.03547678076588267]","[1,1,1]","[0.019751399022599724,0.1368517793673787]","[-1,-1,-1]","[0.16020775400906426,-0.10642585216881063]","[1,1,1]","[-0.13241430278208755,-0.05339259198656694]","[1,1,1]","[-0.010667359940746472,0.19119150407713015]","[1,1,1]","[0.12241895568468464,0.09098303071016552]","[1,1,1]","[-0.1815367483243171,-0.037381064937467755]","[1,1,1]","[0.02,0.02]",144.856,0,31,31,115,1,,,,,,,
,,,,,,,5c28feff5ffcb7000128a541,682f0fc0793db9cd423e2bf8,2025-05-22_07h51.59.742,cuing_paradigm_dot,2024.1.5,Win32,144.092219,682d573fa47f1360d1451895,,,,,,,,,,,144.857,145.357,,,145.607,146.28,right,0.669,,,,,,,,,0.5,,,,,,145.357,145.607,146.28,"[0.05755289877372981,0.19016630584607305]","[-1,-1,-1]","[0.06877811450246785,-0.0005533584801377194]","[-1,-1,-1]","[-0.1436561304078712,-0.10545767447606876]","[1,1,1]","[-0.03457579525513684,-0.14468486909123893]","[1,1,1]","[0.006403256318552325,-0.0873753626067768]","[-1,-1,-1]","[0.0014101851762050492,0.10922360165230395]","[-1,-1,-1]","[-0.12967533796894273,0.13154165301915555]","[-1,-1,-1]","[-0.0970332131530954,0.0777542156397883]","[-1,-1,-1]","[0.06018086183794514,-0.0713648348997438]","[-1,-1,-1]","[-0.14749509133250024,0.07746304043148527]","[1,1,1]","[-0.18935747645863507,-0.054663730119624394]","[1,1,1]","[0.12350395607567542,-0.150115278874696]","[1,1,1]","[0.1755303292019215,0.04488708957970727]","[1,1,1]","[-0.10202341510878891,-0.03993434471189155]","[1,1,1]","[-0.07161499167627783,0.15568427572833338]","[-1,-1,-1]","[0.09872635219669822,-0.10514552828652347]","[-1,-1,-1]","[-0.1528481628392973,0.01686434250107606]","[-1,-1,-1]","[0.08143401188475544,0.11362217121385579]","[-1,-1,-1]","[-0.199266435932601,0.008865158115825061]","[-1,-1,-1]","[0.026621936300725502,-0.16666191389871468]","[1,1,1]","[-0.0673214159796006,-0.0928302516239432]","[1,1,1]","[0.09236819116220757,0.06254902418392452]","[1,1,1]","[-0.005345046840700956,-0.020186791534743113]","[-1,-1,-1]","[-0.010792082832032764,-0.19520270623674926]","[1,1,1]","[0.13026073900936075,0.10654096003495304]","[1,1,1]","[0.15717234989747053,-0.048653151843723805]","[1,1,1]","[-0.11178346661030114,-0.08032700521789536]","[-1,-1,-1]","[0.09515754936939258,0.15449785997429077]","[1,1,1]","[0.1403237044293547,-0.003080513526620689]","[-1,-1,-1]","[0.12558641580182803,0.03480134472033685]","[-1,-1,-1]","[0.020080293131283813,0.05865270985766098]","[1,1,1]","[0.14202796106712073,-0.1138565505499306]","[1,1,1]","[0.02,0.02]",147.377,0,32,32,93,1,,,,,,,
,,,,,,,5c28feff5ffcb7000128a541,682f0fc0793db9cd423e2bf8,2025-05-22_07h51.59.742,cuing_paradigm_dot,2024.1.5,Win32,144.092219,682d573fa47f1360d1451895,,,,,,,,,,,147.377,147.878,,,148.128,148.926,right,0.796,,,,,,,,,0.55,,,,,,147.878,148.128,148.926,"[-0.02732185799082521,0.17475185546698058]","[-1,-1,-1]","[0.14198820803980028,0.05495288263248556]","[1,1,1]","[0.0801276028251132,-0.11563508184673428]","[1,1,1]","[0.12026282419758595,0.11352724447147583]","[-1,-1,-1]","[-0.030247433107597428,-0.1899267629160123]","[-1,-1,-1]","[-0.09287840446423838,0.08823994718136575]","[1,1,1]","[-0.1518853396478304,-0.06774454286625718]","[1,1,1]","[0.11959876232692025,-0.09940747049685361]","[1,1,1]","[-0.193170171831426,-0.04323852325131499]","[-1,-1,-1]","[-0.08905306734342931,-0.15371312838223267]","[-1,-1,-1]","[0.16027324169065607,-0.07530923917714581]","[1,1,1]","[-0.0006074749996559756,0.13062304493793614]","[1,1,1]","[-0.06004911977455033,0.13255670480083565]","[1,1,1]","[0.06436843083177181,0.07465055025950407]","[-1,-1,-1]","[-0.0315558316329222,-0.06084707527483725]","[1,1,1]","[-0.0714543962524962,-0.11460170706430213]","[1,1,1]","[-0.14007455682140585,-0.12664502629298827]","[1,1,1]","[-0.017725359852473643,-0.12404762780550435]","[-1,-1,-1]","[-0.020806282404642024,0.05407461920836436]","[-1,-1,-1]","[0.052742167051574806,-0.1883515686845742]","[-1,-1,-1]","[0.12665358089116877,-0.02757278802127148]","[1,1,1]","[-0.025737119542540616,-0.007282089127873658]","[1,1,1]","[-0.11541443707429053,0.0016753354480715282]","[1,1,1]","[-0.09613073416438343,-0.06060756388677155]","[1,1,1]","[0.0531921319780105,0.00843735239143815]","[-1,-1,-1]","[0.03347250606803512,-0.13126171945377468]","[1,1,1]","[0.08846547501422355,0.16001815956330126]","[1,1,1]","[-0.14808654394895931,0.1255280951263947]","[-1,-1,-1]","[0.1972723069022705,-0.0026666559853950446]","[-1,-1,-1]","[0.09558923776897531,-0.17473104351758995]","[-1,-1,-1]","[-0.1973308453740067,0.0017465831238516164]","[-1,-1,-1]","[-0.1557409342535368,-0.00003469603292104599]","[1,1,1]","[0.02,0.02]",150.023,0,33,33,141,1,,,,,,,
,,,,,,,5c28feff5ffcb7000128a541,682f0fc0793db9cd423e2bf8,2025-05-22_07h51.59.742,cuing_paradigm_dot,2024.1.5,Win32,144.092219,682d573fa47f1360d1451895,,,,,,,,,,,150.024,150.524,,,150.774,151.142,right,0.366,,,,,,,,,0.45,,,,,,150.524,150.774,151.142,"[-0.007082223932043733,-0.12406901699330972]","[-1,-1,-1]","[0.1260078577248762,0.07589040696233325]","[-1,-1,-1]","[0.09959824681858166,-0.14362327866676047]","[1,1,1]","[0.046830570370962284,0.04792862591605355]","[1,1,1]","[-0.1532558113249704,0.060411053144629426]","[-1,-1,-1]","[-0.16416199903032877,0.11257439371817161]","[1,1,1]","[0.17652170360251132,-0.021843487875637124]","[1,1,1]","[-0.1345089193246924,0.1402303558742398]","[-1,-1,-1]","[-0.05697465550705492,-0.03746718694245326]","[-1,-1,-1]","[0.06073029333590012,0.10003556767571932]","[-1,-1,-1]","[-0.1862267764580283,-0.006806246487127014]","[-1,-1,-1]","[0.07625857999607155,0.1832087668556224]","[1,1,1]","[-0.13850970865765697,-0.03336518563631081]","[1,1,1]","[-0.07117291151078844,0.019983148631490134]","[1,1,1]","[-0.007354208805064865,0.07235810094593612]","[-1,-1,-1]","[0.05779669796377738,-0.14137429489118353]","[1,1,1]","[0.11981990626571717,0.0033250451014627553]","[-1,-1,-1]","[-0.094154718536352,-0.055652146692480274]","[-1,-1,-1]","[0.1391901960964574,-0.1215200255276782]","[-1,-1,-1]","[0.042253653925828506,0.14661092794018868]","[-1,-1,-1]","[-0.05707041384022565,0.12449595518512793]","[-1,-1,-1]","[0.04118581008243926,-0.04870910165884763]","[1,1,1]","[-0.0559627334152217,0.17469617316130154]","[1,1,1]","[-0.025798577504537415,0.014860632050387679]","[-1,-1,-1]","[-0.05208876562085928,-0.19174255783837163]","[1,1,1]","[-0.07727656216362214,-0.15691844382751874]","[1,1,1]","[-0.10814320968768351,0.10144475755365724]","[-1,-1,-1]","[0.08333862518067588,-0.05035381899916416]","[-1,-1,-1]","[-0.13373810767147004,-0.1087428888174819]","[1,1,1]","[0.12004479246920331,0.1369544898773432]","[1,1,1]","[0.0659842262473846,-0.008236248430425426]","[-1,-1,-1]","[-0.1666253879880562,-0.06437880649572683]","[-1,-1,-1]","[0.02,0.02]",152.24,0,34,34,89,1,,,,,,,
,,,,,,,5c28feff5ffcb7000128a541,682f0fc0793db9cd423e2bf8,2025-05-22_07h51.59.742,cuing_paradigm_dot,2024.1.5,Win32,144.092219,682d573fa47f1360d1451895,,,,,,,,,,,152.24,152.74,,,152.99,153.427,right,0.431,,,,,,,,,0.5,,,,,,152.74,152.99,153.427,"[-0.13978031667471208,0.08462436513703227]","[1,1,1]","[-0.00597483110166364,-0.11336076704417689]","[1,1,1]","[0.10766525321835727,-0.0663235551058426]","[1,1,1]","[0.07573293511493125,0.07562447484211432]","[1,1,1]","[0.10934557059813321,0.014230220341863704]","[1,1,1]","[0.0665668685639108,0.11867909434835815]","[1,1,1]","[-0.08190877937742513,0.05364921584092839]","[-1,-1,-1]","[0.09672954509259978,-0.12348357228497592]","[1,1,1]","[0.029757193157475433,0.07477338259695528]","[-1,-1,-1]","[0.027470254721451384,0.17012368365836306]","[1,1,1]","[0.06486876564276006,-0.06525023450096641]","[1,1,1]","[-0.1410159209596979,-0.0935590153906273]","[1,1,1]","[-0.04370769522835185,-0.008012584462934418]","[1,1,1]","[-0.02608882178011453,0.06367491539853086]","[-1,-1,-1]","[0.10743368781773523,0.16544338938994332]","[-1,-1,-1]","[-0.0941911701247588,0.003720024175426792]","[-1,-1,-1]","[0.17086443063231194,-0.04652856346080375]","[-1,-1,-1]","[0.13423911666290758,0.1225310562816346]","[-1,-1,-1]","[-0.06544753090489687,0.1736037937779126]","[1,1,1]","[0.01376848709607495,-0.1680407794162675]","[-1,-1,-1]","[-0.0584254750194301,-0.16251288091592223]","[1,1,1]","[0.14700967145399446,0.03376824599231408]","[-1,-1,-1]","[0.058381537962561125,0.012498036476858522]","[-1,-1,-1]","[0.009127157309350516,-0.018000349361709835]","[-1,-1,-1]","[-0.0761373581936362,0.09609071036360706]","[-1,-1,-1]","[-0.1810476161172949,-0.05146519975409714]","[-1,-1,-1]","[-0.19479829908036103,0.03058844606000315]","[-1,-1,-1]","[-0.026333875940006107,0.10468622502939011]","[1,1,1]","[0.05094565539771753,-0.1915826289783617]","[1,1,1]","[-0.16597598941094008,-0.0011892719464499516]","[1,1,1]","[0.17368769840796336,0.08780456938160734]","[-1,-1,-1]","[-0.009595567982701227,-0.06990997790196295]","[-1,-1,-1]","[0.02,0.02]",154.524,0,35,35,114,1,,,,,,,
,,,,,,,5c28feff5ffcb7000128a541,682f0fc0793db9cd423e2bf8,2025-05-22_07h51.59.742,cuing_paradigm_dot,2024.1.5,Win32,144.092219,682d573fa47f1360d1451895,,,,,,,,,,,154.525,155.024,,,155.275,155.781,left,0.505,,,,,,,,,0.5,,,,,,155.025,155.275,155.781,"[0.17600263449815753,-0.08284165855790308]","[-1,-1,-1]","[0.05889737849409651,0.12469157024271023]","[-1,-1,-1]","[0.14874437280069316,0.07454853839534556]","[-1,-1,-1]","[-0.09648851879943578,-0.1563469079895981]","[-1,-1,-1]","[0.006960708431074828,0.13326164626308676]","[1,1,1]","[-0.008114738299225079,-0.009797976739282944]","[-1,-1,-1]","[-0.08678102936787412,-0.002205574725398132]","[1,1,1]","[0.05034394101041171,0.028692073471000952]","[1,1,1]","[-0.039869399609651225,-0.14490431247135832]","[1,1,1]","[-0.10588610811012863,0.08241773210568704]","[-1,-1,-1]","[-0.10371877220026629,0.14917629484534511]","[-1,-1,-1]","[-0.16937049014602895,-0.007703191726356627]","[1,1,1]","[-0.046737009347955195,0.05104056131544709]","[-1,-1,-1]","[0.1488614012938208,-0.015208904711753408]","[-1,-1,-1]","[0.09433965115396943,-0.12884281180936089]","[1,1,1]","[-0.14845698009025649,-0.08764282452128579]","[1,1,1]","[-0.1720492453130605,-0.05361046832419182]","[-1,-1,-1]","[-0.07672527041535676,-0.06459989342324364]","[1,1,1]","[0.12935797428510418,-0.08484214948229801]","[1,1,1]","[0.12074375238454395,0.03827316334800657]","[-1,-1,-1]","[0.012189329321666687,-0.11330622512347976]","[1,1,1]","[0.058493563513229804,-0.1774282854687536]","[-1,-1,-1]","[0.04482040594203829,-0.08852271764241243]","[-1,-1,-1]","[-0.05349048449632422,0.16531527701088577]","[1,1,1]","[-0.02635858442155555,-0.08292233005368459]","[1,1,1]","[0.06957910740789831,0.07302417144222195]","[1,1,1]","[0.016943144519138826,-0.05899628944929676]","[1,1,1]","[-0.06923449908281051,0.11063789582120116]","[-1,-1,-1]","[-0.14055723562279954,0.10877157012016817]","[-1,-1,-1]","[0.020062544579478238,-0.15728912505497983]","[1,1,1]","[0.04610634137030722,-0.020947340962523646]","[-1,-1,-1]","[-0.03843899741532153,-0.19491133387676962]","[1,1,1]","[0.02,0.02]",156.879,0,36,36,104,1,,,,,,,
,,,,,,,5c28feff5ffcb7000128a541,682f0fc0793db9cd423e2bf8,2025-05-22_07h51.59.742,cuing_paradigm_dot,2024.1.5,Win32,144.092219,682d573fa47f1360d1451895,,,,,,,,,,,156.88,157.379,,,157.629,157.991,right,0.36,,,,,,,,,0.4,,,,,,157.379,157.629,157.991,"[0.08174276536046789,-0.06301717060468119]","[1,1,1]","[0.1230424836833023,0.125907508243457]","[-1,-1,-1]","[-0.07071540298752056,-0.15198435455682432]","[-1,-1,-1]","[-0.003557577110138862,0.10026692156190109]","[-1,-1,-1]","[0.16691330185676764,0.06652391522874554]","[-1,-1,-1]","[-0.008276610913023048,-0.02468485413460204]","[-1,-1,-1]","[-0.18090212136530126,-0.0667134429384165]","[-1,-1,-1]","[-0.1850737055299773,0.04463767466153431]","[1,1,1]","[-0.10157946627306688,0.0741734442326017]","[1,1,1]","[-0.0073648419770950485,-0.18772877160932785]","[-1,-1,-1]","[-0.16448789380945125,-0.10398916097092412]","[1,1,1]","[0.011478062575309485,0.1956748677914527]","[-1,-1,-1]","[0.06590903946239829,0.1794065301297204]","[1,1,1]","[-0.05910358694474791,-0.08692874213980188]","[1,1,1]","[-0.18362485880570897,-0.02271129419729198]","[1,1,1]","[-0.11372164699965563,0.14042456528823824]","[-1,-1,-1]","[-0.02874277050717256,0.18901046944639122]","[1,1,1]","[0.07965754719275547,-0.16929867612377378]","[1,1,1]","[-0.039744017942934314,0.12111690214680886]","[1,1,1]","[-0.13911632788550676,-0.049095526733916726]","[1,1,1]","[-0.04426514161617165,-0.0050508748483082564]","[-1,-1,-1]","[-0.06448881460754233,0.16251842596564536]","[-1,-1,-1]","[0.1230831509889319,0.027492044824489286]","[1,1,1]","[-0.11774426957127201,-0.15144184521156465]","[-1,-1,-1]","[0.04169100839565351,-0.05658800207426888]","[1,1,1]","[0.03883418840242602,0.08858700851599656]","[-1,-1,-1]","[0.10765854548252346,-0.018200362030763865]","[-1,-1,-1]","[0.06618057324216538,-0.0018186321355708592]","[-1,-1,-1]","[-0.10855017972074572,0.017023880683925924]","[-1,-1,-1]","[0.19751426519942977,-0.025727378929313732]","[-1,-1,-1]","[0.016981851036245794,0.15015296649355184]","[-1,-1,-1]","[-0.001216768175391362,-0.14080861010872717]","[-1,-1,-1]","[0.02,0.02]",159.087,0,37,37,34,1,,,,,,,
,,,,,,,5c28feff5ffcb7000128a541,682f0fc0793db9cd423e2bf8,2025-05-22_07h51.59.742,cuing_paradigm_dot,2024.1.5,Win32,144.092219,682d573fa47f1360d1451895,,,,,,,,,,,159.088,159.588,,,159.838,160.233,right,0.39,,,,,,,,,0.45,,,,,,159.588,159.838,160.233,"[0.040152137008794976,0.14525141414926931]","[-1,-1,-1]","[0.05892782304087118,-0.06253193676894774]","[1,1,1]","[0.15357962171440437,-0.06184207281285915]","[-1,-1,-1]","[-0.1273949657517887,0.04789575182775148]","[-1,-1,-1]","[0.11764272189787506,-0.02024057881741813]","[-1,-1,-1]","[0.10139963233965442,0.13302770682099943]","[-1,-1,-1]","[-0.05996230333625654,-0.1689652251308536]","[-1,-1,-1]","[0.0889987464030764,0.0692930016689343]","[-1,-1,-1]","[-0.09423206588611235,0.17513325208753908]","[-1,-1,-1]","[-0.016732247730920184,-0.054200740425559744]","[-1,-1,-1]","[0.019927141259541467,0.18097233319098457]","[1,1,1]","[0.16670236240424915,0.10268646045502601]","[1,1,1]","[-0.1039567537323037,-0.0029989973583806288]","[-1,-1,-1]","[-0.0869088936504584,0.11188493729975534]","[1,1,1]","[-0.12202363783350452,-0.06490117217587615]","[1,1,1]","[-0.013482893120868252,0.11200954207288369]","[1,1,1]","[-0.03545620076974223,0.18488931617729534]","[-1,-1,-1]","[0.16465911092546573,0.035640193805647064]","[1,1,1]","[-0.19564434750986615,-0.007635190513309452]","[1,1,1]","[0.01702433929653561,-0.15954504504461253]","[1,1,1]","[0.08423081307653427,-0.18074373508187558]","[-1,-1,-1]","[0.11577895106931362,-0.12647402338301533]","[-1,-1,-1]","[0.06601047514047244,-0.022864647710349746]","[-1,-1,-1]","[-0.16335614811914204,-0.08080258475192516]","[-1,-1,-1]","[-0.13501481234250834,0.12562246534459207]","[1,1,1]","[-0.08324611284230946,0.05836994079815569]","[1,1,1]","[-0.07229108429495913,-0.07556595756131095]","[1,1,1]","[0.07953621711119756,0.16814768179153672]","[1,1,1]","[0.06147005625128039,-0.1299876992832818]","[-1,-1,-1]","[-0.06388248372130248,-0.02491507773356845]","[1,1,1]","[-0.060156665759092266,-0.12286810219884084]","[-1,-1,-1]","[0.023330479879348234,-0.009556617318466179]","[-1,-1,-1]","[0.02,0.02]",161.331,0,38,38,75,1,,,,,,,
,,,,,,,5c28feff5ffcb7000128a541,682f0fc0793db9cd423e2bf8,2025-05-22_07h51.59.742,cuing_paradigm_dot,2024.1.5,Win32,144.092219,682d573fa47f1360d1451895,,,,,,,,,,,161.331,161.831,,,162.081,162.491,right,0.403,,,,,,,,,0.4,,,,,,161.831,162.081,162.491,"[0.05212801205512454,-0.08447757408631452]","[1,1,1]","[0.07095524146753815,-0.04227971394783957]","[-1,-1,-1]","[0.04878034193856589,0.03225885555605415]","[-1,-1,-1]","[-0.03457765209079294,-0.15136397400033064]","[-1,-1,-1]","[0.07994776607490753,-0.1398712524727053]","[1,1,1]","[-0.023758195555083246,0.16051530371296438]","[-1,-1,-1]","[0.17995134286871084,-0.08313195337984824]","[1,1,1]","[-0.0794881512215873,-0.04086372400497387]","[1,1,1]","[0.02491074113170058,0.11954251173624075]","[-1,-1,-1]","[-0.0497064335383963,-0.08935759412178751]","[-1,-1,-1]","[0.1729788046734006,0.0602254051003354]","[-1,-1,-1]","[-0.14360109873592397,-0.00844154807008363]","[1,1,1]","[0.14558661785704183,0.10233176984221147]","[1,1,1]","[-0.06088988264313466,0.015422312944569095]","[1,1,1]","[0.1550587199623471,-0.05164402099306516]","[1,1,1]","[0.12969301092823005,-0.08527149794258981]","[1,1,1]","[-0.08386900808519747,0.17873139833125676]","[1,1,1]","[0.00944052339617244,-0.032262575917753646]","[-1,-1,-1]","[-0.13485903356821394,0.08129897743545227]","[-1,-1,-1]","[0.10690045016395433,0.1632984454894577]","[-1,-1,-1]","[0.03585367999190253,-0.1515618353146338]","[-1,-1,-1]","[-0.13958412851439964,-0.06636355553026199]","[-1,-1,-1]","[-0.0037626796469535403,-0.10109572502674015]","[-1,-1,-1]","[-0.028418248050451494,0.09953167647494543]","[-1,-1,-1]","[-0.0871148085857016,0.11930630804034646]","[1,1,1]","[-0.18438049361446238,-0.019140421999674466]","[-1,-1,-1]","[0.13673955711634644,-0.0014702886786034854]","[-1,-1,-1]","[-0.11455217900540432,0.03004743366459589]","[1,1,1]","[-0.03566517221533951,-0.04695843455940158]","[1,1,1]","[0.1138350749022935,0.04623076663890809]","[-1,-1,-1]","[-0.09994542484972507,-0.12241124434633806]","[-1,-1,-1]","[0.03501483633045858,0.16605520479905278]","[-1,-1,-1]","[0.02,0.02]",163.588,0,39,39,44,1,,,,,,,
,,,,,,,5c28feff5ffcb7000128a541,682f0fc0793db9cd423e2bf8,2025-05-22_07h51.59.742,cuing_paradigm_dot,2024.1.5,Win32,144.092219,682d573fa47f1360d1451895,,,,,,,,,,,163.588,164.088,,,164.338,164.769,left,0.426,,,,,,,,,0.6,,,,,,164.088,164.338,164.769,"[0.049530876612638775,-0.16338666090628418]","[-1,-1,-1]","[-0.10927843877529785,0.00546149809942595]","[1,1,1]","[0.10598285542783123,0.13937151711355045]","[1,1,1]","[0.12518465382210173,-0.01765835962412721]","[1,1,1]","[-0.0863314142569327,-0.15781538041889526]","[-1,-1,-1]","[0.14733403213226348,0.05323750070921013]","[-1,-1,-1]","[-0.017877077833862137,-0.08622237936841763]","[1,1,1]","[0.07646243698038212,0.06509197833758175]","[1,1,1]","[0.1425286414146667,-0.1045920844464023]","[1,1,1]","[-0.16737980347981093,0.07893148185164396]","[-1,-1,-1]","[-0.04145378974513087,-0.15758428641765057]","[-1,-1,-1]","[-0.08421728479576225,-0.07022555048846335]","[-1,-1,-1]","[-0.08396749931815724,0.17198840413223718]","[1,1,1]","[0.046967292334417494,0.17657329787927012]","[1,1,1]","[0.1931761141267854,0.023793574669068365]","[1,1,1]","[-0.12387651160429426,-0.08484897103982707]","[-1,-1,-1]","[-0.050227385417452634,0.11988688883319268]","[1,1,1]","[-0.14907674005974814,0.013502180855634937]","[-1,-1,-1]","[-0.1299965285951145,0.11387946890407878]","[-1,-1,-1]","[-0.06520790948741427,0.00839686289596615]","[1,1,1]","[0.0012327684615825202,0.11092877597382528]","[1,1,1]","[0.08315735487788804,-0.13894651346519635]","[-1,-1,-1]","[-0.04132514476969462,-0.0519456154961184]","[1,1,1]","[-0.08321427435993346,0.08247877714604698]","[1,1,1]","[0.03169555326171969,0.05305978231306651]","[1,1,1]","[0.10123135238105493,-0.05957597071112972]","[1,1,1]","[-0.149646647784088,-0.03579014570133824]","[-1,-1,-1]","[0.012610860700258809,-0.02024884457008501]","[1,1,1]","[-0.02348624756149794,0.1536837637739412]","[1,1,1]","[0.024409984896028133,-0.06016766822285472]","[-1,-1,-1]","[-0.06591305861871448,-0.1185779177646652]","[-1,-1,-1]","[0.07185000657480584,0.01481000399457354]","[1,1,1]","[0.02,0.02]",165.867,0,40,40,167,1,,,,,,,
,,,,,,,5c28feff5ffcb7000128a541,682f0fc0793db9cd423e2bf8,2025-05-22_07h51.59.742,cuing_paradigm_dot,2024.1.5,Win32,144.092219,682d573fa47f1360d1451895,,,,,,,,,,,165.867,166.366,,,166.617,167.297,right,0.674,,,,,,,,,0.6,,,,,,166.366,166.617,167.297,"[0.12016578028328484,-0.1336563905079669]","[1,1,1]","[-0.06545012154433415,0.10859102139231501]","[1,1,1]","[0.11153565903475504,0.08839435520635698]","[-1,-1,-1]","[-0.08565415824189983,-0.17213637112384686]","[1,1,1]","[-0.11157098738263993,-0.015326038819557032]","[1,1,1]","[-0.17259292576377527,-0.09975581596805254]","[-1,-1,-1]","[-0.15909901747105512,0.0913285600916606]","[1,1,1]","[0.15644314974734583,-0.06836832458670303]","[-1,-1,-1]","[-0.1447078365359982,-0.06516759116272039]","[-1,-1,-1]","[0.1636335879260111,0.10279648368725589]","[1,1,1]","[-0.1275617027859251,0.05205068195191136]","[-1,-1,-1]","[0.0023583454894150215,-0.038843283392473504]","[-1,-1,-1]","[-0.03820178076652765,-0.1446663047369293]","[1,1,1]","[0.09149659678730243,-0.09771920982975014]","[-1,-1,-1]","[0.04349371218622845,-0.027796188157598104]","[1,1,1]","[0.1841411237947437,-0.00821901079035818]","[1,1,1]","[-0.07667003989957272,0.04384030964225415]","[-1,-1,-1]","[0.02205052415548753,-0.19077055229821877]","[1,1,1]","[0.018224342227534506,-0.10899055416807817]","[1,1,1]","[-0.007848964601565526,0.1764669735925033]","[-1,-1,-1]","[0.09109898475574355,-0.050771474098733414]","[-1,-1,-1]","[0.0018210044420961316,0.057747371840235984]","[-1,-1,-1]","[0.14448232373946457,0.05817749445007062]","[1,1,1]","[0.04186197490703658,0.13019268043651647]","[-1,-1,-1]","[-0.14734883235148946,-0.13477386303694872]","[1,1,1]","[-0.008389634612441759,0.10041882696442986]","[1,1,1]","[-0.19109573936267835,-0.04335283599442836]","[1,1,1]","[0.05816092232478266,-0.12357889570280921]","[1,1,1]","[0.07189075724512756,0.056619121195577944]","[1,1,1]","[-0.08522312745186568,-0.10204690989128319]","[1,1,1]","[-0.004318508929380037,0.001086116731447563]","[-1,-1,-1]","[-0.06807886730174491,0.15426828390436145]","[1,1,1]","[0.02,0.02]",168.395,0,41,41,169,1,,,,,,,
,,,,,,,5c28feff5ffcb7000128a541,682f0fc0793db9cd423e2bf8,2025-05-22_07h51.59.742,cuing_paradigm_dot,2024.1.5,Win32,144.092219,682d573fa47f1360d1451895,,,,,,,,,,,168.395,168.895,,,169.145,169.582,right,0.435,,,,,,,,,0.4,,,,,,168.895,169.145,169.582,"[0.04825506640566028,0.14803990089336083]","[-1,-1,-1]","[0.027941933376272574,-0.009094779309284364]","[1,1,1]","[-0.011570680494141781,0.02111864049461247]","[-1,-1,-1]","[-0.006624592656733215,0.12755242397563965]","[-1,-1,-1]","[-0.056646225261984845,-0.05030591656679764]","[-1,-1,-1]","[0.09331510077862636,-0.043345905250126146]","[-1,-1,-1]","[0.02967224804503634,-0.19394047189284253]","[-1,-1,-1]","[0.13351337370973648,-0.006610694930667706]","[-1,-1,-1]","[0.014741677136709586,0.19815881039897432]","[-1,-1,-1]","[0.0864139333945386,0.009209458005835697]","[-1,-1,-1]","[0.1551532847870351,-0.057211095925879946]","[-1,-1,-1]","[-0.08581929036265673,-0.0961138024747298]","[1,1,1]","[0.09987535018760949,0.09367464679489569]","[1,1,1]","[0.18794890095680136,0.025822134273109587]","[1,1,1]","[-0.0176693667960868,0.17076602114633258]","[1,1,1]","[-0.1918177604453273,-0.023693764921196816]","[1,1,1]","[-0.10992655038229976,-0.010715785352953163]","[1,1,1]","[0.07385745612911908,0.05901013190061793]","[-1,-1,-1]","[-0.17741396787069516,0.07807109994419884]","[-1,-1,-1]","[-0.09947890586652944,0.17284576226621629]","[1,1,1]","[0.10851394874490398,-0.08867865799875464]","[-1,-1,-1]","[0.0492339189504247,0.09794326301147899]","[-1,-1,-1]","[-0.06275366798711425,-0.14085105529344802]","[-1,-1,-1]","[0.1549404562445987,-0.12086200104089638]","[-1,-1,-1]","[0.10046478672726833,0.15882360335957038]","[1,1,1]","[0.11535702269273507,-0.14891962753447008]","[-1,-1,-1]","[-0.13706650752288943,-0.08799843371308615]","[1,1,1]","[-0.14093867878256086,0.036433671353584336]","[1,1,1]","[0.03271865799328669,-0.07375546800951494]","[1,1,1]","[-0.014371483545219034,-0.028070888458719148]","[-1,-1,-1]","[-0.1942729852864298,0.03160775402926725]","[1,1,1]","[-0.05904406404141121,0.07302425164660094]","[-1,-1,-1]","[0.02,0.02]",170.68,0,42,42,42,1,,,,,,,
,,,,,,,5c28feff5ffcb7000128a541,682f0fc0793db9cd423e2bf8,2025-05-22_07h51.59.742,cuing_paradigm_dot,2024.1.5,Win32,144.092219,682d573fa47f1360d1451895,,,,,,,,,,,170.68,171.179,,,171.43,171.763,right,0.327,,,,,,,,,0.1,,,,,,171.179,171.43,171.763,"[-0.03235997514964107,0.005042023462281496]","[-1,-1,-1]","[0.021155700473730558,0.007631492373002053]","[-1,-1,-1]","[0.10974878543378949,-0.014024865801969055]","[-1,-1,-1]","[-0.14961446032296194,-0.025658434356745044]","[-1,-1,-1]","[0.1699692089488163,0.05575590215307083]","[-1,-1,-1]","[-0.058359086200614585,-0.09685741966976723]","[-1,-1,-1]","[-0.062100018311253766,0.13205861973406016]","[-1,-1,-1]","[-0.14811747408314188,0.05450270371054307]","[-1,-1,-1]","[0.08596990078254212,-0.13602626259574638]","[-1,-1,-1]","[0.13566515714206887,0.12551702550250046]","[-1,-1,-1]","[-0.009826921584617345,-0.15504004188401546]","[-1,-1,-1]","[-0.08557215348387767,0.011831923170255484]","[-1,-1,-1]","[0.08675455946471393,0.019443906761979386]","[-1,-1,-1]","[-0.11290492197568149,0.1304949141378932]","[1,1,1]","[-0.1766586965104379,-0.06350279555598215]","[-1,-1,-1]","[-0.031201264383939595,0.19470367249279694]","[-1,-1,-1]","[0.04348397814641627,-0.044144521920051014]","[-1,-1,-1]","[-0.01241303546243026,0.11306939249583418]","[-1,-1,-1]","[-0.10729994343163014,-0.09455737586156623]","[-1,-1,-1]","[-0.19170009054439924,0.03568128331816051]","[-1,-1,-1]","[0.012813033670072783,0.05478103373922413]","[-1,-1,-1]","[0.1141058875970482,-0.09760754238930107]","[-1,-1,-1]","[0.17118885271008874,-0.07522334991332429]","[-1,-1,-1]","[-0.019821958608344258,-0.05554931537577991]","[-1,-1,-1]","[-0.02964829235689939,-0.19738093225222605]","[-1,-1,-1]","[0.06171395272943908,0.10652150220070446]","[-1,-1,-1]","[0.04308238734954402,0.18065045355610543]","[-1,-1,-1]","[-0.11853040830397997,0.0891977774817903]","[1,1,1]","[0.06804092500882664,-0.1746160481736344]","[-1,-1,-1]","[0.13354471482477356,0.028078168831386436]","[-1,-1,-1]","[-0.08769806052987378,0.17614522038554903]","[-1,-1,-1]","[0.028272631306899457,-0.10318167837038797]","[1,1,1]","[0.02,0.02]",172.86,0,43,43,12,1,,,,,,,
,,,,,,,5c28feff5ffcb7000128a541,682f0fc0793db9cd423e2bf8,2025-05-22_07h51.59.742,cuing_paradigm_dot,2024.1.5,Win32,144.092219,682d573fa47f1360d1451895,,,,,,,,,,,172.861,173.361,,,173.611,173.979,right,0.361,,,,,,,,,0.45,,,,,,173.361,173.611,173.979,"[0.12838398410191573,-0.03946208488920083]","[-1,-1,-1]","[-0.13473182770542536,-0.03340246326758179]","[-1,-1,-1]","[-0.12787284662667833,0.1252509695677556]","[1,1,1]","[0.05723639822347719,-0.14558866824802022]","[-1,-1,-1]","[-0.023392827156786016,-0.14893184658469708]","[-1,-1,-1]","[-0.19252782538715146,0.026600904190617072]","[-1,-1,-1]","[-0.010032925376569215,0.17189242108212438]","[-1,-1,-1]","[-0.055604367609849194,0.06789481790433703]","[-1,-1,-1]","[-0.07605486920429756,-0.09415639967621395]","[1,1,1]","[-0.16616265295780994,0.08759637202917231]","[-1,-1,-1]","[-0.09896073818663445,-0.00835669671957688]","[1,1,1]","[0.016130413485630157,-0.0809317654985422]","[-1,-1,-1]","[0.01027677786809988,0.11975505533723221]","[-1,-1,-1]","[-0.023488749744480904,-0.043826081265447965]","[1,1,1]","[-0.005940706644856375,-0.18714058893960162]","[1,1,1]","[0.13991951562123517,0.10440577298118218]","[-1,-1,-1]","[0.18019601999153873,0.04572398435068668]","[1,1,1]","[-0.14844276996602046,-0.07625271143823131]","[1,1,1]","[-0.11716302511460812,0.044852377490046606]","[1,1,1]","[0.08186987568265353,0.11103366620875964]","[-1,-1,-1]","[0.03893549006643314,-0.18889698541607428]","[1,1,1]","[0.09142197310817275,-0.07855857405066535]","[-1,-1,-1]","[0.039195546080329206,0.15801274639814888]","[1,1,1]","[0.008347507608751992,0.0523892596933675]","[-1,-1,-1]","[-0.07939462115017151,-0.13583360254736118]","[-1,-1,-1]","[0.07822849943280002,-0.008508807356916304]","[1,1,1]","[-0.055951688491210114,0.1656462516552988]","[-1,-1,-1]","[-0.028985930700759763,0.0009466694089035149]","[1,1,1]","[0.046745623624726326,0.07873708468928478]","[1,1,1]","[0.16674264257228624,-0.021321952804801515]","[-1,-1,-1]","[0.18668873994069057,-0.06744844651807518]","[1,1,1]","[-0.030237831043976628,0.12701883559789617]","[-1,-1,-1]","[0.02,0.02]",175.076,0,44,44,69,1,,,,,,,
