right,left,explain.started,explain.stopped,key_resp_3.keys,key_resp_3.rt,key_resp_3.duration,participant,session,date,expName,psychopyVersion,OS,frameRate,study_id,explain_2.started,explain_2.stopped,key_resp_4.keys,key_resp_4.rt,key_resp_4.duration,explain_3.started,explain_3.stopped,key_resp_5.keys,key_resp_5.rt,key_resp_5.duration,fixation.started,fixation.stopped,practice.started,practice.stopped,response.started,response.stopped,key_resp.keys,key_resp.rt,key_resp.duration,feedback.started,feedback.stopped,trials_2.thisRepN,trials_2.thisTrialN,trials_2.thisN,trials_2.thisIndex,trials_2.ran,white_ratio,explain_4.started,explain_4.stopped,key_resp_6.keys,key_resp_6.rt,key_resp_6.duration,dotDisplay.started,dotDisplay.stopped,ITI.started,polygon_1.pos,polygon_1.color,polygon_2.pos,polygon_2.color,polygon_3.pos,polygon_3.color,polygon_4.pos,polygon_4.color,polygon_5.pos,polygon_5.color,polygon_6.pos,polygon_6.color,polygon_7.pos,polygon_7.color,polygon_8.pos,polygon_8.color,polygon_9.pos,polygon_9.color,polygon_10.pos,polygon_10.color,polygon_11.pos,polygon_11.color,polygon_12.pos,polygon_12.color,polygon_13.pos,polygon_13.color,polygon_14.pos,polygon_14.color,polygon_15.pos,polygon_15.color,polygon_16.pos,polygon_16.color,polygon_17.pos,polygon_17.color,polygon_18.pos,polygon_18.color,polygon_19.pos,polygon_19.color,polygon_20.pos,polygon_20.color,polygon_21.pos,polygon_21.color,polygon_22.pos,polygon_22.color,polygon_23.pos,polygon_23.color,polygon_24.pos,polygon_24.color,polygon_25.pos,polygon_25.color,polygon_26.pos,polygon_26.color,polygon_27.pos,polygon_27.color,polygon_28.pos,polygon_28.color,polygon_29.pos,polygon_29.color,polygon_30.pos,polygon_30.color,polygon_31.pos,polygon_31.color,polygon_32.pos,polygon_32.color,dot_size,ITI.stopped,trials.thisRepN,trials.thisTrialN,trials.thisN,trials.thisIndex,trials.ran,break_2.started,break_2.stopped,trials_3.thisRepN,trials_3.thisTrialN,trials_3.thisN,trials_3.thisIndex,trials_3.ran
subject chose white,subject chose black,0.0009,174.5386,space,159.5178,,5d20f6cbc1dc1c0001162dd5,682db4326b9c76ba50129f39,2025-05-21_12h09.05.261,cuing_paradigm_dot,2024.1.5,Win32,59.52380952,682d556593cb38ad0a074487,,,,,,,,,,,,,,,,,,,,,,,,,,,,,,,,,,,,,,,,,,,,,,,,,,,,,,,,,,,,,,,,,,,,,,,,,,,,,,,,,,,,,,,,,,,,,,,,,,,,,,,,,,,,,,,,,
,,,,,,,5d20f6cbc1dc1c0001162dd5,682db4326b9c76ba50129f39,2025-05-21_12h09.05.261,cuing_paradigm_dot,2024.1.5,Win32,59.52380952,682d556593cb38ad0a074487,174.5399,274.2382,space,69.6772,,,,,,,,,,,,,,,,,,,,,,,,,,,,,,,,,,,,,,,,,,,,,,,,,,,,,,,,,,,,,,,,,,,,,,,,,,,,,,,,,,,,,,,,,,,,,,,,,,,,,,,,,,,,,
,,,,,,,5d20f6cbc1dc1c0001162dd5,682db4326b9c76ba50129f39,2025-05-21_12h09.05.261,cuing_paradigm_dot,2024.1.5,Win32,59.52380952,682d556593cb38ad0a074487,,,,,,274.2386,278.4754,space,1.2251,,,,,,,,,,,,,,,,,,,,,,,,,,,,,,,,,,,,,,,,,,,,,,,,,,,,,,,,,,,,,,,,,,,,,,,,,,,,,,,,,,,,,,,,,,,,,,,,,,,,,,,,
,,,,,,,5d20f6cbc1dc1c0001162dd5,682db4326b9c76ba50129f39,2025-05-21_12h09.05.261,cuing_paradigm_dot,2024.1.5,Win32,59.52380952,682d556593cb38ad0a074487,,,,,,,,,,,278.5364,278.9909,278.9919,279.1961,279.1963,280.3067,left,1.0719,,280.3073,281.405,0,0,0,1,1,0.2,,,,,,,,,,,,,,,,,,,,,,,,,,,,,,,,,,,,,,,,,,,,,,,,,,,,,,,,,,,,,,,,,,,,,,,,,,,,,,,,,,,,,,
,,,,,,,5d20f6cbc1dc1c0001162dd5,682db4326b9c76ba50129f39,2025-05-21_12h09.05.261,cuing_paradigm_dot,2024.1.5,Win32,59.52380952,682d556593cb38ad0a074487,,,,,,,,,,,281.4066,281.9041,281.9043,282.1554,282.1554,282.7035,right,0.5299,,282.7039,283.8018,0,1,1,0,1,0.8,,,,,,,,,,,,,,,,,,,,,,,,,,,,,,,,,,,,,,,,,,,,,,,,,,,,,,,,,,,,,,,,,,,,,,,,,,,,,,,,,,,,,,
,,,,,,,5d20f6cbc1dc1c0001162dd5,682db4326b9c76ba50129f39,2025-05-21_12h09.05.261,cuing_paradigm_dot,2024.1.5,Win32,59.52380952,682d556593cb38ad0a074487,,,,,,,,,,,,,,,,,,,,,,,,,,,,283.8032,381.7116,space,94.8889,,,,,,,,,,,,,,,,,,,,,,,,,,,,,,,,,,,,,,,,,,,,,,,,,,,,,,,,,,,,,,,,,,,,,,,,,,,,,,,,,,
,,,,,,,5d20f6cbc1dc1c0001162dd5,682db4326b9c76ba50129f39,2025-05-21_12h09.05.261,cuing_paradigm_dot,2024.1.5,Win32,59.52380952,682d556593cb38ad0a074487,,,,,,,,,,,381.7357,382.2325,,,382.4792,383.3925,right,0.8979,,,,,,,,,0.9,,,,,,382.2339,382.479,383.3945,"[0.026259849046061746,0.14909838196380604]","[1,1,1]","[-0.05096704562472083,0.12038404127026431]","[1,1,1]","[0.0831633541197656,0.13762302416302516]","[1,1,1]","[0.11340974381508276,-0.004274736596916134]","[-1,-1,-1]","[0.031416255666552234,-0.002281608288402022]","[1,1,1]","[-0.11782442540510704,0.043471424389442875]","[1,1,1]","[-0.16727349929480764,-0.06594316407098487]","[1,1,1]","[0.06345819865538371,-0.08701823696333433]","[1,1,1]","[-0.08183325346043943,0.1628819511148209]","[1,1,1]","[-0.08660150464954655,0.00019874824521537313]","[1,1,1]","[-0.01821016144942612,-0.096806133197063]","[1,1,1]","[-0.12431234486132875,-0.05798798844393846]","[1,1,1]","[0.12411565859665198,0.12004190290285202]","[1,1,1]","[0.040466712286035315,0.07589239797971656]","[-1,-1,-1]","[-0.13289050742904304,0.09518949810150197]","[-1,-1,-1]","[-0.01087510061835406,-0.057388917745516015]","[1,1,1]","[0.00115136389449183,-0.19935810461012463]","[1,1,1]","[-0.0023040620647574893,-0.14770796572901596]","[1,1,1]","[0.12118584518550606,-0.11838579684827275]","[1,1,1]","[-0.08646936348019715,-0.08711012844146246]","[1,1,1]","[0.1096976757323714,0.036908968102378634]","[1,1,1]","[-0.08302500115977068,-0.17807573920250283]","[1,1,1]","[0.059101087114832335,-0.14541760612913793]","[1,1,1]","[0.1629010428385689,0.06353256941924525]","[1,1,1]","[0.16406998807128265,-0.06381161131292694]","[1,1,1]","[0.09340507050486946,0.08408397767757413]","[1,1,1]","[0.19889421775476598,0.00579115347345815]","[1,1,1]","[-0.01736202820744213,0.009517387619750302]","[1,1,1]","[-0.03220875245299483,0.06083882549785577]","[1,1,1]","[-0.15828932304865503,0.009806671032114644]","[1,1,1]","[-0.013655723332188592,0.13878620990129473]","[1,1,1]","[0.10154863173689221,-0.1626862475213349]","[1,1,1]","[0.02,0.02]",384.4917,0,0,0,208,1,,,,,,,
,,,,,,,5d20f6cbc1dc1c0001162dd5,682db4326b9c76ba50129f39,2025-05-21_12h09.05.261,cuing_paradigm_dot,2024.1.5,Win32,59.52380952,682d556593cb38ad0a074487,,,,,,,,,,,384.4935,384.9905,,,385.2416,385.4071,right,0.1519,,,,,,,,,0.9,,,,,,384.9907,385.2413,385.4072,"[0.09559340478366267,-0.11619520649629048]","[1,1,1]","[-0.0592243404453755,-0.03408962280887116]","[1,1,1]","[0.039352728934768225,-0.1877702369245945]","[1,1,1]","[0.17534927801263758,-0.023501826052771034]","[1,1,1]","[0.09581989245306798,0.14285368014923286]","[1,1,1]","[0.147096208307448,-0.1272845146234756]","[1,1,1]","[0.12882742322130225,-0.07716404677935754]","[1,1,1]","[0.12055366128292429,0.032392391921046926]","[1,1,1]","[0.044139337353108356,-0.05090946349222029]","[-1,-1,-1]","[-0.0019294546618604247,0.011674114808387984]","[1,1,1]","[0.17609892327969714,0.05918625118320827]","[1,1,1]","[0.052474720957066026,0.05784127657503639]","[1,1,1]","[-0.1220007809513097,0.02185345209822561]","[-1,-1,-1]","[0.07996631738380922,-0.1661343716742077]","[1,1,1]","[0.06976974523118619,-0.00313332168466733]","[1,1,1]","[-0.08739530912586235,0.06611420270823042]","[1,1,1]","[-0.032928133047124136,0.10440508597583179]","[1,1,1]","[0.0021012151371851496,0.1955898638819774]","[1,1,1]","[-0.15468653003559577,-0.007580095611135614]","[-1,-1,-1]","[-0.023286045373270534,0.05310049517881141]","[1,1,1]","[-0.10512002892837156,-0.059404823273459084]","[1,1,1]","[0.007791483027450104,-0.12956285871362042]","[1,1,1]","[-0.16392620645127512,0.08318864149513754]","[1,1,1]","[0.01719718210019457,0.10939346039848732]","[1,1,1]","[0.1719449536859327,-0.07738447632208421]","[1,1,1]","[-0.07024344686426935,-0.1365064376716457]","[1,1,1]","[0.14817122196324548,0.1320740608936711]","[1,1,1]","[-0.12603334892165413,0.10205108155221411]","[1,1,1]","[-0.0788818667007356,0.1783077456243707]","[1,1,1]","[0.06106164085776252,-0.09251549186335675]","[1,1,1]","[-0.020832939363971233,0.15426165902430664]","[1,1,1]","[-0.060924080212354625,0.02903662734145514]","[1,1,1]","[0.02,0.02]",386.5054,0,1,1,204,1,,,,,,,
,,,,,,,5d20f6cbc1dc1c0001162dd5,682db4326b9c76ba50129f39,2025-05-21_12h09.05.261,cuing_paradigm_dot,2024.1.5,Win32,59.52380952,682d556593cb38ad0a074487,,,,,,,,,,,386.5064,387.005,,,387.2449,387.6046,left,0.3341,,,,,,,,,0.1,,,,,,387.0051,387.2447,387.6046,"[0.08312979388692698,0.01935873040965198]","[-1,-1,-1]","[-0.1120049135572069,-0.07889567631545022]","[-1,-1,-1]","[0.07547114387200897,0.07007096845591135]","[-1,-1,-1]","[0.1518776610872723,0.08829929313289102]","[-1,-1,-1]","[-0.09679023189114942,0.13162304307755135]","[-1,-1,-1]","[0.032607001733745394,0.012669610855302813]","[-1,-1,-1]","[0.024293232839219622,-0.030885882117254248]","[-1,-1,-1]","[0.026414297178216518,0.07861141702561122]","[1,1,1]","[0.16898502456840792,0.05036508961692967]","[-1,-1,-1]","[0.009987453443059685,0.13058977190285112]","[-1,-1,-1]","[-0.030706812873564533,-0.00508475265451654]","[-1,-1,-1]","[-0.04883380637900964,-0.15831157703331888]","[-1,-1,-1]","[-0.07598264304841323,0.04520231360783173]","[-1,-1,-1]","[-0.15220359208321982,0.12954012786389069]","[-1,-1,-1]","[0.11605692039792333,-0.09033583616653389]","[-1,-1,-1]","[0.18393253041537602,-0.06002030172459566]","[-1,-1,-1]","[0.04687188658243095,-0.1878249361483577]","[-1,-1,-1]","[0.1490103064083116,-0.11489581510821545]","[-1,-1,-1]","[0.03471042318389742,-0.10602162629164694]","[-1,-1,-1]","[-0.05295507757266026,-0.1104737138210201]","[-1,-1,-1]","[-0.13146883784272245,-0.11936545866480895]","[-1,-1,-1]","[-0.12389562326728204,-0.019262733480504987]","[-1,-1,-1]","[-0.10340494637938695,-0.16279170749439975]","[-1,-1,-1]","[-0.1946025846057006,0.00048691199257657234]","[-1,-1,-1]","[0.002737771155638636,0.18915456641298087]","[-1,-1,-1]","[-0.07286809316651166,-0.05659421557144072]","[-1,-1,-1]","[-0.010308166850531946,-0.19612345522882627]","[-1,-1,-1]","[0.07638039078665575,-0.11796907270505802]","[-1,-1,-1]","[0.18531512639258882,0.011812329777498196]","[1,1,1]","[-0.03999958804984055,0.12005749304654562]","[1,1,1]","[-0.16471358339412778,-0.09202347760274805]","[-1,-1,-1]","[0.10021068025285791,-0.1610220027978509]","[-1,-1,-1]","[0.02,0.02]",388.7031,0,2,2,15,1,,,,,,,
,,,,,,,5d20f6cbc1dc1c0001162dd5,682db4326b9c76ba50129f39,2025-05-21_12h09.05.261,cuing_paradigm_dot,2024.1.5,Win32,59.52380952,682d556593cb38ad0a074487,,,,,,,,,,,388.7048,389.1934,,,389.4374,389.9852,left,0.5358,,,,,,,,,0.55,,,,,,389.1935,389.4373,389.9862,"[0.1334258124149671,0.011182862633504672]","[1,1,1]","[0.0032712204612133635,-0.09929473059954416]","[1,1,1]","[-0.1517234111715904,-0.014353289096572039]","[-1,-1,-1]","[-0.11594182971990322,-0.13250405050631767]","[1,1,1]","[0.08644329604063743,0.09757455232636454]","[-1,-1,-1]","[0.1222087190644484,-0.06963677259818084]","[1,1,1]","[0.1325980370801427,-0.13892664087931608]","[1,1,1]","[0.023121242452708385,0.15569169576164132]","[-1,-1,-1]","[-0.05784871745630656,0.10355578120829442]","[-1,-1,-1]","[-0.09095324298539026,0.08001368102826109]","[1,1,1]","[0.011684612724424896,-0.15220716114431967]","[-1,-1,-1]","[-0.03034520452558162,-0.19592623700158635]","[1,1,1]","[0.08323818774376487,0.055280839585806714]","[1,1,1]","[0.06522268538421201,-0.16360748766793368]","[1,1,1]","[0.013255649123739124,0.05474685138133341]","[-1,-1,-1]","[-0.15193519042387352,0.09244485599450812]","[-1,-1,-1]","[0.1986056498953544,0.021196385152614093]","[1,1,1]","[0.18391253797719212,-0.05137774827028731]","[1,1,1]","[0.15023830506915836,0.07199017474021865]","[1,1,1]","[-0.19014613293145302,0.008913682673948205]","[1,1,1]","[-0.16213296726008192,-0.055696515546296274]","[1,1,1]","[-0.010502718362331276,0.10964021219814601]","[-1,-1,-1]","[-0.0732875399297874,0.18254351682554038]","[-1,-1,-1]","[-0.1280799316389277,0.020319347987786264]","[-1,-1,-1]","[-0.02809709602607635,0.15416668467469652]","[1,1,1]","[-0.044355134197200344,0.007991952100617117]","[1,1,1]","[-0.10754535524577756,-0.07217915113059033]","[-1,-1,-1]","[0.030182552468103988,0.01482294197223175]","[-1,-1,-1]","[0.05730509780980029,-0.04833705146585458]","[1,1,1]","[-0.04902201289859664,0.049909693280974464]","[1,1,1]","[0.010869485889097795,-0.037514387035581395]","[-1,-1,-1]","[0.146540660068378,-0.026998749849616015]","[-1,-1,-1]","[0.02,0.02]",391.0832,0,3,3,148,1,,,,,,,
,,,,,,,5d20f6cbc1dc1c0001162dd5,682db4326b9c76ba50129f39,2025-05-21_12h09.05.261,cuing_paradigm_dot,2024.1.5,Win32,59.52380952,682d556593cb38ad0a074487,,,,,,,,,,,391.0839,391.5831,,,391.843,392.2328,left,0.3679,,,,,,,,,0.1,,,,,,391.5833,391.8429,392.2329,"[0.005389443565407899,0.07145480667789143]","[-1,-1,-1]","[-0.1307441003126533,0.11134253378252575]","[1,1,1]","[-0.08745808654918315,0.11767365790780536]","[-1,-1,-1]","[-0.03859290570266505,-0.010274216565630656]","[1,1,1]","[0.16302509726627196,-0.07880484861894431]","[-1,-1,-1]","[0.017673904834426945,-0.0021739809522715614]","[-1,-1,-1]","[0.04725176667372304,-0.19173728248059535]","[-1,-1,-1]","[-0.02426251837297012,-0.0969230792634769]","[-1,-1,-1]","[0.030281643275718893,-0.14285628270791537]","[-1,-1,-1]","[-0.018562492143524907,0.19293609142567505]","[-1,-1,-1]","[-0.008340506021085044,-0.1751171514049727]","[-1,-1,-1]","[-0.10387644968932577,0.07168802493005316]","[1,1,1]","[0.04821871092854133,0.11985084488183068]","[-1,-1,-1]","[0.14122830486122678,0.12096460344231535]","[-1,-1,-1]","[0.03765208257834754,0.19474823225851962]","[-1,-1,-1]","[0.0946280849724003,-0.0923522628151786]","[-1,-1,-1]","[-0.07280369450237449,-0.17739845239444935]","[-1,-1,-1]","[-0.11800084761386662,-0.09444378151094979]","[-1,-1,-1]","[-0.0937048362739593,0.0013661005317244488]","[-1,-1,-1]","[0.1710296076723421,0.020364932446224497]","[-1,-1,-1]","[0.09930678209622279,0.10536877532721028]","[-1,-1,-1]","[0.16909977065792314,0.07658845476039039]","[-1,-1,-1]","[0.18348973886274442,-0.03353993046218885]","[-1,-1,-1]","[0.018242842835010722,-0.04413753929779639]","[-1,-1,-1]","[0.13176060368096681,-0.13831999307277512]","[-1,-1,-1]","[0.08029407120941719,0.005839532971985283]","[-1,-1,-1]","[-0.04840110353585133,0.1501676347846713]","[-1,-1,-1]","[-0.059383775127832744,0.08094838212604746]","[-1,-1,-1]","[0.08390968460990468,-0.05287727487687323]","[-1,-1,-1]","[-0.0723845231384565,-0.07610979379291523]","[-1,-1,-1]","[0.04281788058883589,-0.10252195973038652]","[-1,-1,-1]","[-0.1685413481542332,-0.08410366209865437]","[-1,-1,-1]","[0.02,0.02]",393.3313,0,4,4,2,1,,,,,,,
,,,,,,,5d20f6cbc1dc1c0001162dd5,682db4326b9c76ba50129f39,2025-05-21_12h09.05.261,cuing_paradigm_dot,2024.1.5,Win32,59.52380952,682d556593cb38ad0a074487,,,,,,,,,,,393.3324,393.8307,,,394.0905,394.5805,left,0.4687,,,,,,,,,0.6,,,,,,393.8309,394.0904,394.5806,"[-0.1372356874709794,0.021637758027620215]","[-1,-1,-1]","[0.12974912968659522,0.06419549973181421]","[1,1,1]","[0.12829310540204947,-0.0612348395930202]","[1,1,1]","[0.03818319667984582,0.11874940607366213]","[-1,-1,-1]","[-0.09049906337592846,-0.11206922633092561]","[-1,-1,-1]","[0.16595073999490859,-0.08444762262061413]","[1,1,1]","[-0.14718054434162958,-0.12667607229005778]","[-1,-1,-1]","[-0.014899008710728337,0.061021513315073175]","[-1,-1,-1]","[0.08365877404017953,-0.10478277613387121]","[1,1,1]","[-0.06165407697963596,-0.17817314691229189]","[1,1,1]","[0.15687893617016316,0.10952661968824447]","[1,1,1]","[-0.1669744413672656,0.09231562265093156]","[1,1,1]","[0.010881960617741455,-0.07250260623663704]","[-1,-1,-1]","[-0.16992906063345814,-0.08238417115991344]","[1,1,1]","[-0.10539457752721638,-0.02450804529929626]","[1,1,1]","[-0.03444211219906361,0.17950208999483636]","[1,1,1]","[-0.053405921605630895,-0.0020148782740345796]","[-1,-1,-1]","[0.0849215884382939,-0.17867556333851525]","[1,1,1]","[0.08083779159118697,-0.05912413076221019]","[-1,-1,-1]","[0.028272418199073963,-0.1815714901244475]","[-1,-1,-1]","[-0.0681314139032987,-0.055228777861055824]","[1,1,1]","[-0.03264849680964615,-0.11625184867856556]","[-1,-1,-1]","[0.1715639132094631,-0.036686985298181055]","[1,1,1]","[0.07692829516758563,0.17637976478943873]","[1,1,1]","[-0.19060314164835881,0.011877530964347346]","[1,1,1]","[-0.05391803149863522,0.09343244713477937]","[-1,-1,-1]","[-0.11912077540616908,-0.07268184199762173]","[1,1,1]","[-0.11021299573806886,0.05804421852560771]","[1,1,1]","[-0.08838244649584952,0.17705084488269487]","[-1,-1,-1]","[0.06662120612386828,0.02554721045273457]","[-1,-1,-1]","[-0.023376411425887478,0.13068427758741535]","[1,1,1]","[-0.19108537371930007,-0.04168265535915471]","[1,1,1]","[0.02,0.02]",395.6788,0,5,5,166,1,,,,,,,
,,,,,,,5d20f6cbc1dc1c0001162dd5,682db4326b9c76ba50129f39,2025-05-21_12h09.05.261,cuing_paradigm_dot,2024.1.5,Win32,59.52380952,682d556593cb38ad0a074487,,,,,,,,,,,395.6796,396.1781,,,396.4294,397.028,right,0.5836,,,,,,,,,0.55,,,,,,396.1782,396.4293,397.0282,"[0.00736661821485575,0.011965434916212764]","[-1,-1,-1]","[0.013138003801651485,0.12404121720900081]","[1,1,1]","[-0.14127764774430876,0.030531973732150035]","[-1,-1,-1]","[-0.09139938940385257,-0.05778481042160372]","[1,1,1]","[-0.12754517001799562,0.11027969459642915]","[1,1,1]","[0.08265025044731997,0.05993562952789455]","[-1,-1,-1]","[0.10156764512585219,0.16648249034279505]","[1,1,1]","[0.08972313938532729,-0.11671629884126562]","[-1,-1,-1]","[-0.02862805605828879,0.12759571240729126]","[-1,-1,-1]","[0.12526990672520208,-0.054098396488013026]","[-1,-1,-1]","[0.1534148527650571,0.043078679929173004]","[1,1,1]","[0.011226538845907888,-0.07865403201460595]","[-1,-1,-1]","[0.14518316671278284,-0.09970237714729578]","[-1,-1,-1]","[-0.006280019012321471,0.1683574161671131]","[1,1,1]","[-0.0867358318934191,-0.12025187208065588]","[1,1,1]","[-0.086058507138028,0.06606557161157141]","[-1,-1,-1]","[-0.16003219612442765,-0.11114694688270546]","[1,1,1]","[0.043322912873877115,0.07954826009087404]","[-1,-1,-1]","[0.061369910224611336,-0.03231088273672364]","[1,1,1]","[0.1889130688204892,-0.05069975882184969]","[1,1,1]","[-0.019680193670937027,-0.17805452249969136]","[1,1,1]","[0.02037552496205277,-0.03781222765419411]","[1,1,1]","[-0.10067077259972436,-0.1677070864910758]","[-1,-1,-1]","[-0.04215892887640078,0.04156364318540479]","[1,1,1]","[0.10546586267801715,-0.0010974252779533684]","[1,1,1]","[0.02598051595941048,-0.18871890820953846]","[1,1,1]","[-0.15769119142968271,-0.06684729730875864]","[1,1,1]","[-0.18390850126688646,0.05433089353502959]","[-1,-1,-1]","[0.15340549730514466,0.11146229024558361]","[1,1,1]","[-0.015943050896218336,-0.12418570071500558]","[-1,-1,-1]","[0.04696316301890915,0.17386817543869745]","[-1,-1,-1]","[0.042439372803741694,-0.14081710900762814]","[1,1,1]","[0.02,0.02]",398.1265,0,6,6,126,1,,,,,,,
,,,,,,,5d20f6cbc1dc1c0001162dd5,682db4326b9c76ba50129f39,2025-05-21_12h09.05.261,cuing_paradigm_dot,2024.1.5,Win32,59.52380952,682d556593cb38ad0a074487,,,,,,,,,,,398.1276,398.6261,,,398.8769,399.5585,right,0.6666,,,,,,,,,0.55,,,,,,398.6262,398.8768,399.5587,"[0.08093579535056225,-0.03065659597630963]","[1,1,1]","[0.14815377322408854,0.042905504070042344]","[1,1,1]","[0.19269284935810815,-0.03243951886524077]","[-1,-1,-1]","[0.08721113643306881,0.06982493921664311]","[1,1,1]","[0.018015508963652588,-0.1457762109033575]","[1,1,1]","[-0.009581552045156238,0.003914888216541946]","[1,1,1]","[0.013206616605987999,-0.07849317924593752]","[1,1,1]","[-0.115483642067096,0.05481342255020804]","[-1,-1,-1]","[0.04819667730141499,0.02069615798198429]","[1,1,1]","[-0.027996112547648052,0.0932706703661302]","[-1,-1,-1]","[-0.09811374462850088,0.11229978545299647]","[-1,-1,-1]","[-0.13250737042967406,-0.03747586845132037]","[-1,-1,-1]","[0.09276302241543308,-0.13906124881557755]","[1,1,1]","[0.05264297495308003,0.0921334848052727]","[1,1,1]","[0.05689288304632228,-0.18547226286312943]","[1,1,1]","[-0.14026319746294294,0.12398049190900232]","[1,1,1]","[0.17772241192909277,0.08152326687984757]","[-1,-1,-1]","[-0.05946595973488038,-0.026513269476766008]","[1,1,1]","[-0.00321490960305702,0.1499682958922134]","[1,1,1]","[-0.10103163719207073,0.15351674071686203]","[-1,-1,-1]","[-0.1715238181438512,-0.0022994863803722987]","[-1,-1,-1]","[-0.11129933858537572,-0.089700448929778]","[1,1,1]","[0.11085571745397849,-0.06369803190014753]","[1,1,1]","[-0.06391228965486968,-0.11208768720760405]","[1,1,1]","[0.09380963779333136,0.028802369488646996]","[1,1,1]","[0.15395019195607526,-0.11426136425571722]","[-1,-1,-1]","[-0.028941099168176637,-0.05495183061650243]","[1,1,1]","[0.04511222978337998,0.13337225349231036]","[-1,-1,-1]","[-0.164216758638146,-0.11002932455828619]","[-1,-1,-1]","[0.12465989926842096,0.0016327026261379496]","[-1,-1,-1]","[0.16614893512160578,-0.00016403956306238797]","[-1,-1,-1]","[-0.12809734562580885,-0.13595322779090344]","[-1,-1,-1]","[0.02,0.02]",400.6569,0,7,7,135,1,,,,,,,
,,,,,,,5d20f6cbc1dc1c0001162dd5,682db4326b9c76ba50129f39,2025-05-21_12h09.05.261,cuing_paradigm_dot,2024.1.5,Win32,59.52380952,682d556593cb38ad0a074487,,,,,,,,,,,400.6579,401.1565,,,401.4074,401.9062,right,0.4837,,,,,,,,,0.6,,,,,,401.1565,401.4073,401.9064,"[0.08613993535956307,-0.08461987449498069]","[-1,-1,-1]","[0.0908669556637116,0.02187765024632215]","[-1,-1,-1]","[-0.11188341331621601,0.08505286791570969]","[1,1,1]","[0.028587276359232968,-0.10762614369788857]","[-1,-1,-1]","[-0.024338906721811146,0.035910219455434614]","[1,1,1]","[-0.08280133964281207,0.0027896720793591373]","[-1,-1,-1]","[0.09122774046682926,0.09534134583369572]","[1,1,1]","[-0.03156754046474671,0.11251220393313083]","[-1,-1,-1]","[-0.03189216508617693,0.18608625219119415]","[1,1,1]","[0.106247710904594,0.14957156447347456]","[-1,-1,-1]","[-0.17593912899877573,0.06623291638900836]","[-1,-1,-1]","[-0.08797583828538609,-0.17234363355106896]","[1,1,1]","[0.026176834015176474,-0.18182935710799256]","[1,1,1]","[-0.17760506734357726,-0.04146849326256585]","[1,1,1]","[-0.030857643277512146,-0.008089501528544846]","[1,1,1]","[-0.12578940256647947,-0.1504491323571737]","[1,1,1]","[0.18929428790097963,0.01994756403916015]","[1,1,1]","[0.04190965870019913,-0.030927526479349925]","[1,1,1]","[0.11774645571900237,-0.11683757092128078]","[1,1,1]","[0.05945860421991784,-0.1530049434112878]","[1,1,1]","[-0.005828124317041782,-0.15183963468970035]","[1,1,1]","[0.1743596007425357,0.0852407098725814]","[-1,-1,-1]","[-0.1335610262475338,0.008894482722359631]","[1,1,1]","[-0.04210797185364764,-0.08516854331127252]","[1,1,1]","[-0.11646549235244355,-0.09775050697434397]","[-1,-1,-1]","[0.019326997443755593,0.14459713674980249]","[1,1,1]","[0.10801590160466937,-0.03790956217784042]","[1,1,1]","[-0.15129436955059922,0.10112135969557373]","[-1,-1,-1]","[0.04692799483527122,0.1107681957363231]","[1,1,1]","[0.1598657979246918,-0.05030259582854061]","[-1,-1,-1]","[0.11461663069277239,0.06172541156875095]","[-1,-1,-1]","[-0.07508181787221206,0.0577560372214315]","[-1,-1,-1]","[0.02,0.02]",403.0047,0,8,8,171,1,,,,,,,
,,,,,,,5d20f6cbc1dc1c0001162dd5,682db4326b9c76ba50129f39,2025-05-21_12h09.05.261,cuing_paradigm_dot,2024.1.5,Win32,59.52380952,682d556593cb38ad0a074487,,,,,,,,,,,403.0054,403.504,,,403.7549,404.3534,right,0.5871,,,,,,,,,0.55,,,,,,403.5041,403.7548,404.3534,"[-0.17679970855384203,0.09093711653762841]","[1,1,1]","[0.06912632056744032,0.038106871425829435]","[-1,-1,-1]","[0.016454932579380126,-0.155764522679928]","[-1,-1,-1]","[-0.016031799378906655,0.12868745661767403]","[1,1,1]","[0.005340469513273535,0.000400088288826201]","[1,1,1]","[0.05519355629790001,-0.06588474820605074]","[1,1,1]","[-0.06276527549196885,-0.12616319835883802]","[1,1,1]","[0.05246307699823283,-0.189400622674561]","[-1,-1,-1]","[0.07791542323065527,0.17817688579048496]","[1,1,1]","[-0.10347731403795109,-0.00033590583797580594]","[-1,-1,-1]","[-0.06645374096893969,0.10191135933806819]","[-1,-1,-1]","[-0.16932802160120536,-0.028358921018644248]","[-1,-1,-1]","[0.0695113765895075,0.12537490766860399]","[1,1,1]","[-0.15334086724393614,0.012317825505409804]","[-1,-1,-1]","[0.17766708027965059,0.05077175106745999]","[1,1,1]","[-0.1944541915833057,0.024083577543483742]","[1,1,1]","[0.12290580108452118,-0.04323616653884967]","[1,1,1]","[0.050042852750793045,-0.11966782158122144]","[1,1,1]","[-0.013047895020022451,0.04255420428784223]","[-1,-1,-1]","[0.17658741471843525,-0.031070044007033403]","[-1,-1,-1]","[0.134118461092654,0.12316610943371151]","[1,1,1]","[-0.08828806446582897,-0.09515809645601753]","[-1,-1,-1]","[0.042855890157949786,0.07393004023211307]","[1,1,1]","[0.1339739210475169,-0.1099503189692074]","[-1,-1,-1]","[-0.1706295773474299,-0.07027355263647612]","[-1,-1,-1]","[0.1279368110663992,0.03038137397087082]","[1,1,1]","[0.09717337054223864,-0.0796236524067567]","[1,1,1]","[-0.026777872765730255,-0.1967740856381169]","[1,1,1]","[0.10206622448512824,-0.15427808377520527]","[-1,-1,-1]","[-0.10607742132907026,-0.05763443826945596]","[1,1,1]","[-0.007194083368034969,0.17016640192842739]","[1,1,1]","[-0.07941508867778815,0.03241095763687034]","[-1,-1,-1]","[0.02,0.02]",405.452,0,9,9,120,1,,,,,,,
,,,,,,,5d20f6cbc1dc1c0001162dd5,682db4326b9c76ba50129f39,2025-05-21_12h09.05.261,cuing_paradigm_dot,2024.1.5,Win32,59.52380952,682d556593cb38ad0a074487,,,,,,,,,,,405.4528,405.9513,,,406.2021,406.4012,right,0.1841,,,,,,,,,0.9,,,,,,405.9514,406.2021,406.4013,"[-0.06789493102202673,-0.019659325733879483]","[1,1,1]","[0.09792192986614136,0.10734210075878194]","[1,1,1]","[0.10239061225855252,0.02785051634110082]","[1,1,1]","[0.03779884571566829,-0.0383759334329449]","[1,1,1]","[-0.12162498541331203,-0.12726472465391628]","[-1,-1,-1]","[-0.030296288614384135,-0.19032555846147808]","[1,1,1]","[-0.15947600421929994,0.07962430603247062]","[-1,-1,-1]","[0.14707214932568904,-0.06390113808890252]","[1,1,1]","[-0.024856822091704953,-0.04858892111135004]","[-1,-1,-1]","[0.05145347307830084,0.16711190315003607]","[1,1,1]","[-0.028140221676118515,0.05174699957141813]","[1,1,1]","[0.16589946787119342,0.03694327899485732]","[1,1,1]","[-0.1919358211082326,0.05447431935157032]","[1,1,1]","[0.08773176427059562,-0.02778810995463839]","[1,1,1]","[0.007472743979079445,0.008408167953038118]","[1,1,1]","[-0.16359044056728766,-0.04969457525151937]","[1,1,1]","[-0.1716799160783233,0.018020830168215315]","[1,1,1]","[-0.008522223312597353,0.09229736755219366]","[1,1,1]","[-0.08347790512529787,0.06394228806074646]","[1,1,1]","[0.1409066240621881,-0.10596914533527799]","[1,1,1]","[0.13149771723580042,0.13394369051869104]","[1,1,1]","[-0.02715544223667523,0.19292314653741086]","[1,1,1]","[0.19734722848613226,0.011775623874732927]","[1,1,1]","[0.04573615483659351,0.07050965357232215]","[1,1,1]","[-0.12455539019587339,0.03778148022368133]","[1,1,1]","[-0.112850359994025,0.11130436615832914]","[1,1,1]","[-0.055746861859856486,-0.10981459065735262]","[1,1,1]","[0.14659302108734756,0.09082778449516832]","[1,1,1]","[0.029285177625428344,0.11524030574202987]","[1,1,1]","[0.0637835297943591,-0.16054982182614277]","[1,1,1]","[0.18068407188396227,-0.03482163797592677]","[1,1,1]","[-0.05583298396176395,0.1488181817965585]","[1,1,1]","[0.02,0.02]",407.4997,0,10,10,185,1,,,,,,,
,,,,,,,5d20f6cbc1dc1c0001162dd5,682db4326b9c76ba50129f39,2025-05-21_12h09.05.261,cuing_paradigm_dot,2024.1.5,Win32,59.52380952,682d556593cb38ad0a074487,,,,,,,,,,,407.5005,407.999,,,408.2498,408.8815,right,0.617,,,,,,,,,0.6,,,,,,407.999,408.2497,408.8816,"[-0.15762945442447757,-0.01513185150423384]","[1,1,1]","[0.02614149560109868,0.16479225053983942]","[-1,-1,-1]","[-0.11552999847829441,0.014464540168111715]","[1,1,1]","[0.13477775083348384,-0.07458445485171405]","[1,1,1]","[0.14704987029570102,0.021791557166940673]","[-1,-1,-1]","[0.0008584930160472375,0.09902707374016612]","[-1,-1,-1]","[0.12916684495009617,0.0734804763045344]","[-1,-1,-1]","[0.013479574407208138,-0.12335076393095346]","[1,1,1]","[-0.14553555653495281,0.09564695626173719]","[1,1,1]","[-0.10690850343478102,0.07302406392578155]","[1,1,1]","[-0.00784772413217029,0.015469404897741715]","[1,1,1]","[-0.17780687900610345,0.062022083875037]","[1,1,1]","[0.04156633611656705,0.056839771736717]","[1,1,1]","[0.062256008991068396,0.12335445378349283]","[-1,-1,-1]","[0.06164614003972289,-0.08573488403080247]","[-1,-1,-1]","[-0.03826973742325476,-0.12430021703024192]","[-1,-1,-1]","[-0.07525681151444857,-0.052799957830182216]","[1,1,1]","[0.19834829013489755,-0.019652184182465476]","[1,1,1]","[-0.020589719615510847,0.18231320130399487]","[1,1,1]","[-0.06743964902308358,-0.1767605611238465]","[-1,-1,-1]","[0.07545409916031469,-0.14620664604993433]","[1,1,1]","[-0.14158980386058095,-0.10318451677657632]","[-1,-1,-1]","[0.03543193741412617,-0.03177803271583677]","[1,1,1]","[0.09121226737832694,-0.025158453988869307]","[-1,-1,-1]","[-0.049924213388260315,0.006067095257889181]","[-1,-1,-1]","[-0.19243097550959856,0.01698205763879219]","[1,1,1]","[-0.08773884913667189,-0.13701598040322158]","[-1,-1,-1]","[0.15470952077798503,-0.11474777775320047]","[1,1,1]","[-0.13068692398125065,-0.05401918878165698]","[1,1,1]","[-0.07474152122674058,0.18111993858717007]","[-1,-1,-1]","[-0.02966105652862286,-0.03078838197752863]","[1,1,1]","[0.06107645315207408,0.021110073015761247]","[1,1,1]","[0.02,0.02]",409.9803,0,11,11,169,1,,,,,,,
,,,,,,,5d20f6cbc1dc1c0001162dd5,682db4326b9c76ba50129f39,2025-05-21_12h09.05.261,cuing_paradigm_dot,2024.1.5,Win32,59.52380952,682d556593cb38ad0a074487,,,,,,,,,,,409.9815,410.4797,,,410.7305,411.2969,left,0.5566,,,,,,,,,0.6,,,,,,410.4797,410.7305,411.2969,"[-0.05551612441500471,0.17319766024573802]","[-1,-1,-1]","[0.15991717464280228,0.0030319924684086923]","[-1,-1,-1]","[0.007889368625567123,-0.006057601790153567]","[1,1,1]","[0.10910232900791396,0.14670279187879967]","[1,1,1]","[0.03880740157812642,0.16946978290026304]","[-1,-1,-1]","[-0.14661382295449824,-0.1331195185861644]","[-1,-1,-1]","[-0.12032602289123352,0.054030680267481875]","[1,1,1]","[-0.058951377463407825,0.12628330692283649]","[-1,-1,-1]","[-0.041422358145207915,-0.09136381873603978]","[-1,-1,-1]","[0.07978056356739613,-0.04906371515341086]","[-1,-1,-1]","[0.06035614511800205,0.12020547873303492]","[1,1,1]","[-0.12072044385648861,0.11361345009972618]","[1,1,1]","[-0.06430248509042269,0.02973653139630151]","[-1,-1,-1]","[0.14076957469907528,0.05952891877666258]","[1,1,1]","[-0.007053128174231905,0.14564229694569086]","[1,1,1]","[0.15926798373494802,-0.09013210483005323]","[1,1,1]","[-0.0302010331194672,0.06611482652466197]","[1,1,1]","[0.10273050720822624,-0.1425979090794954]","[1,1,1]","[0.053386935342125325,-0.12038388899162064]","[1,1,1]","[0.0934789295500502,0.05869756031515877]","[1,1,1]","[0.030925848502130402,-0.049080447316924646]","[1,1,1]","[-0.10631521221634767,-0.040524374471336055]","[-1,-1,-1]","[-0.0006367249455753706,-0.08802050115684491]","[-1,-1,-1]","[0.025993428977476522,0.06685630810951844]","[-1,-1,-1]","[-0.16024734743165567,-0.08292714657861662]","[1,1,1]","[0.11032187092880112,-0.0863586259351625]","[1,1,1]","[0.14414620099368822,-0.051621978244635255]","[1,1,1]","[-0.03861861275697728,-0.012739253043278697]","[1,1,1]","[0.05956493532122848,-0.18304072174744812]","[-1,-1,-1]","[-0.07378923275369888,-0.17054001781151717]","[1,1,1]","[-0.020820087472279196,-0.16233263166407744]","[-1,-1,-1]","[-0.1819289218294979,0.021871106585183254]","[1,1,1]","[0.02,0.02]",412.3941,0,12,12,151,1,,,,,,,
,,,,,,,5d20f6cbc1dc1c0001162dd5,682db4326b9c76ba50129f39,2025-05-21_12h09.05.261,cuing_paradigm_dot,2024.1.5,Win32,59.52380952,682d556593cb38ad0a074487,,,,,,,,,,,412.3952,412.8927,,,413.1444,414.3754,left,1.2176,,,,,,,,,0.55,,,,,,412.8927,413.1443,414.3755,"[-0.03401472798984506,-0.13479470975904392]","[1,1,1]","[-0.048229677346094055,-0.17554389632970577]","[-1,-1,-1]","[0.025416702235362104,-0.11603634585535093]","[1,1,1]","[-0.019814634288071533,0.03648733869393473]","[1,1,1]","[-0.0645835541793901,0.001042226875714627]","[-1,-1,-1]","[0.0670377318640165,-0.09241571264181056]","[1,1,1]","[0.05200244304922159,0.034078630279162046]","[-1,-1,-1]","[-0.0866709333734342,-0.12005185204500853]","[1,1,1]","[-0.1591375525165223,-0.04930781781052392]","[1,1,1]","[-0.03004081769342711,0.168334662614227]","[-1,-1,-1]","[0.13736889976452524,0.005798711715840108]","[1,1,1]","[-0.11189276694587597,-0.08792649262085876]","[-1,-1,-1]","[0.0322832874909484,0.14483741692206772]","[-1,-1,-1]","[-0.03285061070473405,-0.053637415499878015]","[-1,-1,-1]","[0.10230170842383826,0.04338555134721529]","[-1,-1,-1]","[-0.18771192351539545,0.04949432823996728]","[1,1,1]","[-0.026280337200713072,0.09183577496547407]","[-1,-1,-1]","[-0.13711345120378218,0.04819631825322282]","[1,1,1]","[0.16375272256352366,-0.03562036344272096]","[1,1,1]","[0.08139355627087888,-0.0072228940816100075]","[-1,-1,-1]","[0.18088785408211172,0.0701931392333406]","[1,1,1]","[0.1394577029309043,0.13911152965084275]","[-1,-1,-1]","[0.016429411074351332,-0.1924624273422254]","[1,1,1]","[-0.055747735565213064,0.05798300245592016]","[-1,-1,-1]","[0.12050110207200217,-0.11374205462670646]","[1,1,1]","[0.014369163610803084,0.008046650985532738]","[1,1,1]","[-0.0237890847479712,-0.013689868998243253]","[1,1,1]","[0.17604431875518728,-0.09252825137332857]","[1,1,1]","[-0.10897136598784413,-0.04206432493087965]","[1,1,1]","[0.09430702519782264,0.14613020186305475]","[-1,-1,-1]","[-0.14652817667548396,0.00015696647578130536]","[-1,-1,-1]","[0.029250156002871685,0.09752417146439829]","[1,1,1]","[0.02,0.02]",415.4744,0,13,13,147,1,,,,,,,
,,,,,,,5d20f6cbc1dc1c0001162dd5,682db4326b9c76ba50129f39,2025-05-21_12h09.05.261,cuing_paradigm_dot,2024.1.5,Win32,59.52380952,682d556593cb38ad0a074487,,,,,,,,,,,415.4753,415.9736,,,416.2243,416.9398,right,0.7003,,,,,,,,,0.4,,,,,,415.9736,416.2242,416.9399,"[-0.017522219735128405,0.1878542293360525]","[-1,-1,-1]","[-0.1301105270275818,0.08167727238023512]","[1,1,1]","[-0.16195347790541822,-0.027952575439291073]","[-1,-1,-1]","[-0.07402844273711078,0.032655073710388664]","[1,1,1]","[0.061008741926217844,0.1589298325174231]","[-1,-1,-1]","[-0.0710261857719148,0.0898298763895189]","[-1,-1,-1]","[0.032389290614468,-0.19656648036382843]","[1,1,1]","[-0.05700085024109977,-0.06542808535169793]","[-1,-1,-1]","[-0.1134901722535674,-0.06789499789525251]","[-1,-1,-1]","[0.10120640609060087,-0.06919929181027873]","[1,1,1]","[-0.13395851313541524,0.12489723163594843]","[1,1,1]","[-0.022061210050905444,-0.006218684607335979]","[1,1,1]","[-0.0751103685082104,-0.13257391946971267]","[1,1,1]","[0.007858792516706143,0.02666481402732211]","[1,1,1]","[0.031877117785920006,-0.0588125365813213]","[1,1,1]","[0.14406143492082746,0.12466055569482856]","[-1,-1,-1]","[-0.037325770215873466,-0.18946889975406778]","[-1,-1,-1]","[0.16327597445241507,-0.1136620578238829]","[-1,-1,-1]","[0.009159276024174223,-0.09984867801871045]","[-1,-1,-1]","[0.1456962518771266,-0.024787289202661756]","[-1,-1,-1]","[-0.11575853036792394,-0.12920718331321782]","[-1,-1,-1]","[0.03988172828911066,0.06372653200469924]","[1,1,1]","[0.01159074519740999,-0.1450667603256844]","[-1,-1,-1]","[-0.19791052991829583,-0.005572957827250629]","[-1,-1,-1]","[-0.014712765526647435,0.08364721671010808]","[1,1,1]","[-0.11434927783027551,0.004968097731604961]","[1,1,1]","[0.02377341456986951,0.19521162098816264]","[-1,-1,-1]","[0.1632128096278376,0.03986166087477823]","[-1,-1,-1]","[0.06352980122803631,-0.13134852879305836]","[-1,-1,-1]","[-0.05042579673591671,0.1407301833756388]","[-1,-1,-1]","[-0.15961726905273602,-0.08143110919037044]","[-1,-1,-1]","[0.08942623344475584,-0.013725394454401107]","[1,1,1]","[0.02,0.02]",418.0377,0,14,14,41,1,,,,,,,
,,,,,,,5d20f6cbc1dc1c0001162dd5,682db4326b9c76ba50129f39,2025-05-21_12h09.05.261,cuing_paradigm_dot,2024.1.5,Win32,59.52380952,682d556593cb38ad0a074487,,,,,,,,,,,418.0388,418.5373,,,418.7876,419.3869,left,0.5845,,,,,,,,,0.45,,,,,,418.5375,418.7875,419.387,"[-0.11707683527846786,0.13852933217225236]","[1,1,1]","[-0.1340863835718958,0.0584281618956529]","[-1,-1,-1]","[0.061678194514811255,-0.14064188505430703]","[-1,-1,-1]","[0.08174281726900694,0.12326188499149236]","[-1,-1,-1]","[-0.18805023017426062,0.06104749928784888]","[1,1,1]","[0.10823390485834587,0.1542231906204981]","[1,1,1]","[0.10662803537816233,-0.023446410688716352]","[1,1,1]","[-0.04843061705339763,0.08649197309310101]","[1,1,1]","[-0.032818295512580385,-0.0518789431412952]","[1,1,1]","[0.16848549345697125,-0.08347462174944796]","[-1,-1,-1]","[-0.07326202900729073,0.1575363149159802]","[1,1,1]","[0.016652638676728775,0.17786668701040795]","[1,1,1]","[0.01940280825815055,-0.007833445911790816]","[1,1,1]","[-0.11180574883522405,-0.0676435855629464]","[1,1,1]","[-0.16716847182780756,0.02253707496618461]","[-1,-1,-1]","[-0.18098939232292044,-0.04346337725380726]","[-1,-1,-1]","[-0.05775638752895806,-0.13845778993223187]","[-1,-1,-1]","[-0.025128547244723794,0.0393811354144241]","[-1,-1,-1]","[-0.030930496551736054,0.17787183107128712]","[-1,-1,-1]","[-0.021875419075612215,-0.11191182395160815]","[1,1,1]","[-0.15013526410218922,0.10516721934850405]","[-1,-1,-1]","[0.0791649894603518,0.020873941462121532]","[-1,-1,-1]","[0.07214800353828563,-0.06633643093819175]","[1,1,1]","[0.09732942448957471,0.07693122683379383]","[-1,-1,-1]","[0.11611359186057567,-0.1544666210456437]","[-1,-1,-1]","[0.17556885744137482,0.0007149059891645873]","[1,1,1]","[0.12984845419257612,0.018596239882621757]","[-1,-1,-1]","[-0.11469223993511964,-0.14650448080230777]","[1,1,1]","[0.005531958637841894,0.06973078778744297]","[-1,-1,-1]","[-0.08960367684905395,-0.01376095398982075]","[-1,-1,-1]","[-0.020985891159868725,-0.19087808786752136]","[-1,-1,-1]","[0.025742426607398103,-0.10653512667824526]","[-1,-1,-1]","[0.02,0.02]",420.4852,0,15,15,73,1,,,,,,,
,,,,,,,5d20f6cbc1dc1c0001162dd5,682db4326b9c76ba50129f39,2025-05-21_12h09.05.261,cuing_paradigm_dot,2024.1.5,Win32,59.52380952,682d556593cb38ad0a074487,,,,,,,,,,,420.4859,420.9847,,,421.2356,421.7841,right,0.5347,,,,,,,,,0.55,,,,,,420.9849,421.2355,421.7842,"[-0.10857061211832707,-0.10821316613083434]","[1,1,1]","[0.1477155846181329,0.08630970967640426]","[1,1,1]","[0.19176552533233585,-0.04390265295780046]","[1,1,1]","[-0.060999236698716104,0.1389960113429515]","[-1,-1,-1]","[0.0013827941370588757,0.07048826028937501]","[1,1,1]","[-0.15511017468992525,-0.03791241570337245]","[1,1,1]","[-0.19343536733518057,0.02418620237910731]","[-1,-1,-1]","[-0.12271162969151543,-0.002843976872863668]","[-1,-1,-1]","[0.009003106603407385,0.0208820291062153]","[-1,-1,-1]","[0.07097912345365558,-0.043982529953029356]","[-1,-1,-1]","[0.04831267449729788,0.09844007319436698]","[1,1,1]","[-0.0022522586977377127,0.14250548424566692]","[1,1,1]","[-0.1466085113914288,0.07374030686117533]","[-1,-1,-1]","[0.03092793027324909,-0.06390492405274856]","[-1,-1,-1]","[-0.027565704385814904,-0.11206588460790103]","[-1,-1,-1]","[-0.14739525878404355,-0.09688815219813485]","[1,1,1]","[0.1053551779316769,0.12159658750837982]","[1,1,1]","[0.022979597625128897,-0.19237981163285583]","[1,1,1]","[0.05468731420733061,0.14567384713644732]","[1,1,1]","[-0.06505941547769792,0.016782165183667746]","[1,1,1]","[-0.09363631323490648,0.11108958936907733]","[-1,-1,-1]","[0.10378753775375514,-0.16297480694123712]","[1,1,1]","[0.023852112733626283,-0.024189138177869333]","[1,1,1]","[0.1206757258264947,-0.12241931107078473]","[-1,-1,-1]","[0.1751766650583037,0.046670356866466756]","[1,1,1]","[-0.05014192519509023,-0.15241317028927698]","[1,1,1]","[0.11722113069762478,-0.015128405368738863]","[1,1,1]","[0.10687092280294101,0.041022572642686154]","[-1,-1,-1]","[0.15425038276316383,-0.07443792180913425]","[-1,-1,-1]","[-0.058949094721639485,0.0757984024817925]","[-1,-1,-1]","[-0.040727355162674686,-0.02959114289625156]","[-1,-1,-1]","[0.04882723908848189,-0.10698448240316603]","[1,1,1]","[0.02,0.02]",422.8825,0,16,16,128,1,,,,,,,
,,,,,,,5d20f6cbc1dc1c0001162dd5,682db4326b9c76ba50129f39,2025-05-21_12h09.05.261,cuing_paradigm_dot,2024.1.5,Win32,59.52380952,682d556593cb38ad0a074487,,,,,,,,,,,422.8833,423.3821,,,423.6326,424.1167,right,0.4743,,,,,,,,,0.9,,,,,,423.3823,423.6325,424.1168,"[0.009366627518942567,0.16009102822909543]","[1,1,1]","[-0.12953622185474525,-0.010361504666610908]","[1,1,1]","[-0.05413532624433823,0.18869404728677855]","[1,1,1]","[0.12831533020230243,-0.08760767998878496]","[1,1,1]","[-0.03252250020413843,-0.07311332527534538]","[1,1,1]","[-0.05415917685309406,0.12170335264070176]","[1,1,1]","[0.06923243271983433,-0.11098866186405117]","[1,1,1]","[0.026769064996240488,-0.1820992676104604]","[1,1,1]","[0.054976429823298124,-0.03972352416260785]","[1,1,1]","[-0.05824533606935288,0.04857610913664968]","[1,1,1]","[0.09649811856592806,0.16192168133663476]","[1,1,1]","[0.14244689140118016,0.08435943243294429]","[1,1,1]","[-0.02613205855209891,-0.1796294970663596]","[1,1,1]","[0.12584981320502803,-0.022797451117971733]","[-1,-1,-1]","[0.0719414647354649,-0.16991813481445653]","[1,1,1]","[-0.1882088678428725,-0.06534140760130024]","[1,1,1]","[-0.12282671098543481,0.13829210356722307]","[1,1,1]","[-0.016813748695402034,-0.03533006627469869]","[1,1,1]","[0.07534811724053771,0.062110973810733536]","[1,1,1]","[0.16778543701710644,0.048313027966420945]","[1,1,1]","[0.18191935967885872,-0.025309770652410177]","[1,1,1]","[0.10771713157014359,-0.12343700096198804]","[-1,-1,-1]","[-0.17867803308168215,0.013801857541539545]","[1,1,1]","[-0.07618568082111868,-0.17123683429345707]","[-1,-1,-1]","[-0.1493172083501163,-0.12961882805542593]","[1,1,1]","[-0.1368758586821235,0.07556645942271036]","[1,1,1]","[-0.08286642250426147,-0.02073464790866528]","[1,1,1]","[0.049813665954452,0.02437106669398819]","[1,1,1]","[0.004226712388002381,-0.1285967283578264]","[1,1,1]","[-0.13939449660449163,-0.0498062966494767]","[1,1,1]","[0.012247013612083623,0.055892522913326595]","[1,1,1]","[0.09453232194670784,0.023369544842377573]","[1,1,1]","[0.02,0.02]",425.2135,0,17,17,182,1,,,,,,,
,,,,,,,5d20f6cbc1dc1c0001162dd5,682db4326b9c76ba50129f39,2025-05-21_12h09.05.261,cuing_paradigm_dot,2024.1.5,Win32,59.52380952,682d556593cb38ad0a074487,,,,,,,,,,,425.2143,425.7127,,,425.9641,426.4957,right,0.5199,,,,,,,,,0.9,,,,,,425.7128,425.9639,426.4959,"[-0.12796701448273595,0.08753037393269071]","[-1,-1,-1]","[-0.030653297353744703,-0.0775130529185274]","[1,1,1]","[-0.14418744868331385,-0.10700901764140108]","[-1,-1,-1]","[-0.07237356783235656,0.14634213082564826]","[1,1,1]","[0.10599692057127576,0.16607900913893342]","[1,1,1]","[0.13797443142230606,-0.05393507483036161]","[1,1,1]","[-0.16085274559692028,0.025542610168044422]","[1,1,1]","[-0.10526994318279292,-0.003153765603623228]","[1,1,1]","[-0.07982039861041204,-0.17270424988902144]","[1,1,1]","[0.1637128510188161,0.06910766692472926]","[1,1,1]","[0.06367969693350599,0.0025660783867785886]","[1,1,1]","[-0.01669291976987288,0.00801448837322855]","[1,1,1]","[0.028744500293159822,0.17187841614424876]","[1,1,1]","[0.025204011397567092,-0.17624882543761144]","[1,1,1]","[-0.0708080062244979,-0.11281643287223961]","[1,1,1]","[0.015434831213170333,-0.13574446014664085]","[1,1,1]","[0.1091562822219957,0.12019948821374511]","[1,1,1]","[0.03803627983425698,-0.09270474121115076]","[1,1,1]","[-0.05123162276723424,0.11201893023098261]","[1,1,1]","[0.037678659771298785,0.0650506566824492]","[1,1,1]","[-0.0996192254132647,0.0434074891429226]","[1,1,1]","[-0.10247666322943076,-0.061824585144004504]","[-1,-1,-1]","[0.07161746705529012,-0.1287316918720183]","[1,1,1]","[0.18016710367061659,0.014565306772350305]","[1,1,1]","[0.12882252190555554,-0.0004469173135131597]","[1,1,1]","[0.0907762968133681,0.03600195707600116]","[1,1,1]","[0.024207424903883733,-0.011105415486219352]","[1,1,1]","[0.07842090605700384,-0.06512333522948255]","[1,1,1]","[-0.012242436424173612,0.16691625602698748]","[1,1,1]","[-0.1159187464067085,0.1453338850661263]","[1,1,1]","[0.11913942341467822,-0.12233715526224086]","[1,1,1]","[-0.15032582331005864,-0.04624797758785492]","[1,1,1]","[0.02,0.02]",427.5942,0,18,18,187,1,,,,,,,
,,,,,,,5d20f6cbc1dc1c0001162dd5,682db4326b9c76ba50129f39,2025-05-21_12h09.05.261,cuing_paradigm_dot,2024.1.5,Win32,59.52380952,682d556593cb38ad0a074487,,,,,,,,,,,427.595,428.0931,,,428.3363,428.8529,right,0.5009,,,,,,,,,0.5,,,,,,428.0932,428.3362,428.853,"[-0.0199418669647925,-0.0035699042224961257]","[1,1,1]","[0.10836529377145308,-0.1446933970882971]","[-1,-1,-1]","[0.05467378241994851,-0.006952035953260516]","[-1,-1,-1]","[0.011351843634448008,0.05428616701322838]","[-1,-1,-1]","[-0.02795938288573379,0.1923763034067506]","[1,1,1]","[0.17705294269916483,-0.0253970506043105]","[1,1,1]","[-0.032020503666925104,-0.076733843721721]","[-1,-1,-1]","[0.13415504502937178,0.021926240754497357]","[-1,-1,-1]","[-0.15356073414981533,0.07410345907373762]","[1,1,1]","[0.17817740218417844,0.0678801795682721]","[-1,-1,-1]","[-0.04689724650640002,0.06948220924098006]","[-1,-1,-1]","[-0.09361626268459661,0.11142304163233817]","[-1,-1,-1]","[0.09189953170267966,0.16132805538603986]","[1,1,1]","[-0.13166541797938142,-0.009275952165481076]","[-1,-1,-1]","[-0.07076091680564796,-0.13676931059657194]","[-1,-1,-1]","[0.008384570207224154,-0.0653316760795764]","[-1,-1,-1]","[0.04921483015971113,-0.1530543791209251]","[-1,-1,-1]","[0.11891066910073873,-0.02579303257734307]","[1,1,1]","[-0.10174881682266046,0.0628227016884395]","[-1,-1,-1]","[-0.1878475470758382,0.016178736703223343]","[-1,-1,-1]","[-0.0919260923517398,0.16926255852842176]","[1,1,1]","[-0.03290118071204605,0.15002212462710263]","[1,1,1]","[-0.13227316210252837,-0.10883228330617849]","[-1,-1,-1]","[0.08113047080247407,0.08985919736124168]","[1,1,1]","[-0.06897504008253907,-0.1871567160976274]","[1,1,1]","[-0.06582270019982828,-0.034018839149319184]","[1,1,1]","[-0.13632210990923693,-0.06593322213834851]","[1,1,1]","[-0.01158571225535899,-0.1483833211288039]","[-1,-1,-1]","[-0.19315159927679573,-0.046635006824998]","[1,1,1]","[0.02143898890221749,0.17385476276651993]","[1,1,1]","[0.012670564287063259,0.12787392399473857]","[1,1,1]","[0.0314294915741159,-0.19621030362883632]","[1,1,1]","[0.02,0.02]",429.9501,0,19,19,93,1,,,,,,,
,,,,,,,5d20f6cbc1dc1c0001162dd5,682db4326b9c76ba50129f39,2025-05-21_12h09.05.261,cuing_paradigm_dot,2024.1.5,Win32,59.52380952,682d556593cb38ad0a074487,,,,,,,,,,,429.951,430.4496,,,430.6913,431.4894,right,0.7668,,,,,,,,,0.6,,,,,,430.4497,430.691,431.4894,"[0.020267971207277795,-0.05257093601934259]","[-1,-1,-1]","[0.18541941594367628,0.06947441238749415]","[1,1,1]","[0.10872787464614905,-0.052445081565289715]","[1,1,1]","[-0.060054812968239495,0.14775110426325685]","[1,1,1]","[-0.08206033049805149,0.07250968011739693]","[-1,-1,-1]","[0.09906884254658882,-0.15152199964760144]","[-1,-1,-1]","[0.06581362753735213,-0.12199644307324012]","[-1,-1,-1]","[0.0259889323484021,0.05736994720363016]","[1,1,1]","[0.017289259359905,-0.17922396665750548]","[-1,-1,-1]","[-0.001159689607820041,-0.12212165494311543]","[-1,-1,-1]","[-0.08051230081057247,-0.10785619522362817]","[-1,-1,-1]","[-0.16196804399370243,0.01773176148008305]","[1,1,1]","[0.17279419265786403,-0.08420313022891421]","[1,1,1]","[-0.12379881307940091,0.03331213510725929]","[-1,-1,-1]","[0.14307692724525425,0.002023008257972481]","[-1,-1,-1]","[-0.17460209483369302,0.055955398794216134]","[-1,-1,-1]","[-0.12195017115169417,-0.09115441985065806]","[1,1,1]","[-0.014706079981471167,-0.07613311391217642]","[1,1,1]","[0.09629842444462386,0.07549742251086952]","[-1,-1,-1]","[0.06784267075483945,0.11316093693718078]","[-1,-1,-1]","[0.017543395190823277,0.17785651678787368]","[1,1,1]","[0.026673988270115245,0.13429159860132486]","[1,1,1]","[-0.09199424743055151,-0.062295675918556]","[1,1,1]","[0.08713550248408766,0.02303790287976842]","[1,1,1]","[0.18093894654285542,-0.013432744288863634]","[1,1,1]","[0.07110248112576119,-0.023956818989977088]","[1,1,1]","[-0.05232132052183938,-0.05130891551327249]","[1,1,1]","[-0.024277885667205346,0.18936887604336453]","[1,1,1]","[-0.16189327611689017,0.1152930989728873]","[1,1,1]","[0.13559790423169985,0.10610634651900273]","[-1,-1,-1]","[0.12840046521376353,0.0435436215019031]","[1,1,1]","[0.10752553402744201,0.15320399703520218]","[1,1,1]","[0.02,0.02]",432.588,0,20,20,178,1,,,,,,,
,,,,,,,5d20f6cbc1dc1c0001162dd5,682db4326b9c76ba50129f39,2025-05-21_12h09.05.261,cuing_paradigm_dot,2024.1.5,Win32,59.52380952,682d556593cb38ad0a074487,,,,,,,,,,,432.5889,433.0874,,,433.3294,433.8204,right,0.4706,,,,,,,,,0.55,,,,,,433.0876,433.3293,433.8205,"[0.17452555926616437,-0.09545139377181101]","[1,1,1]","[-0.0038835461887383417,0.11338806080594512]","[1,1,1]","[0.06149633309243462,-0.05071639407827302]","[1,1,1]","[-0.09261789904402981,0.05077804726421384]","[-1,-1,-1]","[-0.1715564025366083,0.06623791105262128]","[-1,-1,-1]","[0.0428021088681948,-0.14202332446680144]","[-1,-1,-1]","[0.11440712791156597,0.023892009527483115]","[1,1,1]","[-0.05331190596847673,-0.1056655429345523]","[1,1,1]","[0.13311051552985334,-0.06268436002424757]","[-1,-1,-1]","[-0.11475658410706849,-0.09160557132512491]","[-1,-1,-1]","[0.10728554309866731,0.09769147926979965]","[-1,-1,-1]","[-0.04559946545205868,-0.1941138662657292]","[-1,-1,-1]","[-0.027094499906571385,-0.01316130785802548]","[1,1,1]","[-0.04967437791027958,0.16847040364793137]","[1,1,1]","[-0.09299647111670135,-0.1536563776919007]","[1,1,1]","[0.06291975906865137,0.12820060567738148]","[-1,-1,-1]","[0.037912894123357674,-0.19340971904752763]","[-1,-1,-1]","[-0.009072275919246654,0.058103497548582246]","[1,1,1]","[-0.08498400426269016,-0.024053913971814448]","[-1,-1,-1]","[0.09102260083347477,-0.01700554500913025]","[-1,-1,-1]","[0.05030278951257948,0.006982140279748154]","[1,1,1]","[-0.17369319446068515,-0.020769425612273306]","[1,1,1]","[-0.17276544932675786,0.02467670626380693]","[1,1,1]","[0.04975653251961821,0.059139258181821495]","[1,1,1]","[-0.12092775905934769,0.13325569720201916]","[1,1,1]","[0.15281539009866915,0.06792832338197619]","[-1,-1,-1]","[0.09169011010340261,-0.17687546814512156]","[1,1,1]","[0.0847033746748775,-0.1265682664360536]","[-1,-1,-1]","[-0.1314540957584594,-0.022777407675816923]","[-1,-1,-1]","[0.07048355628697017,0.17073215243549406]","[1,1,1]","[0.1884778786964599,0.049015809708751794]","[1,1,1]","[0.17480091974633932,-0.01925614900085191]","[1,1,1]","[0.02,0.02]",434.9186,0,21,21,145,1,,,,,,,
,,,,,,,5d20f6cbc1dc1c0001162dd5,682db4326b9c76ba50129f39,2025-05-21_12h09.05.261,cuing_paradigm_dot,2024.1.5,Win32,59.52380952,682d556593cb38ad0a074487,,,,,,,,,,,434.9196,435.4183,,,435.669,436.036,left,0.3554,,,,,,,,,0.1,,,,,,435.4184,435.669,436.0361,"[0.09002184122661408,0.131323500595102]","[-1,-1,-1]","[-0.1791466334432368,-0.03034817478275258]","[-1,-1,-1]","[0.1450364714464092,0.07705608828844895]","[-1,-1,-1]","[-0.047783939198955586,0.09533622052236725]","[-1,-1,-1]","[-0.19356466581448453,0.011705075969214081]","[-1,-1,-1]","[0.17726741053305076,-0.09071999155486077]","[-1,-1,-1]","[-0.00557143297954988,0.0060279800709654476]","[-1,-1,-1]","[-0.14250902096840073,-0.08728637379956973]","[-1,-1,-1]","[-0.012825517565313046,-0.12574967434823267]","[-1,-1,-1]","[0.015259894302412098,0.1416987840094921]","[-1,-1,-1]","[-0.08511225378811532,0.014146949308692083]","[-1,-1,-1]","[-0.07156178054581208,0.18581996483285454]","[-1,-1,-1]","[-0.0409431350317589,-0.15858048123648202]","[1,1,1]","[0.09454736200164343,-0.054827067921436164]","[-1,-1,-1]","[0.1294706113353421,-0.10099513834452171]","[-1,-1,-1]","[0.003752556552586732,-0.08051804795327336]","[-1,-1,-1]","[0.04938857719092818,0.028916660111183167]","[-1,-1,-1]","[-0.08137952392783848,-0.07994131239675868]","[-1,-1,-1]","[-0.03713645345302849,-0.01926147741294472]","[-1,-1,-1]","[-0.10227077201128071,0.14920297633651292]","[-1,-1,-1]","[0.02465016806858574,-0.15839607935591193]","[1,1,1]","[0.01028672783743023,0.09443884624406194]","[-1,-1,-1]","[0.00629112010065372,0.1832199340751565]","[1,1,1]","[0.10596375223945133,0.027587151231561864]","[-1,-1,-1]","[0.03747644070278503,-0.039442606742958734]","[-1,-1,-1]","[0.15849490538197,0.016687583117263236]","[-1,-1,-1]","[-0.1531592657061067,0.03767837417142754]","[-1,-1,-1]","[-0.0905209075404816,0.08021586953754481]","[-1,-1,-1]","[0.03519085785836943,-0.11130737008201479]","[-1,-1,-1]","[-0.13735893805122026,0.09011352704049716]","[-1,-1,-1]","[0.08344921025395677,-0.14085188143727795]","[-1,-1,-1]","[0.07202538005607485,-0.09493981001510306]","[-1,-1,-1]","[0.02,0.02]",437.133,0,22,22,6,1,,,,,,,
,,,,,,,5d20f6cbc1dc1c0001162dd5,682db4326b9c76ba50129f39,2025-05-21_12h09.05.261,cuing_paradigm_dot,2024.1.5,Win32,59.52380952,682d556593cb38ad0a074487,,,,,,,,,,,437.134,437.6325,,,437.8839,438.2827,right,0.3867,,,,,,,,,0.9,,,,,,437.6327,437.8838,438.2829,"[-0.0009331801727078861,-0.17640426360207256]","[1,1,1]","[-0.0016930251583699455,0.08014238580288961]","[1,1,1]","[0.06867397278478544,0.11718795208059668]","[1,1,1]","[-0.05435770524453918,0.047409940966963236]","[1,1,1]","[-0.07264094707120904,0.004222252718237614]","[1,1,1]","[-0.010919396936417969,0.019714635954401708]","[1,1,1]","[0.045446649176506176,-0.14427871389848568]","[1,1,1]","[-0.058992761048911366,0.16279438054912354]","[1,1,1]","[-0.07768878034028245,-0.0697517332422473]","[1,1,1]","[0.14658053355970663,0.11480232792976423]","[1,1,1]","[-0.006830978353153245,-0.06828354684663698]","[1,1,1]","[0.1841997467417344,0.008430685457566603]","[1,1,1]","[-0.07515313887512183,0.08910661778399245]","[1,1,1]","[0.1519922031808006,-0.04010441305403347]","[1,1,1]","[0.13195170747744217,-0.1172946229042542]","[1,1,1]","[-0.11835095482648994,-0.1378334355360127]","[1,1,1]","[0.026800947391014195,-0.025703634967181206]","[1,1,1]","[-0.18017903466795127,-0.047070557598717554]","[1,1,1]","[-0.04784519631228605,-0.16940239517875538]","[-1,-1,-1]","[-0.009019812038536076,0.18180433348075592]","[1,1,1]","[-0.16546745538331084,0.002027232166587165]","[1,1,1]","[0.06453954645246544,-0.10354649984011367]","[-1,-1,-1]","[0.07719682737199926,0.00520718297907941]","[1,1,1]","[0.032247701572186205,0.04641237795694717]","[-1,-1,-1]","[-0.03681124665939565,-0.029755088713191928]","[1,1,1]","[-0.13913127516050128,0.0670347796148807]","[1,1,1]","[-0.10786138057798282,0.14803760294227783]","[1,1,1]","[-0.022924276889174183,0.12368537099731798]","[1,1,1]","[0.08909008505671681,0.1587335979141135]","[1,1,1]","[0.08395200283293106,0.05231819503136239]","[1,1,1]","[-0.17972535702546513,0.042646220935303375]","[1,1,1]","[0.0663969469782165,-0.05233465010291238]","[1,1,1]","[0.02,0.02]",439.3811,0,23,23,190,1,,,,,,,
,,,,,,,5d20f6cbc1dc1c0001162dd5,682db4326b9c76ba50129f39,2025-05-21_12h09.05.261,cuing_paradigm_dot,2024.1.5,Win32,59.52380952,682d556593cb38ad0a074487,,,,,,,,,,,439.3819,439.8807,,,440.1316,440.6301,left,0.4848,,,,,,,,,0.1,,,,,,439.8808,440.1315,440.6302,"[0.0029718458218604945,0.001469568655863947]","[-1,-1,-1]","[-0.16403670726094388,-0.05686846150967338]","[-1,-1,-1]","[0.14322938328387183,0.012525066159885087]","[-1,-1,-1]","[-0.10496308290481952,0.05783271766730434]","[-1,-1,-1]","[0.0548337074133802,-0.15487727814387897]","[-1,-1,-1]","[-0.03795224245143769,0.14961576401485768]","[-1,-1,-1]","[0.09658409971397676,-0.07236156285042517]","[-1,-1,-1]","[-0.00931761201664489,-0.06591339723890592]","[-1,-1,-1]","[-0.033644094814231675,-0.15571737331488206]","[-1,-1,-1]","[0.1671431979089035,-0.0956192627603401]","[1,1,1]","[-0.1730492025656302,0.07605398966710178]","[-1,-1,-1]","[0.0009979256947755676,0.11682657261746039]","[1,1,1]","[-0.0853453478776456,-0.12951563117973577]","[-1,-1,-1]","[-0.15750962599854204,-0.0006908434946694028]","[1,1,1]","[0.026181567666129398,-0.1975058781659148]","[-1,-1,-1]","[-0.04974376764124015,0.1106272958986426]","[-1,-1,-1]","[0.08898357083379743,0.12491569836290965]","[-1,-1,-1]","[-0.10342307097989169,0.14397927187711115]","[-1,-1,-1]","[0.18334999113184997,-0.05571813527394449]","[-1,-1,-1]","[-0.10384708586056404,-0.06535048414626049]","[-1,-1,-1]","[0.10842487041301958,-0.1463344806279771]","[-1,-1,-1]","[-0.01880112353821601,0.08115761307211661]","[-1,-1,-1]","[0.03350925168711057,0.14900964581609552]","[-1,-1,-1]","[-0.07119641481340856,0.17634960570071334]","[-1,-1,-1]","[0.03201523560137618,0.08262887545858053]","[-1,-1,-1]","[-0.046616497080890294,0.013722599411546826]","[-1,-1,-1]","[0.09581661755528129,0.0378729693905781]","[-1,-1,-1]","[0.1315826800767597,0.08846159468032562]","[-1,-1,-1]","[-0.0878260910330799,-0.016948994153323224]","[-1,-1,-1]","[-0.046076573365789776,-0.11573419871618724]","[-1,-1,-1]","[-0.004578407009502987,0.1823272462226345]","[-1,-1,-1]","[0.04825908255552949,-0.012900164376705686]","[-1,-1,-1]","[0.02,0.02]",441.7285,0,24,24,11,1,,,,,,,
,,,,,,,5d20f6cbc1dc1c0001162dd5,682db4326b9c76ba50129f39,2025-05-21_12h09.05.261,cuing_paradigm_dot,2024.1.5,Win32,59.52380952,682d556593cb38ad0a074487,,,,,,,,,,,441.7294,442.228,,,442.4788,443.0274,right,0.5353,,,,,,,,,0.6,,,,,,442.2281,442.4787,443.0275,"[-0.10189461877697956,-0.14312926768506387]","[-1,-1,-1]","[-0.018044291758893043,-0.08613657129115983]","[-1,-1,-1]","[-0.1496503666668986,0.012440248396877483]","[-1,-1,-1]","[0.0474440011002354,0.13058347263180717]","[-1,-1,-1]","[0.0031229799817652252,0.08066010287107804]","[1,1,1]","[-0.06561705866062764,0.03316776187369997]","[1,1,1]","[-0.11034220349008235,0.08993020230312555]","[-1,-1,-1]","[-0.016234267284245985,0.11805378469642312]","[1,1,1]","[0.0886517351679582,-0.16487425983915013]","[-1,-1,-1]","[0.11280630510553917,0.03670331191996565]","[-1,-1,-1]","[-0.13207692884556432,-0.08662487389148897]","[1,1,1]","[0.00007345162887433718,-0.16371764507443817]","[-1,-1,-1]","[0.14619214750316506,-0.02728923895182737]","[1,1,1]","[0.06183292925574773,-0.06467616519604552]","[1,1,1]","[-0.15232790141810887,-0.0330832442814377]","[-1,-1,-1]","[0.09926469242224142,0.1156677615770315]","[-1,-1,-1]","[-0.17909421800099473,0.08094913721718382]","[1,1,1]","[0.0755877772000512,0.018672663514146797]","[-1,-1,-1]","[-0.015084657096060106,0.177232747526061]","[1,1,1]","[0.0017416951392939797,-0.011255145918673179]","[-1,-1,-1]","[0.0181407536305655,-0.1071516942542902]","[1,1,1]","[0.03222280713952983,0.036676992841680155]","[1,1,1]","[-0.07883480275308274,0.11545054782035089]","[1,1,1]","[-0.05826742275341317,-0.11735260930582446]","[1,1,1]","[0.136905530115219,0.09139692915663711]","[1,1,1]","[-0.10818369829623474,0.04078096244322504]","[1,1,1]","[0.11070086530057142,-0.09427183868458333]","[1,1,1]","[0.15403982923243348,-0.07198917689719246]","[1,1,1]","[0.058409536501081834,0.07341418821769266]","[1,1,1]","[-0.05454935081738448,-0.0679502605233316]","[1,1,1]","[0.12758180156879023,-0.14543346703069057]","[-1,-1,-1]","[-0.06811575010095834,0.15518375575506038]","[1,1,1]","[0.02,0.02]",444.1263,0,25,25,159,1,,,,,,,
,,,,,,,5d20f6cbc1dc1c0001162dd5,682db4326b9c76ba50129f39,2025-05-21_12h09.05.261,cuing_paradigm_dot,2024.1.5,Win32,59.52380952,682d556593cb38ad0a074487,,,,,,,,,,,444.1275,444.6255,,,444.876,445.0918,right,0.2012,,,,,,,,,0.9,,,,,,444.6256,444.876,445.0919,"[0.06128382097493362,0.1820540282033504]","[1,1,1]","[-0.04086893334970896,-0.15463680696984497]","[1,1,1]","[-0.06538657947310156,0.15957103402740416]","[1,1,1]","[-0.014867670802480193,0.1634660807107733]","[1,1,1]","[-0.13770254771866836,0.009013430383042257]","[1,1,1]","[0.14401325849910462,0.10688070753234201]","[-1,-1,-1]","[-0.10160727681193168,0.05097158965153733]","[1,1,1]","[0.12692009793574235,0.022830230700372336]","[1,1,1]","[0.00712808080366395,-0.12675197231204013]","[1,1,1]","[0.015724894731776014,0.12451418873041556]","[1,1,1]","[0.04133182949954031,0.01589825095206902]","[1,1,1]","[-0.05779134516307889,0.07223645689297416]","[1,1,1]","[0.17144922990459283,-0.04527282142156818]","[1,1,1]","[-0.18516078713831985,0.010317769236824145]","[-1,-1,-1]","[0.1118445771862142,0.1485778432566842]","[1,1,1]","[0.07437491943367898,-0.10893546996634915]","[1,1,1]","[-0.1477787450746898,0.06836539960788647]","[1,1,1]","[-0.13684643286461357,0.12341530234694319]","[-1,-1,-1]","[0.020021833254995753,-0.19054558758077694]","[1,1,1]","[-0.008954583159666811,-0.00644312682053679]","[1,1,1]","[-0.04807091104056898,-0.08269864685202012]","[1,1,1]","[-0.17140003385534594,-0.052974585660947156]","[1,1,1]","[0.025485923186160823,-0.0858021224364448]","[1,1,1]","[-0.09151816501245089,-0.0001691317481141691]","[1,1,1]","[0.08695741320503596,-0.05792811497235446]","[1,1,1]","[0.11996995248904908,-0.14438663003931837]","[1,1,1]","[-0.08330306261399319,-0.17865788654311598]","[1,1,1]","[0.06107055582061669,-0.16140289954123124]","[1,1,1]","[0.09780583953771119,0.07089285937306926]","[1,1,1]","[-0.0991569285578426,-0.136226804768578]","[1,1,1]","[0.1436019219401192,0.06542113004241723]","[1,1,1]","[0.12688002949853158,-0.03329383178402123]","[1,1,1]","[0.02,0.02]",446.1902,0,26,26,199,1,,,,,,,
,,,,,,,5d20f6cbc1dc1c0001162dd5,682db4326b9c76ba50129f39,2025-05-21_12h09.05.261,cuing_paradigm_dot,2024.1.5,Win32,59.52380952,682d556593cb38ad0a074487,,,,,,,,,,,446.191,446.6897,,,446.948,447.322,left,0.3525,,,,,,,,,0.1,,,,,,446.6898,446.9479,447.3221,"[-0.06683330740592794,-0.159087046059972]","[1,1,1]","[-0.0011562693668600889,0.13471827490636307]","[1,1,1]","[0.06470744186215556,0.13088145639880638]","[-1,-1,-1]","[-0.07084742178557703,0.021083239951422052]","[-1,-1,-1]","[0.12202067908017299,0.013567002950317297]","[-1,-1,-1]","[-0.01694228218237748,0.07052233182268809]","[-1,-1,-1]","[-0.07378927026685672,-0.05334239390443586]","[-1,-1,-1]","[0.02269467770033897,0.03222872041755977]","[1,1,1]","[-0.03001388339080794,-0.08736380963354767]","[-1,-1,-1]","[0.09070356116412724,-0.04553385893458211]","[-1,-1,-1]","[0.06860173620491244,0.06537499967363297]","[-1,-1,-1]","[-0.17765244192882834,-0.07464634841050763]","[-1,-1,-1]","[0.04740599970868303,-0.06029905076707616]","[-1,-1,-1]","[-0.05833483076571355,0.15147930066169293]","[-1,-1,-1]","[0.1745411446749126,-0.061413600641547016]","[-1,-1,-1]","[0.17149398237254065,0.0456735285410499]","[-1,-1,-1]","[0.11177170433318961,0.14436961691998762]","[-1,-1,-1]","[0.01707402795155894,-0.015258342192370353]","[-1,-1,-1]","[0.03922537771166143,-0.11844899802479286]","[-1,-1,-1]","[-0.16989978876504455,0.10369713350940107]","[-1,-1,-1]","[-0.150033315436641,0.027660982971608582]","[-1,-1,-1]","[0.08609736266094005,-0.1101894306545976]","[-1,-1,-1]","[-0.1975777683932496,-0.023234348758728672]","[-1,-1,-1]","[-0.11073042499613678,0.12298220263640529]","[-1,-1,-1]","[0.012251707488799675,0.17261480658493208]","[-1,-1,-1]","[0.1453334919921446,-0.12605343215540163]","[-1,-1,-1]","[-0.13494382634864763,-0.05641956312198238]","[-1,-1,-1]","[0.07038455056607282,-0.1664208324055541]","[-1,-1,-1]","[-0.11484137386203536,-0.14608143335854926]","[-1,-1,-1]","[-0.19176522770358626,0.03457839099488053]","[-1,-1,-1]","[-0.07222987025256626,0.08108577933297856]","[-1,-1,-1]","[0.16390297334689627,0.0015514212580725664]","[-1,-1,-1]","[0.02,0.02]",448.4206,0,27,27,3,1,,,,,,,
,,,,,,,5d20f6cbc1dc1c0001162dd5,682db4326b9c76ba50129f39,2025-05-21_12h09.05.261,cuing_paradigm_dot,2024.1.5,Win32,59.52380952,682d556593cb38ad0a074487,,,,,,,,,,,448.4215,448.92,,,449.1627,449.7028,right,0.5175,,,,,,,,,0.5,,,,,,448.9202,449.1626,449.7032,"[-0.09661556050547837,0.005779298688402331]","[1,1,1]","[-0.010850756783362066,-0.04176484272518661]","[1,1,1]","[0.07717590676967585,-0.11163106345525632]","[1,1,1]","[0.07012437188976707,0.17752035438426583]","[1,1,1]","[0.13464235868017219,-0.12244058021337437]","[-1,-1,-1]","[-0.055673550454364104,-0.19045076071246989]","[-1,-1,-1]","[0.1361217242166356,-0.0343568793092688]","[-1,-1,-1]","[-0.021437600925074633,0.012676248405136845]","[-1,-1,-1]","[-0.018633295503458953,0.1254902952112174]","[1,1,1]","[-0.13411697290899124,0.1298934734746903]","[1,1,1]","[-0.09638647384907777,0.0833899677803074]","[-1,-1,-1]","[-0.04823798813946327,-0.022753702741226782]","[-1,-1,-1]","[0.0336825583066458,0.022580394583062633]","[-1,-1,-1]","[0.19008896472483217,-0.0009033365265554913]","[-1,-1,-1]","[0.08377319628994574,0.07759296759583437]","[1,1,1]","[-0.17516431306811786,-0.027596927450110015]","[1,1,1]","[-0.05940487287887822,0.12795987641373865]","[-1,-1,-1]","[-0.1717195721858178,0.015512157683122068]","[-1,-1,-1]","[-0.019059183329773723,0.053036119319602906]","[-1,-1,-1]","[-0.012155143673716205,-0.13524620763527606]","[-1,-1,-1]","[0.04722109304096695,-0.05199066179545331]","[1,1,1]","[0.12396446376193225,0.0798764878210208]","[-1,-1,-1]","[-0.07246325053483016,-0.07815946296958214]","[1,1,1]","[0.09708982073209857,0.1372551690004765]","[-1,-1,-1]","[0.14339387072575058,-0.07727858508179453]","[1,1,1]","[0.09982712318059925,0.008345652930440494]","[1,1,1]","[-0.1303891166464552,-0.05652155155081753]","[-1,-1,-1]","[0.028954552527285453,0.13738041651300484]","[1,1,1]","[0.025772773900454758,-0.08846607995545984]","[1,1,1]","[-0.002109383853329051,0.17920545934104848]","[-1,-1,-1]","[-0.1144544493366267,-0.13430291979464148]","[1,1,1]","[0.137865698686366,0.1357606619919337]","[1,1,1]","[0.02,0.02]",450.8013,0,28,28,109,1,,,,,,,
,,,,,,,5d20f6cbc1dc1c0001162dd5,682db4326b9c76ba50129f39,2025-05-21_12h09.05.261,cuing_paradigm_dot,2024.1.5,Win32,59.52380952,682d556593cb38ad0a074487,,,,,,,,,,,450.8022,451.3007,,,451.5519,451.9671,left,0.396,,,,,,,,,0.45,,,,,,451.3008,451.5517,451.9671,"[-0.1756504592963439,0.07040196018502302]","[-1,-1,-1]","[0.10838095412816476,-0.03538982216447619]","[-1,-1,-1]","[-0.06719410004695489,-0.15051896685010735]","[-1,-1,-1]","[-0.07236438099559334,0.06137514097908223]","[-1,-1,-1]","[0.1944173387891978,0.009526670704121065]","[1,1,1]","[-0.03767289700811005,-0.10781280793812521]","[1,1,1]","[0.16394396707294223,-0.027655515144581852]","[1,1,1]","[0.04771783858515202,-0.09779767958006419]","[1,1,1]","[0.061070913201206,0.1273958860522482]","[-1,-1,-1]","[-0.16165580775101127,-0.09875297923254374]","[1,1,1]","[-0.06000319765794761,0.1371669862162367]","[1,1,1]","[0.06272942784620487,0.17708318975494294]","[-1,-1,-1]","[-0.02586263854118605,0.05863663420754465]","[1,1,1]","[0.023185763598053636,-0.019390937664001125]","[-1,-1,-1]","[-0.0747522056147684,-0.01636388093766022]","[-1,-1,-1]","[0.0024199873234916547,-0.18749818338687943]","[-1,-1,-1]","[-0.11689279262541229,-0.03131282483800831]","[-1,-1,-1]","[-0.052902321564744115,0.09704783554037032]","[-1,-1,-1]","[0.10057314244662872,0.11083779484639453]","[-1,-1,-1]","[0.14376987049815776,0.10490226602563425]","[1,1,1]","[-0.17949743259158255,-0.022711429339705366]","[-1,-1,-1]","[0.08776639736532224,-0.16496231098267905]","[-1,-1,-1]","[-0.12085485042390809,-0.11096588680773471]","[-1,-1,-1]","[-0.004583594648581266,0.19445448344537092]","[1,1,1]","[-0.02451222089500732,0.15944229473938615]","[1,1,1]","[0.03714402676667956,0.03529228133310377]","[1,1,1]","[-0.1069980512893729,0.1293286710791219]","[-1,-1,-1]","[-0.07257980586246159,0.18200757064908488]","[1,1,1]","[0.1212761715580849,-0.12311828033095658]","[1,1,1]","[-0.11400967045977006,0.03985732188398284]","[1,1,1]","[-0.005677519455963967,-0.08010303488465975]","[-1,-1,-1]","[0.0961313128937032,0.01322528122314769]","[-1,-1,-1]","[0.02,0.02]",453.0655,0,29,29,63,1,,,,,,,
,,,,,,,5d20f6cbc1dc1c0001162dd5,682db4326b9c76ba50129f39,2025-05-21_12h09.05.261,cuing_paradigm_dot,2024.1.5,Win32,59.52380952,682d556593cb38ad0a074487,,,,,,,,,,,453.0667,453.565,,,453.8156,454.7141,left,0.8815,,,,,,,,,0.45,,,,,,453.5651,453.8156,454.7142,"[0.014731121954550062,0.004808236068789861]","[-1,-1,-1]","[-0.13678870287913694,-0.07599153474649334]","[1,1,1]","[0.11812583446297252,0.12092255497094664]","[1,1,1]","[-0.09996176374853506,0.05086143439535846]","[-1,-1,-1]","[-0.02904536311311635,0.18021018556598126]","[-1,-1,-1]","[-0.02161550671178321,-0.07469545990744175]","[1,1,1]","[0.07861658814783141,-0.1713541047264437]","[1,1,1]","[-0.12763116271071526,-0.01881382317976137]","[-1,-1,-1]","[0.057915087672069175,0.016367138608798647]","[-1,-1,-1]","[0.01587376625024947,-0.17820062902996114]","[-1,-1,-1]","[0.019338494959826362,0.08498351120745502]","[-1,-1,-1]","[-0.09477637566196244,-0.04525166585698715]","[1,1,1]","[-0.04275676404244575,0.08250395673141732]","[-1,-1,-1]","[-0.16113017668998003,0.10329244931986263]","[1,1,1]","[-0.16119751927760184,0.004799147838017982]","[1,1,1]","[0.11830486449121017,-0.07257971029860706]","[1,1,1]","[0.035713714178870995,0.14640891118551327]","[-1,-1,-1]","[0.17212362103025772,0.04763495624027993]","[1,1,1]","[-0.09996574379436308,0.10069558179178166]","[1,1,1]","[0.13540800898405675,-0.0006422290144095298]","[1,1,1]","[-0.10664353222752328,0.16344003033780102]","[1,1,1]","[-0.09278324647581067,-0.15758219062441206]","[-1,-1,-1]","[0.12308150611307382,-0.15298925245879058]","[-1,-1,-1]","[-0.19826291197089294,-0.012152215093028364]","[-1,-1,-1]","[0.06181987000475792,-0.032092686166453055]","[-1,-1,-1]","[0.08097638213915778,0.07030759377418026]","[-1,-1,-1]","[-0.052934557218651986,-0.021691466488157698]","[-1,-1,-1]","[-0.0007020217781143022,0.127776927909009]","[-1,-1,-1]","[-0.047168191117455904,-0.1262560339945364]","[1,1,1]","[0.06069004356557868,-0.1168642882139776]","[1,1,1]","[0.11099262726649047,0.04172281336144386]","[-1,-1,-1]","[-0.059487838803383854,0.042469491337502704]","[-1,-1,-1]","[0.02,0.02]",455.8124,0,30,30,72,1,,,,,,,
,,,,,,,5d20f6cbc1dc1c0001162dd5,682db4326b9c76ba50129f39,2025-05-21_12h09.05.261,cuing_paradigm_dot,2024.1.5,Win32,59.52380952,682d556593cb38ad0a074487,,,,,,,,,,,455.8135,456.3122,,,456.5627,456.9782,left,0.399,,,,,,,,,0.45,,,,,,456.3122,456.5626,456.9783,"[0.015569674165066199,-0.03167502934946913]","[-1,-1,-1]","[0.06397460800664859,0.06808317886388184]","[-1,-1,-1]","[-0.1215861969899629,0.15617409176325325]","[1,1,1]","[0.036956602773346545,0.014517780349324083]","[-1,-1,-1]","[-0.03232958508630284,0.1891194429140372]","[-1,-1,-1]","[-0.15850678909833266,0.02331745529915605]","[1,1,1]","[-0.09311233623371824,-0.001460931350612766]","[1,1,1]","[0.15197860687928175,0.07436691138485843]","[-1,-1,-1]","[-0.1944760237400887,-0.018160218557403747]","[-1,-1,-1]","[0.11717660351486496,0.15184137185087024]","[1,1,1]","[0.1640698901674545,-0.05752452615703513]","[1,1,1]","[0.06415503912093089,-0.0776639272902182]","[1,1,1]","[0.010746113244952695,0.08494550206501919]","[-1,-1,-1]","[0.13715200463658436,-0.11983853615948506]","[1,1,1]","[-0.12322921137971642,0.10447959844824921]","[-1,-1,-1]","[-0.03631992123700191,0.0012075168414296714]","[1,1,1]","[-0.07515180673475465,-0.18316010525743628]","[-1,-1,-1]","[0.050053548367265034,-0.15251893501251498]","[-1,-1,-1]","[-0.05179914877217523,-0.10188302335953281]","[1,1,1]","[-0.03197095512461575,-0.06670209670399421]","[-1,-1,-1]","[-0.12909720471159272,-0.05017650663613563]","[-1,-1,-1]","[0.002848054157299614,0.13780156241238395]","[1,1,1]","[-0.051256081643217793,0.0448643344386729]","[1,1,1]","[0.11925239268811166,0.030488119077759952]","[-1,-1,-1]","[-0.05518356305312006,0.0918569125000813]","[-1,-1,-1]","[-0.17050900150616938,0.06438221193925313]","[1,1,1]","[0.006251263082934005,-0.16260415989345955]","[-1,-1,-1]","[0.06888173321600068,0.14192928373437275]","[-1,-1,-1]","[-0.11894856203071791,-0.09096368375371201]","[1,1,1]","[0.08593527309079092,-0.02261680566672973]","[-1,-1,-1]","[-0.06570154361196594,0.160811453385555]","[-1,-1,-1]","[-0.1146552200102193,0.05605647421470809]","[1,1,1]","[0.02,0.02]",458.0761,0,31,31,79,1,,,,,,,
,,,,,,,5d20f6cbc1dc1c0001162dd5,682db4326b9c76ba50129f39,2025-05-21_12h09.05.261,cuing_paradigm_dot,2024.1.5,Win32,59.52380952,682d556593cb38ad0a074487,,,,,,,,,,,458.0766,458.5757,,,458.8257,459.2257,left,0.3826,,,,,,,,,0.1,,,,,,458.5758,458.8256,459.2258,"[0.025870686842579385,-0.1768355860826059]","[-1,-1,-1]","[0.12728921890352013,0.03610419430712868]","[-1,-1,-1]","[-0.014854283757997166,-0.043427057784856726]","[1,1,1]","[-0.12222343226693334,-0.15088616959120588]","[-1,-1,-1]","[0.07329844258636653,0.15933018595956366]","[-1,-1,-1]","[-0.06858122013052798,-0.09434572701527266]","[-1,-1,-1]","[-0.10133670022298835,0.03841980718947252]","[-1,-1,-1]","[0.1391543168824128,-0.09127734282417349]","[-1,-1,-1]","[0.03511781206734605,-0.0013135611833514564]","[-1,-1,-1]","[-0.12450296524484349,-0.10881357172764886]","[-1,-1,-1]","[-0.15946230415161225,-0.04956799382588676]","[-1,-1,-1]","[-0.007990541004624029,-0.13393183973874814]","[-1,-1,-1]","[-0.13446654491097484,0.12698836580231732]","[-1,-1,-1]","[-0.06039247292817911,0.1268219179994822]","[1,1,1]","[-0.11223841180932258,-0.014820326188040562]","[-1,-1,-1]","[0.13067178755779474,-0.03735917990942406]","[-1,-1,-1]","[0.1891158118558036,-0.040961173747060195]","[-1,-1,-1]","[0.09195237347044845,0.10846544470813813]","[-1,-1,-1]","[-0.01950666479421509,0.053655116983451816]","[-1,-1,-1]","[0.08393392696609138,0.019940534244643884]","[-1,-1,-1]","[-0.14952307229565961,0.07892767428147164]","[-1,-1,-1]","[0.03909525711603402,-0.07495659682276481]","[-1,-1,-1]","[0.08690397029315602,-0.09495340365595932]","[-1,-1,-1]","[0.00747447738207772,0.1882978600652523]","[-1,-1,-1]","[0.17322661611501697,0.06600824009868214]","[-1,-1,-1]","[-0.11905083186840774,-0.06729528728459416]","[-1,-1,-1]","[-0.05529190595077864,-0.05409100533130113]","[-1,-1,-1]","[0.003843926237612105,0.11652472144389811]","[-1,-1,-1]","[0.1247530187231634,-0.1321223888824652]","[-1,-1,-1]","[-0.03302073588641999,0.0941751598387361]","[1,1,1]","[-0.03435942948448725,-0.16745667978931625]","[-1,-1,-1]","[0.028284996874501526,0.14864030489897603]","[-1,-1,-1]","[0.02,0.02]",460.3241,0,32,32,24,1,,,,,,,
,,,,,,,5d20f6cbc1dc1c0001162dd5,682db4326b9c76ba50129f39,2025-05-21_12h09.05.261,cuing_paradigm_dot,2024.1.5,Win32,59.52380952,682d556593cb38ad0a074487,,,,,,,,,,,460.3251,460.8237,,,461.0741,461.589,right,0.4833,,,,,,,,,0.55,,,,,,460.8238,461.0741,461.5891,"[-0.04696109121805135,-0.138626159509869]","[-1,-1,-1]","[0.08549488049950607,0.050950039890692946]","[-1,-1,-1]","[0.08933343221417013,-0.12264899006575572]","[1,1,1]","[-0.130185190628584,-0.0009144892753814027]","[1,1,1]","[0.007293208143215186,0.09196543480567328]","[-1,-1,-1]","[0.05656521011770953,-0.03125621627823089]","[1,1,1]","[0.12643651207300202,-0.09536568960708255]","[-1,-1,-1]","[-0.035838495237250426,-0.017357196484067146]","[1,1,1]","[-0.10915301627294008,0.149200829440824]","[1,1,1]","[0.018835101822137688,-0.06983319325597362]","[1,1,1]","[0.18304374093761297,0.006755644892650805]","[-1,-1,-1]","[-0.05493939159417528,-0.06546720484981539]","[1,1,1]","[-0.07847003722480815,0.1039718658831302]","[-1,-1,-1]","[0.035109475109491924,0.023976182224936863]","[-1,-1,-1]","[0.0678960619335867,0.11272392417868701]","[1,1,1]","[-0.044006511851292715,0.1873082963728866]","[1,1,1]","[-0.15656435939971616,0.03754717210010503]","[-1,-1,-1]","[0.17732867735916477,0.050493526114643625]","[-1,-1,-1]","[0.1390990831306237,0.12988830048571706]","[1,1,1]","[-0.0065884156204483076,0.02811040122092454]","[1,1,1]","[-0.03435217767221015,0.11871042419120544]","[1,1,1]","[-0.011109158247841089,-0.12084896405175326]","[-1,-1,-1]","[-0.029481800761043158,0.07563980519382725]","[-1,-1,-1]","[-0.003972383083599864,0.1711890748514161]","[1,1,1]","[-0.17709175237119534,-0.043301354567074]","[1,1,1]","[-0.008933115342575116,-0.1728956668174072]","[-1,-1,-1]","[-0.13435016892621693,0.09775157337572132]","[-1,-1,-1]","[-0.11133746468803735,-0.03799357959479027]","[1,1,1]","[-0.14876063412299748,-0.13162778981148182]","[1,1,1]","[-0.10940490926989213,-0.10634666263385684]","[1,1,1]","[-0.08154444520422238,0.03549617931771724]","[1,1,1]","[0.14112805828190358,0.01113001787395063]","[-1,-1,-1]","[0.02,0.02]",462.679,0,33,33,127,1,,,,,,,
,,,,,,,5d20f6cbc1dc1c0001162dd5,682db4326b9c76ba50129f39,2025-05-21_12h09.05.261,cuing_paradigm_dot,2024.1.5,Win32,59.52380952,682d556593cb38ad0a074487,,,,,,,,,,,462.6798,463.171,,,463.4292,463.7872,left,0.3345,,,,,,,,,0.1,,,,,,463.171,463.4291,463.7873,"[-0.0708217965366119,-0.0512334784092808]","[-1,-1,-1]","[0.09748687356284352,0.01998988235032638]","[-1,-1,-1]","[-0.02930278535587048,-0.123066650417058]","[-1,-1,-1]","[0.04187439172667279,0.024715490319100065]","[-1,-1,-1]","[0.17069785781249824,-0.10033605831151134]","[-1,-1,-1]","[0.16040228462964928,0.04350082849834281]","[-1,-1,-1]","[0.01920931230540025,0.10136920012943047]","[-1,-1,-1]","[-0.1921669225394796,0.01805362936246839]","[-1,-1,-1]","[-0.13779427906632372,-0.0789888660854888]","[-1,-1,-1]","[0.10591806725934695,-0.049517144987649454]","[-1,-1,-1]","[0.06398756232299974,-0.16087396949472232]","[-1,-1,-1]","[-0.18072485564095803,-0.06036681584835431]","[-1,-1,-1]","[0.1460477571177437,-0.06633740905342006]","[-1,-1,-1]","[-0.11263252297874973,-0.03757029907940761]","[-1,-1,-1]","[0.12634576960843455,-0.13020160524537652]","[-1,-1,-1]","[-0.05588367614061364,0.011085945856557915]","[1,1,1]","[-0.08039618059419062,-0.13945647546496143]","[-1,-1,-1]","[0.01649572288841326,-0.1721517390482277]","[-1,-1,-1]","[0.06313217548324938,-0.10261370083467329]","[1,1,1]","[0.030981026125217845,-0.025897996385945383]","[-1,-1,-1]","[-0.09975317902635888,0.006157002851434996]","[-1,-1,-1]","[-0.1721709119999426,0.07318813056329185]","[-1,-1,-1]","[0.14959303658379158,0.10273891084124202]","[-1,-1,-1]","[-0.09714876658766275,0.15750008929228448]","[-1,-1,-1]","[0.15235978603701547,-0.013177116386417852]","[-1,-1,-1]","[-0.008900795958924524,-0.02128317152894904]","[-1,-1,-1]","[0.05993682949099058,0.14682121372861986]","[-1,-1,-1]","[0.11383155606667632,0.15999209566389072]","[1,1,1]","[-0.07590512016298222,0.07328935920922175]","[-1,-1,-1]","[-0.0011928890270391087,-0.06959363464888031]","[-1,-1,-1]","[0.0708710377657356,0.056300118833832596]","[-1,-1,-1]","[0.08029601610097509,0.10183875156685648]","[-1,-1,-1]","[0.02,0.02]",464.8857,0,34,34,9,1,,,,,,,
,,,,,,,5d20f6cbc1dc1c0001162dd5,682db4326b9c76ba50129f39,2025-05-21_12h09.05.261,cuing_paradigm_dot,2024.1.5,Win32,59.52380952,682d556593cb38ad0a074487,,,,,,,,,,,464.8866,465.3852,,,465.6248,466.068,left,0.4176,,,,,,,,,0.45,,,,,,465.3854,465.6248,466.0682,"[0.02771500026538394,-0.08213767036483684]","[-1,-1,-1]","[0.08961582279532314,-0.10636549242750393]","[-1,-1,-1]","[0.10172196211163398,-0.054894921968890675]","[-1,-1,-1]","[-0.09600631104833454,-0.059042048311185064]","[-1,-1,-1]","[-0.001412809236039483,0.13214162805839616]","[1,1,1]","[-0.013423819125601396,0.19430942879520738]","[-1,-1,-1]","[-0.0613826930576683,0.11597765360285558]","[-1,-1,-1]","[0.13528394809348665,-0.11509781530838539]","[1,1,1]","[-0.0514320635977911,-0.17368065014154757]","[1,1,1]","[-0.15913214539742293,-0.11867857778009225]","[-1,-1,-1]","[0.1826240331120012,0.06529615708147507]","[1,1,1]","[-0.01974671726640284,-0.0869157123667782]","[-1,-1,-1]","[-0.040640943925271046,-0.12737199218569983]","[-1,-1,-1]","[0.1869659855904895,-0.03051112963865642]","[-1,-1,-1]","[-0.11452874738386797,0.0275901233608989]","[-1,-1,-1]","[-0.19195633243310037,0.04580967602102587]","[1,1,1]","[0.0008561624369136608,-0.0112687945493718]","[1,1,1]","[-0.1675396293541769,0.10803645410715558]","[1,1,1]","[0.10476436928320483,0.09683827742599876]","[1,1,1]","[0.15885805933008723,0.0282318432969175]","[-1,-1,-1]","[0.09942761017512328,-0.1636181238315953]","[-1,-1,-1]","[0.04536547699354883,0.0682299153443978]","[1,1,1]","[0.03531465602493955,0.011491735409863597]","[-1,-1,-1]","[0.0038005599504538105,0.0680993354306086]","[1,1,1]","[-0.11320446742217205,0.13116021230992558]","[1,1,1]","[-0.14707282323964893,-0.059490908125651026]","[-1,-1,-1]","[0.07766658802912196,0.17012461889566144]","[-1,-1,-1]","[-0.047340112611492215,0.012313879233726961]","[1,1,1]","[0.05707837605417412,-0.18151252233639512]","[-1,-1,-1]","[0.03624649744529121,0.11413895245997856]","[-1,-1,-1]","[-0.18342333569277297,-0.04140400554360983]","[1,1,1]","[-0.007271161627685187,-0.19757864560046345]","[1,1,1]","[0.02,0.02]",467.1666,0,35,35,68,1,,,,,,,
,,,,,,,5d20f6cbc1dc1c0001162dd5,682db4326b9c76ba50129f39,2025-05-21_12h09.05.261,cuing_paradigm_dot,2024.1.5,Win32,59.52380952,682d556593cb38ad0a074487,,,,,,,,,,,467.1676,467.666,,,467.9243,468.3322,left,0.3845,,,,,,,,,0.4,,,,,,467.6661,467.9242,468.3323,"[0.08037812222907263,0.11531968342398655]","[1,1,1]","[0.1508791891394024,-0.05696001572429801]","[-1,-1,-1]","[-0.024765411701424402,0.1808924707572014]","[-1,-1,-1]","[0.08062308764800119,-0.08892752471780906]","[-1,-1,-1]","[-0.10159242705819552,-0.14350540661914388]","[-1,-1,-1]","[0.006602932901425847,0.029903511627353965]","[-1,-1,-1]","[0.18803366551358014,-0.0017004998820758584]","[1,1,1]","[-0.09232035788053222,-0.09507475701026365]","[-1,-1,-1]","[-0.19612301293727394,0.015483855662647346]","[-1,-1,-1]","[-0.07185124895526994,-0.041037854471026314]","[-1,-1,-1]","[0.026126069339336908,0.14626014602922413]","[-1,-1,-1]","[-0.09100661520294943,0.06853624684684144]","[-1,-1,-1]","[0.03740822485276935,-0.10849961226998528]","[1,1,1]","[-0.02488966147017226,0.09828843892949148]","[-1,-1,-1]","[-0.001518502487531528,-0.16644510760211276]","[1,1,1]","[0.16235450869733883,0.1111186276104138]","[1,1,1]","[0.06455477049700092,-0.04908685176724541]","[-1,-1,-1]","[-0.16482806204928172,-0.08759081593348249]","[1,1,1]","[-0.11948366851489403,0.1305890896991501]","[-1,-1,-1]","[-0.17959313708104796,0.08027550139860933]","[1,1,1]","[0.1592080571707386,-0.09651924770802164]","[1,1,1]","[-0.08824723247879702,0.010109983504958764]","[1,1,1]","[0.027477656428237223,0.0736490475602886]","[-1,-1,-1]","[-0.13871219621095718,-0.029942716623710074]","[1,1,1]","[-0.013394414808558162,-0.07202643611490984]","[-1,-1,-1]","[-0.12119293256455724,0.04181571565299448]","[1,1,1]","[0.08285489139689199,-0.002549732834164065]","[-1,-1,-1]","[-0.010166607201815028,-0.11558811260992768]","[1,1,1]","[0.09017606915961225,0.1548234340173938]","[1,1,1]","[0.08311907505707852,0.048749526952848066]","[-1,-1,-1]","[0.06388990075242347,-0.15361210610796838]","[-1,-1,-1]","[-0.042330510870581844,0.05047094758965971]","[-1,-1,-1]","[0.02,0.02]",469.4308,0,36,36,38,1,,,,,,,
,,,,,,,5d20f6cbc1dc1c0001162dd5,682db4326b9c76ba50129f39,2025-05-21_12h09.05.261,cuing_paradigm_dot,2024.1.5,Win32,59.52380952,682d556593cb38ad0a074487,,,,,,,,,,,469.4316,469.9301,,,470.1714,470.7628,left,0.5727,,,,,,,,,0.55,,,,,,469.9302,470.1713,470.7628,"[0.1773858197597365,-0.018303761952720755]","[-1,-1,-1]","[0.17324040445794614,0.05345131873736967]","[1,1,1]","[0.06643471151071469,0.16149394621736052]","[1,1,1]","[0.031420977170616704,-0.03422038822474364]","[-1,-1,-1]","[-0.15239781886086132,-0.12040214969732148]","[-1,-1,-1]","[-0.09935588531145023,0.138996836305195]","[1,1,1]","[0.1383276298439272,0.13955096282166995]","[1,1,1]","[-0.14617507120275192,0.12050104126091324]","[1,1,1]","[0.03106534147273015,-0.19429422649618647]","[1,1,1]","[-0.022645011809201507,-0.12354069705672727]","[1,1,1]","[0.0037871631764890288,0.07410121678689588]","[-1,-1,-1]","[-0.07416061187461546,-0.11210419721194369]","[-1,-1,-1]","[-0.05622555113220508,0.10385728898294039]","[-1,-1,-1]","[-0.10708068921184345,-0.030294704075250745]","[1,1,1]","[0.033269346604321924,-0.10692871711669345]","[1,1,1]","[0.001384496513893341,0.14264784069675132]","[1,1,1]","[-0.02639364531198475,0.021244777870934862]","[-1,-1,-1]","[0.16272846035336816,0.0967925750051422]","[1,1,1]","[-0.07781284931002884,0.002306051426346792]","[1,1,1]","[0.11020421557439311,-0.12415749393937588]","[1,1,1]","[-0.17486169928116857,-0.04656682246231985]","[-1,-1,-1]","[0.04386001732890098,0.08576500894193471]","[1,1,1]","[0.10119711794639291,-0.027019636577401373]","[-1,-1,-1]","[-0.1695410753950083,0.054567058275577646]","[1,1,1]","[-0.10447369072297388,-0.16978560953542562]","[1,1,1]","[-0.11075894556591666,0.09962597045717073]","[1,1,1]","[0.11081598328599097,-0.16530648610111048]","[-1,-1,-1]","[0.17344482883748744,-0.09152279738814777]","[-1,-1,-1]","[-0.02581719896506549,-0.0764646562719679]","[-1,-1,-1]","[0.10512895812918603,0.10383520520573743]","[-1,-1,-1]","[0.1345686180173253,0.007602624354248638]","[1,1,1]","[0.09199789802211931,0.04406385186757591]","[-1,-1,-1]","[0.02,0.02]",471.8614,0,37,37,130,1,,,,,,,
,,,,,,,5d20f6cbc1dc1c0001162dd5,682db4326b9c76ba50129f39,2025-05-21_12h09.05.261,cuing_paradigm_dot,2024.1.5,Win32,59.52380952,682d556593cb38ad0a074487,,,,,,,,,,,471.8624,472.3608,,,472.6022,473.1435,right,0.5207,,,,,,,,,0.5,,,,,,472.3609,472.6021,473.1436,"[-0.09564471104585408,0.16059019805916927]","[-1,-1,-1]","[-0.10380411709259055,0.052140974290140404]","[-1,-1,-1]","[0.1644443684553741,-0.10658697183758921]","[-1,-1,-1]","[-0.14315645283378697,-0.06893675894227741]","[1,1,1]","[0.09414213654265692,-0.07655596280842265]","[-1,-1,-1]","[-0.040565464732294367,-0.049112712639117276]","[1,1,1]","[0.031189250475077267,0.10392752810420289]","[-1,-1,-1]","[0.020509378010708543,-0.12143884821829452]","[1,1,1]","[0.01954801931758203,-0.06661177444756858]","[1,1,1]","[-0.001481513264143217,0.013020279290295566]","[1,1,1]","[0.003116661248613444,0.14165769847211518]","[1,1,1]","[0.18844842427225983,-0.004812283184147683]","[-1,-1,-1]","[-0.08915473736386723,-0.13835486457631244]","[-1,-1,-1]","[0.14297044706274056,-0.07082151795011431]","[-1,-1,-1]","[0.07499187957740718,0.12777991362206087]","[-1,-1,-1]","[0.10699961063528501,-0.16392517273507234]","[1,1,1]","[-0.0694672263509887,0.11583615160852966]","[1,1,1]","[-0.010081004062108588,0.08894665624042505]","[1,1,1]","[-0.028175057209908254,-0.16848920943129617]","[-1,-1,-1]","[0.03750442215347661,-0.0025030871452402007]","[-1,-1,-1]","[0.06895693168388208,0.02552200929029594]","[1,1,1]","[0.10668701995572594,0.06976193249673167]","[1,1,1]","[-0.07018318458153623,-0.08909958976155025]","[1,1,1]","[-0.1362076971749782,0.07953253106491041]","[1,1,1]","[0.12020296732310758,0.156501554499525]","[1,1,1]","[-0.05410513440589182,0.008570345613929798]","[-1,-1,-1]","[-0.01715691568627092,0.18210071935755368]","[-1,-1,-1]","[0.12587183361202556,0.0288391492992479]","[-1,-1,-1]","[-0.09112609712738504,-0.05202271107096887]","[-1,-1,-1]","[-0.1308942104553756,-0.12649851465468456]","[1,1,1]","[0.15250789595708186,0.06832758009498795]","[-1,-1,-1]","[-0.05346217783286584,0.07496377906441984]","[1,1,1]","[0.02,0.02]",474.2426,0,38,38,98,1,,,,,,,
,,,,,,,5d20f6cbc1dc1c0001162dd5,682db4326b9c76ba50129f39,2025-05-21_12h09.05.261,cuing_paradigm_dot,2024.1.5,Win32,59.52380952,682d556593cb38ad0a074487,,,,,,,,,,,474.2439,474.7415,,,474.9998,475.5576,right,0.5389,,,,,,,,,0.5,,,,,,474.7416,474.9997,475.5577,"[0.08130794679999606,0.044346038206712374]","[1,1,1]","[-0.04121925204493289,0.05240222513530649]","[-1,-1,-1]","[0.027629499066395464,-0.05676378412785879]","[1,1,1]","[-0.03853952618143745,-0.07624017061540418]","[1,1,1]","[0.19511656435840477,-0.022890556482421155]","[1,1,1]","[0.01172221431521513,0.1106678317693256]","[-1,-1,-1]","[-0.004374254248046001,-0.12452225715237926]","[1,1,1]","[-0.12694054532138208,0.04633608821947179]","[-1,-1,-1]","[0.056595347714045195,0.16921211858849006]","[1,1,1]","[-0.16472819092154883,0.09096180696230456]","[-1,-1,-1]","[0.14849663812254646,0.007941999973980365]","[-1,-1,-1]","[-0.04367404724078094,0.12313025012291157]","[-1,-1,-1]","[-0.18934704475896846,0.033344771156154536]","[1,1,1]","[-0.11531353765254256,-0.14968519508868597]","[1,1,1]","[-0.12754781450967242,0.15096797987285135]","[-1,-1,-1]","[-0.06731117192752155,0.17232348314271076]","[-1,-1,-1]","[0.14951543903627568,-0.12058718484160738]","[-1,-1,-1]","[0.08771301447458028,-0.08532058665386842]","[1,1,1]","[0.12124178435697766,0.13018913485878025]","[-1,-1,-1]","[-0.10900584260088637,-0.014815653777833287]","[-1,-1,-1]","[0.03271380706976156,0.02926205679999354]","[1,1,1]","[-0.15114749100875355,-0.011095589621491566]","[1,1,1]","[0.19674409038212848,0.019346623684625832]","[-1,-1,-1]","[-0.1676074917960392,-0.07426201401285489]","[-1,-1,-1]","[0.14940835636698158,0.0834540674690603]","[-1,-1,-1]","[0.019532393170852414,-0.15735485102364521]","[1,1,1]","[0.0012539231806262007,0.19743238316178607]","[1,1,1]","[-0.10384174066741729,-0.06731655538017735]","[1,1,1]","[0.08268202256858363,-0.1499957959743483]","[-1,-1,-1]","[0.08307555799202339,-0.0038331082269661525]","[1,1,1]","[-0.08464437823908821,0.10140096216174034]","[-1,-1,-1]","[-0.07646678233890304,0.010356503817280595]","[1,1,1]","[0.02,0.02]",476.6563,0,39,39,100,1,,,,,,,
,,,,,,,5d20f6cbc1dc1c0001162dd5,682db4326b9c76ba50129f39,2025-05-21_12h09.05.261,cuing_paradigm_dot,2024.1.5,Win32,59.52380952,682d556593cb38ad0a074487,,,,,,,,,,,476.6573,477.1555,,,477.3972,477.9228,right,0.5082,,,,,,,,,0.4,,,,,,477.1557,477.3971,477.923,"[-0.029927169723362682,0.17284856506807714]","[1,1,1]","[-0.1066818313854652,0.08750333875883233]","[-1,-1,-1]","[-0.13348600388412152,-0.050908070862857334]","[-1,-1,-1]","[0.002964684363357678,0.029610365216594863]","[1,1,1]","[-0.12911765832674352,0.0020469444187716625]","[-1,-1,-1]","[0.15179259436510767,-0.12900596776565407]","[-1,-1,-1]","[0.04282220753887498,0.1658111704595628]","[1,1,1]","[-0.14888995172609387,-0.1034811665808405]","[-1,-1,-1]","[0.08024451183341472,-0.07141382417499732]","[-1,-1,-1]","[-0.10356364422396305,-0.1646906569396629]","[-1,-1,-1]","[-0.07194735624740163,0.03618358827658016]","[1,1,1]","[0.15014493832219244,0.044636369460137854]","[-1,-1,-1]","[0.16371699630352363,0.11337723364665882]","[1,1,1]","[0.09995074858026427,0.09758209697444328]","[-1,-1,-1]","[-0.14978375961879728,0.07367404192111467]","[1,1,1]","[0.0636743401478647,-0.1878245721161743]","[1,1,1]","[-0.09498464295630486,-0.07936005783829192]","[1,1,1]","[-0.030420240712516658,-0.1192673931672311]","[-1,-1,-1]","[-0.0218683034323305,-0.16633497194050237]","[1,1,1]","[0.027006403350637937,0.06268075252602197]","[-1,-1,-1]","[-0.0483221209721031,0.11828245419846985]","[-1,-1,-1]","[-0.1956540147802896,-0.00665476123569305]","[-1,-1,-1]","[0.047579203286108436,-0.026443953233973222]","[-1,-1,-1]","[0.015011909654929732,0.11016795322984957]","[-1,-1,-1]","[-0.0068107768910636345,-0.014923529343979612]","[-1,-1,-1]","[0.15734129570198985,-0.01308769926243531]","[1,1,1]","[0.11158187165500577,-0.12962140696611055]","[1,1,1]","[0.017155162781592508,-0.13517014890459994]","[-1,-1,-1]","[0.05224655323442434,0.019372747201147844]","[-1,-1,-1]","[-0.033665383627228596,0.07378107407463304]","[1,1,1]","[0.16598761860603822,-0.07289380074618261]","[-1,-1,-1]","[-0.008138426408292812,-0.056082747743877635]","[1,1,1]","[0.02,0.02]",479.0202,0,40,40,50,1,,,,,,,
,,,,,,,5d20f6cbc1dc1c0001162dd5,682db4326b9c76ba50129f39,2025-05-21_12h09.05.261,cuing_paradigm_dot,2024.1.5,Win32,59.52380952,682d556593cb38ad0a074487,,,,,,,,,,,479.0213,479.5196,,,479.7792,480.3356,right,0.5357,,,,,,,,,0.5,,,,,,479.5197,479.7792,480.3357,"[0.013792768508150283,-0.17695604782494626]","[-1,-1,-1]","[-0.023737756891075195,-0.15506191134453118]","[1,1,1]","[0.03250035997170154,0.027762951953559246]","[-1,-1,-1]","[0.03942182864928499,-0.1028751012574416]","[-1,-1,-1]","[0.16851937383562074,0.009906097789984709]","[-1,-1,-1]","[-0.04671656833370442,-0.11238213927534564]","[1,1,1]","[0.016996404572275938,0.15698626236686336]","[1,1,1]","[0.14566103775945244,-0.05341484078831281]","[-1,-1,-1]","[-0.07814761028458368,-0.071549821844903]","[-1,-1,-1]","[-0.11127669110190821,0.09036798464915666]","[1,1,1]","[0.05440132117369206,0.0777845655125104]","[1,1,1]","[0.09609454571841729,0.17025535318218932]","[-1,-1,-1]","[0.029171702898181006,0.11238415087841601]","[-1,-1,-1]","[-0.06006148789526115,0.08917115281110072]","[1,1,1]","[-0.09277860089257652,0.01323003253944302]","[1,1,1]","[0.10004728010185432,-0.12587688651813417]","[1,1,1]","[0.09129791482408921,-0.17550250921781035]","[-1,-1,-1]","[0.12807817821419296,0.07624905872494675]","[1,1,1]","[0.11050375269518622,0.015924249191188018]","[-1,-1,-1]","[-0.18299983460716934,0.009253664043847053]","[1,1,1]","[-0.1370631880768548,-0.005685383047817706]","[1,1,1]","[-0.001784680971688421,-0.09440025497935155]","[-1,-1,-1]","[-0.07373547314079104,0.1661875484138188]","[-1,-1,-1]","[0.14719428269178908,-0.11919109355869077]","[1,1,1]","[-0.17791283393271248,-0.07018168265482544]","[1,1,1]","[-0.06511656773924641,-0.16577630783975497]","[-1,-1,-1]","[0.18922166853994646,0.04882730079651967]","[-1,-1,-1]","[-0.03152102279636647,0.043699953630187666]","[1,1,1]","[-0.0007917714826162247,-0.03866825371095359]","[1,1,1]","[0.05003120774650474,-0.06271990978970968]","[-1,-1,-1]","[-0.16246252211650022,0.0497894993729945]","[-1,-1,-1]","[-0.11498996518944653,-0.09639720042857401]","[1,1,1]","[0.02,0.02]",481.4342,0,41,41,112,1,,,,,,,
,,,,,,,5d20f6cbc1dc1c0001162dd5,682db4326b9c76ba50129f39,2025-05-21_12h09.05.261,cuing_paradigm_dot,2024.1.5,Win32,59.52380952,682d556593cb38ad0a074487,,,,,,,,,,,481.4351,481.9336,,,482.1749,482.55,left,0.3557,,,,,,,,,0.4,,,,,,481.9338,482.1749,482.55,"[0.005193437445193966,-0.11174479506481609]","[-1,-1,-1]","[-0.027069394482183963,0.12587342721103334]","[-1,-1,-1]","[-0.15648407801251082,0.07996034101774054]","[-1,-1,-1]","[0.15100573712334195,0.11996247821426168]","[1,1,1]","[-0.05627719472650892,-0.09061597532066316]","[-1,-1,-1]","[-0.07846515986111091,-0.17336609066781822]","[-1,-1,-1]","[-0.007059763171818753,0.015866514803369855]","[-1,-1,-1]","[0.11573440549135197,0.033493014309502224]","[1,1,1]","[0.06584473410930122,-0.1031692802581011]","[1,1,1]","[-0.053472738533365566,0.03604281835722604]","[-1,-1,-1]","[0.12253587467044828,-0.1148996793197166]","[-1,-1,-1]","[-0.03343518543902168,-0.05237568088704941]","[1,1,1]","[0.18034851777466263,0.019518455605080892]","[1,1,1]","[0.08728780239920036,-0.1687131571476347]","[-1,-1,-1]","[0.06405245255494542,0.15700793495053283]","[-1,-1,-1]","[-0.046305969342873864,0.19448719873158407]","[-1,-1,-1]","[0.13968835507091673,-0.0351285548633144]","[1,1,1]","[-0.017521739894173112,-0.16752801387536861]","[-1,-1,-1]","[0.023911287886042295,-0.16104809163949418]","[1,1,1]","[-0.13999631230261309,-0.03110857752088955]","[1,1,1]","[-0.06016688707395731,-0.016270469036883256]","[1,1,1]","[-0.10027417158118801,-0.10851738603826132]","[-1,-1,-1]","[0.018046297497679564,-0.059925796855399935]","[-1,-1,-1]","[0.07010529150090385,0.07929941276599875]","[1,1,1]","[-0.07661672007023397,0.08067471275667154]","[1,1,1]","[-0.19793504177205054,-0.003857689421695928]","[-1,-1,-1]","[0.03558364992337695,0.021740447107891674]","[1,1,1]","[0.021069560814497963,0.15506023943900168]","[-1,-1,-1]","[-0.11085646238685312,0.16581191574138962]","[-1,-1,-1]","[-0.1533781575033227,-0.10439309226806172]","[1,1,1]","[0.19313882726819417,-0.04284999751643273]","[-1,-1,-1]","[0.01840040927958589,0.09577231150573907]","[-1,-1,-1]","[0.02,0.02]",483.6575,0,42,42,45,1,,,,,,,
,,,,,,,5d20f6cbc1dc1c0001162dd5,682db4326b9c76ba50129f39,2025-05-21_12h09.05.261,cuing_paradigm_dot,2024.1.5,Win32,59.52380952,682d556593cb38ad0a074487,,,,,,,,,,,483.6584,484.1479,,,484.4073,484.8576,left,0.4339,,,,,,,,,0.5,,,,,,484.148,484.4071,484.8577,"[0.011793976372864664,0.02981000626800732]","[1,1,1]","[-0.021990039158900812,-0.17845365364832338]","[-1,-1,-1]","[0.04810665582331802,-0.1681101109641958]","[-1,-1,-1]","[0.0012649776765745026,-0.029806318702926226]","[-1,-1,-1]","[-0.1468456203382428,-0.034790582442175824]","[-1,-1,-1]","[0.1901924843506233,0.010164309732140824]","[1,1,1]","[-0.01148768402988673,-0.13745742686082957]","[-1,-1,-1]","[-0.06802257082519057,-0.02114871795678848]","[1,1,1]","[-0.006398547797240393,0.15816497737222923]","[-1,-1,-1]","[0.03310980338125395,-0.0646383524029598]","[-1,-1,-1]","[0.12192887928915262,0.024011698943808703]","[-1,-1,-1]","[-0.05317190306257529,0.09386906039510703]","[-1,-1,-1]","[0.08290939872493489,0.16868542173191134]","[-1,-1,-1]","[0.11499230868449427,-0.08579040546456934]","[1,1,1]","[-0.1296256425425251,-0.1026115515385625]","[1,1,1]","[-0.03234476655082525,0.023861656935819788]","[1,1,1]","[0.19051310312300823,-0.03753236805948155]","[-1,-1,-1]","[-0.12145482955158408,0.05934068887948308]","[-1,-1,-1]","[0.058863448981416745,0.049338452752690554]","[1,1,1]","[-0.13763095127607905,0.09761051575807145]","[1,1,1]","[-0.09363140712233131,-0.148207450347855]","[1,1,1]","[-0.07610517801201883,0.15869787716856187]","[1,1,1]","[-0.17901653044119722,0.013132405522057855]","[-1,-1,-1]","[0.12683859227518607,0.09963429774062602]","[1,1,1]","[0.10047721113708452,-0.010694104357524742]","[-1,-1,-1]","[-0.1016704261036945,0.0033543872912297074]","[-1,-1,-1]","[-0.003351358865248934,-0.0914635559204413]","[1,1,1]","[-0.016519421521887637,0.06488234531075296]","[-1,-1,-1]","[0.05636837981879772,0.09426709943500311]","[1,1,1]","[0.1449082896072851,0.0583935098222131]","[1,1,1]","[-0.08124732821888332,0.05276274288372482]","[1,1,1]","[-0.11834020496315534,0.14469433929897568]","[1,1,1]","[0.02,0.02]",485.9461,0,43,43,110,1,,,,,,,
,,,,,,,5d20f6cbc1dc1c0001162dd5,682db4326b9c76ba50129f39,2025-05-21_12h09.05.261,cuing_paradigm_dot,2024.1.5,Win32,59.52380952,682d556593cb38ad0a074487,,,,,,,,,,,485.9469,486.4454,,,486.6866,487.0116,right,0.3048,,,,,,,,,0.9,,,,,,486.4455,486.6865,487.0118,"[-0.14663294810565364,-0.05521943345797333]","[1,1,1]","[-0.014219971643730043,0.10911462285725985]","[1,1,1]","[0.14714989379461163,0.040046877334663604]","[-1,-1,-1]","[0.11544210431288159,0.12320521204556853]","[1,1,1]","[0.014038945221630083,-0.016833750490360455]","[-1,-1,-1]","[0.08777786663632899,-0.06000985097126469]","[1,1,1]","[-0.1845026323443483,0.057084556172299655]","[1,1,1]","[0.14923824589772364,-0.10462984282899712]","[1,1,1]","[0.020552981196962455,-0.17649393048703013]","[1,1,1]","[-0.05634310638078554,-0.18502994409474194]","[1,1,1]","[0.10875706398072847,-0.14269649130252504]","[1,1,1]","[-0.0035749131477804097,-0.11361802364255191]","[1,1,1]","[-0.053654088510953754,-0.08226071886329756]","[1,1,1]","[-0.09836573896508885,0.05424915270120281]","[1,1,1]","[-0.16086389725175712,0.013113750146870676]","[1,1,1]","[-0.08058161132217855,0.13122691806885525]","[1,1,1]","[-0.04617839823890785,0.06239735014395012]","[1,1,1]","[0.14919914042093163,0.09466252234979898]","[1,1,1]","[0.07305546273757536,0.002560402403874981]","[1,1,1]","[0.101913846972511,-0.10038442450074025]","[1,1,1]","[-0.07409789380361541,0.17845860122935603]","[1,1,1]","[-0.08471391908494959,-0.14282021751594137]","[1,1,1]","[-0.1573866551602194,0.11088867677406071]","[1,1,1]","[0.0403190924662018,-0.1334246052113235]","[-1,-1,-1]","[-0.08591765754653301,0.013437193115085485]","[1,1,1]","[0.18164083714098705,0.06316037854926668]","[1,1,1]","[0.13612837056215155,0.001495790806680787]","[1,1,1]","[-0.09403977592148798,-0.09567602261211464]","[1,1,1]","[0.027803951756708356,0.11304901829720951]","[1,1,1]","[-0.022322245831130353,-0.03362901617711401]","[1,1,1]","[0.011920777701007978,0.1738701960632696]","[1,1,1]","[-0.08871608251090038,-0.039456694625168286]","[1,1,1]","[0.02,0.02]",488.1101,0,44,44,186,1,,,,,,,
