right,left,explain.started,explain.stopped,key_resp_3.keys,key_resp_3.rt,key_resp_3.duration,participant,session,date,expName,psychopyVersion,OS,frameRate,study_id,explain_2.started,explain_2.stopped,key_resp_4.keys,key_resp_4.rt,key_resp_4.duration,explain_3.started,explain_3.stopped,key_resp_5.keys,key_resp_5.rt,key_resp_5.duration,fixation.started,fixation.stopped,practice.started,practice.stopped,response.started,response.stopped,key_resp.keys,feedback.started,feedback.stopped,trials_2.thisRepN,trials_2.thisTrialN,trials_2.thisN,trials_2.thisIndex,trials_2.ran,white_ratio,key_resp.rt,key_resp.duration,explain_4.started,explain_4.stopped,key_resp_6.keys,key_resp_6.rt,key_resp_6.duration,dotDisplay.started,dotDisplay.stopped,ITI.started,polygon_1.pos,polygon_1.color,polygon_2.pos,polygon_2.color,polygon_3.pos,polygon_3.color,polygon_4.pos,polygon_4.color,polygon_5.pos,polygon_5.color,polygon_6.pos,polygon_6.color,polygon_7.pos,polygon_7.color,polygon_8.pos,polygon_8.color,polygon_9.pos,polygon_9.color,polygon_10.pos,polygon_10.color,polygon_11.pos,polygon_11.color,polygon_12.pos,polygon_12.color,polygon_13.pos,polygon_13.color,polygon_14.pos,polygon_14.color,polygon_15.pos,polygon_15.color,polygon_16.pos,polygon_16.color,polygon_17.pos,polygon_17.color,polygon_18.pos,polygon_18.color,polygon_19.pos,polygon_19.color,polygon_20.pos,polygon_20.color,polygon_21.pos,polygon_21.color,polygon_22.pos,polygon_22.color,polygon_23.pos,polygon_23.color,polygon_24.pos,polygon_24.color,polygon_25.pos,polygon_25.color,polygon_26.pos,polygon_26.color,polygon_27.pos,polygon_27.color,polygon_28.pos,polygon_28.color,polygon_29.pos,polygon_29.color,polygon_30.pos,polygon_30.color,polygon_31.pos,polygon_31.color,polygon_32.pos,polygon_32.color,dot_size,ITI.stopped,trials.thisRepN,trials.thisTrialN,trials.thisN,trials.thisIndex,trials.ran,break_2.started,break_2.stopped,trials_3.thisRepN,trials_3.thisTrialN,trials_3.thisN,trials_3.thisIndex,trials_3.ran
subject chose black,subject chose white,0.000599999,35.7899,space,20.7637,,5d3ee89122ed84000172272a,682f0fc6d848c21260efc5e9,2025-05-22_12h52.23.643,cuing_paradigm_dot,2024.1.5,Win32,60.24096386,682d573fa47f1360d1451895,,,,,,,,,,,,,,,,,,,,,,,,,,,,,,,,,,,,,,,,,,,,,,,,,,,,,,,,,,,,,,,,,,,,,,,,,,,,,,,,,,,,,,,,,,,,,,,,,,,,,,,,,,,,,,,,,
,,,,,,,5d3ee89122ed84000172272a,682f0fc6d848c21260efc5e9,2025-05-22_12h52.23.643,cuing_paradigm_dot,2024.1.5,Win32,60.24096386,682d573fa47f1360d1451895,35.7907,79.363,space,13.5499,,,,,,,,,,,,,,,,,,,,,,,,,,,,,,,,,,,,,,,,,,,,,,,,,,,,,,,,,,,,,,,,,,,,,,,,,,,,,,,,,,,,,,,,,,,,,,,,,,,,,,,,,,,,,
,,,,,,,5d3ee89122ed84000172272a,682f0fc6d848c21260efc5e9,2025-05-22_12h52.23.643,cuing_paradigm_dot,2024.1.5,Win32,60.24096386,682d573fa47f1360d1451895,,,,,,79.3639,83.6403,space,1.266400001,,,,,,,,,,,,,,,,,,,,,,,,,,,,,,,,,,,,,,,,,,,,,,,,,,,,,,,,,,,,,,,,,,,,,,,,,,,,,,,,,,,,,,,,,,,,,,,,,,,,,,,,
,,,,,,,5d3ee89122ed84000172272a,682f0fc6d848c21260efc5e9,2025-05-22_12h52.23.643,cuing_paradigm_dot,2024.1.5,Win32,60.24096386,682d573fa47f1360d1451895,,,,,,,,,,,83.735,84.1452,84.1464,84.3864,84.3868,85.8768,,85.8773,86.975,0,0,0,0,1,0.8,,,,,,,,,,,,,,,,,,,,,,,,,,,,,,,,,,,,,,,,,,,,,,,,,,,,,,,,,,,,,,,,,,,,,,,,,,,,,,,,,,,,,,,,
,,,,,,,5d3ee89122ed84000172272a,682f0fc6d848c21260efc5e9,2025-05-22_12h52.23.643,cuing_paradigm_dot,2024.1.5,Win32,60.24096386,682d573fa47f1360d1451895,,,,,,,,,,,86.9767,87.474,87.474,87.7175,87.7179,88.0073,right,88.0075,89.1057,0,1,1,1,1,0.2,0.2686,,,,,,,,,,,,,,,,,,,,,,,,,,,,,,,,,,,,,,,,,,,,,,,,,,,,,,,,,,,,,,,,,,,,,,,,,,,,,,,,,,,,,,,
,,,,,,,5d3ee89122ed84000172272a,682f0fc6d848c21260efc5e9,2025-05-22_12h52.23.643,cuing_paradigm_dot,2024.1.5,Win32,60.24096386,682d573fa47f1360d1451895,,,,,,,,,,,,,,,,,,,,,,,,,,,,89.1071,94.6836,space,2.5556,,,,,,,,,,,,,,,,,,,,,,,,,,,,,,,,,,,,,,,,,,,,,,,,,,,,,,,,,,,,,,,,,,,,,,,,,,,,,,,,,,
,,,,,,,5d3ee89122ed84000172272a,682f0fc6d848c21260efc5e9,2025-05-22_12h52.23.643,cuing_paradigm_dot,2024.1.5,Win32,60.24096386,682d573fa47f1360d1451895,,,,,,,,,,,94.7357,95.1993,,,95.4177,96.1478,left,,,,,,,,0.6,0.7138,,,,,,,95.2004,95.4175,96.1488,"[-0.1433084700180306,-0.029343257591038403]","[-1,-1,-1]","[-0.12133710928529726,-0.15399590563440263]","[-1,-1,-1]","[0.15321304864571453,-0.07433476534911214]","[1,1,1]","[-0.1556257332120671,-0.09749920808779002]","[-1,-1,-1]","[0.09269035951048618,-0.01688165027786662]","[-1,-1,-1]","[-0.0363705790960585,-0.06617663495426128]","[1,1,1]","[0.01349228725555246,-0.07923689098921353]","[-1,-1,-1]","[0.07465289328913442,-0.17221372794992035]","[1,1,1]","[-0.1226500009516823,0.12609945191248276]","[1,1,1]","[0.0320961397495133,0.07098105013134982]","[1,1,1]","[0.0984103825930106,0.13115290412452404]","[1,1,1]","[0.10404596792491476,-0.06979412068535643]","[-1,-1,-1]","[-0.05195652228033427,0.17989210274519787]","[1,1,1]","[0.17641870543989946,0.08640428412143857]","[1,1,1]","[0.04715208250166964,-0.05501879104178611]","[-1,-1,-1]","[-0.022988754917674478,0.13315590559150758]","[-1,-1,-1]","[0.11213080324780313,0.033184716004180416]","[1,1,1]","[-0.0196092868853992,-0.1257628809948196]","[1,1,1]","[-0.11707007772677705,0.04438632165373374]","[1,1,1]","[-0.09383525075881953,-0.09166906927070352]","[-1,-1,-1]","[-0.04260798750668235,-0.010912076102004172]","[1,1,1]","[-0.09939400952788126,-0.023006879473555862]","[1,1,1]","[0.006007644654024141,-0.18884121628883005]","[1,1,1]","[0.16038247356519947,-0.004751448471554229]","[1,1,1]","[0.058206945200969265,0.17780862597628344]","[1,1,1]","[0.06775291783268891,-0.13023883528643804]","[1,1,1]","[0.020724279290967564,0.1147521944730385]","[-1,-1,-1]","[-0.08271651059115082,-0.13071243287212794]","[1,1,1]","[0.13370847875401592,-0.13656105153218018]","[-1,-1,-1]","[0.018081516538252358,0.19391312618001155]","[-1,-1,-1]","[0.014544999430691702,-0.028013149346700093]","[1,1,1]","[-0.17511356696779778,0.04552923819702048]","[-1,-1,-1]","[0.02,0.02]",97.2477,0,0,0,176,1,,,,,,,
,,,,,,,5d3ee89122ed84000172272a,682f0fc6d848c21260efc5e9,2025-05-22_12h52.23.643,cuing_paradigm_dot,2024.1.5,Win32,60.24096386,682d573fa47f1360d1451895,,,,,,,,,,,97.249,97.7463,,,97.9901,98.1297,right,,,,,,,,0.45,0.118,,,,,,,97.7464,97.9899,98.1297,"[0.11262256852773826,-0.016072810376453233]","[-1,-1,-1]","[-0.020074738906790117,-0.17065458148450463]","[-1,-1,-1]","[-0.051521521045923495,0.061921034963282114]","[1,1,1]","[-0.10502070425424799,0.08897044625347574]","[-1,-1,-1]","[0.025109668144378375,0.10344712429147725]","[1,1,1]","[0.08411451567196442,0.07903617013178103]","[1,1,1]","[-0.11741799108417386,0.013744893134267723]","[1,1,1]","[-0.013432601778768212,0.03875189264832472]","[-1,-1,-1]","[-0.17578938709202876,0.023706005946496585]","[-1,-1,-1]","[-0.019288483295189236,0.14622169091951046]","[1,1,1]","[-0.1575874222200928,-0.017740869186411358]","[-1,-1,-1]","[0.13071855967287285,-0.13266443706713868]","[1,1,1]","[0.02466979686711274,0.009690774896938077]","[1,1,1]","[0.07413792874639209,-0.1720835787664963]","[-1,-1,-1]","[-0.026276613520053213,-0.018441416321058144]","[-1,-1,-1]","[0.03179104807694684,-0.15221790118654066]","[-1,-1,-1]","[0.012530665717340572,-0.09289143509926989]","[1,1,1]","[0.062035249841141414,-0.012794317891119492]","[1,1,1]","[0.12100742873151667,0.15542241239658705]","[-1,-1,-1]","[0.15210982029335712,-0.04141911464856612]","[-1,-1,-1]","[-0.09048837331159855,-0.13771462014819305]","[-1,-1,-1]","[-0.05297714296932767,-0.06868535695203878]","[-1,-1,-1]","[-0.008257895330451305,0.188762984197063]","[-1,-1,-1]","[-0.15021692920823776,-0.12383577688476442]","[1,1,1]","[-0.06348917601042997,0.1816481811621226]","[-1,-1,-1]","[0.16200532779622207,0.048088580284077205]","[1,1,1]","[-0.06640078571801504,0.019240729438710927]","[1,1,1]","[-0.03954588292806356,-0.13424134487557945]","[-1,-1,-1]","[0.06279468198210397,0.15003193965734693]","[1,1,1]","[0.09291128532836074,-0.08885126504651507]","[-1,-1,-1]","[0.15293467594117816,0.10765986305548954]","[-1,-1,-1]","[0.10427172567989129,0.03314250679776801]","[1,1,1]","[0.02,0.02]",99.2281,0,1,1,80,1,,,,,,,
,,,,,,,5d3ee89122ed84000172272a,682f0fc6d848c21260efc5e9,2025-05-22_12h52.23.643,cuing_paradigm_dot,2024.1.5,Win32,60.24096386,682d573fa47f1360d1451895,,,,,,,,,,,99.2291,99.7274,,,99.9837,100.0943,right,,,,,,,,0.55,0.0885,,,,,,,99.7275,99.9836,100.0947,"[-0.043092292227149186,0.021834373407146276]","[-1,-1,-1]","[-0.15266311384031542,-0.009970027667521496]","[-1,-1,-1]","[0.06088943144140393,0.1854846471819902]","[1,1,1]","[0.11937749256549242,0.06897267437948294]","[-1,-1,-1]","[0.002735542561832161,-0.13591634700895822]","[1,1,1]","[0.05848587480201838,0.07070134497346216]","[-1,-1,-1]","[-0.012782723887730553,-0.17377791501729964]","[-1,-1,-1]","[-0.13686385031080955,-0.0970876451076531]","[-1,-1,-1]","[-0.12412360552521662,0.05404188613986277]","[-1,-1,-1]","[-0.0601027201713291,0.1335270337741831]","[1,1,1]","[-0.004532229077913842,0.011098078858686303]","[1,1,1]","[-0.00629813325573924,-0.08696890370297718]","[1,1,1]","[0.18511239734954765,-0.05011719330382829]","[1,1,1]","[-0.08190257004177301,0.039516894988622354]","[1,1,1]","[0.1263992834067277,0.015159835396092726]","[1,1,1]","[0.032350282989659834,0.10136481926889077]","[-1,-1,-1]","[0.03456198892428869,-0.031374807269060674]","[1,1,1]","[-0.08352447692862434,-0.059470953023173345]","[1,1,1]","[0.07809026677200258,-0.16938435976298336]","[1,1,1]","[-0.03128441879084134,0.17396263013347207]","[1,1,1]","[-0.13888913149959956,0.1059474570177488]","[1,1,1]","[0.12334891486331298,-0.12924507006539804]","[1,1,1]","[-0.049460969323182044,-0.15344848572427422]","[-1,-1,-1]","[0.1204734793046226,-0.08525577523842212]","[-1,-1,-1]","[0.04987637521383625,-0.07324909744988918]","[1,1,1]","[0.13280428253972484,-0.04047923264823751]","[-1,-1,-1]","[-0.19012529294720476,0.04651737669060231]","[-1,-1,-1]","[-0.013318611077285549,-0.04363913200661936]","[-1,-1,-1]","[-0.06661474442417256,-0.019704959531415142]","[1,1,1]","[0.17944160957040411,0.020993160146521854]","[1,1,1]","[0.07728149800755019,-0.11063036470233004]","[1,1,1]","[0.01031492527042466,0.1470452631279333]","[-1,-1,-1]","[0.02,0.02]",101.1928,0,2,2,124,1,,,,,,,
,,,,,,,5d3ee89122ed84000172272a,682f0fc6d848c21260efc5e9,2025-05-22_12h52.23.643,cuing_paradigm_dot,2024.1.5,Win32,60.24096386,682d573fa47f1360d1451895,,,,,,,,,,,101.1938,101.6921,,,101.9443,103.4415,,,,,,,,,0.9,,,,,,,,101.6922,101.9442,103.4417,"[0.05592956946556549,-0.18999271541779522]","[1,1,1]","[0.09096449705688196,0.053972229864614495]","[1,1,1]","[-0.08418206551338647,-0.027784311141968963]","[1,1,1]","[0.07329780519723149,0.1410635640560514]","[1,1,1]","[-0.14380171562071717,-0.06834599933238596]","[-1,-1,-1]","[-0.054803120685444434,0.002435807871877774]","[1,1,1]","[0.1937896268550057,0.04825241561485353]","[1,1,1]","[0.11278898548935226,0.09218801417741174]","[1,1,1]","[-0.13268935382818553,0.08095260706979893]","[1,1,1]","[-0.02781917470163066,0.1355983068838514]","[1,1,1]","[0.0968265032191283,-0.06351140279093309]","[-1,-1,-1]","[-0.022276584282991754,0.09289384041322515]","[1,1,1]","[-0.07711305298369549,-0.17503076584764504]","[1,1,1]","[-0.07426511373752523,-0.07678198396505323]","[1,1,1]","[0.08514198463223671,-0.103144247542679]","[1,1,1]","[-0.05982953738105512,-0.13845565411640245]","[1,1,1]","[0.038165268968309504,0.0450452389934918]","[-1,-1,-1]","[-0.11937562287858564,-0.10329143983954864]","[1,1,1]","[0.1765944249693943,-0.07796916783049722]","[1,1,1]","[-0.018058143264027455,0.1777576929321682]","[1,1,1]","[-0.06653632797634346,0.10590007794062292]","[1,1,1]","[0.11004988675145339,-0.025078466758745418]","[1,1,1]","[-0.18516419288459493,-0.04055255678934605]","[1,1,1]","[-0.15051854488110625,0.012388169444334123]","[1,1,1]","[0.12410318588599323,0.1426504000049946]","[1,1,1]","[-0.0959898322843116,0.15085875182679617]","[1,1,1]","[-0.020643845222298635,-0.08863192970407197]","[1,1,1]","[0.006040510768636954,-0.14388279394793407]","[1,1,1]","[0.1830102337429103,-0.002123571465356705]","[1,1,1]","[0.12485127869402696,-0.1535622789999432]","[1,1,1]","[-0.1291751087087938,-0.14485533333295744]","[1,1,1]","[0.02265332719764085,0.15980395307378745]","[1,1,1]","[0.02,0.02]",104.5394,0,3,3,202,1,,,,,,,
,,,,,,,5d3ee89122ed84000172272a,682f0fc6d848c21260efc5e9,2025-05-22_12h52.23.643,cuing_paradigm_dot,2024.1.5,Win32,60.24096386,682d573fa47f1360d1451895,,,,,,,,,,,104.5406,105.0386,,,105.281,105.4555,left,,,,,,,,0.5,0.1585,,,,,,,105.0386,105.2809,105.4557,"[0.04507055444547961,-0.19332344311630223]","[1,1,1]","[0.15414614259336024,0.031511344798720406]","[-1,-1,-1]","[-0.17917534464570342,0.06714251696689649]","[1,1,1]","[-0.03848585051486131,-0.0066702377781731]","[1,1,1]","[-0.07677583307450878,-0.053127535138129456]","[-1,-1,-1]","[-0.07398083487155113,0.059340172513874946]","[1,1,1]","[0.12020008119535276,-0.062192903362256295]","[1,1,1]","[-0.0937447121602114,0.14017019848474063]","[-1,-1,-1]","[-0.032037226059420804,-0.0782695179632881]","[1,1,1]","[0.03037401060834402,0.04389191653564535]","[-1,-1,-1]","[0.05299473667812438,-0.09073733094627617]","[1,1,1]","[0.11307842971256442,0.003509418385422556]","[-1,-1,-1]","[-0.06883089528036185,-0.17998434585171694]","[1,1,1]","[-0.03548566271067435,0.03672658975249521]","[1,1,1]","[-0.0046220208600893644,0.146957497825697]","[1,1,1]","[-0.08929254542740436,0.0025646658932863393]","[-1,-1,-1]","[-0.12595125570372423,-0.13097775982143695]","[1,1,1]","[-0.008471289939062421,-0.15586891009523737]","[-1,-1,-1]","[0.00360075796621463,-0.02598118592684323]","[-1,-1,-1]","[0.04106283149271234,0.08894662738834275]","[-1,-1,-1]","[0.10458689291363027,0.09515728106792]","[-1,-1,-1]","[0.07215150416407093,-0.14315679122897362]","[1,1,1]","[0.01097766912485124,-0.10271310731568925]","[-1,-1,-1]","[0.09033082579897349,0.05743306633882437]","[-1,-1,-1]","[0.1207480584561245,-0.12633557363718018]","[1,1,1]","[-0.1571322086904474,-0.07485948693956973]","[1,1,1]","[0.06618632298879588,0.1619829958548586]","[1,1,1]","[0.1746188189707816,-0.06382457918039607]","[-1,-1,-1]","[0.15268369407989846,0.09838025448552873]","[-1,-1,-1]","[0.0697774619368477,0.0117639179425015]","[-1,-1,-1]","[-0.11450721472821802,0.07567841016805076]","[-1,-1,-1]","[-0.004094028213381297,0.07539177570482006]","[1,1,1]","[0.02,0.02]",106.5532,0,4,4,108,1,,,,,,,
,,,,,,,5d3ee89122ed84000172272a,682f0fc6d848c21260efc5e9,2025-05-22_12h52.23.643,cuing_paradigm_dot,2024.1.5,Win32,60.24096386,682d573fa47f1360d1451895,,,,,,,,,,,106.554,107.0526,,,107.3133,107.5525,left,,,,,,,,0.6,0.218900001,,,,,,,107.0527,107.3131,107.5526,"[0.0889461309820722,-0.09900517150113927]","[-1,-1,-1]","[0.04774341245392655,-0.12959613569337203]","[1,1,1]","[-0.010777118703389495,-0.11041913068540707]","[1,1,1]","[0.17540279221510288,0.03894863370224437]","[-1,-1,-1]","[0.03339319950804361,-0.09026093483096755]","[-1,-1,-1]","[-0.0006845144385190335,0.11069564174549204]","[1,1,1]","[0.09375535530270947,0.08151816614670228]","[1,1,1]","[0.06966462501535364,-0.005302277024002343]","[1,1,1]","[-0.16831070065647954,0.04462483399315698]","[1,1,1]","[-0.11918653535558707,0.09562869533377195]","[-1,-1,-1]","[-0.08457507195787115,0.029898919095276272]","[-1,-1,-1]","[0.10239057661714465,-0.03114128212842925]","[-1,-1,-1]","[0.13707788431259413,0.12047835353605708]","[1,1,1]","[0.03447055908851015,0.13129703274656454]","[1,1,1]","[0.13048099338023014,-0.11012897651813927]","[1,1,1]","[-0.14074275369013742,-0.08083360981879162]","[-1,-1,-1]","[0.04841951300782463,0.05332766151138159]","[1,1,1]","[-0.02200615127710697,0.05870822865368113]","[1,1,1]","[-0.08789104606542622,-0.10432184751647436]","[1,1,1]","[-0.146761868621373,0.1313972340501787]","[1,1,1]","[-0.0016063854738576906,0.16685219720247757]","[1,1,1]","[-0.09327048991288761,-0.04781043636436018]","[1,1,1]","[-0.12393639335812083,0.044511811722760926]","[-1,-1,-1]","[-0.1004121243594781,-0.15139540709231494]","[-1,-1,-1]","[0.0442667724069516,-0.19335602566978893]","[-1,-1,-1]","[0.08778651811653046,0.15240647138395133]","[-1,-1,-1]","[-0.12376963823939131,-0.0013158157405172752]","[-1,-1,-1]","[0.16472664304806794,-0.020200261721004854]","[1,1,1]","[-0.05904772719946894,0.1270923201178401]","[1,1,1]","[-0.061406093836512084,-0.011959997619681023]","[1,1,1]","[-0.044546561423896645,-0.1577982704062979]","[1,1,1]","[-0.16969301163153708,-0.04743260404043127]","[-1,-1,-1]","[0.02,0.02]",108.651,0,5,5,168,1,,,,,,,
,,,,,,,5d3ee89122ed84000172272a,682f0fc6d848c21260efc5e9,2025-05-22_12h52.23.643,cuing_paradigm_dot,2024.1.5,Win32,60.24096386,682d573fa47f1360d1451895,,,,,,,,,,,108.652,109.1506,,,109.3933,109.5272,right,,,,,,,,0.55,0.117900001,,,,,,,109.1507,109.3932,109.5272,"[-0.08081038078876474,0.04959795151211474]","[-1,-1,-1]","[0.16504617126950516,0.06875671058606835]","[-1,-1,-1]","[0.15117951220329262,-0.03271863423826647]","[-1,-1,-1]","[0.14478447532275207,-0.11418365802755981]","[1,1,1]","[-0.07288388800535571,0.12102437251046912]","[1,1,1]","[-0.0481957760536925,-0.18833982569224572]","[1,1,1]","[-0.04624648437461723,-0.14292006542247015]","[-1,-1,-1]","[0.06288598935136729,-0.03278842168576141]","[-1,-1,-1]","[0.044289416738892334,0.12935550659169967]","[-1,-1,-1]","[0.10708882284033405,-0.13953060682205667]","[1,1,1]","[0.06611410687527716,-0.12513073242296716]","[1,1,1]","[-0.10710730629917709,-0.05671182433561043]","[-1,-1,-1]","[0.015503311060789763,-0.10505631613445322]","[1,1,1]","[-0.04586455508354904,0.15605421726645272]","[-1,-1,-1]","[-0.18473817480371135,-0.07396567327528906]","[-1,-1,-1]","[0.11838999633993805,0.07517107303200013]","[-1,-1,-1]","[-0.12176281160859724,0.03257844376452671]","[1,1,1]","[-0.07107568905440069,-0.01089265054311419]","[1,1,1]","[-0.030972162257119466,0.02437506274071078]","[1,1,1]","[-0.12869766128920274,-0.1076850801982168]","[1,1,1]","[0.012148684351966725,-0.046692463465046165]","[1,1,1]","[0.05447491684525259,0.03514392655357406]","[-1,-1,-1]","[0.05220192540680063,-0.08034013838609003]","[-1,-1,-1]","[-0.05892651636864618,-0.09372228183683366]","[1,1,1]","[0.11270170913300159,-0.07584371512722081]","[1,1,1]","[0.014198296179585353,0.02339364244712664]","[1,1,1]","[0.004424693525904591,0.13595834073681035]","[1,1,1]","[-0.14949074876561164,-0.028168775035579206]","[1,1,1]","[-0.09230867091756595,-0.15722417698457997]","[1,1,1]","[0.12450070106914583,0.15632177409878564]","[1,1,1]","[0.029757181389155594,-0.15592914135164695]","[-1,-1,-1]","[-0.1310175616645323,0.07558115736760326]","[-1,-1,-1]","[0.02,0.02]",110.624,0,6,6,147,1,,,,,,,
,,,,,,,5d3ee89122ed84000172272a,682f0fc6d848c21260efc5e9,2025-05-22_12h52.23.643,cuing_paradigm_dot,2024.1.5,Win32,60.24096386,682d573fa47f1360d1451895,,,,,,,,,,,110.6252,111.1247,,,111.3745,111.4484,right,,,,,,,,0.5,0.0559,,,,,,,111.1248,111.3743,111.4486,"[0.04820752601129608,-0.16854317980403122]","[-1,-1,-1]","[-0.10527846949230474,-0.1087390486925125]","[1,1,1]","[-0.12613221772868652,0.09372314115370375]","[1,1,1]","[-0.1862098084032047,0.058083419620880324]","[-1,-1,-1]","[-0.01629599176436441,-0.06870160557689295]","[-1,-1,-1]","[-0.01877141006214736,0.14710095942875218]","[1,1,1]","[0.1529848010401988,0.11383731142397928]","[-1,-1,-1]","[0.17886656869854697,-0.07491339807189547]","[-1,-1,-1]","[0.009296193013675414,-0.13492754501712106]","[-1,-1,-1]","[-0.05119360021040162,-0.1857993626103484]","[1,1,1]","[0.14027167930733178,-0.1053475625061461]","[1,1,1]","[-0.15417661517475684,-0.06561941833097702]","[-1,-1,-1]","[-0.0781832851765726,0.07446131100202419]","[-1,-1,-1]","[0.0050663950947734395,0.028639028475777168]","[1,1,1]","[-0.04623185130341094,-0.10510547367715145]","[1,1,1]","[-0.06044548641601259,-0.1446118273833651]","[-1,-1,-1]","[-0.1354847034072202,0.024641368187184584]","[-1,-1,-1]","[-0.07755180146557066,0.003482113089148075]","[1,1,1]","[0.10897449041265996,0.009027235276548175]","[1,1,1]","[0.14885572394577665,0.004298899558694908]","[-1,-1,-1]","[-0.09514639532897905,0.14239675487999265]","[1,1,1]","[-0.03148153262398811,0.1067581959528279]","[1,1,1]","[0.08106333604523447,-0.11772280661857465]","[1,1,1]","[-0.04072423745128119,-0.024003811477901375]","[1,1,1]","[0.026756648374470608,-0.08607861322403089]","[1,1,1]","[-0.1258896977786621,-0.015963376549353224]","[1,1,1]","[0.1643051277543085,0.04124028552572366]","[1,1,1]","[0.010002196552956045,0.08931288193662716]","[-1,-1,-1]","[0.1018730258669536,-0.03953963608007057]","[-1,-1,-1]","[0.0573982082326488,0.07678570956496959]","[-1,-1,-1]","[0.014836197597716294,0.1941163830425224]","[-1,-1,-1]","[0.0664597611043725,0.16455369357341496]","[-1,-1,-1]","[0.02,0.02]",112.5469,0,7,7,107,1,,,,,,,
,,,,,,,5d3ee89122ed84000172272a,682f0fc6d848c21260efc5e9,2025-05-22_12h52.23.643,cuing_paradigm_dot,2024.1.5,Win32,60.24096386,682d573fa47f1360d1451895,,,,,,,,,,,112.5477,113.0461,,,113.2975,113.3458,left,,,,,,,,0.55,0.0349,,,,,,,113.0461,113.2974,113.346,"[0.0001778939269962848,-0.05955053958339283]","[1,1,1]","[0.04791560877334965,-0.09997873793838158]","[1,1,1]","[-0.17436455513929525,0.08194385390658039]","[-1,-1,-1]","[-0.15281064667883715,-0.09939504398427097]","[-1,-1,-1]","[-0.04916657650810253,-0.08264637261146093]","[-1,-1,-1]","[0.15652682268486418,0.01902457205159055]","[1,1,1]","[0.005294436067785668,0.07129385129466914]","[1,1,1]","[0.10301577488817894,0.15363079801719065]","[1,1,1]","[-0.07047005890018684,0.10231576358325271]","[1,1,1]","[-0.08005209775351685,-0.17902227031616283]","[1,1,1]","[0.11069195334675078,0.03204579813232222]","[-1,-1,-1]","[0.14473250112145997,-0.035802725898160255]","[1,1,1]","[-0.12590724970057302,0.03798301489332078]","[1,1,1]","[0.09873831776649508,-0.12538924990329317]","[-1,-1,-1]","[0.009225638338048271,0.11626231506897133]","[-1,-1,-1]","[0.03480356734245271,0.18545316753205307]","[-1,-1,-1]","[0.1228899916471709,0.07682828559190726]","[-1,-1,-1]","[-0.012174884886308832,-0.1394579053686578]","[-1,-1,-1]","[0.01107225170889135,-0.17556549837711097]","[1,1,1]","[-0.019334550795285937,-0.0028971771829974877]","[-1,-1,-1]","[-0.1688261107541223,-0.05298673102510394]","[1,1,1]","[-0.08976517368118808,-0.10638737338662183]","[-1,-1,-1]","[0.12215260117720292,0.11796404067783249]","[1,1,1]","[0.07074879568958449,-0.04972166735113658]","[-1,-1,-1]","[-0.0849670798740286,0.047621332202204734]","[1,1,1]","[-0.017636232823674294,0.16021958702627054]","[1,1,1]","[0.14018811166106887,-0.07587156997449707]","[1,1,1]","[-0.1234177013386605,-0.037149814105964886]","[-1,-1,-1]","[0.05210853361648912,-0.002784218716393678]","[1,1,1]","[0.022781359411583806,0.03057122184519173]","[1,1,1]","[0.1617645338440258,0.09511834134322762]","[-1,-1,-1]","[-0.14852763315515458,0.11633250851630372]","[1,1,1]","[0.02,0.02]",114.4444,0,8,8,121,1,,,,,,,
,,,,,,,5d3ee89122ed84000172272a,682f0fc6d848c21260efc5e9,2025-05-22_12h52.23.643,cuing_paradigm_dot,2024.1.5,Win32,60.24096386,682d573fa47f1360d1451895,,,,,,,,,,,114.4451,114.9443,,,115.1865,115.2211,right,,,,,,,,0.55,0.0182,,,,,,,114.9443,115.1864,115.2212,"[0.17979063501298617,-0.04328861807746705]","[-1,-1,-1]","[-0.14845011230055072,0.019212409131828843]","[1,1,1]","[0.030444568525602955,0.14911339179020103]","[1,1,1]","[-0.044139914559221664,-0.020097365443152767]","[1,1,1]","[0.05389488857896602,-0.11357717516838405]","[1,1,1]","[0.002089372105155324,-0.1546389157707498]","[1,1,1]","[-0.031115840747601004,0.06361456813183582]","[-1,-1,-1]","[0.008781641166086328,0.04294065587615435]","[-1,-1,-1]","[0.06697317668103162,0.08036761077551016]","[-1,-1,-1]","[0.11985113904581036,-0.058964483969084776]","[1,1,1]","[-0.04336161970213824,-0.06508127473016238]","[-1,-1,-1]","[-0.18100961102817464,-0.06951944743489535]","[1,1,1]","[-0.16650022657818228,0.09017838441433189]","[1,1,1]","[-0.063277075448504,0.10423380035623028]","[-1,-1,-1]","[0.13979467228252504,0.12850634408875894]","[-1,-1,-1]","[0.03793837300452252,0.19140085790202224]","[1,1,1]","[-0.04131799606505201,-0.17567998376745317]","[-1,-1,-1]","[0.12020609106554084,0.0048384396435739675]","[1,1,1]","[-0.06593418947854014,0.014508564743692555]","[1,1,1]","[-0.04480713752481868,0.16699725455558007]","[1,1,1]","[-0.07418027565019399,-0.13836799832583505]","[1,1,1]","[-0.12004807421486291,-0.06884641929833346]","[-1,-1,-1]","[0.12161676664354068,0.0768787906936851]","[-1,-1,-1]","[0.1718206095601141,-0.09878881291500154]","[-1,-1,-1]","[0.023483905621454665,-0.050753794857277344]","[-1,-1,-1]","[0.0005310655505738947,0.0026936364897874325]","[1,1,1]","[0.07539064770188046,0.1742409477566363]","[1,1,1]","[0.07422124416750021,-0.007637326642280425]","[-1,-1,-1]","[-0.10187633897262346,-0.008726423366370249]","[-1,-1,-1]","[-0.12182807423056984,0.060444294485886764]","[1,1,1]","[0.06882598159778426,0.037765518556798335]","[1,1,1]","[0.02258098953375194,-0.19248833654632322]","[1,1,1]","[0.02,0.02]",116.3188,0,9,9,143,1,,,,,,,
,,,,,,,5d3ee89122ed84000172272a,682f0fc6d848c21260efc5e9,2025-05-22_12h52.23.643,cuing_paradigm_dot,2024.1.5,Win32,60.24096386,682d573fa47f1360d1451895,,,,,,,,,,,116.32,116.8177,,,117.0692,117.2692,right,,,,,,,,0.6,0.1851,,,,,,,116.8177,117.0692,117.2693,"[-0.08300407959480559,-0.17434692613166172]","[1,1,1]","[0.07160591647858223,0.05964983382626696]","[1,1,1]","[0.13803255712961873,-0.06800847411739774]","[1,1,1]","[0.08995817456937599,-0.13831585298233634]","[1,1,1]","[-0.03786992270848215,0.08383128508722927]","[1,1,1]","[-0.03682744404908642,-0.07962461095701165]","[-1,-1,-1]","[-0.13726685666509372,0.027747632258281623]","[1,1,1]","[-0.020559193250664232,-0.02351008037414529]","[-1,-1,-1]","[0.04494917495353308,-0.18681758998082085]","[-1,-1,-1]","[0.053292765260702264,0.18429423639142148]","[-1,-1,-1]","[-0.03584483204302611,0.16219990537094578]","[-1,-1,-1]","[-0.12292326592406547,-0.07965313495090252]","[1,1,1]","[-0.027807206588144954,-0.17135138823812948]","[1,1,1]","[0.11075492567649696,0.11804548711140568]","[-1,-1,-1]","[0.01359655789900415,0.07922644772421075]","[1,1,1]","[0.03783386117921004,0.1327972916354164]","[-1,-1,-1]","[-0.10636408130635097,0.07785293286964125]","[-1,-1,-1]","[0.1433310898802067,-0.011827133369903578]","[1,1,1]","[0.029651789565734197,-0.13524175299611577]","[1,1,1]","[0.07506118315078265,-0.00249690388296382]","[1,1,1]","[-0.07966729440322282,-0.11435256874510301]","[1,1,1]","[-0.10875214943331916,0.12649526932079835]","[-1,-1,-1]","[-0.18118449785409405,-0.05704135723605629]","[-1,-1,-1]","[0.042069442168689686,-0.08282887337277794]","[1,1,1]","[0.16522842172315474,0.032138487395018574]","[1,1,1]","[0.02410358978389895,0.007673004043471607]","[1,1,1]","[-0.17619727909755833,0.0011565452574332628]","[1,1,1]","[0.11719343154445122,0.06446415625737292]","[1,1,1]","[-0.07704310902665094,0.03552455305665812]","[-1,-1,-1]","[0.0003018290330020961,0.19491559258323676]","[-1,-1,-1]","[-0.07678592487637723,-0.04478031160138947]","[-1,-1,-1]","[-0.13013764379229767,-0.0226108453348605]","[1,1,1]","[0.02,0.02]",118.3731,0,10,10,178,1,,,,,,,
,,,,,,,5d3ee89122ed84000172272a,682f0fc6d848c21260efc5e9,2025-05-22_12h52.23.643,cuing_paradigm_dot,2024.1.5,Win32,60.24096386,682d573fa47f1360d1451895,,,,,,,,,,,118.3738,118.8728,,,119.1141,119.3728,right,,,,,,,,0.1,0.2377,,,,,,,118.8729,119.114,119.3729,"[0.0723504998839864,0.11879388454090392]","[-1,-1,-1]","[0.04210930361243961,0.07353803786883521]","[-1,-1,-1]","[-0.11613525803468903,0.13086699718667857]","[-1,-1,-1]","[0.1750735115099865,-0.03837391704577847]","[1,1,1]","[0.113484566006205,-0.15551781418079128]","[-1,-1,-1]","[0.025271733410885743,-0.03365334358577402]","[-1,-1,-1]","[-0.020937852380794063,-0.1375713487255128]","[-1,-1,-1]","[-0.11379170011765835,0.004319343582858782]","[-1,-1,-1]","[-0.16477529704655858,-0.01406920053236581]","[1,1,1]","[-0.03952632213763516,-0.18498976303834644]","[-1,-1,-1]","[-0.01669940702236435,0.1383710642709342]","[-1,-1,-1]","[0.11864887722964589,-0.01215161313383025]","[-1,-1,-1]","[-0.07172492108631894,-0.1269232010823603]","[-1,-1,-1]","[0.02736127913278735,-0.19550238298221914]","[-1,-1,-1]","[-0.02107759960220183,0.025580939901954328]","[-1,-1,-1]","[-0.07627384725343843,0.06933810549360624]","[-1,-1,-1]","[0.03409857393329335,-0.10098182700725905]","[-1,-1,-1]","[-0.06640572352282398,0.14286344312968247]","[-1,-1,-1]","[0.12429664211567024,-0.06050374790549428]","[-1,-1,-1]","[0.07797511949533845,0.180865440012876]","[-1,-1,-1]","[-0.07403807397125911,-0.0032809301750051454]","[-1,-1,-1]","[0.017776209356687986,0.1909534766348658]","[-1,-1,-1]","[0.15747048817583922,-0.10807928830403984]","[-1,-1,-1]","[0.07321435916938009,0.004884577005033814]","[-1,-1,-1]","[0.08518451372336416,-0.1102348372222264]","[-1,-1,-1]","[0.13077518497005597,0.08792723768833945]","[-1,-1,-1]","[0.03846277304341002,-0.14354528886666765]","[1,1,1]","[-0.07209212887625627,-0.055836294192078945]","[-1,-1,-1]","[0.06971061391325555,-0.06506285435964532]","[-1,-1,-1]","[-0.10233855023227238,-0.16877765676033876]","[-1,-1,-1]","[0.18450058655101378,0.025884691578921527]","[-1,-1,-1]","[-0.07796115533738028,0.18296998604573786]","[-1,-1,-1]","[0.02,0.02]",120.4715,0,11,11,9,1,,,,,,,
,,,,,,,5d3ee89122ed84000172272a,682f0fc6d848c21260efc5e9,2025-05-22_12h52.23.643,cuing_paradigm_dot,2024.1.5,Win32,60.24096386,682d573fa47f1360d1451895,,,,,,,,,,,120.4725,120.9706,,,121.222,121.3875,left,,,,,,,,0.5,0.1536,,,,,,,120.9706,121.2217,121.3876,"[-0.08008372834548498,0.18092244140910607]","[-1,-1,-1]","[0.030442028846183126,-0.05133696602542819]","[1,1,1]","[0.017520118373183055,0.09768505312952533]","[-1,-1,-1]","[0.07692291947485592,0.026311767093439322]","[1,1,1]","[-0.11388828107987456,-0.14774627918956232]","[1,1,1]","[-0.08425817694283116,-0.11692100106338191]","[1,1,1]","[0.15292562039586513,-0.11745919199150867]","[-1,-1,-1]","[0.05979815959955897,0.06729441979456553]","[-1,-1,-1]","[0.07310405735148656,-0.1333084337340883]","[-1,-1,-1]","[-0.13506104552182605,0.04732953651005485]","[1,1,1]","[0.10451985836413909,-0.09710038413690106]","[-1,-1,-1]","[0.12705311711348818,0.08140487854401517]","[1,1,1]","[-0.1873190454608651,0.021305863566449076]","[-1,-1,-1]","[-0.017766752907977083,0.044282205320062204]","[1,1,1]","[-0.16831312335129334,-0.10781688162906637]","[-1,-1,-1]","[0.08765572333386897,0.16111599687954142]","[1,1,1]","[0.06171683340200266,-0.024044616030047688]","[1,1,1]","[0.17439958843961959,-0.06423995116460614]","[-1,-1,-1]","[-0.042564906155607776,-0.08505859701608375]","[-1,-1,-1]","[0.18301599985674605,0.05880694711001466]","[1,1,1]","[-0.04230108819164203,0.1562500863930968]","[1,1,1]","[0.014109159501469973,0.18318135211468478]","[1,1,1]","[-0.052450923026213174,0.09609136276754153]","[1,1,1]","[-0.13976329251856182,-0.0708700833035296]","[1,1,1]","[-0.10515415046713487,-0.0181112720869065]","[-1,-1,-1]","[0.1398794429830966,-0.03130465777099476]","[-1,-1,-1]","[0.14458135308267203,0.13594265249858595]","[1,1,1]","[-0.045431110532610626,-0.04192643288329076]","[1,1,1]","[-0.14736149367096338,0.10752495965324455]","[-1,-1,-1]","[-0.01202355802028933,-0.11473261235226866]","[-1,-1,-1]","[-0.05738284861328004,0.015353248452416353]","[-1,-1,-1]","[-0.011329486346073399,-0.16769690732881834]","[-1,-1,-1]","[0.02,0.02]",122.4858,0,12,12,105,1,,,,,,,
,,,,,,,5d3ee89122ed84000172272a,682f0fc6d848c21260efc5e9,2025-05-22_12h52.23.643,cuing_paradigm_dot,2024.1.5,Win32,60.24096386,682d573fa47f1360d1451895,,,,,,,,,,,122.4868,122.9855,,,123.236,123.3855,left,,,,,,,,0.4,0.134400001,,,,,,,122.9855,123.2359,123.3856,"[-0.1670059223375703,0.03408883238582371]","[-1,-1,-1]","[0.11477473661843446,0.07864372513243166]","[-1,-1,-1]","[-0.012722495605550055,-0.028995972545850283]","[-1,-1,-1]","[-0.02150225870656042,-0.09334130166624288]","[1,1,1]","[0.04633926981410355,-0.06936575486452365]","[1,1,1]","[-0.11524578851044269,0.022836425250919952]","[-1,-1,-1]","[-0.05616407029466018,0.10051018372846057]","[-1,-1,-1]","[0.11508610407078024,-0.023303510630011227]","[1,1,1]","[-0.04902979194220658,-0.05520788309056882]","[-1,-1,-1]","[0.16153977992160137,-0.015138284352664719]","[1,1,1]","[-0.14970788548612163,-0.13231917421715797]","[-1,-1,-1]","[-0.07224292276951381,-0.09104729517867174]","[-1,-1,-1]","[0.01909325735158036,0.17376197406168944]","[-1,-1,-1]","[0.04953902280450734,0.08801391108603583]","[-1,-1,-1]","[0.10359473148020067,-0.07408831333785658]","[-1,-1,-1]","[-0.05060229173956011,0.0018816487232717653]","[-1,-1,-1]","[0.11854075964985095,0.15862018522926283]","[1,1,1]","[-0.11710960664979315,0.09617840880131458]","[1,1,1]","[0.15552469952476583,-0.0888310474605844]","[-1,-1,-1]","[0.03209572884650616,0.044731523363592256]","[1,1,1]","[0.08595707099815537,-0.14218734157432822]","[-1,-1,-1]","[-0.15103168857873953,-0.06718259755346716]","[1,1,1]","[0.00782390079903439,-0.1594641494417771]","[1,1,1]","[-0.19104885103335525,-0.028600473092565047]","[-1,-1,-1]","[-0.09209252387694312,-0.01599083945703422]","[-1,-1,-1]","[-0.04509121423214947,0.13896315525220088]","[1,1,1]","[0.01715642602997296,-0.11344788455001063]","[-1,-1,-1]","[0.12420706276848911,0.02028526906811134]","[1,1,1]","[0.16487185314236225,0.026905701528434165]","[1,1,1]","[0.018302338612600447,-0.0035978867347014275]","[1,1,1]","[0.06566142289617743,0.12832530432926428]","[-1,-1,-1]","[0.06426193207011813,-0.02898621887425033]","[-1,-1,-1]","[0.02,0.02]",124.4845,0,13,13,37,1,,,,,,,
,,,,,,,5d3ee89122ed84000172272a,682f0fc6d848c21260efc5e9,2025-05-22_12h52.23.643,cuing_paradigm_dot,2024.1.5,Win32,60.24096386,682d573fa47f1360d1451895,,,,,,,,,,,124.4855,124.9842,,,125.2265,125.2929,right,,,,,,,,0.9,0.0512,,,,,,,124.9843,125.2264,125.293,"[-0.10064820991887376,-0.11493135074863185]","[1,1,1]","[-0.00882793688180381,0.11363622928975034]","[-1,-1,-1]","[-0.004505844016396009,-0.11114267211443109]","[1,1,1]","[0.050077674019593676,0.16035203926616476]","[1,1,1]","[-0.0177351101830521,-0.028394964223284604]","[1,1,1]","[0.17378393699026265,-0.038191065820231525]","[1,1,1]","[-0.08995025573608742,0.1601604339682962]","[1,1,1]","[-0.03382281452342488,0.030130211651260674]","[1,1,1]","[0.16952595264181536,0.042588166428251306]","[1,1,1]","[0.14641751952514248,-0.10980193055045501]","[-1,-1,-1]","[0.07565644811993406,-0.020846194371260778]","[1,1,1]","[-0.1124582187831295,0.0547945046487473]","[1,1,1]","[-0.13192926750644052,0.10404048963407746]","[1,1,1]","[0.06362587863008272,0.03116832705454116]","[1,1,1]","[0.11166088335897612,0.059233050408311644]","[-1,-1,-1]","[-0.17439395603772784,-0.014072707593230224]","[1,1,1]","[0.09932339810940212,-0.08674920509010081]","[1,1,1]","[-0.0719130592879809,0.10757511356616375]","[1,1,1]","[-0.004772725053985912,0.15595732667304668]","[1,1,1]","[-0.03597202325113216,0.08092188717531136]","[1,1,1]","[-0.07718228577577259,-0.17904299442302235]","[1,1,1]","[-0.12944440382218692,-0.05962954361943573]","[1,1,1]","[-0.18484852680628044,0.05483168204316337]","[1,1,1]","[-0.034267143421788625,-0.17139481456917516]","[1,1,1]","[0.09236310117516197,0.17285056875054453]","[1,1,1]","[-0.0887151038803091,-0.010335385290529301]","[1,1,1]","[-0.0356841676672261,-0.068107188761386]","[1,1,1]","[0.1531718223472846,0.12682114370801056]","[1,1,1]","[0.014734372057160997,0.02557786455725156]","[1,1,1]","[0.01514196289843136,-0.0721650863978074]","[1,1,1]","[0.09847683768632289,0.11986309911911822]","[1,1,1]","[-0.08816519471594775,-0.06558475491000323]","[1,1,1]","[0.02,0.02]",126.3904,0,14,14,205,1,,,,,,,
,,,,,,,5d3ee89122ed84000172272a,682f0fc6d848c21260efc5e9,2025-05-22_12h52.23.643,cuing_paradigm_dot,2024.1.5,Win32,60.24096386,682d573fa47f1360d1451895,,,,,,,,,,,126.3913,126.8898,,,127.1345,127.2631,left,,,,,,,,0.9,0.103400001,,,,,,,126.8898,127.1344,127.2632,"[-0.06461503778614444,-0.1527659465888516]","[1,1,1]","[-0.06917572611540396,0.018667684876592074]","[1,1,1]","[-0.020033189239236075,-0.03960383119755195]","[1,1,1]","[0.10818005907976769,-0.06440085306053109]","[1,1,1]","[-0.13771856974060065,-0.08477729270216026]","[1,1,1]","[-0.00009960493586191125,-0.13756431810464523]","[1,1,1]","[-0.06624368655406579,-0.043378134453783954]","[-1,-1,-1]","[-0.11779960291071384,0.019309685230590175]","[1,1,1]","[0.10915476542467475,-0.1674931379454376]","[1,1,1]","[-0.10599751860911985,-0.11286328213863497]","[1,1,1]","[0.15529337293615125,0.03618669422895684]","[1,1,1]","[0.15121260054158808,-0.07653862765706007]","[1,1,1]","[0.032621382563051624,0.19314485969505582]","[-1,-1,-1]","[0.0625959488252306,0.12847684853309785]","[1,1,1]","[0.15396907829278703,-0.012618884313409117]","[1,1,1]","[0.0372683682579218,-0.16091191048126585]","[1,1,1]","[-0.12223319344013626,0.08613521626440018]","[1,1,1]","[0.12919864070286655,0.13959772866258574]","[1,1,1]","[0.19327575829236607,0.0013655750286752798]","[1,1,1]","[0.18577735573250528,0.06307513687367963]","[1,1,1]","[-0.02956497467446919,0.1320394131567057]","[1,1,1]","[-0.11883169057797324,0.13171326331601133]","[1,1,1]","[-0.031350677867239135,-0.17794200848998537]","[-1,-1,-1]","[0.14747492728423636,-0.13309396974797544]","[1,1,1]","[0.05970401649183721,-0.1258257667412427]","[1,1,1]","[-0.1380450686338792,-0.037346372186018294]","[1,1,1]","[-0.16110588970044903,0.02259203466980363]","[1,1,1]","[0.18993302358269337,-0.04586569865754264]","[1,1,1]","[-0.07525537576204004,0.09583488406351756]","[1,1,1]","[0.07199135607774161,0.02253286018889675]","[1,1,1]","[-0.16235318726055864,0.06703042542652222]","[1,1,1]","[0.10231262247184784,0.06265186547275992]","[1,1,1]","[0.02,0.02]",128.3625,0,15,15,183,1,,,,,,,
,,,,,,,5d3ee89122ed84000172272a,682f0fc6d848c21260efc5e9,2025-05-22_12h52.23.643,cuing_paradigm_dot,2024.1.5,Win32,60.24096386,682d573fa47f1360d1451895,,,,,,,,,,,128.3632,128.8621,,,129.1031,129.212,left,,,,,,,,0.9,0.084299999,,,,,,,128.8622,129.103,129.2121,"[0.04462195429685815,0.02835378067338729]","[1,1,1]","[-0.07312362845796697,-0.1578524694051208]","[1,1,1]","[-0.10113505477464108,0.0921830841660853]","[1,1,1]","[-0.005738905075638415,0.03475877280608844]","[1,1,1]","[-0.07499653810657607,-0.0990039100885857]","[-1,-1,-1]","[0.04228072478571663,-0.10991006416311007]","[1,1,1]","[-0.12465124052835473,-0.03937318551579583]","[1,1,1]","[-0.03332691058836368,0.1874449576091485]","[1,1,1]","[-0.122409522511253,-0.08209419344160085]","[1,1,1]","[0.09062099396479847,0.1288336129345804]","[1,1,1]","[-0.05580299639938365,0.12170039711551792]","[1,1,1]","[0.012376156082639611,-0.034446659162678916]","[1,1,1]","[0.16755298744708969,-0.012822879517215951]","[1,1,1]","[-0.10543068960736843,0.04541443644684547]","[1,1,1]","[0.03815452609930383,0.18579617061087267]","[1,1,1]","[0.06573290221486025,0.06822690313157334]","[1,1,1]","[-0.14381377660032668,0.08717201700851775]","[1,1,1]","[-0.1223604914082945,0.14741419060147132]","[1,1,1]","[-0.1348209229080958,0.002747784001038174]","[1,1,1]","[0.10896199583567402,-0.12956339607534847]","[1,1,1]","[0.17544312957716882,0.07610926926893799]","[1,1,1]","[0.1433176664459097,-0.054409052385865894]","[1,1,1]","[-0.13648684311991527,-0.13505530512907238]","[1,1,1]","[-0.16702596111392337,-0.10064968044956289]","[1,1,1]","[-0.05255182274163684,0.07495108891867817]","[1,1,1]","[-0.006579140699603923,-0.0885427160195954]","[1,1,1]","[-0.04162629887575794,-0.032688114628654175]","[-1,-1,-1]","[0.10812242999993756,0.02435771209561229]","[1,1,1]","[0.057802011298759066,-0.051217302677295094]","[1,1,1]","[-0.008826810973653934,-0.18005244591282402]","[-1,-1,-1]","[0.17002368642794458,-0.10250766288806466]","[1,1,1]","[-0.1811008845985446,-0.03780876626238708]","[1,1,1]","[0.02,0.02]",130.3193,0,16,16,194,1,,,,,,,
,,,,,,,5d3ee89122ed84000172272a,682f0fc6d848c21260efc5e9,2025-05-22_12h52.23.643,cuing_paradigm_dot,2024.1.5,Win32,60.24096386,682d573fa47f1360d1451895,,,,,,,,,,,130.3205,130.81,,,131.0656,131.1269,left,,,,,,,,0.9,0.0348,,,,,,,130.8101,131.0655,131.1271,"[0.14752763198494448,-0.09742576035373797]","[1,1,1]","[0.03601830299984025,-0.036783095774215506]","[1,1,1]","[0.016474123084399685,-0.15373788239506367]","[1,1,1]","[-0.12559608806422165,-0.06550180282586779]","[-1,-1,-1]","[0.07619449836343811,0.06628012589355914]","[1,1,1]","[0.09358728388513657,-0.07325041389534519]","[1,1,1]","[0.018909843786362023,0.15403630743504326]","[1,1,1]","[0.05554964366017037,-0.13456963044777348]","[1,1,1]","[-0.02118426171276873,-0.12295643764460919]","[1,1,1]","[-0.04770861311106971,0.10273876804444287]","[1,1,1]","[-0.03427059210828236,0.1864902385242935]","[1,1,1]","[-0.1271875421191652,0.12353422513555057]","[1,1,1]","[-0.17723517592866442,-0.03147714335668628]","[1,1,1]","[-0.053237576038094925,-0.004014152530152545]","[1,1,1]","[0.13659427289027418,0.03055696640995354]","[1,1,1]","[-0.17677540856490326,0.06870240105185932]","[1,1,1]","[-0.1273052823951634,0.0806664273505821]","[1,1,1]","[0.0016088479831071222,0.007340850728284323]","[1,1,1]","[-0.09250776663919781,0.028478911204331072]","[1,1,1]","[0.1431516923009312,0.08824815565072304]","[1,1,1]","[-0.03627505504197456,-0.1710785176777767]","[1,1,1]","[0.07146244792369676,0.1803131689124944]","[-1,-1,-1]","[0.1789109819007301,-0.06080715475085862]","[1,1,1]","[0.08759944501129949,0.005375757195656332]","[1,1,1]","[-0.08721464581972878,-0.12917882826229168]","[1,1,1]","[-0.08591365872418052,0.08826238384168891]","[1,1,1]","[-0.09634616949800982,-0.030978267965546622]","[1,1,1]","[0.11628277958554124,-0.1367992211536075]","[1,1,1]","[0.09674381878999129,0.13397815567863972]","[1,1,1]","[0.19253057310746496,-0.006485429717731581]","[1,1,1]","[-0.07496481211429687,0.18184029620647024]","[1,1,1]","[0.18351897877542164,0.07917962621002984]","[-1,-1,-1]","[0.02,0.02]",132.225,0,17,17,184,1,,,,,,,
,,,,,,,5d3ee89122ed84000172272a,682f0fc6d848c21260efc5e9,2025-05-22_12h52.23.643,cuing_paradigm_dot,2024.1.5,Win32,60.24096386,682d573fa47f1360d1451895,,,,,,,,,,,132.226,132.7245,,,132.9807,133.1512,left,,,,,,,,0.9,0.151299999,,,,,,,132.7247,132.9805,133.1513,"[0.006113355821559572,0.19445247411349986]","[1,1,1]","[-0.02839574373747049,-0.018980340852683544]","[1,1,1]","[-0.062119807084256344,-0.12319923518457217]","[-1,-1,-1]","[0.1403863148100231,-0.05927764678770163]","[1,1,1]","[0.011705364794663619,0.09464429940196142]","[1,1,1]","[0.13681947131257477,-0.003100162768367865]","[1,1,1]","[-0.04886637503495035,0.14281137676246564]","[1,1,1]","[-0.09943659914655713,-0.05097009619671495]","[1,1,1]","[-0.18800023902285068,0.06127707036570628]","[1,1,1]","[0.18941654383903284,0.033358217189044005]","[1,1,1]","[-0.10792923286590804,0.05771196747696417]","[1,1,1]","[0.08595317308671033,-0.1613603934318169]","[1,1,1]","[-0.1604996556857344,-0.005741338255799007]","[1,1,1]","[0.07130394063032545,0.1177486452921916]","[1,1,1]","[0.053289121562122926,0.029323842481410074]","[1,1,1]","[0.13692469534788593,0.0744183547607413]","[1,1,1]","[-0.1370281585996131,-0.12294436181573049]","[1,1,1]","[0.1823354263096418,-0.027918009808413875]","[1,1,1]","[-0.06360095132119159,0.18346882198318423]","[1,1,1]","[-0.1545211687488872,0.12332401424638681]","[1,1,1]","[0.06174007272602588,-0.09413177931152031]","[1,1,1]","[0.0414855662360155,-0.1371630735436142]","[1,1,1]","[0.12678578541262564,-0.12331076463842744]","[1,1,1]","[0.08980188216306396,-0.05579645972854767]","[1,1,1]","[-0.06783934597791332,0.029435880410454016]","[1,1,1]","[0.003611010324200395,-0.1511874542130829]","[1,1,1]","[0.01442970165333235,0.147050844400653]","[1,1,1]","[-0.03560905708260308,-0.1745700674285071]","[1,1,1]","[-0.11142258948645288,0.01758508758257465]","[1,1,1]","[0.04849357747330687,-0.05496496809014406]","[-1,-1,-1]","[-0.03402349952317344,-0.07359219643761322]","[-1,-1,-1]","[0.14054576748509362,0.13680894458392173]","[1,1,1]","[0.02,0.02]",134.2395,0,18,18,207,1,,,,,,,
,,,,,,,5d3ee89122ed84000172272a,682f0fc6d848c21260efc5e9,2025-05-22_12h52.23.643,cuing_paradigm_dot,2024.1.5,Win32,60.24096386,682d573fa47f1360d1451895,,,,,,,,,,,134.2405,134.7389,,,134.9989,135.1888,right,,,,,,,,0.6,0.1743,,,,,,,134.739,134.9987,135.1888,"[-0.00873822431617421,-0.15468467871868155]","[-1,-1,-1]","[-0.1843928050651628,0.0463228789351209]","[-1,-1,-1]","[-0.077805232932877,0.004490270338625756]","[1,1,1]","[0.03453866187278525,0.09175905453331185]","[-1,-1,-1]","[0.10649877361050512,0.146361918529302]","[1,1,1]","[-0.0074319743057372585,0.15267976940657474]","[1,1,1]","[0.11494604202702274,-0.1327039130621886]","[-1,-1,-1]","[0.15382983010404605,-0.08738583114417214]","[1,1,1]","[-0.07126014058803239,0.13205985597701347]","[1,1,1]","[-0.07278271473112762,-0.12176140599968376]","[1,1,1]","[0.16551442752743067,0.08077212887831733]","[1,1,1]","[-0.07175541655194677,-0.04324892758357894]","[1,1,1]","[0.11911444816859011,0.013578133312317487]","[1,1,1]","[0.0067200410331471365,-0.02057330681707562]","[-1,-1,-1]","[0.045437134807894755,0.009890743504518183]","[1,1,1]","[-0.03678303445502678,0.06178341722932039]","[1,1,1]","[0.06971568574999429,-0.08717780882088548]","[1,1,1]","[0.14539547594656077,0.1242149548823127]","[-1,-1,-1]","[0.025130897319968298,-0.18450418342046285]","[1,1,1]","[0.17632799156226542,0.019027683871646158]","[-1,-1,-1]","[-0.13177937453690977,0.11734680224174848]","[1,1,1]","[-0.1499100082404341,-0.03283104474925619]","[-1,-1,-1]","[0.049223950504294935,0.15423553765619188]","[1,1,1]","[-0.0949478009638231,0.05687318298704554]","[1,1,1]","[-0.0968497564990631,-0.1618889006345233]","[-1,-1,-1]","[0.013378204113796591,-0.11276605731014563]","[1,1,1]","[-0.11588120401980942,-0.0843863294404377]","[-1,-1,-1]","[-0.18735260031263426,-0.06908324760378372]","[-1,-1,-1]","[-0.16736171670698363,-0.10821185816279585]","[1,1,1]","[-0.046911754360818035,-0.18897968837170584]","[-1,-1,-1]","[-0.17686704621237792,0.08761852722087862]","[-1,-1,-1]","[-0.08559692413992206,0.1707569428258424]","[1,1,1]","[0.02,0.02]",136.2873,0,19,19,150,1,,,,,,,
,,,,,,,5d3ee89122ed84000172272a,682f0fc6d848c21260efc5e9,2025-05-22_12h52.23.643,cuing_paradigm_dot,2024.1.5,Win32,60.24096386,682d573fa47f1360d1451895,,,,,,,,,,,136.2884,136.7865,,,137.0466,137.5861,right,,,,,,,,0.6,0.5184,,,,,,,136.7866,137.0463,137.5861,"[-0.06139901209886974,0.17539364831457838]","[-1,-1,-1]","[0.018934910609532528,0.03190282270320196]","[1,1,1]","[0.1285964603431183,-0.013331529421972256]","[1,1,1]","[-0.18214064086984055,-0.020531728184438658]","[-1,-1,-1]","[0.018849703527388142,-0.06042598758515362]","[1,1,1]","[0.15540808467187758,0.1154737911212179]","[1,1,1]","[0.10026958315218529,-0.1513295658652364]","[1,1,1]","[0.07550815323320034,0.07412125422717457]","[1,1,1]","[0.027976740253199277,0.13827529268705588]","[-1,-1,-1]","[-0.10312738343039475,-0.1689473550187431]","[1,1,1]","[-0.09464480423008843,0.02701803995947022]","[-1,-1,-1]","[-0.18024685915229308,0.060668593678619404]","[1,1,1]","[0.006977525101925591,-0.18551049604620928]","[1,1,1]","[0.10121543750267926,-0.10577309390113723]","[1,1,1]","[-0.1395904586646289,-0.10391281297869771]","[1,1,1]","[0.057821331224445834,-0.13864676040780113]","[-1,-1,-1]","[-0.08429198967394358,-0.015480022250731421]","[1,1,1]","[-0.017609521124592017,0.09548848635983045]","[1,1,1]","[-0.03061228520129786,0.034127599154197684]","[1,1,1]","[0.03464221907914366,0.18582981081369102]","[1,1,1]","[0.13448563825591167,0.0656585472388008]","[-1,-1,-1]","[0.10027666010930698,0.1665951855957727]","[-1,-1,-1]","[0.06540286873386848,-0.04725912172906888]","[-1,-1,-1]","[-0.011416231299302363,-0.09966941385510272]","[-1,-1,-1]","[0.16778184559997253,-0.09765093290756843]","[-1,-1,-1]","[-0.12635015332278024,0.12567440532935484]","[-1,-1,-1]","[0.17529172520282987,0.0051038191479634435]","[1,1,1]","[-0.05977664711933873,-0.04987488506245233]","[-1,-1,-1]","[-0.15365460650714682,-0.05419780596803703]","[1,1,1]","[0.19362216352199402,-0.03575115819191027]","[1,1,1]","[0.08670218248518917,0.01080762487541537]","[-1,-1,-1]","[-0.07822866067209285,0.11138873779612558]","[1,1,1]","[0.02,0.02]",138.6845,0,20,20,177,1,,,,,,,
,,,,,,,5d3ee89122ed84000172272a,682f0fc6d848c21260efc5e9,2025-05-22_12h52.23.643,cuing_paradigm_dot,2024.1.5,Win32,60.24096386,682d573fa47f1360d1451895,,,,,,,,,,,138.6856,139.1841,,,139.4278,139.5935,right,,,,,,,,0.6,0.1513,,,,,,,139.1842,139.4277,139.5936,"[-0.10351113517012242,-0.09609572325259982]","[1,1,1]","[0.10601184025461227,0.02708929166890821]","[1,1,1]","[0.04858101275439134,0.16706156870825756]","[1,1,1]","[0.005850605364082139,-0.01676483704001785]","[1,1,1]","[-0.03045825198625805,-0.18450612982358786]","[1,1,1]","[-0.09101854005648272,-0.047332910699796525]","[-1,-1,-1]","[-0.06821402318452714,0.1419202267516903]","[1,1,1]","[-0.17195295874684974,-0.05851173600888859]","[1,1,1]","[0.07981647092233529,0.0976051160960262]","[-1,-1,-1]","[-0.08893511128724203,0.003578833450967949]","[-1,-1,-1]","[0.012596823623314678,0.07744648037186805]","[1,1,1]","[-0.0207817992390386,0.16788434779009503]","[1,1,1]","[0.037544014683017345,0.11300819821165779]","[1,1,1]","[-0.05500595084764048,0.027844507365710477]","[-1,-1,-1]","[-0.1424223632925519,0.10544783468109326]","[-1,-1,-1]","[0.12258879399851852,0.11119514694164075]","[-1,-1,-1]","[-0.10547263756624724,-0.15127267451941967]","[1,1,1]","[0.08409299038574514,-0.02560790034386606]","[-1,-1,-1]","[0.15240023679601628,0.028270119569649754]","[-1,-1,-1]","[0.16531948304033164,-0.015595667308854]","[1,1,1]","[0.09849886969931725,0.1438288257432015]","[1,1,1]","[-0.06953341046535184,-0.17516386015300084]","[1,1,1]","[0.0018631324869140195,-0.11687236832799312]","[1,1,1]","[-0.14232764097037628,-0.1357188333803875]","[-1,-1,-1]","[0.06069301295629928,-0.13556653027986215]","[1,1,1]","[-0.1906244465833155,0.006970067012750415]","[-1,-1,-1]","[-0.04393497963837454,-0.08128221494707072]","[1,1,1]","[-0.03423077136493623,0.08613363757845875]","[1,1,1]","[0.16084079816261412,-0.09532724983372201]","[-1,-1,-1]","[-0.09860611836915281,0.17143862417156794]","[-1,-1,-1]","[-0.13541229643755442,0.020687850842529713]","[1,1,1]","[-0.09475525454723396,0.10479131313323689]","[-1,-1,-1]","[0.02,0.02]",140.6907,0,21,21,179,1,,,,,,,
,,,,,,,5d3ee89122ed84000172272a,682f0fc6d848c21260efc5e9,2025-05-22_12h52.23.643,cuing_paradigm_dot,2024.1.5,Win32,60.24096386,682d573fa47f1360d1451895,,,,,,,,,,,140.6921,141.1911,,,141.4386,141.6817,right,,,,,,,,0.55,0.2189,,,,,,,141.1912,141.4386,141.6818,"[-0.10776230855989748,-0.10602221798189972]","[1,1,1]","[0.03002623150486118,0.011379792866812545]","[-1,-1,-1]","[-0.057235890194966534,-0.17151917044022877]","[1,1,1]","[-0.08834644662918033,0.08861531337710468]","[1,1,1]","[0.06925745671670709,-0.0240142214336871]","[1,1,1]","[-0.02994594688562433,0.024935706743976223]","[1,1,1]","[0.11754662632126048,0.11833939124227107]","[-1,-1,-1]","[0.0021233728545052752,0.14949027825774938]","[-1,-1,-1]","[-0.04531426009330589,0.0911485608297773]","[1,1,1]","[-0.024422268248586284,-0.14517747168959055]","[1,1,1]","[-0.1713515608987019,-0.03840109712400451]","[-1,-1,-1]","[-0.1029180627132435,-0.06098243511459137]","[-1,-1,-1]","[-0.13019432752505328,0.10746436430658383]","[-1,-1,-1]","[0.037331373913505765,-0.05287398807226344]","[-1,-1,-1]","[0.019751152267007813,0.07431786011698727]","[1,1,1]","[-0.06965210262347755,0.008188888710471414]","[1,1,1]","[-0.015827510723890093,-0.029734011862230465]","[-1,-1,-1]","[0.14858800131179606,-0.08955979510182785]","[1,1,1]","[0.06015462647950537,0.17084466767608655]","[1,1,1]","[0.1793351517602132,0.010475416498008516]","[-1,-1,-1]","[-0.08849284231258492,0.15876716058823184]","[1,1,1]","[-0.0698691964698579,-0.08899762690944524]","[-1,-1,-1]","[0.14051296300633528,-0.03686014716557234]","[1,1,1]","[0.0615289803712579,-0.13366760073270237]","[-1,-1,-1]","[-0.17029198295674106,0.0037900293290800535]","[1,1,1]","[0.18177132118545275,-0.0537057476344382]","[1,1,1]","[0.09192359410359252,0.027600548212780882]","[-1,-1,-1]","[-0.018283074299190474,0.18687634367580766]","[1,1,1]","[0.15721754803284835,0.06410578621182021]","[1,1,1]","[-0.11089082639125793,0.0066561320968833776]","[-1,-1,-1]","[-0.042173562300379414,0.15313977004983206]","[-1,-1,-1]","[0.13377006490633567,-0.1336122500146818]","[1,1,1]","[0.02,0.02]",142.78,0,22,22,146,1,,,,,,,
,,,,,,,5d3ee89122ed84000172272a,682f0fc6d848c21260efc5e9,2025-05-22_12h52.23.643,cuing_paradigm_dot,2024.1.5,Win32,60.24096386,682d573fa47f1360d1451895,,,,,,,,,,,142.7811,143.2797,,,143.5206,143.5958,left,,,,,,,,0.6,0.056,,,,,,,143.2797,143.5205,143.5959,"[0.17693161507639285,0.03415199355987802]","[1,1,1]","[-0.07778591283823648,-0.08799360987947928]","[-1,-1,-1]","[0.054343352263257795,0.009609096607701812]","[-1,-1,-1]","[0.03284549508785393,0.17004145264623405]","[1,1,1]","[-0.1948414383061882,-0.03427521036766162]","[1,1,1]","[0.14072695226141146,-0.05038846661434328]","[-1,-1,-1]","[0.15674376840874488,0.08322002906594587]","[1,1,1]","[-0.1155083995433648,-0.10668405825294178]","[-1,-1,-1]","[0.08196020180144682,-0.1512070913781865]","[-1,-1,-1]","[0.11800059357948403,0.0990689126084898]","[1,1,1]","[0.0030014601066961927,-0.13926611051981602]","[1,1,1]","[-0.019271624692595406,-0.014792707107959725]","[1,1,1]","[-0.09647747863120978,0.04669045764660299]","[1,1,1]","[0.027063994538678297,0.1005294515419078]","[1,1,1]","[0.004070980812978512,-0.059228689318178145]","[-1,-1,-1]","[-0.09144842549072235,-0.17494966404106585]","[-1,-1,-1]","[-0.04433874112050805,0.16070535094897628]","[-1,-1,-1]","[0.07733117286940429,0.09556376346547676]","[-1,-1,-1]","[-0.16697150113351045,-0.0032614697489112]","[1,1,1]","[-0.03797536056576662,-0.1891050646822439]","[1,1,1]","[0.12548263426675962,0.028123640325896412]","[-1,-1,-1]","[0.1061218701197103,-0.11159433834661284]","[-1,-1,-1]","[0.09612650683965183,0.05935900094267721]","[1,1,1]","[-0.14614674351859694,0.10780668780478593]","[1,1,1]","[-0.0645681538609033,0.09543913529643457]","[1,1,1]","[0.10551092286407664,0.15941699722865582]","[-1,-1,-1]","[0.043152626058084266,0.0506109527564047]","[1,1,1]","[-0.010813515253562007,0.12333538259617345]","[1,1,1]","[0.04051992490090447,-0.08073180696671797]","[1,1,1]","[-0.07890232396943071,-0.009682922353480882]","[1,1,1]","[-0.12388714635622326,-0.14954729120496776]","[-1,-1,-1]","[-0.16515884457330562,-0.08764500020420916]","[1,1,1]","[0.02,0.02]",144.6948,0,23,23,152,1,,,,,,,
,,,,,,,5d3ee89122ed84000172272a,682f0fc6d848c21260efc5e9,2025-05-22_12h52.23.643,cuing_paradigm_dot,2024.1.5,Win32,60.24096386,682d573fa47f1360d1451895,,,,,,,,,,,144.6958,145.1941,,,145.4376,145.6109,right,,,,,,,,0.1,0.1517,,,,,,,145.1942,145.4374,145.6109,"[0.13858222809573317,0.033581053385383926]","[-1,-1,-1]","[0.10739348677610204,-0.13711563797888315]","[-1,-1,-1]","[-0.1408967066304819,-0.055537443174392395]","[-1,-1,-1]","[-0.06643805443840123,-0.05071976151446407]","[1,1,1]","[0.026328383356887877,0.1143043516100686]","[-1,-1,-1]","[-0.1318756204680201,0.06781747562288118]","[-1,-1,-1]","[-0.03697369185945541,0.13944714813336548]","[-1,-1,-1]","[-0.022776750924740238,-0.13704510038813764]","[-1,-1,-1]","[0.1385873738184305,-0.1103849680093183]","[-1,-1,-1]","[0.02772112856371229,-0.05482204437394305]","[-1,-1,-1]","[0.12476201201042468,0.10887254975917758]","[-1,-1,-1]","[0.058300808714502175,0.18469431894816846]","[-1,-1,-1]","[-0.08394511394157494,-0.09235120034918544]","[-1,-1,-1]","[-0.0008330693252465603,0.023948810496557994]","[-1,-1,-1]","[0.06274381864819938,0.1349848686165143]","[-1,-1,-1]","[-0.17147373389146262,0.07570695220585505]","[-1,-1,-1]","[0.035499723776936484,-0.16265921668009697]","[-1,-1,-1]","[0.1439281250212282,-0.033754510927234915]","[-1,-1,-1]","[-0.1234841805430665,-0.014223522368354287]","[-1,-1,-1]","[-0.00889332606487137,-0.086294908999727]","[-1,-1,-1]","[0.06646276601189258,-0.07124018356718013]","[-1,-1,-1]","[0.09603611637951781,-0.013053297464147122]","[-1,-1,-1]","[0.10718357668590854,-0.08556695713229467]","[-1,-1,-1]","[-0.18787341566096488,-0.013364759026154777]","[-1,-1,-1]","[0.08685844425827488,0.06961410817598845]","[-1,-1,-1]","[0.1001279541970671,0.15954555227258924]","[1,1,1]","[-0.10266385410725663,0.16340554991683934]","[-1,-1,-1]","[-0.06133751227138245,-0.16296691935578914]","[-1,-1,-1]","[0.1821024276417771,0.0241419359098579]","[-1,-1,-1]","[0.08608786625172572,-0.17145350095013548]","[-1,-1,-1]","[-0.05927660667802915,0.18785425518802723]","[1,1,1]","[0.04743353079838926,0.0563008273274145]","[-1,-1,-1]","[0.02,0.02]",146.7091,0,24,24,18,1,,,,,,,
,,,,,,,5d3ee89122ed84000172272a,682f0fc6d848c21260efc5e9,2025-05-22_12h52.23.643,cuing_paradigm_dot,2024.1.5,Win32,60.24096386,682d573fa47f1360d1451895,,,,,,,,,,,146.71,147.2084,,,147.4597,147.592,left,,,,,,,,0.5,0.1206,,,,,,,147.2086,147.4596,147.5921,"[0.08524773202167352,0.09765285353738193]","[1,1,1]","[-0.1172153060243999,0.10274855221716632]","[1,1,1]","[-0.008815526549283826,-0.04699063407971168]","[1,1,1]","[-0.16437616582370507,-0.08900344107660726]","[1,1,1]","[0.04573171188719206,-0.14148425258099534]","[1,1,1]","[-0.05428768596834068,-0.19171243895624918]","[1,1,1]","[-0.011520947622748254,0.12901765776435697]","[1,1,1]","[0.08078669274692359,0.05430583113555258]","[-1,-1,-1]","[0.0463462834709792,0.19433370739727324]","[1,1,1]","[0.0857130442931562,0.15196304757106618]","[-1,-1,-1]","[-0.09618364870559773,0.0040816298162622035]","[-1,-1,-1]","[-0.19101621126860122,-0.038705658124322674]","[-1,-1,-1]","[0.07051968762062345,0.010989529804544939]","[-1,-1,-1]","[0.057259629230487705,-0.03074042279491149]","[-1,-1,-1]","[-0.03793707657584377,0.09147321057747565]","[1,1,1]","[0.12086112779042414,0.03518104000496183]","[-1,-1,-1]","[0.13742731614468004,0.11905024732719278]","[1,1,1]","[0.14029365382973022,-0.09182637047482779]","[-1,-1,-1]","[-0.06363666039372387,0.16326966750557304]","[-1,-1,-1]","[-0.06813735419067364,-0.11933301717861415]","[-1,-1,-1]","[0.0022277113201122026,0.18207969539588592]","[1,1,1]","[-0.09380896148812778,-0.06486417266699773]","[1,1,1]","[0.0983855871656188,-0.14416867332770586]","[1,1,1]","[-0.1288472292479556,-0.035420582507961165]","[-1,-1,-1]","[0.041229007910105454,0.07769411258839069]","[-1,-1,-1]","[0.015589587317448039,0.037136728667227614]","[-1,-1,-1]","[-0.1848131819281963,0.02680490781421672]","[1,1,1]","[0.12480920171393002,-0.015848084311147804]","[1,1,1]","[-0.12134326425812364,-0.10444904904011718]","[-1,-1,-1]","[-0.06265490292167136,-0.03380961603895829]","[-1,-1,-1]","[0.1467519628516065,-0.050120069360059895]","[-1,-1,-1]","[-0.0024323143418640415,-0.18951953718391995]","[1,1,1]","[0.02,0.02]",148.6914,0,25,25,117,1,,,,,,,
,,,,,,,5d3ee89122ed84000172272a,682f0fc6d848c21260efc5e9,2025-05-22_12h52.23.643,cuing_paradigm_dot,2024.1.5,Win32,60.24096386,682d573fa47f1360d1451895,,,,,,,,,,,148.6926,149.1898,,,149.4335,149.6491,right,,,,,,,,0.55,0.201,,,,,,,149.1899,149.4334,149.6491,"[0.05464869442348811,-0.1311542365053516]","[1,1,1]","[0.014610879420777241,0.16317319722192383]","[1,1,1]","[0.03545577170898343,-0.08664152110108995]","[1,1,1]","[-0.07849284921629072,0.09975239391580246]","[-1,-1,-1]","[0.07795267021961594,0.0826932258655558]","[1,1,1]","[0.013454916585225676,-0.016857520593327263]","[-1,-1,-1]","[-0.09831398299656584,0.06007673616445151]","[-1,-1,-1]","[0.162677811709378,0.013385813762592952]","[1,1,1]","[-0.03779912869143418,0.15415094995957562]","[1,1,1]","[0.11802459139644558,-0.04813913952179005]","[-1,-1,-1]","[-0.13318515432938996,0.01420128655476892]","[-1,-1,-1]","[-0.11717368477799905,-0.11458092835671985]","[-1,-1,-1]","[-0.0684714056891793,-0.02270327262303878]","[-1,-1,-1]","[-0.010887026577238352,-0.09638275052464175]","[1,1,1]","[-0.1342595775300768,0.12344427654057985]","[1,1,1]","[-0.18080598719374244,0.02808196078175423]","[-1,-1,-1]","[0.02796174378720504,0.05171738435210687]","[-1,-1,-1]","[-0.02953224517319718,0.03342612775532831]","[1,1,1]","[0.08014160898917809,-0.1652707674168467]","[1,1,1]","[-0.09671923237140735,0.14790621258422387]","[1,1,1]","[0.14996719761379862,0.13204702203881705]","[1,1,1]","[-0.013060560132535792,-0.14385820623453852]","[1,1,1]","[0.08906202013922268,-0.007188241264096419]","[-1,-1,-1]","[0.013451351321712048,-0.1834871342907667]","[-1,-1,-1]","[0.10656945271291385,0.054073678817939744]","[1,1,1]","[0.060263707157062786,0.14744773123534383]","[1,1,1]","[0.13006637196881857,-0.1264859300208284]","[1,1,1]","[0.004534917509334287,0.09134365348048462]","[1,1,1]","[0.1820191602002239,-0.03012033153456534]","[1,1,1]","[-0.14460319128912247,-0.03109531815532785]","[-1,-1,-1]","[-0.07097452298886368,-0.15430197266788093]","[-1,-1,-1]","[0.1462728291991035,-0.08562165298812627]","[-1,-1,-1]","[0.02,0.02]",150.7472,0,26,26,132,1,,,,,,,
,,,,,,,5d3ee89122ed84000172272a,682f0fc6d848c21260efc5e9,2025-05-22_12h52.23.643,cuing_paradigm_dot,2024.1.5,Win32,60.24096386,682d573fa47f1360d1451895,,,,,,,,,,,150.7481,151.2461,,,151.4975,151.6206,left,,,,,,,,0.55,0.1017,,,,,,,151.2462,151.4974,151.6207,"[0.09208651772620612,0.055447591418955916]","[-1,-1,-1]","[0.17902251713221465,-0.046037136105220915]","[1,1,1]","[0.07632536397518527,-0.10277919129540797]","[-1,-1,-1]","[0.00898736603720731,0.09736037425898329]","[-1,-1,-1]","[0.052275017708678075,-0.036925176494138325]","[1,1,1]","[0.010882254738873264,-0.15668602459221315]","[-1,-1,-1]","[0.03891075091807372,0.05350621006301477]","[1,1,1]","[-0.18890157129756097,-0.03895380578282517]","[1,1,1]","[-0.101444696346359,-0.007124717552190901]","[1,1,1]","[-0.14292399832135794,0.10637829432765063]","[1,1,1]","[0.17564357648880455,0.07740903276104022]","[-1,-1,-1]","[-0.09687745504755896,-0.1499878845009786]","[-1,-1,-1]","[0.010152791033944203,0.017377068970640484]","[-1,-1,-1]","[-0.05938344869117482,0.08574952832047747]","[1,1,1]","[-0.10235006578775178,0.14173407202378602]","[-1,-1,-1]","[0.09333280758107508,-0.16486283877901364]","[1,1,1]","[-0.012934991824518138,-0.11488532709506345]","[1,1,1]","[-0.15879888148439478,0.06857118221699054]","[1,1,1]","[-0.17139702595412565,-0.09687467753188986]","[1,1,1]","[-0.10521196700549917,-0.06682501272595054]","[-1,-1,-1]","[-0.020932832780742067,0.06649325153088514]","[1,1,1]","[0.14596186096734562,0.11895486726195392]","[-1,-1,-1]","[0.1247273659782747,-0.09455147059980683]","[1,1,1]","[-0.032059969424485864,-0.19559471180706722]","[1,1,1]","[-0.18019918156519205,0.00814174825592229]","[1,1,1]","[0.15566097475700205,0.0032306403326560515]","[-1,-1,-1]","[0.05638172893624341,-0.19115669754112627]","[1,1,1]","[-0.054794837172711726,-0.010670054597603526]","[-1,-1,-1]","[0.05495772365805414,0.13256643430401926]","[-1,-1,-1]","[0.11837703688774594,0.15364350713353594]","[1,1,1]","[0.0872449630815615,0.10652456185474032]","[1,1,1]","[-0.09693300828596024,0.03307848228948538]","[-1,-1,-1]","[0.02,0.02]",152.7192,0,27,27,145,1,,,,,,,
,,,,,,,5d3ee89122ed84000172272a,682f0fc6d848c21260efc5e9,2025-05-22_12h52.23.643,cuing_paradigm_dot,2024.1.5,Win32,60.24096386,682d573fa47f1360d1451895,,,,,,,,,,,152.7205,153.2189,,,153.4608,153.7532,right,,,,,,,,0.4,0.2762,,,,,,,153.219,153.4607,153.7532,"[-0.012053421557877649,0.01236645429657656]","[1,1,1]","[0.028710434873376024,0.09802820189538189]","[-1,-1,-1]","[0.05352477238867345,0.15321248770307166]","[1,1,1]","[-0.06616005959095672,-0.11750295907314727]","[1,1,1]","[-0.011209480302069664,0.14927999762506028]","[-1,-1,-1]","[0.09547919228268097,0.1027999614233466]","[1,1,1]","[-0.16712358863626045,-0.10619169731228657]","[-1,-1,-1]","[-0.15003866190264317,-0.0655189407383957]","[-1,-1,-1]","[-0.11489009349161304,0.14419771411203822]","[-1,-1,-1]","[0.008425953515497037,-0.08754992056058522]","[-1,-1,-1]","[-0.051516575991982866,0.045239380320169914]","[-1,-1,-1]","[0.03519868850387931,-0.15009064692102278]","[-1,-1,-1]","[0.10415322704532558,0.039452445257553204]","[-1,-1,-1]","[-0.06816967883095362,-0.018650143863393007]","[1,1,1]","[0.017709869532306088,-0.1922764875754167]","[1,1,1]","[0.13988829322662663,-0.11163457990883964]","[1,1,1]","[0.11994113124535012,-0.020418107680925387]","[1,1,1]","[-0.017890043297202143,-0.1337396128108274]","[1,1,1]","[-0.17549435965868057,0.058161710285555585]","[-1,-1,-1]","[-0.10978549476195804,-0.05089820316690265]","[1,1,1]","[-0.15122540644135937,-0.0176054262784499]","[-1,-1,-1]","[0.12734579846963964,-0.06134382860975793]","[-1,-1,-1]","[-0.02865558134917726,0.08626879887867778]","[-1,-1,-1]","[-0.02330045582376208,-0.026837484551966346]","[-1,-1,-1]","[0.13294966989739798,0.1270663439495464]","[-1,-1,-1]","[-0.11923655227788021,-0.12271479089207588]","[-1,-1,-1]","[0.1477997334187701,0.07065019987692649]","[1,1,1]","[-0.09314099560106438,0.05627397332005141]","[1,1,1]","[0.024826480995468067,-0.0050396216189366955]","[-1,-1,-1]","[-0.07986688276328963,-0.15902929082272557]","[-1,-1,-1]","[-0.06056533906382676,0.13631400858180856]","[1,1,1]","[0.15148325651833827,0.022402210926161136]","[-1,-1,-1]","[0.02,0.02]",154.8503,0,28,28,55,1,,,,,,,
,,,,,,,5d3ee89122ed84000172272a,682f0fc6d848c21260efc5e9,2025-05-22_12h52.23.643,cuing_paradigm_dot,2024.1.5,Win32,60.24096386,682d573fa47f1360d1451895,,,,,,,,,,,154.8512,155.3493,,,155.6006,155.7493,right,,,,,,,,0.6,0.1374,,,,,,,155.3494,155.6005,155.7493,"[-0.10099757886186755,0.10409444252065962]","[1,1,1]","[-0.17159113837930487,0.022697460999533247]","[1,1,1]","[0.11190326282139827,-0.15034037852077134]","[1,1,1]","[0.028673110322264692,0.07561637949619299]","[1,1,1]","[0.0008347887469551089,-0.048931236240255825]","[-1,-1,-1]","[0.09643329316596737,0.05813405863028439]","[1,1,1]","[-0.031926972348921535,-0.11931575379762083]","[-1,-1,-1]","[0.03670216705532649,0.14730244572370382]","[1,1,1]","[0.06779091712689068,-0.0901862212422607]","[1,1,1]","[0.054954108634999464,-0.1839704324032014]","[-1,-1,-1]","[-0.14323849272965092,-0.03240989844589545]","[-1,-1,-1]","[-0.021348101982576726,0.0772906883622524]","[1,1,1]","[-0.08901835653235837,-0.13893114836548906]","[1,1,1]","[0.1035514888211737,-0.0400324457895346]","[-1,-1,-1]","[-0.06530184814486896,0.07319355180520724]","[-1,-1,-1]","[-0.07095190765735944,-0.0018779611710041295]","[-1,-1,-1]","[0.16330970195219954,-0.10650462028329985]","[1,1,1]","[-0.135980796561397,0.12907795847641043]","[-1,-1,-1]","[-0.1260973864277686,0.04145388401528876]","[-1,-1,-1]","[-0.1368111058708898,-0.10598746024300199]","[1,1,1]","[-0.058875656284005776,-0.18045951483044756]","[1,1,1]","[0.12403922886404352,0.14846877863559915]","[1,1,1]","[-0.07472601480139555,-0.07418788073344522]","[1,1,1]","[0.18526711727356912,-0.022643353464470276]","[-1,-1,-1]","[0.1308694849056543,0.09649221650605784]","[-1,-1,-1]","[-0.0423301179222893,0.1367916158142141]","[-1,-1,-1]","[0.00757288764726985,-0.1989774649160823]","[-1,-1,-1]","[0.02912890969818753,-0.07977837599209976]","[1,1,1]","[-0.11330630969927717,0.002093090447359947]","[1,1,1]","[0.02089025925341475,-0.13076175876346]","[1,1,1]","[-0.03322598090830468,0.022060617148875215]","[1,1,1]","[0.08569896737293584,0.09708575126427738]","[1,1,1]","[0.02,0.02]",156.8491,0,29,29,151,1,,,,,,,
,,,,,,,5d3ee89122ed84000172272a,682f0fc6d848c21260efc5e9,2025-05-22_12h52.23.643,cuing_paradigm_dot,2024.1.5,Win32,60.24096386,682d573fa47f1360d1451895,,,,,,,,,,,156.85,157.3478,,,157.59,157.6475,left,,,,,,,,0.9,0.0351,,,,,,,157.3478,157.5898,157.6476,"[0.01211199901578231,0.11095678822516905]","[1,1,1]","[0.023716306205356443,0.017361040966483304]","[1,1,1]","[-0.15988585689941182,0.062009211422514914]","[1,1,1]","[-0.05736221021977483,0.1278249985743001]","[1,1,1]","[-0.0859952679378002,-0.17963865042847962]","[1,1,1]","[-0.13576928134481328,0.14091756132146188]","[-1,-1,-1]","[-0.08732452620172203,0.16397493366278856]","[1,1,1]","[0.14497680094981472,0.09710237292735104]","[1,1,1]","[-0.08523451993401127,-0.08687015148595421]","[1,1,1]","[0.05720919823484182,0.1711039905993363]","[1,1,1]","[0.11058247073228722,0.0036500139028617052]","[1,1,1]","[-0.02840924548610951,0.1596944392180016]","[1,1,1]","[-0.11441264528737174,0.0600444760649282]","[1,1,1]","[0.0999260172517447,-0.11604429930790096]","[1,1,1]","[-0.031660500620715924,0.0638401784139972]","[1,1,1]","[0.18548810221673293,0.01236974934140321]","[1,1,1]","[0.07901763673441005,0.09446686148079134]","[1,1,1]","[0.1683142991197878,0.05750660335811346]","[-1,-1,-1]","[0.01690378597559945,0.16222748764163217]","[1,1,1]","[-0.044068802102623365,-0.14196046170253862]","[-1,-1,-1]","[-0.11702934519019594,-0.14121657745096097]","[1,1,1]","[0.18892395907333182,-0.060423345864818546]","[1,1,1]","[-0.14939292740949164,-0.0007936369569145008]","[1,1,1]","[0.0011644329821290467,-0.12741939246499148]","[1,1,1]","[0.05561577172919181,-0.09513863836157092]","[1,1,1]","[-0.023734594957889803,-0.04486326136111971]","[1,1,1]","[-0.11017399614929992,0.014846981926173812]","[1,1,1]","[0.10400102338994048,-0.05860232906778874]","[1,1,1]","[0.0005723082914470231,-0.19375974340683155]","[1,1,1]","[-0.15325868789045943,-0.05359174038610999]","[1,1,1]","[0.020041213666009455,-0.054726386786333535]","[1,1,1]","[0.08917481334229513,-0.16664197833881123]","[1,1,1]","[0.02,0.02]",158.7376,0,30,30,190,1,,,,,,,
,,,,,,,5d3ee89122ed84000172272a,682f0fc6d848c21260efc5e9,2025-05-22_12h52.23.643,cuing_paradigm_dot,2024.1.5,Win32,60.24096386,682d573fa47f1360d1451895,,,,,,,,,,,158.7388,159.2375,,,159.4792,159.5622,left,,,,,,,,0.45,0.0658,,,,,,,159.2376,159.479,159.5623,"[0.10635372756600973,0.16655725399927643]","[1,1,1]","[0.14626392456373505,-0.03696450542668699]","[-1,-1,-1]","[-0.130265370300853,0.041125565209044944]","[1,1,1]","[0.03648144853263892,0.05552532729830731]","[1,1,1]","[-0.06341700375035073,0.0538820977968]","[-1,-1,-1]","[-0.04864052864220477,-0.12718452503509742]","[-1,-1,-1]","[0.03014308645037595,0.01104969501562095]","[-1,-1,-1]","[0.1182768202788554,0.10794783245345164]","[1,1,1]","[0.05472455715779442,-0.17228471848932086]","[-1,-1,-1]","[-0.0461980570381875,0.17173518623064807]","[-1,-1,-1]","[-0.11259249477993181,-0.05852377769041005]","[-1,-1,-1]","[0.18817976121057853,-0.0593593995703252]","[-1,-1,-1]","[0.15512024121542908,0.05029784316891196]","[-1,-1,-1]","[-0.08179473223600468,-0.09519023878341125]","[1,1,1]","[0.04114641450939635,-0.07283659132395377]","[1,1,1]","[0.06889473734736072,-0.010928107724047132]","[1,1,1]","[-0.036894434384408245,-0.16655297600158633]","[1,1,1]","[-0.19724353507427314,0.0254567191754106]","[-1,-1,-1]","[0.04406462187322517,0.10240841489314721]","[-1,-1,-1]","[-0.10050087985515245,-0.016975355571348737]","[1,1,1]","[0.11961623225488939,0.028899612770232168]","[-1,-1,-1]","[0.0012875720080093933,-0.12423228775235381]","[-1,-1,-1]","[-0.1783380709831506,-0.044004213635523405]","[1,1,1]","[-0.05835013914926965,0.1191247346961281]","[1,1,1]","[-0.0037558710323966423,0.14593267860828135]","[-1,-1,-1]","[-0.041614104372784316,-0.005719306779095458]","[-1,-1,-1]","[-0.09185930293161175,-0.15195820027412402]","[-1,-1,-1]","[0.1094250393970494,-0.14897663474271933]","[1,1,1]","[0.041990416359823673,0.1619234550649745]","[1,1,1]","[-0.026425456484278926,0.075177413902348]","[1,1,1]","[-0.15740553350028494,0.0796246991972844]","[-1,-1,-1]","[0.1896593631019229,-0.010270913829988638]","[-1,-1,-1]","[0.02,0.02]",160.6606,0,31,31,67,1,,,,,,,
,,,,,,,5d3ee89122ed84000172272a,682f0fc6d848c21260efc5e9,2025-05-22_12h52.23.643,cuing_paradigm_dot,2024.1.5,Win32,60.24096386,682d573fa47f1360d1451895,,,,,,,,,,,160.6618,161.1597,,,161.399,161.5102,left,,,,,,,,0.5,0.086099999,,,,,,,161.1598,161.399,161.5104,"[0.1457928180055455,-0.10091244041657849]","[-1,-1,-1]","[-0.06790155454162425,0.023259284288788498]","[1,1,1]","[-0.03904635577155002,0.16893782020659814]","[1,1,1]","[-0.02631498262558956,-0.17339508743760595]","[1,1,1]","[0.13164838328514505,0.0677835528734193]","[1,1,1]","[0.09936128100137014,0.17187675681258252]","[-1,-1,-1]","[0.05991474902960111,0.14335008730849394]","[-1,-1,-1]","[0.08487862120060105,0.04682128238636491]","[1,1,1]","[0.025042005963754214,0.03728335470310849]","[-1,-1,-1]","[-0.10831492899078538,-0.08460446357884313]","[-1,-1,-1]","[-0.09564736984114676,-0.009224317080537513]","[-1,-1,-1]","[-0.14964572337728682,-0.019213810134386652]","[1,1,1]","[-0.0020181451699360377,0.10594708906408744]","[1,1,1]","[0.12440137816600663,-0.1503668963008488]","[1,1,1]","[-0.03619510437866562,-0.06091568270176894]","[-1,-1,-1]","[-0.12799975162614746,0.11763568120410814]","[-1,-1,-1]","[0.028140871782738355,0.1892075378603611]","[1,1,1]","[0.10747008698410077,-0.08793501842470795]","[-1,-1,-1]","[0.03380272362465176,-0.09326123262820477]","[1,1,1]","[0.13088916758454774,0.13615804187932126]","[-1,-1,-1]","[-0.038630315790133325,0.06797329723436862]","[1,1,1]","[0.03228423629609749,-0.047023181381052416]","[-1,-1,-1]","[-0.0749238864653318,0.12570081432409713]","[1,1,1]","[-0.10469635366945869,-0.12467240932801277]","[-1,-1,-1]","[-0.13258145781922775,0.020482702699298964]","[-1,-1,-1]","[0.16477283602434264,0.04087511667862346]","[1,1,1]","[-0.19091527917830334,0.023783731688867903]","[1,1,1]","[-0.17606574497534772,-0.04975243464333602]","[1,1,1]","[0.07436428063319311,-0.16889256596240793]","[-1,-1,-1]","[0.1735265715974007,-0.02030858591967058]","[-1,-1,-1]","[0.07473077524478093,-0.05047043707113491]","[-1,-1,-1]","[0.02572807297956031,-0.171202210655992]","[1,1,1]","[0.02,0.02]",162.608,0,32,32,118,1,,,,,,,
,,,,,,,5d3ee89122ed84000172272a,682f0fc6d848c21260efc5e9,2025-05-22_12h52.23.643,cuing_paradigm_dot,2024.1.5,Win32,60.24096386,682d573fa47f1360d1451895,,,,,,,,,,,162.6094,163.1077,,,163.3653,163.4402,left,,,,,,,,0.1,0.0566,,,,,,,163.1079,163.3652,163.4402,"[0.05872930418835116,0.10740102490640355]","[-1,-1,-1]","[-0.13967698460664726,-0.1362659437240797]","[-1,-1,-1]","[-0.029154016750405663,-0.04789770944181981]","[-1,-1,-1]","[0.01394050047588358,0.04808175358510621]","[-1,-1,-1]","[0.12048675840956266,0.10235264422614962]","[-1,-1,-1]","[-0.08512350682700218,0.007212013721041215]","[-1,-1,-1]","[-0.11324521960239549,-0.07426810189056086]","[-1,-1,-1]","[-0.07794320709068346,-0.10348773978230341]","[1,1,1]","[-0.0413418863538658,0.14678594103256248]","[-1,-1,-1]","[0.031146007578940416,-0.12372585589656797]","[1,1,1]","[0.0746245680121225,0.04020254543252202]","[-1,-1,-1]","[-0.10927361817011445,0.045227908410843135]","[-1,-1,-1]","[0.04290917921956851,-0.061937005859648744]","[-1,-1,-1]","[-0.1390277490649245,0.015492477347934859]","[-1,-1,-1]","[0.03964456758631694,-0.18821619286781222]","[-1,-1,-1]","[0.09765505626292256,-0.024421085626241065]","[-1,-1,-1]","[0.06106221079876185,0.17684467088191186]","[-1,-1,-1]","[0.012014237726490285,0.11686382806350729]","[-1,-1,-1]","[0.10879003655989423,-0.12893695117212364]","[-1,-1,-1]","[0.17408831048679263,-0.008374529881835426]","[1,1,1]","[-0.16318417712862168,-0.09965732546180753]","[-1,-1,-1]","[0.06493848866467804,-0.15502071154580555]","[-1,-1,-1]","[-0.03746365413289434,0.044322551179448125]","[-1,-1,-1]","[-0.00864650018277969,0.01409646303519223]","[-1,-1,-1]","[0.18188504566075578,0.044011078151335876]","[-1,-1,-1]","[-0.04053115056344559,-0.13535377799601442]","[-1,-1,-1]","[-0.0001987369301997892,-0.0889552417229796]","[-1,-1,-1]","[-0.07491123087648052,0.10131525307194036]","[-1,-1,-1]","[0.16502354584690054,-0.07679589578516989]","[-1,-1,-1]","[0.0202393718767914,-0.018852130583999042]","[-1,-1,-1]","[-0.009053296537864759,0.19950357343411637]","[-1,-1,-1]","[0.1290555482713577,0.05303554261501212]","[-1,-1,-1]","[0.02,0.02]",164.539,0,33,33,24,1,,,,,,,
,,,,,,,5d3ee89122ed84000172272a,682f0fc6d848c21260efc5e9,2025-05-22_12h52.23.643,cuing_paradigm_dot,2024.1.5,Win32,60.24096386,682d573fa47f1360d1451895,,,,,,,,,,,164.5399,165.0382,,,165.2769,165.5007,right,,,,,,,,0.9,0.1072,,,,,,,165.0382,165.2768,165.5008,"[0.03092298628940634,0.14969876005906782]","[1,1,1]","[0.176084046771944,-0.06841977125919194]","[1,1,1]","[0.06936761280385918,-0.14106441362072514]","[1,1,1]","[0.10314172130084713,0.16407350659668868]","[1,1,1]","[0.19716734330905955,-0.03215018704640588]","[1,1,1]","[-0.05365306458777387,0.1591714158024202]","[1,1,1]","[0.037812090946521465,0.06861390427048303]","[1,1,1]","[0.022562662246556738,-0.09684727178323511]","[1,1,1]","[0.15187572842578215,0.04074281565341718]","[1,1,1]","[0.04294153791176892,-0.03162749578591023]","[1,1,1]","[-0.1489598485341971,0.029693627412222205]","[1,1,1]","[-0.06995139303026479,0.10485686445015407]","[-1,-1,-1]","[-0.15745496410350895,-0.09915073053481172]","[1,1,1]","[0.14408383228228197,0.1225051534081153]","[1,1,1]","[-0.1104199775958008,-0.07937335738507101]","[1,1,1]","[0.13391030617691957,0.0032885340252022345]","[1,1,1]","[-0.024983097845066665,0.18905306700714117]","[1,1,1]","[-0.11427399972818911,-0.15695825180300235]","[1,1,1]","[-0.11321687838514793,0.05230514992721488]","[1,1,1]","[-0.03142264451220945,0.0731517697344528]","[1,1,1]","[-0.12705740170147883,0.14691305486184558]","[1,1,1]","[-0.05429209544905595,-0.01628205269788667]","[1,1,1]","[0.19300109350454145,0.022738543136158564]","[1,1,1]","[0.11322535138476579,-0.1322440423614828]","[-1,-1,-1]","[-0.001557474700163077,-0.00902552036840036]","[1,1,1]","[0.026675553258393943,0.10976467819131719]","[-1,-1,-1]","[-0.02924597555715227,-0.08851229314646973]","[1,1,1]","[-0.1570073806107934,-0.056460035892772494]","[1,1,1]","[-0.19536394139915506,0.013889867710168024]","[1,1,1]","[-0.046167450852831006,-0.19235774619919946]","[1,1,1]","[0.1694633947567627,0.08116969516827548]","[1,1,1]","[0.05822240127786199,0.1881118184894881]","[1,1,1]","[0.02,0.02]",166.6038,0,34,34,195,1,,,,,,,
,,,,,,,5d3ee89122ed84000172272a,682f0fc6d848c21260efc5e9,2025-05-22_12h52.23.643,cuing_paradigm_dot,2024.1.5,Win32,60.24096386,682d573fa47f1360d1451895,,,,,,,,,,,166.6049,167.1033,,,167.3621,167.7693,right,,,,,,,,0.1,0.3907,,,,,,,167.1034,167.362,167.7694,"[0.05136604768872534,0.04990917628319225]","[-1,-1,-1]","[0.11044418273634961,-0.05493377436807753]","[-1,-1,-1]","[-0.015367161001594604,-0.07085290183955364]","[-1,-1,-1]","[-0.1034941836118061,0.1700431760060765]","[-1,-1,-1]","[-0.06698495896111421,0.06239767165190008]","[-1,-1,-1]","[0.1298799035878997,-0.1392464150774719]","[-1,-1,-1]","[-0.10729697734323938,0.097913908226241]","[-1,-1,-1]","[0.05617783693561862,0.15591331422277238]","[-1,-1,-1]","[-0.17206818256962197,-0.0359323301140921]","[-1,-1,-1]","[0.10537977535612718,0.03355123329669202]","[-1,-1,-1]","[-0.05072142133287862,0.15735247249385426]","[-1,-1,-1]","[0.08595238691061645,-0.11483575163499266]","[-1,-1,-1]","[0.08425421642126775,-0.018545930448173292]","[-1,-1,-1]","[0.023037961920252325,-0.13237353876111183]","[1,1,1]","[0.08782963094511981,-0.15640146435005017]","[-1,-1,-1]","[0.014564183136800628,0.09337100148246136]","[-1,-1,-1]","[-0.1604357121040718,0.06047960211869582]","[-1,-1,-1]","[0.14621774736996115,-0.026229107499197966]","[-1,-1,-1]","[-0.14492784975233633,0.1360284322282179]","[-1,-1,-1]","[-0.03348028910073717,0.007972481016870597]","[-1,-1,-1]","[0.18575520778741458,0.01340664358155288]","[-1,-1,-1]","[0.10925875562728983,0.12313643185254049]","[-1,-1,-1]","[0.022587218223405613,-0.023208685654064726]","[-1,-1,-1]","[-0.019245707345987073,0.07097187867127656]","[-1,-1,-1]","[-0.08594011590518352,-0.03408616386435197]","[-1,-1,-1]","[0.04519682587660935,-0.08970096301713511]","[-1,-1,-1]","[0.022000341995200654,-0.19517919136729195]","[-1,-1,-1]","[-0.14193136420101152,0.014161522482148529]","[1,1,1]","[0.1681130651525392,0.1002005660275712]","[-1,-1,-1]","[-0.024437566300972834,-0.11809930542748942]","[-1,-1,-1]","[0.014440622945135984,0.18890320958608808]","[-1,-1,-1]","[0.16601771478952998,-0.06326337100703455]","[1,1,1]","[0.02,0.02]",168.8679,0,35,35,0,1,,,,,,,
,,,,,,,5d3ee89122ed84000172272a,682f0fc6d848c21260efc5e9,2025-05-22_12h52.23.643,cuing_paradigm_dot,2024.1.5,Win32,60.24096386,682d573fa47f1360d1451895,,,,,,,,,,,168.8692,169.3676,,,169.6182,169.9007,right,,,,,,,,0.55,0.2513,,,,,,,169.3676,169.6181,169.9008,"[0.0025788209904604514,-0.17222313434046693]","[1,1,1]","[0.12988577046313848,0.1493399624280743]","[-1,-1,-1]","[0.05475697430008632,-0.06074357547517861]","[1,1,1]","[-0.04723812395676955,-0.06790824573868623]","[1,1,1]","[0.07079740506952803,0.14851549831658872]","[-1,-1,-1]","[-0.11505879086138385,0.12282241387159612]","[1,1,1]","[-0.15245674667319728,0.059921932188961684]","[1,1,1]","[0.0031390076819223264,0.05935939390478949]","[-1,-1,-1]","[-0.06058559941859013,0.004674006568848147]","[1,1,1]","[0.11308058713034144,-0.02067195632889555]","[1,1,1]","[0.12175066309422489,0.06647540632820642]","[1,1,1]","[-0.007439835545969414,-0.09277041437225514]","[-1,-1,-1]","[-0.12314593156401887,-0.03240706101414258]","[1,1,1]","[-0.15887681185294528,0.016276619569114553]","[-1,-1,-1]","[-0.1191373163688795,-0.07758629607915578]","[-1,-1,-1]","[-0.03848119338672873,0.04899793177007076]","[1,1,1]","[0.15588625906629178,-0.05695769469284185]","[-1,-1,-1]","[0.1262685504977005,-0.148082914127771]","[1,1,1]","[-0.09446321979843837,-0.16280732328125952]","[-1,-1,-1]","[-0.04656681061862617,0.17970355300905966]","[-1,-1,-1]","[0.044502775186629595,-0.14678273126183283]","[1,1,1]","[-0.09066394050984582,0.08896731591877662]","[-1,-1,-1]","[0.15568355445401913,0.01474404458584624]","[1,1,1]","[0.030342946579931057,0.12016153994927994]","[1,1,1]","[-0.01158919839922122,0.0017328387823759002]","[-1,-1,-1]","[0.05960526227923751,0.043734472737909896]","[1,1,1]","[-0.07306445524563375,-0.11399204986916261]","[-1,-1,-1]","[-0.023710218659253216,0.14554820886849526]","[1,1,1]","[0.057678818663182,-0.00282981665349941]","[1,1,1]","[-0.0896645525516216,0.1611187406624961]","[-1,-1,-1]","[0.02497244932312517,-0.0326226836673158]","[1,1,1]","[-0.19162932197115456,-0.03935984094928504]","[-1,-1,-1]","[0.02,0.02]",170.9992,0,36,36,125,1,,,,,,,
,,,,,,,5d3ee89122ed84000172272a,682f0fc6d848c21260efc5e9,2025-05-22_12h52.23.643,cuing_paradigm_dot,2024.1.5,Win32,60.24096386,682d573fa47f1360d1451895,,,,,,,,,,,171.0001,171.4983,,,171.7409,171.899,left,,,,,,,,0.9,0.148599999,,,,,,,171.4984,171.7408,171.8992,"[-0.11288424207475903,-0.06591383685424655]","[1,1,1]","[-0.07663543358377477,-0.12382932436967387]","[1,1,1]","[-0.053454702020172946,0.1618978831074425]","[-1,-1,-1]","[0.05823522904021633,-0.17828675201226632]","[1,1,1]","[0.0842737112259234,-0.03257004321003165]","[1,1,1]","[-0.09776684048671652,-0.01453170059544678]","[1,1,1]","[0.016139629661268192,0.17790156268736518]","[1,1,1]","[0.05939415160834217,0.10889170103896638]","[1,1,1]","[0.0955872002348035,-0.08172068110222751]","[1,1,1]","[-0.011151177294156071,0.11987214252459036]","[1,1,1]","[0.1392638125601772,-0.0837175612160962]","[1,1,1]","[-0.06685316500949137,0.023291615894156497]","[1,1,1]","[0.14776632056854944,0.1137943653274282]","[-1,-1,-1]","[-0.03367618736939026,-0.1379985144235837]","[1,1,1]","[0.04680902553497105,-0.13815555260148835]","[1,1,1]","[-0.15681158703358558,-0.0008127675528169685]","[1,1,1]","[-0.06958351164059787,-0.17804709954996076]","[1,1,1]","[-0.1046920297216334,0.07131732866914665]","[1,1,1]","[0.029463605838418384,-0.03780768851669111]","[1,1,1]","[-0.13668801290770724,0.14290812269694653]","[1,1,1]","[0.00817735457411723,-0.0924156386408183]","[1,1,1]","[0.14635210811759267,0.06223427325226172]","[1,1,1]","[-0.15111579877900436,0.08399927682406115]","[1,1,1]","[0.11212518012092244,0.03891640315393556]","[1,1,1]","[0.14515029141719182,0.009787641535518908]","[1,1,1]","[-0.03888788986121952,-0.030867977659148917]","[1,1,1]","[-0.12406608834049496,-0.14429539189730903]","[1,1,1]","[0.15483640132930981,-0.0345445097384314]","[1,1,1]","[-0.05157336541713256,0.11990435562718675]","[1,1,1]","[-0.010831459752597652,0.06903461979031618]","[1,1,1]","[0.187660468806313,0.00831297761367514]","[1,1,1]","[-0.1545214151314272,-0.08464123218771782]","[-1,-1,-1]","[0.02,0.02]",172.9969,0,37,37,181,1,,,,,,,
,,,,,,,5d3ee89122ed84000172272a,682f0fc6d848c21260efc5e9,2025-05-22_12h52.23.643,cuing_paradigm_dot,2024.1.5,Win32,60.24096386,682d573fa47f1360d1451895,,,,,,,,,,,172.9978,173.4965,,,173.7394,173.9887,right,,,,,,,,0.1,0.2338,,,,,,,173.4965,173.7393,173.9887,"[-0.1556854644064486,-0.054610721590265525]","[-1,-1,-1]","[-0.062302392265147374,-0.13413526995775524]","[-1,-1,-1]","[0.05405417373088877,0.16228349621885604]","[-1,-1,-1]","[0.050196128599470966,-0.03216394550126535]","[-1,-1,-1]","[-0.08525726740935144,0.005787986595279694]","[-1,-1,-1]","[0.05800317351367748,-0.10310180640107698]","[-1,-1,-1]","[0.015087118623251922,0.005391003353190425]","[-1,-1,-1]","[0.18220545218919132,-0.010560710886800837]","[1,1,1]","[0.11677076880366088,0.10380301253212332]","[-1,-1,-1]","[-0.11110384393348938,0.11474337714979288]","[-1,-1,-1]","[-0.14492020856160448,0.06286338765808866]","[-1,-1,-1]","[0.06307500467094046,-0.18875648781058543]","[-1,-1,-1]","[-0.018217152371931167,0.06025651613008001]","[-1,-1,-1]","[0.09307991149182855,0.04553723987349831]","[-1,-1,-1]","[0.03396370743834375,0.049752794776737386]","[-1,-1,-1]","[-0.03970224655432912,-0.057444198192627964]","[-1,-1,-1]","[0.015943980436177875,-0.08801725262389949]","[-1,-1,-1]","[0.10462374535888856,-0.01724473367270726]","[-1,-1,-1]","[0.17756945540636568,-0.05783888637286491]","[-1,-1,-1]","[-0.11201871393948272,-0.03902708243689953]","[-1,-1,-1]","[0.021154564747071974,-0.15158602111941044]","[-1,-1,-1]","[-0.08735971298472198,0.055294582417316954]","[-1,-1,-1]","[-0.12835079107567607,-0.1408572872284598]","[-1,-1,-1]","[-0.18776418922795923,-0.011966844940512386]","[-1,-1,-1]","[0.11940703822756965,-0.12840300094023374]","[1,1,1]","[0.001560872852675414,0.16448407846778157]","[-1,-1,-1]","[0.10444232120206012,0.16521977324885215]","[-1,-1,-1]","[-0.03894000846974937,0.14542578543196893]","[-1,-1,-1]","[-0.012296845503681144,-0.18953178132807846]","[-1,-1,-1]","[0.04949325759633128,0.10707056656839842]","[1,1,1]","[-0.194476928217811,0.046310841206996856]","[-1,-1,-1]","[-0.0655638631645538,0.10035526070582361]","[-1,-1,-1]","[0.02,0.02]",175.0893,0,38,38,7,1,,,,,,,
,,,,,,,5d3ee89122ed84000172272a,682f0fc6d848c21260efc5e9,2025-05-22_12h52.23.643,cuing_paradigm_dot,2024.1.5,Win32,60.24096386,682d573fa47f1360d1451895,,,,,,,,,,,175.0902,175.5857,,,175.8365,176.0606,left,,,,,,,,0.9,0.2089,,,,,,,175.5858,175.8363,176.0607,"[0.1362260627109136,-0.0307705765109892]","[1,1,1]","[-0.0031866000439135,-0.0023171543327834485]","[-1,-1,-1]","[0.03649051713389658,-0.15247685960422322]","[1,1,1]","[0.0557731978788961,-0.05039000696824971]","[1,1,1]","[-0.04496341269049421,-0.06680433222399114]","[1,1,1]","[0.013493462903728357,0.18773478213385675]","[1,1,1]","[-0.11441263763525092,0.1112981761380007]","[1,1,1]","[-0.1158993535229587,0.04688699037577155]","[-1,-1,-1]","[0.06952250802493973,0.03537166323107453]","[1,1,1]","[0.10806911180402862,-0.1470803724825578]","[1,1,1]","[0.0891760932332937,0.136261190349524]","[1,1,1]","[-0.12938075502654803,-0.08057240470104857]","[1,1,1]","[-0.05094006178563992,0.1095545035722047]","[1,1,1]","[-0.01720579490297552,0.08130559254942729]","[1,1,1]","[-0.00524348738302452,-0.14096900441719518]","[1,1,1]","[-0.10871015891643121,-0.12065983216424706]","[1,1,1]","[0.15485076163568673,-0.06797694478604333]","[1,1,1]","[-0.008272841874342577,0.1294815139435573]","[1,1,1]","[-0.07939792292741663,-0.14837315323869468]","[1,1,1]","[-0.0416502279001461,-0.1657801729503562]","[1,1,1]","[0.06992026979868175,0.1803136543084035]","[1,1,1]","[0.1460947254010353,0.025692015037264412]","[-1,-1,-1]","[-0.056930012761541686,0.05290798010116756]","[1,1,1]","[-0.13624363328348682,-0.022293661638846714]","[1,1,1]","[-0.17405476450684704,-0.004237267540644006]","[1,1,1]","[-0.06073974566551826,-0.024718125076928586]","[1,1,1]","[0.0687327458861592,-0.007082580359028651]","[1,1,1]","[0.10926184890498958,0.07689503176715563]","[1,1,1]","[0.08935417531477939,-0.11037355492533325]","[1,1,1]","[0.06151098330738357,0.07842778623651377]","[1,1,1]","[-0.1688835165214011,0.10646012965944879]","[1,1,1]","[0.0421460177640748,0.14622560614434765]","[1,1,1]","[0.02,0.02]",177.1588,0,39,39,208,1,,,,,,,
,,,,,,,5d3ee89122ed84000172272a,682f0fc6d848c21260efc5e9,2025-05-22_12h52.23.643,cuing_paradigm_dot,2024.1.5,Win32,60.24096386,682d573fa47f1360d1451895,,,,,,,,,,,177.1596,177.6576,,,177.898,178.0082,right,,,,,,,,0.1,0.088,,,,,,,177.6577,177.8979,178.0083,"[0.12068674696611334,0.07882912339871745]","[-1,-1,-1]","[0.06650824546261823,0.1488542858527853]","[-1,-1,-1]","[0.16030322735171113,0.03456917550058394]","[-1,-1,-1]","[-0.05392754262731599,0.14939985224921445]","[-1,-1,-1]","[-0.058506293091962765,0.08344143442135729]","[-1,-1,-1]","[-0.14320108387413308,0.031189918330892366]","[-1,-1,-1]","[0.021793393757884378,0.13282165312220442]","[-1,-1,-1]","[-0.04668078456939049,-0.11685386890582378]","[-1,-1,-1]","[-0.011315855368728863,-0.08223225239328587]","[-1,-1,-1]","[-0.11792047660499975,-0.10814113062143639]","[-1,-1,-1]","[0.11653030106005649,0.010032923129639432]","[-1,-1,-1]","[0.07512127559021475,-0.016484588679729486]","[-1,-1,-1]","[-0.0625405533588727,-0.16809934047312936]","[-1,-1,-1]","[-0.18481525010856753,0.07387216776750437]","[-1,-1,-1]","[0.11353440077913692,-0.06245877477354112]","[-1,-1,-1]","[-0.19129912224260415,-0.011397869815267837]","[-1,-1,-1]","[-0.011735007614547993,0.17602780446713376]","[-1,-1,-1]","[0.022558116450118328,-0.16796937188909614]","[1,1,1]","[0.08214880783666419,-0.15186826938937834]","[-1,-1,-1]","[0.12457270535685122,-0.12092868470013249]","[-1,-1,-1]","[0.02928297602109694,0.006411152296011177]","[1,1,1]","[-0.00409784177419115,-0.026186716655588083]","[1,1,1]","[-0.09066167814095087,-0.06204403028428819]","[-1,-1,-1]","[-0.10110510307720069,0.08715991703126097]","[-1,-1,-1]","[0.18322286404453023,-0.016568585214895876]","[-1,-1,-1]","[-0.11480016851248033,-0.005001123251585221]","[-1,-1,-1]","[0.04170447059211059,0.07327040828585378]","[-1,-1,-1]","[0.08596027145425052,0.10480215160901123]","[-1,-1,-1]","[0.07648202324266587,0.03199829200561949]","[-1,-1,-1]","[0.063237262916818,-0.08386538267555006]","[-1,-1,-1]","[0.1337260136290218,0.1400087017704956]","[-1,-1,-1]","[0.16319021951026122,-0.07901918708768185]","[-1,-1,-1]","[0.02,0.02]",179.1064,0,40,40,28,1,,,,,,,
,,,,,,,5d3ee89122ed84000172272a,682f0fc6d848c21260efc5e9,2025-05-22_12h52.23.643,cuing_paradigm_dot,2024.1.5,Win32,60.24096386,682d573fa47f1360d1451895,,,,,,,,,,,179.1075,179.6064,,,179.8491,179.949,left,,,,,,,,0.6,0.0837,,,,,,,179.6064,179.849,179.9491,"[0.10936121890271128,0.07183475175795838]","[1,1,1]","[-0.016963944179480654,-0.15514984403799864]","[1,1,1]","[0.15382916517091202,0.057489611403258825]","[-1,-1,-1]","[0.025845086387655945,0.033846838925809516]","[-1,-1,-1]","[0.057421036685085726,-0.18277123083113095]","[1,1,1]","[0.11236490001634175,-0.15575805706555093]","[1,1,1]","[-0.14994592768411788,0.08203545106016749]","[1,1,1]","[-0.11259199850803707,-0.11413731985094165]","[1,1,1]","[-0.05935516849424891,0.08552441031202387]","[-1,-1,-1]","[0.09058247970994329,-0.030836139415621612]","[1,1,1]","[0.11237630516528505,0.1422014593876471]","[-1,-1,-1]","[0.029514382219882934,0.12302768936875022]","[-1,-1,-1]","[0.1309230575446665,-0.026742926308353145]","[-1,-1,-1]","[0.0625473834803042,0.1669899206743877]","[-1,-1,-1]","[-0.03347459706249131,-0.06781359446338121]","[1,1,1]","[-0.0174432676423558,-0.009265357470540995]","[1,1,1]","[-0.09914207772354089,0.11855419575238624]","[1,1,1]","[-0.1623124125989998,-0.007499267893684591]","[1,1,1]","[-0.16454820457980898,-0.10782204635963165]","[-1,-1,-1]","[-0.13613058823798307,-0.07800081655562276]","[1,1,1]","[-0.01712808161694098,0.12458932188852415]","[1,1,1]","[0.052203763290793424,-0.0882683461330938]","[1,1,1]","[0.18130758827714133,-0.0805298195611986]","[-1,-1,-1]","[-0.0962203526825535,0.01664057581619278]","[1,1,1]","[0.18856704400332938,-0.0023822136638886483]","[1,1,1]","[0.025967690125547813,0.19061811578041482]","[1,1,1]","[-0.08112934852090506,0.17803160241484065]","[-1,-1,-1]","[-0.05616224143751103,-0.02395680840912914]","[-1,-1,-1]","[0.06994458784574041,-0.13364767769635008]","[1,1,1]","[0.06468528600283406,0.024274906643698507]","[-1,-1,-1]","[-0.19888045541140562,0.01696514121828355]","[1,1,1]","[0.13645246312366172,0.01705157797850584]","[-1,-1,-1]","[0.02,0.02]",181.0469,0,41,41,160,1,,,,,,,
,,,,,,,5d3ee89122ed84000172272a,682f0fc6d848c21260efc5e9,2025-05-22_12h52.23.643,cuing_paradigm_dot,2024.1.5,Win32,60.24096386,682d573fa47f1360d1451895,,,,,,,,,,,181.0479,181.5466,,,181.7929,181.9205,right,,,,,,,,0.4,0.1128,,,,,,,181.5467,181.7928,181.9205,"[0.03213331330804277,-0.05496668525572791]","[-1,-1,-1]","[-0.13420704101569847,-0.09860711167366672]","[1,1,1]","[-0.006889447883668804,-0.11610977965228499]","[1,1,1]","[-0.08587692491493026,-0.056580833972868845]","[1,1,1]","[-0.04978778576871272,0.10067827813587975]","[1,1,1]","[-0.0015698956631936378,-0.1566946761306839]","[-1,-1,-1]","[-0.007822220518918777,0.19649945341744146]","[1,1,1]","[-0.0437379225981188,0.06023903337627787]","[-1,-1,-1]","[0.15641561900192372,0.11493773032094053]","[1,1,1]","[0.10773361186231983,-0.03564437959745056]","[1,1,1]","[-0.1624544375904784,0.02064500538462573]","[1,1,1]","[-0.01981760655469545,-0.01836741051281742]","[-1,-1,-1]","[-0.1601190439063837,0.11938712020647389]","[1,1,1]","[0.1463985065045292,-0.00852978246174454]","[1,1,1]","[0.10033607337467132,0.033739321159969554]","[-1,-1,-1]","[0.05517227716115441,0.08654479384010626]","[-1,-1,-1]","[-0.1212328909378759,-0.0074437276119144686]","[-1,-1,-1]","[-0.09591570700443014,0.11736247267537872]","[-1,-1,-1]","[0.05512550929310173,0.035836652948294086]","[-1,-1,-1]","[-0.09063881725172777,-0.15592179962658934]","[-1,-1,-1]","[0.02955373315790798,0.1347505373682146]","[1,1,1]","[-0.029494640764657354,-0.06358710009754995]","[-1,-1,-1]","[-0.0475480076880698,0.17844567545168732]","[-1,-1,-1]","[-0.019827906861143222,0.14420195140801811]","[1,1,1]","[-0.05728683901298012,-0.1214685588435436]","[1,1,1]","[0.12372085117911069,0.14443186161637908]","[-1,-1,-1]","[-0.010761109010074595,0.08965312752020443]","[-1,-1,-1]","[0.03452273533168775,-0.1323231920449193]","[-1,-1,-1]","[0.1494567719451378,-0.08045574735634778]","[-1,-1,-1]","[-0.1090988352901831,0.05201764027457551]","[-1,-1,-1]","[0.019968681200420772,0.0003744994629134765]","[-1,-1,-1]","[0.10061042001393758,0.08691305952409263]","[-1,-1,-1]","[0.02,0.02]",183.0191,0,42,42,39,1,,,,,,,
,,,,,,,5d3ee89122ed84000172272a,682f0fc6d848c21260efc5e9,2025-05-22_12h52.23.643,cuing_paradigm_dot,2024.1.5,Win32,60.24096386,682d573fa47f1360d1451895,,,,,,,,,,,183.0201,183.5185,,,183.7699,183.8853,left,,,,,,,,0.55,0.1052,,,,,,,183.5186,183.7697,183.8856,"[0.008481716141814031,-0.08504376377342121]","[1,1,1]","[0.0030662070504148178,-0.14394620303492997]","[1,1,1]","[-0.19546275220136963,0.014603495325662205]","[-1,-1,-1]","[-0.11600459006769903,-0.06162248056834195]","[1,1,1]","[0.008489528402514001,0.09373955114309822]","[-1,-1,-1]","[0.1866564958498493,0.06111247441524664]","[1,1,1]","[-0.07211555622944088,-0.04869355050409104]","[1,1,1]","[0.03881985770298898,-0.042631865146359665]","[-1,-1,-1]","[-0.1344390214843494,-0.12472352808177008]","[1,1,1]","[-0.022262045051878645,0.06510613982517627]","[-1,-1,-1]","[0.06104826570922645,0.09708930619134065]","[1,1,1]","[-0.07496818347818808,0.14799327756432681]","[1,1,1]","[0.12794052439409495,-0.03859448169231331]","[1,1,1]","[-0.04029589909933493,-0.17939046481610518]","[-1,-1,-1]","[-0.16723075774874907,0.07605155862449617]","[-1,-1,-1]","[0.1844503091963592,-0.0009769906629868944]","[1,1,1]","[0.14076614284587172,0.044967843167253524]","[-1,-1,-1]","[0.16262431362637822,-0.09023103267399785]","[1,1,1]","[0.07250368105412168,-0.11420048055440328]","[-1,-1,-1]","[0.11501578896681586,0.1377896860084948]","[1,1,1]","[0.09010956449103899,-0.0008121059724244019]","[1,1,1]","[-0.06672966894061302,0.03920230793657624]","[1,1,1]","[-0.0017343366342775543,0.15924443863506116]","[-1,-1,-1]","[0.020830232411423292,-0.1981448457857149]","[-1,-1,-1]","[-0.01430250477965178,-0.03977397142480556]","[1,1,1]","[-0.04504421492358252,-0.10303820980266899]","[1,1,1]","[-0.18219126559317386,-0.07277982684740529]","[-1,-1,-1]","[-0.10019023129940352,-0.10295255088324196]","[1,1,1]","[-0.11825954291234311,0.08852745708680257]","[1,1,1]","[-0.12826187795755659,-0.02232493116971369]","[-1,-1,-1]","[0.04834550762423412,0.051946152192794956]","[-1,-1,-1]","[0.11962810955590306,0.08058739937354097]","[-1,-1,-1]","[0.02,0.02]",184.9844,0,43,43,122,1,,,,,,,
,,,,,,,5d3ee89122ed84000172272a,682f0fc6d848c21260efc5e9,2025-05-22_12h52.23.643,cuing_paradigm_dot,2024.1.5,Win32,60.24096386,682d573fa47f1360d1451895,,,,,,,,,,,184.9855,185.4832,,,185.7259,186.1263,right,,,,,,,,0.55,0.3843,,,,,,,185.4834,185.7258,186.1263,"[-0.15242333384996776,0.03848014338128815]","[1,1,1]","[0.042992859593350606,0.07034572634918512]","[1,1,1]","[0.007771233720941782,-0.15492080623521665]","[-1,-1,-1]","[-0.03479661609034109,-0.019615323602642516]","[-1,-1,-1]","[-0.08165402486925862,-0.08210422458832302]","[-1,-1,-1]","[0.040262266010894034,-0.11949695218342733]","[1,1,1]","[0.08667682470889815,-0.17460429435402536]","[1,1,1]","[-0.010516364928999234,0.11851508855155599]","[-1,-1,-1]","[-0.047649483035212326,0.02391906837180465]","[-1,-1,-1]","[-0.11686491435528533,0.07965873957357829]","[-1,-1,-1]","[0.04701353573107579,0.16786680818462826]","[1,1,1]","[-0.12404336739319746,-0.06331064755285075]","[1,1,1]","[-0.07598697412065267,0.12653874957764544]","[1,1,1]","[0.13029273446547637,0.12799941493994943]","[1,1,1]","[-0.010364304698417997,0.16741189705042767]","[-1,-1,-1]","[0.149027286591405,0.01970864366579602]","[-1,-1,-1]","[0.17797949975627078,-0.08649390604179305]","[-1,-1,-1]","[0.18945093196426724,0.02303923873180333]","[1,1,1]","[0.045182134535964306,-0.038664202982933556]","[-1,-1,-1]","[-0.10183099338422079,0.017054534482872998]","[1,1,1]","[-0.10256836161317016,0.15718693192526054]","[1,1,1]","[-0.1510570424886158,0.10778528060404363]","[1,1,1]","[0.16966564621602936,0.06841955306522333]","[1,1,1]","[0.024987153514418176,0.008191065128038112]","[-1,-1,-1]","[0.03940975121237627,0.11071889397302918]","[1,1,1]","[0.08683339101727588,-0.07074222367686106]","[-1,-1,-1]","[0.09966790176980952,-0.030293829912433585]","[1,1,1]","[-0.05351093959128667,0.16942233761230527]","[-1,-1,-1]","[-0.1896801315912914,0.0238592297330282]","[-1,-1,-1]","[-0.0011745676898426438,-0.08211571531144614]","[1,1,1]","[-0.06702121679241102,-0.14556075910456318]","[1,1,1]","[0.09604096943990309,0.09493870906394467]","[1,1,1]","[0.02,0.02]",187.2235,0,44,44,130,1,,,,,,,
