right,left,explain.started,explain.stopped,key_resp_3.keys,key_resp_3.rt,key_resp_3.duration,participant,session,date,expName,psychopyVersion,OS,frameRate,study_id,explain_2.started,explain_2.stopped,key_resp_4.keys,key_resp_4.rt,key_resp_4.duration,explain_3.started,explain_3.stopped,key_resp_5.keys,key_resp_5.rt,key_resp_5.duration,fixation.started,fixation.stopped,practice.started,practice.stopped,response.started,response.stopped,key_resp.keys,feedback.started,feedback.stopped,trials_2.thisRepN,trials_2.thisTrialN,trials_2.thisN,trials_2.thisIndex,trials_2.ran,white_ratio,key_resp.rt,key_resp.duration,explain_4.started,explain_4.stopped,key_resp_6.keys,key_resp_6.rt,key_resp_6.duration,dotDisplay.started,dotDisplay.stopped,ITI.started,polygon_1.pos,polygon_1.color,polygon_2.pos,polygon_2.color,polygon_3.pos,polygon_3.color,polygon_4.pos,polygon_4.color,polygon_5.pos,polygon_5.color,polygon_6.pos,polygon_6.color,polygon_7.pos,polygon_7.color,polygon_8.pos,polygon_8.color,polygon_9.pos,polygon_9.color,polygon_10.pos,polygon_10.color,polygon_11.pos,polygon_11.color,polygon_12.pos,polygon_12.color,polygon_13.pos,polygon_13.color,polygon_14.pos,polygon_14.color,polygon_15.pos,polygon_15.color,polygon_16.pos,polygon_16.color,polygon_17.pos,polygon_17.color,polygon_18.pos,polygon_18.color,polygon_19.pos,polygon_19.color,polygon_20.pos,polygon_20.color,polygon_21.pos,polygon_21.color,polygon_22.pos,polygon_22.color,polygon_23.pos,polygon_23.color,polygon_24.pos,polygon_24.color,polygon_25.pos,polygon_25.color,polygon_26.pos,polygon_26.color,polygon_27.pos,polygon_27.color,polygon_28.pos,polygon_28.color,polygon_29.pos,polygon_29.color,polygon_30.pos,polygon_30.color,polygon_31.pos,polygon_31.color,polygon_32.pos,polygon_32.color,dot_size,ITI.stopped,trials.thisRepN,trials.thisTrialN,trials.thisN,trials.thisIndex,trials.ran,break_2.started,break_2.stopped,trials_3.thisRepN,trials_3.thisTrialN,trials_3.thisN,trials_3.thisIndex,trials_3.ran
subject chose black,subject chose white,0.0006,36.1829,space,21.0707,,5d7e41aea60f7b00013cf1af,682f2ed2c2625ed20f0a41f9,2025-05-22_16h05.12.538,cuing_paradigm_dot,2024.1.5,Win32,10,682d573fa47f1360d1451895,,,,,,,,,,,,,,,,,,,,,,,,,,,,,,,,,,,,,,,,,,,,,,,,,,,,,,,,,,,,,,,,,,,,,,,,,,,,,,,,,,,,,,,,,,,,,,,,,,,,,,,,,,,,,,,,,
,,,,,,,5d7e41aea60f7b00013cf1af,682f2ed2c2625ed20f0a41f9,2025-05-22_16h05.12.538,cuing_paradigm_dot,2024.1.5,Win32,10,682d573fa47f1360d1451895,36.1831,69.6691,space,3.4103,,,,,,,,,,,,,,,,,,,,,,,,,,,,,,,,,,,,,,,,,,,,,,,,,,,,,,,,,,,,,,,,,,,,,,,,,,,,,,,,,,,,,,,,,,,,,,,,,,,,,,,,,,,,,
,,,,,,,5d7e41aea60f7b00013cf1af,682f2ed2c2625ed20f0a41f9,2025-05-22_16h05.12.538,cuing_paradigm_dot,2024.1.5,Win32,10,682d573fa47f1360d1451895,,,,,,69.6691,74.8349,space,2.1286,,,,,,,,,,,,,,,,,,,,,,,,,,,,,,,,,,,,,,,,,,,,,,,,,,,,,,,,,,,,,,,,,,,,,,,,,,,,,,,,,,,,,,,,,,,,,,,,,,,,,,,,
,,,,,,,5d7e41aea60f7b00013cf1af,682f2ed2c2625ed20f0a41f9,2025-05-22_16h05.12.538,cuing_paradigm_dot,2024.1.5,Win32,10,682d573fa47f1360d1451895,,,,,,,,,,,74.8494,75.2674,75.2677,75.4918,75.4919,76.9972,,76.9973,78.1036,0,0,0,1,1,0.2,,,,,,,,,,,,,,,,,,,,,,,,,,,,,,,,,,,,,,,,,,,,,,,,,,,,,,,,,,,,,,,,,,,,,,,,,,,,,,,,,,,,,,,,
,,,,,,,5d7e41aea60f7b00013cf1af,682f2ed2c2625ed20f0a41f9,2025-05-22_16h05.12.538,cuing_paradigm_dot,2024.1.5,Win32,10,682d573fa47f1360d1451895,,,,,,,,,,,78.104,78.6417,78.6417,78.8672,78.8673,79.548,left,79.5481,80.6536,0,1,1,0,1,0.8,0.5806,,,,,,,,,,,,,,,,,,,,,,,,,,,,,,,,,,,,,,,,,,,,,,,,,,,,,,,,,,,,,,,,,,,,,,,,,,,,,,,,,,,,,,,
,,,,,,,5d7e41aea60f7b00013cf1af,682f2ed2c2625ed20f0a41f9,2025-05-22_16h05.12.538,cuing_paradigm_dot,2024.1.5,Win32,10,682d573fa47f1360d1451895,,,,,,,,,,,,,,,,,,,,,,,,,,,,80.6538,85.8197,space,2.1514,1E-04,,,,,,,,,,,,,,,,,,,,,,,,,,,,,,,,,,,,,,,,,,,,,,,,,,,,,,,,,,,,,,,,,,,,,,,,,,,,,,,,,
,,,,,,,5d7e41aea60f7b00013cf1af,682f2ed2c2625ed20f0a41f9,2025-05-22_16h05.12.538,cuing_paradigm_dot,2024.1.5,Win32,10,682d573fa47f1360d1451895,,,,,,,,,,,85.8296,86.2866,,,86.5179,86.9654,right,,,,,,,,0.45,0.346,,,,,,,86.287,86.5179,86.9657,"[-0.01709064040911718,0.012871001440560557]","[-1,-1,-1]","[0.033842585594669836,-0.08888892224903366]","[-1,-1,-1]","[0.12363891443223161,0.04999824049698083]","[-1,-1,-1]","[0.16179874897631047,-0.014409374918186063]","[1,1,1]","[-0.10277408490733747,0.12316374561886814]","[-1,-1,-1]","[0.13167333232741205,0.11192965896128167]","[-1,-1,-1]","[-0.13564515947808634,-0.02298307345036161]","[-1,-1,-1]","[-0.0974603511000469,-0.04900274797561718]","[-1,-1,-1]","[-0.05621413973723583,-0.10447843483140708]","[-1,-1,-1]","[0.10306222495050917,-0.08535378413043736]","[-1,-1,-1]","[0.010839061153167405,0.08005359639267086]","[1,1,1]","[0.12800404978483107,-0.13952224173195713]","[-1,-1,-1]","[0.021334623411929696,-0.027597695553374664]","[-1,-1,-1]","[0.1490950217825109,-0.06338300905803283]","[1,1,1]","[0.08539475456720307,-0.13016028940134136]","[1,1,1]","[0.07706779519150722,-0.024037177583201536]","[1,1,1]","[0.17191698747580808,0.08619852645907584]","[1,1,1]","[-0.13166641288502318,0.022783807298814553]","[-1,-1,-1]","[0.00985478760733902,-0.17540438729053343]","[1,1,1]","[-0.08607142207435237,-0.002204141409946264]","[-1,-1,-1]","[-0.11125620654381353,-0.11796422540613032]","[1,1,1]","[-0.17326019617995272,0.03324201422233661]","[1,1,1]","[0.058837260220032495,-0.18732522643828922]","[1,1,1]","[0.038842164608749716,0.13681348780470498]","[-1,-1,-1]","[0.09224304363316033,0.1043650120798181]","[1,1,1]","[-0.019056992667794672,-0.0382508920185378]","[1,1,1]","[0.02908810028064118,0.04327407803297429]","[-1,-1,-1]","[-0.1761740559735864,-0.048775446726259886]","[-1,-1,-1]","[0.11867058344693092,0.1587611972416431]","[1,1,1]","[0.05988114940301624,0.07412198405746592]","[-1,-1,-1]","[-0.014170968592682116,-0.12566281773220106]","[-1,-1,-1]","[-0.07715545820227769,0.09181200500350094]","[1,1,1]","[0.02,0.02]",88.0404,0,0,0,75,1,,,,,,,
,,,,,,,5d7e41aea60f7b00013cf1af,682f2ed2c2625ed20f0a41f9,2025-05-22_16h05.12.538,cuing_paradigm_dot,2024.1.5,Win32,10,682d573fa47f1360d1451895,,,,,,,,,,,88.0407,88.4712,,,88.6879,89.2671,right,,,,,,,,0.5,0.4672,,,,,,,88.4713,88.6879,89.2671,"[0.03272969486516391,0.022481601212933227]","[-1,-1,-1]","[0.04045942963799175,0.16157887035673923]","[1,1,1]","[-0.018257463746383783,0.14372889478993456]","[-1,-1,-1]","[0.14263989541771835,-0.052182786274843046]","[-1,-1,-1]","[-0.10515362789469065,-0.12482909824614913]","[-1,-1,-1]","[0.08488224229340553,-0.09858006441547917]","[1,1,1]","[-0.13200850496670355,-0.08676980786724318]","[1,1,1]","[-0.07181456892861648,0.12582831747682163]","[1,1,1]","[0.08590177165299893,0.0641997252491985]","[1,1,1]","[0.021818002873655127,-0.06439589577788106]","[1,1,1]","[-0.03126167505444115,0.06016254135104125]","[-1,-1,-1]","[0.08220268254356229,0.13675514621415832]","[-1,-1,-1]","[0.058394798422497694,-0.1728315368430488]","[-1,-1,-1]","[0.14309834531548107,0.048311012902096134]","[1,1,1]","[-0.1648518393855616,-0.020609753634358467]","[1,1,1]","[0.007324903829816855,0.07197046910602913]","[-1,-1,-1]","[0.009439086889504407,-0.1500386089623303]","[-1,-1,-1]","[-0.06081049845120298,-0.10863905249860975]","[1,1,1]","[-0.08946905374431356,0.07500527399682162]","[1,1,1]","[0.15931717446741908,-0.10176984447138922]","[1,1,1]","[-0.09039995947582147,-0.16393839605594715]","[1,1,1]","[-0.14505160320874538,0.048320097217765666]","[1,1,1]","[-0.15132517838717197,0.09563802763450452]","[-1,-1,-1]","[-0.08188753149706876,-0.022403053264265844]","[1,1,1]","[-0.060963923344260915,0.017009679346345907]","[1,1,1]","[-0.11224284924487053,0.011765143168892956]","[-1,-1,-1]","[-0.039154794726054015,-0.05955223016542634]","[-1,-1,-1]","[0.07985259802242715,-0.03428837829837809]","[-1,-1,-1]","[0.17099530647447742,-0.0026095427948289954]","[-1,-1,-1]","[-0.05492655578659229,0.18530138174323224]","[-1,-1,-1]","[0.05034590720486614,-0.11999969057503576]","[1,1,1]","[0.02054903762536668,0.1145146636273081]","[-1,-1,-1]","[0.02,0.02]",90.3275,0,1,1,92,1,,,,,,,
,,,,,,,5d7e41aea60f7b00013cf1af,682f2ed2c2625ed20f0a41f9,2025-05-22_16h05.12.538,cuing_paradigm_dot,2024.1.5,Win32,10,682d573fa47f1360d1451895,,,,,,,,,,,90.3278,90.7854,,,91.0146,91.4633,left,,,,,,,,0.9,0.3479,,,,,,,90.7854,91.0144,91.4633,"[0.11338160554601587,-0.09028953683156762]","[-1,-1,-1]","[-0.011787893106066587,-0.08985416471886512]","[1,1,1]","[-0.054986465403910695,-0.004284829393579587]","[1,1,1]","[0.18944477707819715,-0.01927960460669014]","[1,1,1]","[0.1443402674821787,-0.03171118567710153]","[1,1,1]","[-0.07857858680476537,-0.13768675139367811]","[1,1,1]","[-0.18607999300163922,-0.010133888784110218]","[1,1,1]","[-0.12956225421977396,-0.05860694444652468]","[1,1,1]","[0.08020632853537757,0.11333694613292347]","[-1,-1,-1]","[-0.015298558660811295,0.13577918815037388]","[1,1,1]","[-0.08988757004276449,-0.04949600638661996]","[1,1,1]","[-0.1098507440780205,0.09405766817489315]","[1,1,1]","[-0.16024937135195336,0.11871081532012859]","[1,1,1]","[0.08664509066500464,-0.03103577197494203]","[1,1,1]","[-0.006909114104727195,-0.011823777850531805]","[1,1,1]","[0.05020739351783989,-0.0586140579455263]","[1,1,1]","[0.14939581396219523,-0.13289115038273816]","[1,1,1]","[0.0028513110101073646,0.038690557069090366]","[1,1,1]","[0.139440530363743,0.09685590465527678]","[1,1,1]","[-0.05661921750792942,0.0802113118218543]","[-1,-1,-1]","[0.189607838218914,0.052317720289305536]","[1,1,1]","[-0.12674927642462527,-0.10454951363812308]","[1,1,1]","[0.07846828726689392,-0.13550270287454944]","[1,1,1]","[0.025360266819672905,0.10475032206059834]","[1,1,1]","[0.1315534879406754,0.14268825600128313]","[1,1,1]","[0.13643200948902562,0.030929311896797155]","[1,1,1]","[-0.06496263251897819,0.16125797153928362]","[1,1,1]","[-0.11373161591434544,0.036926948680124444]","[1,1,1]","[0.09044962779185738,0.023744402191473137]","[1,1,1]","[-0.14389248165311638,0.06914466322948908]","[1,1,1]","[0.01601799817775156,0.1753952712538975]","[1,1,1]","[-0.07710893892746998,-0.0964348905091274]","[1,1,1]","[0.02,0.02]",92.5472,0,2,2,202,1,,,,,,,
,,,,,,,5d7e41aea60f7b00013cf1af,682f2ed2c2625ed20f0a41f9,2025-05-22_16h05.12.538,cuing_paradigm_dot,2024.1.5,Win32,10,682d573fa47f1360d1451895,,,,,,,,,,,92.5475,92.9757,,,93.2018,93.5481,right,,,,,,,,0.4,0.2448,,,,,,,92.9757,93.2018,93.5481,"[0.008441883702526501,-0.05124464627036961]","[1,1,1]","[0.002015767126673834,0.16358389781358001]","[1,1,1]","[0.01266783850683764,-0.12474616170012325]","[-1,-1,-1]","[-0.10891319222162181,0.061917627017813455]","[-1,-1,-1]","[-0.05177041413796786,-0.1520792317310852]","[-1,-1,-1]","[0.03681263550658208,-0.004717752435989454]","[-1,-1,-1]","[0.028394555362287754,-0.19114156142633168]","[-1,-1,-1]","[0.07012088957613503,-0.028950499425982747]","[1,1,1]","[-0.11387876025649929,0.16097099824489208]","[1,1,1]","[-0.174629413163275,0.09067111502803887]","[1,1,1]","[0.11457642359564787,-0.1369316830040527]","[1,1,1]","[0.1804736045695298,0.043774926603121066]","[-1,-1,-1]","[0.04593040327852393,0.0863548082450235]","[1,1,1]","[-0.08155227899544033,0.12513104590868535]","[1,1,1]","[-0.16702997665477534,0.03175392221812141]","[-1,-1,-1]","[0.07701984607643172,0.17121075915665343]","[1,1,1]","[-0.09099562653107447,-0.06384418236504626]","[-1,-1,-1]","[0.06741034114140318,-0.11188728418118882]","[-1,-1,-1]","[0.08074670852607038,0.11994547826183571]","[1,1,1]","[0.12526977264924674,0.021752439458063145]","[1,1,1]","[-0.021200565546509866,0.19663831226746548]","[-1,-1,-1]","[0.005078919487477535,0.09409867195227498]","[-1,-1,-1]","[-0.12490220240640172,-0.14769570715611174]","[-1,-1,-1]","[0.13228778627946916,0.07513906293907849]","[1,1,1]","[0.12753944827874342,-0.07317079945982509]","[1,1,1]","[-0.0965716522604739,-0.11153917823686034]","[-1,-1,-1]","[-0.15037042888957544,-0.08209683890593548]","[-1,-1,-1]","[-0.18955103434883433,-0.00698546433966855]","[-1,-1,-1]","[0.16256585957004924,0.006135414368312515]","[-1,-1,-1]","[-0.10825473891233135,-0.013717508314957107]","[-1,-1,-1]","[-0.0451226527908127,0.06191835150691029]","[-1,-1,-1]","[-0.055013826296576564,0.17432849455399727]","[-1,-1,-1]","[0.02,0.02]",94.6196,0,3,3,58,1,,,,,,,
,,,,,,,5d7e41aea60f7b00013cf1af,682f2ed2c2625ed20f0a41f9,2025-05-22_16h05.12.538,cuing_paradigm_dot,2024.1.5,Win32,10,682d573fa47f1360d1451895,,,,,,,,,,,94.6198,95.0709,,,95.2922,95.8871,right,,,,,,,,0.6,0.4885,,,,,,,95.0709,95.2922,95.8872,"[0.043966646462475986,-0.11985757445394142]","[1,1,1]","[0.023137716902589336,0.022179986232426563]","[1,1,1]","[0.07198034393182118,0.06297495821023776]","[1,1,1]","[-0.16998731440002762,0.03126768198505515]","[1,1,1]","[0.12282043195298666,-0.12331443943140866]","[-1,-1,-1]","[-0.06284468947636074,0.03140185744688696]","[1,1,1]","[-0.13632663258658556,0.09689650984261569]","[1,1,1]","[0.10985334370043859,0.1581058626912068]","[-1,-1,-1]","[-0.08499221820137566,-0.1020982159630403]","[1,1,1]","[0.11221142821116822,0.038834638059339996]","[1,1,1]","[-0.05519739018544634,-0.1415953424519765]","[1,1,1]","[-0.08475416272874767,0.07034357150147239]","[-1,-1,-1]","[0.11232408764516719,-0.03384433759836803]","[1,1,1]","[-0.03358393603301963,0.12693384969943108]","[-1,-1,-1]","[0.1929335710823622,-0.012515404092479029]","[-1,-1,-1]","[0.15812078003802424,-0.09459404693614204]","[1,1,1]","[-0.11732520800553266,-0.13453119543700923]","[-1,-1,-1]","[-0.013403245250841534,-0.035363616774257235]","[-1,-1,-1]","[0.06739732928080765,-0.01561185701725398]","[1,1,1]","[-0.025977499245275256,-0.10071154337928126]","[1,1,1]","[0.0040374492561044495,0.17025767264887176]","[1,1,1]","[-0.06857466333970175,-0.025877042229285774]","[1,1,1]","[-0.005394158257109159,0.06753724458262379]","[-1,-1,-1]","[-0.09318433535609542,0.1706585428583765]","[-1,-1,-1]","[-0.04608523482556622,-0.18923660900958897]","[1,1,1]","[-0.172278228340661,-0.07684104151729987]","[1,1,1]","[-0.10181300567453737,-0.00259927968800194]","[1,1,1]","[0.1518093567748677,-0.009117341683130052]","[-1,-1,-1]","[-0.02194992148980342,0.018594710067140557]","[-1,-1,-1]","[-0.12274983617665727,-0.07275592002061372]","[-1,-1,-1]","[0.03083769598925064,-0.18386718243644617]","[1,1,1]","[0.04519619975149412,0.10927392502236981]","[-1,-1,-1]","[0.02,0.02]",96.9512,0,4,4,169,1,,,,,,,
,,,,,,,5d7e41aea60f7b00013cf1af,682f2ed2c2625ed20f0a41f9,2025-05-22_16h05.12.538,cuing_paradigm_dot,2024.1.5,Win32,10,682d573fa47f1360d1451895,,,,,,,,,,,96.9514,97.3822,,,97.6052,98.1658,right,,,,,,,,0.45,0.4572,,,,,,,97.3822,97.6051,98.1659,"[0.00869367522249124,0.07438224007248113]","[-1,-1,-1]","[0.1519142746951684,-0.07560799488228868]","[-1,-1,-1]","[0.02590104540715874,0.11988025248650057]","[1,1,1]","[0.1590435726936699,-0.011461772247701693]","[1,1,1]","[-0.030672163682044794,-0.024249752831996787]","[-1,-1,-1]","[0.009571129597400717,-0.14091613550615878]","[-1,-1,-1]","[-0.06833718940815343,0.07961838609837844]","[-1,-1,-1]","[0.08202838637311255,0.050576918486681596]","[-1,-1,-1]","[-0.11282564651563494,0.0023065538492683356]","[-1,-1,-1]","[0.10384781632969504,-0.07119499639319934]","[-1,-1,-1]","[-0.11148953957851668,-0.05397192165728121]","[-1,-1,-1]","[0.0956810542744241,-0.11666522240954792]","[-1,-1,-1]","[0.16124860549508976,0.08713890358932665]","[1,1,1]","[-0.14050299659671736,0.11019849016631009]","[1,1,1]","[0.012508444669220289,-0.19468932648566104]","[-1,-1,-1]","[-0.1423833878535858,0.07009757201488959]","[1,1,1]","[0.13137645915932933,0.021289821585320546]","[-1,-1,-1]","[0.02668642666367778,-0.09613788582466845]","[-1,-1,-1]","[0.09639902715758292,0.15676232497294984]","[1,1,1]","[0.09785141943327594,0.09876114967117539]","[1,1,1]","[0.05731415436802495,-0.1313248159365965]","[-1,-1,-1]","[-0.05518404436650926,-0.16080438991314103]","[1,1,1]","[-0.027214479662468257,0.10927194215004261]","[1,1,1]","[-0.12667321609848,-0.15182280918672686]","[-1,-1,-1]","[-0.16534504635643693,-0.08699398744439504]","[1,1,1]","[-0.09592572822020391,0.16683464549583849]","[1,1,1]","[-0.026099267334781292,0.19558136017054925]","[1,1,1]","[0.13868573216682517,-0.1215408710104748]","[-1,-1,-1]","[-0.02019258245103642,-0.07776072078958272]","[-1,-1,-1]","[-0.190659348253551,-0.01828047346301472]","[-1,-1,-1]","[0.0576125971977977,0.1676393839209423]","[1,1,1]","[0.17134997943694838,0.032373348584576266]","[1,1,1]","[0.02,0.02]",99.2518,0,5,5,84,1,,,,,,,
,,,,,,,5d7e41aea60f7b00013cf1af,682f2ed2c2625ed20f0a41f9,2025-05-22_16h05.12.538,cuing_paradigm_dot,2024.1.5,Win32,10,682d573fa47f1360d1451895,,,,,,,,,,,99.2521,99.6996,,,99.9386,100.506,right,,,,,,,,0.55,0.4563,,,,,,,99.6996,99.9385,100.5061,"[0.0054310677282640865,0.14867209259953573]","[1,1,1]","[0.07494706152296036,-0.0815018989930368]","[-1,-1,-1]","[-0.08767073506802145,-0.07905213624573225]","[-1,-1,-1]","[-0.04780741093597597,-0.01986321480167897]","[-1,-1,-1]","[0.09442270681897691,0.022906576860130232]","[1,1,1]","[-0.09614753404226879,0.15264716078607726]","[-1,-1,-1]","[-0.016158839407201316,0.021281129053348027]","[1,1,1]","[0.004664075523515586,-0.19792456907185588]","[-1,-1,-1]","[0.16839627991707423,0.07892744557841543]","[1,1,1]","[0.0828413442483458,-0.12225106197747312]","[1,1,1]","[0.05166320774867093,0.06822466383396639]","[1,1,1]","[-0.0475354808419942,-0.10368763064924619]","[1,1,1]","[-0.14946321884660854,0.08044462721279072]","[1,1,1]","[-0.14831891733296543,0.024685644926906784]","[-1,-1,-1]","[-0.038164342841285157,0.14177801854924207]","[1,1,1]","[0.10390784640601064,0.15106805912706192]","[-1,-1,-1]","[0.1194428029672728,-0.07293242457519217]","[1,1,1]","[-0.15356231019573235,-0.05688841626519998]","[-1,-1,-1]","[0.18252298458653485,-0.010018821114527466]","[1,1,1]","[0.04492135232436475,-0.17969723004621097]","[-1,-1,-1]","[-0.12035730671668902,-0.13914080017148495]","[1,1,1]","[0.13655562715601344,-0.1367667574089983]","[1,1,1]","[-0.02890406883853424,0.0773404867807879]","[-1,-1,-1]","[-0.05038101220210047,-0.14576341493814685]","[1,1,1]","[0.16482381536203747,0.03481668539588765]","[-1,-1,-1]","[0.024226306658146686,0.03837139944551048]","[-1,-1,-1]","[-0.034627842396700255,-0.18523476180289616]","[1,1,1]","[0.09325630076063092,0.11217221823499929]","[1,1,1]","[0.004984864963182603,-0.09319907557915094]","[-1,-1,-1]","[-0.09858641594619864,0.10211738335738937]","[1,1,1]","[-0.18922908238387512,0.04543410220597197]","[-1,-1,-1]","[0.13843831245604882,0.0022357507118650507]","[1,1,1]","[0.02,0.02]",101.5982,0,6,6,142,1,,,,,,,
,,,,,,,5d7e41aea60f7b00013cf1af,682f2ed2c2625ed20f0a41f9,2025-05-22_16h05.12.538,cuing_paradigm_dot,2024.1.5,Win32,10,682d573fa47f1360d1451895,,,,,,,,,,,101.5986,102.0403,,,102.2534,102.8368,right,,,,,,,,0.1,0.4704,,,,,,,102.0403,102.2534,102.8369,"[-0.03073241388725421,-0.05115978749858575]","[-1,-1,-1]","[0.11856274981918145,0.11804013410517701]","[-1,-1,-1]","[-0.0750545847005135,-0.012572237605276867]","[-1,-1,-1]","[-0.13904964056829616,0.07795724859700898]","[-1,-1,-1]","[-0.052100117436653944,0.05165203450578248]","[1,1,1]","[-0.11486627317254322,0.004315182576726859]","[-1,-1,-1]","[-0.15215452637319982,-0.018376270526009562]","[-1,-1,-1]","[-0.014454699323738746,0.15136708498171533]","[-1,-1,-1]","[-0.017668676234283993,-0.14886810548316246]","[-1,-1,-1]","[0.02499179439241867,-0.1595410628040248]","[-1,-1,-1]","[0.07296728893060378,0.14276802359512408]","[1,1,1]","[-0.1461388065288608,0.03715276706876942]","[-1,-1,-1]","[0.05323943304797019,0.05246637743778901]","[-1,-1,-1]","[0.0450345882188381,0.1753961244225774]","[-1,-1,-1]","[0.11315406026241541,-0.16110636855927105]","[-1,-1,-1]","[-0.11102597980468075,-0.1010292735296988]","[-1,-1,-1]","[-0.11889718614884051,0.11260663586654614]","[-1,-1,-1]","[0.018299508451942573,-0.006058637404209032]","[-1,-1,-1]","[-0.008513139231344401,-0.0927077077461434]","[1,1,1]","[0.09875590624098395,-0.07025065738596617]","[-1,-1,-1]","[0.0625738589985635,0.003241333766619698]","[-1,-1,-1]","[0.15779540125786,-0.0566069452387216]","[-1,-1,-1]","[-0.045345029531130954,0.12002477956255393]","[-1,-1,-1]","[0.05750563855833737,-0.041969272807928434]","[-1,-1,-1]","[-0.05852734692649851,0.18493619550993304]","[-1,-1,-1]","[-0.19725410016439154,0.018047235361002445]","[-1,-1,-1]","[-0.06977293824532692,-0.15541092592496866]","[-1,-1,-1]","[-0.016865865656044608,0.0301387629109645]","[-1,-1,-1]","[0.18698610198403381,0.017513705138613413]","[-1,-1,-1]","[0.06769558564770399,-0.11940985535652807]","[-1,-1,-1]","[0.03057364397390948,0.09027893705591995]","[-1,-1,-1]","[0.15652435435327702,0.05963000150176898]","[-1,-1,-1]","[0.02,0.02]",103.9523,0,7,7,18,1,,,,,,,
,,,,,,,5d7e41aea60f7b00013cf1af,682f2ed2c2625ed20f0a41f9,2025-05-22_16h05.12.538,cuing_paradigm_dot,2024.1.5,Win32,10,682d573fa47f1360d1451895,,,,,,,,,,,103.9526,104.394,,,104.6269,104.9697,left,,,,,,,,0.9,0.2288,,,,,,,104.3941,104.6268,104.9697,"[-0.1035636783945351,-0.1319401108664694]","[1,1,1]","[-0.014987698190891215,0.1746151408103197]","[1,1,1]","[0.13427496342796905,0.07775774812355714]","[1,1,1]","[0.12876557695578217,-0.1380469466224582]","[1,1,1]","[-0.1582561152339379,0.02689759235223845]","[-1,-1,-1]","[0.08758204305885127,-0.02771636086517156]","[1,1,1]","[-0.050716659275029614,0.08177668284220317]","[1,1,1]","[0.05625375810754848,0.053296738776132994]","[1,1,1]","[0.007860659479955671,-0.11728497498682328]","[-1,-1,-1]","[-0.10847795273317129,0.07821202961962564]","[1,1,1]","[-0.14690126390105343,-0.12893408071726575]","[1,1,1]","[0.06931025831502524,0.11702919902024125]","[1,1,1]","[-0.017810843707486642,0.10867515850955482]","[1,1,1]","[0.03510442190421477,-0.051065757127632415]","[1,1,1]","[-0.16726292070838822,-0.06493391993520324]","[1,1,1]","[-0.04503110938394626,-0.0433350474892511]","[1,1,1]","[-0.11045553135006801,0.15235528288892186]","[1,1,1]","[0.15279577960466545,-0.10500730798071185]","[1,1,1]","[-0.0664004419263141,0.14054180935830324]","[1,1,1]","[0.011635586640076205,0.025089287046684262]","[1,1,1]","[0.047893372938467786,0.1565402177773218]","[1,1,1]","[0.15365436612187003,-0.033622875887964226]","[1,1,1]","[-0.0664229500512159,-0.001470146428311683]","[1,1,1]","[-0.014531825124878144,-0.00953317816984736]","[1,1,1]","[-0.19647125733121867,0.0005369857620602648]","[1,1,1]","[0.09811164877633075,-0.09038988160930153]","[1,1,1]","[0.1383047398562035,0.009552390870367569]","[1,1,1]","[0.18827708118772124,-0.003573349830094123]","[-1,-1,-1]","[0.08810125419216663,0.028351480800674185]","[1,1,1]","[-0.11815356728370015,-0.02979173672672499]","[1,1,1]","[-0.05446927342535778,-0.18323941039145442]","[1,1,1]","[-0.019044936782046763,-0.07667895278054251]","[1,1,1]","[0.02,0.02]",106.0761,0,8,8,187,1,,,,,,,
,,,,,,,5d7e41aea60f7b00013cf1af,682f2ed2c2625ed20f0a41f9,2025-05-22_16h05.12.538,cuing_paradigm_dot,2024.1.5,Win32,10,682d573fa47f1360d1451895,,,,,,,,,,,106.0764,106.5153,,,106.7316,107.4249,right,,,,,,,,0.4,0.596,,,,,,,106.5153,106.7316,107.4249,"[0.05809508416246031,0.17627863911851555]","[-1,-1,-1]","[-0.029672859689605976,-0.014471780821361538]","[1,1,1]","[0.12672518250839826,0.03318132897249038]","[-1,-1,-1]","[-0.0960986948894517,0.10405140765624755]","[1,1,1]","[0.048687865151052945,-0.039509356565203414]","[-1,-1,-1]","[-0.164258436650245,0.0815016492143052]","[-1,-1,-1]","[0.010566687393970823,0.044816239119421536]","[-1,-1,-1]","[-0.017439871243111364,-0.15924532129866772]","[1,1,1]","[0.01364228410091629,-0.00754757749340737]","[-1,-1,-1]","[0.09389577169779786,-0.10653283092243923]","[-1,-1,-1]","[-0.10895866279163356,-0.062832308458486]","[1,1,1]","[-0.058629636740700486,0.04824478736870263]","[-1,-1,-1]","[0.08961447126189152,0.11497031130562375]","[-1,-1,-1]","[0.152529490589632,-0.03078702192807463]","[-1,-1,-1]","[0.1356769487382311,0.1270308688581871]","[1,1,1]","[0.0801976896365821,-0.014205282141416099]","[1,1,1]","[-0.11760254516587615,0.028468692396648076]","[1,1,1]","[-0.0034905242096617667,-0.05542688043190543]","[-1,-1,-1]","[0.15782236206415182,-0.08039917721802124]","[1,1,1]","[0.028989934835796025,-0.08922623514584814]","[-1,-1,-1]","[-0.05729626607681477,0.16006570835203018]","[-1,-1,-1]","[-0.059277182967644934,-0.1872189003894631]","[-1,-1,-1]","[0.042269684035213674,0.1125017050284231]","[-1,-1,-1]","[-0.1708703672964292,-0.09425931614315154]","[-1,-1,-1]","[-0.007578640253732201,0.1219856564369024]","[1,1,1]","[-0.05766812126885266,-0.1378912287499767]","[1,1,1]","[-0.16889804152468177,-0.045848958645050106]","[-1,-1,-1]","[-0.12371836602900581,0.15274188437807537]","[-1,-1,-1]","[-0.171971289686312,0.033485749541957974]","[1,1,1]","[-0.0436222559988381,0.08677217259178012]","[1,1,1]","[0.06135229514326479,-0.174632165308993]","[-1,-1,-1]","[-0.0009692596312760659,-0.19741322613210535]","[1,1,1]","[0.02,0.02]",108.5004,0,9,9,54,1,,,,,,,
,,,,,,,5d7e41aea60f7b00013cf1af,682f2ed2c2625ed20f0a41f9,2025-05-22_16h05.12.538,cuing_paradigm_dot,2024.1.5,Win32,10,682d573fa47f1360d1451895,,,,,,,,,,,108.5007,108.938,,,109.1613,109.609,right,,,,,,,,0.45,0.3447,,,,,,,108.9381,109.1613,109.609,"[0.0121853614886659,-0.16767148272700108]","[-1,-1,-1]","[-0.038112851521259705,0.014456489773659507]","[-1,-1,-1]","[-0.0015245569067693276,-0.06226483744743162]","[-1,-1,-1]","[0.15555875195268637,0.11823086453038952]","[1,1,1]","[-0.05935795014477561,0.12090571704038978]","[1,1,1]","[0.09785115261840639,-0.13046245211547175]","[1,1,1]","[-0.14666364647589264,-0.025907985280493113]","[1,1,1]","[-0.16665138293518497,-0.1058176577020812]","[-1,-1,-1]","[-0.10716697678621671,-0.05849797916707176]","[-1,-1,-1]","[-0.01667238929304301,0.05886492695428504]","[1,1,1]","[-0.1908995218349303,-0.018608653504040472]","[-1,-1,-1]","[-0.10730026998005475,-0.12698226415648609]","[-1,-1,-1]","[-0.08450069935533511,0.02318306638628384]","[1,1,1]","[0.17006457672834602,-0.09289055171761541]","[1,1,1]","[-0.10686519876314564,0.15133921577585338]","[-1,-1,-1]","[0.03214308763725182,0.15175468556294677]","[1,1,1]","[0.1427702110545345,-0.020812052915672802]","[-1,-1,-1]","[0.010749064636644379,0.006301478645274915]","[1,1,1]","[-0.04483026812187074,0.16924429466344856]","[-1,-1,-1]","[-0.19303648433724088,0.03273832461868536]","[-1,-1,-1]","[-0.1459313754974119,0.0821995853563335]","[-1,-1,-1]","[0.09164100802998194,-0.03533362188730298]","[1,1,1]","[0.06041009614265968,0.08813743355337965]","[-1,-1,-1]","[-0.047382247500859884,-0.16064974067124532]","[1,1,1]","[-0.0451027443852025,-0.10104676060808063]","[1,1,1]","[-0.1744049115929693,-0.06562669505547226]","[1,1,1]","[0.15672021819964851,0.04613885197702454]","[-1,-1,-1]","[0.03440505644081131,-0.0854598222072877]","[-1,-1,-1]","[0.07952017294195819,-0.07883891413823119]","[-1,-1,-1]","[-0.00009041809016521666,-0.11754592391035049]","[-1,-1,-1]","[0.10945409240189101,0.11452478590641464]","[1,1,1]","[-0.00110530241123421,0.09798883943773783]","[-1,-1,-1]","[0.02,0.02]",110.6808,0,10,10,88,1,,,,,,,
,,,,,,,5d7e41aea60f7b00013cf1af,682f2ed2c2625ed20f0a41f9,2025-05-22_16h05.12.538,cuing_paradigm_dot,2024.1.5,Win32,10,682d573fa47f1360d1451895,,,,,,,,,,,110.681,111.2153,,,111.4369,112,right,,,,,,,,0.5,0.4597,,,,,,,111.2154,111.4368,112,"[0.06402016164442738,-0.05845967696026791]","[1,1,1]","[-0.13569033503425382,0.029476200183499997]","[-1,-1,-1]","[-0.18801258216509756,0.009746008405482377]","[1,1,1]","[-0.03194260952739021,0.15685369922635534]","[-1,-1,-1]","[-0.07471344792655817,0.11912996862856173]","[-1,-1,-1]","[0.028831361446712993,0.14042205502831995]","[1,1,1]","[-0.027293958867726394,-0.07549877060808376]","[1,1,1]","[-0.11888825832802839,-0.03812926587038602]","[1,1,1]","[-0.11248153628148022,-0.11512194196725205]","[-1,-1,-1]","[0.10459091285218627,-0.01504371647203507]","[1,1,1]","[-0.004956655843624772,-0.02588414600178175]","[-1,-1,-1]","[0.023929019816011626,0.19410167628031735]","[-1,-1,-1]","[-0.1508495661707068,0.1167609160129741]","[1,1,1]","[0.047249205970276174,0.057498144340638074]","[1,1,1]","[-0.15543783470500347,-0.08985051777038203]","[-1,-1,-1]","[0.051781916382467943,-0.1428753556566455]","[-1,-1,-1]","[0.034656898022618995,-0.09718499704104445]","[-1,-1,-1]","[-0.08544367759106908,-0.1785350301813664]","[1,1,1]","[0.09956644652633342,0.06845369365086557]","[1,1,1]","[0.1320856928086043,-0.1345528264101872]","[1,1,1]","[0.12345011643992453,-0.07325396140828215]","[-1,-1,-1]","[-0.11378582753619922,0.07660063586975921]","[1,1,1]","[-0.09239173111087598,0.006887938500129887]","[-1,-1,-1]","[0.003369633321456658,0.05125809764229797]","[1,1,1]","[-0.07183477462570104,-0.11840274971071907]","[-1,-1,-1]","[-0.0551911102647435,-0.033460745125966855]","[-1,-1,-1]","[0.17142440562058434,0.04321304664191004]","[-1,-1,-1]","[-0.09022449934549252,0.16109155245577209]","[-1,-1,-1]","[-0.033796288783470706,-0.18309029957298478]","[-1,-1,-1]","[0.1049124041847728,0.1679497422744687]","[1,1,1]","[-0.022609717364591497,0.10125555337913121]","[1,1,1]","[-0.062105851210644325,0.07672055326572975]","[1,1,1]","[0.02,0.02]",113.0729,0,11,11,99,1,,,,,,,
,,,,,,,5d7e41aea60f7b00013cf1af,682f2ed2c2625ed20f0a41f9,2025-05-22_16h05.12.538,cuing_paradigm_dot,2024.1.5,Win32,10,682d573fa47f1360d1451895,,,,,,,,,,,113.0731,113.4997,,,113.7232,114.2775,left,,,,,,,,0.55,0.4502,,,,,,,113.4997,113.7232,114.2777,"[0.05203843869969457,-0.030566020332306664]","[-1,-1,-1]","[0.05228925960772261,0.13976842701774048]","[1,1,1]","[0.0023079433732316646,-0.19977696837089554]","[1,1,1]","[-0.004311484720549551,0.023250173194129524]","[-1,-1,-1]","[-0.04679867864913859,0.09233728477436838]","[-1,-1,-1]","[0.14646444286481772,-0.12090759715353548]","[1,1,1]","[0.17649259563877792,-0.07277394969304883]","[1,1,1]","[0.09540075474307848,0.04345525262945406]","[-1,-1,-1]","[0.06312068626802339,0.09512888443139164]","[1,1,1]","[-0.12645120660808543,-0.14416448928289644]","[-1,-1,-1]","[-0.11361938229852746,-0.07778296167482773]","[1,1,1]","[0.13567215125910714,0.07201925245381065]","[1,1,1]","[0.19847225495362703,-0.008085675020461282]","[-1,-1,-1]","[0.005860011697570552,-0.09422585652778603]","[1,1,1]","[0.13858417779927387,0.13866083036360977]","[1,1,1]","[0.10976848318362853,-0.058896804324333016]","[-1,-1,-1]","[-0.012177640329071034,-0.026283400455948326]","[1,1,1]","[-0.10886660033428805,-0.03295344020563528]","[1,1,1]","[0.09625646451389851,-0.11014660985625124]","[1,1,1]","[-0.08627958303627752,0.1096357100117471]","[1,1,1]","[-0.10277045010542228,0.16667965313295557]","[1,1,1]","[0.09810852138248695,0.15787362247222472]","[1,1,1]","[0.07545167077235373,-0.15210306647771427]","[-1,-1,-1]","[-0.17752092324374638,-0.013290815256404949]","[-1,-1,-1]","[-0.09347582694425213,0.007184740454363491]","[1,1,1]","[-0.10773878284155307,0.0717071405699278]","[-1,-1,-1]","[-0.16284603026862113,0.0837568253970749]","[-1,-1,-1]","[0.13385498509152044,0.0048984253334711115]","[1,1,1]","[-0.036378058202915856,0.15872710884275712]","[-1,-1,-1]","[0.031425547189757624,-0.1303170117307325]","[1,1,1]","[-0.07082605084526036,-0.08918999743357794]","[-1,-1,-1]","[-0.13710121169734898,0.02634059399088456]","[-1,-1,-1]","[0.02,0.02]",115.3513,0,12,12,128,1,,,,,,,
,,,,,,,5d7e41aea60f7b00013cf1af,682f2ed2c2625ed20f0a41f9,2025-05-22_16h05.12.538,cuing_paradigm_dot,2024.1.5,Win32,10,682d573fa47f1360d1451895,,,,,,,,,,,115.3516,115.7946,,,116.0034,116.5825,left,,,,,,,,0.9,0.4697,,,,,,,115.7946,116.0034,116.5826,"[-0.1677441718836276,0.0005757305399477552]","[1,1,1]","[0.030154609247224115,0.11099653140195542]","[1,1,1]","[0.19202820457056333,0.044917467926398946]","[1,1,1]","[-0.07370939415116722,-0.08234824892140101]","[1,1,1]","[-0.09254396952615855,0.11907335741355156]","[-1,-1,-1]","[-0.06971204710080932,-0.1664805296973203]","[1,1,1]","[0.10632402172217921,-0.1561960313296879]","[1,1,1]","[0.10056118915758527,-0.005089128425080598]","[-1,-1,-1]","[-0.015081029421312352,-0.05471777257103285]","[1,1,1]","[0.0826809207085184,0.12971141308989964]","[1,1,1]","[0.008142112869668825,-0.0025306822037736766]","[1,1,1]","[-0.10200831839126857,0.05112394673628634]","[1,1,1]","[-0.01424684912532569,-0.19026513293280967]","[1,1,1]","[0.16543582272853904,-0.0640790896816743]","[1,1,1]","[-0.007012066958833523,-0.14537278823202757]","[1,1,1]","[0.047358030045632014,0.020221621251714048]","[1,1,1]","[-0.17703071478299226,0.04301926457126151]","[1,1,1]","[-0.08389595832500339,-0.020054329112076812]","[1,1,1]","[0.03240617410637295,0.18603032103314907]","[1,1,1]","[-0.032590682011103544,0.14722269608039637]","[1,1,1]","[0.03898263812047829,-0.139448683398286]","[1,1,1]","[0.06341902343360799,-0.058974398931568105]","[1,1,1]","[0.09809761416049655,0.07080823794955855]","[-1,-1,-1]","[0.06794028461578902,-0.18684612759624047]","[1,1,1]","[-0.16287986732742182,-0.045736321840524084]","[1,1,1]","[0.13164194327858744,0.09290991393293269]","[1,1,1]","[-0.12910338710720518,-0.017485687660781155]","[1,1,1]","[-0.018900129723132316,0.0471369984567563]","[1,1,1]","[0.16291831640488974,0.005673362893679854]","[1,1,1]","[-0.14039405425502627,-0.12564555873088168]","[1,1,1]","[-0.11687111682622205,-0.07066686258634275]","[1,1,1]","[0.08495905076415594,-0.10219761242177566]","[1,1,1]","[0.02,0.02]",117.6988,0,13,13,195,1,,,,,,,
,,,,,,,5d7e41aea60f7b00013cf1af,682f2ed2c2625ed20f0a41f9,2025-05-22_16h05.12.538,cuing_paradigm_dot,2024.1.5,Win32,10,682d573fa47f1360d1451895,,,,,,,,,,,117.6991,118.1565,,,118.3796,118.8403,left,,,,,,,,0.9,0.3537,,,,,,,118.1565,118.3796,118.8403,"[0.05463059256999746,-0.03651225057721025]","[1,1,1]","[0.07664254334376033,-0.14553308576697604]","[1,1,1]","[-0.060565451890412125,0.035473257652934714]","[-1,-1,-1]","[-0.18275053619380133,0.00001139540198104578]","[1,1,1]","[0.03488826607840744,0.1548946634333573]","[1,1,1]","[0.1799865379976117,0.0853312590989865]","[1,1,1]","[0.04781439482000406,-0.19181259934281486]","[1,1,1]","[-0.0036227308648696644,-0.1095411979409298]","[1,1,1]","[-0.15569889331128844,-0.057113823557358605]","[1,1,1]","[0.06928262240776671,-0.0852675060526193]","[1,1,1]","[-0.13710396015432164,0.0449960361065026]","[-1,-1,-1]","[-0.034440290243357735,-0.17163354238697276]","[1,1,1]","[-0.09446404804456097,0.1321492976425307]","[1,1,1]","[0.15870349201712441,-0.04663738622686052]","[1,1,1]","[0.005001203966337828,-0.18324449335496296]","[1,1,1]","[-0.061041779834414285,0.08491338004682494]","[1,1,1]","[0.0908357735673757,0.030485111193501745]","[1,1,1]","[0.1384021951959375,0.11157146811873543]","[1,1,1]","[-0.041967975255037517,-0.039190104807718965]","[1,1,1]","[0.05049122058405576,0.10068841507310547]","[1,1,1]","[0.0013047403118969742,-0.031890670163118584]","[1,1,1]","[0.11132133088950977,0.06845296772852065]","[1,1,1]","[0.03559652521024587,-0.1184871826707664]","[1,1,1]","[0.16752690428164826,-0.08937490498364942]","[1,1,1]","[0.033827053682659834,0.008565219453558835]","[-1,-1,-1]","[-0.10900928022448347,-0.12163656432731929]","[1,1,1]","[0.12374490671489194,-0.12515746787225254]","[1,1,1]","[-0.0227602574709042,0.19851410894000604]","[1,1,1]","[-0.12898591766395212,0.09695586130225671]","[1,1,1]","[-0.088298701712834,-0.02273615968476129]","[1,1,1]","[-0.13853515549205445,-0.020587579346328832]","[1,1,1]","[0.149994972118148,0.044739094792388315]","[1,1,1]","[0.02,0.02]",119.9148,0,14,14,207,1,,,,,,,
,,,,,,,5d7e41aea60f7b00013cf1af,682f2ed2c2625ed20f0a41f9,2025-05-22_16h05.12.538,cuing_paradigm_dot,2024.1.5,Win32,10,682d573fa47f1360d1451895,,,,,,,,,,,119.9151,120.3497,,,120.5673,121.025,right,,,,,,,,0.5,0.3488,,,,,,,120.3497,120.5673,121.0251,"[-0.14951203413185998,0.09873810650905442]","[1,1,1]","[0.13371990436306921,-0.14335470390534613]","[-1,-1,-1]","[-0.1477152525050228,-0.023614020021940605]","[-1,-1,-1]","[-0.08091874337615204,-0.003958950673936173]","[-1,-1,-1]","[0.039384686591811054,0.03266309617072796]","[1,1,1]","[-0.16582822691591223,-0.10013462842282031]","[1,1,1]","[-0.07830727547623337,-0.1674136330033769]","[-1,-1,-1]","[-0.011299983892876078,-0.14329748633068523]","[1,1,1]","[-0.1276925559790557,0.1403067142099482]","[-1,-1,-1]","[-0.17695535394367476,0.02379819474443618]","[1,1,1]","[0.1060634790736059,0.02094560353097049]","[1,1,1]","[-0.06530652526721983,0.10765950364550475]","[-1,-1,-1]","[0.07749247885245963,-0.05446527926490767]","[1,1,1]","[0.11657977358405842,0.12178031070564085]","[1,1,1]","[0.17742584968661987,-0.042091939165040296]","[-1,-1,-1]","[-0.07093608690390411,-0.046814290347727286]","[1,1,1]","[0.15682972564112677,-0.08669040169503915]","[1,1,1]","[0.08351944920659161,-0.14321896657161504]","[1,1,1]","[-0.03252577245578522,-0.18675773394196407]","[-1,-1,-1]","[0.09464680833840397,-0.09736936583191239]","[1,1,1]","[0.008988949138362299,0.06590659142248444]","[-1,-1,-1]","[-0.05404348632518683,0.17375180681189148]","[1,1,1]","[-0.099236961115359,0.07507698734696677]","[-1,-1,-1]","[0.04238910172593854,-0.11190308799799736]","[1,1,1]","[0.1849254578003216,0.060596042667799464]","[-1,-1,-1]","[0.15128761530092943,-0.00942848788938114]","[-1,-1,-1]","[-0.009866012166232112,-0.07029087396776135]","[1,1,1]","[0.06745975092098254,0.0839375524684627]","[-1,-1,-1]","[0.02498041162707586,0.1531137777293422]","[1,1,1]","[-0.05351738814028109,0.04004286074127215]","[-1,-1,-1]","[0.049850963356909125,-0.16972907510195331]","[-1,-1,-1]","[-0.013695319376529631,0.12308003189344191]","[-1,-1,-1]","[0.02,0.02]",122.1129,0,15,15,118,1,,,,,,,
,,,,,,,5d7e41aea60f7b00013cf1af,682f2ed2c2625ed20f0a41f9,2025-05-22_16h05.12.538,cuing_paradigm_dot,2024.1.5,Win32,10,682d573fa47f1360d1451895,,,,,,,,,,,122.1132,122.5419,,,122.7783,123.3507,left,,,,,,,,0.6,0.4601,,,,,,,122.5419,122.7783,123.3507,"[0.041576743028618905,-0.1020217721420432]","[1,1,1]","[0.0930381383372082,-0.11147680768200635]","[1,1,1]","[-0.16432904661355383,-0.0844184420282101]","[-1,-1,-1]","[-0.11114043170960347,-0.11116352273240636]","[1,1,1]","[-0.03643506777759086,0.13629714883256536]","[1,1,1]","[0.1940601649475165,-0.03027147993354267]","[1,1,1]","[-0.10169203558088608,-0.06043650994962847]","[1,1,1]","[-0.13961350806632844,0.13951544328835166]","[1,1,1]","[0.017832297880747642,0.09990932006648406]","[1,1,1]","[0.1546120990509198,-0.1258121883380747]","[-1,-1,-1]","[-0.11477045691637851,-0.15347238595592874]","[1,1,1]","[-0.16836301964832984,0.08529280624736411]","[-1,-1,-1]","[-0.07996621300783192,0.11162978774420844]","[-1,-1,-1]","[-0.049996408934582515,0.044670372011545584]","[1,1,1]","[0.06501277147598632,-0.04284252156165918]","[1,1,1]","[0.03002746986494444,0.0052268019501267625]","[1,1,1]","[-0.07142382492433305,-0.1718657542562942]","[-1,-1,-1]","[0.02032430565399753,0.1653642445597116]","[-1,-1,-1]","[-0.05562571707782636,0.004778895172048933]","[-1,-1,-1]","[0.0753361104057107,0.026142510028251235]","[-1,-1,-1]","[-0.1720613102433793,0.010065772209717454]","[1,1,1]","[0.13881631647544343,-0.07315290091322876]","[1,1,1]","[-0.11691944238932217,-0.012977710915459505]","[-1,-1,-1]","[-0.03744905719953147,0.19136082824354472]","[-1,-1,-1]","[-0.024690746974737422,-0.06965944534780993]","[-1,-1,-1]","[-0.040977527332882666,-0.12383815231547185]","[-1,-1,-1]","[0.07203374332008547,0.1041439892277687]","[1,1,1]","[0.024266730485090107,-0.17928569314164466]","[1,1,1]","[0.1571874198085067,0.0012118722682874462]","[-1,-1,-1]","[-0.09377420335602661,0.06353503289133328]","[1,1,1]","[-0.17046926926145783,-0.04359129018600405]","[1,1,1]","[0.0773685583600234,-0.15012649625169294]","[1,1,1]","[0.02,0.02]",124.4673,0,16,16,152,1,,,,,,,
,,,,,,,5d7e41aea60f7b00013cf1af,682f2ed2c2625ed20f0a41f9,2025-05-22_16h05.12.538,cuing_paradigm_dot,2024.1.5,Win32,10,682d573fa47f1360d1451895,,,,,,,,,,,124.4676,124.9166,,,125.1344,125.7046,left,,,,,,,,0.45,0.4732,,,,,,,124.9166,125.1344,125.7047,"[0.19092678703106955,0.04587411746729203]","[-1,-1,-1]","[-0.021376210626783753,-0.16057689352506566]","[1,1,1]","[0.13277413628341847,0.12448357816108974]","[1,1,1]","[0.0028819960368599022,-0.19545865343349195]","[-1,-1,-1]","[0.058550412239939724,-0.05361674025392031]","[-1,-1,-1]","[-0.16788615858991002,0.09558073694497586]","[-1,-1,-1]","[-0.08023619936658907,-0.13624391989794024]","[1,1,1]","[-0.10405596939542315,0.1315548831903055]","[1,1,1]","[0.1400991173709605,-0.11338083980164977]","[-1,-1,-1]","[-0.04155625642683627,0.01589822543039605]","[1,1,1]","[-0.1378496264603234,-0.08150684165586208]","[1,1,1]","[0.17951934484215024,-0.04291657435001324]","[-1,-1,-1]","[-0.14218520209178245,-0.0020838995173528005]","[1,1,1]","[0.0978242815804836,0.15080407027801587]","[-1,-1,-1]","[0.09837633518706873,0.001959156961022947]","[1,1,1]","[0.05700379476221711,0.18455505171282313]","[-1,-1,-1]","[-0.08702984801864581,-0.03470165284655358]","[1,1,1]","[-0.008006200617004794,0.14830729145602453]","[-1,-1,-1]","[-0.04300093453823377,-0.0514298481527479]","[1,1,1]","[0.04725811816050936,0.08935276850752227]","[-1,-1,-1]","[0.00906470649032859,0.05654808473702926]","[1,1,1]","[0.045063308139368236,0.011046504047068058]","[1,1,1]","[0.09508942841920656,-0.09420495882218219]","[-1,-1,-1]","[0.10178416464308955,-0.1664363447456022]","[-1,-1,-1]","[-0.077233982049226,-0.09116324000675764]","[1,1,1]","[0.011294387257712656,-0.020373797295053706]","[-1,-1,-1]","[0.03189384622704115,-0.13132106049307624]","[-1,-1,-1]","[0.08284808746093984,0.044674456334237646]","[-1,-1,-1]","[-0.1772284910271817,0.0196147289125878]","[-1,-1,-1]","[0.03521913911136641,0.1422166979187941]","[-1,-1,-1]","[-0.012061877449198531,-0.10312727144442399]","[-1,-1,-1]","[0.1031197519513048,0.08737447032805569]","[1,1,1]","[0.02,0.02]",126.7841,0,17,17,83,1,,,,,,,
,,,,,,,5d7e41aea60f7b00013cf1af,682f2ed2c2625ed20f0a41f9,2025-05-22_16h05.12.538,cuing_paradigm_dot,2024.1.5,Win32,10,682d573fa47f1360d1451895,,,,,,,,,,,126.7843,127.2185,,,127.4568,128.0463,left,,,,,,,,0.9,0.4852,,,,,,,127.2185,127.4567,128.0463,"[0.08060995888443707,0.11194642588333312]","[1,1,1]","[-0.15431460883233467,0.056715300017761774]","[1,1,1]","[-0.12423797899392605,0.12595987187503374]","[1,1,1]","[0.11401905093124559,-0.004532360962705378]","[1,1,1]","[0.09500279104860974,-0.043440350570928966]","[1,1,1]","[-0.037863523752537855,-0.10427281131454276]","[1,1,1]","[-0.12677475864399806,-0.08966549316060542]","[1,1,1]","[0.14861089869690514,0.09600974420950552]","[1,1,1]","[-0.022413766537322584,0.10735326065665415]","[1,1,1]","[-0.06749407509047685,-0.04635715739132492]","[-1,-1,-1]","[-0.1653214439837939,-0.025924760253220467]","[1,1,1]","[0.018135015279190387,0.16652169760566943]","[1,1,1]","[0.1554572334507057,-0.12168256168499937]","[1,1,1]","[-0.12036059544118206,-0.04861815693134376]","[-1,-1,-1]","[-0.04272485548325299,0.036171789916003796]","[1,1,1]","[-0.12262900504073684,-0.0030450687217381586]","[1,1,1]","[-0.05031438374116302,0.17569053340525864]","[1,1,1]","[0.05277397537272357,0.028384583846255293]","[1,1,1]","[0.10171568286062231,-0.16548899379678128]","[1,1,1]","[-0.06396180959363441,-0.14281023355443412]","[1,1,1]","[0.12298911626261433,0.04282277096543281]","[1,1,1]","[-0.18211904995561803,0.018750333569181307]","[1,1,1]","[0.15315277901215796,0.016088396998699055]","[1,1,1]","[0.07202319641539254,-0.08297862290239783]","[1,1,1]","[0.046105906531003334,-0.15430216597236268]","[1,1,1]","[0.012423593353652488,-0.18624483341995463]","[1,1,1]","[-0.01490779741279379,-0.0036770541473334353]","[1,1,1]","[0.11483037691853609,-0.08982270716132773]","[1,1,1]","[0.18277804383184282,-0.014968164808297843]","[1,1,1]","[0.1785951401164713,0.06029536445553054]","[1,1,1]","[0.029934044857610902,0.1251356969038188]","[-1,-1,-1]","[0.05367804117503685,0.07861610183418839]","[1,1,1]","[0.02,0.02]",129.1358,0,18,18,199,1,,,,,,,
,,,,,,,5d7e41aea60f7b00013cf1af,682f2ed2c2625ed20f0a41f9,2025-05-22_16h05.12.538,cuing_paradigm_dot,2024.1.5,Win32,10,682d573fa47f1360d1451895,,,,,,,,,,,129.1361,129.5848,,,129.818,130.1772,right,,,,,,,,0.45,0.2624,,,,,,,129.5848,129.818,130.1772,"[0.08638357811368375,0.15337529887586124]","[-1,-1,-1]","[-0.07946571767705618,-0.052585566411905926]","[-1,-1,-1]","[-0.1885304296168493,-0.04804163553186325]","[-1,-1,-1]","[-0.0690123370552484,-0.18646331887636347]","[1,1,1]","[0.15012494300174467,-0.11508205988706487]","[-1,-1,-1]","[-0.1751886532330296,-0.008604312885421515]","[1,1,1]","[0.15217667034750154,0.10060373347981198]","[1,1,1]","[0.07294495175169463,-0.04251454981732606]","[1,1,1]","[0.037682155800052006,-0.14507063987123006]","[-1,-1,-1]","[-0.02818497144745009,-0.03622659115046298]","[-1,-1,-1]","[0.04749838620140494,0.048772975990272395]","[-1,-1,-1]","[0.005558152585680711,-0.06529524738398781]","[1,1,1]","[-0.037298356858296536,0.1495676532598512]","[1,1,1]","[0.18960770394180257,0.023872009429644108]","[-1,-1,-1]","[0.1557817882716714,-0.05331325460299794]","[1,1,1]","[0.027754456495254622,0.10025392104579593]","[1,1,1]","[-0.02773382428315289,0.004154370391688329]","[1,1,1]","[-0.09665263501046265,0.07649068382446524]","[-1,-1,-1]","[0.0988019370327058,0.03019249861347512]","[1,1,1]","[-0.08147621728979158,0.15404406305146892]","[1,1,1]","[-0.16275625062951987,-0.11092994212225057]","[-1,-1,-1]","[0.10024569095622492,-0.10161859087538691]","[1,1,1]","[-0.1934717872917141,0.03473978103001221]","[-1,-1,-1]","[-0.057327831882075235,0.08700789786322868]","[-1,-1,-1]","[0.13692084818815592,0.05989131008397314]","[-1,-1,-1]","[0.08221574775021147,0.09876012448313354]","[1,1,1]","[0.009508856017970375,-0.18744609781200944]","[-1,-1,-1]","[-0.09565591267173058,-0.128767831708633]","[-1,-1,-1]","[-0.0078770690952723,-0.13396073088739643]","[1,1,1]","[0.11564434245980984,-0.14251237071377476]","[-1,-1,-1]","[0.015572696932832385,0.011049758634030234]","[-1,-1,-1]","[-0.16552740354304124,0.08244619641231891]","[-1,-1,-1]","[0.02,0.02]",131.301,0,19,19,73,1,,,,,,,
,,,,,,,5d7e41aea60f7b00013cf1af,682f2ed2c2625ed20f0a41f9,2025-05-22_16h05.12.538,cuing_paradigm_dot,2024.1.5,Win32,10,682d573fa47f1360d1451895,,,,,,,,,,,131.3012,131.725,,,131.956,132.532,left,,,,,,,,0.55,0.4736,,,,,,,131.725,131.956,132.532,"[-0.15325755479503023,-0.031991500325049514]","[1,1,1]","[0.156709403533901,-0.0728559784831162]","[1,1,1]","[-0.08484049929957065,0.11274180338969027]","[1,1,1]","[0.06448735051531579,0.14975487459533607]","[-1,-1,-1]","[-0.1193220294648377,-0.15349194628193968]","[-1,-1,-1]","[-0.00037799611689930465,0.11374540927505988]","[-1,-1,-1]","[0.019833714679823127,-0.09498563170727894]","[1,1,1]","[0.030436059752614684,0.18496425828112756]","[-1,-1,-1]","[-0.01961704241487991,0.017692837427201166]","[-1,-1,-1]","[0.033166868111664444,0.04860174024933125]","[1,1,1]","[-0.19677915899311677,0.01637179370248816]","[-1,-1,-1]","[-0.0015611024293119482,-0.04131139161192681]","[1,1,1]","[0.06029413705914142,-0.12889575725980326]","[1,1,1]","[0.0617680947828622,0.10645766003801752]","[-1,-1,-1]","[-0.10129417823178324,-0.08936241698974742]","[1,1,1]","[-0.14424093086772785,-0.08500736925444936]","[-1,-1,-1]","[0.13839750584998728,0.0099080796909701]","[1,1,1]","[0.1542046084673374,-0.12673461071297817]","[1,1,1]","[0.08022195733305296,0.06735091937594402]","[1,1,1]","[-0.00852785796233994,0.15964848964930659]","[1,1,1]","[-0.04885608446281961,-0.11208142653356962]","[1,1,1]","[0.05628209654939367,-0.1814982539235169]","[-1,-1,-1]","[0.16671430683716804,0.10257768345648248]","[-1,-1,-1]","[-0.07653521686599325,-0.16932080921732046]","[1,1,1]","[-0.12560638408770863,0.05043267356981088]","[-1,-1,-1]","[0.10683229628516341,0.15687980863516438]","[1,1,1]","[0.063953765155308,-0.08897380077407537]","[1,1,1]","[-0.09216392351229354,-0.031045715850068777]","[1,1,1]","[-0.10922723351591078,0.15996583356346064]","[-1,-1,-1]","[-0.041509901711619265,0.12108257366577907]","[-1,-1,-1]","[0.09676384825691407,0.01692582885841577]","[-1,-1,-1]","[0.01375911160975304,-0.1951306709127576]","[1,1,1]","[0.02,0.02]",133.6118,0,20,20,147,1,,,,,,,
,,,,,,,5d7e41aea60f7b00013cf1af,682f2ed2c2625ed20f0a41f9,2025-05-22_16h05.12.538,cuing_paradigm_dot,2024.1.5,Win32,10,682d573fa47f1360d1451895,,,,,,,,,,,133.6122,134.0512,,,134.277,134.7396,right,,,,,,,,0.5,0.3531,,,,,,,134.0512,134.277,134.7397,"[-0.019244426484365758,-0.06918341714093677]","[-1,-1,-1]","[0.03815404166414286,0.12290829732072944]","[-1,-1,-1]","[-0.15332311295808884,0.11369103569019327]","[-1,-1,-1]","[-0.11352978608161457,-0.1604513387667301]","[-1,-1,-1]","[0.06123543262835939,-0.05106128585984016]","[1,1,1]","[0.017418544278354396,-0.007939940386314424]","[1,1,1]","[-0.0502305160028125,-0.11625110350748973]","[1,1,1]","[0.13197439761456192,-0.07410330524516082]","[1,1,1]","[-0.1627986571669037,-0.035364441763172536]","[-1,-1,-1]","[0.10836401356776458,0.09419168280424518]","[-1,-1,-1]","[0.01106184966319975,-0.09976127670112311]","[-1,-1,-1]","[-0.06501354597794391,0.02648308454427394]","[1,1,1]","[-0.03163263814983308,0.06846301090764607]","[-1,-1,-1]","[0.07971849675617662,-0.13907365574351505]","[1,1,1]","[-0.002619727850996611,0.027701102902865236]","[-1,-1,-1]","[-0.08655153471356282,-0.01999565439156713]","[-1,-1,-1]","[-0.174842641078459,0.06602965054750404]","[-1,-1,-1]","[0.01269636829679306,-0.1545287419533493]","[1,1,1]","[-0.05871985770646773,0.14638932924061668]","[1,1,1]","[-0.1346914731902452,0.04907207556883969]","[1,1,1]","[0.10838575519218696,0.017554552685896035]","[1,1,1]","[-0.007677992281860297,0.14232993482316053]","[1,1,1]","[0.18689443721547358,0.0121943148266662]","[1,1,1]","[-0.14134946458761577,-0.08174629035356559]","[-1,-1,-1]","[0.16626220901825767,0.0925715565310134]","[1,1,1]","[0.09240868063346402,-0.08161989237786203]","[-1,-1,-1]","[0.11959752185239049,0.1460471819298646]","[1,1,1]","[-0.11111576993143939,0.11787244036588035]","[-1,-1,-1]","[0.022446139148814503,0.07910280812977898]","[-1,-1,-1]","[0.17290464664631056,-0.06844997595069988]","[-1,-1,-1]","[0.07055981793408475,0.07800685043891815]","[1,1,1]","[-0.03729589606053748,-0.025804909203039888]","[1,1,1]","[0.02,0.02]",135.8102,0,21,21,114,1,,,,,,,
,,,,,,,5d7e41aea60f7b00013cf1af,682f2ed2c2625ed20f0a41f9,2025-05-22_16h05.12.538,cuing_paradigm_dot,2024.1.5,Win32,10,682d573fa47f1360d1451895,,,,,,,,,,,135.8104,136.2475,,,136.4611,137.0341,left,,,,,,,,0.55,0.4723,,,,,,,136.2476,136.461,137.0342,"[-0.18046581916105142,0.0710795609103986]","[1,1,1]","[0.004365384766650715,-0.1996226212452767]","[-1,-1,-1]","[0.018593351992213628,0.13829440550048114]","[-1,-1,-1]","[-0.06128821261960358,-0.17410227811883067]","[1,1,1]","[-0.051959385733939135,-0.0017125246063318352]","[-1,-1,-1]","[-0.1545994614873527,0.03508018302107908]","[1,1,1]","[-0.08949485596608832,0.14730431851045522]","[1,1,1]","[0.003564599536679712,0.059987066673350666]","[-1,-1,-1]","[0.13105824623942597,-0.1340643921553913]","[1,1,1]","[-0.02976629774876148,0.11394034182746737]","[-1,-1,-1]","[0.1707013102988163,0.03176867160614131]","[1,1,1]","[0.012052470062428648,-0.1555911025464929]","[1,1,1]","[-0.105903327099952,0.086625752882379]","[1,1,1]","[-0.16301678527761415,-0.10447181416882617]","[-1,-1,-1]","[0.04064825667470514,-0.032612071887147716]","[-1,-1,-1]","[-0.01302549135246988,-0.04029287849756817]","[-1,-1,-1]","[-0.09554704493735328,-0.12697150061628001]","[-1,-1,-1]","[-0.19447293930540663,0.009236150825628094]","[1,1,1]","[-0.04987677786951082,0.1643912201869289]","[1,1,1]","[-0.06601976849463649,0.08352492842425306]","[-1,-1,-1]","[0.012574769676635273,-0.10036109076455356]","[1,1,1]","[-0.09600078307189451,0.014047556426019887]","[1,1,1]","[0.1121520704453216,-0.0068589451410994385]","[-1,-1,-1]","[0.0752068367001913,-0.08690524237062658]","[1,1,1]","[0.07618939729763384,0.10384501526629476]","[1,1,1]","[-0.12303343446360993,-0.07093066128010449]","[1,1,1]","[-0.0321839774770518,-0.08866587871599674]","[-1,-1,-1]","[0.12476314776397415,-0.08232814861197846]","[-1,-1,-1]","[0.16310603033913335,-0.0612763189388142]","[1,1,1]","[0.09797759560488249,0.06015212864099525]","[1,1,1]","[0.05388490970228121,0.03988016379137785]","[-1,-1,-1]","[0.04018133466722454,0.17803240009032192]","[1,1,1]","[0.02,0.02]",138.1123,0,22,22,143,1,,,,,,,
,,,,,,,5d7e41aea60f7b00013cf1af,682f2ed2c2625ed20f0a41f9,2025-05-22_16h05.12.538,cuing_paradigm_dot,2024.1.5,Win32,10,682d573fa47f1360d1451895,,,,,,,,,,,138.1125,138.6402,,,138.8593,139.3005,right,,,,,,,,0.1,0.3392,,,,,,,138.6403,138.8593,139.3006,"[-0.07323625591690702,0.16697129943400998]","[-1,-1,-1]","[0.09514698000619749,-0.1549805238761679]","[-1,-1,-1]","[-0.0639626912318201,0.10926641549295943]","[1,1,1]","[-0.06230599014310942,-0.06918860804158596]","[-1,-1,-1]","[0.07147301708784087,0.07798123177253641]","[-1,-1,-1]","[-0.011062775574151544,0.1487323428479032]","[-1,-1,-1]","[-0.039081094312690745,-0.12574486849554864]","[1,1,1]","[0.17508145029146052,0.001887610555330366]","[-1,-1,-1]","[0.034614962845540866,-0.048478029631602755]","[-1,-1,-1]","[-0.11036161761204415,-0.07774238926185136]","[-1,-1,-1]","[-0.15027052752877734,-0.044264635113611686]","[-1,-1,-1]","[-0.07994677713451476,0.028184984079997078]","[1,1,1]","[0.07969962816968447,0.14018056499425438]","[-1,-1,-1]","[-0.03251924136620417,0.04166814890417151]","[-1,-1,-1]","[-0.04723717398763974,-0.019814741125799486]","[-1,-1,-1]","[-0.010438795853317622,-0.05417634980368778]","[-1,-1,-1]","[0.15001507455710697,0.04138440617272989]","[-1,-1,-1]","[0.11640605856460094,-0.08897627010379415]","[-1,-1,-1]","[0.07614258938589194,-0.10616659238702979]","[-1,-1,-1]","[0.1498453973563886,0.12699010626296114]","[-1,-1,-1]","[-0.09550619820899688,-0.032537918293122775]","[-1,-1,-1]","[0.06135196909961371,0.1794129067400415]","[-1,-1,-1]","[-0.1860257555628144,-0.07077062484710966]","[-1,-1,-1]","[-0.13225622449869384,0.12345080281150565]","[-1,-1,-1]","[-0.11223217672520185,0.06600604927495833]","[-1,-1,-1]","[0.1689990319002971,-0.08493906533482473]","[-1,-1,-1]","[0.08395097777658948,0.006006989255512107]","[-1,-1,-1]","[-0.09862785650271119,-0.16456677645317963]","[-1,-1,-1]","[-0.06778427322662021,0.06745807480540007]","[-1,-1,-1]","[-0.1604810051849822,0.042101599621602724]","[-1,-1,-1]","[0.11348412930701657,0.09575398309752431]","[-1,-1,-1]","[0.0023465930400312952,0.06448410666376767]","[-1,-1,-1]","[0.02,0.02]",140.4084,0,23,23,17,1,,,,,,,
,,,,,,,5d7e41aea60f7b00013cf1af,682f2ed2c2625ed20f0a41f9,2025-05-22_16h05.12.538,cuing_paradigm_dot,2024.1.5,Win32,10,682d573fa47f1360d1451895,,,,,,,,,,,140.4087,140.938,,,141.1587,141.6194,left,,,,,,,,0.9,0.3583,,,,,,,140.9381,141.1587,141.6195,"[-0.124833122389014,0.02292442721495152]","[1,1,1]","[0.03924036992846231,0.05366924691465822]","[1,1,1]","[-0.19205791466269123,-0.05355081005760919]","[1,1,1]","[0.1362817924251065,-0.11191505420704978]","[1,1,1]","[0.09998426366992516,0.004960981493441736]","[1,1,1]","[0.04046519913842166,-0.09615944153257858]","[1,1,1]","[0.1635060832105993,-0.05324728090974283]","[1,1,1]","[0.10456135176734299,-0.04466499629862834]","[1,1,1]","[0.09524771954184903,-0.09832017084014906]","[1,1,1]","[-0.1417275457917183,-0.1050663686064651]","[1,1,1]","[0.11492171816373961,0.08476075724358509]","[-1,-1,-1]","[0.07557966098834687,0.14160173465103176]","[1,1,1]","[0.009677229793451153,0.10430147507896734]","[1,1,1]","[-0.028758334902249022,-0.03481381780895555]","[1,1,1]","[-0.14455579676688465,-0.020423232890042713]","[1,1,1]","[0.10528265381811215,-0.1399752629927114]","[1,1,1]","[-0.10872567303138156,0.14824861024865885]","[1,1,1]","[-0.012744081635064752,-0.161721027751737]","[1,1,1]","[-0.04777988864657763,0.14941832267794816]","[1,1,1]","[0.03183934263965302,-0.05262504568937753]","[-1,-1,-1]","[-0.09234628326020433,-0.09047663873355374]","[1,1,1]","[0.16416593474308064,0.05668002429705822]","[1,1,1]","[-0.04451149879476156,0.012811790393419654]","[1,1,1]","[0.17263786734766273,-0.0012639353732204176]","[-1,-1,-1]","[-0.0695689063014468,-0.1604285105882017]","[1,1,1]","[-0.13251990055083726,0.09876944889523169]","[1,1,1]","[-0.09269517043107402,0.076205951952756]","[1,1,1]","[0.053063451267316854,-0.1402186195090485]","[1,1,1]","[-0.01542446940397752,0.050126506312071675]","[1,1,1]","[0.026059222338289265,0.16055389408240184]","[1,1,1]","[0.07724717063639919,-0.18013029356001584]","[1,1,1]","[0.0158728168335696,0.016674240284877056]","[1,1,1]","[0.02,0.02]",142.69,0,24,24,186,1,,,,,,,
,,,,,,,5d7e41aea60f7b00013cf1af,682f2ed2c2625ed20f0a41f9,2025-05-22_16h05.12.538,cuing_paradigm_dot,2024.1.5,Win32,10,682d573fa47f1360d1451895,,,,,,,,,,,142.6903,143.1329,,,143.3666,144.0648,left,,,,,,,,0.5,0.5887,,,,,,,143.1329,143.3665,144.0648,"[0.04571035465564049,0.14998598113838385]","[-1,-1,-1]","[-0.17864808764021006,-0.04215729197404311]","[1,1,1]","[-0.1872376824740502,0.023157486420710496]","[-1,-1,-1]","[0.12139022609322181,0.05392112374514025]","[-1,-1,-1]","[0.08111903996440491,0.1040472731920134]","[1,1,1]","[-0.03337517906197945,0.06777245710937314]","[-1,-1,-1]","[0.10443285424460437,0.16044030705925497]","[-1,-1,-1]","[0.02375990741581674,-0.17777329729982944]","[-1,-1,-1]","[-0.14483915629644495,-0.08169791111880748]","[-1,-1,-1]","[0.1686368338548426,-0.013030882373029552]","[-1,-1,-1]","[-0.0018728358791877196,-0.14568406406406523]","[-1,-1,-1]","[-0.06224096293177358,0.1619899285582462]","[-1,-1,-1]","[-0.16195997399872542,0.07320993509222042]","[-1,-1,-1]","[0.031225273385462705,-0.05301361548747897]","[1,1,1]","[0.18798204672153232,0.061435397281389324]","[-1,-1,-1]","[-0.09701329775131982,0.04965485079295563]","[1,1,1]","[0.031000481060513643,-0.10388788867714817]","[1,1,1]","[-0.042228776432210395,-0.09298734145614934]","[1,1,1]","[0.10098676781293456,-0.10579503540424043]","[1,1,1]","[-0.11895503628139877,-0.1243658149311738]","[1,1,1]","[-0.07875736529604173,0.10668152856827086]","[-1,-1,-1]","[-0.12675715441124905,0.00916770521419874]","[1,1,1]","[0.011109782845638766,0.07331661740652355]","[1,1,1]","[-0.024388299007704527,-0.0274719241828949]","[1,1,1]","[0.02824813150792049,0.010738607329721922]","[1,1,1]","[0.1353208012182097,-0.0747284800394263]","[1,1,1]","[0.09687015206336505,0.019700614898764145]","[1,1,1]","[0.14187935114468,-0.11929336689462912]","[-1,-1,-1]","[0.18276280659344107,-0.054484252115016896]","[-1,-1,-1]","[-0.11105613017711508,0.15760517641601038]","[-1,-1,-1]","[0.12747513853447,-0.012454893876638557]","[1,1,1]","[-0.020569999920260106,0.16665962217331096]","[1,1,1]","[0.02,0.02]",145.1533,0,25,25,97,1,,,,,,,
,,,,,,,5d7e41aea60f7b00013cf1af,682f2ed2c2625ed20f0a41f9,2025-05-22_16h05.12.538,cuing_paradigm_dot,2024.1.5,Win32,10,682d573fa47f1360d1451895,,,,,,,,,,,145.1535,145.5785,,,145.7982,146.2573,right,,,,,,,,0.4,0.3591,,,,,,,145.5786,145.7982,146.2573,"[-0.006480431531307193,-0.0980129805055676]","[1,1,1]","[0.008844574366293514,0.06735596329417592]","[-1,-1,-1]","[0.09002971696279642,-0.06777266792188984]","[-1,-1,-1]","[0.05532433702648575,0.08595171436411367]","[-1,-1,-1]","[0.0037596435381929325,0.10777342486412478]","[1,1,1]","[-0.11016176251968869,0.08716853824092456]","[-1,-1,-1]","[0.10238971175410813,0.005632317871201541]","[1,1,1]","[-0.1170875083224556,0.13666757987830924]","[1,1,1]","[-0.0674375390119915,-0.06818313394713671]","[-1,-1,-1]","[0.0429007989089105,0.18985182608522141]","[-1,-1,-1]","[0.11128440109769333,0.04484766164736252]","[-1,-1,-1]","[0.055450210682160515,0.019254811943552944]","[-1,-1,-1]","[-0.0682979804468005,0.1009218588160932]","[-1,-1,-1]","[-0.04749947399795214,-0.02092692819560977]","[1,1,1]","[-0.053756409917186096,-0.16032002896867734]","[-1,-1,-1]","[0.09328061654124135,-0.13881149452575275]","[-1,-1,-1]","[-0.15188409227757296,0.0000610279191626949]","[-1,-1,-1]","[0.04813554411077993,-0.18574465155428738]","[-1,-1,-1]","[-0.04931331529978895,0.18403904720076897]","[-1,-1,-1]","[-0.09167351050364661,-0.026359793009052706]","[-1,-1,-1]","[-0.019760602784856283,0.02029748207159993]","[1,1,1]","[0.11042759418486434,0.15718801293207513]","[1,1,1]","[0.156482479911174,0.04985701572750765]","[-1,-1,-1]","[0.14016120938264584,-0.0827815848635672]","[-1,-1,-1]","[-0.060231962831779375,0.023113483918971136]","[1,1,1]","[0.17104386217622328,-0.042150056538583565]","[1,1,1]","[-0.0954205410629915,-0.13592332612143088]","[1,1,1]","[0.13892608338782492,0.11706324065815957]","[-1,-1,-1]","[-0.1154791454445672,0.025425875039900268]","[1,1,1]","[0.03818841364708882,-0.10373020606198914]","[1,1,1]","[0.02298924051163531,-0.0411295726201556]","[1,1,1]","[-0.01677846075433286,0.1473337518766487]","[-1,-1,-1]","[0.02,0.02]",147.342,0,26,26,34,1,,,,,,,
,,,,,,,5d7e41aea60f7b00013cf1af,682f2ed2c2625ed20f0a41f9,2025-05-22_16h05.12.538,cuing_paradigm_dot,2024.1.5,Win32,10,682d573fa47f1360d1451895,,,,,,,,,,,147.3423,147.7828,,,148.0021,148.592,left,,,,,,,,0.5,0.4862,,,,,,,147.7828,148.002,148.592,"[0.05150647085319325,0.15985278008754267]","[-1,-1,-1]","[0.15910011537077115,0.03541513488620054]","[1,1,1]","[-0.0370442708810185,-0.18951800925809145]","[1,1,1]","[-0.04876738897850499,-0.024452252525194677]","[1,1,1]","[0.16076018220691873,-0.06703516491701282]","[-1,-1,-1]","[0.08701837768723483,-0.14137702068829705]","[-1,-1,-1]","[0.03462288929868887,0.06890528150778523]","[1,1,1]","[0.08043417583176758,0.12943900855451662]","[1,1,1]","[0.12738091962229375,0.1419802611319716]","[1,1,1]","[-0.14678677278730223,-0.11307587142354088]","[-1,-1,-1]","[0.032208227208320284,-0.108824994763316]","[1,1,1]","[-0.02903373570386905,0.1010553265170738]","[-1,-1,-1]","[-0.08409350788846268,-0.12847456327426884]","[-1,-1,-1]","[-0.01466176356972815,-0.08431986417826541]","[1,1,1]","[0.017173214410087803,-0.1842712271022789]","[1,1,1]","[-0.15082829366382186,0.08917133767103061]","[1,1,1]","[-0.040513792143592735,0.16530826634276372]","[-1,-1,-1]","[-0.1176440053710485,0.04706168734546405]","[1,1,1]","[-0.19680281496722488,-0.02063293474789005]","[-1,-1,-1]","[-0.08942747440207048,-0.07090393326848901]","[-1,-1,-1]","[-0.11188844367755534,0.10877483373031538]","[1,1,1]","[-0.11809880699252935,-0.033639770418525027]","[-1,-1,-1]","[-0.05261925347637455,0.05358583724294655]","[-1,-1,-1]","[0.11414377434871734,0.07673805152939987]","[-1,-1,-1]","[0.08353121978700599,0.004899320227636749]","[1,1,1]","[0.15602274261176474,-0.11799820410977807]","[1,1,1]","[-0.07962951262068653,0.1481125056526463]","[-1,-1,-1]","[-0.16290051010677384,0.04148151684169079]","[-1,-1,-1]","[0.06215877740904803,-0.06223709881159355]","[-1,-1,-1]","[0.1917100144708062,-0.010008235219916537]","[1,1,1]","[-0.02507317557609001,-0.12438830092369098]","[-1,-1,-1]","[0.06436560714951552,-0.18282052335317076]","[1,1,1]","[0.02,0.02]",149.6692,0,27,27,116,1,,,,,,,
,,,,,,,5d7e41aea60f7b00013cf1af,682f2ed2c2625ed20f0a41f9,2025-05-22_16h05.12.538,cuing_paradigm_dot,2024.1.5,Win32,10,682d573fa47f1360d1451895,,,,,,,,,,,149.6695,150.2085,,,150.4206,151.0021,right,,,,,,,,0.45,0.4791,0.0002,,,,,,150.2086,150.4206,151.0021,"[-0.10562525679610724,-0.01576894578768993]","[-1,-1,-1]","[-0.041886972768594315,0.0994270198664814]","[1,1,1]","[-0.10405905221911903,-0.13019873600549142]","[1,1,1]","[-0.13688213365526128,0.044134569495840284]","[1,1,1]","[0.10699315680862166,-0.002355260101984234]","[-1,-1,-1]","[-0.09027379548237545,0.1771172915898617]","[1,1,1]","[0.002804498693905534,-0.10638292524984956]","[1,1,1]","[0.1738571257360746,0.056457888853348556]","[-1,-1,-1]","[-0.062075624023421816,-0.10650952480468963]","[1,1,1]","[0.08486705500108409,0.10818927851100697]","[1,1,1]","[-0.02339805403599882,0.031804676036530935]","[1,1,1]","[0.04838426876169193,-0.12815809383752774]","[-1,-1,-1]","[0.04246535607253248,0.1321833354791195]","[1,1,1]","[-0.17420373295512864,-0.008595293224385457]","[-1,-1,-1]","[0.021185850209815487,-0.16315988372731133]","[1,1,1]","[0.023558246939260646,0.030065590087164338]","[-1,-1,-1]","[0.09322200597163073,-0.056785114433155016]","[-1,-1,-1]","[-0.04043490844813937,0.19494089669614983]","[-1,-1,-1]","[0.16603620799229074,-0.020619943260474286]","[1,1,1]","[0.15422115550411122,0.11577657665572527]","[-1,-1,-1]","[-0.030796506407801173,-0.07309949521905763]","[-1,-1,-1]","[0.12153535661433908,0.06819531474665409]","[-1,-1,-1]","[0.044768764484078974,-0.03781448873579416]","[-1,-1,-1]","[-0.10594281768243737,0.08794389100097026]","[1,1,1]","[0.1106775861324783,0.140815935417174]","[1,1,1]","[-0.004683721106613279,0.11816735951735562]","[1,1,1]","[0.1345821951113775,-0.07197260146954873]","[-1,-1,-1]","[0.03495231721562976,0.19077971865116256]","[-1,-1,-1]","[0.054647121857905226,-0.19165593329433686]","[-1,-1,-1]","[-0.18711843006140597,-0.05513454818126376]","[-1,-1,-1]","[0.17362220500991424,-0.0912662558169887]","[-1,-1,-1]","[-0.07511872531878856,0.03817241033519822]","[-1,-1,-1]","[0.02,0.02]",152.0996,0,28,28,62,1,,,,,,,
,,,,,,,5d7e41aea60f7b00013cf1af,682f2ed2c2625ed20f0a41f9,2025-05-22_16h05.12.538,cuing_paradigm_dot,2024.1.5,Win32,10,682d573fa47f1360d1451895,,,,,,,,,,,152.1,152.6416,,,152.8727,153.3232,right,,,,,,,,0.45,0.348,,,,,,,152.6417,152.8727,153.3232,"[-0.08386389791207248,0.13042427011097166]","[1,1,1]","[-0.16051767893261865,-0.0193009362993525]","[-1,-1,-1]","[-0.1254354841048199,0.04648045814026992]","[-1,-1,-1]","[0.07407112005043966,-0.095413266292465]","[-1,-1,-1]","[0.11106280806912755,0.04869419618465498]","[-1,-1,-1]","[-0.09986239936137561,-0.04655071913147341]","[1,1,1]","[-0.0377601619159097,0.059927519827298194]","[-1,-1,-1]","[-0.04991534350772479,0.15880254048961523]","[-1,-1,-1]","[-0.020013963255378513,-0.10976145906081093]","[-1,-1,-1]","[0.00785820600332779,0.1440391657050396]","[1,1,1]","[-0.13366542735169135,-0.0757159328749193]","[-1,-1,-1]","[0.0679548326626318,0.05471961761233876]","[-1,-1,-1]","[0.10916350348229233,-0.0715242034849587]","[-1,-1,-1]","[-0.010967556360353325,-0.022457067216055105]","[-1,-1,-1]","[-0.1869015183340861,0.0483583183432246]","[1,1,1]","[-0.09714647602401483,-0.10475768732687003]","[1,1,1]","[0.1643848382350877,-0.04121173561462591]","[-1,-1,-1]","[0.1085891677987423,0.12187209712502543]","[-1,-1,-1]","[-0.06558344110881842,0.09028302216302583]","[-1,-1,-1]","[-0.05437587691360232,-0.07230374996119743]","[1,1,1]","[-0.09527860287075485,0.17126943967029484]","[1,1,1]","[0.03934881844806687,-0.15738173210206285]","[1,1,1]","[-0.13795007567822132,0.14451541886219316]","[-1,-1,-1]","[0.17707170994009913,0.003828364692473508]","[1,1,1]","[0.06965699135744656,-0.006529526249132534]","[-1,-1,-1]","[0.04055483739187589,-0.06776609627764023]","[1,1,1]","[-0.07639040711391767,-0.1451924381683397]","[1,1,1]","[0.09366541252877231,-0.14264371993110503]","[1,1,1]","[0.05864331230345373,0.1235023345175374]","[-1,-1,-1]","[0.16894814729079283,0.057308856737312466]","[1,1,1]","[0.01128104243195839,0.19964269127613074]","[-1,-1,-1]","[-0.12278596346194476,0.08828042154900154]","[1,1,1]","[0.02,0.02]",154.4303,0,29,29,80,1,,,,,,,
,,,,,,,5d7e41aea60f7b00013cf1af,682f2ed2c2625ed20f0a41f9,2025-05-22_16h05.12.538,cuing_paradigm_dot,2024.1.5,Win32,10,682d573fa47f1360d1451895,,,,,,,,,,,154.4307,154.883,,,155.1043,155.6705,left,,,,,,,,0.55,0.4658,,,,,,,154.8831,155.1042,155.6706,"[0.10879113920001743,0.10007660502335969]","[1,1,1]","[-0.0030057595902217606,-0.19211401779636858]","[-1,-1,-1]","[-0.0056559650605866214,0.14059114517592997]","[-1,-1,-1]","[0.07698986084252434,-0.05967648020659207]","[1,1,1]","[-0.16881758877333658,0.10186125760889514]","[1,1,1]","[-0.14372223590171795,-0.11944886765163334]","[-1,-1,-1]","[-0.02219766316839893,0.08494831021419338]","[-1,-1,-1]","[0.04936706939329095,0.19322035015300754]","[-1,-1,-1]","[-0.06548083472645881,0.13281996915827346]","[-1,-1,-1]","[-0.07432391862928155,0.06304819804956345]","[-1,-1,-1]","[0.1419156639889178,-0.05588348460946878]","[1,1,1]","[-0.10745490522861145,-0.054260458394571894]","[1,1,1]","[-0.18620243057147998,-0.025009024523946047]","[1,1,1]","[0.05394511734083509,-0.1130271562215576]","[1,1,1]","[-0.025182419465729286,-0.14066891169380727]","[1,1,1]","[-0.11742808828348274,0.11456678056972468]","[1,1,1]","[-0.1427045837567173,-0.025128558705393312]","[1,1,1]","[0.010331956799778594,0.03166247463378015]","[-1,-1,-1]","[0.07054225886638867,0.13608053638538573]","[1,1,1]","[0.005757731839502458,-0.021172388725871506]","[1,1,1]","[-0.11643604519762561,-0.15688629362956252]","[1,1,1]","[0.17463806594197775,0.049315141934129655]","[1,1,1]","[-0.08070261934649899,-0.00702993884679403]","[1,1,1]","[-0.04982231072233305,0.023819200412525065]","[-1,-1,-1]","[-0.12560957427559108,0.029496865780586027]","[-1,-1,-1]","[-0.036349917003466015,-0.05202145210334209]","[-1,-1,-1]","[0.12262833014233164,-0.09377503681721876]","[1,1,1]","[0.15188305542792788,0.11830914506684924]","[-1,-1,-1]","[0.10068229425643935,-0.14132212618116416]","[1,1,1]","[0.0901118167890701,0.17604801058486425]","[1,1,1]","[-0.17605546645316497,0.02623817337042111]","[-1,-1,-1]","[0.15098169914755258,0.005871425019170974]","[-1,-1,-1]","[0.02,0.02]",156.755,0,30,30,131,1,,,,,,,
,,,,,,,5d7e41aea60f7b00013cf1af,682f2ed2c2625ed20f0a41f9,2025-05-22_16h05.12.538,cuing_paradigm_dot,2024.1.5,Win32,10,682d573fa47f1360d1451895,,,,,,,,,,,156.7553,157.1849,,,157.4058,157.9727,left,,,,,,,,0.9,0.471,,,,,,,157.1849,157.4058,157.9728,"[0.0665532400611752,0.08329216583619765]","[1,1,1]","[-0.027478848023619693,-0.05262843994530917]","[1,1,1]","[0.0024899608635998837,0.18958671530409146]","[1,1,1]","[-0.03513443716859193,-0.0014192327049728688]","[1,1,1]","[0.02090525651899146,-0.09798127050184276]","[-1,-1,-1]","[0.15509363380221694,0.08764400762754215]","[1,1,1]","[0.13154735237268989,-0.046029710515163365]","[1,1,1]","[-0.06968479627912909,0.14137220737137768]","[1,1,1]","[-0.15984946813500833,-0.05105178932716184]","[1,1,1]","[0.11245094279919843,0.0338873068950043]","[1,1,1]","[-0.11482948453213705,-0.14124509665753895]","[1,1,1]","[-0.1311422149757398,0.1370031699288647]","[1,1,1]","[0.05523884324040554,-0.13019957012257596]","[1,1,1]","[0.17026554633471735,0.0049592929626330546]","[1,1,1]","[0.11266951278487973,0.11061269691615666]","[1,1,1]","[-0.06559191755467053,-0.1204187858008476]","[1,1,1]","[0.08640231571833677,0.18022837052557286]","[-1,-1,-1]","[-0.01501296760617028,-0.19762024828008942]","[1,1,1]","[-0.0855865448955464,0.01864744037152207]","[1,1,1]","[-0.165465744677102,0.08301161709707872]","[1,1,1]","[0.007802094655173171,0.09945794456972765]","[1,1,1]","[-0.05787070070268575,0.07396829250632139]","[1,1,1]","[-0.016587619458747465,0.14454164107868722]","[1,1,1]","[0.1265809135531841,-0.1450947373596532]","[1,1,1]","[-0.04307309293541334,0.19131215776816574]","[-1,-1,-1]","[0.03614816363072508,-0.014855880394700415]","[1,1,1]","[0.17767571614929653,-0.06934474207255094]","[1,1,1]","[-0.09894567800092306,0.08605603797808756]","[1,1,1]","[-0.012188981663959389,0.03760778041610498]","[1,1,1]","[0.04101220775791747,0.17415050145544805]","[1,1,1]","[0.08457039156070376,-0.16250820681317338]","[1,1,1]","[0.03478247342980845,0.056422827091786414]","[1,1,1]","[0.02,0.02]",159.063,0,31,31,192,1,,,,,,,
,,,,,,,5d7e41aea60f7b00013cf1af,682f2ed2c2625ed20f0a41f9,2025-05-22_16h05.12.538,cuing_paradigm_dot,2024.1.5,Win32,10,682d573fa47f1360d1451895,,,,,,,,,,,159.0633,159.4992,,,159.7176,160.1923,right,,,,,,,,0.1,0.3684,,,,,,,159.4993,159.7176,160.1923,"[-0.11028482621133177,0.0445234799387904]","[-1,-1,-1]","[0.09773933650566034,-0.15160687469991482]","[-1,-1,-1]","[-0.023857606248922934,-0.09775240517397221]","[-1,-1,-1]","[0.15196425720903578,0.0774652867303888]","[-1,-1,-1]","[-0.14779156143325958,-0.12351688555232754]","[-1,-1,-1]","[0.03451159546216917,-0.017341602222909074]","[-1,-1,-1]","[0.08371269048229661,0.03793298569869613]","[-1,-1,-1]","[-0.050615621075914635,0.15358523169010896]","[-1,-1,-1]","[-0.022174393295392097,-0.05538888458257615]","[-1,-1,-1]","[-0.09255292905875083,-0.07898787712636343]","[-1,-1,-1]","[0.05214033687494551,-0.1289878798438161]","[1,1,1]","[-0.17957913728561567,-0.010636000145897091]","[-1,-1,-1]","[0.10213261445848723,0.15810428719461203]","[-1,-1,-1]","[0.16353995134809726,-0.04930880190318258]","[-1,-1,-1]","[-0.01651984550802651,0.02946929245360471]","[-1,-1,-1]","[0.09514755788725895,-0.03360164473992302]","[-1,-1,-1]","[0.01325000268658137,-0.08159360729031011]","[-1,-1,-1]","[-0.08896153417341533,-0.007641675210243029]","[-1,-1,-1]","[0.05635736400441302,0.1488712820018658]","[-1,-1,-1]","[0.14284453238501021,-0.09402788199638068]","[-1,-1,-1]","[0.17843645844344044,0.01242128880284471]","[-1,-1,-1]","[0.09410252127558756,0.11843165852633604]","[-1,-1,-1]","[-0.1085179802671963,0.09118249699193741]","[-1,-1,-1]","[-0.1678486330750557,-0.0565511128788631]","[-1,-1,-1]","[-0.005514271859004599,-0.16950064601435294]","[-1,-1,-1]","[-0.06817286244336529,-0.17662035620654887]","[-1,-1,-1]","[0.05637671509985535,0.18935367033851605]","[-1,-1,-1]","[-0.19574794499523235,0.039468337332790294]","[1,1,1]","[-0.1523528365037635,0.04579926457484325]","[-1,-1,-1]","[-0.058722616666225275,0.04009774762026131]","[1,1,1]","[0.02569673829020554,0.05415357212619548]","[-1,-1,-1]","[-0.10226021843807268,0.13217404635194113]","[-1,-1,-1]","[0.02,0.02]",161.2608,0,32,32,22,1,,,,,,,
,,,,,,,5d7e41aea60f7b00013cf1af,682f2ed2c2625ed20f0a41f9,2025-05-22_16h05.12.538,cuing_paradigm_dot,2024.1.5,Win32,10,682d573fa47f1360d1451895,,,,,,,,,,,161.2612,161.6975,,,161.923,162.4933,right,,,,,,,,0.5,0.4713,,,,,,,161.6975,161.9229,162.4933,"[0.006018386847670755,-0.026057083279574084]","[1,1,1]","[0.0860625316476224,0.014666000332655386]","[-1,-1,-1]","[-0.10059636000814202,-0.14956440046645042]","[-1,-1,-1]","[0.017658577555149595,-0.17970995162214845]","[1,1,1]","[0.0821598507570323,-0.06345386054310505]","[1,1,1]","[0.14848695120056024,-0.0636666220664491]","[-1,-1,-1]","[-0.07479646869913889,0.12762546613999787]","[-1,-1,-1]","[0.06615807359363862,0.08399987526547159]","[-1,-1,-1]","[0.03170959647345091,0.11689026568882503]","[1,1,1]","[-0.15255991464293872,0.03216159622675712]","[1,1,1]","[-0.14721148700046538,0.09346028501513245]","[1,1,1]","[-0.034569960215795704,-0.16927406303913398]","[-1,-1,-1]","[0.12492946656129793,0.10095955195954615]","[1,1,1]","[-0.06560271769971009,0.0012916196398913506]","[1,1,1]","[0.1734012259136593,0.021084155934830335]","[-1,-1,-1]","[-0.0439044659610261,0.1776271975528549]","[-1,-1,-1]","[-0.08283002599465729,-0.04980549307073125]","[1,1,1]","[-0.03998707093835056,-0.09250350031180733]","[-1,-1,-1]","[0.12784235232834956,0.018876883682827757]","[-1,-1,-1]","[0.15656594864925485,-0.11124804509313213]","[-1,-1,-1]","[-0.19659770947801614,-0.028365753683873694]","[1,1,1]","[-0.02197795266575215,0.08576388705569586]","[-1,-1,-1]","[0.0037194085293466967,0.1846352371467451]","[1,1,1]","[0.01475776186345811,-0.11262812996832801]","[1,1,1]","[-0.13078642463114276,-0.09486710482713528]","[-1,-1,-1]","[0.08164144137933858,-0.1775973803941063]","[-1,-1,-1]","[0.08542457406666372,0.11977602251550357]","[1,1,1]","[0.18455550051349043,-0.027304315730359095]","[1,1,1]","[-0.15063863196285907,-0.05762590627889169]","[-1,-1,-1]","[-0.12570207496456176,-0.00018257973127060192]","[1,1,1]","[0.17199689653285044,0.06773703444436602]","[-1,-1,-1]","[-0.135408311320145,0.13322402676848244]","[1,1,1]","[0.02,0.02]",163.5594,0,33,33,106,1,,,,,,,
,,,,,,,5d7e41aea60f7b00013cf1af,682f2ed2c2625ed20f0a41f9,2025-05-22_16h05.12.538,cuing_paradigm_dot,2024.1.5,Win32,10,682d573fa47f1360d1451895,,,,,,,,,,,163.5596,163.9973,,,164.223,164.7898,right,,,,,,,,0.5,0.4679,,,,,,,163.9973,164.223,164.7898,"[0.06564022769875401,0.011502831720304963]","[1,1,1]","[-0.15978322507681522,-0.015686416797079057]","[1,1,1]","[0.02400361272030869,-0.05174076027851518]","[1,1,1]","[0.1789988487671163,-0.022541737079045415]","[-1,-1,-1]","[-0.09575504476330342,-0.07676792615210326]","[1,1,1]","[-0.1681869679776413,0.026214342418563658]","[-1,-1,-1]","[0.0777220275933881,-0.15795584591666154]","[1,1,1]","[0.17515328212980558,0.01829262634733509]","[-1,-1,-1]","[-0.03363409029059418,-0.12118156760367596]","[1,1,1]","[0.16470769018985756,0.07373413447982588]","[1,1,1]","[-0.0463746024589502,0.029498545940208697]","[1,1,1]","[0.09727708737417803,0.08392082961037292]","[-1,-1,-1]","[0.15779336771892677,-0.0650890123391662]","[1,1,1]","[0.0661245447391891,-0.11818391257686739]","[-1,-1,-1]","[-0.17337882554098566,-0.09402466018082602]","[-1,-1,-1]","[-0.10342218372219134,0.022217326637108372]","[-1,-1,-1]","[0.006402481251210287,-0.11391740308299807]","[1,1,1]","[0.03618160614356782,-0.16523078458952656]","[1,1,1]","[-0.03939319568251625,0.18231734061935193]","[1,1,1]","[-0.14852143440302157,0.12875005745094734]","[-1,-1,-1]","[-0.10226579413400924,0.11141709574509022]","[1,1,1]","[0.05288297403674615,0.12891938641269904]","[1,1,1]","[-0.1347005900106934,-0.14293559164987335]","[-1,-1,-1]","[0.04357616704735117,0.046166156589101386]","[1,1,1]","[-0.006342205943614593,-0.18105697039214713]","[1,1,1]","[-0.05396812883250817,-0.16045202159239552]","[-1,-1,-1]","[-0.030642592966281492,0.12275814848467279]","[-1,-1,-1]","[0.023023979042586778,0.007013532241007299]","[-1,-1,-1]","[0.10887859496895066,-0.012438633219608072]","[-1,-1,-1]","[-0.019486390117677027,-0.020498589991183973]","[-1,-1,-1]","[-0.013527727544907574,0.08218162550918387]","[-1,-1,-1]","[0.13003400608940807,-0.12094405324699718]","[-1,-1,-1]","[0.02,0.02]",165.8646,0,34,34,93,1,,,,,,,
,,,,,,,5d7e41aea60f7b00013cf1af,682f2ed2c2625ed20f0a41f9,2025-05-22_16h05.12.538,cuing_paradigm_dot,2024.1.5,Win32,10,682d573fa47f1360d1451895,,,,,,,,,,,165.8654,166.2965,,,166.5219,167.2034,right,,,,,,,,0.6,0.5774,,,,,,,166.2966,166.5219,167.2034,"[-0.11977023901325363,-0.11519667310451948]","[1,1,1]","[0.058636042562929584,0.13871407718654818]","[-1,-1,-1]","[-0.0032472385829817665,0.17111683406887657]","[-1,-1,-1]","[-0.10782611654211294,-0.06200140772698675]","[1,1,1]","[0.08945683405509905,-0.09398987792176283]","[-1,-1,-1]","[-0.14811109479877263,0.07771368187352787]","[-1,-1,-1]","[0.17360781831440425,-0.09346739509673253]","[1,1,1]","[-0.0025581093820111504,-0.03892416838452494]","[1,1,1]","[0.05313691437116182,-0.12672017557131052]","[-1,-1,-1]","[0.12954702166038207,0.05180091042087634]","[1,1,1]","[0.18401652129129414,-0.03782693564175745]","[-1,-1,-1]","[0.005061943938009841,-0.155138589898792]","[1,1,1]","[0.07605305123238988,-0.036922637430852355]","[1,1,1]","[-0.18697651686738667,0.006714904043634131]","[1,1,1]","[-0.036544486733503856,0.01898127432987183]","[-1,-1,-1]","[-0.052602808073458275,-0.049930509786130645]","[-1,-1,-1]","[-0.11345915653136592,0.04562858364709425]","[1,1,1]","[-0.04696479623896107,0.17221469057344563]","[1,1,1]","[0.11401151832155149,-0.15611794872706697]","[-1,-1,-1]","[0.1231405593176362,-0.020496472145361676]","[-1,-1,-1]","[0.05972850026554838,0.06439839230513685]","[1,1,1]","[-0.022822628431953956,0.06190509681471573]","[-1,-1,-1]","[0.11262328097662831,0.15312799542322453]","[1,1,1]","[-0.19438164905271435,-0.03465247892588922]","[1,1,1]","[-0.14829825358733167,-0.028146257428649905]","[1,1,1]","[-0.10201514703711267,-0.15486381243419695]","[1,1,1]","[-0.020917089809812998,0.12119990551921474]","[1,1,1]","[-0.06282287051329787,0.11172774678443652]","[1,1,1]","[-0.1556894694077024,-0.07681580183631959]","[1,1,1]","[-0.1191571542776331,0.13215059243989788]","[1,1,1]","[0.183124981721906,0.023371167996517637]","[-1,-1,-1]","[0.13345130284274298,-0.10745985928794058]","[-1,-1,-1]","[0.02,0.02]",168.2967,0,35,35,172,1,,,,,,,
,,,,,,,5d7e41aea60f7b00013cf1af,682f2ed2c2625ed20f0a41f9,2025-05-22_16h05.12.538,cuing_paradigm_dot,2024.1.5,Win32,10,682d573fa47f1360d1451895,,,,,,,,,,,168.2971,168.7267,,,168.9472,169.6337,right,,,,,,,,0.6,0.5841,,,,,,,168.7267,168.9472,169.6337,"[-0.05909310424520617,-0.1832323856717697]","[1,1,1]","[-0.11553144632366054,-0.11133924318177793]","[-1,-1,-1]","[0.0343580769582396,0.12109251559814771]","[1,1,1]","[0.08796317055266162,-0.14836257671648984]","[-1,-1,-1]","[0.1330110901592525,-0.043748922846453]","[1,1,1]","[-0.0017545453509428207,-0.002655496408125328]","[-1,-1,-1]","[-0.1313630422005337,0.12107318751891227]","[1,1,1]","[-0.18045505799212702,-0.03419801694499922]","[1,1,1]","[0.01810657143221048,0.16566845572952646]","[-1,-1,-1]","[-0.034370939228111526,0.14183997680420005]","[-1,-1,-1]","[-0.012156274046948872,-0.04949376150211928]","[-1,-1,-1]","[0.14178380735390342,0.1025246349664241]","[1,1,1]","[0.051925487952167886,0.0706675830238786]","[1,1,1]","[0.04029192029095814,0.005352112336319521]","[1,1,1]","[-0.05292728204316557,0.0582850513913996]","[1,1,1]","[0.09893873146395189,0.15137598084723614]","[-1,-1,-1]","[-0.1787881261422894,0.016173758848015356]","[1,1,1]","[0.16186805557238,-0.07879585413359824]","[-1,-1,-1]","[0.025133808189656544,-0.15030941643291204]","[1,1,1]","[-0.0269383732896638,-0.1287158374920978]","[-1,-1,-1]","[-0.05784764294687658,-0.07969073661558283]","[-1,-1,-1]","[0.1785929313369873,0.01280149724750957]","[1,1,1]","[0.06255361833059922,-0.03976627803643248]","[1,1,1]","[-0.09974617100414919,-0.16818435097500647]","[1,1,1]","[-0.09415322125664011,0.07902686362861501]","[1,1,1]","[-0.1717078656955548,0.05834777665779868]","[1,1,1]","[-0.04578141592806143,0.1859787074933698]","[-1,-1,-1]","[0.1481289363883724,0.043910858350845634]","[1,1,1]","[-0.13976903361487283,-0.03739082885538847]","[1,1,1]","[0.0041259745709564906,0.07783436055298269]","[-1,-1,-1]","[0.06319989221058449,-0.18123317021335714]","[1,1,1]","[-0.07587080917152218,0.15956163658819847]","[-1,-1,-1]","[0.02,0.02]",170.71,0,36,36,160,1,,,,,,,
,,,,,,,5d7e41aea60f7b00013cf1af,682f2ed2c2625ed20f0a41f9,2025-05-22_16h05.12.538,cuing_paradigm_dot,2024.1.5,Win32,10,682d573fa47f1360d1451895,,,,,,,,,,,170.7103,171.2372,,,171.4573,172.0278,right,,,,,,,,0.1,0.4606,0,,,,,,171.2372,171.4573,172.0278,"[0.09560777627535164,0.04548302485677518]","[-1,-1,-1]","[-0.137505260371168,-0.02734399217694829]","[-1,-1,-1]","[-0.04463853223759556,0.0008104853667581543]","[-1,-1,-1]","[-0.03826150498759479,-0.0967834326528885]","[-1,-1,-1]","[0.15120375966139932,0.0716721161440756]","[-1,-1,-1]","[-0.0815769003522993,0.10391398351404191]","[-1,-1,-1]","[0.038326540783961104,0.08486003294949498]","[-1,-1,-1]","[0.11051500537812406,0.08883415734597717]","[-1,-1,-1]","[0.008057935537517592,0.1708903632371824]","[-1,-1,-1]","[0.020255791424271023,-0.09014288599180735]","[-1,-1,-1]","[-0.15431167412651112,0.10799932053038992]","[-1,-1,-1]","[-0.00508761493448894,-0.02163277915087207]","[-1,-1,-1]","[0.0702278410168828,-0.0013298054388743593]","[-1,-1,-1]","[0.1436291475501741,-0.02720083747796044]","[1,1,1]","[0.041817725707270034,0.13858076239957468]","[-1,-1,-1]","[-0.06976215780084816,-0.05203127582399091]","[-1,-1,-1]","[0.13232437745347536,-0.11222632877520422]","[-1,-1,-1]","[-0.02126010262743341,0.07107535469004099]","[-1,-1,-1]","[-0.15110058704922932,-0.09057548937650407]","[1,1,1]","[-0.006883557133596094,-0.14441368279097025]","[-1,-1,-1]","[0.1902486188838869,-0.0399270369948489]","[-1,-1,-1]","[-0.11480842218392517,0.07532098529848041]","[-1,-1,-1]","[-0.10446197644963148,-0.1639398236163003]","[-1,-1,-1]","[-0.007329094892542387,0.13144887178345202]","[-1,-1,-1]","[0.1105140818606928,-0.15801338811777346]","[-1,-1,-1]","[0.10582411890931688,0.1446262359347113]","[1,1,1]","[-0.059660661969836305,0.18785638428114113]","[-1,-1,-1]","[-0.0696218235532469,0.03939384141955799]","[-1,-1,-1]","[-0.02153075298780115,-0.19634543744990585]","[-1,-1,-1]","[0.045044542000455205,0.18711102877252198]","[-1,-1,-1]","[0.01998946510430553,0.035572435655631916]","[-1,-1,-1]","[0.17248740544468333,-0.09294650752718375]","[-1,-1,-1]","[0.02,0.02]",173.111,0,37,37,13,1,,,,,,,
,,,,,,,5d7e41aea60f7b00013cf1af,682f2ed2c2625ed20f0a41f9,2025-05-22_16h05.12.538,cuing_paradigm_dot,2024.1.5,Win32,10,682d573fa47f1360d1451895,,,,,,,,,,,173.1113,173.5482,,,173.7757,174.3356,left,,,,,,,,0.6,0.4513,,,,,,,173.5483,173.7757,174.3357,"[0.13038862506103663,-0.1014959866192141]","[1,1,1]","[-0.013869434220573152,-0.16094880082445764]","[1,1,1]","[0.16038022790709763,-0.054329691175776525]","[1,1,1]","[-0.08946127734919115,-0.11686221795100958]","[1,1,1]","[-0.04933482760354095,-0.1850981629364424]","[-1,-1,-1]","[-0.15454633550370192,-0.1013119127883991]","[-1,-1,-1]","[0.12378962698633324,0.0786947892218467]","[1,1,1]","[0.03876468953049881,-0.129074036372009]","[1,1,1]","[-0.07062618793622936,0.07739882557468133]","[1,1,1]","[0.08739199785071544,0.04075337749713517]","[-1,-1,-1]","[0.13774478008632093,-0.012197049201405115]","[-1,-1,-1]","[-0.12422628644484969,-0.04513569210645655]","[1,1,1]","[0.07782454980801685,-0.07267488245358177]","[-1,-1,-1]","[-0.04150041153453902,-0.12868844524726075]","[1,1,1]","[0.05011629837985247,0.14920236477968565]","[-1,-1,-1]","[0.18547123098006602,-0.010723846643257701]","[1,1,1]","[0.08357174426423024,0.1021912549066464]","[-1,-1,-1]","[-0.13909212033680135,0.06765410489696483]","[1,1,1]","[-0.045729756797285144,-0.060856286684644295]","[-1,-1,-1]","[0.05886979149808083,-0.0006348953240387502]","[-1,-1,-1]","[-0.030033383019343562,0.15694620777554866]","[-1,-1,-1]","[-0.037197814645992595,0.05242153714208236]","[1,1,1]","[0.01819127122669833,-0.06080105698193862]","[-1,-1,-1]","[0.025126303398976386,0.06376790482555711]","[1,1,1]","[-0.08136741510617657,-0.024768785901165873]","[1,1,1]","[-0.0019297525734623263,0.004453680112835903]","[-1,-1,-1]","[-0.10564649931050128,0.017190534337630597]","[1,1,1]","[-0.17312708514865882,0.09106972005451706]","[1,1,1]","[0.18078348530646138,0.038636160181034274]","[1,1,1]","[0.11421597799282344,0.15637901094734405]","[1,1,1]","[-0.0809584083964314,0.16691133143101874]","[-1,-1,-1]","[0.18154029963635968,0.08357896009674685]","[1,1,1]","[0.02,0.02]",175.4252,0,38,38,166,1,,,,,,,
,,,,,,,5d7e41aea60f7b00013cf1af,682f2ed2c2625ed20f0a41f9,2025-05-22_16h05.12.538,cuing_paradigm_dot,2024.1.5,Win32,10,682d573fa47f1360d1451895,,,,,,,,,,,175.4254,175.8646,,,176.0827,176.6502,left,,,,,,,,0.9,0.4668,,,,,,,175.8647,176.0827,176.6502,"[0.07328860851832911,-0.06691521630223501]","[1,1,1]","[0.10330154292888685,-0.13339870073521043]","[1,1,1]","[-0.13927958728099246,0.013932560562209846]","[1,1,1]","[0.04584227403210606,-0.17517190927505694]","[1,1,1]","[-0.19315350654518101,0.0020439887985390383]","[1,1,1]","[0.11897832202867442,-0.07340147240147472]","[1,1,1]","[0.18646976223626893,-0.045360098437970814]","[1,1,1]","[-0.039251085563382644,0.0673749212227789]","[1,1,1]","[0.17509889444861948,0.07198281385276191]","[1,1,1]","[-0.04111231093826848,0.19513418141842787]","[1,1,1]","[0.1321921584168218,-0.02958631821212538]","[-1,-1,-1]","[0.0749238267924987,0.061554150035423146]","[1,1,1]","[-0.07314805738191918,-0.17754148797924554]","[1,1,1]","[-0.07946686051316872,-0.10745378350759073]","[-1,-1,-1]","[-0.07120109048322266,-0.011627609437122387]","[1,1,1]","[-0.07919362613438934,0.1417965190580909]","[1,1,1]","[-0.16957548937190947,-0.10188300061513574]","[1,1,1]","[0.003923886371480347,0.0943756682764314]","[1,1,1]","[-0.128676936982684,-0.12731087148037581]","[1,1,1]","[0.10373698003105186,0.16195108659427443]","[1,1,1]","[-0.0047532373523044265,-0.13048908927866815]","[1,1,1]","[-0.13939338917795022,0.1417517125153015]","[1,1,1]","[0.007082239471930833,0.029520126866894595]","[1,1,1]","[-0.04536982048400407,-0.06171090748706432]","[1,1,1]","[-0.16256988862020114,-0.04560346939321243]","[1,1,1]","[-0.11353372803049913,-0.05589068825652618]","[1,1,1]","[0.00940923741451612,-0.08844815308090546]","[1,1,1]","[0.11902605924260279,0.0759543346847961]","[1,1,1]","[0.12357179809929258,0.014650391681139015]","[1,1,1]","[0.020345139030345065,-0.015570762925352456]","[-1,-1,-1]","[0.15708178066147574,-0.09380228608063347]","[1,1,1]","[-0.0986075968823201,0.08508618030699305]","[1,1,1]","[0.02,0.02]",177.7398,0,39,39,209,1,,,,,,,
,,,,,,,5d7e41aea60f7b00013cf1af,682f2ed2c2625ed20f0a41f9,2025-05-22_16h05.12.538,cuing_paradigm_dot,2024.1.5,Win32,10,682d573fa47f1360d1451895,,,,,,,,,,,177.7401,178.2637,,,178.4819,178.9356,right,,,,,,,,0.1,0.3449,,,,,,,178.2637,178.4819,178.9357,"[0.030256830253913732,-0.14800270356725223]","[-1,-1,-1]","[0.11708854266819292,0.007911634644531224]","[-1,-1,-1]","[-0.13505534193944732,-0.03633412041527295]","[-1,-1,-1]","[0.023847484299896245,-0.0748656421344974]","[-1,-1,-1]","[0.1503351168348885,0.10310289479156648]","[-1,-1,-1]","[-0.05595718701210274,-0.0695424047251395]","[1,1,1]","[0.0967310668677178,0.0935729358759525]","[-1,-1,-1]","[0.08706216134195423,0.1404514904776471]","[-1,-1,-1]","[0.1732909739958157,-0.006487318022197714]","[1,1,1]","[-0.07997398968996472,-0.16419642127424022]","[-1,-1,-1]","[-0.07283514505878605,-0.11243544182433786]","[-1,-1,-1]","[-0.07025935488320624,0.10125821711946391]","[-1,-1,-1]","[0.029429353369240286,-0.0029491063214687066]","[-1,-1,-1]","[-0.1896507426234527,0.013804565066138037]","[-1,-1,-1]","[0.10840526542278747,-0.032711297143477716]","[-1,-1,-1]","[0.0415931218687725,0.03544068611782448]","[1,1,1]","[-0.16646527909949876,0.08212786434211865]","[-1,-1,-1]","[0.13606930792925237,-0.07887726487344322]","[-1,-1,-1]","[-0.12935141908507106,-0.12137253778964417]","[-1,-1,-1]","[-0.009816805576640412,-0.18263728020027906]","[-1,-1,-1]","[-0.08625879195681341,-0.026270422627075424]","[-1,-1,-1]","[0.017997207041101682,0.1003156069234118]","[-1,-1,-1]","[0.1265854058159513,0.1482178036785376]","[-1,-1,-1]","[-0.12014923668382756,0.01640069066697982]","[-1,-1,-1]","[-0.16217558248002342,-0.09466491334567133]","[-1,-1,-1]","[-0.02813979280829986,-0.010852964272317979]","[-1,-1,-1]","[-0.025586910966939862,-0.142850543196415]","[-1,-1,-1]","[-0.09822881737759057,0.05037866239488487]","[-1,-1,-1]","[0.13504118655301794,-0.1464669652571097]","[-1,-1,-1]","[-0.19397773738801438,-0.04279756544325448]","[-1,-1,-1]","[0.05546972361376173,0.1735404880085894]","[-1,-1,-1]","[-0.05775173345298149,0.18029363100796786]","[-1,-1,-1]","[0.02,0.02]",180.0342,0,40,40,25,1,,,,,,,
,,,,,,,5d7e41aea60f7b00013cf1af,682f2ed2c2625ed20f0a41f9,2025-05-22_16h05.12.538,cuing_paradigm_dot,2024.1.5,Win32,10,682d573fa47f1360d1451895,,,,,,,,,,,180.0346,180.4543,,,180.6754,181.234,right,,,,,,,,0.4,0.4483,,,,,,,180.4543,180.6754,181.2341,"[0.057819252689590137,0.06381005203132596]","[-1,-1,-1]","[-0.09688599923687409,-0.08369777152691157]","[1,1,1]","[0.12866501249175438,-0.1263463749743462]","[1,1,1]","[0.022479164606746677,0.012892182182512157]","[-1,-1,-1]","[0.15221027520614774,0.08127143782951898]","[1,1,1]","[-0.15162001038624726,0.10636500340438927]","[-1,-1,-1]","[0.0421024575104358,-0.05835252683092721]","[1,1,1]","[-0.03741867839015975,-0.05518894091502068]","[-1,-1,-1]","[-0.15480464503405264,-0.026575447569373432]","[-1,-1,-1]","[0.09792863867233041,-0.0021689254800341434]","[1,1,1]","[-0.03366795414707898,0.034606575961502614]","[-1,-1,-1]","[-0.11005927813037347,0.057183984292931866]","[-1,-1,-1]","[0.060955775284425924,-0.14223049347010647]","[-1,-1,-1]","[-0.1328451821686618,-0.11665429549781844]","[-1,-1,-1]","[-0.014767866095985084,-0.17126016610237352]","[-1,-1,-1]","[0.18118925500568367,0.027717543239323402]","[-1,-1,-1]","[0.06947084194382759,0.14217905525553381]","[-1,-1,-1]","[-0.06844226670518845,-0.12967643058450373]","[1,1,1]","[-0.11989704414212489,0.006401132936350086]","[-1,-1,-1]","[0.06133298835521236,0.18340620738614324]","[1,1,1]","[0.031869666207044116,0.10984216614729626]","[1,1,1]","[0.140250261789188,0.016234354191528483]","[1,1,1]","[-0.057057075441697185,0.13020858092521756]","[1,1,1]","[-0.025425971901428555,0.09939704409933632]","[1,1,1]","[0.18448412864281885,-0.052930331955388536]","[-1,-1,-1]","[0.14428339636087803,0.133544340681508]","[1,1,1]","[-0.015038590547090629,-0.005639995934370419]","[-1,-1,-1]","[0.13018665587583603,-0.04890321058921577]","[1,1,1]","[0.009639595834155884,-0.11196122953173814]","[-1,-1,-1]","[-0.0865585902455124,-0.1653904104118637]","[-1,-1,-1]","[-0.08050137602964702,0.18184564215974006]","[-1,-1,-1]","[-0.014809335919761508,0.15859752496445814]","[-1,-1,-1]","[0.02,0.02]",182.3212,0,41,41,42,1,,,,,,,
,,,,,,,5d7e41aea60f7b00013cf1af,682f2ed2c2625ed20f0a41f9,2025-05-22_16h05.12.538,cuing_paradigm_dot,2024.1.5,Win32,10,682d573fa47f1360d1451895,,,,,,,,,,,182.3215,182.7563,,,182.9705,183.5392,right,,,,,,,,0.1,0.4661,0,,,,,,182.7563,182.9705,183.5393,"[0.1586038666620312,0.05876686701339862]","[-1,-1,-1]","[-0.010796427101404733,-0.08012808578806115]","[-1,-1,-1]","[0.12415155345993548,0.09938610147619704]","[-1,-1,-1]","[0.017200347407075118,0.00913335747690974]","[-1,-1,-1]","[0.06197655827492133,0.1305217307155153]","[-1,-1,-1]","[-0.10626144648644097,-0.056252685463247576]","[-1,-1,-1]","[0.13195105397933735,-0.12834981095987336]","[-1,-1,-1]","[-0.097456819354335,0.0026188961900962364]","[-1,-1,-1]","[-0.012658350309530062,-0.19948744983997058]","[-1,-1,-1]","[0.09982203354613631,0.0545674723300291]","[-1,-1,-1]","[0.0017855363355082803,0.11272064383145843]","[1,1,1]","[-0.09125810795245123,-0.17380500618128122]","[-1,-1,-1]","[0.17834738033891107,0.010741211616766751]","[-1,-1,-1]","[0.03089318914386825,0.17005499922280715]","[-1,-1,-1]","[-0.07172138891343928,0.0884042805809624]","[1,1,1]","[-0.11148584264127105,0.15553648980561474]","[-1,-1,-1]","[-0.05259075402277652,-0.1635461059479926]","[-1,-1,-1]","[-0.17599826819944855,0.01985325797370571]","[-1,-1,-1]","[-0.13658404221165205,0.07214672460468016]","[-1,-1,-1]","[0.04082559115341463,-0.15334648450339716]","[-1,-1,-1]","[0.04350220798992577,0.07792116834249703]","[-1,-1,-1]","[0.11716690316412023,0.014349910396959776]","[-1,-1,-1]","[-0.047797502082712856,0.01592960320153077]","[-1,-1,-1]","[0.08819742584884274,-0.04640135039115807]","[1,1,1]","[0.0006903486847564454,-0.12701628084762806]","[-1,-1,-1]","[0.15021935988041207,-0.07677044933134208]","[-1,-1,-1]","[0.08075878616646798,-0.16762331365671782]","[-1,-1,-1]","[0.12693686187270914,0.15452056767012282]","[-1,-1,-1]","[-0.005954702033964396,-0.02807844804869115]","[-1,-1,-1]","[0.05958965901682512,0.01622517123800417]","[-1,-1,-1]","[-0.08881256061207787,-0.11535596396784253]","[-1,-1,-1]","[-0.1542243930541923,-0.04621363176806622]","[-1,-1,-1]","[0.02,0.02]",184.6464,0,42,42,20,1,,,,,,,
,,,,,,,5d7e41aea60f7b00013cf1af,682f2ed2c2625ed20f0a41f9,2025-05-22_16h05.12.538,cuing_paradigm_dot,2024.1.5,Win32,10,682d573fa47f1360d1451895,,,,,,,,,,,184.6468,185.092,,,185.3131,185.8757,right,,,,,,,,0.5,0.4632,,,,,,,185.092,185.3131,185.8757,"[0.03277375237258318,-0.03307310467241416]","[-1,-1,-1]","[-0.12790681527909972,0.05435172717169364]","[-1,-1,-1]","[-0.015001562509093326,-0.0021386589010578875]","[1,1,1]","[0.0047212786906830175,0.19598725962051042]","[1,1,1]","[0.18354868158940302,0.05780607504057075]","[-1,-1,-1]","[-0.07699725385836087,0.11607731948982909]","[-1,-1,-1]","[-0.08511725301072917,0.018321890820152124]","[1,1,1]","[-0.0530355264931687,-0.10418941583600773]","[1,1,1]","[-0.1384375297548105,-0.05441767865832159]","[-1,-1,-1]","[0.08073777416986888,-0.17314017846487592]","[1,1,1]","[0.10286196483957548,0.1459093809606862]","[-1,-1,-1]","[0.12325874918338395,-0.07840121522698698]","[-1,-1,-1]","[0.05442274972594027,-0.12282620314115952]","[1,1,1]","[0.03372023358170803,0.16735578296903977]","[1,1,1]","[0.1402725218154636,0.12788467898334357]","[1,1,1]","[-0.025892406893473222,-0.19771710025534572]","[1,1,1]","[0.14622220034567693,-0.03322612294636981]","[1,1,1]","[-0.014690367916405081,0.15939556611827177]","[1,1,1]","[0.19682354670552496,-0.02318306911644063]","[-1,-1,-1]","[-0.04097167481152743,-0.03711193716072004]","[1,1,1]","[-0.09960552803067868,-0.12245953157609357]","[-1,-1,-1]","[0.08083073018749835,0.06487855712897464]","[-1,-1,-1]","[0.032254459817299866,-0.16516147662200115]","[-1,-1,-1]","[0.17389650240101967,-0.06282467860360172]","[1,1,1]","[0.08716788022064367,0.016623639472459373]","[-1,-1,-1]","[-0.0038573363308503626,-0.10806482827984203]","[1,1,1]","[-0.00013556568018827003,0.05583826496364591]","[1,1,1]","[0.06241367275518811,-0.08182333669431902]","[-1,-1,-1]","[-0.09799263471583557,-0.16743772201996981]","[-1,-1,-1]","[-0.1432210639517302,-0.011872847825729529]","[-1,-1,-1]","[-0.05348197397880807,0.07501126771869629]","[-1,-1,-1]","[0.08475802135978319,-0.032918004794250166]","[1,1,1]","[0.02,0.02]",186.9468,0,43,43,94,1,,,,,,,
,,,,,,,5d7e41aea60f7b00013cf1af,682f2ed2c2625ed20f0a41f9,2025-05-22_16h05.12.538,cuing_paradigm_dot,2024.1.5,Win32,10,682d573fa47f1360d1451895,,,,,,,,,,,186.947,187.3879,,,187.6243,188.2929,right,,,,,,,,0.5,0.5715,,,,,,,187.3879,187.6243,188.2929,"[0.1835435915373375,-0.0350034674035129]","[-1,-1,-1]","[0.03800984715164526,0.053339604129235364]","[1,1,1]","[-0.058714057797363696,-0.08217373832938493]","[-1,-1,-1]","[0.10972159495180345,-0.07688457017261704]","[-1,-1,-1]","[-0.14277888707180308,-0.07478988169466312]","[1,1,1]","[-0.06112659195613387,0.07131887305294309]","[-1,-1,-1]","[0.14617547589135918,0.03705076555198236]","[-1,-1,-1]","[-0.05605494229193714,0.1602342093940678]","[-1,-1,-1]","[-0.07372384030957689,-0.14217284903477248]","[1,1,1]","[0.09417726376738775,0.005585309780299636]","[1,1,1]","[0.09925638296640248,0.09984490431780381]","[-1,-1,-1]","[-0.09519191926902969,0.04518150736517215]","[1,1,1]","[0.03473433454677588,-0.05199104206158731]","[-1,-1,-1]","[0.0032092264959980663,0.10451469753193046]","[-1,-1,-1]","[-0.17464461501228565,-0.015744394862571124]","[1,1,1]","[0.03666141487727476,-0.15166620369356915]","[-1,-1,-1]","[-0.11862518952432699,0.10172437283394738]","[-1,-1,-1]","[0.08796781108863168,0.04981565578134727]","[1,1,1]","[-0.027881675586678707,-0.1226209935515974]","[-1,-1,-1]","[0.06933367921973017,0.1857318962240305]","[-1,-1,-1]","[-0.0335199422922527,-0.014674226210823184]","[1,1,1]","[0.13719551071975977,-0.12202929869693467]","[1,1,1]","[-0.11414575771115727,0.14609421712509973]","[1,1,1]","[0.18139319329015993,0.06569110000193762]","[-1,-1,-1]","[-0.022385997146200945,-0.18686009025804157]","[1,1,1]","[0.14000256044516116,0.11765909077751092]","[1,1,1]","[0.05300884578423866,0.11698107941017487]","[1,1,1]","[0.09840351083504775,-0.143249134594054]","[1,1,1]","[0.05911629443891754,-0.11585484484174115]","[-1,-1,-1]","[-0.07691782489833933,-0.015032513066858976]","[-1,-1,-1]","[-0.11579776070714369,0.004690944549307128]","[1,1,1]","[0.0036361135136476833,0.020840043793099897]","[1,1,1]","[0.02,0.02]",189.3671,0,44,44,90,1,,,,,,,
