right,left,explain.started,explain.stopped,key_resp_3.keys,key_resp_3.rt,key_resp_3.duration,participant,session,date,expName,psychopyVersion,OS,frameRate,study_id,explain_2.started,explain_2.stopped,key_resp_4.keys,key_resp_4.rt,key_resp_4.duration,explain_3.started,explain_3.stopped,key_resp_5.keys,key_resp_5.rt,key_resp_5.duration,fixation.started,fixation.stopped,practice.started,practice.stopped,response.started,response.stopped,key_resp.keys,key_resp.rt,key_resp.duration,feedback.started,feedback.stopped,trials_2.thisRepN,trials_2.thisTrialN,trials_2.thisN,trials_2.thisIndex,trials_2.ran,white_ratio,explain_4.started,explain_4.stopped,key_resp_6.keys,key_resp_6.rt,key_resp_6.duration,dotDisplay.started,dotDisplay.stopped,ITI.started,polygon_1.pos,polygon_1.color,polygon_2.pos,polygon_2.color,polygon_3.pos,polygon_3.color,polygon_4.pos,polygon_4.color,polygon_5.pos,polygon_5.color,polygon_6.pos,polygon_6.color,polygon_7.pos,polygon_7.color,polygon_8.pos,polygon_8.color,polygon_9.pos,polygon_9.color,polygon_10.pos,polygon_10.color,polygon_11.pos,polygon_11.color,polygon_12.pos,polygon_12.color,polygon_13.pos,polygon_13.color,polygon_14.pos,polygon_14.color,polygon_15.pos,polygon_15.color,polygon_16.pos,polygon_16.color,polygon_17.pos,polygon_17.color,polygon_18.pos,polygon_18.color,polygon_19.pos,polygon_19.color,polygon_20.pos,polygon_20.color,polygon_21.pos,polygon_21.color,polygon_22.pos,polygon_22.color,polygon_23.pos,polygon_23.color,polygon_24.pos,polygon_24.color,polygon_25.pos,polygon_25.color,polygon_26.pos,polygon_26.color,polygon_27.pos,polygon_27.color,polygon_28.pos,polygon_28.color,polygon_29.pos,polygon_29.color,polygon_30.pos,polygon_30.color,polygon_31.pos,polygon_31.color,polygon_32.pos,polygon_32.color,dot_size,ITI.stopped,trials.thisRepN,trials.thisTrialN,trials.thisN,trials.thisIndex,trials.ran,break_2.started,break_2.stopped,trials_3.thisRepN,trials_3.thisTrialN,trials_3.thisN,trials_3.thisIndex,trials_3.ran
subject chose black,subject chose white,0.0001,73.4119,space,58.4047,,5e8a5a892f6f027054a83d88,682f0fb95704f10fc35dc60b,2025-05-22_13h51.50.805,cuing_paradigm_dot,2024.1.5,Win32,166.6666667,682d573fa47f1360d1451895,,,,,,,,,,,,,,,,,,,,,,,,,,,,,,,,,,,,,,,,,,,,,,,,,,,,,,,,,,,,,,,,,,,,,,,,,,,,,,,,,,,,,,,,,,,,,,,,,,,,,,,,,,,,,,,,,
,,,,,,,5e8a5a892f6f027054a83d88,682f0fb95704f10fc35dc60b,2025-05-22_13h51.50.805,cuing_paradigm_dot,2024.1.5,Win32,166.6666667,682d573fa47f1360d1451895,73.4121,132.7379,space,29.3197,,,,,,,,,,,,,,,,,,,,,,,,,,,,,,,,,,,,,,,,,,,,,,,,,,,,,,,,,,,,,,,,,,,,,,,,,,,,,,,,,,,,,,,,,,,,,,,,,,,,,,,,,,,,,
,,,,,,,5e8a5a892f6f027054a83d88,682f0fb95704f10fc35dc60b,2025-05-22_13h51.50.805,cuing_paradigm_dot,2024.1.5,Win32,166.6666667,682d573fa47f1360d1451895,,,,,,132.738,136.7099,space,0.9649,,,,,,,,,,,,,,,,,,,,,,,,,,,,,,,,,,,,,,,,,,,,,,,,,,,,,,,,,,,,,,,,,,,,,,,,,,,,,,,,,,,,,,,,,,,,,,,,,,,,,,,,
,,,,,,,5e8a5a892f6f027054a83d88,682f0fb95704f10fc35dc60b,2025-05-22_13h51.50.805,cuing_paradigm_dot,2024.1.5,Win32,166.6666667,682d573fa47f1360d1451895,,,,,,,,,,,136.721,137.2131,137.2132,137.4618,137.4619,138.5291,left,1.0582,,138.5292,139.6267,0,0,0,0,1,0.8,,,,,,,,,,,,,,,,,,,,,,,,,,,,,,,,,,,,,,,,,,,,,,,,,,,,,,,,,,,,,,,,,,,,,,,,,,,,,,,,,,,,,,
,,,,,,,5e8a5a892f6f027054a83d88,682f0fb95704f10fc35dc60b,2025-05-22_13h51.50.805,cuing_paradigm_dot,2024.1.5,Win32,166.6666667,682d573fa47f1360d1451895,,,,,,,,,,,139.627,140.1239,140.1239,140.3727,140.3728,140.785,right,0.4061,,140.785,141.8825,0,1,1,1,1,0.2,,,,,,,,,,,,,,,,,,,,,,,,,,,,,,,,,,,,,,,,,,,,,,,,,,,,,,,,,,,,,,,,,,,,,,,,,,,,,,,,,,,,,,
,,,,,,,5e8a5a892f6f027054a83d88,682f0fb95704f10fc35dc60b,2025-05-22_13h51.50.805,cuing_paradigm_dot,2024.1.5,Win32,166.6666667,682d573fa47f1360d1451895,,,,,,,,,,,,,,,,,,,,,,,,,,,,141.8827,148.523,space,3.634,,,,,,,,,,,,,,,,,,,,,,,,,,,,,,,,,,,,,,,,,,,,,,,,,,,,,,,,,,,,,,,,,,,,,,,,,,,,,,,,,,
,,,,,,,5e8a5a892f6f027054a83d88,682f0fb95704f10fc35dc60b,2025-05-22_13h51.50.805,cuing_paradigm_dot,2024.1.5,Win32,166.6666667,682d573fa47f1360d1451895,,,,,,,,,,,148.5296,149.0261,,,149.275,149.8751,right,0.5976,,,,,,,,,0.45,,,,,,149.0263,149.275,149.8752,"[-0.1231697440617395,0.08718915216115748]","[1,1,1]","[0.04365295269589944,0.01579585382947744]","[-1,-1,-1]","[0.11192484685931982,-0.12198050270515012]","[-1,-1,-1]","[-0.03822928054054699,-0.15463095040848596]","[1,1,1]","[0.0011415211404069401,-0.1842667669667112]","[1,1,1]","[-0.17892703349197067,0.0430116423257857]","[-1,-1,-1]","[0.14740203845646643,0.12394014062875058]","[1,1,1]","[0.15071366006618106,0.04549995412159383]","[-1,-1,-1]","[0.10603848266048757,0.08209533466179936]","[1,1,1]","[-0.04011013780096529,0.05936707356964442]","[1,1,1]","[0.06547493010651953,0.17961776347627065]","[1,1,1]","[0.10747691368442198,-0.08114625520731979]","[-1,-1,-1]","[0.19667865363614367,-0.027355969240980323]","[-1,-1,-1]","[-0.18311353498626587,-0.0561998959816418]","[-1,-1,-1]","[-0.03221171695493265,-0.11227877097038558]","[-1,-1,-1]","[0.06878168712107875,0.06028064506028916]","[1,1,1]","[-0.06794481645174623,0.023180682505317376]","[-1,-1,-1]","[0.0485961615491353,0.1010806425973123]","[-1,-1,-1]","[0.17319195612024846,-0.07885473757483374]","[-1,-1,-1]","[-0.04578242909680983,0.17012558633262984]","[-1,-1,-1]","[-0.061424825113199896,-0.022326493913503824]","[-1,-1,-1]","[0.09302431622953417,-0.1752234808386202]","[-1,-1,-1]","[-0.14346719868048927,-0.017244027843740573]","[1,1,1]","[0.005837411078673311,0.1708127660544916]","[1,1,1]","[-0.07007533997248175,-0.07543314852382325]","[-1,-1,-1]","[0.05632245838829226,-0.06407192212204034]","[1,1,1]","[-0.009495421047267822,0.02854760490343926]","[1,1,1]","[-0.17970014746182872,0.08353637785974068]","[1,1,1]","[-0.10546809809191036,0.12799678031006093]","[-1,-1,-1]","[-0.0009560187357482623,0.08794814718901725]","[-1,-1,-1]","[-0.19864980774552346,-0.012004807533296963]","[1,1,1]","[-0.11987175728454251,-0.1374394782494098]","[-1,-1,-1]","[0.02,0.02]",150.9728,0,0,0,61,1,,,,,,,
,,,,,,,5e8a5a892f6f027054a83d88,682f0fb95704f10fc35dc60b,2025-05-22_13h51.50.805,cuing_paradigm_dot,2024.1.5,Win32,166.6666667,682d573fa47f1360d1451895,,,,,,,,,,,150.973,151.47,,,151.7188,152.2401,left,0.516,,,,,,,,,0.6,,,,,,151.47,151.7187,152.2401,"[0.005019551725346432,0.05799091627228589]","[1,1,1]","[-0.06494241884978726,-0.08655202990456078]","[1,1,1]","[0.06311653007537736,-0.11467405129319178]","[-1,-1,-1]","[-0.07767407767814201,0.0689104568820935]","[-1,-1,-1]","[-0.023985582859716543,0.12126744577070016]","[1,1,1]","[-0.024916092260223826,-0.06324946579719594]","[1,1,1]","[-0.018579498714046103,-0.13415343403727997]","[1,1,1]","[-0.17612387722971182,0.07223644493433874]","[1,1,1]","[0.068233018520915,0.09671024589420738]","[1,1,1]","[0.12186951652531908,0.05724818485542189]","[1,1,1]","[-0.028369958259888264,0.004330120666913716]","[1,1,1]","[-0.03385436769804969,0.0784740405717354]","[-1,-1,-1]","[-0.1398200615564186,-0.12198971863052412]","[1,1,1]","[0.045254224110207436,-0.15889504337448462]","[1,1,1]","[0.13605467344783376,-0.038852107959955355]","[-1,-1,-1]","[0.18722409324184155,0.044543783506588296]","[-1,-1,-1]","[-0.16852473516324495,-0.054499910371737854]","[1,1,1]","[0.0877306418037554,0.0007232856612694071]","[1,1,1]","[0.08960769447530344,0.1512220920863795]","[-1,-1,-1]","[0.00009160929471824221,0.17730470701820322]","[1,1,1]","[0.02674691793901321,-0.025577292115854]","[1,1,1]","[0.0803120774041894,0.047951985631462545]","[-1,-1,-1]","[-0.1443912576839101,-0.020313556390835787]","[-1,-1,-1]","[-0.10755164247243452,-0.08210495712598924]","[-1,-1,-1]","[0.11059199377997804,0.09998924314157903]","[-1,-1,-1]","[0.03246309739516112,0.12543008653628518]","[-1,-1,-1]","[-0.10937994185753502,0.09705485034154507]","[1,1,1]","[-0.13664907085571013,0.13537795403872635]","[-1,-1,-1]","[-0.08040778117202935,0.006057446190726724]","[1,1,1]","[0.09738399287287595,-0.06982739981131138]","[1,1,1]","[-0.0668871557463903,0.11784711641432719]","[1,1,1]","[-0.0708997067765158,-0.0334891379270495]","[-1,-1,-1]","[0.02,0.02]",153.3379,0,1,1,154,1,,,,,,,
,,,,,,,5e8a5a892f6f027054a83d88,682f0fb95704f10fc35dc60b,2025-05-22_13h51.50.805,cuing_paradigm_dot,2024.1.5,Win32,166.6666667,682d573fa47f1360d1451895,,,,,,,,,,,153.3381,153.835,,,154.0838,154.6295,left,0.5418,,,,,,,,,0.55,,,,,,153.835,154.0838,154.6295,"[-0.17194641693690177,0.026443062580991692]","[1,1,1]","[0.10041740501203493,-0.06890273476688244]","[-1,-1,-1]","[-0.12048427499409688,0.1426519998659488]","[1,1,1]","[-0.09330571893768315,0.10499019848295936]","[-1,-1,-1]","[0.07781024469270358,0.16256443231902404]","[-1,-1,-1]","[0.046030151184624744,0.005690373812132075]","[-1,-1,-1]","[0.04100589593779614,-0.07528072926899076]","[1,1,1]","[0.06619583297234893,-0.13608675830715747]","[1,1,1]","[-0.04900980901709812,0.08928895766537553]","[-1,-1,-1]","[-0.021290573654003827,0.181098547737033]","[1,1,1]","[-0.18166534359374156,-0.04191919015828787]","[-1,-1,-1]","[-0.09657463477240688,0.04898573494268942]","[-1,-1,-1]","[-0.01921556975974884,0.0039313770877651465]","[1,1,1]","[0.018330038887013424,0.14569652586139875]","[1,1,1]","[0.006913259991502959,-0.03646030893207625]","[1,1,1]","[-0.05446997837993605,0.14766372292533964]","[1,1,1]","[-0.14438120878125596,-0.1180782234397645]","[1,1,1]","[0.18016654690758938,0.08523512499773009]","[-1,-1,-1]","[0.1488142816030261,0.11927223769278647]","[1,1,1]","[-0.06220474817066298,-0.09232297941176493]","[-1,-1,-1]","[0.10081053549744537,0.12763111135310334]","[1,1,1]","[0.15822032235061342,-0.03517401902936372]","[-1,-1,-1]","[0.0013504371701493344,0.04625142069052325]","[1,1,1]","[-0.0537824060029253,-0.18976139346744145]","[1,1,1]","[0.12690122127964595,0.007805074492516272]","[1,1,1]","[0.08840866311299468,-0.003793056512787371]","[-1,-1,-1]","[0.14905765950728805,-0.09478339989030349]","[1,1,1]","[-0.12575230809030302,-0.05998944123264553]","[-1,-1,-1]","[-0.08784634747755954,-0.15868596401194035]","[-1,-1,-1]","[0.031312822081766174,-0.15950129360865165]","[1,1,1]","[0.06715307112119798,0.0972438924999144]","[-1,-1,-1]","[-0.09337526768631299,-0.012041435651680945]","[1,1,1]","[0.02,0.02]",155.7271,0,2,2,131,1,,,,,,,
,,,,,,,5e8a5a892f6f027054a83d88,682f0fb95704f10fc35dc60b,2025-05-22_13h51.50.805,cuing_paradigm_dot,2024.1.5,Win32,166.6666667,682d573fa47f1360d1451895,,,,,,,,,,,155.7272,156.2243,,,156.4731,156.843,right,0.3636,,,,,,,,,0.1,,,,,,156.2243,156.473,156.843,"[0.14737933099270464,-0.0324834070347229]","[-1,-1,-1]","[-0.03192596621023374,0.009531253259283216]","[1,1,1]","[-0.13896721455718056,0.018370133801762445]","[-1,-1,-1]","[-0.15132761402896344,-0.03171105619850077]","[-1,-1,-1]","[0.028607029637834756,-0.003982474171579519]","[-1,-1,-1]","[-0.10145616905899349,-0.04354993631275167]","[-1,-1,-1]","[0.04614078791380663,-0.17707582888182213]","[-1,-1,-1]","[-0.16656072088706014,0.09292606876352859]","[-1,-1,-1]","[-0.052446884171576016,0.06424412691582108]","[-1,-1,-1]","[0.09193607210220577,-0.16060975695044896]","[-1,-1,-1]","[0.016126368597851198,-0.1367080244900834]","[-1,-1,-1]","[-0.007007190516710046,-0.039842765738208934]","[-1,-1,-1]","[0.0029204163108469505,0.033748471579516784]","[-1,-1,-1]","[-0.08411075019794144,0.09872733702535468]","[-1,-1,-1]","[-0.09857826641157087,0.03115480925205175]","[-1,-1,-1]","[-0.17537116132935243,0.043493480793258835]","[-1,-1,-1]","[0.05838121913455592,0.10580455683798892]","[-1,-1,-1]","[-0.07319135047966974,-0.17479749453184112]","[-1,-1,-1]","[0.1441493566391413,-0.11935722818673043]","[-1,-1,-1]","[0.10161822585364037,0.03389724460537051]","[-1,-1,-1]","[0.15328546707555255,0.1266303792905382]","[-1,-1,-1]","[-0.13400684841280963,0.12916507872434027]","[-1,-1,-1]","[0.04860852533028034,0.03746295756748016]","[1,1,1]","[0.06945855200509933,0.17751464296367822]","[-1,-1,-1]","[0.18074088307598965,0.042985016931468494]","[-1,-1,-1]","[0.036110746274939744,0.1416791221117899]","[-1,-1,-1]","[-0.13753395881943564,-0.12359897725942398]","[1,1,1]","[-0.07733127049381515,0.16736140681173986]","[-1,-1,-1]","[-0.07514156066136515,-0.1320292057014261]","[-1,-1,-1]","[0.004111293687532678,-0.1961407128519293]","[-1,-1,-1]","[-0.18502978104088047,-0.008191469104942934]","[-1,-1,-1]","[0.08021196798630713,-0.0028757041783580546]","[-1,-1,-1]","[0.02,0.02]",157.9405,0,3,3,7,1,,,,,,,
,,,,,,,5e8a5a892f6f027054a83d88,682f0fb95704f10fc35dc60b,2025-05-22_13h51.50.805,cuing_paradigm_dot,2024.1.5,Win32,166.6666667,682d573fa47f1360d1451895,,,,,,,,,,,157.9406,158.4377,,,158.6864,159.032,right,0.3414,,,,,,,,,0.1,,,,,,158.4378,158.6864,159.0321,"[-0.021876850051297768,0.05661214190079695]","[-1,-1,-1]","[0.11872036903263304,-0.07609561523879431]","[1,1,1]","[0.15434081104401776,0.008158025418043434]","[-1,-1,-1]","[0.08772939555624992,-0.01781240001653796]","[-1,-1,-1]","[0.04280407676663418,-0.0038767992247107108]","[1,1,1]","[0.08027844087598537,-0.10362290235594711]","[-1,-1,-1]","[0.12582480733058102,0.13493823694567086]","[-1,-1,-1]","[-0.026610950688180892,-0.10931903771274845]","[-1,-1,-1]","[-0.11633746379248709,-0.043489685193291584]","[-1,-1,-1]","[0.1300503164513735,0.06774122136089214]","[-1,-1,-1]","[0.0027060921422053996,-0.051654793764806105]","[-1,-1,-1]","[-0.038157244104060524,-0.02552601762951769]","[-1,-1,-1]","[-0.18241870493439677,0.04634554330090095]","[-1,-1,-1]","[-0.15136360860767945,-0.007805766005409569]","[-1,-1,-1]","[0.025828071391413885,-0.12398303636592929]","[-1,-1,-1]","[-0.170391359883464,-0.08545122662902911]","[-1,-1,-1]","[-0.11129093579095563,0.05362796976694314]","[-1,-1,-1]","[-0.08034753323579892,-0.14482384217989736]","[-1,-1,-1]","[0.03111081001789839,-0.17638803982154835]","[-1,-1,-1]","[-0.01787252267493892,0.1010458463473927]","[-1,-1,-1]","[0.01959788744546043,0.1443229648979218]","[-1,-1,-1]","[-0.07311545641166407,-0.0976057666925768]","[-1,-1,-1]","[0.06592926504873257,0.12852107813487826]","[-1,-1,-1]","[-0.1145477873882195,0.09500337587547056]","[-1,-1,-1]","[-0.03803349005971162,0.15387990576278454]","[-1,-1,-1]","[0.16054808626397374,-0.07161029397919931]","[-1,-1,-1]","[-0.03483186832035799,0.016639176675995182]","[-1,-1,-1]","[-0.03316381474389135,-0.1497886272212171]","[-1,-1,-1]","[-0.05770858890866384,0.08871961212868575]","[-1,-1,-1]","[0.07268641476239548,0.04125507473438881]","[-1,-1,-1]","[-0.17646350717887277,-0.04373621842535517]","[1,1,1]","[0.1672598882453688,0.0876192386869773]","[-1,-1,-1]","[0.02,0.02]",160.1297,0,4,4,25,1,,,,,,,
,,,,,,,5e8a5a892f6f027054a83d88,682f0fb95704f10fc35dc60b,2025-05-22_13h51.50.805,cuing_paradigm_dot,2024.1.5,Win32,166.6666667,682d573fa47f1360d1451895,,,,,,,,,,,160.1298,160.6269,,,160.8757,161.4336,left,0.553,,,,,,,,,0.6,,,,,,160.6269,160.8757,161.4336,"[-0.08955083856139523,0.006541661853660065]","[-1,-1,-1]","[-0.011682706859243776,-0.08221666857768707]","[1,1,1]","[0.14978946484488997,-0.07957422353000373]","[-1,-1,-1]","[0.04840342909566095,0.15528166645003852]","[1,1,1]","[0.0006674703661181567,0.13323196413809277]","[1,1,1]","[0.0873106814321046,-0.12101339828855678]","[-1,-1,-1]","[-0.17768087465635413,0.04038810408402903]","[1,1,1]","[0.058096398403960775,-0.0422562092059524]","[-1,-1,-1]","[-0.14081111800738688,-0.09113380714974544]","[-1,-1,-1]","[0.09047230495737271,0.1655926968184978]","[-1,-1,-1]","[-0.11815826327576918,0.0480359588003876]","[1,1,1]","[-0.060955739451759285,-0.08064692046846443]","[-1,-1,-1]","[-0.07288631759228399,0.12017263965276793]","[1,1,1]","[-0.15919071234324364,-0.026624222063029043]","[1,1,1]","[0.020298143594985166,-0.15568054253726055]","[1,1,1]","[-0.08194897728258495,0.1640168894955668]","[1,1,1]","[-0.12221652577151815,0.1364426222996484]","[-1,-1,-1]","[-0.14414355971153558,-0.13135680518971365]","[-1,-1,-1]","[0.18548527864351508,0.0543286737287798]","[1,1,1]","[0.04738380063995698,-0.10166153958746081]","[-1,-1,-1]","[0.1240290547002943,-0.14442299877228815]","[1,1,1]","[0.19636265193894703,0.00043566677592800563]","[1,1,1]","[0.15095940113225126,0.02970731961186722]","[-1,-1,-1]","[-0.0012278011421742307,0.08857005966289101]","[1,1,1]","[0.13915722309721235,0.11433197837280802]","[-1,-1,-1]","[-0.0578960881208566,0.07063556548339443]","[1,1,1]","[-0.09696332154727123,-0.05718388041673802]","[1,1,1]","[-0.04195194183404457,-0.0351088611580604]","[1,1,1]","[0.12163750142625333,-0.04274299618107726]","[1,1,1]","[0.11999552846394343,0.058276897547389024]","[-1,-1,-1]","[0.014909371643916342,-0.007488380397617635]","[1,1,1]","[-0.020411533460975732,-0.15607587882910418]","[1,1,1]","[0.02,0.02]",162.531,0,5,5,151,1,,,,,,,
,,,,,,,5e8a5a892f6f027054a83d88,682f0fb95704f10fc35dc60b,2025-05-22_13h51.50.805,cuing_paradigm_dot,2024.1.5,Win32,166.6666667,682d573fa47f1360d1451895,,,,,,,,,,,162.5311,163.0283,,,163.2771,164.314,right,1.031,,,,,,,,,0.45,,,,,,163.0283,163.2771,164.314,"[0.09218925915552068,-0.07022362782251494]","[-1,-1,-1]","[-0.035464746739585426,0.14880086041446366]","[1,1,1]","[-0.08643659455192386,0.030230084195156603]","[-1,-1,-1]","[-0.0007912955317939265,-0.18224265810170556]","[-1,-1,-1]","[0.15041523159294884,0.05513387413704983]","[1,1,1]","[-0.17221818655044294,0.031005861907457345]","[1,1,1]","[-0.05267348216631294,-0.07519356638566858]","[1,1,1]","[-0.11273184805212288,0.09505999186840346]","[1,1,1]","[0.002767282877765805,-0.09151789437590664]","[-1,-1,-1]","[0.004468883344061109,0.024143124934947066]","[-1,-1,-1]","[-0.11571718342086823,-0.009890572143128669]","[-1,-1,-1]","[-0.029975536283683036,-0.14626652727802422]","[-1,-1,-1]","[0.06590430031507634,-0.0018347961217483105]","[-1,-1,-1]","[0.07946664291312734,-0.1415569511449061]","[1,1,1]","[-0.03177323998910905,0.04405450644826624]","[-1,-1,-1]","[0.18078078060770714,0.006790556926564491]","[-1,-1,-1]","[0.05660194043448408,-0.10343738029042798]","[1,1,1]","[0.1607132601951444,-0.04534412446113438]","[-1,-1,-1]","[0.00644740103010433,0.19543048106654493]","[-1,-1,-1]","[0.031255781180386466,0.06610877782664229]","[-1,-1,-1]","[-0.1362918226692481,-0.05975778101080213]","[1,1,1]","[0.11075994222980688,0.04788815537027486]","[1,1,1]","[-0.0791691340979859,-0.13562487409078947]","[1,1,1]","[0.14221020427535494,0.11092870465948484]","[-1,-1,-1]","[-0.10488376719263891,-0.08990340381954405]","[-1,-1,-1]","[0.0843273466687577,0.15189228626282086]","[-1,-1,-1]","[-0.17435506390770128,0.08965567687476474]","[1,1,1]","[0.037122777752107275,0.12026918492572272]","[1,1,1]","[0.04296953375379949,-0.057677997831770245]","[1,1,1]","[0.12022270867240785,-0.01597309258233305]","[1,1,1]","[-0.02933424470826913,-0.042285877619374954]","[-1,-1,-1]","[-0.07125760586168021,0.07898373685026105]","[-1,-1,-1]","[0.02,0.02]",165.4115,0,6,6,86,1,,,,,,,
,,,,,,,5e8a5a892f6f027054a83d88,682f0fb95704f10fc35dc60b,2025-05-22_13h51.50.805,cuing_paradigm_dot,2024.1.5,Win32,166.6666667,682d573fa47f1360d1451895,,,,,,,,,,,165.4116,165.9088,,,166.1575,166.7034,left,0.5403,,,,,,,,,0.6,,,,,,165.9089,166.1575,166.7034,"[-0.06463868822137524,0.05673210360767203]","[1,1,1]","[-0.1358502332523408,0.06626355827280848]","[1,1,1]","[0.09465602290641094,0.015246162777657125]","[-1,-1,-1]","[-0.0008083008959541918,0.00797894526448091]","[-1,-1,-1]","[-0.050700078783754106,-0.03685380906837567]","[1,1,1]","[-0.10257228147321601,0.142785566500647]","[-1,-1,-1]","[-0.11697851701547049,0.029380619980231157]","[-1,-1,-1]","[-0.18252998190281614,-0.015393011832923513]","[1,1,1]","[0.1848358766863281,0.006876718832411189]","[-1,-1,-1]","[0.0897934686432649,0.16150178576480495]","[-1,-1,-1]","[-0.026947934245383283,-0.11008784159249846]","[1,1,1]","[0.10825868039213088,-0.07723385880907661]","[1,1,1]","[0.002580348811048607,-0.1851542386205258]","[1,1,1]","[-0.035799515656572925,0.09797139705826902]","[-1,-1,-1]","[0.07337870450166076,-0.14324043132568604]","[1,1,1]","[0.11824598528656258,0.08802298007266522]","[1,1,1]","[0.05686324882554088,0.11915064824367039]","[1,1,1]","[-0.18690622626589506,0.03355156460392703]","[1,1,1]","[-0.04154073048321713,-0.1616802645630326]","[-1,-1,-1]","[-0.12647175928230844,-0.1301508153629192]","[1,1,1]","[0.16599624273313898,-0.0790555079068922]","[-1,-1,-1]","[0.07679718168648755,-0.04065710484342756]","[-1,-1,-1]","[0.01176968505992512,-0.0724055272086716]","[1,1,1]","[0.13682762143441776,0.01919771169606589]","[1,1,1]","[0.13209691008701488,-0.13011651128552018]","[-1,-1,-1]","[0.029707587395172406,0.08642109854211055]","[1,1,1]","[-0.07434424869532585,0.1119358676716188]","[-1,-1,-1]","[0.01889861331389858,-0.02751242206043331]","[1,1,1]","[0.033242862986170754,-0.12626309166370342]","[-1,-1,-1]","[0.16155813595060184,0.08606406706850457]","[1,1,1]","[-0.02727942103104732,0.16845714447895782]","[1,1,1]","[0.06601153439421296,-0.0801786922574441]","[1,1,1]","[0.02,0.02]",167.8008,0,7,7,170,1,,,,,,,
,,,,,,,5e8a5a892f6f027054a83d88,682f0fb95704f10fc35dc60b,2025-05-22_13h51.50.805,cuing_paradigm_dot,2024.1.5,Win32,166.6666667,682d573fa47f1360d1451895,,,,,,,,,,,167.8009,168.2981,,,168.5469,168.9774,right,0.4298,,,,,,,,,0.4,,,,,,168.2981,168.5469,168.9774,"[0.10937537856891164,-0.1147150094744965]","[1,1,1]","[0.06367776569768821,0.16644257171863247]","[-1,-1,-1]","[0.09980608307826673,0.028674237035435986]","[-1,-1,-1]","[-0.03958742659931581,-0.13926371212530844]","[-1,-1,-1]","[-0.07408641189266923,-0.013110883125441874]","[-1,-1,-1]","[0.015232448502386363,-0.03319859942038001]","[1,1,1]","[0.15531467942931598,0.02309110616728301]","[1,1,1]","[0.01601183997317005,0.16742472146096168]","[-1,-1,-1]","[-0.004645553051550182,0.007649638223881551]","[1,1,1]","[0.014885888887551376,-0.14316557954763284]","[-1,-1,-1]","[-0.06619457244476108,0.0950299311130289]","[-1,-1,-1]","[0.051610466649883065,0.06915059343239152]","[-1,-1,-1]","[-0.031011824043608402,-0.07968445947624275]","[1,1,1]","[0.1750830187331049,0.07713761335698503]","[1,1,1]","[0.037496379708343325,0.12708051155383648]","[1,1,1]","[-0.005044885838150369,0.05999478371027307]","[1,1,1]","[-0.18412739936019618,-0.029826545852830417]","[-1,-1,-1]","[-0.06489314196313496,0.04803514276182895]","[-1,-1,-1]","[0.11143746968474993,0.08635211863984137]","[-1,-1,-1]","[-0.1110688616584805,0.16233879320229364]","[1,1,1]","[0.09751729813239549,-0.048310306561409944]","[-1,-1,-1]","[-0.041745550217174424,0.164492239921625]","[-1,-1,-1]","[-0.00963633148140769,0.12164793978947468]","[1,1,1]","[0.012012549580470721,-0.08372250940913391]","[-1,-1,-1]","[-0.116721971534508,-0.1304028990754337]","[-1,-1,-1]","[0.13399067647697485,0.12328816071105932]","[-1,-1,-1]","[-0.16705248162298753,0.03715387375375226]","[-1,-1,-1]","[-0.1057409915832054,-0.08486257958850876]","[-1,-1,-1]","[-0.12094389493244431,0.011088646384104454]","[1,1,1]","[-0.18177427967882523,-0.07127098902181322]","[1,1,1]","[-0.14048711370827582,0.10214667673014358]","[-1,-1,-1]","[-0.15014542320376495,-0.09960680762103766]","[1,1,1]","[0.02,0.02]",170.075,0,8,8,34,1,,,,,,,
,,,,,,,5e8a5a892f6f027054a83d88,682f0fb95704f10fc35dc60b,2025-05-22_13h51.50.805,cuing_paradigm_dot,2024.1.5,Win32,166.6666667,682d573fa47f1360d1451895,,,,,,,,,,,170.0751,170.5722,,,170.8208,171.3122,right,0.4854,,,,,,,,,0.4,,,,,,170.5723,170.8208,171.3122,"[0.13100680690918287,-0.013863291763459644]","[1,1,1]","[-0.05949871869938334,0.06813517810914985]","[-1,-1,-1]","[0.11089796857663099,-0.08418745249291901]","[1,1,1]","[0.16446174358220872,0.10044933831637859]","[-1,-1,-1]","[-0.083760698013192,0.1011882806583899]","[1,1,1]","[0.04357887284553494,0.16938661653844156]","[1,1,1]","[-0.042121626461094824,-0.11476141946846252]","[-1,-1,-1]","[-0.1888709594030518,-0.052983055128962814]","[-1,-1,-1]","[0.04814140802418066,-0.015947521610966728]","[1,1,1]","[-0.07731584869009225,-0.08836826846037658]","[-1,-1,-1]","[-0.07672610617464833,-0.14841941068192382]","[-1,-1,-1]","[-0.17933831258802116,0.07647995300100575]","[-1,-1,-1]","[-0.09748997428600539,0.15705388801005482]","[1,1,1]","[-0.00992726680264252,0.08478880891980854]","[-1,-1,-1]","[-0.0427997485988778,0.1292590729006003]","[-1,-1,-1]","[-0.11548007824540354,-0.07247949151189134]","[-1,-1,-1]","[-0.059494465683672455,-0.027375108768338163]","[-1,-1,-1]","[-0.003742681969023047,-0.011285513498030999]","[-1,-1,-1]","[0.04734355358921422,-0.12833657994818048]","[1,1,1]","[0.027218580996600697,-0.08306195926918941]","[-1,-1,-1]","[-0.10858560543047616,0.06695016537834061]","[-1,-1,-1]","[0.08856948694177089,-0.04234305123392313]","[1,1,1]","[0.12543554317143787,-0.14277633318606187]","[1,1,1]","[0.06667559888513452,0.12992846355112386]","[-1,-1,-1]","[0.09406033468713057,0.17626547144588317]","[-1,-1,-1]","[-0.19620500099624602,0.038736180275579055]","[-1,-1,-1]","[-0.036919942042022154,0.1955472140216525]","[1,1,1]","[0.05774004694051037,-0.1696458733944867]","[1,1,1]","[-0.11044898935316655,-0.12567675174400372]","[1,1,1]","[0.04860201620650953,0.07878154728838982]","[-1,-1,-1]","[-0.14638805054213566,-0.007442987384022158]","[1,1,1]","[-0.01474116838448234,0.035526762569450976]","[-1,-1,-1]","[0.02,0.02]",172.4096,0,9,9,49,1,,,,,,,
,,,,,,,5e8a5a892f6f027054a83d88,682f0fb95704f10fc35dc60b,2025-05-22_13h51.50.805,cuing_paradigm_dot,2024.1.5,Win32,166.6666667,682d573fa47f1360d1451895,,,,,,,,,,,172.4098,172.9069,,,173.1557,173.7377,left,0.58,,,,,,,,,0.5,,,,,,172.9069,173.1557,173.7377,"[0.0305837600799339,-0.17567149403204982]","[-1,-1,-1]","[-0.05526636156352754,-0.02431200736663402]","[1,1,1]","[-0.08341863538910917,-0.15316086431616943]","[1,1,1]","[-0.12674568100368863,0.1514407035116841]","[1,1,1]","[-0.1273062261756743,0.09909207969070755]","[-1,-1,-1]","[-0.04980513193800896,0.11185606571201157]","[-1,-1,-1]","[0.10005933879426045,0.08819231293054333]","[-1,-1,-1]","[-0.1279174748946619,-0.04538228766863553]","[-1,-1,-1]","[0.04797167370968244,-0.10869118532892849]","[1,1,1]","[-0.019800283802648925,0.023572451398684413]","[1,1,1]","[0.17505520546902703,0.03614401801350755]","[-1,-1,-1]","[0.05451550665902778,-0.048181994910993606]","[-1,-1,-1]","[-0.011442426270440136,-0.14631372653713035]","[1,1,1]","[0.15918789478898618,0.08091075207705613]","[-1,-1,-1]","[0.14234321660076937,-0.0443298148787496]","[1,1,1]","[-0.13751136553372198,-0.09982117575591691]","[-1,-1,-1]","[0.08123463643641458,-0.14014990422748733]","[-1,-1,-1]","[-0.035445296595512474,-0.08776719629594548]","[1,1,1]","[-0.04065990101212907,-0.17774983325689991]","[1,1,1]","[0.03102876591495473,0.1394327797995632]","[1,1,1]","[0.0454480702678911,0.18322885025027763]","[1,1,1]","[0.06231975872381712,0.02637323729124077]","[-1,-1,-1]","[-0.04133519939391642,0.1827801120952883]","[1,1,1]","[0.1478301796989465,-0.1198704809868887]","[1,1,1]","[-0.058237834870992725,0.05715169359010744]","[-1,-1,-1]","[0.03545195650315895,0.06101021092517405]","[1,1,1]","[0.0033460935256705415,0.10837697343984584]","[-1,-1,-1]","[0.1157160569206543,0.024808911902094517]","[1,1,1]","[-0.17428260092903838,-0.023076294305891483]","[-1,-1,-1]","[-0.14995121816471957,0.05760201923709245]","[-1,-1,-1]","[-0.09480619881256987,-0.11273975160412929]","[1,1,1]","[-0.01099602984237739,-0.019793467727343098]","[-1,-1,-1]","[0.02,0.02]",174.8353,0,10,10,111,1,,,,,,,
,,,,,,,5e8a5a892f6f027054a83d88,682f0fb95704f10fc35dc60b,2025-05-22_13h51.50.805,cuing_paradigm_dot,2024.1.5,Win32,166.6666667,682d573fa47f1360d1451895,,,,,,,,,,,174.8355,175.3326,,,175.5813,176.0967,left,0.5135,,,,,,,,,0.6,,,,,,175.3327,175.5813,176.0967,"[0.05449381608361328,0.1760365966793698]","[-1,-1,-1]","[0.12423415520693191,-0.13191816994172434]","[1,1,1]","[-0.1487127883529935,0.04823776108927044]","[-1,-1,-1]","[0.07905676538653526,-0.166594407764967]","[1,1,1]","[0.01984914159389093,0.150593255745108]","[-1,-1,-1]","[-0.13471829944982458,0.10630769131565822]","[1,1,1]","[-0.15373927645763732,-0.07892704134304372]","[-1,-1,-1]","[-0.0342031606379711,0.022795498461522096]","[1,1,1]","[-0.0691767440618882,0.10123080263658307]","[-1,-1,-1]","[-0.10841214798970794,0.05670658914705984]","[1,1,1]","[-0.028282986297301266,0.19146592988303943]","[1,1,1]","[0.062045086325644,0.11747735847281995]","[-1,-1,-1]","[-0.06051831185028382,0.1588746038483641]","[1,1,1]","[-0.03440837239062647,-0.15604783628256258]","[1,1,1]","[-0.06587504083864017,-0.0034832941478515375]","[-1,-1,-1]","[0.18362249529515814,0.016166984531533358]","[1,1,1]","[0.10240733162295845,0.05474636607532442]","[1,1,1]","[0.01149759593537812,0.09121464960820887]","[-1,-1,-1]","[0.03563004292753614,-0.15384724915831363]","[1,1,1]","[0.16062279372532345,-0.08510036777507243]","[-1,-1,-1]","[-0.12491081653205569,-0.112995453967961]","[1,1,1]","[-0.011249990138628749,-0.041897838050623595]","[-1,-1,-1]","[-0.17698925923723657,-0.017563802307575083]","[1,1,1]","[0.16307977076954983,-0.03917998122552444]","[1,1,1]","[0.08531926149381497,-0.07155469640904964]","[-1,-1,-1]","[-0.12499074910578019,-0.020954505954499023]","[1,1,1]","[0.010275989383145334,-0.11045328996110115]","[-1,-1,-1]","[0.11619546377235444,0.13008539374589445]","[-1,-1,-1]","[-0.048272083054756325,-0.07471273340854671]","[1,1,1]","[0.1539105662664851,0.05049048225199431]","[1,1,1]","[-0.03135103241762135,0.071703803302527]","[1,1,1]","[0.05292305044378205,-0.11319077148580056]","[1,1,1]","[0.02,0.02]",177.1943,0,11,11,179,1,,,,,,,
,,,,,,,5e8a5a892f6f027054a83d88,682f0fb95704f10fc35dc60b,2025-05-22_13h51.50.805,cuing_paradigm_dot,2024.1.5,Win32,166.6666667,682d573fa47f1360d1451895,,,,,,,,,,,177.1944,177.6916,,,177.9403,178.4678,left,0.5234,,,,,,,,,0.9,,,,,,177.6916,177.9403,178.4678,"[-0.17200043607837945,0.04710972267995891]","[1,1,1]","[-0.07745972261703747,-0.13262858770276342]","[1,1,1]","[-0.1701749966927389,-0.019298047147449496]","[1,1,1]","[0.09858132740404064,0.007498692873710714]","[-1,-1,-1]","[0.13451187051141572,0.12465811390798419]","[1,1,1]","[-0.02535079030458429,0.028467143840303334]","[1,1,1]","[-0.014848664204859646,-0.19918527553083906]","[1,1,1]","[0.14981777796319878,-0.12896392791643027]","[1,1,1]","[0.17088019126555723,-0.04995852884530746]","[1,1,1]","[-0.003354702251646802,0.1779466748662048]","[1,1,1]","[-0.11120118997323791,0.08773241009453611]","[-1,-1,-1]","[-0.07898518218780687,0.03728645281032261]","[1,1,1]","[0.0075084644267751225,-0.13884086562319684]","[1,1,1]","[0.003929767579944182,0.07804066408548475]","[1,1,1]","[0.046808420994160514,0.15773998870928688]","[1,1,1]","[0.0838589543491575,0.05560117443435894]","[1,1,1]","[0.168954459341012,0.10289937215204407]","[1,1,1]","[0.03599821313410354,0.0339322172400423]","[1,1,1]","[0.033263780905688434,-0.05375635264588668]","[1,1,1]","[0.10348755580884512,-0.09845212309329089]","[1,1,1]","[-0.027174166257674576,-0.07493271212347104]","[1,1,1]","[-0.09185927025282102,0.17323953593305091]","[1,1,1]","[-0.13677299689088898,-0.10383342889202947]","[1,1,1]","[0.0983278658555538,0.09643917494556359]","[1,1,1]","[-0.04771865930169255,-0.1701557278457528]","[1,1,1]","[-0.07390908033011621,-0.05923485822909188]","[1,1,1]","[-0.06352213299216833,0.12966733916803608]","[-1,-1,-1]","[0.09465405292168616,-0.03985199999185538]","[1,1,1]","[0.17575690928009127,0.0017152687502600145]","[1,1,1]","[0.06684553591351963,0.12188191368628115]","[1,1,1]","[0.11877588559452332,-0.15609105315922167]","[1,1,1]","[-0.09291303504636514,-0.17047240438344713]","[1,1,1]","[0.02,0.02]",179.5654,0,12,12,187,1,,,,,,,
,,,,,,,5e8a5a892f6f027054a83d88,682f0fb95704f10fc35dc60b,2025-05-22_13h51.50.805,cuing_paradigm_dot,2024.1.5,Win32,166.6666667,682d573fa47f1360d1451895,,,,,,,,,,,179.5655,180.0626,,,180.3113,181.0086,right,0.6858,,,,,,,,,0.5,,,,,,180.0626,180.3113,181.0087,"[0.14794761749409072,-0.001210303507822708]","[1,1,1]","[-0.09034639150069174,0.09780410892542547]","[-1,-1,-1]","[-0.17627736570549177,0.0925256916947475]","[-1,-1,-1]","[-0.06572390984033329,-0.12106479129441636]","[-1,-1,-1]","[-0.1338774184868745,-0.033786304043483734]","[1,1,1]","[0.045383857533606825,0.1786626086327493]","[1,1,1]","[-0.09324901164958305,-0.02851502648837424]","[1,1,1]","[-0.008967375474730378,0.08802104879459072]","[-1,-1,-1]","[0.17703985405864325,0.034500591914575926]","[1,1,1]","[-0.044830131991347826,0.1438154985352199]","[-1,-1,-1]","[0.043017803853587756,-0.18399982950903815]","[-1,-1,-1]","[-0.10262510103564122,0.1398937290298678]","[1,1,1]","[-0.07754720504716661,-0.07278480195489433]","[-1,-1,-1]","[0.11394460894783211,-0.16042357239353683]","[1,1,1]","[-0.012602231541356965,-0.10537910828654941]","[1,1,1]","[0.15525395552412283,-0.09197943141916817]","[-1,-1,-1]","[0.02150532917444985,-0.04345185711516141]","[-1,-1,-1]","[0.07809250885389608,-0.06130986656398896]","[-1,-1,-1]","[-0.003542647942710942,0.1543808246441898]","[1,1,1]","[-0.17192782133120932,-0.010620076338019742]","[1,1,1]","[-0.1520780276778038,-0.12874529351853212]","[-1,-1,-1]","[0.17417878941877252,0.08125206133579228]","[1,1,1]","[0.06589036539536562,0.05969597300021706]","[-1,-1,-1]","[-0.008236196534739927,-0.008586075448121653]","[1,1,1]","[0.04155296116267158,0.11207343993104617]","[1,1,1]","[0.10737578621767838,0.13022134117915296]","[-1,-1,-1]","[-0.16481867232296935,-0.07085446033492301]","[1,1,1]","[0.1834817386311938,-0.026235684433563666]","[-1,-1,-1]","[-0.11675177253607474,0.05014170701915571]","[1,1,1]","[0.12501377525615023,0.07730006514585423]","[-1,-1,-1]","[0.067478006566597,0.14425089156186083]","[-1,-1,-1]","[0.03073990411538273,-0.11181163597694187]","[1,1,1]","[0.02,0.02]",182.1063,0,13,13,92,1,,,,,,,
,,,,,,,5e8a5a892f6f027054a83d88,682f0fb95704f10fc35dc60b,2025-05-22_13h51.50.805,cuing_paradigm_dot,2024.1.5,Win32,166.6666667,682d573fa47f1360d1451895,,,,,,,,,,,182.1065,182.6036,,,182.8523,183.3192,left,0.4552,,,,,,,,,0.9,,,,,,182.6036,182.8523,183.3192,"[0.03166034978048323,0.125265141812524]","[1,1,1]","[0.06827665592939561,-0.028879907999197974]","[1,1,1]","[-0.000029358527770953326,-0.02079729941184739]","[1,1,1]","[0.17791320577345543,-0.008990057807425447]","[1,1,1]","[-0.026393976882741647,-0.16892921164376898]","[1,1,1]","[-0.03938467489017229,0.006076601803009752]","[1,1,1]","[0.09748295538364184,0.05662791080166301]","[1,1,1]","[0.14815933144277144,0.05716688024442646]","[1,1,1]","[-0.04642027830576378,0.09613859119293369]","[1,1,1]","[-0.024358723033796166,-0.12027561784422783]","[1,1,1]","[-0.035322352255242606,-0.057062959864468875]","[1,1,1]","[0.07500512191570001,-0.10868314937076336]","[1,1,1]","[0.08798449461138944,-0.15413207299080528]","[1,1,1]","[-0.1778595094253015,-0.04131512001582407]","[1,1,1]","[-0.11844783348451485,0.05454553078437184]","[1,1,1]","[-0.1738980034844168,0.06396782805753014]","[1,1,1]","[-0.15612333625705443,-0.0023456633306105394]","[1,1,1]","[0.17597216682697278,-0.04899325043278672]","[-1,-1,-1]","[0.022430683923027446,-0.1474960137194906]","[1,1,1]","[0.10091404327630095,-0.07402898385684546]","[1,1,1]","[-0.05819070408081874,0.1486902075215301]","[-1,-1,-1]","[-0.003878682456975524,0.19375376853388188]","[1,1,1]","[0.012295760715251246,-0.19483011086766505]","[1,1,1]","[0.13873572013568514,0.010686556771094764]","[1,1,1]","[-0.048002738426443044,0.04806345657780324]","[1,1,1]","[-0.08095361503386882,-0.12479746635412947]","[1,1,1]","[-0.0898438468299188,-0.07924333064974119]","[1,1,1]","[-0.0979968754391231,0.09447236876122919]","[-1,-1,-1]","[0.04490598782494881,0.1771498651724978]","[1,1,1]","[0.07268816353945268,0.012961255384676233]","[1,1,1]","[-0.10224083085618697,0.15288942102926295]","[1,1,1]","[0.09126868277339588,0.14119604505945255]","[1,1,1]","[0.02,0.02]",184.4167,0,14,14,208,1,,,,,,,
,,,,,,,5e8a5a892f6f027054a83d88,682f0fb95704f10fc35dc60b,2025-05-22_13h51.50.805,cuing_paradigm_dot,2024.1.5,Win32,166.6666667,682d573fa47f1360d1451895,,,,,,,,,,,184.4168,184.914,,,185.1626,185.5751,right,0.4033,,,,,,,,,0.1,,,,,,184.914,185.1626,185.5751,"[0.17097985918771325,-0.05565922199887437]","[-1,-1,-1]","[-0.10127078531278856,-0.12042659694316239]","[-1,-1,-1]","[-0.08310949691639138,-0.06073822615899772]","[1,1,1]","[0.10783159486822201,0.11173732099033358]","[-1,-1,-1]","[0.19133350997396317,0.032481302050460625]","[-1,-1,-1]","[-0.015833315404224214,0.0988859612796922]","[-1,-1,-1]","[-0.10160393274652207,0.16991774501395993]","[-1,-1,-1]","[-0.13712160866035258,-0.07042646379990943]","[-1,-1,-1]","[-0.06329382933381894,0.15556425807721228]","[-1,-1,-1]","[-0.052406133620123245,0.021366729648459405]","[-1,-1,-1]","[-0.040396555316722114,-0.09160671293191366]","[-1,-1,-1]","[0.09102619287100465,0.14952455064668088]","[-1,-1,-1]","[0.10800316673491109,-0.09114446633814857]","[1,1,1]","[0.026367758700067863,0.11701359238909456]","[-1,-1,-1]","[0.09670572753725255,-0.1548290849591405]","[-1,-1,-1]","[0.04506170059723339,0.16286164272392337]","[1,1,1]","[-0.022651395750294134,0.17185745689383125]","[-1,-1,-1]","[-0.10883401997214774,0.00853290369740341]","[-1,-1,-1]","[0.012802294754103428,-0.08467393997114232]","[-1,-1,-1]","[-0.06477817182744808,0.07788659843065958]","[-1,-1,-1]","[-0.05949757096829235,-0.026897847437762214]","[-1,-1,-1]","[-0.02378292279916469,-0.18811412625137267]","[-1,-1,-1]","[-0.011228714459772323,0.016946318794569898]","[-1,-1,-1]","[0.059986472665627365,-0.03516377453754698]","[-1,-1,-1]","[-0.0555394033944925,-0.1525423930044297]","[-1,-1,-1]","[0.14865808126118954,0.05696341528001641]","[-1,-1,-1]","[-0.18366661007255855,-0.06178973847446404]","[-1,-1,-1]","[0.05145171168524086,-0.11805501536778026]","[-1,-1,-1]","[-0.16873232710295746,0.006261954735690381]","[-1,-1,-1]","[0.04739103970969573,0.05185769668404053]","[-1,-1,-1]","[-0.12112669466575027,0.12429812075405329]","[-1,-1,-1]","[0.007949850143382313,-0.1424891994015141]","[-1,-1,-1]","[0.02,0.02]",186.6726,0,15,15,8,1,,,,,,,
,,,,,,,5e8a5a892f6f027054a83d88,682f0fb95704f10fc35dc60b,2025-05-22_13h51.50.805,cuing_paradigm_dot,2024.1.5,Win32,166.6666667,682d573fa47f1360d1451895,,,,,,,,,,,186.6727,187.1698,,,187.4186,187.8673,right,0.437,,,,,,,,,0.1,,,,,,187.1698,187.4186,187.8673,"[-0.02634539388985695,-0.05017196150754833]","[-1,-1,-1]","[-0.06717157904645386,-0.044600218505458214]","[-1,-1,-1]","[-0.0691340724738885,-0.14522794697882882]","[-1,-1,-1]","[-0.1816353781798194,0.02954884661815471]","[-1,-1,-1]","[0.06205897450683668,0.1829297243307547]","[-1,-1,-1]","[-0.047809411408168384,-0.09153084924492651]","[-1,-1,-1]","[0.13769334503765918,-0.05902997520790005]","[1,1,1]","[-0.019659257426788968,0.10873079744841158]","[-1,-1,-1]","[0.07118588163685795,-0.08119839286134001]","[-1,-1,-1]","[-0.14013223596100363,0.030815890596320603]","[-1,-1,-1]","[0.06680281022199991,-0.13172351625829745]","[-1,-1,-1]","[0.006949952424009026,0.007332723646910079]","[1,1,1]","[0.03687709805786256,0.11020155166314376]","[-1,-1,-1]","[0.13481693648167706,-0.11525487180324799]","[-1,-1,-1]","[0.03895741383669838,0.06203829737473103]","[-1,-1,-1]","[-0.05394351841354206,0.019494251061970797]","[-1,-1,-1]","[0.10630597774800035,0.10853376727235299]","[-1,-1,-1]","[-0.1454540716040058,-0.027183584400837346]","[-1,-1,-1]","[0.05634402238065001,-0.18368268115663486]","[-1,-1,-1]","[0.014827493035938529,-0.03791056686594497]","[-1,-1,-1]","[-0.12114925338328655,-0.14518210922112515]","[-1,-1,-1]","[0.1494592314584474,0.09264970155713109]","[-1,-1,-1]","[0.1629858833527251,0.03775196982958245]","[1,1,1]","[0.1423585342049202,-0.014466844827068635]","[-1,-1,-1]","[-0.08513957942992752,0.12957901368713276]","[-1,-1,-1]","[0.1878774491359238,-0.0032152384394381443]","[-1,-1,-1]","[-0.00008384499371835687,-0.13281795637091656]","[-1,-1,-1]","[-0.16761285961812258,-0.10299535051596304]","[-1,-1,-1]","[-0.1043696751501386,0.08916460374008844]","[-1,-1,-1]","[-0.022894430735755082,0.16812097450091948]","[-1,-1,-1]","[0.07559467803921639,0.02222917258390415]","[-1,-1,-1]","[-0.0834385154130249,0.05416927011028064]","[-1,-1,-1]","[0.02,0.02]",188.9649,0,16,16,14,1,,,,,,,
,,,,,,,5e8a5a892f6f027054a83d88,682f0fb95704f10fc35dc60b,2025-05-22_13h51.50.805,cuing_paradigm_dot,2024.1.5,Win32,166.6666667,682d573fa47f1360d1451895,,,,,,,,,,,188.965,189.4621,,,189.7108,190.1172,left,0.3962,,,,,,,,,0.6,,,,,,189.4621,189.7108,190.1172,"[-0.08179559960542573,0.09801594484446283]","[-1,-1,-1]","[-0.08036319160770157,-0.05176920869812664]","[1,1,1]","[-0.11981430453504899,-0.11512225086021237]","[1,1,1]","[0.05113416198107693,-0.0877059575013482]","[1,1,1]","[-0.05076015542314442,0.059230061426478985]","[1,1,1]","[0.151563994814123,-0.06822121804926966]","[-1,-1,-1]","[0.1004696838823288,0.05530749480281928]","[-1,-1,-1]","[-0.09481427471402765,-0.16620498654383084]","[-1,-1,-1]","[0.03394320567090235,0.06011017243984293]","[-1,-1,-1]","[-0.1614012765354874,-0.048500281600615744]","[1,1,1]","[0.06474762947036897,-0.02003803919338073]","[1,1,1]","[-0.0135410916914899,0.15213351662483016]","[1,1,1]","[0.09106080993227816,-0.14152345997624755]","[-1,-1,-1]","[0.14317933645885458,-0.11781651927471133]","[1,1,1]","[-0.04356116494075479,-0.03169161635404484]","[1,1,1]","[0.019505373995268454,-0.05965246341995586]","[-1,-1,-1]","[0.10575468421388799,-0.019744280546870604]","[-1,-1,-1]","[-0.05055597870076651,-0.15298252904672693]","[1,1,1]","[0.036229679824897054,0.10521011993991083]","[1,1,1]","[-0.12982546243713095,0.1285289800666111]","[-1,-1,-1]","[0.06868547199900019,0.16183085215437035]","[1,1,1]","[-0.07314846004514368,0.14510224394095353]","[1,1,1]","[0.17711297211840574,0.08473496490536377]","[-1,-1,-1]","[0.1474671025658943,-0.018851600732755228]","[1,1,1]","[0.016692211163055443,0.005930799317223408]","[-1,-1,-1]","[-0.156969570282727,0.07875328272668865]","[1,1,1]","[-0.19115457628256158,0.02912659653059779]","[1,1,1]","[0.04673100304648426,-0.1865691195727899]","[-1,-1,-1]","[0.02423800205902626,0.1671103601978512]","[1,1,1]","[-0.0007802397147919984,-0.15394611911240996]","[1,1,1]","[-0.03851113334697539,-0.10003550671263352]","[1,1,1]","[0.10121714012183611,0.13704273027957395]","[-1,-1,-1]","[0.02,0.02]",191.2147,0,17,17,153,1,,,,,,,
,,,,,,,5e8a5a892f6f027054a83d88,682f0fb95704f10fc35dc60b,2025-05-22_13h51.50.805,cuing_paradigm_dot,2024.1.5,Win32,166.6666667,682d573fa47f1360d1451895,,,,,,,,,,,191.2148,191.712,,,191.9608,192.4457,left,0.4775,,,,,,,,,0.55,,,,,,191.712,191.9608,192.4457,"[-0.10457003688756313,0.030481240610994883]","[-1,-1,-1]","[-0.06473978832992615,0.06020253480310207]","[1,1,1]","[0.14121491602962638,-0.09361530162503999]","[-1,-1,-1]","[0.07196187561048521,-0.1377096517460477]","[-1,-1,-1]","[-0.05380521494274874,0.1203613658158405]","[-1,-1,-1]","[0.01431075689148724,-0.13676692569772173]","[-1,-1,-1]","[-0.059985714541414985,-0.13573509032215947]","[1,1,1]","[0.011444332005753009,0.02070498514738834]","[1,1,1]","[-0.17544310685323952,-0.0911261140410095]","[-1,-1,-1]","[-0.12062270693473907,-0.03869775958825725]","[1,1,1]","[0.13069568664791556,0.10740902376373182]","[-1,-1,-1]","[-0.15689201386159382,-0.011740088995056129]","[1,1,1]","[0.08236042955526086,-0.024540258597748707]","[1,1,1]","[0.13393626112180612,-0.04798739559715382]","[-1,-1,-1]","[0.011004090291728049,-0.08736163079465539]","[-1,-1,-1]","[0.0748547572787515,0.1295177958027772]","[1,1,1]","[-0.15067262921186209,0.07389087788109922]","[1,1,1]","[-0.10560116842339998,-0.11155299686111807]","[1,1,1]","[0.18346928564408826,0.050613973782434304]","[-1,-1,-1]","[0.06817348896185585,-0.18554793005780795]","[1,1,1]","[-0.09404125789513561,0.14958043336996307]","[-1,-1,-1]","[-0.1442153206125404,0.11881598128089498]","[1,1,1]","[-0.060386573002387645,-0.09324626816887883]","[1,1,1]","[0.1285341561689492,0.06061753369370177]","[1,1,1]","[0.09916355208755422,-0.10418055359142124]","[-1,-1,-1]","[0.17052408017225457,-0.016707129858366858]","[1,1,1]","[-0.07633354680089768,-0.04062240741790944]","[-1,-1,-1]","[-0.01652464671217375,-0.18429220561347726]","[-1,-1,-1]","[-0.18748300167189114,0.016031882650421703]","[1,1,1]","[-0.030615064109056282,0.18682058871282264]","[1,1,1]","[0.12456303237981746,-0.13756992546452645]","[1,1,1]","[0.05246869990277914,-0.060382768708236854]","[1,1,1]","[0.02,0.02]",193.5433,0,18,18,129,1,,,,,,,
,,,,,,,5e8a5a892f6f027054a83d88,682f0fb95704f10fc35dc60b,2025-05-22_13h51.50.805,cuing_paradigm_dot,2024.1.5,Win32,166.6666667,682d573fa47f1360d1451895,,,,,,,,,,,193.5434,194.0406,,,194.2894,194.7441,left,0.4477,,,,,,,,,0.6,,,,,,194.0406,194.2894,194.7441,"[-0.07626288263419229,0.1814244220756246]","[1,1,1]","[0.07906466465843151,-0.12378618414765251]","[1,1,1]","[0.008875269397487477,-0.07171902971345273]","[-1,-1,-1]","[0.1839624987613107,0.026044326852209768]","[-1,-1,-1]","[0.09763108056459405,-0.013398087180684663]","[1,1,1]","[-0.13551389938485175,0.08776037175256463]","[1,1,1]","[0.1921873092954717,-0.040937693155968624]","[-1,-1,-1]","[-0.0447726007061211,0.07988866519916353]","[1,1,1]","[-0.1864671500641454,-0.034381618437336385]","[1,1,1]","[-0.031764130874280976,-0.07272984985445495]","[1,1,1]","[-0.1532886886300362,0.03393505768690615]","[1,1,1]","[-0.12758938796493696,-0.12782432067884292]","[-1,-1,-1]","[-0.10550774096787438,-0.0410032987782746]","[1,1,1]","[0.011892384567053977,-0.14892152690913532]","[1,1,1]","[-0.012278564110017366,0.003038333105624736]","[1,1,1]","[-0.07027130377816095,0.0010171694915009322]","[-1,-1,-1]","[-0.09117650623073907,-0.09508620211407268]","[1,1,1]","[-0.060700680910162286,-0.12560620764942237]","[-1,-1,-1]","[0.16051705886425505,0.07333227958015469]","[1,1,1]","[0.17027142203809506,-0.08855462866310404]","[1,1,1]","[0.01056406719236281,0.16496813879862565]","[-1,-1,-1]","[0.0573951331342065,0.08779413313338313]","[-1,-1,-1]","[-0.07857958458719237,0.13536919014698728]","[1,1,1]","[-0.16484447995129906,-0.0873784865008079]","[-1,-1,-1]","[0.10908871788342651,0.08785758524182473]","[1,1,1]","[-0.14402558509051183,-0.016659668145983117]","[1,1,1]","[0.11525635600982345,0.131487136165012]","[1,1,1]","[0.062079346542222844,0.007731542907183818]","[-1,-1,-1]","[0.059960090198509196,-0.18192561816330446]","[-1,-1,-1]","[0.037541236533506904,0.05078892453295329]","[-1,-1,-1]","[0.024212289321746,0.12238589531992308]","[-1,-1,-1]","[-0.0009708436431624525,0.07286553918624668]","[1,1,1]","[0.02,0.02]",195.8416,0,19,19,163,1,,,,,,,
,,,,,,,5e8a5a892f6f027054a83d88,682f0fb95704f10fc35dc60b,2025-05-22_13h51.50.805,cuing_paradigm_dot,2024.1.5,Win32,166.6666667,682d573fa47f1360d1451895,,,,,,,,,,,195.8417,196.3389,,,196.5876,196.9089,right,0.3096,,,,,,,,,0.1,,,,,,196.339,196.5876,196.9089,"[0.13327932695636635,0.010288229677548067]","[-1,-1,-1]","[-0.12677437924857482,0.044313838957336336]","[-1,-1,-1]","[0.012157210268887766,0.09670522776571047]","[-1,-1,-1]","[0.16228252102084695,0.08210448059968813]","[-1,-1,-1]","[-0.07633467846890052,-0.04042603119200106]","[-1,-1,-1]","[0.10843459971430419,-0.12194346293630304]","[-1,-1,-1]","[0.10200019750464187,-0.03994008350970146]","[-1,-1,-1]","[-0.08258082051871866,-0.08374605111957628]","[-1,-1,-1]","[0.09757114717978112,-0.16555924997056126]","[-1,-1,-1]","[-0.08602929621234194,0.09938443501272819]","[-1,-1,-1]","[0.16499644189755394,-0.10520988502614709]","[1,1,1]","[0.06402933121027769,-0.05342516301744364]","[-1,-1,-1]","[0.175141568807137,0.018633626130669545]","[-1,-1,-1]","[-0.06287495057452742,0.1488317744068189]","[-1,-1,-1]","[0.09066630413135107,0.03549360925154441]","[-1,-1,-1]","[-0.04635056706408607,-0.12955204806383447]","[-1,-1,-1]","[0.02663238933541378,-0.19670160977927825]","[-1,-1,-1]","[-0.032868481414115976,-0.0009571910200344001]","[-1,-1,-1]","[0.046866725296607945,-0.12598151496750462]","[1,1,1]","[0.07711888811282618,0.1508489589810131]","[-1,-1,-1]","[-0.15660223449097052,-0.014484948600451167]","[-1,-1,-1]","[-0.1617620234537014,0.08120389295544904]","[-1,-1,-1]","[-0.07473581972900115,0.02067167553915085]","[1,1,1]","[-0.15167757342758006,-0.06281603780112825]","[-1,-1,-1]","[-0.10293544239915066,0.1484091880861412]","[-1,-1,-1]","[-0.11034757211542828,-0.13140650716694613]","[-1,-1,-1]","[-0.021173298298033542,0.1820245263937789]","[-1,-1,-1]","[-0.11110478045220998,-0.018181518055781762]","[-1,-1,-1]","[0.011697115962915124,-0.04448222202759768]","[-1,-1,-1]","[-0.049485732802050174,0.058247413247348466]","[-1,-1,-1]","[-0.031188301943624715,-0.06568038560752279]","[-1,-1,-1]","[-0.13892617947178415,0.12437018015158256]","[-1,-1,-1]","[0.02,0.02]",198.0066,0,20,20,9,1,,,,,,,
,,,,,,,5e8a5a892f6f027054a83d88,682f0fb95704f10fc35dc60b,2025-05-22_13h51.50.805,cuing_paradigm_dot,2024.1.5,Win32,166.6666667,682d573fa47f1360d1451895,,,,,,,,,,,198.0068,198.5039,,,198.7526,199.0923,left,0.3334,,,,,,,,,0.9,,,,,,198.5039,198.7526,199.0924,"[-0.13271825742889967,-0.06672410704719062]","[1,1,1]","[0.16075927419521857,-0.029318892983935644]","[1,1,1]","[0.1315954083162819,-0.12010864759538441]","[1,1,1]","[-0.1287638229829467,0.08160364857109227]","[1,1,1]","[0.07912633393189311,-0.17532722777482634]","[1,1,1]","[-0.05957841442480251,0.07400586796966883]","[1,1,1]","[0.10385762582187595,-0.05887995044342832]","[1,1,1]","[-0.020888057201672135,0.16795144886568938]","[1,1,1]","[-0.02874821532826194,0.022231523840802726]","[-1,-1,-1]","[-0.0572077663672742,0.14883976746038757]","[1,1,1]","[0.08022434198021108,0.16352118047216974]","[1,1,1]","[-0.009887177206186488,0.060404064893140444]","[1,1,1]","[0.025380366965457726,-0.07515833342930216]","[1,1,1]","[-0.11610458150161204,-0.01792547271737496]","[1,1,1]","[0.05514551136573724,0.10204720338595108]","[1,1,1]","[0.06678722287472912,-0.12645516065664408]","[-1,-1,-1]","[-0.09375715505537682,0.04401197879171112]","[1,1,1]","[-0.06882320447232851,-0.13386507062128045]","[1,1,1]","[-0.09907761292610362,0.1252896179754139]","[1,1,1]","[-0.0032016588904822457,-0.14783722410934894]","[1,1,1]","[-0.01678595018677155,-0.06903495764793831]","[1,1,1]","[0.033985696776409585,0.060372523866016305]","[1,1,1]","[0.15428907152204605,0.10999194109999863]","[1,1,1]","[-0.13283314020777562,-0.12498962916578557]","[1,1,1]","[-0.17688066953790613,0.0066208764371241645]","[1,1,1]","[0.1548857472755739,-0.07051720401998574]","[-1,-1,-1]","[0.08597116515846373,-0.009382277520577957]","[1,1,1]","[0.02857941854209655,0.01698175631417197]","[1,1,1]","[0.10280645692571752,0.07012308040223615]","[1,1,1]","[0.19002190177773876,0.016210888276617996]","[1,1,1]","[-0.021903083010463936,-0.02789324767999418]","[1,1,1]","[-0.05982879459608684,-0.0935370245818326]","[1,1,1]","[0.02,0.02]",200.1897,0,21,21,189,1,,,,,,,
,,,,,,,5e8a5a892f6f027054a83d88,682f0fb95704f10fc35dc60b,2025-05-22_13h51.50.805,cuing_paradigm_dot,2024.1.5,Win32,166.6666667,682d573fa47f1360d1451895,,,,,,,,,,,200.1899,200.6869,,,200.9357,201.7907,right,0.8485,,,,,,,,,0.45,,,,,,200.6869,200.9356,201.7907,"[0.08517789719289257,-0.1802165402677413]","[1,1,1]","[0.02020147174209214,0.08163724759941264]","[1,1,1]","[0.0547513109532141,0.04264356138741605]","[1,1,1]","[-0.1339684467955937,0.134615695027714]","[-1,-1,-1]","[-0.13661668879282868,0.027166626325302267]","[-1,-1,-1]","[0.15010916442237823,-0.0681819730994416]","[-1,-1,-1]","[0.008168162896116556,-0.11441493784863081]","[-1,-1,-1]","[-0.07571067446043916,-0.18426243355166097]","[-1,-1,-1]","[-0.08207958945489352,0.021539902765686243]","[1,1,1]","[0.007102214316102027,0.12104124214556812]","[-1,-1,-1]","[0.11318749259754261,-0.10899881025135762]","[1,1,1]","[-0.07225447797120021,0.11294041150303553]","[-1,-1,-1]","[-0.033619621263262234,0.03222608093704712]","[1,1,1]","[0.1955847920897504,0.014899391830251617]","[1,1,1]","[0.13306825622474575,0.032481904836537526]","[1,1,1]","[-0.09787732383940899,-0.04863765618609171]","[-1,-1,-1]","[0.004085952557766618,-0.05999935906960464]","[-1,-1,-1]","[-0.009795655837816362,0.18581337081666466]","[-1,-1,-1]","[-0.18753535140881697,-0.042775232625065676]","[-1,-1,-1]","[0.07375041146199231,-0.09007033970913998]","[-1,-1,-1]","[0.12224167199237478,-0.03843639638121507]","[1,1,1]","[-0.07686642058694455,0.06401040504970547]","[1,1,1]","[-0.049723520547299206,-0.04389275340166886]","[1,1,1]","[0.1721780945191411,0.09582875621459269]","[1,1,1]","[0.03048022027825198,-0.17971012700497135]","[-1,-1,-1]","[0.051883418572809765,0.12980439895491788]","[-1,-1,-1]","[-0.0821528246381326,-0.11917667865449402]","[1,1,1]","[0.11417845189271572,0.15117588708744534]","[-1,-1,-1]","[-0.1951841110640014,0.005811723693018463]","[-1,-1,-1]","[0.12576886120227743,0.07322368285509759]","[1,1,1]","[0.05514766166594551,-0.017557853197784905]","[-1,-1,-1]","[-0.03176949720728627,-0.17862687302294591]","[-1,-1,-1]","[0.02,0.02]",202.8882,0,22,22,60,1,,,,,,,
,,,,,,,5e8a5a892f6f027054a83d88,682f0fb95704f10fc35dc60b,2025-05-22_13h51.50.805,cuing_paradigm_dot,2024.1.5,Win32,166.6666667,682d573fa47f1360d1451895,,,,,,,,,,,202.8884,203.3855,,,203.6343,204.0405,left,0.3998,,,,,,,,,0.9,,,,,,203.3855,203.6343,204.0405,"[0.17148389756960483,-0.025679405850814362]","[1,1,1]","[-0.13258323858004617,0.07199053490324256]","[-1,-1,-1]","[0.095700454647381,0.1286015381863079]","[1,1,1]","[0.0626380105820183,0.06091229170244615]","[-1,-1,-1]","[-0.10775153738878686,-0.0139355043830925]","[1,1,1]","[0.02668690808870955,-0.016217920786931697]","[1,1,1]","[0.12189417359209333,-0.1426890720559818]","[1,1,1]","[0.038599523446795216,0.15312703605883785]","[1,1,1]","[-0.12200475257506695,-0.07856692457617033]","[-1,-1,-1]","[0.03268264636412695,-0.103600231997954]","[1,1,1]","[0.07463135313807981,-0.17043621154376576]","[1,1,1]","[0.08325238490591556,-0.09793989384019276]","[1,1,1]","[-0.061509365265381644,0.1898668908312087]","[1,1,1]","[-0.08520700888886533,0.10452039194997971]","[1,1,1]","[-0.0025756716431142076,0.08048507725241813]","[1,1,1]","[0.036698882693851936,0.10505471085952997]","[1,1,1]","[-0.008796051637937221,-0.10108539956968002]","[1,1,1]","[0.011200035109396649,-0.15976328086847347]","[1,1,1]","[0.13539923264879333,-0.08344584859293046]","[1,1,1]","[-0.003718279054721781,0.14848239153754825]","[1,1,1]","[-0.18589381537289917,-0.06798953340362227]","[1,1,1]","[-0.07580211475429444,-0.051917081571009556]","[1,1,1]","[-0.168665071063637,-0.0022462543530325616]","[1,1,1]","[0.06789934902157595,-0.013008391759631305]","[1,1,1]","[-0.04726470902222527,-0.1511317541967671]","[1,1,1]","[-0.02498632454454519,0.03768680126250149]","[1,1,1]","[-0.015443336742079919,-0.19584048077124164]","[1,1,1]","[0.07629073354838453,0.17962884859768943]","[1,1,1]","[0.1494073836254139,0.041191499635589136]","[1,1,1]","[-0.04836228162383149,-0.10733745069895204]","[1,1,1]","[0.11490759255320807,-0.02175140070133708]","[1,1,1]","[-0.0012333067446670526,-0.05731177095243812]","[1,1,1]","[0.02,0.02]",205.1381,0,23,23,201,1,,,,,,,
,,,,,,,5e8a5a892f6f027054a83d88,682f0fb95704f10fc35dc60b,2025-05-22_13h51.50.805,cuing_paradigm_dot,2024.1.5,Win32,166.6666667,682d573fa47f1360d1451895,,,,,,,,,,,205.1381,205.6353,,,205.884,206.2721,right,0.3789,,,,,,,,,0.1,,,,,,205.6353,205.884,206.2721,"[0.011078833702569907,0.06449668735319684]","[-1,-1,-1]","[-0.012426027424646107,0.13277621518233024]","[-1,-1,-1]","[0.054319885394410024,0.16571522966499136]","[-1,-1,-1]","[0.009948072808642554,-0.11880185615450362]","[-1,-1,-1]","[0.08352613179009448,-0.009846481899396473]","[-1,-1,-1]","[0.009896385018860405,-0.00433192313279548]","[1,1,1]","[0.06768045840354556,-0.14855419996697386]","[-1,-1,-1]","[-0.11094065179931802,-0.08385537374860158]","[-1,-1,-1]","[0.11184027437810655,0.09155324420944115]","[-1,-1,-1]","[-0.039940179394196564,-0.09180114532239902]","[1,1,1]","[0.09546076170816556,-0.06238660342503377]","[1,1,1]","[-0.005065665285064682,-0.19059280165592732]","[-1,-1,-1]","[0.1668399366723059,-0.08425028219730935]","[-1,-1,-1]","[0.002949116063373668,-0.05370224447512465]","[-1,-1,-1]","[-0.04664324104307993,-0.041595721309982035]","[-1,-1,-1]","[0.01129885334162254,0.16625626096500082]","[-1,-1,-1]","[-0.048457080512941376,0.03921951465110461]","[-1,-1,-1]","[-0.13786727764301698,0.13772377552648876]","[-1,-1,-1]","[-0.07944936846918703,0.16570282797931665]","[-1,-1,-1]","[0.05269168660516078,0.0610350568622601]","[-1,-1,-1]","[-0.15505090699304505,-0.017885715095066992]","[-1,-1,-1]","[0.04865425212411313,-0.03733871139428631]","[-1,-1,-1]","[-0.07594080809277802,0.09357369043900633]","[-1,-1,-1]","[0.15950046874478901,-0.008416348117588622]","[-1,-1,-1]","[0.05078374599140883,0.12583061822999303]","[-1,-1,-1]","[0.11708647980568705,-0.15382389046897088]","[-1,-1,-1]","[0.15670896724332956,0.12324398367227837]","[-1,-1,-1]","[0.18323201379979495,0.04744053691836585]","[-1,-1,-1]","[0.11563281475643539,0.15737649500351977]","[-1,-1,-1]","[0.045393108290740974,0.018359355739716077]","[-1,-1,-1]","[-0.16866272973912666,-0.1024498605186759]","[-1,-1,-1]","[0.14039896142536534,-0.047742944735269285]","[-1,-1,-1]","[0.02,0.02]",207.3698,0,24,24,15,1,,,,,,,
,,,,,,,5e8a5a892f6f027054a83d88,682f0fb95704f10fc35dc60b,2025-05-22_13h51.50.805,cuing_paradigm_dot,2024.1.5,Win32,166.6666667,682d573fa47f1360d1451895,,,,,,,,,,,207.3699,207.867,,,208.1157,209.1041,left,0.9769,,,,,,,,,0.5,,,,,,207.867,208.1157,209.1041,"[0.01952739582264692,-0.0854073949715102]","[-1,-1,-1]","[-0.11537653117970244,0.15119535795844402]","[1,1,1]","[-0.18922551402774118,0.0526666477161236]","[1,1,1]","[0.12390861166376908,-0.021586149872930258]","[-1,-1,-1]","[0.052858834731703205,-0.03277174251067825]","[1,1,1]","[0.05141609356696404,-0.10963801760384721]","[-1,-1,-1]","[0.05727847947441748,0.05518709857477091]","[1,1,1]","[0.15165919702275107,0.09431821401014172]","[1,1,1]","[-0.13652928783535676,-0.13709522311990585]","[1,1,1]","[0.1415390751693404,-0.07749432141254947]","[-1,-1,-1]","[-0.12076286958091537,-0.027189574148980714]","[-1,-1,-1]","[0.11143841316436605,-0.14080561174330097]","[1,1,1]","[-0.1379038385832112,0.10384349568091893]","[-1,-1,-1]","[-0.099465900267576,0.06868285801586357]","[1,1,1]","[-0.028985837309063,-0.10269864338093883]","[1,1,1]","[0.04536157183761523,0.010897712839084113]","[-1,-1,-1]","[-0.17760793235887107,-0.0027667736675149298]","[-1,-1,-1]","[-0.04258896243848476,-0.0537953782182427]","[1,1,1]","[-0.022133008867555856,-0.15827173924072074]","[1,1,1]","[0.09945049906695484,0.05633120446798597]","[-1,-1,-1]","[0.08467863181777763,0.10528614459595793]","[-1,-1,-1]","[0.10833090662817729,0.15792435348468184]","[-1,-1,-1]","[-0.0357863236782091,0.02306479466762009]","[-1,-1,-1]","[-0.07935740597898319,-0.07597241129706339]","[-1,-1,-1]","[-0.14142208324025518,-0.06599345235807007]","[1,1,1]","[-0.09249421001374279,-0.12415039340686398]","[1,1,1]","[0.1843362360991258,0.014139006274843016]","[1,1,1]","[-0.057193677457354895,0.1117367020528238]","[-1,-1,-1]","[0.01821476717541554,0.11049337179695111]","[1,1,1]","[0.05189542570496523,0.1330935483350982]","[1,1,1]","[-0.08221554788549812,0.010878411673244513]","[-1,-1,-1]","[0.0701091130160116,-0.1750009246188684]","[-1,-1,-1]","[0.02,0.02]",210.2016,0,25,25,105,1,,,,,,,
,,,,,,,5e8a5a892f6f027054a83d88,682f0fb95704f10fc35dc60b,2025-05-22_13h51.50.805,cuing_paradigm_dot,2024.1.5,Win32,166.6666667,682d573fa47f1360d1451895,,,,,,,,,,,210.2018,210.699,,,210.9476,211.5479,left,0.5933,,,,,,,,,0.45,,,,,,210.699,210.9476,211.5479,"[-0.15863056421666172,-0.08474442356200283]","[1,1,1]","[0.15061523329556684,-0.001307084523971069]","[-1,-1,-1]","[0.009879567281628095,-0.10056256559862534]","[1,1,1]","[0.029013240233959812,-0.021809067121206033]","[1,1,1]","[-0.02027062679195954,-0.06472010711135298]","[-1,-1,-1]","[-0.10949339061475394,-0.15129626477044217]","[-1,-1,-1]","[-0.03776430880478565,0.02903139803069458]","[-1,-1,-1]","[-0.07204650264987604,-0.010683740869696078]","[1,1,1]","[0.0042080729224088995,0.10251203834491662]","[1,1,1]","[-0.1118872493525515,0.09612580015688836]","[1,1,1]","[0.06660713538049261,0.01030175655299393]","[-1,-1,-1]","[0.039160312541545214,-0.069098123784815]","[1,1,1]","[0.08616768838247828,0.12959319569220254]","[1,1,1]","[0.08918296096303704,-0.024942533388375956]","[1,1,1]","[0.04238060609011698,0.08216890472612266]","[1,1,1]","[-0.06535166477297509,-0.10534162458660702]","[-1,-1,-1]","[0.07295028378016243,-0.10932672841268264]","[-1,-1,-1]","[-0.09736477067398484,0.055963898232780154]","[-1,-1,-1]","[0.07844980912165846,-0.18180225402713093]","[-1,-1,-1]","[-0.031728295040044784,-0.1560459857013031]","[-1,-1,-1]","[0.0193942396815049,0.16843757085969166]","[1,1,1]","[-0.19566101361509444,-0.014494400426809245]","[-1,-1,-1]","[-0.023069887571324044,0.06744706416235527]","[-1,-1,-1]","[-0.06105228214724955,0.15920086554090054]","[1,1,1]","[0.1036320736672356,-0.1505717830014969]","[-1,-1,-1]","[0.1131153807100359,0.08990359740242977]","[-1,-1,-1]","[0.155176929006446,0.05314402729824377]","[1,1,1]","[-0.059022539268329816,0.1120934515097002]","[-1,-1,-1]","[0.19237486375964938,-0.0016046170543471678]","[-1,-1,-1]","[0.16819568731394843,-0.09878848637542835]","[1,1,1]","[-0.1686275475615301,0.10228413160456078]","[-1,-1,-1]","[0.12760052043911202,-0.06263674675562472]","[-1,-1,-1]","[0.02,0.02]",212.6455,0,26,26,89,1,,,,,,,
,,,,,,,5e8a5a892f6f027054a83d88,682f0fb95704f10fc35dc60b,2025-05-22_13h51.50.805,cuing_paradigm_dot,2024.1.5,Win32,166.6666667,682d573fa47f1360d1451895,,,,,,,,,,,212.6456,213.1429,,,213.3915,213.9009,right,0.4983,,,,,,,,,0.1,,,,,,213.1429,213.3914,213.9009,"[0.18608347865290478,-0.028835810619442043]","[-1,-1,-1]","[-0.026008565929069704,0.14945295443155657]","[-1,-1,-1]","[0.06417958411595907,0.038577189751325104]","[-1,-1,-1]","[-0.02258704631208273,0.07515864096842527]","[-1,-1,-1]","[-0.09622698903587422,-0.05099308279130581]","[-1,-1,-1]","[-0.14045298309187698,-0.005193723563370432]","[-1,-1,-1]","[0.17031597911924365,0.061063143996738976]","[1,1,1]","[-0.18197041824139432,-0.07637675934369759]","[-1,-1,-1]","[0.013445503598841618,-0.07415647276622613]","[-1,-1,-1]","[0.0895605843807141,0.10211581430792338]","[-1,-1,-1]","[0.034331196506192554,0.007304817556370024]","[-1,-1,-1]","[-0.10327425928117033,0.04936434921335166]","[1,1,1]","[0.1544479325657496,-0.10077262068955584]","[-1,-1,-1]","[0.10987106434612566,0.03643966249206681]","[-1,-1,-1]","[0.06344370807044916,0.17166124468437635]","[-1,-1,-1]","[0.03392272150373505,0.08458677038760455]","[-1,-1,-1]","[0.0827059874207922,-0.061181426838492876]","[-1,-1,-1]","[-0.17863691980297616,0.036831602710334095]","[-1,-1,-1]","[-0.11031264152435148,0.14988434827838784]","[-1,-1,-1]","[-0.06084088443363753,-0.15875712045614448]","[-1,-1,-1]","[0.11415590576878479,-0.022247185958859057]","[-1,-1,-1]","[-0.1469305044119815,-0.11197860324036978]","[-1,-1,-1]","[-0.023588490724727247,0.0004168517278082871]","[1,1,1]","[0.08550631258332868,-0.10492935883600232]","[-1,-1,-1]","[0.16361950131271166,0.00670452778380585]","[-1,-1,-1]","[0.10754747269150855,0.15184785619356012]","[-1,-1,-1]","[0.041630344680277424,0.12706803040115047]","[-1,-1,-1]","[-0.1671336979899711,0.07907376063554013]","[-1,-1,-1]","[-0.11241450334984582,-0.1591752053996791]","[-1,-1,-1]","[-0.02704335591007679,-0.1947080597203697]","[-1,-1,-1]","[-0.061537185691148154,0.09976788703331177]","[-1,-1,-1]","[-0.060481010791724375,0.019507051318704966]","[-1,-1,-1]","[0.02,0.02]",214.9985,0,27,27,4,1,,,,,,,
,,,,,,,5e8a5a892f6f027054a83d88,682f0fb95704f10fc35dc60b,2025-05-22_13h51.50.805,cuing_paradigm_dot,2024.1.5,Win32,166.6666667,682d573fa47f1360d1451895,,,,,,,,,,,214.9986,215.4957,,,215.7445,216.0658,right,0.3146,,,,,,,,,0.1,,,,,,215.4957,215.7445,216.0658,"[0.08042901316628341,-0.008972487105728547]","[-1,-1,-1]","[-0.10781647035594707,0.0003970140747049544]","[-1,-1,-1]","[0.026871955438853595,-0.15104299762524168]","[-1,-1,-1]","[0.12341440990815893,-0.10992872051026539]","[-1,-1,-1]","[0.1274281451044629,0.08986507391118694]","[-1,-1,-1]","[0.06668909417665045,0.1558763756372057]","[-1,-1,-1]","[-0.00572652761284715,0.11057587089012884]","[-1,-1,-1]","[0.0042430919336343175,-0.19306194159504214]","[-1,-1,-1]","[-0.011492813197610356,0.054327430573434386]","[-1,-1,-1]","[0.032090285114793754,-0.009119556958215331]","[-1,-1,-1]","[-0.07367232710497464,0.06439421276826683]","[-1,-1,-1]","[-0.12159107829063172,0.09363169399313447]","[-1,-1,-1]","[-0.021768496556799393,-0.030410144896807538]","[-1,-1,-1]","[-0.18461841378847132,0.05561118967302321]","[-1,-1,-1]","[-0.017377985872625953,-0.09307931209001842]","[-1,-1,-1]","[-0.09186349413794877,-0.1098795768821772]","[-1,-1,-1]","[0.07878922183046426,-0.06400534304496924]","[-1,-1,-1]","[0.11852974745270027,0.15438094422326026]","[-1,-1,-1]","[-0.040137750691182784,0.14840681668914657]","[-1,-1,-1]","[0.03504694231903481,0.1289429211458826]","[1,1,1]","[-0.1858199561874268,0.0037212732670263544]","[-1,-1,-1]","[0.03309338460920757,0.18937555852278365]","[-1,-1,-1]","[-0.053910722888927114,-0.004123680355729709]","[-1,-1,-1]","[-0.09032785358812404,0.1327643393533827]","[-1,-1,-1]","[-0.1359626086456754,-0.0627340449511188]","[-1,-1,-1]","[-0.14175813697948067,0.05218413828462174]","[-1,-1,-1]","[-0.049050391389795,-0.13122442026590156]","[-1,-1,-1]","[0.0317203682027211,-0.09532066487125852]","[-1,-1,-1]","[0.19548671582700078,-0.04023909913988269]","[-1,-1,-1]","[0.15316007566953804,-0.05680581534362224]","[1,1,1]","[0.10148596332619143,0.04112663450880487]","[1,1,1]","[-0.01652691704209439,0.19536871666190514]","[-1,-1,-1]","[0.02,0.02]",217.1634,0,28,28,12,1,,,,,,,
,,,,,,,5e8a5a892f6f027054a83d88,682f0fb95704f10fc35dc60b,2025-05-22_13h51.50.805,cuing_paradigm_dot,2024.1.5,Win32,166.6666667,682d573fa47f1360d1451895,,,,,,,,,,,217.1635,217.6606,,,217.9097,218.7703,left,0.8547,,,,,,,,,0.5,,,,,,217.6606,217.9097,218.7703,"[0.07963935712687824,0.041698561783556236]","[1,1,1]","[0.15345638847529458,-0.08844185758183457]","[-1,-1,-1]","[-0.08258941203790314,0.016402671338323092]","[1,1,1]","[-0.02759160029853813,-0.0008167301827668251]","[1,1,1]","[0.03677513080502079,-0.19451135141477827]","[-1,-1,-1]","[0.10937660389178733,0.1635317709198493]","[1,1,1]","[-0.02940072283338748,-0.08310273005134414]","[-1,-1,-1]","[-0.08241034081444257,-0.11775810668923632]","[-1,-1,-1]","[0.11711586295121755,-0.12860677276198257]","[1,1,1]","[-0.018794465560254995,0.15005610490535998]","[-1,-1,-1]","[-0.12031409274148226,-0.1573503833858287]","[-1,-1,-1]","[-0.10594754407167495,-0.060867741560433404]","[1,1,1]","[0.039356559329601006,-0.1294949261538315]","[1,1,1]","[0.1658154455134008,-0.0011831795513255897]","[-1,-1,-1]","[0.008322179955255743,0.054700828882657704]","[1,1,1]","[0.0805716050353646,-0.06977109106616886]","[1,1,1]","[0.12166922997141316,-0.03546790225374723]","[1,1,1]","[-0.06738087608337068,0.1311960097143237]","[1,1,1]","[0.1255691001934733,0.1115390053947063]","[1,1,1]","[0.16197208353727272,0.06966585660901788]","[-1,-1,-1]","[-0.18102058038629526,-0.07918229961965888]","[-1,-1,-1]","[0.02864472128009491,0.019413063366099943]","[-1,-1,-1]","[0.09965450088928735,-0.16896485590715501]","[1,1,1]","[-0.03208743732720086,-0.17029371793728648]","[-1,-1,-1]","[-0.1394822650513291,-0.017023535540445077]","[1,1,1]","[-0.06729721466086297,-0.028890534241783904]","[1,1,1]","[-0.07702057347560556,-0.1763484779169064]","[-1,-1,-1]","[-0.16604991617607684,0.09658034558215414]","[1,1,1]","[0.002889272227470888,0.19734207477304241]","[-1,-1,-1]","[-0.12738298220662195,0.06096041170030062]","[-1,-1,-1]","[-0.025658859777417276,0.10278480524839471]","[-1,-1,-1]","[0.04476016258050089,0.18703996895977043]","[-1,-1,-1]","[0.02,0.02]",219.868,0,29,29,98,1,,,,,,,
,,,,,,,5e8a5a892f6f027054a83d88,682f0fb95704f10fc35dc60b,2025-05-22_13h51.50.805,cuing_paradigm_dot,2024.1.5,Win32,166.6666667,682d573fa47f1360d1451895,,,,,,,,,,,219.8681,220.3653,,,220.6139,221.1778,left,0.5531,,,,,,,,,0.5,,,,,,220.3653,220.6139,221.1778,"[0.07400055827855397,-0.1854946798163686]","[1,1,1]","[0.02751182618468184,-0.15320364050719573]","[1,1,1]","[-0.19139885671375845,0.03628690066739816]","[-1,-1,-1]","[-0.036465176488513495,-0.07650731318271246]","[-1,-1,-1]","[-0.11652235883375306,-0.13008126836899359]","[-1,-1,-1]","[0.06048984381920062,0.17321455569223929]","[-1,-1,-1]","[0.15779446122299565,-0.06450615957338417]","[1,1,1]","[0.04949059965226409,0.05964470561875691]","[-1,-1,-1]","[-0.0558587037523394,-0.19071480408824668]","[1,1,1]","[0.00019480099260857454,-0.003402816507255903]","[-1,-1,-1]","[-0.0594534740699823,-0.13704807773307834]","[-1,-1,-1]","[-0.03735506758956525,0.015821571230221945]","[-1,-1,-1]","[-0.0810950311977493,0.005543406211546202]","[-1,-1,-1]","[0.04257177183370836,-0.07064786619004873]","[-1,-1,-1]","[0.09598771651489303,0.07418060682080138]","[1,1,1]","[-0.18007946667865718,0.07939154905952064]","[1,1,1]","[-0.026965057361684225,0.0595579262875209]","[-1,-1,-1]","[-0.17996473559093784,-0.0056472652276691486]","[-1,-1,-1]","[-0.11446149557412169,0.04819182439479911]","[-1,-1,-1]","[0.09122349076351244,-0.09441682947314632]","[1,1,1]","[0.06775627515771153,-0.1332496877445984]","[1,1,1]","[-0.00834053949240903,0.10320246561826978]","[1,1,1]","[-0.0979815885474471,-0.07155687156404278]","[1,1,1]","[0.15200317372079605,0.04842765843933245]","[1,1,1]","[-0.14351750695711035,-0.0980517907307682]","[1,1,1]","[-0.012790437647434143,-0.15151677018754717]","[1,1,1]","[-0.15040510879696287,-0.04934350547578179]","[1,1,1]","[0.15827478937111428,0.0010176254078445865]","[-1,-1,-1]","[0.056022224840810424,0.00004557880090745822]","[1,1,1]","[-0.11002734316079522,0.1561894626375699]","[1,1,1]","[0.1229863668328152,0.13832731205021306]","[-1,-1,-1]","[-0.07525719753220687,0.13081667821484505]","[-1,-1,-1]","[0.02,0.02]",222.2755,0,30,30,108,1,,,,,,,
,,,,,,,5e8a5a892f6f027054a83d88,682f0fb95704f10fc35dc60b,2025-05-22_13h51.50.805,cuing_paradigm_dot,2024.1.5,Win32,166.6666667,682d573fa47f1360d1451895,,,,,,,,,,,222.2756,222.7727,,,223.0214,223.4459,left,0.4143,,,,,,,,,0.55,,,,,,222.7727,223.0214,223.446,"[-0.03075777584758138,-0.08722273273222195]","[-1,-1,-1]","[-0.15516417605208238,-0.0022771089585625287]","[-1,-1,-1]","[-0.023422379722645235,-0.18925814679890254]","[1,1,1]","[0.01870651414566807,0.047741265753925885]","[1,1,1]","[0.05682545879793128,0.17968582204098135]","[-1,-1,-1]","[-0.008770980121829853,-0.011936735876854282]","[-1,-1,-1]","[-0.05129580427276208,0.0730833714174422]","[-1,-1,-1]","[-0.09822325663019484,-0.10062345395188868]","[1,1,1]","[-0.09495693701100487,0.10093212704427644]","[1,1,1]","[0.08387424115557007,0.1449461468429455]","[-1,-1,-1]","[-0.1036382034281189,-0.14759265117963682]","[1,1,1]","[0.08058419901856385,-0.17079598959792508]","[1,1,1]","[0.0533505098900027,-0.013425447514376805]","[-1,-1,-1]","[0.14850708080905348,-0.09483153676824917]","[-1,-1,-1]","[0.017863761900637275,-0.17590464481755938]","[1,1,1]","[-0.059882357297557115,0.17633541355331517]","[1,1,1]","[-0.09117961248819917,0.14644539466430093]","[1,1,1]","[0.008482211094038086,0.14472858647095438]","[1,1,1]","[0.17434217552200437,-0.00360948596192303]","[1,1,1]","[0.11827470583310057,0.04986303822583823]","[1,1,1]","[0.1483998759231915,-0.04060578737281145]","[1,1,1]","[-0.011739789327677703,0.19070516054731054]","[1,1,1]","[0.1711729795257806,0.04472042708614482]","[-1,-1,-1]","[-0.09369055409316752,-0.014891108131628627]","[1,1,1]","[-0.0888720776095037,-0.05749476806680895]","[1,1,1]","[0.06311833755685979,0.0473317031587995]","[1,1,1]","[0.012544082107436157,-0.10025887270739882]","[-1,-1,-1]","[-0.0313108532894057,0.12559153442375345]","[-1,-1,-1]","[-0.0537961668618868,-0.16074572669380804]","[1,1,1]","[-0.17715674552952226,0.07726061769693404]","[-1,-1,-1]","[0.015053655348634266,0.09646578432245682]","[-1,-1,-1]","[0.11999499829331259,-0.1357182295222254]","[-1,-1,-1]","[0.02,0.02]",224.5434,0,31,31,137,1,,,,,,,
,,,,,,,5e8a5a892f6f027054a83d88,682f0fb95704f10fc35dc60b,2025-05-22_13h51.50.805,cuing_paradigm_dot,2024.1.5,Win32,166.6666667,682d573fa47f1360d1451895,,,,,,,,,,,224.5436,225.0407,,,225.2895,225.6175,right,0.3216,,,,,,,,,0.1,,,,,,225.0407,225.2895,225.6175,"[0.14909246417744088,0.08062865710013545]","[-1,-1,-1]","[-0.023070343126670105,0.09458870270474942]","[-1,-1,-1]","[-0.06273168809508756,-0.10097671274666233]","[-1,-1,-1]","[0.17952935474816326,0.04004916850314822]","[-1,-1,-1]","[0.19888130628506162,-0.017092712152692025]","[-1,-1,-1]","[0.10717313511320291,-0.09960697640809699]","[-1,-1,-1]","[0.076078275778142,0.13322391365429892]","[1,1,1]","[-0.1513628266697823,0.1041228195490184]","[-1,-1,-1]","[0.05127908280172599,-0.012670360584182857]","[1,1,1]","[-0.13532088488147626,-0.0028770879123432283]","[-1,-1,-1]","[0.08074409798210656,0.06805707143605956]","[1,1,1]","[-0.0029749137173284805,-0.18762537527838372]","[-1,-1,-1]","[-0.00779563870113838,-0.11405458281309495]","[-1,-1,-1]","[0.011316346783403574,0.12487449890721228]","[-1,-1,-1]","[0.10678407309203225,-0.05411533248202355]","[-1,-1,-1]","[-0.0314668627131543,-0.03544250374210135]","[-1,-1,-1]","[-0.061853720137549265,0.17964018256570546]","[-1,-1,-1]","[-0.13858450867390412,-0.04954690823882828]","[-1,-1,-1]","[-0.05352657638182846,0.014994120387766914]","[-1,-1,-1]","[0.08559830846198721,-0.17519821851919612]","[-1,-1,-1]","[-0.08486828394034612,0.12129129777149786]","[-1,-1,-1]","[0.018663219757461356,0.07951398002193917]","[-1,-1,-1]","[-0.10154324001533907,0.051081827141362425]","[-1,-1,-1]","[0.007499300072827224,0.19633688151396608]","[-1,-1,-1]","[0.04927545671284716,-0.11274523694747628]","[-1,-1,-1]","[-0.13097893527720222,-0.14383529176054557]","[-1,-1,-1]","[-0.0985682544554822,-0.17161918760076839]","[-1,-1,-1]","[0.013307614595777308,-0.032324903283333414]","[-1,-1,-1]","[0.11604646469070812,0.13962951164273965]","[-1,-1,-1]","[-0.1732444650645491,-0.02703382920029718]","[-1,-1,-1]","[-0.19344456606700433,0.016366400335681264]","[-1,-1,-1]","[0.07513770662778803,0.17731112892183643]","[-1,-1,-1]","[0.02,0.02]",226.7145,0,32,32,16,1,,,,,,,
,,,,,,,5e8a5a892f6f027054a83d88,682f0fb95704f10fc35dc60b,2025-05-22_13h51.50.805,cuing_paradigm_dot,2024.1.5,Win32,166.6666667,682d573fa47f1360d1451895,,,,,,,,,,,226.7146,227.2116,,,227.4604,228.0122,left,0.5445,,,,,,,,,0.55,,,,,,227.2116,227.4604,228.0122,"[-0.15410886970643273,0.10111361083490919]","[1,1,1]","[0.16802182900778706,-0.08537089745679019]","[1,1,1]","[0.14665289635349507,-0.04918607472698866]","[1,1,1]","[0.12179444572825425,0.005840882800829537]","[-1,-1,-1]","[0.10543797768212317,-0.111852112438518]","[1,1,1]","[-0.07107897029062304,-0.007907165699033386]","[-1,-1,-1]","[-0.13790385855115278,0.038999751080084334]","[-1,-1,-1]","[0.049555527340175876,0.12165649462420357]","[1,1,1]","[0.08482526886668101,0.028563171444076194]","[-1,-1,-1]","[0.020383854343973,-0.027760430986052]","[-1,-1,-1]","[-0.11057581620686202,0.00889787609142775]","[1,1,1]","[0.054324413507105714,-0.11384954764095573]","[-1,-1,-1]","[-0.04725260270721943,0.1894800589937812]","[1,1,1]","[-0.04042918541019352,-0.08841264841542844]","[1,1,1]","[0.0680428814847094,-0.15562021609515558]","[-1,-1,-1]","[-0.16888600204345208,-0.03808767396265438]","[-1,-1,-1]","[-0.10249587777621366,0.12529056091790647]","[1,1,1]","[0.16805185102573794,0.06663100448085549]","[1,1,1]","[-0.011713333883298606,0.06093908032829971]","[1,1,1]","[-0.12193206872128559,-0.11860112076556115]","[-1,-1,-1]","[0.06694321272283413,-0.011598473598019268]","[1,1,1]","[-0.04028262473072013,-0.04101201304489003]","[-1,-1,-1]","[0.10517521276464797,0.13851864427356655]","[1,1,1]","[-0.09518455369659047,-0.15550747026363157]","[1,1,1]","[-0.027412443901131175,0.01912600238795469]","[-1,-1,-1]","[0.008359770251876446,-0.1882059591809211]","[1,1,1]","[-0.03578440571400713,-0.14337637699864078]","[1,1,1]","[0.1752355169861385,0.006154155529052115]","[-1,-1,-1]","[-0.13239893862589863,-0.06768290969317077]","[-1,-1,-1]","[0.010210734558127604,0.1551385416995943]","[1,1,1]","[-0.055577413326286185,-0.17845290410915782]","[-1,-1,-1]","[0.13340657343257376,0.09514311304268326]","[1,1,1]","[0.02,0.02]",229.1099,0,33,33,140,1,,,,,,,
,,,,,,,5e8a5a892f6f027054a83d88,682f0fb95704f10fc35dc60b,2025-05-22_13h51.50.805,cuing_paradigm_dot,2024.1.5,Win32,166.6666667,682d573fa47f1360d1451895,,,,,,,,,,,229.11,229.6071,,,229.8558,230.6624,left,0.7983,,,,,,,,,0.45,,,,,,229.6071,229.8558,230.6624,"[-0.12716955117540113,-0.0932636235589723]","[1,1,1]","[-0.08759429346509366,-0.0865141480422394]","[1,1,1]","[-0.1391970455131845,0.0930991113990962]","[1,1,1]","[-0.04198101817878714,0.014798312274434195]","[-1,-1,-1]","[0.03423766854874302,0.176276466724026]","[1,1,1]","[-0.08003704112418687,0.1339304106030629]","[-1,-1,-1]","[-0.15154530765398683,-0.04495748279475324]","[1,1,1]","[0.11618699133929433,-0.015189678567290742]","[1,1,1]","[0.1465694150171211,0.1049293092910173]","[-1,-1,-1]","[-0.023417706605981702,0.13726103941966297]","[-1,-1,-1]","[-0.014229020323739605,0.07920310456157195]","[-1,-1,-1]","[-0.004715701895792811,-0.1453083865713631]","[1,1,1]","[-0.10199779166230562,0.03346245203183336]","[-1,-1,-1]","[-0.01810732567869131,-0.029063827184868198]","[1,1,1]","[0.02234487533735001,0.037814740111075655]","[1,1,1]","[0.06489429891087602,0.11748889051735789]","[1,1,1]","[0.031128596817832997,-0.16877592727547994]","[-1,-1,-1]","[-0.1707627553395116,0.03179366777478555]","[-1,-1,-1]","[-0.13446992284687384,0.14028490301317473]","[-1,-1,-1]","[-0.04934848210400861,-0.1690979190783657]","[1,1,1]","[0.08569955950671423,0.07680533468254191]","[-1,-1,-1]","[0.08970641979140781,-0.1431144887397706]","[1,1,1]","[0.1475362940715378,0.06203738856411219]","[1,1,1]","[-0.048733407075895345,0.05681181628952614]","[-1,-1,-1]","[0.03192487334616159,-0.0988598922311007]","[-1,-1,-1]","[-0.06362046916657041,-0.042027080555297476]","[-1,-1,-1]","[0.08225916922504772,-0.0440615445107364]","[-1,-1,-1]","[0.1676940615420903,0.0274037588990155]","[-1,-1,-1]","[0.05701304682689086,0.011782669397884051]","[-1,-1,-1]","[0.13874081344165407,-0.13982108264750112]","[1,1,1]","[0.11917409621576157,-0.07210938843418711]","[-1,-1,-1]","[0.04074901064139071,0.08361124153776324]","[-1,-1,-1]","[0.02,0.02]",231.7599,0,34,34,62,1,,,,,,,
,,,,,,,5e8a5a892f6f027054a83d88,682f0fb95704f10fc35dc60b,2025-05-22_13h51.50.805,cuing_paradigm_dot,2024.1.5,Win32,166.6666667,682d573fa47f1360d1451895,,,,,,,,,,,231.7601,232.2572,,,232.5059,233.191,left,0.6772,,,,,,,,,0.55,,,,,,232.2572,232.5059,233.191,"[-0.0998611515475047,-0.11776987827576192]","[1,1,1]","[-0.13701128716810462,0.09135021581694547]","[1,1,1]","[0.00611662347211256,0.11560220176896234]","[-1,-1,-1]","[-0.0567216202716892,-0.1107917253329338]","[-1,-1,-1]","[-0.12269431542973791,-0.06526141836172689]","[1,1,1]","[0.047346437067663144,0.16990587525574385]","[1,1,1]","[-0.01441167868281446,0.06483352129498379]","[-1,-1,-1]","[0.1198819004132374,0.12185029210746175]","[1,1,1]","[-0.06694125181317497,0.12367346839868822]","[1,1,1]","[0.16574919018192072,-0.03229057583246376]","[1,1,1]","[0.009419554134507012,0.02699313868466987]","[-1,-1,-1]","[-0.1769373332626115,-0.08498497663780719]","[1,1,1]","[0.03454603573860951,-0.19441210302902864]","[-1,-1,-1]","[-0.05547326407751007,0.027677590604072228]","[1,1,1]","[-0.15905760978116043,-0.029040314852980004]","[1,1,1]","[-0.1097040286375488,0.14410237573475423]","[-1,-1,-1]","[0.01833929409607166,-0.11132200846665148]","[1,1,1]","[-0.08744594098623996,-0.012076381263273947]","[-1,-1,-1]","[0.15460661340653548,-0.07527408406775535]","[1,1,1]","[0.07295629823613041,0.1352646884362541]","[-1,-1,-1]","[-0.08731615444252845,-0.17065253537030542]","[-1,-1,-1]","[0.054791614454044936,-0.019020008031702347]","[1,1,1]","[0.03078375943737875,-0.06739207662672718]","[-1,-1,-1]","[0.04764389526230683,0.04422796982051126]","[1,1,1]","[-0.1831235921683347,0.04125723950944175]","[1,1,1]","[-0.03201817569559431,-0.07156895268302425]","[-1,-1,-1]","[-0.11121917332250042,0.024060761754747795]","[-1,-1,-1]","[-0.020477833320316153,-0.18942053776042983]","[-1,-1,-1]","[0.1796843714367703,0.07459882107259284]","[-1,-1,-1]","[0.1393334862224802,0.07758692961315403]","[1,1,1]","[-0.07287808319466602,-0.06840529031701671]","[1,1,1]","[0.08224532634622986,0.018435936594254524]","[1,1,1]","[0.02,0.02]",234.2886,0,35,35,141,1,,,,,,,
,,,,,,,5e8a5a892f6f027054a83d88,682f0fb95704f10fc35dc60b,2025-05-22_13h51.50.805,cuing_paradigm_dot,2024.1.5,Win32,166.6666667,682d573fa47f1360d1451895,,,,,,,,,,,234.2888,234.7859,,,235.0347,235.3984,right,0.3574,,,,,,,,,0.1,,,,,,234.7859,235.0347,235.3985,"[0.06929306717228798,0.18618119115067427]","[-1,-1,-1]","[-0.1231202914925262,0.009767467308931852]","[1,1,1]","[-0.035501194230470184,0.05746701656139329]","[-1,-1,-1]","[0.0881170135872477,0.07405099596481232]","[-1,-1,-1]","[0.1269735736715238,0.007796045261209888]","[-1,-1,-1]","[0.05914913534091984,-0.10782935373310064]","[-1,-1,-1]","[-0.059847790849500454,-0.07121529403840897]","[-1,-1,-1]","[0.026027375564070487,-0.05529273002622191]","[-1,-1,-1]","[0.019617675902791096,0.12910623656754786]","[-1,-1,-1]","[-0.1572993143196093,-0.11097562921741526]","[-1,-1,-1]","[0.05154590041212369,-0.17179523736437177]","[1,1,1]","[0.026382356654656786,-0.13114342946285962]","[-1,-1,-1]","[0.19639430587968035,-0.01572067203822187]","[-1,-1,-1]","[0.05765481804778452,0.00510889976957571]","[-1,-1,-1]","[-0.033771900701953496,0.10312526642826608]","[-1,-1,-1]","[-0.12528889488019945,-0.03969636449735156]","[-1,-1,-1]","[0.09429611556978798,-0.026824486486980444]","[-1,-1,-1]","[0.13135596531281726,0.0722218014603303]","[-1,-1,-1]","[-0.07869678297249806,-0.035843540801647616]","[-1,-1,-1]","[0.12856146775667127,-0.05464023137277627]","[-1,-1,-1]","[-0.18820092538405295,-0.03190202882068433]","[-1,-1,-1]","[-0.11530887952008773,0.10295889726204117]","[-1,-1,-1]","[-0.04337026090407514,0.15328484344975976]","[-1,-1,-1]","[-0.0782638410139937,0.0842275151773047]","[-1,-1,-1]","[0.04940926253682483,0.05484930201911729]","[-1,-1,-1]","[-0.02484000727049438,-0.12015934945896534]","[-1,-1,-1]","[-0.06826405245203027,-0.12890426994019522]","[-1,-1,-1]","[0.1634002861932247,0.1104638313950351]","[-1,-1,-1]","[-0.07269396605680982,0.01635914450356187]","[-1,-1,-1]","[-0.12332433406347194,-0.15732075548095398]","[-1,-1,-1]","[0.16906066793593946,-0.09088982008055348]","[1,1,1]","[-0.020292443623822362,-0.053002738304922685]","[-1,-1,-1]","[0.02,0.02]",236.496,0,36,36,18,1,,,,,,,
,,,,,,,5e8a5a892f6f027054a83d88,682f0fb95704f10fc35dc60b,2025-05-22_13h51.50.805,cuing_paradigm_dot,2024.1.5,Win32,166.6666667,682d573fa47f1360d1451895,,,,,,,,,,,236.4961,236.9933,,,237.2419,238.3396,right,1.0911,,,,,,,,,0.5,,,,,,236.9933,237.2419,238.3396,"[-0.002071820314168463,-0.16017600179321426]","[-1,-1,-1]","[-0.12787352916053468,0.13132281251523234]","[1,1,1]","[0.16924233146802672,-0.0828012110704368]","[1,1,1]","[-0.07428062691807803,-0.05974265053918511]","[-1,-1,-1]","[-0.02530113824430406,-0.05051415395282148]","[-1,-1,-1]","[-0.11633493792755896,0.0888461751281566]","[1,1,1]","[-0.06027971263021546,-0.10076900385540684]","[1,1,1]","[0.16288606283538717,-0.04037763919882042]","[1,1,1]","[-0.12584070606358316,-0.08927234477318943]","[1,1,1]","[0.006524208985732884,0.07434127097117835]","[-1,-1,-1]","[0.09106619527247262,-0.07600154129984234]","[-1,-1,-1]","[0.0742440811240063,0.14555693372126577]","[-1,-1,-1]","[0.0070895522437768345,0.12405304304845634]","[-1,-1,-1]","[-0.14816296571122423,0.02541252161439023]","[-1,-1,-1]","[-0.010733522740512928,-0.0023595538844027246]","[-1,-1,-1]","[0.10217106116618431,0.017279910997825266]","[1,1,1]","[0.0427117062335446,-0.06608004250871889]","[-1,-1,-1]","[-0.12996186697149295,-0.14993965737648074]","[1,1,1]","[-0.08239277137773446,0.039565258566269586]","[-1,-1,-1]","[-0.04435109710242666,-0.17194106542123944]","[-1,-1,-1]","[-0.045147151100573074,0.0666240494253907]","[1,1,1]","[-0.0483942185017004,0.13210865856615103]","[1,1,1]","[-0.08756218324592438,-0.1431178745759098]","[1,1,1]","[0.08152158307036275,0.09085862696808931]","[-1,-1,-1]","[0.035461880267261,-0.18782155102520928]","[1,1,1]","[-0.07620991967137565,0.1752354140490281]","[1,1,1]","[0.03243983204768309,-0.011810605684283658]","[-1,-1,-1]","[0.1812138960386641,0.05231989517405954]","[1,1,1]","[0.02720942629672262,-0.10752355893507497]","[-1,-1,-1]","[0.07423204715007421,-0.013651221888467178]","[-1,-1,-1]","[0.024863861847456783,0.1829417697832692]","[1,1,1]","[0.03689541773153217,0.036653774898178726]","[1,1,1]","[0.02,0.02]",239.4372,0,37,37,101,1,,,,,,,
,,,,,,,5e8a5a892f6f027054a83d88,682f0fb95704f10fc35dc60b,2025-05-22_13h51.50.805,cuing_paradigm_dot,2024.1.5,Win32,166.6666667,682d573fa47f1360d1451895,,,,,,,,,,,239.4373,239.9344,,,240.1832,240.8805,left,0.69,,,,,,,,,0.55,,,,,,239.9344,240.1832,240.8805,"[-0.1560187974425677,-0.10258201365453047]","[1,1,1]","[0.13709269594291346,0.015062556205722565]","[-1,-1,-1]","[0.027210782397426452,0.18606833199561346]","[1,1,1]","[-0.18963900774917877,-0.0006468565591887236]","[1,1,1]","[0.07019402588680966,0.159060189569992]","[1,1,1]","[-0.10497857850452463,-0.016173372831040877]","[-1,-1,-1]","[-0.036568135304545384,0.09652616501019656]","[1,1,1]","[-0.10783644192732207,-0.0653512481665385]","[-1,-1,-1]","[-0.04962798626354569,0.029030525749091256]","[1,1,1]","[-0.053436533253152806,-0.16234477149189522]","[1,1,1]","[0.1482660898130769,-0.12083514402612089]","[-1,-1,-1]","[0.1481133612573799,-0.054313213821048555]","[-1,-1,-1]","[0.04366366785804973,0.06130001100759581]","[-1,-1,-1]","[0.07693894772751901,0.034072777637680914]","[-1,-1,-1]","[0.03616550177243056,-0.17878007879378632]","[1,1,1]","[0.003707312362201135,0.09173537781700687]","[-1,-1,-1]","[0.08259749320775991,-0.029357876080675836]","[1,1,1]","[0.028342089263172134,0.007588560388030693]","[-1,-1,-1]","[-0.04009731641383248,-0.022157749513132218]","[-1,-1,-1]","[-0.11066257925550685,0.10424347053822074]","[1,1,1]","[-0.1613140086341816,0.09577302021500204]","[1,1,1]","[-0.013829883142277396,-0.17440534057243173]","[1,1,1]","[0.07926780210378098,0.10870412415595967]","[-1,-1,-1]","[0.03485647668775169,-0.06706262716053431]","[1,1,1]","[-0.12604192317515614,-0.14262087062649942]","[-1,-1,-1]","[0.10414109421753678,-0.17061848171145405]","[1,1,1]","[-0.055341258619718704,-0.09621188292288393]","[-1,-1,-1]","[0.10287522117139586,-0.07557283133952698]","[-1,-1,-1]","[-0.10389393767564922,0.03508475021891653]","[1,1,1]","[0.142849195510461,0.1075040582809162]","[1,1,1]","[0.12641231914477377,0.06537851275172475]","[1,1,1]","[0.17946044582935292,-0.02271832700092007]","[1,1,1]","[0.02,0.02]",241.978,0,38,38,121,1,,,,,,,
,,,,,,,5e8a5a892f6f027054a83d88,682f0fb95704f10fc35dc60b,2025-05-22_13h51.50.805,cuing_paradigm_dot,2024.1.5,Win32,166.6666667,682d573fa47f1360d1451895,,,,,,,,,,,241.9782,242.4753,,,242.7245,243.2819,left,0.548,,,,,,,,,0.55,,,,,,242.4753,242.7245,243.2819,"[-0.06366592066945213,0.0024502393226890433]","[-1,-1,-1]","[-0.048912783309415966,0.15617302326755916]","[-1,-1,-1]","[-0.1239001729772564,-0.10599740997857655]","[1,1,1]","[0.02586417068517913,0.028804053851477558]","[1,1,1]","[-0.10882861882569696,0.07784260140198548]","[-1,-1,-1]","[0.13259810078185452,0.10325635521898331]","[-1,-1,-1]","[-0.14356668554806995,-0.024093373830795007]","[-1,-1,-1]","[-0.11793836965904719,0.14721561193667004]","[-1,-1,-1]","[-0.02540134011409864,-0.06407714356295836]","[1,1,1]","[-0.1911218300792232,-0.05284304327157841]","[-1,-1,-1]","[-0.024179755180577484,-0.16118739735650067]","[1,1,1]","[-0.06890306834624925,0.042937894435650194]","[1,1,1]","[0.05136331093531628,-0.17572019207033374]","[1,1,1]","[0.11693523061874915,-0.08256805449574604]","[-1,-1,-1]","[0.00033654815817475833,0.16205362756267777]","[1,1,1]","[0.09527608215658759,0.02106335348519617]","[1,1,1]","[-0.09173984316572871,-0.14549132470045958]","[-1,-1,-1]","[0.1471645321433565,0.050119096699102306]","[1,1,1]","[0.09494480697643302,-0.029379308949583967]","[-1,-1,-1]","[-0.17775176407614968,0.060994119529383994]","[1,1,1]","[0.17118232002913067,0.08783684024494393]","[-1,-1,-1]","[0.028482483506758614,-0.021661987719528458]","[1,1,1]","[0.015293817317882602,-0.10717212216861294]","[-1,-1,-1]","[0.19522578608356048,0.023610205873843295]","[1,1,1]","[-0.0480926848765087,0.11233097010997597]","[1,1,1]","[0.12086594142114664,-0.1335060118284254]","[-1,-1,-1]","[-0.15216648387343298,0.1241407198263787]","[-1,-1,-1]","[-0.016497713471466068,0.009384512675332116]","[1,1,1]","[0.06935283832049385,0.13874605483108196]","[1,1,1]","[0.055847818689329205,-0.05695471376810824]","[1,1,1]","[0.05948300910583113,0.09263473647033425]","[1,1,1]","[0.14451603524869844,-0.03731629209094404]","[1,1,1]","[0.02,0.02]",244.3794,0,39,39,124,1,,,,,,,
,,,,,,,5e8a5a892f6f027054a83d88,682f0fb95704f10fc35dc60b,2025-05-22_13h51.50.805,cuing_paradigm_dot,2024.1.5,Win32,166.6666667,682d573fa47f1360d1451895,,,,,,,,,,,244.3796,244.8766,,,245.1254,245.9501,right,0.8156,,,,,,,,,0.5,,,,,,244.8767,245.1254,245.9501,"[0.050096696074255494,0.05415054040418878]","[1,1,1]","[0.14418059241515094,-0.09396716338442702]","[-1,-1,-1]","[-0.014048858911711185,-0.11808396287300678]","[-1,-1,-1]","[0.0006861490201786216,0.16461654214182353]","[-1,-1,-1]","[-0.11606320926272658,0.15566825055158068]","[-1,-1,-1]","[0.04772196870318127,0.1694072654630101]","[1,1,1]","[0.12157985915224576,0.0320303834950356]","[-1,-1,-1]","[0.16731254936572046,0.07434272594093921]","[1,1,1]","[0.05492183084029067,-0.1466017612182682]","[-1,-1,-1]","[0.15042014903776915,-0.029632216081614756]","[-1,-1,-1]","[-0.14242209056986513,-0.10548169731711166]","[1,1,1]","[-0.09018897168970517,0.0015007685108906627]","[1,1,1]","[-0.08488818069542188,0.05266434372138414]","[1,1,1]","[0.12669674805147604,-0.13906734981820756]","[1,1,1]","[-0.0001231866971206743,0.012396816829770698]","[-1,-1,-1]","[0.172618762321643,0.005728079173381453]","[-1,-1,-1]","[0.045886247560637985,0.11277472080879639]","[-1,-1,-1]","[-0.07646316889412076,-0.08357860789290165]","[-1,-1,-1]","[0.047294439602435484,-0.026133537577194527]","[1,1,1]","[-0.05364762277838215,-0.17490214481760813]","[1,1,1]","[-0.08800913290614697,-0.039990546100248825]","[-1,-1,-1]","[-0.016100962632593415,-0.03956722575280206]","[1,1,1]","[0.10158438420175735,0.14731063425690435]","[1,1,1]","[-0.17620552207107254,-0.06865215025326896]","[1,1,1]","[-0.04131355102535376,0.12246685803838969]","[-1,-1,-1]","[-0.12872430177746172,0.05481565977949494]","[-1,-1,-1]","[0.023085956156767482,-0.0797773278481471]","[-1,-1,-1]","[-0.18447630164334936,0.05926195265327454]","[-1,-1,-1]","[-0.043130591659389664,0.07994204638613515]","[1,1,1]","[0.009476886439369536,0.056578404410266396]","[1,1,1]","[-0.15797392769753013,0.02708738440705443]","[1,1,1]","[-0.0756484569460177,0.15132181064442937]","[1,1,1]","[0.02,0.02]",247.0477,0,40,40,95,1,,,,,,,
,,,,,,,5e8a5a892f6f027054a83d88,682f0fb95704f10fc35dc60b,2025-05-22_13h51.50.805,cuing_paradigm_dot,2024.1.5,Win32,166.6666667,682d573fa47f1360d1451895,,,,,,,,,,,247.0479,247.5448,,,247.7937,248.1878,left,0.3863,,,,,,,,,0.9,,,,,,247.5449,247.7937,248.1879,"[-0.030310624208095993,0.15946919069493193]","[1,1,1]","[0.19567670920183558,-0.022253977580266742]","[1,1,1]","[0.007048961013285189,0.10162881785767726]","[-1,-1,-1]","[-0.1791234489669131,0.07282797380765584]","[1,1,1]","[-0.11862416319763922,0.058377090432257604]","[1,1,1]","[0.05981091126888926,-0.12782057622358467]","[1,1,1]","[0.11882634404768556,0.059412298060710696]","[1,1,1]","[-0.09790136132689872,-0.07919255561220802]","[1,1,1]","[-0.09128747646732124,0.020005778200974118]","[1,1,1]","[0.1476462032326543,0.030866482690841173]","[1,1,1]","[-0.09410030364208273,-0.16746228923139042]","[-1,-1,-1]","[0.04946780455973078,-0.06667869661786123]","[1,1,1]","[-0.17525426656323206,-0.03274736275322095]","[1,1,1]","[-0.12901089497325083,0.13822109522679077]","[1,1,1]","[-0.035322038217344164,0.0007182337868175894]","[1,1,1]","[0.042615016801133325,-0.021952610495044506]","[1,1,1]","[-0.053529870527834526,0.04788250114560026]","[-1,-1,-1]","[-0.09328324997225106,-0.029941170796371448]","[1,1,1]","[0.08448099391324632,0.029312494403657307]","[1,1,1]","[0.1481306369064209,-0.07844822542627986]","[1,1,1]","[0.14949108751341111,-0.02103220711783477]","[1,1,1]","[-0.13373752617484402,-0.10689838771291536]","[1,1,1]","[0.10595644114363847,-0.08018748218278492]","[1,1,1]","[-0.019273328586020357,-0.19853679372999228]","[1,1,1]","[0.09228068644254248,0.14040288570592926]","[1,1,1]","[-0.06162819202581336,0.089602852202627]","[1,1,1]","[-0.013654369305625282,-0.08977391727967914]","[1,1,1]","[-0.018831384297791097,-0.15287444312104997]","[1,1,1]","[0.06833035905425104,0.09108548773024562]","[1,1,1]","[-0.1635838407672234,0.01949202215882796]","[1,1,1]","[-0.059962084702886456,0.19033204114937463]","[1,1,1]","[0.0795336646011655,-0.18333488694831493]","[1,1,1]","[0.02,0.02]",249.2854,0,41,41,204,1,,,,,,,
,,,,,,,5e8a5a892f6f027054a83d88,682f0fb95704f10fc35dc60b,2025-05-22_13h51.50.805,cuing_paradigm_dot,2024.1.5,Win32,166.6666667,682d573fa47f1360d1451895,,,,,,,,,,,249.2855,249.7827,,,250.0314,250.4074,left,0.3674,,,,,,,,,0.55,,,,,,249.7827,250.0314,250.4074,"[0.1415285327475949,0.10994449251790285]","[-1,-1,-1]","[-0.04044417143889745,-0.07047853437688006]","[-1,-1,-1]","[0.11117092413129412,-0.08727601443522674]","[1,1,1]","[-0.04145246033356819,0.09782672717186186]","[-1,-1,-1]","[-0.11625494617430365,0.07739998359314827]","[1,1,1]","[-0.18540367603919108,0.022867813011859688]","[1,1,1]","[-0.02742811255239226,0.18171215279085157]","[-1,-1,-1]","[0.10701192644601472,-0.1549867127018194]","[-1,-1,-1]","[-0.02188229916810919,0.13280085636344832]","[1,1,1]","[0.11173143765337008,0.02098301411409027]","[-1,-1,-1]","[0.052801066478346814,0.07692510024554289]","[-1,-1,-1]","[0.06774205973655398,0.14092288015398866]","[-1,-1,-1]","[-0.14574066040065245,-0.07183604894477968]","[1,1,1]","[0.07874805839559715,-0.03613898848393644]","[-1,-1,-1]","[-0.08388668192445208,0.05353392502602998]","[-1,-1,-1]","[0.04020565565352304,0.1754718288794159]","[1,1,1]","[-0.09403173277470567,-0.0841065489699886]","[1,1,1]","[-0.1821159448222971,0.07916124668780906]","[1,1,1]","[-0.07389135910986397,0.18425689245343843]","[1,1,1]","[0.044329898651492075,0.018016040567969294]","[1,1,1]","[0.0221550301977603,-0.08472263107509351]","[1,1,1]","[-0.06197787147034746,-0.17369030217699946]","[1,1,1]","[0.16111936787591336,0.059073404514170334]","[1,1,1]","[-0.08645485669279089,0.13941824260878002]","[-1,-1,-1]","[-0.03765730273742548,-0.02873198978309887]","[-1,-1,-1]","[-0.0023484692167698514,-0.04964103265355805]","[1,1,1]","[0.19422450072939054,0.022571525078877035]","[-1,-1,-1]","[0.0018300727837450386,-0.18539566293629406]","[1,1,1]","[-0.11651808531052378,-0.15743831092978378]","[1,1,1]","[-0.010776155253692243,0.04058279979515933]","[1,1,1]","[-0.1414744601653079,-0.021725860422135167]","[-1,-1,-1]","[-0.03189943482702983,-0.11794831825360556]","[1,1,1]","[0.02,0.02]",251.5049,0,42,42,148,1,,,,,,,
,,,,,,,5e8a5a892f6f027054a83d88,682f0fb95704f10fc35dc60b,2025-05-22_13h51.50.805,cuing_paradigm_dot,2024.1.5,Win32,166.6666667,682d573fa47f1360d1451895,,,,,,,,,,,251.505,252.0022,,,252.2508,252.4994,right,0.2372,,,,,,,,,0.55,,,,,,252.0022,252.2508,252.4994,"[0.12419963326158656,-0.12230380252350134]","[1,1,1]","[0.060125443191987,-0.07976460084077469]","[1,1,1]","[-0.10520719350920568,-0.1363853779545655]","[-1,-1,-1]","[-0.10445541293350799,0.05054561235439706]","[1,1,1]","[-0.19495822451423514,-0.024323241731718737]","[-1,-1,-1]","[0.06385463711301666,-0.038798383460748695]","[1,1,1]","[0.007116698563308088,-0.13756851171504683]","[1,1,1]","[0.0198375742433213,0.095339372791737]","[-1,-1,-1]","[-0.00683458681500207,-0.08918943472149933]","[-1,-1,-1]","[0.12498611954001299,0.12901913319595812]","[1,1,1]","[0.09034362499049961,0.06503518802385125]","[1,1,1]","[0.03814010221845044,0.027324515450443135]","[1,1,1]","[-0.030950862161311772,0.049687510743065225]","[-1,-1,-1]","[0.013131854287758971,-0.015064373841621431]","[1,1,1]","[-0.12841840956745987,0.1505451072784442]","[-1,-1,-1]","[0.17655135359109309,-0.030175439075259984]","[-1,-1,-1]","[0.14788336132283234,0.05012204014542729]","[1,1,1]","[-0.0731034779026316,-0.02130918702310304]","[-1,-1,-1]","[0.09223159811272144,0.010446727839664863]","[-1,-1,-1]","[0.05171100906557203,-0.15125561586002553]","[-1,-1,-1]","[-0.03401470247651462,0.19609131944143984]","[1,1,1]","[0.0269797792926386,0.19028726731379528]","[1,1,1]","[-0.08511032740199619,-0.07013493371648642]","[-1,-1,-1]","[-0.12341626441216488,-0.08865649127013778]","[1,1,1]","[-0.04182994648663264,-0.15930010440505585]","[1,1,1]","[-0.08003683039388249,0.13176324989830987]","[1,1,1]","[0.10366180470539023,-0.07770857187837421]","[-1,-1,-1]","[0.17152747217405642,0.016018668267654988]","[1,1,1]","[0.06040010795420282,0.14740470607136316]","[-1,-1,-1]","[0.10580541067399911,-0.16874697787838874]","[-1,-1,-1]","[0.19093388756036245,0.05456948389847064]","[1,1,1]","[0.004635770721084726,-0.18472283378327803]","[1,1,1]","[0.02,0.02]",253.597,0,43,43,123,1,,,,,,,
,,,,,,,5e8a5a892f6f027054a83d88,682f0fb95704f10fc35dc60b,2025-05-22_13h51.50.805,cuing_paradigm_dot,2024.1.5,Win32,166.6666667,682d573fa47f1360d1451895,,,,,,,,,,,253.5971,254.0943,,,254.3434,255.5134,left,1.1694,,,,,,,,,0.5,,,,,,254.0943,254.3434,255.5135,"[0.04177395918339728,-0.07352517940932221]","[1,1,1]","[-0.07619440950332883,0.07816407251616105]","[1,1,1]","[-0.16677224069481925,0.051416507174467226]","[-1,-1,-1]","[-0.12687844523764658,0.07059825730650336]","[1,1,1]","[-0.005281939127849839,0.11887936613737017]","[-1,-1,-1]","[0.10858803237870675,0.1041473947956545]","[-1,-1,-1]","[-0.1512782342872882,-0.10457821520110791]","[1,1,1]","[0.1059026728088984,0.03586386539998758]","[-1,-1,-1]","[-0.03326305360032048,0.022702190016241314]","[1,1,1]","[0.002737248520977634,-0.15772176319720757]","[1,1,1]","[0.06031049635705079,0.1275629376771657]","[-1,-1,-1]","[0.016699761680829556,0.04243591365274869]","[-1,-1,-1]","[0.0637677613281676,0.030854415461016912]","[1,1,1]","[-0.1011662237838471,-0.03736805079306261]","[-1,-1,-1]","[0.029972922132036676,0.19604282563826667]","[-1,-1,-1]","[-0.026179833277249702,0.07596663826139892]","[1,1,1]","[-0.0032533335889780237,-0.07586054124178818]","[-1,-1,-1]","[0.15028173875593562,0.046302603603051475]","[1,1,1]","[-0.049761709972211195,-0.10056070412036883]","[-1,-1,-1]","[0.1594430950691849,0.1034706397713245]","[-1,-1,-1]","[0.0720229548729603,-0.12056452679276698]","[-1,-1,-1]","[0.11763252422471068,-0.09718540989686322]","[-1,-1,-1]","[-0.0018675057802841632,0.16096387371233195]","[-1,-1,-1]","[-0.0984049062990208,0.016336237973551822]","[1,1,1]","[0.06104838936664133,-0.1663305584867768]","[1,1,1]","[0.09816600615885222,0.16726223727559728]","[-1,-1,-1]","[-0.04489467772488142,0.14974248654866998]","[-1,-1,-1]","[0.035471839545629304,-0.0006638820180430227]","[1,1,1]","[-0.09670502781550638,-0.17110444231404093]","[1,1,1]","[-0.16214763465553717,-0.0616803485260294]","[1,1,1]","[-0.04769552722020138,-0.15645073677586288]","[1,1,1]","[0.18060245075848078,-0.04879631591356147]","[1,1,1]","[0.02,0.02]",256.6109,0,44,44,100,1,,,,,,,
