right,left,explain.started,explain.stopped,key_resp_3.keys,key_resp_3.rt,key_resp_3.duration,participant,session,date,expName,psychopyVersion,OS,frameRate,study_id,explain_2.started,explain_2.stopped,key_resp_4.keys,key_resp_4.rt,key_resp_4.duration,explain_3.started,explain_3.stopped,key_resp_5.keys,key_resp_5.rt,key_resp_5.duration,fixation.started,fixation.stopped,practice.started,practice.stopped,response.started,response.stopped,key_resp.keys,key_resp.rt,key_resp.duration,feedback.started,feedback.stopped,trials_2.thisRepN,trials_2.thisTrialN,trials_2.thisN,trials_2.thisIndex,trials_2.ran,white_ratio,explain_4.started,explain_4.stopped,key_resp_6.keys,key_resp_6.rt,key_resp_6.duration,dotDisplay.started,dotDisplay.stopped,ITI.started,polygon_1.pos,polygon_1.color,polygon_2.pos,polygon_2.color,polygon_3.pos,polygon_3.color,polygon_4.pos,polygon_4.color,polygon_5.pos,polygon_5.color,polygon_6.pos,polygon_6.color,polygon_7.pos,polygon_7.color,polygon_8.pos,polygon_8.color,polygon_9.pos,polygon_9.color,polygon_10.pos,polygon_10.color,polygon_11.pos,polygon_11.color,polygon_12.pos,polygon_12.color,polygon_13.pos,polygon_13.color,polygon_14.pos,polygon_14.color,polygon_15.pos,polygon_15.color,polygon_16.pos,polygon_16.color,polygon_17.pos,polygon_17.color,polygon_18.pos,polygon_18.color,polygon_19.pos,polygon_19.color,polygon_20.pos,polygon_20.color,polygon_21.pos,polygon_21.color,polygon_22.pos,polygon_22.color,polygon_23.pos,polygon_23.color,polygon_24.pos,polygon_24.color,polygon_25.pos,polygon_25.color,polygon_26.pos,polygon_26.color,polygon_27.pos,polygon_27.color,polygon_28.pos,polygon_28.color,polygon_29.pos,polygon_29.color,polygon_30.pos,polygon_30.color,polygon_31.pos,polygon_31.color,polygon_32.pos,polygon_32.color,dot_size,ITI.stopped,trials.thisRepN,trials.thisTrialN,trials.thisN,trials.thisIndex,trials.ran,break_2.started,break_2.stopped,trials_3.thisRepN,trials_3.thisTrialN,trials_3.thisN,trials_3.thisIndex,trials_3.ran
subject chose white,subject chose black,0.0003,451.8678,space,436.8619,,5e9c3ff1cf719d151612648f,682db3acb8ea98a63d0ed035,2025-05-21_13h16.34.755,cuing_paradigm_dot,2024.1.5,Win32,74.62686567,682d556593cb38ad0a074487,,,,,,,,,,,,,,,,,,,,,,,,,,,,,,,,,,,,,,,,,,,,,,,,,,,,,,,,,,,,,,,,,,,,,,,,,,,,,,,,,,,,,,,,,,,,,,,,,,,,,,,,,,,,,,,,,
,,,,,,,5e9c3ff1cf719d151612648f,682db3acb8ea98a63d0ed035,2025-05-21_13h16.34.755,cuing_paradigm_dot,2024.1.5,Win32,74.62686567,682d556593cb38ad0a074487,451.8681,482.5142,space,0.6316,,,,,,,,,,,,,,,,,,,,,,,,,,,,,,,,,,,,,,,,,,,,,,,,,,,,,,,,,,,,,,,,,,,,,,,,,,,,,,,,,,,,,,,,,,,,,,,,,,,,,,,,,,,,,
,,,,,,,5e9c3ff1cf719d151612648f,682db3acb8ea98a63d0ed035,2025-05-21_13h16.34.755,cuing_paradigm_dot,2024.1.5,Win32,74.62686567,682d556593cb38ad0a074487,,,,,,482.5143,494.1301,space,8.6074,,,,,,,,,,,,,,,,,,,,,,,,,,,,,,,,,,,,,,,,,,,,,,,,,,,,,,,,,,,,,,,,,,,,,,,,,,,,,,,,,,,,,,,,,,,,,,,,,,,,,,,,
,,,,,,,5e9c3ff1cf719d151612648f,682db3acb8ea98a63d0ed035,2025-05-21_13h16.34.755,cuing_paradigm_dot,2024.1.5,Win32,74.62686567,682d556593cb38ad0a074487,,,,,,,,,,,494.1486,494.6366,494.6369,494.8787,494.8787,495.4771,right,0.565,,495.4772,496.5705,0,0,0,0,1,0.8,,,,,,,,,,,,,,,,,,,,,,,,,,,,,,,,,,,,,,,,,,,,,,,,,,,,,,,,,,,,,,,,,,,,,,,,,,,,,,,,,,,,,,
,,,,,,,5e9c3ff1cf719d151612648f,682db3acb8ea98a63d0ed035,2025-05-21_13h16.34.755,cuing_paradigm_dot,2024.1.5,Win32,74.62686567,682d556593cb38ad0a074487,,,,,,,,,,,496.5709,497.0637,497.0637,497.3042,497.3042,498.0643,left,0.7379,,498.0644,499.1576,0,1,1,1,1,0.2,,,,,,,,,,,,,,,,,,,,,,,,,,,,,,,,,,,,,,,,,,,,,,,,,,,,,,,,,,,,,,,,,,,,,,,,,,,,,,,,,,,,,,
,,,,,,,5e9c3ff1cf719d151612648f,682db3acb8ea98a63d0ed035,2025-05-21_13h16.34.755,cuing_paradigm_dot,2024.1.5,Win32,74.62686567,682d556593cb38ad0a074487,,,,,,,,,,,,,,,,,,,,,,,,,,,,499.1579,504.2927,space,2.1241,,,,,,,,,,,,,,,,,,,,,,,,,,,,,,,,,,,,,,,,,,,,,,,,,,,,,,,,,,,,,,,,,,,,,,,,,,,,,,,,,,
,,,,,,,5e9c3ff1cf719d151612648f,682db3acb8ea98a63d0ed035,2025-05-21_13h16.34.755,cuing_paradigm_dot,2024.1.5,Win32,74.62686567,682d556593cb38ad0a074487,,,,,,,,,,,504.307,504.7989,,,505.0529,505.5859,left,0.5096,,,,,,,,,0.1,,,,,,504.7993,505.0529,505.5862,"[-0.020400622297893703,-0.07399195070065845]","[-1,-1,-1]","[-0.08902842676900154,-0.12287303636064427]","[-1,-1,-1]","[-0.06405137520373747,-0.014206899692596378]","[-1,-1,-1]","[0.04838276433526827,0.022600502065017302]","[-1,-1,-1]","[0.02335761797223106,-0.06724262457337679]","[-1,-1,-1]","[0.09757139186020602,0.15416998561786105]","[-1,-1,-1]","[0.020927411446855126,0.09482094016369629]","[-1,-1,-1]","[-0.02002532661836195,0.030784446088546056]","[-1,-1,-1]","[0.02808973037429595,0.17103753357717086]","[-1,-1,-1]","[0.17621648075388763,-0.020880492466683564]","[-1,-1,-1]","[-0.11079801544954157,0.155469671248569]","[-1,-1,-1]","[0.06754022180498034,-0.18490836789524204]","[-1,-1,-1]","[0.11768139208427449,-0.06537443493269221]","[-1,-1,-1]","[-0.15433233611720282,0.0782683913230171]","[-1,-1,-1]","[-0.113703491036688,-0.07455743113242948]","[-1,-1,-1]","[0.024876656108793055,-0.1288937502367212]","[-1,-1,-1]","[-0.07369041722437046,0.06972597339811543]","[-1,-1,-1]","[-0.048726212166729725,0.14176483516993238]","[-1,-1,-1]","[-0.02260278416330347,0.1067333814298042]","[1,1,1]","[-0.14510444204203954,-0.0450847278868602]","[-1,-1,-1]","[-0.13410828485810905,0.03398679112967708]","[-1,-1,-1]","[0.176922807115535,0.05435989382762042]","[-1,-1,-1]","[-0.17828008849037727,0.007038628041077121]","[-1,-1,-1]","[-0.004615082455470051,-0.18356116147003324]","[-1,-1,-1]","[-0.05351125994277289,-0.17436373879082676]","[1,1,1]","[-0.03597863551685948,-0.1216732295480446]","[-1,-1,-1]","[0.06790653865736666,-0.07324911256298262]","[-1,-1,-1]","[0.15190867820285703,-0.09059754343047716]","[1,1,1]","[0.11258570580095666,-0.14239693212673865]","[-1,-1,-1]","[-0.09319116209787522,0.11912460998240519]","[-1,-1,-1]","[-0.0889997179261403,0.0222759798962788]","[-1,-1,-1]","[0.13127731897908643,0.06018299679900972]","[-1,-1,-1]","[0.02,0.02]",506.6795,0,0,0,14,1,,,,,,,
,,,,,,,5e9c3ff1cf719d151612648f,682db3acb8ea98a63d0ed035,2025-05-21_13h16.34.755,cuing_paradigm_dot,2024.1.5,Win32,74.62686567,682d556593cb38ad0a074487,,,,,,,,,,,506.68,507.1729,,,507.4266,507.6664,left,0.2157,,,,,,,,,0.1,,,,,,507.1729,507.4266,507.6665,"[0.041945041446065257,-0.1492191354272728]","[-1,-1,-1]","[-0.002734269979108773,0.1890195035709375]","[-1,-1,-1]","[0.1585054161277604,0.11178948527120694]","[-1,-1,-1]","[0.12401351369414526,0.03553572061962763]","[-1,-1,-1]","[-0.1190061328962406,0.14700134133136877]","[-1,-1,-1]","[0.07896149206131206,-0.02639517295506724]","[-1,-1,-1]","[-0.07338603553744136,0.09034610997304678]","[-1,-1,-1]","[-0.042484114085979074,-0.08974575484700639]","[-1,-1,-1]","[0.0953198385323487,0.1394839940602251]","[1,1,1]","[-0.08377433981128207,-0.14709286991608705]","[1,1,1]","[-0.09085350363159098,0.0350761726092335]","[-1,-1,-1]","[-0.01701617041793678,0.12098511551792948]","[-1,-1,-1]","[-0.07950335186637451,0.17548850820986886]","[-1,-1,-1]","[-0.08763445670371883,-0.08659068762707715]","[-1,-1,-1]","[0.031151857938742224,0.045589788479853455]","[-1,-1,-1]","[-0.05097923154223756,-0.1818202649431639]","[-1,-1,-1]","[-0.1235765653547456,0.07403342372984635]","[-1,-1,-1]","[-0.18416041082207216,-0.009510654096786477]","[-1,-1,-1]","[-0.05333721016548808,0.008271814011666203]","[-1,-1,-1]","[0.06366073012829818,-0.18471760433636963]","[-1,-1,-1]","[-0.1671666801088305,-0.06747774233710038]","[-1,-1,-1]","[0.0403613725045159,-0.0004129284011086061]","[-1,-1,-1]","[0.12959666765253966,0.07807632420897268]","[-1,-1,-1]","[-0.018344235980181946,-0.14737724283467757]","[-1,-1,-1]","[0.16414141594140885,-0.09787529476214993]","[-1,-1,-1]","[-0.15560898121338831,-0.114150548567696]","[-1,-1,-1]","[-0.10924627108848184,-0.017491951177994246]","[-1,-1,-1]","[0.18703650739129354,-0.012524434258660422]","[-1,-1,-1]","[0.055086459264157235,0.08569437519897405]","[-1,-1,-1]","[0.020678025475092426,0.14199852982080738]","[1,1,1]","[0.12600795813790955,-0.12426618605776625]","[-1,-1,-1]","[0.059142436063539375,-0.10676624834510727]","[-1,-1,-1]","[0.02,0.02]",508.7599,0,1,1,23,1,,,,,,,
,,,,,,,5e9c3ff1cf719d151612648f,682db3acb8ea98a63d0ed035,2025-05-21_13h16.34.755,cuing_paradigm_dot,2024.1.5,Win32,74.62686567,682d556593cb38ad0a074487,,,,,,,,,,,508.7602,509.2533,,,509.4938,509.8271,right,0.3169,,,,,,,,,0.6,,,,,,509.2533,509.4938,509.8273,"[0.05866688579149918,0.12128830212042847]","[1,1,1]","[-0.06658977024827521,-0.1009663477454204]","[1,1,1]","[-0.03467514315437989,-0.05691518939414437]","[1,1,1]","[0.1404689831799961,-0.050356422994384635]","[-1,-1,-1]","[0.08390458560205753,-0.128536572026691]","[-1,-1,-1]","[-0.10937038748481437,-0.14845370864383522]","[-1,-1,-1]","[0.09947201844680832,0.0866096400682369]","[-1,-1,-1]","[0.022590597889256808,0.07803266989265542]","[1,1,1]","[-0.013163081597294651,0.0029904096131827683]","[1,1,1]","[-0.06132759746623767,0.06915298357712212]","[-1,-1,-1]","[-0.13123357133083838,-0.09681852847730527]","[-1,-1,-1]","[0.16045182488159537,0.07750817241153501]","[-1,-1,-1]","[-0.03696859568782739,-0.15115926541135238]","[-1,-1,-1]","[0.03301039475840836,0.018137755849135035]","[1,1,1]","[-0.08257088797626536,0.16228326079116262]","[1,1,1]","[0.10149955262009902,0.1431038055480693]","[-1,-1,-1]","[0.19193990427991248,0.05026343516453145]","[1,1,1]","[0.012195043271858738,-0.1790009509992135]","[1,1,1]","[-0.16880022202464173,-0.021601728974819445]","[1,1,1]","[-0.030413246701739765,0.10065936949920917]","[-1,-1,-1]","[-0.12878354427576957,-0.048843417154782014]","[1,1,1]","[0.05976112056352756,-0.08265205873975906]","[1,1,1]","[0.09770482877407194,-0.04243778165622342]","[1,1,1]","[0.055743613871749885,-0.1892037202249837]","[1,1,1]","[0.15199948637684424,-0.009647950422949794]","[-1,-1,-1]","[-0.0007309424261297869,-0.10958611090515546]","[-1,-1,-1]","[-0.14574013008049658,0.13617419216301554]","[1,1,1]","[0.03159647496201453,-0.14115895365336817]","[-1,-1,-1]","[-0.09319368355960626,0.12072679007994848]","[1,1,1]","[-0.10721735201740747,0.047413232901053017]","[1,1,1]","[-0.036807086287420965,0.16817345386357144]","[1,1,1]","[-0.07370806466253152,0.019455878192867128]","[1,1,1]","[0.02,0.02]",510.9203,0,2,2,174,1,,,,,,,
,,,,,,,5e9c3ff1cf719d151612648f,682db3acb8ea98a63d0ed035,2025-05-21_13h16.34.755,cuing_paradigm_dot,2024.1.5,Win32,74.62686567,682d556593cb38ad0a074487,,,,,,,,,,,510.9206,511.4138,,,511.6675,512.2943,right,0.6014,,,,,,,,,0.4,,,,,,511.4139,511.6675,512.2944,"[-0.10474466331842758,0.04046642340499181]","[1,1,1]","[-0.10254606307399715,-0.134363670712755]","[1,1,1]","[-0.14901317258805138,0.10215360373377737]","[-1,-1,-1]","[-0.06553200288001276,0.007303883819716296]","[-1,-1,-1]","[0.12541417128454646,-0.007956600969545707]","[1,1,1]","[-0.05051230817237461,-0.03199592199229375]","[1,1,1]","[0.06606984879625966,0.18538990001654032]","[-1,-1,-1]","[0.09319116082058403,0.05189671753711171]","[-1,-1,-1]","[0.06450069024205576,0.12587135139952135]","[-1,-1,-1]","[0.10311995554491117,0.16290773400632474]","[-1,-1,-1]","[-0.11144964921497405,-0.02127449761130695]","[-1,-1,-1]","[0.15718010347608757,-0.10730443489250001]","[1,1,1]","[0.03806988219661153,-0.1927831394680204]","[1,1,1]","[-0.06906056565674774,0.05961662178471761]","[-1,-1,-1]","[-0.020621815156418803,-0.1878631935812181]","[-1,-1,-1]","[-0.14399471056562654,-0.09885935385712827]","[-1,-1,-1]","[0.023228164237369727,-0.06279330826006757]","[-1,-1,-1]","[0.033848130951494526,-0.00856901543485477]","[1,1,1]","[-0.16348758001144464,0.06321428608392345]","[1,1,1]","[-0.11990654964282045,0.15362852302389673]","[1,1,1]","[0.1451797170071677,0.0867762250803828]","[-1,-1,-1]","[0.047660630318364386,0.03721018053767112]","[-1,-1,-1]","[-0.04854205407987788,-0.12909783256905716]","[-1,-1,-1]","[0.020237136611657353,-0.11831965114420659]","[1,1,1]","[0.09128128172367561,-0.13519417378005225]","[-1,-1,-1]","[-0.00034176161625306805,0.1876598328338705]","[1,1,1]","[0.00606434933708963,0.11443262908522406]","[-1,-1,-1]","[0.004396406320471194,0.07203043563054905]","[1,1,1]","[-0.04222582165326932,-0.08441705712012279]","[-1,-1,-1]","[0.06472950352727201,-0.051802012693623556]","[-1,-1,-1]","[-0.1856700558051733,-0.03892692266536426]","[1,1,1]","[-0.0942955432264648,-0.07796539304631703]","[-1,-1,-1]","[0.02,0.02]",513.3876,0,3,3,42,1,,,,,,,
,,,,,,,5e9c3ff1cf719d151612648f,682db3acb8ea98a63d0ed035,2025-05-21_13h16.34.755,cuing_paradigm_dot,2024.1.5,Win32,74.62686567,682d556593cb38ad0a074487,,,,,,,,,,,513.388,513.8809,,,514.1347,514.9746,left,0.82,,,,,,,,,0.5,,,,,,513.8811,514.1347,514.9747,"[0.15431350911104597,-0.05683886970167681]","[1,1,1]","[0.16058990725032557,0.07420430821737316]","[-1,-1,-1]","[0.09364759303280992,-0.0746183576506052]","[1,1,1]","[0.11407037146978807,0.09872120954745316]","[-1,-1,-1]","[-0.04622382588381984,0.0979548281970801]","[-1,-1,-1]","[-0.02527510805326069,0.005489432589784418]","[-1,-1,-1]","[-0.10646908573909308,-0.1408840962546983]","[-1,-1,-1]","[0.06141615464493847,-0.13038200922642695]","[-1,-1,-1]","[-0.02189163905946371,0.17842618524336154]","[-1,-1,-1]","[0.12939562383052536,0.004525856981095744]","[1,1,1]","[-0.16905071923801623,0.10603917570418997]","[-1,-1,-1]","[0.09250945949167702,0.1682840311655504]","[-1,-1,-1]","[0.021973011599565613,0.1239852988247799]","[1,1,1]","[-0.023260128506117552,-0.15170601928974461]","[1,1,1]","[-0.09511224133819626,0.06387755343400359]","[1,1,1]","[-0.1627720799367142,-0.08704270668166193]","[1,1,1]","[-0.11791575055622913,0.14133888276561213]","[1,1,1]","[0.007374034647744862,-0.09559243011902112]","[1,1,1]","[0.017842348650559302,0.058187129320620756]","[1,1,1]","[0.11947238129070382,0.053551940768018065]","[-1,-1,-1]","[-0.0858485707787087,-0.01926677361724583]","[1,1,1]","[-0.16884971581478236,-0.04533327563987296]","[1,1,1]","[-0.13152196555351464,0.045391921725589486]","[1,1,1]","[-0.1026220129996791,-0.07598244310747455]","[1,1,1]","[0.18394599980163232,0.01456277202804448]","[-1,-1,-1]","[0.09295126600286867,-0.16520569468498605]","[-1,-1,-1]","[0.0771698711501897,0.12759880176596936]","[1,1,1]","[0.04679786232140543,0.028961385112074477]","[-1,-1,-1]","[-0.004953983404849489,-0.04806220549587833]","[1,1,1]","[-0.06579405007087274,-0.17359896905763417]","[-1,-1,-1]","[-0.18066048809936294,0.023157145740964852]","[-1,-1,-1]","[-0.14301613511399572,-0.008969033961048013]","[-1,-1,-1]","[0.02,0.02]",516.0683,0,4,4,97,1,,,,,,,
,,,,,,,5e9c3ff1cf719d151612648f,682db3acb8ea98a63d0ed035,2025-05-21_13h16.34.755,cuing_paradigm_dot,2024.1.5,Win32,74.62686567,682d556593cb38ad0a074487,,,,,,,,,,,516.0686,516.5617,,,516.8023,517.4419,left,0.6161,,,,,,,,,0.45,,,,,,516.5617,516.8022,517.442,"[-0.11183710681917919,-0.13991506255322117]","[-1,-1,-1]","[-0.018964191725979535,0.18260669894557272]","[1,1,1]","[-0.08152431728913916,0.10218161825289178]","[1,1,1]","[-0.12579890390585652,0.08271041133913414]","[1,1,1]","[-0.1292511914025463,0.037962639962190424]","[-1,-1,-1]","[0.04717348428867532,-0.09904578272274105]","[-1,-1,-1]","[-0.012387259873660047,0.023451739777559714]","[1,1,1]","[0.01020587770505565,0.0864513358376547]","[-1,-1,-1]","[-0.17529234602212224,0.012096038158481946]","[1,1,1]","[-0.010669576670515782,-0.16447095809404275]","[-1,-1,-1]","[0.13210007758001485,0.11878146550165336]","[-1,-1,-1]","[-0.05358062801609626,-0.05815845945563045]","[1,1,1]","[0.08103930699192362,-0.009009675784297868]","[-1,-1,-1]","[0.046863701939023006,0.04349447392823455]","[-1,-1,-1]","[-0.11801322712238731,0.1521530723715315]","[1,1,1]","[-0.14536999093833883,-0.019587755677278124]","[1,1,1]","[0.15485711889008655,-0.032605903778004264]","[-1,-1,-1]","[0.0945731161049358,0.1350431077445796]","[-1,-1,-1]","[0.05684445016367599,0.15798691174284282]","[1,1,1]","[0.15904002510291246,0.022783270736980048]","[-1,-1,-1]","[0.03925643585462299,-0.17009694950260007]","[-1,-1,-1]","[-0.026650851567538967,0.13954925286812822]","[1,1,1]","[-0.16243210058391697,0.1050770732996185]","[-1,-1,-1]","[0.11165136780079196,-0.05159709638672228]","[1,1,1]","[0.1302729088129034,-0.08929138099405108]","[-1,-1,-1]","[-0.04204636660164667,0.07837977174131425]","[-1,-1,-1]","[0.1343409645385655,0.07086389245147966]","[1,1,1]","[-0.10028948328059109,-0.021864982302454903]","[1,1,1]","[-0.06847440344584965,-0.14022338244284546]","[-1,-1,-1]","[-0.05340670527661375,0.026438881115725454]","[-1,-1,-1]","[0.0732471560298833,-0.14421351095960971]","[1,1,1]","[0.11376464160080166,-0.1517018037633499]","[-1,-1,-1]","[0.02,0.02]",518.5354,0,5,5,64,1,,,,,,,
,,,,,,,5e9c3ff1cf719d151612648f,682db3acb8ea98a63d0ed035,2025-05-21_13h16.34.755,cuing_paradigm_dot,2024.1.5,Win32,74.62686567,682d556593cb38ad0a074487,,,,,,,,,,,518.5358,519.0287,,,519.2708,519.8692,right,0.5744,,,,,,,,,0.6,,,,,,519.0288,519.2708,519.8692,"[-0.011631941184134352,0.0007694687886329507]","[1,1,1]","[-0.10072923354907505,0.05483193505250468]","[1,1,1]","[0.0917595974841817,0.13435728394750718]","[1,1,1]","[-0.16734409707107345,-0.07751427735820744]","[1,1,1]","[0.13518468387279756,-0.042755470814091937]","[1,1,1]","[0.09860239876525542,-0.07497120166424699]","[1,1,1]","[0.005922256899033554,-0.17442881014046147]","[-1,-1,-1]","[-0.06412155227677156,-0.15005230328946978]","[-1,-1,-1]","[0.018695010061138956,0.05063109399690232]","[1,1,1]","[-0.03872738621201879,-0.10632470592881176]","[1,1,1]","[0.0033175712710717645,0.1689834838137601]","[-1,-1,-1]","[0.1290195898226105,0.07566250271717648]","[1,1,1]","[0.02996692448431965,-0.04958052334496906]","[-1,-1,-1]","[0.006793835579912037,-0.12228552317260474]","[1,1,1]","[-0.03042415550061974,0.19125579411158874]","[1,1,1]","[-0.1841092436979117,0.032385687327530034]","[1,1,1]","[0.1435931775495582,0.005404413469069937]","[-1,-1,-1]","[0.06462205669433702,0.04899852443632813]","[1,1,1]","[-0.036763727804030616,0.08952028147680934]","[1,1,1]","[-0.08096298999615502,-0.026451996082491727]","[-1,-1,-1]","[-0.10611957011384478,0.12838070038249436]","[-1,-1,-1]","[0.1460865623473584,0.12608109060115116]","[-1,-1,-1]","[-0.15407810824487517,-0.12385016999482969]","[1,1,1]","[-0.16839224282806028,0.10040516765884469]","[1,1,1]","[-0.0012503131698095335,0.12304182064460184]","[-1,-1,-1]","[0.06409371779817381,-0.12239463429984486]","[1,1,1]","[-0.09323399513718293,-0.09908490199312334]","[-1,-1,-1]","[0.08553427995453787,-0.03408810051376525]","[1,1,1]","[0.04922101397019032,-0.17031010222839524]","[-1,-1,-1]","[0.17891651250769292,0.039480334922720586]","[-1,-1,-1]","[0.12915409176605486,-0.1251753891724649]","[-1,-1,-1]","[-0.12350461800450457,-0.058432271555959786]","[1,1,1]","[0.02,0.02]",520.9629,0,6,6,163,1,,,,,,,
,,,,,,,5e9c3ff1cf719d151612648f,682db3acb8ea98a63d0ed035,2025-05-21_13h16.34.755,cuing_paradigm_dot,2024.1.5,Win32,74.62686567,682d556593cb38ad0a074487,,,,,,,,,,,520.9637,521.4558,,,521.696,521.9627,right,0.2417,,,,,,,,,0.6,,,,,,521.4558,521.696,521.9627,"[0.00021834035516107741,0.14723098368600407]","[-1,-1,-1]","[0.009248857081577109,-0.16699231173712792]","[1,1,1]","[-0.052986698394074536,0.06210872308583423]","[-1,-1,-1]","[-0.06437718638827213,-0.18923348786891347]","[-1,-1,-1]","[0.007456322472827712,-0.1117669623257103]","[1,1,1]","[-0.0828138367363264,-0.13566143495518082]","[1,1,1]","[0.017863161131522125,0.012168165842915225]","[1,1,1]","[-0.13435035381755503,-0.09169877844222658]","[1,1,1]","[-0.12677729789059894,0.1503503797679573]","[1,1,1]","[0.12835276671298051,-0.1214355070534615]","[1,1,1]","[0.041075187339412185,0.1686361917033828]","[-1,-1,-1]","[0.1597147206224274,0.009189531091048952]","[-1,-1,-1]","[0.10180364787426645,0.04224065827399775]","[1,1,1]","[0.1461203944787574,0.05731090774990323]","[-1,-1,-1]","[0.09983119376645058,0.16899956032354221]","[-1,-1,-1]","[-0.09507093458735925,0.0052610870873489165]","[1,1,1]","[0.18345461648116454,-0.04351292297820873]","[1,1,1]","[0.12366372334880131,0.1362051196870941]","[1,1,1]","[0.004418077436871859,-0.057889941921254344]","[-1,-1,-1]","[-0.026535151081288438,0.11507916053014346]","[1,1,1]","[0.11418023124799095,-0.04669765071334917]","[1,1,1]","[-0.12696252746091335,-0.15386239569532198]","[-1,-1,-1]","[-0.08905603733778483,0.17598099826764765]","[-1,-1,-1]","[-0.07856032988871887,0.11672357306503783]","[-1,-1,-1]","[-0.11916886975742128,-0.03951067437526892]","[-1,-1,-1]","[0.1874580928582465,0.05847087491896325]","[1,1,1]","[0.07516625419884634,0.11739281160063851]","[1,1,1]","[-0.18320952048620912,-0.04554207598622701]","[1,1,1]","[0.04117074753400426,-0.021999967399283085]","[1,1,1]","[-0.14915120407123064,0.0923482670273999]","[-1,-1,-1]","[-0.03891036569582971,-0.13979118858496997]","[1,1,1]","[-0.07759672649089773,-0.04645050482533039]","[1,1,1]","[0.02,0.02]",523.0562,0,7,7,157,1,,,,,,,
,,,,,,,5e9c3ff1cf719d151612648f,682db3acb8ea98a63d0ed035,2025-05-21_13h16.34.755,cuing_paradigm_dot,2024.1.5,Win32,74.62686567,682d556593cb38ad0a074487,,,,,,,,,,,523.0565,523.5496,,,523.8032,524.0431,left,0.2147,,,,,,,,,0.1,,,,,,523.5496,523.8032,524.0431,"[0.08080392846626003,0.04167342144701128]","[1,1,1]","[0.07291739418821189,-0.17021214761538403]","[-1,-1,-1]","[-0.001126841381905503,0.18395228061813948]","[-1,-1,-1]","[-0.06852379881107036,-0.028086886884230475]","[-1,-1,-1]","[-0.07120748443758226,-0.08057807024396998]","[-1,-1,-1]","[-0.0008553957109983545,0.08739635313139421]","[-1,-1,-1]","[-0.04325456757063521,-0.18789156862409262]","[-1,-1,-1]","[-0.04919499700856424,0.019692026928906408]","[-1,-1,-1]","[0.1458188016902182,0.1238733149044751]","[-1,-1,-1]","[-0.022887443326015486,-0.12350650990670337]","[-1,-1,-1]","[0.15499657713547013,0.008443205521583058]","[-1,-1,-1]","[-0.1721061802195384,-0.041991546498659396]","[-1,-1,-1]","[0.018705569906035932,-0.0491099442274957]","[-1,-1,-1]","[0.142994863969758,-0.08574428278138736]","[-1,-1,-1]","[0.12776472911202008,0.07385715226903491]","[-1,-1,-1]","[-0.12198536249557437,-0.1368639925456573]","[-1,-1,-1]","[-0.1688231689536383,0.07132088398730704]","[-1,-1,-1]","[-0.16766797516672638,0.026413874557151194]","[-1,-1,-1]","[0.14981719269144145,-0.13139343322234043]","[-1,-1,-1]","[0.06153594369328788,-0.02783522034844549]","[-1,-1,-1]","[-0.10813205835156359,0.004893509488430931]","[-1,-1,-1]","[-0.07057134286064876,0.10533299920045407]","[-1,-1,-1]","[0.013194273394991848,-0.16678757007472664]","[-1,-1,-1]","[0.18082359638833717,-0.058119439917164534]","[-1,-1,-1]","[0.03048020711318279,-0.1225511732100244]","[1,1,1]","[-0.11380449662279486,0.04922574387364012]","[-1,-1,-1]","[-0.11672823474048664,-0.0369347945167712]","[-1,-1,-1]","[0.19127369696180274,0.03958963224571476]","[1,1,1]","[0.05552667984559976,0.16682771378294553]","[-1,-1,-1]","[0.1400005943038593,-0.033661500455370696]","[-1,-1,-1]","[-0.1328612347017107,-0.09709744209806799]","[-1,-1,-1]","[0.09283957737569144,0.11160082468498346]","[-1,-1,-1]","[0.02,0.02]",525.1366,0,8,8,2,1,,,,,,,
,,,,,,,5e9c3ff1cf719d151612648f,682db3acb8ea98a63d0ed035,2025-05-21_13h16.34.755,cuing_paradigm_dot,2024.1.5,Win32,74.62686567,682d556593cb38ad0a074487,,,,,,,,,,,525.137,525.6301,,,525.8836,526.0969,right,0.1903,,,,,,,,,0.9,,,,,,525.6301,525.8836,526.0969,"[-0.153968437181616,-0.06305063423053413]","[1,1,1]","[0.14860850497516878,0.04841233466504226]","[1,1,1]","[-0.09932043419358967,0.0926281325861426]","[1,1,1]","[0.12010388257852171,-0.13472137261047065]","[1,1,1]","[-0.008816224053415176,-0.11668213930622964]","[1,1,1]","[-0.08949074240771641,-0.004848774119399783]","[1,1,1]","[0.09497582695266582,0.011049825214775792]","[1,1,1]","[0.014464811737095429,-0.1722670035505994]","[-1,-1,-1]","[0.0824020955951713,-0.08802409099531427]","[1,1,1]","[0.07227336443013532,0.13175432786005342]","[1,1,1]","[0.023374775671496397,0.15964786725544014]","[1,1,1]","[0.08777692561585046,-0.047013565923045786]","[1,1,1]","[0.07741954422572293,0.07745324604446945]","[1,1,1]","[0.035740094514323306,0.09298238448571901]","[1,1,1]","[-0.040268720411932246,0.10785586845119452]","[1,1,1]","[-0.13762029663737474,-0.013103464967511424]","[1,1,1]","[-0.10633366424678682,0.15798312253503022]","[1,1,1]","[-0.04672275724185556,0.1912228417760416]","[-1,-1,-1]","[0.12232281396973195,0.13368601139966385]","[1,1,1]","[0.03908224874530084,-0.000725330305847442]","[1,1,1]","[-0.1112718613108414,-0.10293452696654024]","[1,1,1]","[0.1698240238772152,-0.0035304736394060434]","[1,1,1]","[-0.013106848429184076,-0.07377494258013924]","[1,1,1]","[0.0037100188785180645,0.020294649700785327]","[1,1,1]","[0.12666845017270695,0.09179391514959595]","[1,1,1]","[-0.030867715079979794,0.0570225397710437]","[1,1,1]","[0.16926568150730031,-0.061809015081279686]","[1,1,1]","[-0.1862679556746094,-0.029689061276750753]","[1,1,1]","[-0.17168322563302998,0.018664333041943315]","[1,1,1]","[0.04853133110194891,-0.14285752146831218]","[-1,-1,-1]","[0.1955347933109307,0.040772458076783966]","[1,1,1]","[-0.11706985410127448,0.05221716318075888]","[1,1,1]","[0.02,0.02]",527.1906,0,9,9,190,1,,,,,,,
,,,,,,,5e9c3ff1cf719d151612648f,682db3acb8ea98a63d0ed035,2025-05-21_13h16.34.755,cuing_paradigm_dot,2024.1.5,Win32,74.62686567,682d556593cb38ad0a074487,,,,,,,,,,,527.1911,527.6841,,,527.9378,528.4844,right,0.5209,,,,,,,,,0.5,,,,,,527.6841,527.9378,528.4844,"[0.18526319124959528,0.0310643059711885]","[1,1,1]","[0.0729821328504688,-0.019917381895992757]","[1,1,1]","[0.018692649803788732,0.0025175221827873273]","[1,1,1]","[0.11028607669283588,-0.12679591000787127]","[-1,-1,-1]","[0.15338232673848193,-0.043327857552722296]","[1,1,1]","[-0.15176918226566222,0.11177603525295114]","[-1,-1,-1]","[-0.06297891434013358,0.16020520324866314]","[1,1,1]","[-0.0143591080528084,0.03945611702731405]","[-1,-1,-1]","[-0.16374069973055352,-0.06023971627826591]","[1,1,1]","[-0.17876657965298057,0.04457421493985669]","[-1,-1,-1]","[-0.1450507155944711,-0.015768104157290127]","[1,1,1]","[0.10718881869155658,-0.1669537225267163]","[-1,-1,-1]","[-0.0884154960427361,-0.10028871722618059]","[1,1,1]","[0.06785835181084224,0.06357603137225967]","[1,1,1]","[-0.19937090555052078,0.005015641379251391]","[-1,-1,-1]","[0.14072002959317512,0.10712228098258575]","[-1,-1,-1]","[0.12099942639416318,0.03432509951719893]","[1,1,1]","[0.007719763152296318,-0.1258615391035996]","[1,1,1]","[0.018651252591360308,-0.1859213558272096]","[-1,-1,-1]","[-0.058196051857879,-0.07310999900916988]","[-1,-1,-1]","[-0.05038010800575355,0.08051149064465285]","[1,1,1]","[-0.012972747229308978,-0.050968935368731635]","[1,1,1]","[0.06625205467714022,-0.09700040187589626]","[-1,-1,-1]","[0.006920741653109647,0.1921606620746561]","[-1,-1,-1]","[-0.0574982360842742,0.024120521366576747]","[1,1,1]","[0.10936227357758847,0.13681414111851004]","[-1,-1,-1]","[0.11217227508806288,-0.05945094120307853]","[1,1,1]","[0.15980543468239128,-0.09334790454807089]","[-1,-1,-1]","[-0.13854446487848368,0.05059833056663924]","[1,1,1]","[0.0529561799586903,0.14554417836219904]","[-1,-1,-1]","[-0.09727022525992055,-0.06106326756699067]","[-1,-1,-1]","[-0.055352430677460984,-0.13192966541138562]","[-1,-1,-1]","[0.02,0.02]",529.5778,0,10,10,92,1,,,,,,,
,,,,,,,5e9c3ff1cf719d151612648f,682db3acb8ea98a63d0ed035,2025-05-21_13h16.34.755,cuing_paradigm_dot,2024.1.5,Win32,74.62686567,682d556593cb38ad0a074487,,,,,,,,,,,529.5782,530.0713,,,530.3138,530.9647,left,0.6271,,,,,,,,,0.45,,,,,,530.0714,530.3138,530.9647,"[-0.09918515624429021,-0.13230139812951638]","[-1,-1,-1]","[0.04167435503106501,0.09415625021443773]","[1,1,1]","[-0.11026589182968223,0.006288352253546929]","[1,1,1]","[-0.1028554165697887,0.16192295619877722]","[-1,-1,-1]","[-0.019850189039222112,-0.026157263194969062]","[1,1,1]","[-0.028286194419546096,0.13288991771748132]","[-1,-1,-1]","[0.0688729867381545,0.17647335884416945]","[-1,-1,-1]","[0.09496422616798143,0.0678983828535751]","[1,1,1]","[0.11980650400898331,0.1381479588845685]","[-1,-1,-1]","[0.061342292365202424,-0.05836025922707306]","[-1,-1,-1]","[0.09808723186125132,-0.123485861980815]","[-1,-1,-1]","[-0.06670004444149483,0.12172545325447766]","[-1,-1,-1]","[0.05346372458518232,-0.10143973835347704]","[-1,-1,-1]","[0.009695298069156913,-0.14326418239838207]","[1,1,1]","[0.19425403788708046,-0.026198277138783168]","[1,1,1]","[0.1462527574725891,-0.07718996085694853]","[-1,-1,-1]","[-0.17324494858915138,-0.09806505245051163]","[1,1,1]","[0.013959278134817791,0.1431411707313827]","[-1,-1,-1]","[-0.04578052946403097,-0.17056386867351384]","[1,1,1]","[-0.08050933599974198,-0.061306470860466644]","[1,1,1]","[0.01170141331225403,-0.09067902321779557]","[-1,-1,-1]","[-0.1260572725710773,-0.0733052670372802]","[1,1,1]","[-0.1671772269281308,0.04745233142478155]","[1,1,1]","[-0.08828119861178979,0.05664157380369868]","[-1,-1,-1]","[-0.0015058943827046896,0.18579304151901438]","[-1,-1,-1]","[-0.1387189924726793,-0.140086646922406]","[-1,-1,-1]","[-0.06268267997570386,-0.005370888681960224]","[-1,-1,-1]","[0.07940938729122965,0.11936257303846104]","[-1,-1,-1]","[0.03595384439774033,-0.19561164751317628]","[1,1,1]","[0.10369756621591648,0.019317001089126984]","[1,1,1]","[0.15003133580301803,0.05233553291907343]","[-1,-1,-1]","[-0.007544262288955813,0.02986534057973208]","[1,1,1]","[0.02,0.02]",532.0583,0,11,11,73,1,,,,,,,
,,,,,,,5e9c3ff1cf719d151612648f,682db3acb8ea98a63d0ed035,2025-05-21_13h16.34.755,cuing_paradigm_dot,2024.1.5,Win32,74.62686567,682d556593cb38ad0a074487,,,,,,,,,,,532.0585,532.5517,,,532.8068,533.1651,right,0.3404,,,,,,,,,0.55,,,,,,532.5517,532.8068,533.1651,"[0.14866026222068915,0.02810717778204081]","[-1,-1,-1]","[-0.011909658274956108,-0.15898323857879065]","[-1,-1,-1]","[-0.1795500764304331,-0.030789139345629102]","[-1,-1,-1]","[-0.1607192260739879,0.031693773319086016]","[1,1,1]","[0.09377141637799075,-0.16096467955083155]","[-1,-1,-1]","[0.03422737740962301,-0.15863179875367867]","[1,1,1]","[-0.06363916558431114,0.06799987967799694]","[1,1,1]","[0.11993821536525497,-0.03188289206550036]","[1,1,1]","[0.049214638978406826,0.0220187650697813]","[-1,-1,-1]","[-0.1393572687521758,-0.014901505673726662]","[-1,-1,-1]","[-0.07563949949607901,0.12800005123498923]","[-1,-1,-1]","[0.042889612092852164,-0.07689575981295257]","[1,1,1]","[0.1672461567350511,-0.028232321032348122]","[-1,-1,-1]","[0.03292733863147706,0.13749358433229586]","[1,1,1]","[-0.17427005133986018,-0.07726286241351926]","[1,1,1]","[0.07889248069804608,-0.018999222545761515]","[1,1,1]","[-0.08009296662383587,0.17261350212914756]","[1,1,1]","[0.1919049651736222,0.00968904071687729]","[1,1,1]","[0.1547417729931479,0.11388083943699105]","[1,1,1]","[-0.06675471443953697,-0.12688117646435507]","[-1,-1,-1]","[-0.008936103622384811,-0.09726933819435994]","[1,1,1]","[-0.08913066622039043,-0.010634523329805546]","[1,1,1]","[0.02321071110274601,-0.008911922721026807]","[-1,-1,-1]","[-0.11728680944929676,0.07320977902564865]","[1,1,1]","[-0.05143361781914689,0.015082254849528923]","[-1,-1,-1]","[-0.16368953927653604,0.08656130947145425]","[-1,-1,-1]","[0.1248471804126318,0.14540918247959111]","[-1,-1,-1]","[-0.039509707280135815,0.1821706442018002]","[1,1,1]","[0.015329795187613526,0.059661066600908925]","[1,1,1]","[-0.11905519175092978,0.13002924658850898]","[1,1,1]","[0.09843370350566254,0.017390762348509444]","[1,1,1]","[0.10237166420249112,0.09844060038443156]","[-1,-1,-1]","[0.02,0.02]",534.2586,0,12,12,145,1,,,,,,,
,,,,,,,5e9c3ff1cf719d151612648f,682db3acb8ea98a63d0ed035,2025-05-21_13h16.34.755,cuing_paradigm_dot,2024.1.5,Win32,74.62686567,682d556593cb38ad0a074487,,,,,,,,,,,534.2589,534.7521,,,535.0059,535.4589,right,0.4361,,,,,,,,,0.4,,,,,,534.7521,535.0058,535.459,"[-0.1650146888927013,0.017493152878099903]","[1,1,1]","[-0.004154941403950786,-0.06295372862457291]","[1,1,1]","[-0.06150934540569913,-0.14364686371708824]","[-1,-1,-1]","[0.09222408994446647,-0.051925324929724785]","[-1,-1,-1]","[0.0493981143944686,-0.15101192455927964]","[-1,-1,-1]","[-0.1544756240514174,0.06895900810763571]","[-1,-1,-1]","[0.09134903498476771,0.16207589616321658]","[-1,-1,-1]","[0.12137825805329497,-0.008712613584426513]","[-1,-1,-1]","[0.03676368478898393,-0.039634877066354414]","[-1,-1,-1]","[0.007212779616044774,0.13056212312560975]","[1,1,1]","[0.0955382942165473,-0.1649562825544304]","[1,1,1]","[0.06317538073807855,-0.09238518514612612]","[1,1,1]","[-0.0001848139073615444,-0.13701260232317125]","[1,1,1]","[-0.04295675091300307,-0.035336275429081444]","[-1,-1,-1]","[-0.1574694971279478,-0.023373216552431797]","[-1,-1,-1]","[-0.10086316484574294,0.05133656580214256]","[1,1,1]","[0.08288998051605688,0.09178372913978568]","[1,1,1]","[-0.0607404434212461,0.15342474723530772]","[-1,-1,-1]","[0.045175582989268374,0.07772321180187744]","[-1,-1,-1]","[-0.1888621599310233,-0.06497305366919759]","[-1,-1,-1]","[-0.008697162961918808,-0.003993057853661734]","[-1,-1,-1]","[0.003934121916858057,-0.17905955503267335]","[-1,-1,-1]","[-0.09021165757755104,-0.055101147699870144]","[-1,-1,-1]","[-0.12375127200762596,-0.13911378005027378]","[-1,-1,-1]","[-0.021972667303195866,0.1966407053961495]","[1,1,1]","[-0.16097099075384583,-0.11340912789411184]","[1,1,1]","[0.15792922816023466,0.03749176792253209]","[-1,-1,-1]","[-0.08296838333040335,0.1013943789005868]","[1,1,1]","[0.12766361093197287,0.07539414220898387]","[1,1,1]","[0.13463941190451983,-0.09248793238199256]","[1,1,1]","[-0.12466815608044632,0.13304654199597854]","[-1,-1,-1]","[0.18328534298053967,0.0018754831394482386]","[-1,-1,-1]","[0.02,0.02]",536.5524,0,13,13,48,1,,,,,,,
,,,,,,,5e9c3ff1cf719d151612648f,682db3acb8ea98a63d0ed035,2025-05-21_13h16.34.755,cuing_paradigm_dot,2024.1.5,Win32,74.62686567,682d556593cb38ad0a074487,,,,,,,,,,,536.5528,537.0458,,,537.2861,537.6862,left,0.3741,,,,,,,,,0.1,,,,,,537.0458,537.2861,537.6862,"[0.02987773931867685,0.16244482165295684]","[-1,-1,-1]","[0.19115278015180756,-0.012465042644519666]","[-1,-1,-1]","[0.0169248075518499,-0.13642507701185388]","[-1,-1,-1]","[-0.11829403060884502,-0.01666233291041461]","[-1,-1,-1]","[0.06621916579362488,0.0683624923142033]","[-1,-1,-1]","[0.1271407776261517,0.010896645932426128]","[-1,-1,-1]","[-0.005318437111769456,-0.059822306129933646]","[1,1,1]","[-0.03875288917133292,-0.03594364543550545]","[-1,-1,-1]","[-0.006726273223158347,0.026276468904841043]","[-1,-1,-1]","[0.03943084087196893,0.0029828490845530274]","[-1,-1,-1]","[0.10502934480124695,0.05223856540025447]","[-1,-1,-1]","[0.09438155201568724,-0.1353747149822411]","[-1,-1,-1]","[-0.076659184656879,0.07406892697933071]","[-1,-1,-1]","[-0.16891258086956062,0.007146871606519565]","[-1,-1,-1]","[-0.09852315929681042,-0.12257114304708672]","[-1,-1,-1]","[-0.1157824385147969,0.14222650500682993]","[-1,-1,-1]","[0.1465435594028192,-0.08350600388580987]","[-1,-1,-1]","[0.1449362005303698,0.0680029827113883]","[-1,-1,-1]","[0.05295197290929148,0.12868596891758188]","[-1,-1,-1]","[0.0078089459064264325,0.1000421805410067]","[-1,-1,-1]","[-0.0427142971341039,-0.13126915008932652]","[-1,-1,-1]","[0.06982769712127214,-0.18351961812812786]","[-1,-1,-1]","[-0.04971635107550541,0.026670398231144025]","[1,1,1]","[-0.08779238829404312,0.014222235651037656]","[-1,-1,-1]","[-0.021342917770271225,0.07140929361131917]","[-1,-1,-1]","[0.013164405546495301,-0.09547582504119385]","[-1,-1,-1]","[-0.14222734074872662,-0.08381913274592555]","[-1,-1,-1]","[-0.02719912974602161,-0.17149881242297568]","[1,1,1]","[-0.04339272739305984,-0.08696120887857837]","[-1,-1,-1]","[-0.07678585284358039,0.12661920902963392]","[-1,-1,-1]","[0.05700885808811689,-0.07891961310587892]","[-1,-1,-1]","[-0.003550168024819027,0.18874738439109742]","[-1,-1,-1]","[0.02,0.02]",538.7798,0,14,14,17,1,,,,,,,
,,,,,,,5e9c3ff1cf719d151612648f,682db3acb8ea98a63d0ed035,2025-05-21_13h16.34.755,cuing_paradigm_dot,2024.1.5,Win32,74.62686567,682d556593cb38ad0a074487,,,,,,,,,,,538.7802,539.2732,,,539.5142,539.7534,right,0.2168,,,,,,,,,0.9,,,,,,539.2732,539.5142,539.7535,"[0.031154147589666586,0.13064851435282235]","[1,1,1]","[0.07557057721605996,-0.01627952034348441]","[1,1,1]","[0.010584929184334508,-0.07225881870545185]","[1,1,1]","[0.06690991884497256,0.17616792633414963]","[1,1,1]","[0.17095924153183703,0.057258791707911635]","[1,1,1]","[0.06400289775998533,-0.14955973570254355]","[-1,-1,-1]","[0.13155017210013553,0.1313581874296489]","[1,1,1]","[-0.04749899386502466,-0.041071215584457296]","[1,1,1]","[-0.13637526962236554,-0.11859613046320298]","[1,1,1]","[-0.17461604413516094,0.008930109369479277]","[1,1,1]","[0.16488846302850496,0.10567981977382146]","[1,1,1]","[-0.0904195384807824,0.04950591920733915]","[1,1,1]","[-0.14747843198210606,-0.06509722873694047]","[-1,-1,-1]","[0.07246378535948951,0.0630545806432091]","[1,1,1]","[-0.03379898368489801,0.13188842027853717]","[1,1,1]","[0.11374363107187949,-0.054470671897667106]","[1,1,1]","[0.1308747308525539,0.003727191581665917]","[1,1,1]","[0.1131567670056138,-0.10932589135126038]","[1,1,1]","[0.17982792226184685,-0.03251413582239339]","[1,1,1]","[0.16689365461178954,-0.09535685937008284]","[1,1,1]","[0.03807769577830569,-0.03458463193402079]","[-1,-1,-1]","[-0.12152559184947859,0.017471333375649937]","[1,1,1]","[-0.05186591840389645,-0.1632475798098809]","[1,1,1]","[-0.12306947368141932,0.08214642140857471]","[1,1,1]","[-0.02690817419111944,-0.12813989679281074]","[1,1,1]","[-0.049980921035927064,0.033711922698564094]","[1,1,1]","[-0.0033131738203613023,-0.002601321113141036]","[1,1,1]","[-0.038129114363968215,0.18796493277418447]","[1,1,1]","[0.02219516199460579,-0.19503585627497455]","[1,1,1]","[-0.005401877400187848,0.0717887898708976]","[1,1,1]","[-0.08635405238534163,-0.07836556794011959]","[1,1,1]","[-0.05211105464848387,0.0808828776213541]","[1,1,1]","[0.02,0.02]",540.847,0,15,15,194,1,,,,,,,
,,,,,,,5e9c3ff1cf719d151612648f,682db3acb8ea98a63d0ed035,2025-05-21_13h16.34.755,cuing_paradigm_dot,2024.1.5,Win32,74.62686567,682d556593cb38ad0a074487,,,,,,,,,,,540.8474,541.3403,,,541.5944,541.9809,left,0.3683,,,,,,,,,0.1,,,,,,541.3404,541.5944,541.9809,"[0.18240728382369778,0.0815790331994624]","[-1,-1,-1]","[0.18674675078454767,-0.03302080955429163]","[-1,-1,-1]","[-0.07679706208588279,-0.07880424871939094]","[-1,-1,-1]","[0.14953214653815927,0.057650041053162564]","[-1,-1,-1]","[0.12526273011123215,0.13587452690967675]","[-1,-1,-1]","[0.019491728742467823,0.12799715306764742]","[-1,-1,-1]","[-0.13000561748063708,-0.10550184530685904]","[-1,-1,-1]","[0.0807976853097982,-0.045949344656085]","[-1,-1,-1]","[-0.0406437075018993,0.18245128153069323]","[-1,-1,-1]","[0.009363952362711555,0.19742483040082745]","[1,1,1]","[0.08595300275310147,0.04385325199341048]","[-1,-1,-1]","[-0.010267309231582419,-0.0339342082058546]","[-1,-1,-1]","[-0.1616423179298981,0.10037150933893406]","[-1,-1,-1]","[-0.07915221871601832,-0.15706900286670836]","[1,1,1]","[-0.08643325219995586,0.03962030015774228]","[-1,-1,-1]","[0.030746128999003804,0.04752892449492393]","[-1,-1,-1]","[0.06790008141722347,-0.1554792054363907]","[-1,-1,-1]","[0.01742100994594934,-0.1945677060626192]","[-1,-1,-1]","[-0.14515573320323472,0.056574551435180614]","[-1,-1,-1]","[0.13639958352539464,-0.13654753999323796]","[-1,-1,-1]","[-0.15326805125858758,-0.07228623300848509]","[-1,-1,-1]","[0.159281251156162,-0.10066877811294538]","[-1,-1,-1]","[-0.10735433707502251,-0.007682600571377441]","[-1,-1,-1]","[-0.17130350904072458,-0.02799841414025679]","[-1,-1,-1]","[-0.02352910269925184,0.028262973727363423]","[-1,-1,-1]","[-0.026903149374315274,-0.12087472440067386]","[-1,-1,-1]","[0.06849403850889882,-0.08439634937738758]","[-1,-1,-1]","[0.13675716432607862,0.0016328592759376807]","[-1,-1,-1]","[-0.11272317091140925,0.10794095695047183]","[1,1,1]","[-0.1927412790540662,0.04002590732624005]","[-1,-1,-1]","[0.11788515816648405,0.08851876909695819]","[-1,-1,-1]","[-0.040917497395458344,-0.17406665067196392]","[-1,-1,-1]","[0.02,0.02]",543.0742,0,16,16,13,1,,,,,,,
,,,,,,,5e9c3ff1cf719d151612648f,682db3acb8ea98a63d0ed035,2025-05-21_13h16.34.755,cuing_paradigm_dot,2024.1.5,Win32,74.62686567,682d556593cb38ad0a074487,,,,,,,,,,,543.0747,543.5675,,,543.8213,544.0345,left,0.1971,,,,,,,,,0.1,,,,,,543.5675,543.8212,544.0346,"[-0.08320431635742874,-0.03953286380947236]","[-1,-1,-1]","[-0.18307389024593332,-0.05711831872663388]","[-1,-1,-1]","[0.07691720122652765,-0.13511683975722508]","[-1,-1,-1]","[-0.08464979525094131,0.16760302085091658]","[-1,-1,-1]","[-0.13855606286558245,0.022595975531185176]","[-1,-1,-1]","[0.11935725581883636,-0.05839726652830923]","[-1,-1,-1]","[0.03960864148095162,-0.04179533497250531]","[-1,-1,-1]","[-0.061435398242999845,0.02881132869359848]","[-1,-1,-1]","[-0.10582823960480603,0.11886661316614479]","[-1,-1,-1]","[0.05964345444844089,0.126855258085975]","[-1,-1,-1]","[0.026074716432498094,0.06187330247159998]","[-1,-1,-1]","[0.003034795967604758,0.11310438146972474]","[1,1,1]","[0.08096725486593907,0.08310512591885061]","[-1,-1,-1]","[0.0028413025669781536,-0.1934368350330804]","[-1,-1,-1]","[0.11505411183333313,-0.011183727427111722]","[-1,-1,-1]","[-0.11039301491405741,-0.07063141268711269]","[-1,-1,-1]","[0.1430428392625256,-0.13715006365848414]","[-1,-1,-1]","[0.12231319378457593,0.07478816636552478]","[-1,-1,-1]","[0.08089935912617431,0.1656219180887805]","[-1,-1,-1]","[-0.12686484272344506,-0.02524733822678703]","[-1,-1,-1]","[0.013773747584062088,-0.14331102900953582]","[-1,-1,-1]","[-0.18457139957647342,0.03451407385886259]","[-1,-1,-1]","[-0.06911249082379786,-0.10670227279889251]","[-1,-1,-1]","[-0.01481417871122611,0.054988055960219225]","[-1,-1,-1]","[0.12966628633112096,0.026481091250273266]","[1,1,1]","[-0.00982313681502327,0.19365911210822057]","[-1,-1,-1]","[-0.041763136673185895,0.0998480601528685]","[-1,-1,-1]","[-0.15394054459313233,0.06105369422385082]","[-1,-1,-1]","[0.008303212375640604,0.011516727297938626]","[-1,-1,-1]","[0.15826083240675876,-0.07735568204853938]","[1,1,1]","[0.1177855040717226,0.14050007308231802]","[-1,-1,-1]","[-0.03332911164413918,0.1424900067911419]","[-1,-1,-1]","[0.02,0.02]",545.1278,0,17,17,6,1,,,,,,,
,,,,,,,5e9c3ff1cf719d151612648f,682db3acb8ea98a63d0ed035,2025-05-21_13h16.34.755,cuing_paradigm_dot,2024.1.5,Win32,74.62686567,682d556593cb38ad0a074487,,,,,,,,,,,545.1282,545.6213,,,545.8751,546.0882,right,0.1912,,,,,,,,,0.6,,,,,,545.6213,545.8751,546.0882,"[-0.04068963063448842,-0.07997472086821515]","[-1,-1,-1]","[-0.04592465184698867,0.08221609025608874]","[-1,-1,-1]","[-0.004597562987957502,-0.12957520104727457]","[1,1,1]","[-0.02395882384984496,0.02649923945927315]","[1,1,1]","[0.06452991642275191,0.11243129162062185]","[-1,-1,-1]","[0.01887807284995208,0.053880356406388316]","[-1,-1,-1]","[0.11504309509087712,0.13929686581452905]","[1,1,1]","[0.16021299994427726,-0.06207333817789785]","[1,1,1]","[0.15843306484117844,-0.0157868415729604]","[1,1,1]","[0.011662778829966967,0.09372478987687519]","[-1,-1,-1]","[-0.0638628769862125,0.13594791453941746]","[1,1,1]","[-0.1076068447779588,0.15105891409374217]","[-1,-1,-1]","[0.0801534340248623,-0.16343924742772906]","[-1,-1,-1]","[-0.02674958468072006,-0.1666549045216361]","[1,1,1]","[0.002593241850220264,-0.0733974604249971]","[1,1,1]","[-0.18211491388102097,-0.030204532523413385]","[1,1,1]","[-0.01722460504083797,0.16848890297211283]","[-1,-1,-1]","[0.04350349695616524,-0.14531947270986084]","[1,1,1]","[0.12131030409608423,-0.08897299243197669]","[-1,-1,-1]","[-0.15973115230869786,0.10240056208755509]","[-1,-1,-1]","[0.07356901555604824,0.06503437529394915]","[1,1,1]","[0.13050320170387567,0.0880501538633661]","[1,1,1]","[0.1111507409135563,-0.027082203196369753]","[1,1,1]","[0.06416816399300378,0.16124403158136638]","[1,1,1]","[-0.06524612847620608,-0.024441350137456352]","[-1,-1,-1]","[0.0707478680204059,-0.06828544403479876]","[1,1,1]","[-0.08762871411207068,-0.15988667769060402]","[1,1,1]","[-0.11114061749154329,-0.058361456207940796]","[-1,-1,-1]","[0.016633813419488087,0.1336784516683187]","[-1,-1,-1]","[0.012770361678121183,0.004593742813849086]","[1,1,1]","[-0.11460242140306282,0.06882139987024458]","[1,1,1]","[-0.1626544530017034,0.010380678557816514]","[1,1,1]","[0.02,0.02]",547.1816,0,18,18,161,1,,,,,,,
,,,,,,,5e9c3ff1cf719d151612648f,682db3acb8ea98a63d0ed035,2025-05-21_13h16.34.755,cuing_paradigm_dot,2024.1.5,Win32,74.62686567,682d556593cb38ad0a074487,,,,,,,,,,,547.182,547.6751,,,547.9289,548.3553,right,0.4098,,,,,,,,,0.5,,,,,,547.6752,547.9289,548.3554,"[0.011114127445292105,0.04488138849053351]","[-1,-1,-1]","[-0.06408795256800814,0.009177540611852698]","[-1,-1,-1]","[-0.029772292110442435,-0.1578241574389638]","[1,1,1]","[-0.13618453840314426,-0.10147846275728443]","[-1,-1,-1]","[-0.1917560484389867,-0.03961882917955124]","[-1,-1,-1]","[-0.13820893026620368,0.01469271092869124]","[-1,-1,-1]","[-0.08498185529725831,-0.17032802971953107]","[-1,-1,-1]","[-0.08047644597350467,0.09106722357978485]","[1,1,1]","[0.13415504869950315,0.038610854453801996]","[-1,-1,-1]","[0.09304111090862047,-0.0703796538886783]","[-1,-1,-1]","[0.05956042259562548,-0.19080830982724734]","[1,1,1]","[-0.05391641224400969,-0.11364108774736223]","[-1,-1,-1]","[0.05864319061458784,0.01446570753313676]","[-1,-1,-1]","[0.03739398095900629,-0.023024469556988347]","[1,1,1]","[-0.14576548376848233,-0.056002910315276544]","[1,1,1]","[0.15430065595484932,-0.04075812029488077]","[1,1,1]","[0.02459719162338857,0.15897641949774882]","[1,1,1]","[-0.025703743163119634,-0.0765415261035366]","[1,1,1]","[0.10108997929859206,-0.008112475106176461]","[-1,-1,-1]","[0.15157762896636437,0.11806653795054377]","[1,1,1]","[-0.07513296880797578,-0.07486660080211893]","[-1,-1,-1]","[0.035238141368929166,-0.13774816274779966]","[-1,-1,-1]","[0.11392043971999555,0.14986864976294478]","[1,1,1]","[0.06049012609268748,0.1135594456603962]","[-1,-1,-1]","[-0.11451377357393897,0.061133438825146706]","[1,1,1]","[-0.14023553956735885,0.09634812953561493]","[1,1,1]","[0.1219642915432645,-0.1112445975934186]","[1,1,1]","[0.19638186292951748,0.02043743570752081]","[-1,-1,-1]","[-0.1725293859299366,0.058661213551076924]","[1,1,1]","[-0.01125295408251886,0.08321924714356416]","[-1,-1,-1]","[0.10014693975339613,0.09651560362400997]","[1,1,1]","[0.1504416230966176,-0.08292560374296]","[1,1,1]","[0.02,0.02]",549.4488,0,19,19,90,1,,,,,,,
,,,,,,,5e9c3ff1cf719d151612648f,682db3acb8ea98a63d0ed035,2025-05-21_13h16.34.755,cuing_paradigm_dot,2024.1.5,Win32,74.62686567,682d556593cb38ad0a074487,,,,,,,,,,,549.4492,549.9423,,,550.196,550.4758,right,0.2543,,,,,,,,,0.9,,,,,,549.9423,550.196,550.4759,"[-0.015138186337727857,-0.01683131073802826]","[1,1,1]","[0.11646912684856128,-0.10341094811078351]","[1,1,1]","[0.06198966446387662,0.13624577232743135]","[1,1,1]","[0.012014088501612369,0.17963204885573947]","[1,1,1]","[0.0811296136290394,-0.17442119376323326]","[1,1,1]","[0.13478995895357362,-0.029590059016921542]","[1,1,1]","[-0.05830064404447211,0.09687308589514403]","[1,1,1]","[-0.003726269222081383,0.07570741258334775]","[1,1,1]","[-0.0969754377144703,-0.13473796536992988]","[1,1,1]","[0.04373516081168756,-0.18878731994150877]","[1,1,1]","[-0.03536534646515034,0.1954248498833559]","[-1,-1,-1]","[-0.13071398634364292,0.047119579803052425]","[1,1,1]","[0.11555645803726661,0.15414131880725596]","[1,1,1]","[-0.18059607293770194,0.04748399460031124]","[1,1,1]","[-0.07575757786956766,0.13596308294486525]","[1,1,1]","[0.1358092491847848,0.050032615888784944]","[1,1,1]","[0.0031617472694510634,-0.1148195079898382]","[1,1,1]","[0.024683197855688163,-0.07088026173297036]","[1,1,1]","[-0.1829569941356627,-0.06783564008734914]","[1,1,1]","[-0.01865989990341158,-0.14997038234595902]","[-1,-1,-1]","[0.09398487682078402,0.064623475953141]","[1,1,1]","[-0.11806334564473867,-0.016804495736350993]","[1,1,1]","[-0.14327830595483657,-0.05520991333120232]","[1,1,1]","[0.026732795283888985,-0.009608885537654]","[1,1,1]","[-0.003460683738835954,0.03240025158956639]","[1,1,1]","[-0.08915394898316406,0.06533064937459875]","[1,1,1]","[-0.031322878114295946,-0.19602131240750015]","[1,1,1]","[0.17363897562177602,0.016913677368924525]","[1,1,1]","[0.07938394251263403,-0.03983779783562997]","[1,1,1]","[0.04998551435673977,0.08779088741000225]","[1,1,1]","[-0.07005959295588682,-0.03821072824292621]","[1,1,1]","[0.10634828053837728,0.006491400621259299]","[-1,-1,-1]","[0.02,0.02]",551.5692,0,20,20,201,1,,,,,,,
,,,,,,,5e9c3ff1cf719d151612648f,682db3acb8ea98a63d0ed035,2025-05-21_13h16.34.755,cuing_paradigm_dot,2024.1.5,Win32,74.62686567,682d556593cb38ad0a074487,,,,,,,,,,,551.5696,552.0627,,,552.3031,552.7029,right,0.379,,,,,,,,,0.55,,,,,,552.0627,552.3031,552.703,"[-0.12551191805380468,-0.03050732584091847]","[1,1,1]","[-0.11654199470403302,-0.0802734636637234]","[1,1,1]","[-0.10663591742812728,0.015235921346946495]","[-1,-1,-1]","[-0.014517777287201076,0.12475224788091395]","[1,1,1]","[-0.1710862796068076,-0.009829790745252046]","[1,1,1]","[0.00023518587559314086,-0.12118044386395742]","[1,1,1]","[0.014625551190922946,-0.044741353830607435]","[-1,-1,-1]","[0.12507573180423806,0.0475800932561622]","[-1,-1,-1]","[-0.03502342914178301,-0.04677403370372978]","[-1,-1,-1]","[0.0033612361382779877,-0.1751014872414734]","[1,1,1]","[0.013607857612043441,0.024214245149777]","[-1,-1,-1]","[0.05228162183428434,-0.13029295460961612]","[-1,-1,-1]","[0.14253830226704187,0.09229136073370979]","[-1,-1,-1]","[-0.15983054220109422,0.10660954940247433]","[-1,-1,-1]","[-0.14969788626607924,0.033559544660641136]","[1,1,1]","[0.03883662106340993,0.1961110779985355]","[1,1,1]","[0.1081315525853598,-0.06462710963507276]","[1,1,1]","[0.1802233149342264,-0.07183693736192956]","[-1,-1,-1]","[-0.05686217666095545,-0.011731280657980967]","[1,1,1]","[-0.05271015831279733,-0.17773372823392158]","[1,1,1]","[0.08354373941116475,0.049840542178483355]","[1,1,1]","[-0.164609692785704,-0.06826928977594521]","[-1,-1,-1]","[0.11244808835742078,-0.15040390843590043]","[-1,-1,-1]","[0.17656404812538198,0.05881514250524759]","[-1,-1,-1]","[-0.06040586006560114,0.0660360289829986]","[1,1,1]","[0.14519103233218078,-0.10632848217242068]","[1,1,1]","[-0.1008232666584254,-0.1638360184050945]","[-1,-1,-1]","[-0.05949008334379047,-0.13271371584928726]","[1,1,1]","[0.06680205489828604,0.10540368528482578]","[1,1,1]","[0.0767697113365219,-0.024969296704132903]","[-1,-1,-1]","[-0.04587219943235472,0.18076271685707965]","[1,1,1]","[-0.11724368061836471,0.06609142665444656]","[1,1,1]","[0.02,0.02]",553.7965,0,21,21,138,1,,,,,,,
,,,,,,,5e9c3ff1cf719d151612648f,682db3acb8ea98a63d0ed035,2025-05-21_13h16.34.755,cuing_paradigm_dot,2024.1.5,Win32,74.62686567,682d556593cb38ad0a074487,,,,,,,,,,,553.7968,554.2899,,,554.5437,554.9302,left,0.3708,,,,,,,,,0.1,,,,,,554.2899,554.5436,554.9303,"[-0.006209623173662942,0.1642914057706312]","[-1,-1,-1]","[-0.14933259808244162,-0.046859908136483386]","[-1,-1,-1]","[-0.12010373545346331,0.018905754721078902]","[-1,-1,-1]","[-0.10472322387026878,0.13184200832925488]","[-1,-1,-1]","[-0.05305239354872078,-0.13168528287210363]","[-1,-1,-1]","[-0.018142926478085075,0.054952321655478316]","[-1,-1,-1]","[-0.10271977451381703,-0.06137961774140057]","[-1,-1,-1]","[0.12958376931708196,0.06798734986724751]","[-1,-1,-1]","[-0.04153071208716208,-0.029779932997259697]","[-1,-1,-1]","[-0.009907258558224408,-0.18831534907687167]","[-1,-1,-1]","[-0.03443880555361059,0.016320267543559495]","[-1,-1,-1]","[0.04384755007639715,0.15964326531662115]","[-1,-1,-1]","[0.07905196183343668,0.12816240015208907]","[1,1,1]","[-0.02904363633416711,-0.07934790796310084]","[1,1,1]","[0.10990583271495516,-0.0008843270608270259]","[-1,-1,-1]","[0.08812619135393103,-0.17902241552337486]","[-1,-1,-1]","[0.13731504853773316,0.11892497141973378]","[-1,-1,-1]","[0.026212413382427965,0.11976600557705414]","[-1,-1,-1]","[0.058290346576325675,0.022327359227650258]","[-1,-1,-1]","[0.03909040542471771,-0.08522979122849475]","[-1,-1,-1]","[0.19735736082605196,-0.005530807055797917]","[-1,-1,-1]","[0.14351415553377406,-0.03788215244156492]","[-1,-1,-1]","[-0.04967552576967833,0.11470679075754724]","[-1,-1,-1]","[0.13523818372694024,-0.14356512576947034]","[-1,-1,-1]","[-0.13322029308833355,-0.12540597027454]","[-1,-1,-1]","[-0.012229920097905182,-0.12310667341631905]","[-1,-1,-1]","[0.1626583689947183,0.03939817280324041]","[-1,-1,-1]","[-0.17957507000142825,0.06736765038372947]","[1,1,1]","[-0.04546198376053573,0.17710584383046385]","[-1,-1,-1]","[0.08176968749432274,-0.11816970616930055]","[-1,-1,-1]","[0.0069166442279290875,0.01786076510737469]","[-1,-1,-1]","[0.09026670694000417,-0.07736741033757608]","[-1,-1,-1]","[0.02,0.02]",556.0236,0,22,22,18,1,,,,,,,
,,,,,,,5e9c3ff1cf719d151612648f,682db3acb8ea98a63d0ed035,2025-05-21_13h16.34.755,cuing_paradigm_dot,2024.1.5,Win32,74.62686567,682d556593cb38ad0a074487,,,,,,,,,,,556.024,556.517,,,556.7575,557.4107,right,0.6367,,,,,,,,,0.9,,,,,,556.517,556.7574,557.4108,"[-0.14898943851738272,-0.05381036315551947]","[1,1,1]","[-0.08940080269774882,-0.11331292484667585]","[1,1,1]","[0.10679757836324334,-0.03023900260496107]","[1,1,1]","[0.17351705801327424,0.03702238976537737]","[1,1,1]","[-0.08528529903274255,0.1073629759760713]","[1,1,1]","[0.08489789742763339,0.06259247628032784]","[1,1,1]","[0.13363119008466068,0.02447872050162882]","[1,1,1]","[-0.17456577415743418,0.03751185634402261]","[1,1,1]","[0.006315350419297013,-0.15785687925141537]","[1,1,1]","[-0.06777292303396304,0.005029006860761759]","[1,1,1]","[-0.1431043426967791,-0.09417501425024973]","[-1,-1,-1]","[0.03627810585427414,0.04910780291065697]","[1,1,1]","[-0.017063641915611508,0.029967971473424632]","[-1,-1,-1]","[-0.035677749478582294,-0.163036795272805]","[1,1,1]","[-0.08250075689194981,0.1612089155458993]","[1,1,1]","[-0.010568730155911381,0.07220076727915525]","[1,1,1]","[0.10478411951831,0.1486062027820527]","[-1,-1,-1]","[0.05107814494803687,-0.15517895033247686]","[1,1,1]","[0.04929019037280329,-0.0539304990268893]","[1,1,1]","[0.14104407927645682,-0.06543097261255136]","[1,1,1]","[-0.12422212390953564,0.12409310258357602]","[1,1,1]","[0.052119763583762836,0.004117581075948053]","[1,1,1]","[-0.1121840374692658,0.054469435518694376]","[1,1,1]","[-0.10610538036935517,-0.15206257752238536]","[1,1,1]","[-0.08596687239482723,-0.05979939021975219]","[1,1,1]","[0.045435156303598845,0.16276360353947636]","[1,1,1]","[0.15756819181306764,0.10522545859306208]","[1,1,1]","[-0.04802454615219358,0.19279925890456595]","[1,1,1]","[0.034375870152604376,-0.10289976729894897]","[1,1,1]","[-0.18004950932943709,-0.002151059435987607]","[1,1,1]","[-0.11230785310275529,0.010240878273254211]","[1,1,1]","[0.05299204529751698,0.09250469103910267]","[1,1,1]","[0.02,0.02]",558.5042,0,23,23,203,1,,,,,,,
,,,,,,,5e9c3ff1cf719d151612648f,682db3acb8ea98a63d0ed035,2025-05-21_13h16.34.755,cuing_paradigm_dot,2024.1.5,Win32,74.62686567,682d556593cb38ad0a074487,,,,,,,,,,,558.5046,558.9975,,,559.2513,559.6245,right,0.351,,,,,,,,,0.6,,,,,,558.9976,559.2513,559.6245,"[0.15471747398867433,-0.034503711052238095]","[1,1,1]","[-0.06967506544869517,0.010750125639001268]","[1,1,1]","[-0.0638855530997427,0.14787474444687956]","[-1,-1,-1]","[-0.011712289169486823,-0.09925931648953767]","[1,1,1]","[-0.12979584106786468,-0.12573593348475845]","[1,1,1]","[-0.1118873750403494,-0.026819931302441202]","[1,1,1]","[0.07178142762659816,0.12748856690735055]","[-1,-1,-1]","[-0.03948440904347102,-0.03655683192049051]","[-1,-1,-1]","[-0.16657727089014437,-0.07011290374681195]","[1,1,1]","[0.0777807691430323,0.053764327846447024]","[-1,-1,-1]","[-0.024503265258589837,0.17585957188829354]","[1,1,1]","[-0.03763240309198039,0.05251733684535685]","[1,1,1]","[-0.10985413118221297,0.061306380524598116]","[-1,-1,-1]","[0.17688911276468802,0.08336944957111819]","[-1,-1,-1]","[0.00201604978705385,-0.036138573697465204]","[-1,-1,-1]","[-0.0330265944182745,0.09406579909082824]","[1,1,1]","[-0.07024409382753603,-0.1473589091550522]","[-1,-1,-1]","[0.09880141231662458,-0.03798590668124185]","[-1,-1,-1]","[-0.19274179335288297,0.03685903618297926]","[1,1,1]","[0.12092934765277055,0.1582462731645162]","[1,1,1]","[0.14335440004402988,-0.10119221003781677]","[1,1,1]","[-0.14163474900989848,0.12310544543233538]","[1,1,1]","[-0.00850075617001681,0.1318819780830504]","[-1,-1,-1]","[0.027426747661962545,-0.17963259595905084]","[1,1,1]","[0.06674325738941136,-0.10960914763492699]","[1,1,1]","[-0.022051694026613312,-0.13979612806471772]","[1,1,1]","[0.04738206719710471,0.19086905849223448]","[-1,-1,-1]","[0.04418995566391804,0.014037650142985468]","[-1,-1,-1]","[-0.06139983239211604,-0.18652315101332184]","[1,1,1]","[0.11830775698074206,0.07843185318530875]","[1,1,1]","[-0.06295500592767746,-0.0888123258023227]","[-1,-1,-1]","[0.09984936821549545,0.003989420447248902]","[1,1,1]","[0.02,0.02]",560.7179,0,24,24,168,1,,,,,,,
,,,,,,,5e9c3ff1cf719d151612648f,682db3acb8ea98a63d0ed035,2025-05-21_13h16.34.755,cuing_paradigm_dot,2024.1.5,Win32,74.62686567,682d556593cb38ad0a074487,,,,,,,,,,,560.7181,561.2112,,,561.4648,561.9847,right,0.4967,,,,,,,,,0.6,,,,,,561.2113,561.4647,561.9847,"[-0.005188843867289775,0.10624857965329769]","[-1,-1,-1]","[0.12842076651276685,0.09177980677653719]","[-1,-1,-1]","[-0.07089668564842347,0.09254242286505199]","[-1,-1,-1]","[0.02532483984249584,-0.08887453578875087]","[-1,-1,-1]","[-0.156568582332799,-0.04245730765128438]","[1,1,1]","[0.1451055852546218,-0.025491462371956368]","[1,1,1]","[-0.039661308193879155,-0.05531411399583647]","[-1,-1,-1]","[0.0958563683954517,0.03575746071071854]","[-1,-1,-1]","[0.05798983898447731,0.01800832503404089]","[-1,-1,-1]","[-0.041111678541381036,0.1467702345789846]","[1,1,1]","[0.04429223211119377,0.10508837766817589]","[1,1,1]","[0.10563309012535228,-0.04765557895664107]","[1,1,1]","[0.029226701479334895,0.05154973356550653]","[1,1,1]","[-0.13506939722938563,0.02033775286527531]","[1,1,1]","[0.12190030202878249,0.15401322114317045]","[1,1,1]","[0.01683293848817748,-0.18290608811012862]","[-1,-1,-1]","[-0.09403292567828346,-0.15700517702650468]","[1,1,1]","[-0.12665769934401475,-0.11109565808229234]","[-1,-1,-1]","[0.18430572299761755,-0.0027995636518846046]","[-1,-1,-1]","[0.1584937869942773,-0.06546902784923475]","[-1,-1,-1]","[0.0639078888202936,-0.1706360508294619]","[-1,-1,-1]","[-0.03617482063962507,-0.09607184623167868]","[1,1,1]","[-0.010687852761159652,0.18312592983690523]","[1,1,1]","[0.18982946099016923,0.04453712577287256]","[1,1,1]","[0.08424614296026604,0.12157973999464548]","[1,1,1]","[-0.1168977654313516,0.09772069841597504]","[1,1,1]","[-0.19285002423708503,0.049962760185159924]","[1,1,1]","[0.10156015515068163,-0.14061459719540492]","[-1,-1,-1]","[-0.08489141141751128,0.1650841673549714]","[1,1,1]","[-0.06380196069614637,0.041483208320904144]","[1,1,1]","[-0.15786005388286936,0.0774266702665523]","[1,1,1]","[0.06251026449473367,0.18639920069399132]","[1,1,1]","[0.02,0.02]",563.0784,0,25,25,166,1,,,,,,,
,,,,,,,5e9c3ff1cf719d151612648f,682db3acb8ea98a63d0ed035,2025-05-21_13h16.34.755,cuing_paradigm_dot,2024.1.5,Win32,74.62686567,682d556593cb38ad0a074487,,,,,,,,,,,563.0788,563.5719,,,563.8254,564.1586,left,0.3135,,,,,,,,,0.1,,,,,,563.5719,563.8254,564.1586,"[0.03038710567205776,0.13506911083050435]","[-1,-1,-1]","[0.031163310602158635,0.07761525156905913]","[-1,-1,-1]","[0.17609385661930071,-0.012782994506013239]","[-1,-1,-1]","[0.028368051880098298,-0.0003763460258558569]","[-1,-1,-1]","[-0.060076676549973715,-0.13670325036034273]","[-1,-1,-1]","[0.11591895274168962,0.1330425838384742]","[-1,-1,-1]","[0.04043557716272218,-0.05771497167467894]","[-1,-1,-1]","[-0.009291040275720521,-0.11758861370771946]","[1,1,1]","[0.10991951503895424,-0.08138328681607637]","[-1,-1,-1]","[-0.037368153694168176,0.1116909756277486]","[-1,-1,-1]","[0.08383511486767804,-0.1306684537935258]","[-1,-1,-1]","[-0.012774165159243069,0.03953010507201913]","[1,1,1]","[0.10549774290127113,0.08716486082185647]","[-1,-1,-1]","[0.06294699791799649,0.11034621212048121]","[-1,-1,-1]","[-0.15528092474993413,-0.0730077662049336]","[1,1,1]","[0.14922633044135508,-0.06938848035790238]","[-1,-1,-1]","[0.17792291990159162,0.04403700368785629]","[-1,-1,-1]","[0.05742411701286211,0.17461263875345936]","[-1,-1,-1]","[0.031426526526509166,-0.10731344887099695]","[-1,-1,-1]","[0.15835507569929483,0.08691183319146083]","[-1,-1,-1]","[-0.16019779490213615,0.09159992270283382]","[-1,-1,-1]","[-0.04718630702042705,0.06811226710182555]","[-1,-1,-1]","[0.12885224026534034,-0.14533567184854324]","[-1,-1,-1]","[-0.13770809377334936,-0.003617327376381457]","[-1,-1,-1]","[-0.10131829886120669,0.11306334470889425]","[-1,-1,-1]","[-0.09605303875687296,-0.06961120410083539]","[-1,-1,-1]","[0.07797686026398346,0.03998409840031981]","[-1,-1,-1]","[0.09141429293009651,-0.031040702392090946]","[-1,-1,-1]","[-0.0030167306705377542,-0.042542791082530174]","[-1,-1,-1]","[-0.12070767599971463,0.1498057288154956]","[-1,-1,-1]","[-0.020761660167266667,-0.1821915990918579]","[-1,-1,-1]","[-0.05899253744629392,-0.021954908804117948]","[-1,-1,-1]","[0.02,0.02]",565.2522,0,26,26,26,1,,,,,,,
,,,,,,,5e9c3ff1cf719d151612648f,682db3acb8ea98a63d0ed035,2025-05-21_13h16.34.755,cuing_paradigm_dot,2024.1.5,Win32,74.62686567,682d556593cb38ad0a074487,,,,,,,,,,,565.2527,565.7455,,,565.9858,566.346,left,0.3363,,,,,,,,,0.55,,,,,,565.7455,565.9858,566.346,"[-0.034278072361336086,0.08886318339128932]","[1,1,1]","[0.0755393829984807,-0.09330252665896187]","[-1,-1,-1]","[0.02003576223963112,0.16883584983091482]","[-1,-1,-1]","[0.17834195247399648,-0.07676714791236779]","[-1,-1,-1]","[0.04061134127477846,-0.12408632422989044]","[1,1,1]","[-0.13444286298849253,0.03254042448957503]","[1,1,1]","[0.10352923174342711,-0.032511793216550844]","[1,1,1]","[-0.005017479046507443,-0.16792331451047077]","[-1,-1,-1]","[-0.09691513577771983,-0.10814603118748035]","[1,1,1]","[0.1074879503792522,-0.12143663858606885]","[1,1,1]","[-0.09095363818976149,0.06867899871484372]","[1,1,1]","[-0.017951770024472458,-0.0658864971502713]","[-1,-1,-1]","[-0.13541234390540152,0.14409908457826268]","[-1,-1,-1]","[-0.06647088033147858,-0.14654273002722445]","[-1,-1,-1]","[-0.1252442751909599,-0.1421473245270527]","[1,1,1]","[0.09873193371655102,0.021216071410421193]","[1,1,1]","[-0.16377287936531107,-0.023988468874559736]","[1,1,1]","[-0.06793032631491294,0.007999261501738611]","[1,1,1]","[-0.07227552372913525,0.17876918141541714]","[1,1,1]","[0.0006220934538866421,0.035025173257718874]","[-1,-1,-1]","[0.05759468971723305,0.07013145473433906]","[1,1,1]","[0.028371536013681236,-0.0512550973757008]","[-1,-1,-1]","[0.1267053553546139,0.051432521160549124]","[-1,-1,-1]","[0.15523920228283428,-0.11892370108630526]","[-1,-1,-1]","[0.12066848601689101,0.13923770636638516]","[1,1,1]","[-0.09108995690385932,0.1348840081073991]","[-1,-1,-1]","[0.013921178069290392,0.10390898301706257]","[1,1,1]","[-0.018925206513786468,0.1820422693784599]","[1,1,1]","[0.19355063857047905,-0.02286276738645073]","[1,1,1]","[0.15579183472556107,0.11581268466113682]","[-1,-1,-1]","[0.18775335731134601,0.027409267097542482]","[1,1,1]","[-0.09430214506430346,-0.04889938690099714]","[-1,-1,-1]","[0.02,0.02]",567.4396,0,27,27,125,1,,,,,,,
,,,,,,,5e9c3ff1cf719d151612648f,682db3acb8ea98a63d0ed035,2025-05-21_13h16.34.755,cuing_paradigm_dot,2024.1.5,Win32,74.62686567,682d556593cb38ad0a074487,,,,,,,,,,,567.4399,567.9329,,,568.1866,568.9866,right,0.7962,,,,,,,,,0.4,,,,,,567.9329,568.1866,568.9867,"[-0.1001512887166936,-0.17215965504621222]","[-1,-1,-1]","[-0.13739038603774908,-0.05551931566216051]","[-1,-1,-1]","[0.11409551156778891,-0.09286916816701249]","[-1,-1,-1]","[0.0865823483597394,0.1406803973842112]","[1,1,1]","[0.12259499001161965,-0.14259735690018513]","[-1,-1,-1]","[-0.1194996841058801,0.1487054143435836]","[-1,-1,-1]","[0.1482401621684487,-0.05895518398064916]","[1,1,1]","[0.058748414891448816,-0.11997301993125399]","[1,1,1]","[-0.0106710355266798,-0.13873888361912803]","[-1,-1,-1]","[-0.0381371943927039,-0.18050614365502954]","[-1,-1,-1]","[-0.08971036394572295,0.0676647777993039]","[-1,-1,-1]","[-0.018551213169127185,0.01477827402714832]","[-1,-1,-1]","[0.18591943578305428,-0.04120581825118321]","[-1,-1,-1]","[-0.14630448058931483,0.04078417041844151]","[1,1,1]","[0.13619710419389242,0.07087518851076174]","[-1,-1,-1]","[-0.049698310645897026,-0.06820205306634833]","[-1,-1,-1]","[0.0366243343785617,0.19448650751977992]","[1,1,1]","[0.006876217621296997,-0.028407800175896773]","[-1,-1,-1]","[0.06519240115937036,-0.0747891333732911]","[-1,-1,-1]","[-0.09938264521246448,-0.07367202377391]","[-1,-1,-1]","[0.006228809247445637,-0.095528983018155]","[1,1,1]","[-0.18796853375697672,0.04421448000092783]","[1,1,1]","[0.18162717972066453,0.03337472000947486]","[-1,-1,-1]","[0.06256714998409586,0.09487133203332343]","[-1,-1,-1]","[0.032537949744323814,-0.15885624954181818]","[1,1,1]","[0.01758924411984297,0.04913633704658547]","[1,1,1]","[-0.07933470460891938,0.0036965574178185823]","[1,1,1]","[-0.06933043085236326,-0.13557000576778494]","[1,1,1]","[-0.18891062817260657,0.0013751267529163154]","[1,1,1]","[-0.005342753654503594,0.12618456384176996]","[-1,-1,-1]","[-0.029609636302520895,0.09106301841930765]","[-1,-1,-1]","[0.05720626119060833,0.02007086351372729]","[1,1,1]","[0.02,0.02]",570.08,0,28,28,31,1,,,,,,,
,,,,,,,5e9c3ff1cf719d151612648f,682db3acb8ea98a63d0ed035,2025-05-21_13h16.34.755,cuing_paradigm_dot,2024.1.5,Win32,74.62686567,682d556593cb38ad0a074487,,,,,,,,,,,570.0804,570.5734,,,570.8271,571.2671,right,0.4243,,,,,,,,,0.5,,,,,,570.5735,570.8271,571.2672,"[0.13869702343382026,0.13051886311599908]","[-1,-1,-1]","[0.016813029462533588,0.08429578624404162]","[1,1,1]","[-0.15165209037583063,0.07202824514302252]","[-1,-1,-1]","[-0.06503063401861653,0.025039992250527724]","[-1,-1,-1]","[-0.02157232648175894,0.12774915418748162]","[-1,-1,-1]","[0.15132490379725294,-0.10582315535400649]","[1,1,1]","[0.031567836580874704,0.003994815549005788]","[-1,-1,-1]","[-0.12864684592384376,-0.1305714637088426]","[-1,-1,-1]","[-0.09701885371488225,0.11031653680309715]","[1,1,1]","[-0.1747737390315325,-0.023995032463202292]","[-1,-1,-1]","[-0.03380371801563463,-0.11723888884063727]","[-1,-1,-1]","[0.10326911343253717,-0.01957939305373315]","[-1,-1,-1]","[0.04280897303055583,0.1566844034432157]","[1,1,1]","[-0.12153805088190409,-0.07498028449177306]","[-1,-1,-1]","[0.09688395290118176,0.13571538636961622]","[-1,-1,-1]","[-0.05624493307189531,0.18051898168164193]","[1,1,1]","[0.1789753120678717,0.02198558014919293]","[1,1,1]","[0.07256494776316197,0.01116566477454355]","[1,1,1]","[0.11317209782492409,0.08763260651101214]","[1,1,1]","[0.06125326302110024,0.07017840310626468]","[-1,-1,-1]","[0.16646307527065843,-0.0317792546639703]","[1,1,1]","[0.039312920855590384,-0.09606297390728016]","[-1,-1,-1]","[-0.002464901524473504,-0.08495740890480746]","[1,1,1]","[-0.11350581445711745,-0.008806705503619887]","[1,1,1]","[0.08525556311113855,-0.13288968810838456]","[1,1,1]","[0.11602132117410272,0.03430639168731161]","[1,1,1]","[0.022675531664864877,-0.15825682159453647]","[-1,-1,-1]","[0.07698671757321797,-0.07516131198770858]","[-1,-1,-1]","[0.03880860396455479,-0.19575584425472334]","[-1,-1,-1]","[0.16371377649369204,0.06624521321043125]","[1,1,1]","[-0.13504588326608055,0.13752598302140895]","[1,1,1]","[-0.053219413151222736,0.0792977955987879]","[1,1,1]","[0.02,0.02]",572.3605,0,29,29,117,1,,,,,,,
,,,,,,,5e9c3ff1cf719d151612648f,682db3acb8ea98a63d0ed035,2025-05-21_13h16.34.755,cuing_paradigm_dot,2024.1.5,Win32,74.62686567,682d556593cb38ad0a074487,,,,,,,,,,,572.3609,572.854,,,573.1078,573.8409,right,0.7103,,,,,,,,,0.55,,,,,,572.854,573.1077,573.841,"[0.03725470320779338,0.06380577269105403]","[1,1,1]","[0.0903617149735485,0.0735946822773764]","[1,1,1]","[0.12031880359270457,0.11714423576850436]","[-1,-1,-1]","[-0.024483445640799486,-0.16797072073554636]","[1,1,1]","[-0.09198858581159675,0.024811817146214873]","[1,1,1]","[-0.13771825538423837,0.10761307570550535]","[-1,-1,-1]","[-0.15358982750839045,0.05199083703499185]","[1,1,1]","[0.021720044091582992,0.16502618583796677]","[1,1,1]","[-0.028162856146768177,0.08480333050077943]","[1,1,1]","[-0.06862692876331987,-0.06148688183758671]","[-1,-1,-1]","[0.06894168293043074,0.15316677033534157]","[1,1,1]","[0.10540507292110865,-0.0870542004442493]","[1,1,1]","[0.048543840024495966,-0.049345682360852676]","[1,1,1]","[-0.008224153078753384,-0.014171484897255532]","[1,1,1]","[0.02141932298762883,-0.19692352693060164]","[-1,-1,-1]","[0.09592528736980306,-0.1461308863510837]","[-1,-1,-1]","[0.12731305132844412,0.03742313512703815]","[-1,-1,-1]","[0.19246537911556896,0.041594437311744635]","[1,1,1]","[0.03317296738817491,0.11982050520971917]","[1,1,1]","[-0.1316988278768694,-0.08873056521860714]","[-1,-1,-1]","[-0.1313099852484007,0.15044174234203875]","[-1,-1,-1]","[0.14748389855377006,0.08567773161893161]","[-1,-1,-1]","[-0.10100084040818273,0.0729456379361461]","[1,1,1]","[0.07477118284365283,0.02880019087465401]","[-1,-1,-1]","[-0.0029481264824236506,0.029347150706269243]","[-1,-1,-1]","[0.05446012524584679,-0.13124564704061195]","[1,1,1]","[-0.1750554073735729,-0.07361493085769556]","[1,1,1]","[-0.19288699702338305,0.010205176175501905]","[1,1,1]","[-0.1524465105986825,0.003585937246707647]","[-1,-1,-1]","[-0.001142334925508062,-0.11031089344154922]","[-1,-1,-1]","[-0.07956973812149729,-0.11277514756390492]","[-1,-1,-1]","[-0.0719868869531943,-0.155799545966495]","[1,1,1]","[0.02,0.02]",574.9344,0,30,30,141,1,,,,,,,
,,,,,,,5e9c3ff1cf719d151612648f,682db3acb8ea98a63d0ed035,2025-05-21_13h16.34.755,cuing_paradigm_dot,2024.1.5,Win32,74.62686567,682d556593cb38ad0a074487,,,,,,,,,,,574.9348,575.4279,,,575.6813,576.402,left,0.7043,,,,,,,,,0.4,,,,,,575.428,575.6813,576.402,"[-0.005504180149282368,-0.1120620745041437]","[-1,-1,-1]","[0.009862146545653039,-0.027877277166139768]","[1,1,1]","[0.06167815538329039,0.1441469905161657]","[-1,-1,-1]","[-0.1082033278462689,0.0872214811109755]","[-1,-1,-1]","[0.10683289000402749,-0.10649413196793688]","[-1,-1,-1]","[0.07847150465450221,0.04763392306213763]","[1,1,1]","[0.013967365838664257,0.13676651617582566]","[-1,-1,-1]","[-0.1531258558486278,0.08795696691266218]","[1,1,1]","[0.019433543814410294,-0.07482109831340616]","[-1,-1,-1]","[-0.02694702362571169,-0.19444341251465894]","[-1,-1,-1]","[0.0682795845814312,-0.06668237626258497]","[-1,-1,-1]","[-0.08567000421222909,0.12303877860099337]","[-1,-1,-1]","[-0.17307038876525518,-0.0360213487433815]","[1,1,1]","[0.16500422258975803,-0.05174907473144732]","[-1,-1,-1]","[-0.09262637229552573,-0.009473634757225827]","[-1,-1,-1]","[-0.06092563634849413,0.017232450664285037]","[1,1,1]","[-0.04606832161820818,-0.02516046163075026]","[1,1,1]","[-0.12761466355949985,0.13483320609489252]","[1,1,1]","[-0.008049452223545903,0.10153603260778313]","[-1,-1,-1]","[-0.0391014820259365,-0.08824111510465302]","[1,1,1]","[0.12167119909278515,0.03266445675267168]","[-1,-1,-1]","[-0.17414599620879118,0.020346378125353885]","[-1,-1,-1]","[0.018564664089816302,0.1790495299951714]","[-1,-1,-1]","[-0.15787856232614647,-0.07574485673609353]","[1,1,1]","[0.03559204002453816,0.07182030241705784]","[-1,-1,-1]","[0.17421091001192884,0.06316124165386]","[-1,-1,-1]","[0.044066598609136795,-0.106951381552497]","[-1,-1,-1]","[-0.08367029852829841,-0.17861253970686394]","[-1,-1,-1]","[-0.04572227272663164,0.17532348730558028]","[1,1,1]","[0.002943833997166759,0.031734725140995707]","[1,1,1]","[0.0723194506046434,0.007914379127333438]","[1,1,1]","[-0.047957873866339346,0.09106826607574572]","[1,1,1]","[0.02,0.02]",577.4949,0,31,31,43,1,,,,,,,
,,,,,,,5e9c3ff1cf719d151612648f,682db3acb8ea98a63d0ed035,2025-05-21_13h16.34.755,cuing_paradigm_dot,2024.1.5,Win32,74.62686567,682d556593cb38ad0a074487,,,,,,,,,,,577.4952,577.9884,,,578.2288,578.9621,right,0.7216,,,,,,,,,0.5,,,,,,577.9884,578.2287,578.9622,"[-0.03129312598947232,-0.04934431628064615]","[-1,-1,-1]","[-0.11835102707110838,0.051534992062681605]","[1,1,1]","[-0.12968153660214352,0.00705859511213616]","[1,1,1]","[0.007384282579100951,0.17196292913737846]","[1,1,1]","[0.16424190888071277,0.002322487467056686]","[1,1,1]","[0.18485704597516958,-0.04304833918262625]","[-1,-1,-1]","[-0.10332643234565686,-0.14966311052348433]","[-1,-1,-1]","[-0.04851344107479321,0.01870536017845569]","[1,1,1]","[0.009104450024844597,0.0009176432510549866]","[-1,-1,-1]","[0.05226604302635719,0.1374253946309637]","[-1,-1,-1]","[-0.15515431489175732,0.09850757922232577]","[1,1,1]","[0.023852703437874444,-0.13547539081831378]","[-1,-1,-1]","[-0.057694361603613444,0.16160395453491283]","[1,1,1]","[0.0818958093265157,-0.0023448711042825085]","[-1,-1,-1]","[0.08545685499542238,0.09864122187852926]","[1,1,1]","[0.02422070979368609,-0.18108474497912513]","[-1,-1,-1]","[-0.07928302900144439,-0.11252314057822185]","[-1,-1,-1]","[0.10238641855136317,-0.03689257576506379]","[1,1,1]","[0.12371973693522904,0.0593739430323856]","[1,1,1]","[-0.1352879570376178,-0.10589701651489145]","[-1,-1,-1]","[-0.16988951081557765,-0.009183325104368372]","[-1,-1,-1]","[0.010191557300235103,-0.06968161142947117]","[1,1,1]","[-0.07661883594935749,0.054201888109898684]","[1,1,1]","[0.021373044931847388,0.0801693969931465]","[-1,-1,-1]","[0.06118404901452895,-0.1536098305183506]","[-1,-1,-1]","[0.1261468935992751,0.10587809421570459]","[1,1,1]","[0.03967694062677321,-0.04155766699065146]","[1,1,1]","[-0.12293253668711224,0.1263350199260653]","[1,1,1]","[-0.027399538705191365,0.06954736737708732]","[-1,-1,-1]","[-0.16630493404534594,0.036977651923291846]","[1,1,1]","[-0.06148634803877722,0.09777126741303119]","[-1,-1,-1]","[-0.10622049214582814,-0.03465606481526206]","[-1,-1,-1]","[0.02,0.02]",580.0554,0,32,32,109,1,,,,,,,
,,,,,,,5e9c3ff1cf719d151612648f,682db3acb8ea98a63d0ed035,2025-05-21_13h16.34.755,cuing_paradigm_dot,2024.1.5,Win32,74.62686567,682d556593cb38ad0a074487,,,,,,,,,,,580.0558,580.5487,,,580.7891,581.3757,right,0.5646,,,,,,,,,0.55,,,,,,580.5488,580.7891,581.3757,"[-0.02960008256334645,-0.13201722172742558]","[-1,-1,-1]","[-0.14723835095807436,-0.0334977898346727]","[1,1,1]","[0.11142110253731646,0.15061990478859683]","[1,1,1]","[0.02933660983265083,0.022072279807374896]","[1,1,1]","[-0.17883810489407043,0.019237341160874718]","[-1,-1,-1]","[0.04439130474035489,-0.1581864992381738]","[1,1,1]","[-0.05558935878315347,-0.18113225290398172]","[1,1,1]","[0.06434080898028742,0.1260927784671855]","[1,1,1]","[0.045847659625807835,-0.07323422831131289]","[-1,-1,-1]","[0.09810449816176772,0.03001652466374174]","[-1,-1,-1]","[0.08875034034819691,-0.1607398743238662]","[-1,-1,-1]","[-0.058085302759302494,0.06475960751137326]","[-1,-1,-1]","[0.015488149974249915,0.08694333506174853]","[-1,-1,-1]","[-0.08309640751722967,-0.06577019481374072]","[-1,-1,-1]","[-0.09510612152610552,0.023274204754772283]","[1,1,1]","[-0.04522498104096673,-0.08503356406809927]","[1,1,1]","[-0.04505782441720145,-0.007912824804723042]","[-1,-1,-1]","[0.09806797270733804,-0.04774258702568491]","[1,1,1]","[0.17947723886278333,-0.049430556923092055]","[1,1,1]","[-0.1801065161623256,0.08140473707988413]","[-1,-1,-1]","[-0.18353928892098975,-0.0708921936074682]","[-1,-1,-1]","[0.030051740879568016,0.19213030667525963]","[1,1,1]","[0.059798332526046015,-0.11146756118100204]","[1,1,1]","[-0.09054563931179144,-0.11302547627026528]","[1,1,1]","[0.0006909771330960817,-0.16506439078160107]","[-1,-1,-1]","[-0.13544472731084478,0.10814549559071689]","[1,1,1]","[0.1752037318572393,0.0011700621200047456]","[-1,-1,-1]","[-0.11834889245538316,-0.15864558550733948]","[1,1,1]","[-0.007215976004516464,-0.05393485443241879]","[1,1,1]","[-0.06713283915341942,0.16848412625243725]","[1,1,1]","[0.1653747519888829,-0.10401344244995213]","[-1,-1,-1]","[-0.06907751613555808,0.12838159693995518]","[1,1,1]","[0.02,0.02]",582.4693,0,33,33,124,1,,,,,,,
,,,,,,,5e9c3ff1cf719d151612648f,682db3acb8ea98a63d0ed035,2025-05-21_13h16.34.755,cuing_paradigm_dot,2024.1.5,Win32,74.62686567,682d556593cb38ad0a074487,,,,,,,,,,,582.4695,582.9628,,,583.2033,583.6964,right,0.4706,,,,,,,,,0.5,,,,,,582.9628,583.2033,583.6964,"[-0.13510127247710718,0.09998610525375923]","[1,1,1]","[0.17400914181540947,-0.0727589311261996]","[-1,-1,-1]","[0.08927203264462368,-0.13913882832442848]","[1,1,1]","[-0.03093296578298351,-0.17724601394382336]","[1,1,1]","[-0.10279537566961403,-0.07154237764782166]","[1,1,1]","[-0.04120087184898262,-0.012617717953600435]","[-1,-1,-1]","[0.03527103661602214,-0.04390765618928644]","[-1,-1,-1]","[0.11818004979916402,-0.019706267650482653]","[1,1,1]","[0.13644307112623716,0.06358541056852199]","[1,1,1]","[-0.031546645254300544,0.15113201990008096]","[-1,-1,-1]","[0.03779519520746579,-0.14703056522348784]","[-1,-1,-1]","[-0.12140739482860469,-0.01654292935855369]","[-1,-1,-1]","[-0.04216493671234952,0.08171378914622013]","[-1,-1,-1]","[0.1002638851759301,0.036159554388136846]","[1,1,1]","[0.07596244177079982,-0.018564068521014162]","[-1,-1,-1]","[0.08471664861066351,0.07966315277965148]","[1,1,1]","[-0.09230702115218196,0.15666943792546487]","[1,1,1]","[0.04613044885478595,0.03769208893231887]","[-1,-1,-1]","[-0.07305196127571927,-0.1540232855928583]","[-1,-1,-1]","[0.06583047584328364,-0.0939446271503163]","[-1,-1,-1]","[0.10787350270199665,0.12309933671892903]","[1,1,1]","[0.009617954573891741,0.13585482272482718]","[-1,-1,-1]","[-0.14269198873761857,-0.12744770473281072]","[1,1,1]","[0.1200355670648307,-0.0847651990244492]","[-1,-1,-1]","[-0.13104796464467822,0.1426562486064917]","[-1,-1,-1]","[0.19346778339655468,-0.011233802680119316]","[1,1,1]","[-0.09523165944119201,0.05131527857300391]","[-1,-1,-1]","[-0.1341922769516541,0.042108150079747934]","[1,1,1]","[-0.15439828652778412,-0.05624576763710165]","[1,1,1]","[-0.031749139307857124,-0.056140481650014756]","[1,1,1]","[0.041927973751648036,0.17049429859185986]","[1,1,1]","[0.197258629125814,0.03059596460387855]","[-1,-1,-1]","[0.02,0.02]",584.79,0,34,34,100,1,,,,,,,
,,,,,,,5e9c3ff1cf719d151612648f,682db3acb8ea98a63d0ed035,2025-05-21_13h16.34.755,cuing_paradigm_dot,2024.1.5,Win32,74.62686567,682d556593cb38ad0a074487,,,,,,,,,,,584.7905,585.2835,,,585.5371,586.0969,right,0.5368,,,,,,,,,0.5,,,,,,585.2835,585.5371,586.0969,"[0.1690823595732012,0.060779823503961404]","[1,1,1]","[-0.005249979449601243,0.10032800929421452]","[1,1,1]","[0.1614841887942502,-0.041565464019724975]","[-1,-1,-1]","[-0.0683510906679457,-0.17899501143247432]","[-1,-1,-1]","[0.1142650817460167,-0.06463157531802467]","[1,1,1]","[-0.1143444500295546,-0.14119573807162752]","[1,1,1]","[0.15262974553470876,-0.1256615673702272]","[-1,-1,-1]","[-0.11076507867089887,0.13150951108221876]","[-1,-1,-1]","[0.04483983876002897,0.18547973948252405]","[1,1,1]","[-0.1160044558680603,0.062152743288145136]","[-1,-1,-1]","[0.10649291240762335,-0.012202276359518842]","[1,1,1]","[-0.06363394241709722,-0.0018789520186347673]","[1,1,1]","[0.03812129187431003,-0.02623243532749086]","[1,1,1]","[0.013955155616489924,-0.1543274695435863]","[-1,-1,-1]","[0.1089477374528077,0.16498350191817712]","[-1,-1,-1]","[-0.11391960822084927,0.02132130256379799]","[-1,-1,-1]","[-0.123700088250967,-0.05243286674887692]","[1,1,1]","[0.10690356260051001,0.10377974698895732]","[1,1,1]","[-0.024421882245132934,-0.025875452333123185]","[-1,-1,-1]","[0.07028939784763483,0.06964065193136443]","[-1,-1,-1]","[-0.06336119349212754,-0.04776008820005932]","[-1,-1,-1]","[-0.18524787915434163,-0.07155248690995884]","[-1,-1,-1]","[-0.0505061036002448,0.09133267886562148]","[-1,-1,-1]","[-0.16135552210748383,0.044769350888539804]","[1,1,1]","[0.06383567719589794,-0.0622648913662614]","[1,1,1]","[0.002602038869164663,0.04446534598169529]","[-1,-1,-1]","[0.07024033140428493,-0.17971139011349227]","[1,1,1]","[-0.07642209544969554,-0.11976710848849612]","[-1,-1,-1]","[0.006892603727483016,0.1496730575182053]","[1,1,1]","[0.1406878762591865,0.02832853060690636]","[1,1,1]","[-0.03159504949406601,-0.1395488238951017]","[1,1,1]","[0.07043971148338603,0.00835227778714868]","[-1,-1,-1]","[0.02,0.02]",587.1905,0,35,35,98,1,,,,,,,
,,,,,,,5e9c3ff1cf719d151612648f,682db3acb8ea98a63d0ed035,2025-05-21_13h16.34.755,cuing_paradigm_dot,2024.1.5,Win32,74.62686567,682d556593cb38ad0a074487,,,,,,,,,,,587.191,587.6839,,,587.9375,588.3774,right,0.4162,,,,,,,,,0.55,,,,,,587.684,587.9375,588.3775,"[-0.16440152464116972,-0.06298369068869364]","[-1,-1,-1]","[-0.11036387729345325,0.07779732352879098]","[-1,-1,-1]","[0.11452673102200757,0.01602926703694123]","[-1,-1,-1]","[-0.021673216353581604,0.04453099340475768]","[1,1,1]","[-0.15237855612654472,0.03148437319271944]","[-1,-1,-1]","[-0.09957472704131601,-0.029319000041039836]","[1,1,1]","[-0.13958371210194323,0.10566928170091781]","[-1,-1,-1]","[-0.07055600070335803,-0.1676968074914822]","[-1,-1,-1]","[-0.003818210773734138,-0.05700322451747607]","[1,1,1]","[-0.045334636805377256,-0.08879159991672214]","[1,1,1]","[0.13077472974071452,-0.04559664765032312]","[1,1,1]","[-0.18802566731480597,-0.008196481637560649]","[-1,-1,-1]","[-0.06596161928060176,0.08327412815497662]","[-1,-1,-1]","[0.14365971389021243,0.08743214215593209]","[1,1,1]","[-0.13537584589908497,-0.09712957018795178]","[1,1,1]","[-0.022439484876328457,-0.18080741502706646]","[1,1,1]","[-0.022663821600060783,0.1320378255236045]","[1,1,1]","[0.0255882123175619,-0.0049702981761101]","[-1,-1,-1]","[-0.037194908052678215,-0.018580770025475868]","[-1,-1,-1]","[0.11459900411127623,0.11834788849196415]","[1,1,1]","[0.18659874770230367,-0.04694872183764778]","[1,1,1]","[0.07585897989190048,0.17851310590519048]","[-1,-1,-1]","[0.06771764939160334,-0.011152907757554304]","[-1,-1,-1]","[0.08912973312581514,-0.09099906872336497]","[1,1,1]","[-0.0734567015034255,0.007631888948759955]","[1,1,1]","[0.1057021336497572,-0.16270386076472956]","[1,1,1]","[0.026067899014384045,0.16176371142954285]","[1,1,1]","[-0.07637259021395751,-0.11838477032284854]","[1,1,1]","[0.026935582682772616,-0.13044148654576027]","[-1,-1,-1]","[0.031486964709774516,-0.18397457314736704]","[1,1,1]","[0.06784668211482946,0.10803550519568238]","[-1,-1,-1]","[-0.1134855327975153,0.017208860348864884]","[1,1,1]","[0.02,0.02]",589.471,0,36,36,136,1,,,,,,,
,,,,,,,5e9c3ff1cf719d151612648f,682db3acb8ea98a63d0ed035,2025-05-21_13h16.34.755,cuing_paradigm_dot,2024.1.5,Win32,74.62686567,682d556593cb38ad0a074487,,,,,,,,,,,589.4714,589.9644,,,590.2048,590.618,right,0.3972,,,,,,,,,0.45,,,,,,589.9644,590.2047,590.618,"[0.0695745904687793,0.09191877864187047]","[-1,-1,-1]","[0.16609603454748778,0.039463176738403744]","[-1,-1,-1]","[-0.04359257464207442,0.10639966578135655]","[-1,-1,-1]","[0.04396680857224441,0.013851666713966855]","[-1,-1,-1]","[-0.13883375271243967,0.0734455766012162]","[1,1,1]","[0.02637455985220406,-0.12080587207196067]","[-1,-1,-1]","[-0.03383813770737956,-0.13446283022934524]","[1,1,1]","[-0.09631405066015622,-0.165217273124697]","[-1,-1,-1]","[0.054594212249604646,-0.18528675601358002]","[-1,-1,-1]","[-0.09774316928312575,-0.030652210946872267]","[-1,-1,-1]","[0.13628785689237685,-0.09535836575616514]","[1,1,1]","[0.003933512641512758,-0.01502375941363772]","[1,1,1]","[0.14282733451626042,-0.01626220814866604]","[1,1,1]","[-0.07278046751880766,0.07827483621829151]","[1,1,1]","[0.020416191565393697,0.11304174242572224]","[-1,-1,-1]","[0.02221076212918835,-0.07577738077706835]","[-1,-1,-1]","[-0.08330136125594324,0.007142548656434735]","[1,1,1]","[0.0007315104915919166,-0.16910141216857136]","[1,1,1]","[-0.06522116981233703,0.15167812531139316]","[1,1,1]","[0.10095274074921967,-0.1413691695599944]","[1,1,1]","[0.04836841468227853,-0.04000174634887564]","[1,1,1]","[-0.10349326495000852,0.1645787392496553]","[1,1,1]","[-0.03637639141064261,-0.08062747571825771]","[-1,-1,-1]","[0.02301500033350757,0.15698326955153272]","[-1,-1,-1]","[0.10450596412402328,0.037349540491423056]","[-1,-1,-1]","[0.08479708324785154,-0.002626217766973926]","[1,1,1]","[0.1731395955853008,-0.0700845199695523]","[-1,-1,-1]","[0.030403963515612323,0.058293645053325925]","[-1,-1,-1]","[-0.053125242471278956,-0.18199173119987094]","[1,1,1]","[-0.00033802322677101675,0.19815121602259683]","[-1,-1,-1]","[-0.12207120925843104,-0.06305909106861707]","[-1,-1,-1]","[-0.1286540716912898,0.01501460876341633]","[-1,-1,-1]","[0.02,0.02]",591.7115,0,37,37,65,1,,,,,,,
,,,,,,,5e9c3ff1cf719d151612648f,682db3acb8ea98a63d0ed035,2025-05-21_13h16.34.755,cuing_paradigm_dot,2024.1.5,Win32,74.62686567,682d556593cb38ad0a074487,,,,,,,,,,,591.7119,592.2048,,,592.4452,592.8051,left,0.3464,,,,,,,,,0.4,,,,,,592.2048,592.4451,592.8051,"[-0.01418073814639457,-0.11140960973107646]","[-1,-1,-1]","[0.009623793059544443,0.19412690490487483]","[-1,-1,-1]","[-0.026196916219642662,0.010155491709029504]","[-1,-1,-1]","[0.10107729681602319,0.14860370827317151]","[-1,-1,-1]","[-0.10239252057616012,-0.0630434321626579]","[1,1,1]","[0.018674589387375932,-0.19876967267513979]","[1,1,1]","[0.12264328019412392,0.09044663506742447]","[-1,-1,-1]","[0.009606943475911707,0.03136531581616737]","[-1,-1,-1]","[-0.031253076063851866,0.09944075415992737]","[-1,-1,-1]","[0.14036663784245818,-0.05786577500330824]","[1,1,1]","[-0.05290705892138925,-0.1354158096662502]","[1,1,1]","[-0.13573641240305104,-0.09956442157277738]","[-1,-1,-1]","[-0.060864036088543204,0.14873277826943096]","[-1,-1,-1]","[-0.08586058355614981,0.049540700262881675]","[-1,-1,-1]","[0.14040725110581023,-0.010945905623392408]","[1,1,1]","[0.16419776587200047,-0.09884698712312438]","[1,1,1]","[0.10681988318661668,-0.08832754929698258]","[1,1,1]","[-0.13606940640622997,-0.030606863279886654]","[1,1,1]","[-0.1592268065872729,0.024659601554246072]","[1,1,1]","[0.07078286592649406,0.019093968301128503]","[1,1,1]","[0.023574735216608838,-0.15483513058703818]","[1,1,1]","[0.19287881650865843,-0.015750351184717175]","[-1,-1,-1]","[-0.17487637292283575,-0.08996194808433303]","[-1,-1,-1]","[-0.1180657666236694,0.09420955434527552]","[-1,-1,-1]","[-0.014091085088224951,-0.06163890691484528]","[-1,-1,-1]","[-0.1856335140370007,-0.023790540245937332]","[-1,-1,-1]","[0.08382230021801883,-0.04738485676839066]","[1,1,1]","[0.13680682055268661,0.029624193057004065]","[-1,-1,-1]","[-0.04761082620713249,-0.08676799893070358]","[-1,-1,-1]","[0.011261576373154043,0.12075237255184947]","[1,1,1]","[-0.0628502017522667,-0.04602898120115618]","[-1,-1,-1]","[-0.17517440250874422,0.07706411279736208]","[-1,-1,-1]","[0.02,0.02]",593.8985,0,38,38,38,1,,,,,,,
,,,,,,,5e9c3ff1cf719d151612648f,682db3acb8ea98a63d0ed035,2025-05-21_13h16.34.755,cuing_paradigm_dot,2024.1.5,Win32,74.62686567,682d556593cb38ad0a074487,,,,,,,,,,,593.899,594.392,,,594.6458,595.0057,right,0.3519,,,,,,,,,0.55,,,,,,594.3921,594.6458,595.0057,"[0.09204736816592247,0.12956788142471912]","[-1,-1,-1]","[-0.17298586019833842,0.07549674940747542]","[1,1,1]","[0.02300558199434613,0.08372608413108139]","[-1,-1,-1]","[0.12319291354863353,-0.07354588933173371]","[-1,-1,-1]","[0.04355811525906826,-0.16009635331265218]","[-1,-1,-1]","[-0.042206905319141716,0.1944804674997422]","[-1,-1,-1]","[-0.09779755451720006,-0.1612644541431095]","[-1,-1,-1]","[0.0802493633107553,0.011569644421225817]","[1,1,1]","[-0.07816318494902068,0.00903597421472937]","[1,1,1]","[0.043817424853827704,-0.100667131626219]","[1,1,1]","[0.12349632786584312,0.08565610012518518]","[1,1,1]","[0.13303340514770862,-0.11407168411723079]","[1,1,1]","[-0.06414513154739938,0.15258265555966444]","[-1,-1,-1]","[-0.0889441243630474,0.06450528860233214]","[1,1,1]","[-0.028373544601051442,0.08339818418843965]","[1,1,1]","[-0.04241747162752922,-0.043404080411222894]","[1,1,1]","[0.17369511516337338,0.08472195060362485]","[1,1,1]","[0.17853722690592222,-0.009408880098218522]","[1,1,1]","[-0.13115595485768608,0.00998927418151038]","[-1,-1,-1]","[0.16915476596187784,-0.08632166808382177]","[1,1,1]","[-0.07738562512808105,-0.07955600011101871]","[-1,-1,-1]","[0.0516034891824047,0.16870715065738698]","[1,1,1]","[0.06924954622284635,-0.03858197422303086]","[-1,-1,-1]","[-0.19004571815972243,0.02348910253233847]","[-1,-1,-1]","[0.1332425421032276,-0.012989104790724376]","[-1,-1,-1]","[0.15284378327144377,0.03221638181277292]","[1,1,1]","[-0.03767775643923714,-0.16995916326394253]","[1,1,1]","[0.019627842003948587,0.1980903247981809]","[1,1,1]","[0.0025441442268740564,0.15710661873967663]","[-1,-1,-1]","[-0.044445744588781616,-0.11781758674573403]","[1,1,1]","[-0.0184273952603457,-0.00201426818828326]","[-1,-1,-1]","[0.083510314190197,-0.08645909377731656]","[1,1,1]","[0.02,0.02]",596.0991,0,39,39,146,1,,,,,,,
,,,,,,,5e9c3ff1cf719d151612648f,682db3acb8ea98a63d0ed035,2025-05-21_13h16.34.755,cuing_paradigm_dot,2024.1.5,Win32,74.62686567,682d556593cb38ad0a074487,,,,,,,,,,,596.0995,596.5924,,,596.8462,597.2595,left,0.4081,,,,,,,,,0.1,,,,,,596.5925,596.8462,597.2595,"[0.13861766987750357,-0.04339152362977583]","[-1,-1,-1]","[-0.07283287012834624,-0.17440901361526392]","[-1,-1,-1]","[0.0433310440519308,-0.03651608899812827]","[-1,-1,-1]","[-0.05215795844217113,0.0292868339288132]","[-1,-1,-1]","[0.17810108775282527,-0.014862543829736861]","[-1,-1,-1]","[0.1253722126795691,0.0807340122438958]","[-1,-1,-1]","[0.1403208440372341,0.03741735714629562]","[-1,-1,-1]","[-0.028425528173367267,-0.17337603018626466]","[-1,-1,-1]","[-0.14097398633574765,0.12516398221905867]","[-1,-1,-1]","[0.08535347487093183,-0.17290762249180489]","[-1,-1,-1]","[-0.04016104830103191,-0.09371038974091314]","[1,1,1]","[0.056477240989008595,0.010221266381312369]","[-1,-1,-1]","[-0.15706936331759724,-0.03860604598959861]","[-1,-1,-1]","[-0.010979241640624927,0.05481671456427682]","[-1,-1,-1]","[0.07944523261471093,-0.07724998736460206]","[-1,-1,-1]","[0.15874617663591611,-0.1093486160591983]","[-1,-1,-1]","[-0.10494492562794006,0.04909174132374009]","[-1,-1,-1]","[0.10692264988264788,-0.006219144521434879]","[-1,-1,-1]","[-0.010133217380284677,-0.025939611553709573]","[-1,-1,-1]","[0.00124839608389354,-0.1231934976092651]","[-1,-1,-1]","[-0.04894158060243954,0.15434981592874786]","[-1,-1,-1]","[-0.14289641662362187,0.025400977297506164]","[1,1,1]","[-0.06444972480750571,-0.036430897451020704]","[-1,-1,-1]","[-0.15605784310031037,-0.08299608972729389]","[-1,-1,-1]","[-0.17500788474174384,0.08496983965262296]","[-1,-1,-1]","[-0.10506455525629142,-0.011843834623160398]","[-1,-1,-1]","[-0.11202904054289683,-0.15342819850469747]","[-1,-1,-1]","[-0.021257567162335043,0.12239652214518935]","[-1,-1,-1]","[0.041663407227456976,0.1741109083553784]","[-1,-1,-1]","[0.014188389789579436,-0.1772641152389694]","[-1,-1,-1]","[0.11167152518539493,-0.13097499142763586]","[-1,-1,-1]","[-0.011923198525948203,0.19913945755246062]","[1,1,1]","[0.02,0.02]",598.3529,0,40,40,12,1,,,,,,,
,,,,,,,5e9c3ff1cf719d151612648f,682db3acb8ea98a63d0ed035,2025-05-21_13h16.34.755,cuing_paradigm_dot,2024.1.5,Win32,74.62686567,682d556593cb38ad0a074487,,,,,,,,,,,598.3533,598.8465,,,599.1,599.8337,right,0.7294,,,,,,,,,0.4,,,,,,598.8465,599.1,599.8338,"[-0.01884090701100298,-0.13671593967750667]","[1,1,1]","[-0.010249236897829726,-0.09424174859385316]","[1,1,1]","[-0.06147547554211233,0.0075403558937219735]","[-1,-1,-1]","[0.1259599540842252,0.05512981230796689]","[-1,-1,-1]","[0.02301472542252384,0.05964842649788853]","[-1,-1,-1]","[-0.053429285741283805,0.0905296834181786]","[1,1,1]","[-0.005978039518464404,0.17822362699704358]","[-1,-1,-1]","[0.1454527983140532,0.11186450480361604]","[1,1,1]","[0.06752227720055468,0.12355943819540463]","[1,1,1]","[-0.13211201714035664,0.08546121955316265]","[1,1,1]","[-0.09311122593446794,0.09571155911564364]","[-1,-1,-1]","[-0.1928352205518983,-0.02076439201809605]","[-1,-1,-1]","[-0.01805155285703873,-0.041907503533705016]","[-1,-1,-1]","[0.14573189126731814,-0.13340108642142748]","[1,1,1]","[-0.15008334981782828,-0.03688661094638554]","[-1,-1,-1]","[0.10348572727156845,-0.0936407680828142]","[-1,-1,-1]","[-0.05530531690406464,0.15307996329976242]","[1,1,1]","[-0.08696817156641325,-0.045965999908058705]","[-1,-1,-1]","[0.043583765658207714,-0.08217926381307884]","[1,1,1]","[-0.06046888970976137,-0.08741835060295579]","[-1,-1,-1]","[0.04096727301304128,-0.03049630643343753]","[1,1,1]","[0.17915016129091746,0.05587750383171611]","[-1,-1,-1]","[-0.10169405387921784,0.1626503431054468]","[-1,-1,-1]","[-0.08289090180653576,-0.13849414726611434]","[-1,-1,-1]","[0.08207653960289861,-0.02187952441319417]","[-1,-1,-1]","[-0.1842471041932151,-0.06432640933851085]","[1,1,1]","[0.11733283804715554,0.14214854686980294]","[-1,-1,-1]","[0.09066996556417065,-0.13627572396850612]","[1,1,1]","[0.1415794471301075,0.0014612536953830452]","[-1,-1,-1]","[0.03696878360628748,-0.15019588494951233]","[-1,-1,-1]","[0.07006236795567873,0.16424739316809095]","[-1,-1,-1]","[0.190212050735801,-0.05717393037509267]","[1,1,1]","[0.02,0.02]",600.9268,0,41,41,50,1,,,,,,,
,,,,,,,5e9c3ff1cf719d151612648f,682db3acb8ea98a63d0ed035,2025-05-21_13h16.34.755,cuing_paradigm_dot,2024.1.5,Win32,74.62686567,682d556593cb38ad0a074487,,,,,,,,,,,600.9272,601.4203,,,601.6739,602.1272,right,0.4437,,,,,,,,,0.9,,,,,,601.4203,601.6739,602.1272,"[0.1465305435052715,0.01803331614982442]","[-1,-1,-1]","[-0.1674429449894136,0.08623409173538349]","[1,1,1]","[0.1399099861907513,-0.10668120234796857]","[1,1,1]","[-0.016947802112176884,0.0018555443762283664]","[1,1,1]","[0.04132974915815929,0.06486509919802061]","[1,1,1]","[0.05453316534645471,0.12591287167322326]","[-1,-1,-1]","[-0.010514742663372115,0.04965756482007865]","[1,1,1]","[-0.04244691386855484,0.12100026953810686]","[1,1,1]","[-0.15590804469027547,0.017481380832306402]","[1,1,1]","[0.043036572579307895,-0.18516096014627131]","[1,1,1]","[0.007588181723900647,0.15337077158118323]","[1,1,1]","[-0.10228603600150048,0.021650879016601284]","[1,1,1]","[0.14986571806847673,0.07861395726479196]","[1,1,1]","[-0.05847112016910373,-0.1472889462580957]","[1,1,1]","[-0.18315566022431687,0.04818821139872326]","[1,1,1]","[-0.11251113426944924,-0.030018804510068168]","[-1,-1,-1]","[0.10607799335101727,0.04613886916015879]","[1,1,1]","[-0.11638774510969055,-0.08625919623710683]","[1,1,1]","[0.010036050258169785,0.19723526100747996]","[1,1,1]","[-0.13078950866282704,0.11758105764677179]","[1,1,1]","[0.10219058256827852,-0.007755493806942687]","[1,1,1]","[-0.05471038594332238,-0.02626066602405799]","[1,1,1]","[0.14600051097640093,-0.0314744492108594]","[1,1,1]","[-0.03715944835399473,-0.10119030863973066]","[1,1,1]","[0.10543775656901509,0.11297637114060352]","[1,1,1]","[0.10663292703176,-0.07104662059476242]","[1,1,1]","[-0.008376128497084778,-0.1438599733146989]","[1,1,1]","[-0.1835649906878115,-0.027500819011478817]","[1,1,1]","[-0.0927614524140074,0.14533023370052767]","[1,1,1]","[-0.1145080868817676,-0.14265105996566863]","[1,1,1]","[0.05453330213809723,0.01652854510146301]","[1,1,1]","[0.19253171643807468,0.019272592536214564]","[1,1,1]","[0.02,0.02]",603.2206,0,42,42,189,1,,,,,,,
,,,,,,,5e9c3ff1cf719d151612648f,682db3acb8ea98a63d0ed035,2025-05-21_13h16.34.755,cuing_paradigm_dot,2024.1.5,Win32,74.62686567,682d556593cb38ad0a074487,,,,,,,,,,,603.221,603.7141,,,603.9678,604.3143,right,0.3419,,,,,,,,,0.55,,,,,,603.7141,603.9678,604.3144,"[0.0067165415599433,-0.12137718227928036]","[-1,-1,-1]","[-0.08625184172365825,-0.08581416633777443]","[1,1,1]","[0.183214111168031,-0.0009131747464111334]","[1,1,1]","[0.06875153790868035,0.12390152478679597]","[-1,-1,-1]","[-0.1336044111335295,-0.13862953721314492]","[1,1,1]","[-0.0631412688267247,0.08160286560721028]","[1,1,1]","[-0.1252315308885334,0.028457736514895207]","[-1,-1,-1]","[0.10472164698586266,-0.13780309077655215]","[1,1,1]","[0.1610825499380012,0.09175484613189692]","[-1,-1,-1]","[-0.012069943642592174,0.056466968675416486]","[-1,-1,-1]","[-0.16048309233062988,0.07576831430430013]","[-1,-1,-1]","[0.061993126562848916,0.004760303752722098]","[1,1,1]","[0.14787359862726765,-0.040611909147181345]","[1,1,1]","[0.11149217511363499,0.004515113886225688]","[1,1,1]","[-0.15324292356132962,-0.09019631715304495]","[-1,-1,-1]","[0.036298965216829224,-0.1799099371767294]","[-1,-1,-1]","[-0.049264299517923,-0.18380671991759123]","[1,1,1]","[-0.09453956053297509,-0.020142875834184167]","[-1,-1,-1]","[-0.18012868810520152,-0.034872733937041545]","[-1,-1,-1]","[0.12044154540696375,-0.09020185078849612]","[1,1,1]","[-0.07270248217123913,0.03594731684814069]","[1,1,1]","[-0.0072455826252259626,-0.07574080542615158]","[1,1,1]","[-0.10237583558408903,0.11216749256003632]","[1,1,1]","[-0.06534626669414278,0.13284874335119948]","[1,1,1]","[0.025387818914480116,0.08103723758187938]","[1,1,1]","[-0.04457372399854787,-0.04059323282892321]","[-1,-1,-1]","[0.05696819389933616,-0.09230101936568226]","[1,1,1]","[0.17929602561791447,-0.08681750514235353]","[1,1,1]","[-0.14239472632281916,0.12739102394444846]","[-1,-1,-1]","[0.059689955566123006,0.045346793034339854]","[1,1,1]","[-0.024003445323934544,-0.0028480664707628165]","[-1,-1,-1]","[0.11434275637906535,0.06126778405791905]","[-1,-1,-1]","[0.02,0.02]",605.4077,0,43,43,149,1,,,,,,,
,,,,,,,5e9c3ff1cf719d151612648f,682db3acb8ea98a63d0ed035,2025-05-21_13h16.34.755,cuing_paradigm_dot,2024.1.5,Win32,74.62686567,682d556593cb38ad0a074487,,,,,,,,,,,605.4081,605.9012,,,606.155,607.035,left,0.8745,,,,,,,,,0.6,,,,,,605.9013,606.155,607.035,"[-0.010536300073078674,-0.09927965452084461]","[-1,-1,-1]","[-0.11749384953616682,-0.00028789715488020687]","[-1,-1,-1]","[0.11064717840978552,0.04954333014944307]","[1,1,1]","[-0.15775757952786695,-0.09013831211128419]","[1,1,1]","[-0.15313491180199335,0.10411147713740913]","[-1,-1,-1]","[-0.04503793269479861,-0.07840072822395273]","[-1,-1,-1]","[0.0002508375420874784,0.07018585019272679]","[1,1,1]","[-0.07158602143197872,0.13245911901877752]","[1,1,1]","[0.15166021986146033,0.0603349440341413]","[1,1,1]","[0.09153360799719228,0.10550508734113548]","[-1,-1,-1]","[0.0864157215617696,-0.10996654200251861]","[-1,-1,-1]","[-0.0029944663659613,0.18674335083336013]","[1,1,1]","[-0.05525414998020596,0.18486589718640947]","[-1,-1,-1]","[-0.07711582090692512,0.03410417623246893]","[1,1,1]","[-0.04525954744246363,0.0029795999664219658]","[-1,-1,-1]","[0.10315615982190163,-0.16458509438600336]","[1,1,1]","[0.09238850612233204,-0.03817625451073195]","[-1,-1,-1]","[-0.09936247879085151,-0.0952623123271976]","[-1,-1,-1]","[0.0395297638214946,-0.062357294390650686]","[1,1,1]","[-0.09132823203712835,-0.15165799842304872]","[-1,-1,-1]","[0.1535475270995978,0.11767450039640423]","[1,1,1]","[0.1832409516755529,0.035300244607710876]","[1,1,1]","[0.04468238473934528,-0.11384542795447061]","[1,1,1]","[0.06362061105601606,0.03611469483958813]","[-1,-1,-1]","[-0.04032851384762023,-0.17454170352788442]","[1,1,1]","[0.18651901326226375,-0.04866610806746842]","[1,1,1]","[-0.09487459839833884,0.16633213156717008]","[-1,-1,-1]","[-0.01256057659062451,0.13476313623854672]","[1,1,1]","[-0.06168608704550357,-0.040423011275281466]","[1,1,1]","[-0.10281623991968446,-0.05070259093474034]","[1,1,1]","[-0.056469211610597904,-0.12652187510432464]","[1,1,1]","[0.08615618540635278,0.15331880854187518]","[1,1,1]","[0.02,0.02]",608.1284,0,44,44,179,1,,,,,,,
