right,left,explain.started,explain.stopped,key_resp_3.keys,key_resp_3.rt,key_resp_3.duration,participant,session,date,expName,psychopyVersion,OS,frameRate,study_id,explain_2.started,explain_2.stopped,key_resp_4.keys,key_resp_4.rt,key_resp_4.duration,explain_3.started,explain_3.stopped,key_resp_5.keys,key_resp_5.rt,key_resp_5.duration,fixation.started,fixation.stopped,practice.started,practice.stopped,response.started,response.stopped,key_resp.keys,key_resp.rt,key_resp.duration,feedback.started,feedback.stopped,trials_2.thisRepN,trials_2.thisTrialN,trials_2.thisN,trials_2.thisIndex,trials_2.ran,white_ratio,explain_4.started,explain_4.stopped,key_resp_6.keys,key_resp_6.rt,key_resp_6.duration,dotDisplay.started,dotDisplay.stopped,ITI.started,polygon_1.pos,polygon_1.color,polygon_2.pos,polygon_2.color,polygon_3.pos,polygon_3.color,polygon_4.pos,polygon_4.color,polygon_5.pos,polygon_5.color,polygon_6.pos,polygon_6.color,polygon_7.pos,polygon_7.color,polygon_8.pos,polygon_8.color,polygon_9.pos,polygon_9.color,polygon_10.pos,polygon_10.color,polygon_11.pos,polygon_11.color,polygon_12.pos,polygon_12.color,polygon_13.pos,polygon_13.color,polygon_14.pos,polygon_14.color,polygon_15.pos,polygon_15.color,polygon_16.pos,polygon_16.color,polygon_17.pos,polygon_17.color,polygon_18.pos,polygon_18.color,polygon_19.pos,polygon_19.color,polygon_20.pos,polygon_20.color,polygon_21.pos,polygon_21.color,polygon_22.pos,polygon_22.color,polygon_23.pos,polygon_23.color,polygon_24.pos,polygon_24.color,polygon_25.pos,polygon_25.color,polygon_26.pos,polygon_26.color,polygon_27.pos,polygon_27.color,polygon_28.pos,polygon_28.color,polygon_29.pos,polygon_29.color,polygon_30.pos,polygon_30.color,polygon_31.pos,polygon_31.color,polygon_32.pos,polygon_32.color,dot_size,ITI.stopped,trials.thisRepN,trials.thisTrialN,trials.thisN,trials.thisIndex,trials.ran,break_2.started,break_2.stopped,trials_3.thisRepN,trials_3.thisTrialN,trials_3.thisN,trials_3.thisIndex,trials_3.ran
subject chose white,subject chose black,0.0022,41.3078,space,26.2622,,5f3287b83428cb05746e2214,682db4925c65bd43ab683899,2025-05-21_13h13.21.735,cuing_paradigm_dot,2024.1.5,Win32,57.14285714,682d556593cb38ad0a074487,,,,,,,,,,,,,,,,,,,,,,,,,,,,,,,,,,,,,,,,,,,,,,,,,,,,,,,,,,,,,,,,,,,,,,,,,,,,,,,,,,,,,,,,,,,,,,,,,,,,,,,,,,,,,,,,,
,,,,,,,5f3287b83428cb05746e2214,682db4925c65bd43ab683899,2025-05-21_13h13.21.735,cuing_paradigm_dot,2024.1.5,Win32,57.14285714,682d556593cb38ad0a074487,41.3085,75.8794,space,4.5533,,,,,,,,,,,,,,,,,,,,,,,,,,,,,,,,,,,,,,,,,,,,,,,,,,,,,,,,,,,,,,,,,,,,,,,,,,,,,,,,,,,,,,,,,,,,,,,,,,,,,,,,,,,,,
,,,,,,,5f3287b83428cb05746e2214,682db4925c65bd43ab683899,2025-05-21_13h13.21.735,cuing_paradigm_dot,2024.1.5,Win32,57.14285714,682d556593cb38ad0a074487,,,,,,75.8799,79.9998,space,1.1169,,,,,,,,,,,,,,,,,,,,,,,,,,,,,,,,,,,,,,,,,,,,,,,,,,,,,,,,,,,,,,,,,,,,,,,,,,,,,,,,,,,,,,,,,,,,,,,,,,,,,,,,
,,,,,,,5f3287b83428cb05746e2214,682db4925c65bd43ab683899,2025-05-21_13h13.21.735,cuing_paradigm_dot,2024.1.5,Win32,57.14285714,682d556593cb38ad0a074487,,,,,,,,,,,80.0855,80.5167,80.5177,80.7069,80.7074,81.9335,right,1.0665,,81.9339,83.0146,0,0,0,0,1,0.8,,,,,,,,,,,,,,,,,,,,,,,,,,,,,,,,,,,,,,,,,,,,,,,,,,,,,,,,,,,,,,,,,,,,,,,,,,,,,,,,,,,,,,
,,,,,,,5f3287b83428cb05746e2214,682db4925c65bd43ab683899,2025-05-21_13h13.21.735,cuing_paradigm_dot,2024.1.5,Win32,57.14285714,682d556593cb38ad0a074487,,,,,,,,,,,83.017,83.5102,83.5103,83.7522,83.7524,84.4782,left,0.7029,,84.4785,85.5745,0,1,1,1,1,0.2,,,,,,,,,,,,,,,,,,,,,,,,,,,,,,,,,,,,,,,,,,,,,,,,,,,,,,,,,,,,,,,,,,,,,,,,,,,,,,,,,,,,,,
,,,,,,,5f3287b83428cb05746e2214,682db4925c65bd43ab683899,2025-05-21_13h13.21.735,cuing_paradigm_dot,2024.1.5,Win32,57.14285714,682d556593cb38ad0a074487,,,,,,,,,,,,,,,,,,,,,,,,,,,,85.5774,90.1715,space,1.5866,,,,,,,,,,,,,,,,,,,,,,,,,,,,,,,,,,,,,,,,,,,,,,,,,,,,,,,,,,,,,,,,,,,,,,,,,,,,,,,,,,
,,,,,,,5f3287b83428cb05746e2214,682db4925c65bd43ab683899,2025-05-21_13h13.21.735,cuing_paradigm_dot,2024.1.5,Win32,57.14285714,682d556593cb38ad0a074487,,,,,,,,,,,90.2284,90.6783,,,90.9311,91.6058,right,0.6576,,,,,,,,,0.5,,,,,,90.6792,90.931,91.6094,"[-0.013208007826590233,-0.19287843741034774]","[1,1,1]","[-0.10026316498876278,0.11304381195497264]","[1,1,1]","[-0.00892222483081631,-0.1368744598504587]","[-1,-1,-1]","[-0.14608923931101714,-0.05705334958256566]","[1,1,1]","[0.03554258195911659,0.18905634590962547]","[1,1,1]","[-0.10448967428012634,-0.043863241048109756]","[-1,-1,-1]","[-0.06333629464432224,0.037829934095355164]","[1,1,1]","[-0.10632463654037248,0.16121419203515788]","[-1,-1,-1]","[0.004339039453705713,-0.08820368426920912]","[1,1,1]","[-0.11479397277403126,0.02097039685779731]","[-1,-1,-1]","[0.009479496983500733,0.1400470322546975]","[-1,-1,-1]","[0.14008602905511766,0.08061685321801468]","[1,1,1]","[-0.05059643959533143,0.12641790951520107]","[1,1,1]","[0.17170678872927997,-0.05606677681454878]","[-1,-1,-1]","[-0.024502657854288373,0.19182602219517048]","[-1,-1,-1]","[0.0700084945686663,-0.1772078777375381]","[1,1,1]","[-0.0720771453898754,-0.005612672526860055]","[1,1,1]","[0.08529879467259678,0.11237171633135302]","[-1,-1,-1]","[0.04572182726424782,-0.0894044307664101]","[-1,-1,-1]","[0.07256712249756875,-0.023823845436809325]","[-1,-1,-1]","[-0.04836432926835125,-0.04768011826588052]","[-1,-1,-1]","[-0.1082332609240516,-0.14449780402188875]","[1,1,1]","[0.14026596657039622,-0.09898272601523322]","[-1,-1,-1]","[0.09224823472606677,-0.11281037871652974]","[1,1,1]","[0.11613231633705898,0.0058974100273974156]","[1,1,1]","[-0.02608219535022916,-0.005614991853432038]","[-1,-1,-1]","[-0.19612735744963813,-0.021764859339958205]","[1,1,1]","[-0.15812672649648188,0.04684858205446952]","[-1,-1,-1]","[-0.07329524665201387,-0.16813015975705603]","[1,1,1]","[0.09092735065534754,0.050728565956515585]","[1,1,1]","[0.023670912275617843,0.08030973953155929]","[-1,-1,-1]","[0.008603995197583522,0.028406470017081315]","[-1,-1,-1]","[0.02,0.02]",92.6977,0,0,0,117,1,,,,,,,
,,,,,,,5f3287b83428cb05746e2214,682db4925c65bd43ab683899,2025-05-21_13h13.21.735,cuing_paradigm_dot,2024.1.5,Win32,57.14285714,682d556593cb38ad0a074487,,,,,,,,,,,92.6998,93.1927,,,93.4425,93.885,left,0.4242,,,,,,,,,0.1,,,,,,93.1928,93.4425,93.8852,"[-0.053924295601704864,0.16691839280397203]","[-1,-1,-1]","[0.11720726252798404,-0.15008950624767597]","[-1,-1,-1]","[0.03426052337204269,0.18498990708258564]","[-1,-1,-1]","[-0.10515045595799648,-0.1567505304822194]","[-1,-1,-1]","[-0.09674469345892266,-0.011660743667898904]","[-1,-1,-1]","[0.15336473544541257,-0.10613898528236958]","[-1,-1,-1]","[0.03332323066736499,0.02503391532218215]","[-1,-1,-1]","[-0.100759527459603,-0.07994264931537587]","[-1,-1,-1]","[0.08312865452049978,-0.1732645608765119]","[1,1,1]","[-0.05641637989337479,0.06248572665441325]","[-1,-1,-1]","[0.08976068276544828,0.06378355119935199]","[-1,-1,-1]","[0.14547229124181196,0.13585940900780477]","[-1,-1,-1]","[0.1072163910286531,0.1618632944481714]","[-1,-1,-1]","[-0.05085676849281915,-0.16237546477344017]","[-1,-1,-1]","[0.11635295539022293,0.015467270462772593]","[-1,-1,-1]","[0.08381076123216027,-0.009493214365678501]","[-1,-1,-1]","[0.007881388684834937,-0.14736016897096255]","[-1,-1,-1]","[-0.013962789750352715,0.1510005678525841]","[-1,-1,-1]","[-0.10395323322470984,0.13856294849843354]","[-1,-1,-1]","[-0.09582300466073389,0.08593669745790494]","[-1,-1,-1]","[0.15908088243155383,-0.06291211298732446]","[1,1,1]","[-0.10614882612586396,0.04460286783095012]","[-1,-1,-1]","[-0.04947350790996673,-0.02550524075265771]","[-1,-1,-1]","[-0.15958169769062067,0.06683703941961155]","[-1,-1,-1]","[0.15795057486063926,0.02745114180091011]","[-1,-1,-1]","[-0.17753512396627322,-0.0055180418623202235]","[1,1,1]","[0.04674029016281298,-0.10506607172883921]","[-1,-1,-1]","[0.0635430944931725,-0.05688572912339539]","[-1,-1,-1]","[-0.024627337435786455,-0.19322141595295356]","[-1,-1,-1]","[-0.16292945024519057,-0.11316042351468078]","[-1,-1,-1]","[0.06818105990837206,0.13781679135457536]","[-1,-1,-1]","[-0.025403174197303972,-0.06052118580921873]","[-1,-1,-1]","[0.02,0.02]",94.9786,0,1,1,29,1,,,,,,,
,,,,,,,5f3287b83428cb05746e2214,682db4925c65bd43ab683899,2025-05-21_13h13.21.735,cuing_paradigm_dot,2024.1.5,Win32,57.14285714,682d556593cb38ad0a074487,,,,,,,,,,,94.9805,95.4782,,,95.7253,96.4981,left,0.7566,,,,,,,,,0.45,,,,,,95.4782,95.7252,96.4983,"[-0.08062213200112646,-0.08881362794564589]","[1,1,1]","[0.08763791758584945,-0.027472075695006273]","[1,1,1]","[-0.15952905007868107,-0.056415810385390425]","[-1,-1,-1]","[-0.0681847675611346,-0.15340333444320461]","[-1,-1,-1]","[0.16779101327876852,0.048413670248083684]","[-1,-1,-1]","[-0.0011556643177244518,0.16504196069909247]","[-1,-1,-1]","[0.06980227613960334,-0.10100786798193202]","[1,1,1]","[0.04872413683779638,-0.045688362108518184]","[-1,-1,-1]","[0.0689111556077862,0.013892205812265183]","[-1,-1,-1]","[-0.044672622394748396,-0.05264710502389102]","[1,1,1]","[-0.1423554921024609,0.081460693637683]","[1,1,1]","[0.010637311573259027,0.12527559154975992]","[-1,-1,-1]","[0.001758967906382529,0.04348979862831484]","[1,1,1]","[-0.05942693185162593,0.0113948178550419]","[-1,-1,-1]","[0.118483116846473,-0.15376128404062267]","[-1,-1,-1]","[-0.19234274804091725,0.025004135683590827]","[1,1,1]","[-0.043040908176569526,0.1849612322872736]","[-1,-1,-1]","[-0.006430425217101559,-0.024502252443351098]","[-1,-1,-1]","[-0.05964845215693448,0.05868210760993251]","[1,1,1]","[0.09606236288029453,0.1667287060710553]","[-1,-1,-1]","[0.11611502773325315,0.1065349189528785]","[-1,-1,-1]","[0.1595345591810147,0.001274753657280763]","[-1,-1,-1]","[0.14135774671548518,-0.07643685635520853]","[-1,-1,-1]","[0.009699479156355868,-0.11488963237718333]","[1,1,1]","[-0.13841450571144323,0.008054282726985489]","[1,1,1]","[-0.09541107347510706,0.08489673925811887]","[-1,-1,-1]","[-0.10731393309977734,-0.14055306484834423]","[1,1,1]","[0.15605430802833326,0.12342166490194348]","[-1,-1,-1]","[-0.029773837283509765,-0.0963081594890514]","[-1,-1,-1]","[0.10981576516961901,0.0640824123746177]","[1,1,1]","[-0.028397321344817174,-0.16552232635358907]","[1,1,1]","[-0.10236645358981504,0.133325025932348]","[1,1,1]","[0.02,0.02]",97.5774,0,2,2,75,1,,,,,,,
,,,,,,,5f3287b83428cb05746e2214,682db4925c65bd43ab683899,2025-05-21_13h13.21.735,cuing_paradigm_dot,2024.1.5,Win32,57.14285714,682d556593cb38ad0a074487,,,,,,,,,,,97.5788,98.0595,,,98.3075,99.1961,left,0.87,,,,,,,,,0.1,,,,,,98.0597,98.3074,99.1963,"[0.1515394837685804,0.05385330055847243]","[-1,-1,-1]","[0.14883903364734544,-0.008051807787935577]","[1,1,1]","[-0.019494619925863235,0.15692410768300422]","[-1,-1,-1]","[0.08725760775650666,0.13529539085459324]","[-1,-1,-1]","[0.06616273593492975,-0.02062833014533589]","[-1,-1,-1]","[0.0965869040793317,0.08438639009701253]","[-1,-1,-1]","[0.04056505675855286,-0.1726966552502588]","[-1,-1,-1]","[-0.058737191761350276,0.11226879775805192]","[-1,-1,-1]","[-0.11713524914812923,-0.05003327849369271]","[-1,-1,-1]","[0.042540408207461744,0.19085350632266307]","[-1,-1,-1]","[0.17706888918058794,-0.0396305024124342]","[-1,-1,-1]","[0.15998560683273425,-0.09589572006177657]","[1,1,1]","[-0.09736490800954374,0.0015634366920202927]","[-1,-1,-1]","[0.06695253338699353,-0.10240364903743117]","[-1,-1,-1]","[-0.1422130498809855,-0.0954901949775844]","[-1,-1,-1]","[0.13154496811207,0.11908555262919811]","[-1,-1,-1]","[0.05605947543715283,0.023336005481413947]","[-1,-1,-1]","[-0.08602099506786709,-0.13217777947239087]","[-1,-1,-1]","[0.19022366120014927,0.004973593106704976]","[-1,-1,-1]","[-0.023235138443068546,-0.16628222835077153]","[-1,-1,-1]","[-0.008262240911329983,0.09853873870399898]","[-1,-1,-1]","[0.09629638907501413,0.013362537982622661]","[-1,-1,-1]","[-0.05121656758883459,0.02482068791190818]","[1,1,1]","[-0.06844349582987365,-0.03835724578475666]","[-1,-1,-1]","[0.09818152462739141,-0.16758374307825796]","[-1,-1,-1]","[-0.17990441727010134,0.04378042974828029]","[-1,-1,-1]","[-0.027400579172687706,-0.11173011334664064]","[-1,-1,-1]","[-0.0393596304421896,0.19416459849554338]","[-1,-1,-1]","[-0.1905482662563844,-0.0034438790397446142]","[-1,-1,-1]","[-0.14929488815080957,0.10769412905341606]","[-1,-1,-1]","[0.03798671918564769,0.08982421877404795]","[-1,-1,-1]","[-0.10219634892812898,0.049145843671184256]","[-1,-1,-1]","[0.02,0.02]",100.2899,0,3,3,14,1,,,,,,,
,,,,,,,5f3287b83428cb05746e2214,682db4925c65bd43ab683899,2025-05-21_13h13.21.735,cuing_paradigm_dot,2024.1.5,Win32,57.14285714,682d556593cb38ad0a074487,,,,,,,,,,,100.2915,100.7941,,,101.0347,101.6111,right,0.5568,,,,,,,,,0.6,,,,,,100.7942,101.0346,101.6112,"[0.1429776706761917,0.05073011345297623]","[-1,-1,-1]","[0.056355486304766174,-0.18351044266861222]","[1,1,1]","[-0.051541820739189614,-0.13164231807573826]","[1,1,1]","[0.09327982316456696,-0.057306467290794756]","[1,1,1]","[0.08303643305848195,0.009873885066035867]","[-1,-1,-1]","[-0.030680244182389915,-0.19339568061017745]","[1,1,1]","[0.13240042638014382,-0.14801620749492797]","[-1,-1,-1]","[0.09216366684841783,0.1294668780183026]","[-1,-1,-1]","[-0.09941604289006818,-0.16798563854623638]","[1,1,1]","[-0.030806821839291197,0.16320110412238095]","[1,1,1]","[-0.07373994811973246,0.09831584924805435]","[-1,-1,-1]","[0.036750021245840786,0.07594091456395355]","[1,1,1]","[-0.03561600536214284,0.046298816210308305]","[1,1,1]","[0.06842890800477082,-0.10900562545239562]","[1,1,1]","[-0.18263697232940262,-0.001319096442031939]","[-1,-1,-1]","[0.05010290872183155,-0.07103376345182716]","[1,1,1]","[0.03246510265719525,0.010993883837754327]","[1,1,1]","[-0.13777644893284283,-0.13096048351324996]","[1,1,1]","[0.1663654621839726,0.017207084281968512]","[1,1,1]","[0.1736180252749344,-0.03459434317320816]","[1,1,1]","[-0.12565329421690577,0.031135273787030286]","[1,1,1]","[0.01732564483470157,-0.19636961256517746]","[1,1,1]","[-0.1106336042841088,-0.047939365392276494]","[1,1,1]","[-0.0230493000109703,-0.07416342755012985]","[-1,-1,-1]","[-0.009769699158098284,-0.12370477696634774]","[1,1,1]","[-0.11060251216257042,0.1545069111415006]","[-1,-1,-1]","[0.13141752506947954,-0.013513256909114087]","[-1,-1,-1]","[0.04118478258010454,0.18277126805252827]","[1,1,1]","[0.030710091958685716,-0.13918607243437772]","[-1,-1,-1]","[-0.11987836675458785,0.08977121599122488]","[-1,-1,-1]","[0.12865418025647454,-0.09250571984704183]","[-1,-1,-1]","[-0.17028494537088434,-0.04708721607796407]","[-1,-1,-1]","[0.02,0.02]",102.7037,0,4,4,161,1,,,,,,,
,,,,,,,5f3287b83428cb05746e2214,682db4925c65bd43ab683899,2025-05-21_13h13.21.735,cuing_paradigm_dot,2024.1.5,Win32,57.14285714,682d556593cb38ad0a074487,,,,,,,,,,,102.7069,103.2101,,,103.4604,104.163,left,0.6848,,,,,,,,,0.45,,,,,,103.2103,103.4603,104.1632,"[0.11756208824882611,0.0818797305610333]","[1,1,1]","[-0.06982866931387834,-0.0630715479087108]","[-1,-1,-1]","[0.07414808838452182,0.05782849943045556]","[-1,-1,-1]","[0.029829041976257235,0.09009281165403742]","[1,1,1]","[-0.0517761609031357,0.010958126098041842]","[-1,-1,-1]","[-0.00981367931340261,-0.18586696073501324]","[-1,-1,-1]","[-0.15367198882873498,-0.044967346964143874]","[1,1,1]","[-0.06779767330306413,0.10977994682153347]","[1,1,1]","[0.076668415296068,-0.12824413435522977]","[-1,-1,-1]","[-0.019500415143932512,-0.09074036253423994]","[-1,-1,-1]","[0.11469784441496492,-0.048094812883663504]","[1,1,1]","[0.12584997342386808,-0.14602068182499386]","[-1,-1,-1]","[0.09353086639032569,0.0034184217560037974]","[1,1,1]","[0.16360246527493139,0.08042683885978495]","[1,1,1]","[0.04299176749256951,-0.18353481811309097]","[1,1,1]","[0.00025918081485043606,0.16474571660195275]","[1,1,1]","[0.10448513878111487,0.12899248736128796]","[1,1,1]","[0.024445953868723024,0.04649839151823895]","[-1,-1,-1]","[0.03959339927617646,-0.0396741235560471]","[1,1,1]","[0.15773894111230866,-0.11847800996431886]","[-1,-1,-1]","[-0.11647955620153146,0.06415581497673135]","[-1,-1,-1]","[0.05586124417291604,0.14587096061848012]","[-1,-1,-1]","[-0.11004768248776099,0.003203083506091244]","[1,1,1]","[-0.009143403535646655,-0.009475732075207544]","[-1,-1,-1]","[-0.07409908382450013,0.05394844041411441]","[-1,-1,-1]","[-0.06382918125278556,-0.11264310899305269]","[-1,-1,-1]","[0.14532626528802584,-0.005104412242437804]","[-1,-1,-1]","[-0.128814152298125,0.12910429205453144]","[-1,-1,-1]","[-0.017484743981569673,0.09579322425052107]","[1,1,1]","[-0.1039075036176837,-0.13586961078052934]","[-1,-1,-1]","[-0.15405723492979528,0.046843730830225014]","[1,1,1]","[-0.042009034341581854,-0.03370551092830133]","[-1,-1,-1]","[0.02,0.02]",105.2409,0,5,5,74,1,,,,,,,
,,,,,,,5f3287b83428cb05746e2214,682db4925c65bd43ab683899,2025-05-21_13h13.21.735,cuing_paradigm_dot,2024.1.5,Win32,57.14285714,682d556593cb38ad0a074487,,,,,,,,,,,105.2428,105.7473,,,105.9926,106.6136,right,0.605,,,,,,,,,0.55,,,,,,105.7473,105.9925,106.6138,"[-0.06972128473593461,0.08812514499318891]","[-1,-1,-1]","[-0.08869414383617213,-0.07302056493509228]","[1,1,1]","[-0.07808092390304369,-0.17759197994575845]","[-1,-1,-1]","[0.06264093653635185,0.06575967269961434]","[-1,-1,-1]","[0.11048372014217434,0.12004265565548422]","[1,1,1]","[-0.01933376905055136,0.17325724088312272]","[1,1,1]","[0.02291946810066109,0.005081271453656815]","[1,1,1]","[-0.15127496320971892,0.08656270063058313]","[-1,-1,-1]","[0.047982618183762066,-0.10682178926098147]","[1,1,1]","[0.07391081770534402,0.0016580930774784176]","[1,1,1]","[-0.07025220577841984,0.15875492835334823]","[-1,-1,-1]","[-0.17376238829603552,-0.09370019963095422]","[-1,-1,-1]","[0.1237635390401169,0.026527614369612786]","[-1,-1,-1]","[-0.01412113918191552,0.09747585201770519]","[1,1,1]","[-0.12811562788956823,0.04783179247621027]","[-1,-1,-1]","[-0.04356829351850809,-0.15486283112529606]","[1,1,1]","[-0.1439694599137674,0.009513732799821628]","[-1,-1,-1]","[0.014347033003186313,-0.06369944287257288]","[-1,-1,-1]","[0.1795978603822763,-0.004152397404036914]","[1,1,1]","[0.04257745896294203,-0.15096219675415273]","[-1,-1,-1]","[-0.17162118748664787,-0.029729256615547123]","[1,1,1]","[0.07302742440347029,-0.05451560311123649]","[1,1,1]","[0.026457021154803164,0.15899442648348594]","[1,1,1]","[-0.04204881038202987,0.029631470288934956]","[1,1,1]","[-0.036464659304278314,-0.0836048248773494]","[1,1,1]","[0.09468700598316421,-0.11235998474998474]","[1,1,1]","[-0.13122278846664168,-0.0890295258625357]","[1,1,1]","[0.13679136365266265,-0.12623043531670514]","[1,1,1]","[0.02013579943131192,0.057499351407875335]","[-1,-1,-1]","[-0.0145458497671452,-0.18941553849424658]","[1,1,1]","[0.07291580170610379,0.17078320010377152]","[-1,-1,-1]","[-0.05181143396919053,-0.011073863268482136]","[-1,-1,-1]","[0.02,0.02]",107.7057,0,6,6,135,1,,,,,,,
,,,,,,,5f3287b83428cb05746e2214,682db4925c65bd43ab683899,2025-05-21_13h13.21.735,cuing_paradigm_dot,2024.1.5,Win32,57.14285714,682d556593cb38ad0a074487,,,,,,,,,,,107.7078,108.2118,,,108.4734,109.2657,right,0.7768,,,,,,,,,0.6,,,,,,108.212,108.4733,109.2657,"[-0.09510074698628553,0.075345043682173]","[-1,-1,-1]","[0.003140204246640351,-0.1518170087250701]","[1,1,1]","[-0.08818621168092872,0.1189427476105058]","[1,1,1]","[0.06913943982246677,-0.10511884641072548]","[-1,-1,-1]","[0.0017742988505529214,-0.02794150842213494]","[-1,-1,-1]","[0.036174151357949144,0.18438766297595555]","[1,1,1]","[0.14333338042102722,-0.07061283204117934]","[-1,-1,-1]","[0.018318121079721562,0.023617009442564646]","[1,1,1]","[-0.03795311398024405,0.1708553512838619]","[1,1,1]","[0.1305531120710459,0.06015036841339151]","[1,1,1]","[-0.1840398666532221,-0.03351675955913783]","[1,1,1]","[-0.11605829517221877,-0.16178877654367815]","[-1,-1,-1]","[-0.027181690682788584,-0.06243849185373525]","[1,1,1]","[0.059555397706099314,0.0858677688241918]","[-1,-1,-1]","[0.18041942834426034,0.05342017124452099]","[1,1,1]","[0.008751982585993317,0.15478104114604524]","[1,1,1]","[-0.0699837561647451,0.0011618982075050671]","[1,1,1]","[0.023768240259135355,0.10990735366745848]","[1,1,1]","[-0.1382283113218299,0.02871890137370569]","[1,1,1]","[-0.0526940332943484,0.08390667301361474]","[1,1,1]","[-0.1342189021508048,0.12983881255830979]","[1,1,1]","[0.19178202325103194,-0.00037212579573781375]","[1,1,1]","[0.05538278954285117,-0.06074893482441887]","[1,1,1]","[-0.03265840298426341,0.1253522035427058]","[1,1,1]","[-0.10634655067650982,-0.07485488891816335]","[-1,-1,-1]","[0.05046147135582886,-0.149442303645027]","[-1,-1,-1]","[-0.059888688935866616,0.04431602338569259]","[-1,-1,-1]","[0.13632316145361714,-0.1399162839242329]","[-1,-1,-1]","[-0.015539563680616193,-0.1966686464552851]","[-1,-1,-1]","[-0.18951005907583657,0.060746288454285445]","[1,1,1]","[0.10060293703976757,0.14733696423646006]","[-1,-1,-1]","[-0.1559408759167565,-0.12178462494632057]","[-1,-1,-1]","[0.02,0.02]",110.3585,0,7,7,170,1,,,,,,,
,,,,,,,5f3287b83428cb05746e2214,682db4925c65bd43ab683899,2025-05-21_13h13.21.735,cuing_paradigm_dot,2024.1.5,Win32,57.14285714,682d556593cb38ad0a074487,,,,,,,,,,,110.3599,110.8692,,,111.126,112.1299,left,0.9867,,,,,,,,,0.45,,,,,,110.8692,111.126,112.1301,"[0.10167035528230092,-0.0019246788458785744]","[1,1,1]","[0.13926246279565313,0.03410773822071263]","[-1,-1,-1]","[-0.15604614826996235,-0.014067246891924099]","[-1,-1,-1]","[0.18783086458333134,0.04636922649820564]","[-1,-1,-1]","[-0.12218508729061354,0.047437236554645885]","[1,1,1]","[0.05622003933578861,0.07549639208525616]","[-1,-1,-1]","[0.017218556100877275,0.10599658693163957]","[-1,-1,-1]","[0.03627249907709148,-0.04696759699727548]","[-1,-1,-1]","[-0.17510352169749224,0.038946043390774836]","[-1,-1,-1]","[-0.0435247342034073,-0.1022021286555517]","[-1,-1,-1]","[-0.10768081323452633,-0.06663845073882285]","[1,1,1]","[-0.14829571770786096,0.11654826699515458]","[1,1,1]","[-0.03129482041978109,-0.04547315282956916]","[1,1,1]","[0.1648132363433309,-0.0596886221260129]","[-1,-1,-1]","[-0.0036784452292387988,0.17008239740998518]","[-1,-1,-1]","[-0.09786146919680139,-0.022966365972653082]","[1,1,1]","[0.013655046173680163,-0.11789572817276822]","[1,1,1]","[0.10146043209133834,0.13478328697765007]","[-1,-1,-1]","[0.15339792669007357,0.12266581623005991]","[-1,-1,-1]","[0.09092963325082168,-0.13335993384145764]","[1,1,1]","[-0.04758572872820904,0.08614902391693169]","[1,1,1]","[-0.10618192778829713,-0.1462617083853496]","[-1,-1,-1]","[-0.1826872359550173,0.08096141865906398]","[1,1,1]","[0.040566009169322695,0.0002437266188787191]","[-1,-1,-1]","[-0.16353556983894768,-0.10047080028437996]","[1,1,1]","[-0.055977888894129045,0.14011707213642832]","[-1,-1,-1]","[0.09052914747642567,-0.07785889235417533]","[1,1,1]","[0.08798739846371718,0.04955309237400554]","[-1,-1,-1]","[0.1254128073074519,-0.03427005467145533]","[1,1,1]","[-0.06882120086924484,-0.1797734362393072]","[-1,-1,-1]","[0.056836720452184714,-0.16362143318636152]","[1,1,1]","[0.13155734663552895,-0.14925621274293427]","[-1,-1,-1]","[0.02,0.02]",113.2255,0,8,8,81,1,,,,,,,
,,,,,,,5f3287b83428cb05746e2214,682db4925c65bd43ab683899,2025-05-21_13h13.21.735,cuing_paradigm_dot,2024.1.5,Win32,57.14285714,682d556593cb38ad0a074487,,,,,,,,,,,113.2261,113.7186,,,113.9722,114.4251,right,0.4377,,,,,,,,,0.9,,,,,,113.7186,113.9721,114.4252,"[0.033654416768772226,0.020266696315793087]","[1,1,1]","[0.06865446865603479,-0.1862533285200146]","[1,1,1]","[0.1598499694853754,-0.03586946405606415]","[1,1,1]","[-0.14173148163226815,0.0015004840862109182]","[1,1,1]","[-0.10714621308131203,0.031185809343887105]","[1,1,1]","[-0.14423941218817296,0.06909427018541417]","[1,1,1]","[0.14620815081778293,0.11950095552507055]","[1,1,1]","[0.04937383185049597,0.13853656765129588]","[1,1,1]","[-0.02386262723981317,-0.07924385245352132]","[1,1,1]","[-0.024775957397441702,-0.01919949319456754]","[1,1,1]","[0.08613787448593728,0.0875578037184111]","[1,1,1]","[-0.08353923340087131,0.1146488861626169]","[1,1,1]","[0.17517269309386344,0.02889114675801133]","[1,1,1]","[0.04932915200864853,-0.0602461991449811]","[1,1,1]","[-0.06234655753852548,0.023904680787661663]","[-1,-1,-1]","[-0.04094773983254768,0.1714852193803819]","[1,1,1]","[-0.04382462769048266,0.10969957952601987]","[1,1,1]","[0.07759711126767493,-0.132962524477965]","[1,1,1]","[0.09807334507959808,-0.02793837479307373]","[1,1,1]","[-0.03725032936796318,-0.15478369271001505]","[1,1,1]","[0.14913545696950004,0.0760714768593377]","[-1,-1,-1]","[-0.10722507841388998,0.1511293372530368]","[1,1,1]","[0.1005390331207739,0.16427782595409385]","[1,1,1]","[0.12271433635768343,-0.08768095415769073]","[1,1,1]","[-0.19912540767384385,0.00843137269463071]","[-1,-1,-1]","[-0.0909579229536748,-0.07592828473109546]","[1,1,1]","[0.08634724236613762,0.022022083789311846]","[1,1,1]","[-0.09456207743182185,-0.0096519336355038]","[1,1,1]","[-0.17036226129103035,-0.047299253485314774]","[1,1,1]","[-0.008974340173750017,0.03348427856409925]","[1,1,1]","[0.006010697506481906,0.09170985426473902]","[1,1,1]","[0.010899874190719033,-0.18195290862338961]","[1,1,1]","[0.02,0.02]",115.5136,0,9,9,187,1,,,,,,,
,,,,,,,5f3287b83428cb05746e2214,682db4925c65bd43ab683899,2025-05-21_13h13.21.735,cuing_paradigm_dot,2024.1.5,Win32,57.14285714,682d556593cb38ad0a074487,,,,,,,,,,,115.5154,116.0058,,,116.2481,116.7595,right,0.4936,,,,,,,,,0.9,,,,,,116.0059,116.248,116.7596,"[0.0034266195511244734,0.06026676789849039]","[1,1,1]","[-0.09121420489003469,0.16025295332783057]","[1,1,1]","[0.06832478973554086,0.11131847158718132]","[1,1,1]","[0.04128957206915595,-0.18600921748848023]","[1,1,1]","[0.07232301009860269,-0.09903314476956904]","[1,1,1]","[-0.032734440926661154,0.005611096905843215]","[1,1,1]","[-0.09005867123795715,0.03443390247038626]","[1,1,1]","[0.03444152307362144,-0.0014211776456967895]","[-1,-1,-1]","[-0.15321332725510894,0.12075592291216479]","[-1,-1,-1]","[-0.020497888571531817,-0.12620273537197377]","[-1,-1,-1]","[0.10981409708879646,0.09646868188929839]","[1,1,1]","[0.07437288509895897,-0.007562707445849105]","[1,1,1]","[-0.1857731436041408,-0.03875243146961364]","[1,1,1]","[0.12642256989201486,-0.07316209379362389]","[1,1,1]","[0.17218148916922227,0.05633692094198268]","[1,1,1]","[0.12760298940087772,-0.12193501551691639]","[1,1,1]","[-0.07321529820347981,-0.03452351780926146]","[1,1,1]","[0.011759684747310088,-0.060755651954418136]","[1,1,1]","[-0.04691524572019727,0.16320076345495763]","[1,1,1]","[-0.030201081863118488,-0.17340935630994544]","[1,1,1]","[-0.128200989865329,0.08928136977253905]","[1,1,1]","[-0.1566875622889089,-0.0982040761603089]","[1,1,1]","[-0.03700180617758976,0.07694136379078048]","[1,1,1]","[-0.05876227082135349,-0.13825418892965943]","[1,1,1]","[-0.0010694357963681668,0.1282483100892416]","[1,1,1]","[0.19867804777893125,-0.015251991876153148]","[1,1,1]","[-0.16485167419886373,0.02870876161644982]","[1,1,1]","[-0.053238815658573926,-0.09593968891072124]","[1,1,1]","[-0.1664523870445748,0.07005482845468818]","[1,1,1]","[0.05259465061213191,-0.05424737686763365]","[1,1,1]","[-0.12626733994781927,-0.14188317510246085]","[1,1,1]","[0.10208591443197228,0.1557744461023687]","[1,1,1]","[0.02,0.02]",117.86,0,10,10,181,1,,,,,,,
,,,,,,,5f3287b83428cb05746e2214,682db4925c65bd43ab683899,2025-05-21_13h13.21.735,cuing_paradigm_dot,2024.1.5,Win32,57.14285714,682d556593cb38ad0a074487,,,,,,,,,,,117.8618,118.3554,,,118.5964,119.1042,left,0.4911,,,,,,,,,0.1,,,,,,118.3556,118.5964,119.1043,"[0.030711692752084525,0.08853192098611044]","[-1,-1,-1]","[-0.12040282924061908,-0.043834899130510446]","[-1,-1,-1]","[-0.19813291202037517,0.025973323950110858]","[-1,-1,-1]","[0.07271064553689592,0.06825907980508938]","[-1,-1,-1]","[-0.1582337415285438,0.002674197256712227]","[-1,-1,-1]","[0.0757238936120563,0.1552448406755348]","[-1,-1,-1]","[0.12664736004574723,-0.03705361443274508]","[-1,-1,-1]","[-0.025243547677504547,0.04767791857418694]","[-1,-1,-1]","[-0.12436967809453055,0.031165723254015353]","[-1,-1,-1]","[-0.15855020092742803,0.06125511483269261]","[-1,-1,-1]","[-0.01985856648341072,0.0013263352077184396]","[-1,-1,-1]","[0.027510670253458283,-0.1784664065397006]","[-1,-1,-1]","[-0.09756402149109522,0.06776317142122834]","[-1,-1,-1]","[-0.013503088602562429,0.17054730164445625]","[1,1,1]","[-0.002664670595395812,-0.05084275655546225]","[-1,-1,-1]","[0.1714021707850982,-0.04575060635166441]","[-1,-1,-1]","[-0.05097304008983433,-0.10643686143485338]","[-1,-1,-1]","[0.07129774351111053,-0.17780932393922327]","[-1,-1,-1]","[-0.13545008256998145,-0.10471126334494112]","[-1,-1,-1]","[0.1309046588538909,0.07447119307360284]","[-1,-1,-1]","[-0.07606552350638973,0.12176856597323675]","[-1,-1,-1]","[0.05710249059261538,-0.13025493202238325]","[-1,-1,-1]","[0.07003711516978506,0.01198851158852218]","[-1,-1,-1]","[-0.1277062647546571,0.10544823105242468]","[1,1,1]","[-0.1010643060096596,-0.13377609731333756]","[-1,-1,-1]","[-0.09949884512687329,0.15540471275424228]","[-1,-1,-1]","[0.1567384273638963,-0.002581098005366207]","[-1,-1,-1]","[-0.17553149461921233,-0.04283781447107701]","[-1,-1,-1]","[0.17005358386976813,0.0873520383759867]","[-1,-1,-1]","[-0.05443984365814353,-0.16693311256925758]","[-1,-1,-1]","[-0.09113913563759594,-0.08725437137990619]","[-1,-1,-1]","[0.10998644179604146,0.018193642884708927]","[1,1,1]","[0.02,0.02]",120.2003,0,11,11,8,1,,,,,,,
,,,,,,,5f3287b83428cb05746e2214,682db4925c65bd43ab683899,2025-05-21_13h13.21.735,cuing_paradigm_dot,2024.1.5,Win32,57.14285714,682d556593cb38ad0a074487,,,,,,,,,,,120.2039,120.7172,,,120.9593,121.8948,right,0.9191,,,,,,,,,0.5,,,,,,120.7173,120.9592,121.8949,"[0.12172276926945433,0.0788660746065606]","[1,1,1]","[0.14384473127802058,-0.023589651031027087]","[1,1,1]","[-0.023725978390946846,0.15549671274472449]","[-1,-1,-1]","[-0.17851100754230528,0.0386218294331734]","[1,1,1]","[-0.08168348135314556,-0.13218734265500087]","[1,1,1]","[-0.15085666871821984,0.10870998591044966]","[-1,-1,-1]","[-0.1273944656859717,-0.0476939291104504]","[-1,-1,-1]","[-0.0903769100418561,0.17808519206860063]","[-1,-1,-1]","[0.11419452874146518,-0.09450564827125113]","[1,1,1]","[-0.0800825498487885,0.06412847145250795]","[-1,-1,-1]","[0.17608612976516042,0.036551642792291617]","[1,1,1]","[0.024432146172488862,0.08315258280891984]","[1,1,1]","[0.10690767872938438,-0.13840372307666055]","[-1,-1,-1]","[-0.07120794075426319,-0.1778870418312282]","[-1,-1,-1]","[-0.035067221979396476,0.011263841027123453]","[1,1,1]","[0.015827599109157143,0.007507600213188514]","[1,1,1]","[-0.10773207343182312,0.12108029106926735]","[-1,-1,-1]","[0.019084889995150383,0.1620890361058733]","[-1,-1,-1]","[0.05245845876347861,-0.13499410884654922]","[-1,-1,-1]","[0.08160854793285022,0.1808044770753398]","[1,1,1]","[0.00229873796833912,-0.19118273157231466]","[1,1,1]","[0.05928911768874968,0.019218868035900085]","[1,1,1]","[-0.00580424418563329,-0.05647588675227418]","[1,1,1]","[-0.05299574829537009,-0.04524663955772632]","[-1,-1,-1]","[-0.03798547629836967,-0.09391167367265507]","[-1,-1,-1]","[-0.03938908943101254,0.08587865236391644]","[1,1,1]","[0.09634313689541076,0.14002532848200383]","[-1,-1,-1]","[-0.0321839931273698,-0.14356206493723697]","[-1,-1,-1]","[0.15544912668874855,-0.07190553059658637]","[-1,-1,-1]","[0.050688841974426115,0.13413590962823216]","[-1,-1,-1]","[0.05411054314545637,-0.17596030321944983]","[1,1,1]","[-0.08861813379466552,-0.021112100949677977]","[1,1,1]","[0.02,0.02]",122.9995,0,12,12,92,1,,,,,,,
,,,,,,,5f3287b83428cb05746e2214,682db4925c65bd43ab683899,2025-05-21_13h13.21.735,cuing_paradigm_dot,2024.1.5,Win32,57.14285714,682d556593cb38ad0a074487,,,,,,,,,,,123.0031,123.5061,,,123.757,124.4561,right,0.683,,,,,,,,,0.55,,,,,,123.5062,123.7569,124.4562,"[0.14463601766938602,-0.08581991777010624]","[1,1,1]","[0.12274371005246823,0.052588689620724265]","[1,1,1]","[-0.11935544045764392,0.04760713553844014]","[1,1,1]","[0.07368722680865218,-0.0900221979440515]","[1,1,1]","[-0.026368372796451347,-0.0028508517978162577]","[-1,-1,-1]","[-0.02920470858488217,0.04642614156235613]","[1,1,1]","[-0.021458157531167678,-0.14547615136183797]","[1,1,1]","[0.13127195452620533,-0.017470584154872293]","[-1,-1,-1]","[-0.033940229041953936,-0.09765154514199759]","[1,1,1]","[-0.18315767865609503,0.009237382214920079]","[-1,-1,-1]","[0.04992525693530885,0.1630642758203797]","[1,1,1]","[0.08348960643489545,-0.13268425051233657]","[-1,-1,-1]","[0.023664676352505486,0.044521681523783614]","[-1,-1,-1]","[-0.12364960218193764,0.15467365984321554]","[1,1,1]","[-0.09280234300193206,-0.02369084207083966]","[-1,-1,-1]","[-0.008629033914219167,0.1135584198381933]","[-1,-1,-1]","[0.012835391389485133,-0.09046185165754964]","[1,1,1]","[0.023857996376133356,-0.17681082553142]","[-1,-1,-1]","[0.1839226077313476,-0.02868869443925697]","[-1,-1,-1]","[-0.11087805278145355,0.11568585154014771]","[1,1,1]","[-0.06107061055207342,0.09762999628592202]","[-1,-1,-1]","[0.08547592917844578,0.0020551057389724446]","[-1,-1,-1]","[-0.15582847470849331,0.1217654295815634]","[-1,-1,-1]","[-0.18802106861185613,-0.054744405054161144]","[1,1,1]","[0.16871939344237752,0.09511474756077284]","[1,1,1]","[0.04710654395975536,0.08396652502900077]","[-1,-1,-1]","[-0.024229309913125007,-0.1895762810753403]","[1,1,1]","[-0.09889007633690577,-0.14659021344314052]","[1,1,1]","[-0.08178839884685198,0.1770293127747599]","[1,1,1]","[-0.1390486666630002,-0.041674914160860416]","[1,1,1]","[-0.13175958140297486,-0.10038112748010314]","[1,1,1]","[-0.02590605624833691,0.1552985505858787]","[-1,-1,-1]","[0.02,0.02]",125.5365,0,13,13,125,1,,,,,,,
,,,,,,,5f3287b83428cb05746e2214,682db4925c65bd43ab683899,2025-05-21_13h13.21.735,cuing_paradigm_dot,2024.1.5,Win32,57.14285714,682d556593cb38ad0a074487,,,,,,,,,,,125.5385,126.0215,,,126.2568,127.1759,right,0.8967,,,,,,,,,0.55,,,,,,126.0215,126.2567,127.176,"[-0.08114586531430486,-0.035459989106085124]","[-1,-1,-1]","[-0.12172416677251462,0.07771507102196985]","[1,1,1]","[0.003871946372058436,-0.18882147181009146]","[-1,-1,-1]","[0.1343759340332363,0.05321772779616031]","[1,1,1]","[0.0769962389201569,0.14240168646198845]","[1,1,1]","[0.0403663516849193,0.008732374123423998]","[1,1,1]","[0.18379349424203423,-0.04886220797169826]","[1,1,1]","[-0.015282758329901927,-0.0464769099275757]","[1,1,1]","[0.050742182432778955,0.08911275374036785]","[1,1,1]","[-0.07341562642898224,0.029561754902897534]","[-1,-1,-1]","[-0.15740731643659642,-0.03400644365217352]","[1,1,1]","[-0.11879221307898766,-0.08891467566575037]","[-1,-1,-1]","[-0.01128886561130544,0.037110424462187486]","[-1,-1,-1]","[0.02811381913802217,0.16013935849436728]","[-1,-1,-1]","[0.05748232554590433,0.1905759996919422]","[-1,-1,-1]","[0.10446274369219166,-0.133275609139062]","[-1,-1,-1]","[0.1774591789015399,0.0070271933193374395]","[1,1,1]","[-0.0892011524227769,0.16403780241849947]","[1,1,1]","[0.08463597290790646,-0.0587863377779301]","[1,1,1]","[0.00023867245026036916,0.1269706630693294]","[1,1,1]","[0.06791072011629658,-0.15476278590226894]","[-1,-1,-1]","[-0.05371704058612117,0.0805651629825106]","[1,1,1]","[0.09212053430068197,-0.00754634121804357]","[1,1,1]","[-0.15637329704193964,0.02932439684019892]","[-1,-1,-1]","[0.031205782364063673,-0.13126599997704191]","[-1,-1,-1]","[-0.07281379833908012,-0.14877901899325707]","[1,1,1]","[0.06484953194414593,0.04262861377550493]","[1,1,1]","[0.1488576163538472,-0.09020324305206633]","[1,1,1]","[-0.016071807428078413,-0.09480988045814771]","[-1,-1,-1]","[-0.028603261480345518,-0.15365935802715097]","[-1,-1,-1]","[0.02338394610990855,-0.07553885810712951]","[-1,-1,-1]","[-0.002408477046453171,-0.004937207295481975]","[1,1,1]","[0.02,0.02]",128.2529,0,14,14,149,1,,,,,,,
,,,,,,,5f3287b83428cb05746e2214,682db4925c65bd43ab683899,2025-05-21_13h13.21.735,cuing_paradigm_dot,2024.1.5,Win32,57.14285714,682d556593cb38ad0a074487,,,,,,,,,,,128.2552,128.7577,,,129.0072,129.4935,left,0.4706,,,,,,,,,0.1,,,,,,128.7578,129.0069,129.4937,"[0.007768839159176948,-0.10145876856355872]","[-1,-1,-1]","[-0.07565858726011422,-0.16265727977337044]","[-1,-1,-1]","[0.09048470608454537,0.13485443377607328]","[-1,-1,-1]","[0.09499773030032393,-0.15577812826010068]","[-1,-1,-1]","[0.13010607209981598,-0.11694034871487105]","[-1,-1,-1]","[0.18970150344562117,-0.0296677456621902]","[-1,-1,-1]","[0.0735784011129398,-0.004210559718150423]","[-1,-1,-1]","[0.02711692110562889,-0.06260349955962831]","[-1,-1,-1]","[-0.10881031913150936,-0.13844412967853567]","[-1,-1,-1]","[-0.12059442344204989,0.07303081675244447]","[-1,-1,-1]","[-0.1653948763628035,-0.09576192879288961]","[-1,-1,-1]","[-0.020138490044060077,-0.04043007689420003]","[-1,-1,-1]","[0.15297134510633537,-0.07212109662223579]","[-1,-1,-1]","[0.1306582377906167,-0.024535670739076858]","[-1,-1,-1]","[0.09479055832677943,-0.049660496170154736]","[-1,-1,-1]","[-0.15169663118653806,0.02299792967574303]","[1,1,1]","[0.0029186998831124663,-0.18316626206466002]","[-1,-1,-1]","[-0.04149466509034226,-0.1898160865441198]","[-1,-1,-1]","[-0.05353942732844995,0.07330796856632173]","[-1,-1,-1]","[0.15894030175650414,0.03997562797298796]","[-1,-1,-1]","[0.06748977402271998,-0.1046452308240165]","[-1,-1,-1]","[-0.07761026924875825,0.10549823115626111]","[-1,-1,-1]","[0.013779722488668085,0.07244606613362767]","[1,1,1]","[-0.09552242598897219,-0.03736096345560305]","[-1,-1,-1]","[0.06391025001313527,0.07141311151297912]","[-1,-1,-1]","[-0.10921913668839796,0.007703410332232939]","[1,1,1]","[-0.048976688800948444,-0.0043374373946669445]","[-1,-1,-1]","[0.048514344553173015,0.15616540878409407]","[-1,-1,-1]","[-0.05497540064271902,0.16691363329338957]","[-1,-1,-1]","[0.008239552544956057,0.002168606639246185]","[-1,-1,-1]","[-0.14887547902394785,-0.033200921011584485]","[-1,-1,-1]","[-0.07069966994392934,-0.08137289277338478]","[-1,-1,-1]","[0.02,0.02]",130.5949,0,15,15,27,1,,,,,,,
,,,,,,,5f3287b83428cb05746e2214,682db4925c65bd43ab683899,2025-05-21_13h13.21.735,cuing_paradigm_dot,2024.1.5,Win32,57.14285714,682d556593cb38ad0a074487,,,,,,,,,,,130.5976,131.1042,,,131.3519,132.1421,left,0.7732,,,,,,,,,0.45,,,,,,131.1044,131.3518,132.1422,"[-0.19549003139071078,-0.01745518935502063]","[1,1,1]","[-0.020023639250335082,-0.05749556347822373]","[-1,-1,-1]","[-0.12394165568688187,-0.007537772229705396]","[-1,-1,-1]","[0.024048902892859447,0.0641753255919372]","[-1,-1,-1]","[0.1553995930960809,0.05283140461570778]","[-1,-1,-1]","[-0.017840872179684077,-0.00840356454782115]","[-1,-1,-1]","[-0.08524748356029299,0.17793959047953709]","[-1,-1,-1]","[0.14364627816684972,0.13336794046462477]","[1,1,1]","[-0.05445841309349378,-0.03651982323904744]","[1,1,1]","[-0.06371518634238103,0.0490685369652421]","[-1,-1,-1]","[0.059511449144990076,0.165516822295174]","[-1,-1,-1]","[0.041543346787615267,-0.04228439375332755]","[-1,-1,-1]","[0.11713327891493046,-0.14255728913757792]","[-1,-1,-1]","[-0.09678810921837164,-0.1405107965068419]","[-1,-1,-1]","[-0.004652660308556322,0.18644198421423713]","[-1,-1,-1]","[0.0715834313098518,-0.16948203843705978]","[1,1,1]","[-0.1291689766294328,-0.04822049035683381]","[1,1,1]","[-0.17087890316970983,-0.07385259852355183]","[-1,-1,-1]","[-0.1807848800074357,0.0360972524129574]","[1,1,1]","[-0.03638083222016998,-0.17398696253837162]","[-1,-1,-1]","[0.0013538919806270746,-0.1051185210821486]","[1,1,1]","[-0.023831867645440312,0.1435588412578373]","[-1,-1,-1]","[0.09821910819097025,0.040811600474287904]","[1,1,1]","[-0.017978957471135353,0.03817166141412916]","[1,1,1]","[0.0521942082730453,0.0928626858951538]","[1,1,1]","[0.15505172317088914,0.01207805315338209]","[1,1,1]","[0.1900412449310794,-0.012574381975976648]","[-1,-1,-1]","[-0.07219918197292988,0.1034878558461312]","[1,1,1]","[0.024758060107062614,0.1368403085405352]","[1,1,1]","[0.16042888275543,-0.1190414133529989]","[-1,-1,-1]","[0.10000267371225695,-0.034661576578023844]","[-1,-1,-1]","[-0.11494110773596201,0.13767053017404549]","[1,1,1]","[0.02,0.02]",133.2224,0,16,16,73,1,,,,,,,
,,,,,,,5f3287b83428cb05746e2214,682db4925c65bd43ab683899,2025-05-21_13h13.21.735,cuing_paradigm_dot,2024.1.5,Win32,57.14285714,682d556593cb38ad0a074487,,,,,,,,,,,133.2238,133.7177,,,133.9605,134.9405,right,0.9601,,,,,,,,,0.45,,,,,,133.7179,133.9603,134.9406,"[0.020053802814762926,-0.03651876641194498]","[-1,-1,-1]","[-0.14371041108179594,0.040767942282709885]","[-1,-1,-1]","[-0.08592547772537565,0.03227809569552198]","[1,1,1]","[0.013980478860905036,0.15207933517654085]","[1,1,1]","[0.1351502451340723,0.025201010380805917]","[1,1,1]","[-0.09931485208186457,-0.13302790840150247]","[1,1,1]","[0.18093040895704934,-0.015060220302871455]","[1,1,1]","[-0.03371540628822488,0.1948765955853876]","[-1,-1,-1]","[-0.13831753360004323,-0.06257370306489009]","[1,1,1]","[0.05224377755566816,0.07099847655080144]","[-1,-1,-1]","[0.03285565447792277,0.011370095720788643]","[-1,-1,-1]","[0.11374772422796467,-0.12322999914061224]","[1,1,1]","[-0.0019427171843257628,0.0779576698482022]","[-1,-1,-1]","[0.08967355774778726,0.00700122544852279]","[-1,-1,-1]","[-0.041179528440499366,-0.16339175623604998]","[-1,-1,-1]","[0.007755740177157179,0.19494666677238187]","[-1,-1,-1]","[-0.048178562505413004,-0.07050518988382298]","[-1,-1,-1]","[0.15916549638979702,-0.07250668189500535]","[-1,-1,-1]","[-0.1045462008734565,0.11328451522094657]","[1,1,1]","[-0.03660297420871735,0.1343008565538814]","[1,1,1]","[-0.19634315113056489,-0.003584279072419068]","[-1,-1,-1]","[0.16168339512701924,0.0815946296369255]","[1,1,1]","[-0.11058149878870889,-0.015596569292398303]","[-1,-1,-1]","[-0.04270084049177085,0.08837177087460969]","[-1,-1,-1]","[0.05406127054712024,-0.15908458344981238]","[-1,-1,-1]","[-0.010710344980365388,-0.12368863936524124]","[1,1,1]","[-0.16402456105675933,0.07659763209480301]","[1,1,1]","[-0.006033545888582636,-0.07695188135888976]","[1,1,1]","[0.09506109382019985,-0.06878128814997948]","[1,1,1]","[-0.06666744208788478,-0.019193110975207945]","[-1,-1,-1]","[-0.08776201316870015,0.17484935170547294]","[-1,-1,-1]","[0.08981098051078125,0.11127856804963548]","[-1,-1,-1]","[0.02,0.02]",136.0311,0,17,17,60,1,,,,,,,
,,,,,,,5f3287b83428cb05746e2214,682db4925c65bd43ab683899,2025-05-21_13h13.21.735,cuing_paradigm_dot,2024.1.5,Win32,57.14285714,682d556593cb38ad0a074487,,,,,,,,,,,136.0338,136.5244,,,136.7668,137.4392,right,0.6572,,,,,,,,,0.4,,,,,,136.5245,136.7666,137.4393,"[-0.10030099226223561,-0.07646734846365291]","[-1,-1,-1]","[0.012152655385814644,0.19665217808623237]","[-1,-1,-1]","[-0.08193156034688923,-0.17742896460194865]","[1,1,1]","[0.0734208903545318,-0.16342132462068962]","[1,1,1]","[0.1111065961616945,-0.0008602347587619666]","[-1,-1,-1]","[-0.005968295618305815,-0.16764890296817223]","[-1,-1,-1]","[-0.05131851933943409,0.01489668313339568]","[-1,-1,-1]","[-0.1525086316744636,0.10412848071480028]","[-1,-1,-1]","[-0.032110959635125794,0.06164044156116599]","[-1,-1,-1]","[0.020490987215790516,0.047817720864182206]","[-1,-1,-1]","[-0.04346407827719041,-0.12900780201750012]","[-1,-1,-1]","[-0.12258948042617326,0.14563960867425996]","[1,1,1]","[0.19282535628651754,-0.02770160921081046]","[1,1,1]","[0.1391306661351593,-0.1417640677760314]","[1,1,1]","[0.004935624605262482,-0.004843294117001997]","[1,1,1]","[0.03241873717663111,0.10782564298599537]","[1,1,1]","[0.13750270065154785,0.13134251479145775]","[-1,-1,-1]","[-0.11198585516095756,-0.12206050097784879]","[-1,-1,-1]","[0.13765925685423358,0.0807925173541369]","[-1,-1,-1]","[-0.08867464590937232,0.043613246181899316]","[1,1,1]","[-0.043658544256633854,0.12981522502253015]","[1,1,1]","[-0.13256722082751127,0.01426755170112703]","[1,1,1]","[-0.18748470506020068,-0.04363732244928681]","[-1,-1,-1]","[0.021545248435915668,-0.10054164670521704]","[-1,-1,-1]","[-0.0184323930434654,-0.04770287824685975]","[1,1,1]","[-0.10446918860575545,0.0954939816802826]","[1,1,1]","[-0.14631703478259275,0.060907432613299964]","[-1,-1,-1]","[0.056470877060012484,0.1776452325980165]","[-1,-1,-1]","[0.15857206424053294,0.007269888132832722]","[-1,-1,-1]","[0.0640879306210532,-0.11770254296863857]","[-1,-1,-1]","[0.1707488793818079,0.10337755843284083]","[1,1,1]","[0.08500407554985547,0.10933397163271454]","[-1,-1,-1]","[0.02,0.02]",138.5192,0,18,18,55,1,,,,,,,
,,,,,,,5f3287b83428cb05746e2214,682db4925c65bd43ab683899,2025-05-21_13h13.21.735,cuing_paradigm_dot,2024.1.5,Win32,57.14285714,682d556593cb38ad0a074487,,,,,,,,,,,138.5208,139.0161,,,139.2561,140.1019,right,0.8286,,,,,,,,,0.55,,,,,,139.0164,139.256,140.1021,"[-0.15545209807964486,0.12102966683200703]","[1,1,1]","[-0.18723751520987145,-0.015529290813577849]","[1,1,1]","[-0.10355028176612345,0.16232254311107763]","[-1,-1,-1]","[-0.1765864984765639,0.03225022788736687]","[1,1,1]","[0.13556692154669991,0.021773842892220806]","[-1,-1,-1]","[-0.08171323097573026,-0.08491020927746586]","[1,1,1]","[-0.0000825399296327193,-0.05326280046508321]","[-1,-1,-1]","[-0.14474328400568712,-0.011285967860888023]","[-1,-1,-1]","[-0.02046950413482223,0.06772793612753855]","[1,1,1]","[0.14261989083525722,-0.0923033370123767]","[-1,-1,-1]","[0.0004900011729282537,-0.19316121614064866]","[-1,-1,-1]","[0.15349698856716082,0.08468923532321702]","[-1,-1,-1]","[0.1832316498334822,-0.0006214059700475371]","[-1,-1,-1]","[-0.049817597873460205,0.13156240685468787]","[1,1,1]","[0.02575586767345833,0.006408415843072429]","[1,1,1]","[-0.03315297920673359,0.17409345410302998]","[1,1,1]","[-0.02042928968380474,-0.1529289134324315]","[1,1,1]","[0.09708894226247694,-0.1088163402981239]","[-1,-1,-1]","[-0.1290554159044194,-0.14951970809500864]","[1,1,1]","[-0.05822328665916414,-0.13761709921405915]","[1,1,1]","[0.049307799426720506,0.15915897702289722]","[1,1,1]","[-0.06833999484229059,0.044325355686341925]","[-1,-1,-1]","[0.06220533895737311,-0.0754131272700441]","[-1,-1,-1]","[0.061208149437078925,-0.032492009917282176]","[1,1,1]","[-0.09791403364162424,-0.014506866133643449]","[-1,-1,-1]","[-0.11501601592047285,0.04379483277342311]","[-1,-1,-1]","[0.09048235767435699,0.01983098903626739]","[1,1,1]","[-0.04384330129034087,-0.06385834642510467]","[1,1,1]","[0.006729905676672446,0.15314693498313833]","[1,1,1]","[0.11107164157451824,0.058158644747149435]","[-1,-1,-1]","[0.07431092051693657,0.07717160159108427]","[1,1,1]","[-0.0920470547049826,0.12089696343648303]","[1,1,1]","[0.02,0.02]",141.1989,0,19,19,133,1,,,,,,,
,,,,,,,5f3287b83428cb05746e2214,682db4925c65bd43ab683899,2025-05-21_13h13.21.735,cuing_paradigm_dot,2024.1.5,Win32,57.14285714,682d556593cb38ad0a074487,,,,,,,,,,,141.2003,141.7,,,141.942,142.6557,left,0.6934,,,,,,,,,0.5,,,,,,141.7003,141.942,142.656,"[-0.041697007227405304,-0.09066235826920056]","[-1,-1,-1]","[0.056460630792558864,0.038053110907823394]","[-1,-1,-1]","[0.0779932114355598,-0.15705295333527705]","[1,1,1]","[0.12532091220538827,0.04338190053274833]","[1,1,1]","[-0.14671790232614396,0.11272436218589284]","[-1,-1,-1]","[0.013390629441717766,-0.16368994070571172]","[1,1,1]","[0.14058431395564272,0.10555722193901704]","[1,1,1]","[0.09832908640128338,0.13529966672804022]","[1,1,1]","[-0.14058423671977002,0.04759858478049929]","[1,1,1]","[-0.08887690069019531,0.06703579214679009]","[1,1,1]","[0.03327681176112769,-0.044912971344111124]","[-1,-1,-1]","[0.1715475929216508,-0.05428001900438805]","[-1,-1,-1]","[-0.11443607303978964,-0.00343609571454353]","[-1,-1,-1]","[-0.11061857046863147,0.15586145337952512]","[-1,-1,-1]","[0.033419850574773424,0.16326149194226464]","[1,1,1]","[-0.1593803233988008,-0.055808071946969295]","[1,1,1]","[-0.12792242725029296,-0.09342410177837158]","[-1,-1,-1]","[-0.06855201506270373,0.11792598018954567]","[1,1,1]","[0.023864439461138684,-0.09181015182098297]","[-1,-1,-1]","[-0.025620909045531194,0.1612764298445707]","[-1,-1,-1]","[-0.04233073291057029,0.07626853381309362]","[1,1,1]","[-0.008640460460650777,-0.06232234439648896]","[1,1,1]","[0.030044780173934336,0.006251174719245687]","[-1,-1,-1]","[0.1137372015048775,-0.001857864978960131]","[-1,-1,-1]","[-0.18115096072948386,0.005143241176603519]","[1,1,1]","[0.004775165318060566,0.11439944854018247]","[-1,-1,-1]","[0.17921773316699324,-0.012210740130752564]","[1,1,1]","[-0.04725035835465218,-0.031066195584278762]","[-1,-1,-1]","[0.18455478846984386,0.03109045294666414]","[-1,-1,-1]","[0.11461382374134468,-0.04961615350077903]","[1,1,1]","[-0.07325014775443821,-0.15930701999587593]","[-1,-1,-1]","[0.08711725760585609,0.08876588726058597]","[1,1,1]","[0.02,0.02]",143.7484,0,20,20,114,1,,,,,,,
,,,,,,,5f3287b83428cb05746e2214,682db4925c65bd43ab683899,2025-05-21_13h13.21.735,cuing_paradigm_dot,2024.1.5,Win32,57.14285714,682d556593cb38ad0a074487,,,,,,,,,,,143.7501,144.246,,,144.4893,144.8837,right,0.3771,,,,,,,,,0.9,,,,,,144.246,144.4892,144.8838,"[-0.08620881619525123,0.1208969742809557]","[1,1,1]","[-0.11384349770521225,-0.0635437975554263]","[-1,-1,-1]","[-0.05775789293930617,-0.07567181927407564]","[1,1,1]","[-0.10631673376703867,-0.12849987904730045]","[-1,-1,-1]","[0.039250057346101146,0.17337999565539863]","[1,1,1]","[0.10872359931480112,-0.14451883339008345]","[1,1,1]","[0.09242731602873754,0.031400423280361384]","[1,1,1]","[0.035263600145806415,-0.06370192508071736]","[1,1,1]","[-0.0028742434162345354,-0.11812665176476496]","[1,1,1]","[0.04660313790440124,0.013975855706640554]","[1,1,1]","[0.14187743844064565,-0.02530887502255294]","[1,1,1]","[0.18291754609110117,0.03693444654236833]","[1,1,1]","[-0.19218714985936397,-0.04808859044421354]","[1,1,1]","[-0.08209457574091582,0.1805975662951119]","[1,1,1]","[-0.11176057062282353,-0.01051220978753545]","[1,1,1]","[-0.1369253559445788,-0.09902981878267897]","[-1,-1,-1]","[0.16046286545272254,-0.07754747843909619]","[1,1,1]","[-0.05095461328005097,-0.021446830804284684]","[1,1,1]","[0.10572061800376549,-0.10072110922065677]","[1,1,1]","[-0.003761059438119539,0.14400067426288451]","[1,1,1]","[-0.01919258574225835,0.1812892905389305]","[1,1,1]","[-0.010018620048541801,0.08886051211772658]","[1,1,1]","[-0.053359804301338014,-0.1264498650958452]","[1,1,1]","[0.07458329647444539,-0.05264160262574586]","[1,1,1]","[0.041341291402103506,-0.1118828223612839]","[1,1,1]","[0.10887372018586636,0.09106691933128926]","[1,1,1]","[-0.04626966503625458,0.025533968025407087]","[1,1,1]","[0.14424847013441164,0.06977849540883498]","[1,1,1]","[0.03712911435326763,-0.16590465813516822]","[1,1,1]","[-0.1007772531651627,0.06076067471887692]","[1,1,1]","[-0.15485694522831253,-0.012467069533057167]","[1,1,1]","[-0.0064018146345086535,-0.07751498740916353]","[1,1,1]","[0.02,0.02]",145.9796,0,21,21,202,1,,,,,,,
,,,,,,,5f3287b83428cb05746e2214,682db4925c65bd43ab683899,2025-05-21_13h13.21.735,cuing_paradigm_dot,2024.1.5,Win32,57.14285714,682d556593cb38ad0a074487,,,,,,,,,,,145.9837,146.4724,,,146.7201,147.1056,right,0.3684,,,,,,,,,0.9,,,,,,146.4724,146.7201,147.1056,"[-0.043936700277464706,0.06075236019746255]","[1,1,1]","[0.09260435473602617,-0.0017949264301804666]","[1,1,1]","[0.11454169963259059,0.08934345107122221]","[1,1,1]","[-0.046797955851228173,-0.1683970380277429]","[1,1,1]","[0.16462980821881476,-0.11073264941032968]","[1,1,1]","[-0.014807606388262685,0.007376399317199672]","[1,1,1]","[0.11435257244900443,0.134364790207208]","[1,1,1]","[0.18148920620194667,-0.03000569620277763]","[1,1,1]","[-0.0841513090747074,0.08347622525816016]","[1,1,1]","[-0.11925817589954964,-0.05234658650153945]","[-1,-1,-1]","[-0.15431199057843686,0.043184252558459646]","[1,1,1]","[-0.08611341241082571,0.17801936112922112]","[1,1,1]","[0.044982455330534805,0.05283099699321949]","[1,1,1]","[-0.14976896943236126,0.09039063202282217]","[1,1,1]","[-0.09817679078904097,0.03344236516076891]","[1,1,1]","[-0.08408479476532543,0.13540145498028391]","[1,1,1]","[0.005731768925515357,-0.14308287523000618]","[1,1,1]","[0.060857896900139374,0.17066213873584024]","[-1,-1,-1]","[0.021153181200627345,-0.0858660897981191]","[1,1,1]","[0.1762278598691469,0.0851980005790935]","[1,1,1]","[-0.06600788463011904,-0.08916316076249231]","[1,1,1]","[0.13935709080969733,0.04535304593945232]","[1,1,1]","[-0.09074590495124991,-0.0082835490640037]","[1,1,1]","[0.11537676742177007,-0.13014582855548057]","[-1,-1,-1]","[0.01172125058684468,0.11813745866515565]","[1,1,1]","[-0.19455388600373996,0.03144191496686319]","[1,1,1]","[0.09585085316005555,-0.04406922156358823]","[1,1,1]","[0.07611149923426448,0.12184765111016753]","[1,1,1]","[0.03749371121987504,-0.005745042060987927]","[1,1,1]","[-0.1289261320938969,0.15272131240702516]","[1,1,1]","[0.05599620547112361,-0.1623867132516808]","[1,1,1]","[-0.19564396185715796,-0.028046682419779374]","[1,1,1]","[0.02,0.02]",148.2126,0,22,22,201,1,,,,,,,
,,,,,,,5f3287b83428cb05746e2214,682db4925c65bd43ab683899,2025-05-21_13h13.21.735,cuing_paradigm_dot,2024.1.5,Win32,57.14285714,682d556593cb38ad0a074487,,,,,,,,,,,148.2165,148.7151,,,148.9671,149.5228,left,0.5368,,,,,,,,,0.45,,,,,,148.7152,148.967,149.523,"[-0.08078480496548876,0.15180620718930044]","[-1,-1,-1]","[-0.1127823668213742,-0.11676569625471234]","[1,1,1]","[-0.025014590344247006,-0.004834730181120029]","[-1,-1,-1]","[-0.006442848615052054,-0.16678802471820592]","[1,1,1]","[-0.09730104183569056,0.026004189486194654]","[-1,-1,-1]","[-0.18447777669790885,0.06594767697699622]","[1,1,1]","[-0.025943082576282077,0.07700956089503688]","[1,1,1]","[-0.09555761592112748,0.10965075550705082]","[1,1,1]","[0.03050366754204288,0.16193657520877558]","[1,1,1]","[0.12072625439264072,-0.14839776440357694]","[-1,-1,-1]","[-0.13461604785624967,0.06969553410243196]","[1,1,1]","[-0.1677385490192404,0.005845341830201305]","[-1,-1,-1]","[0.061400140381934684,-0.0876826419149269]","[-1,-1,-1]","[0.1710076692526232,-0.005977205228110412]","[1,1,1]","[-0.0311611412483905,0.1360402958571919]","[1,1,1]","[0.01809515427514725,0.08947061685912053]","[-1,-1,-1]","[-0.12282585136248775,0.15111321995599455]","[1,1,1]","[0.04649324649952729,-0.18948565798653996]","[-1,-1,-1]","[0.16247092565377144,0.08523227467638037]","[1,1,1]","[0.062253316576681685,0.05322254736053343]","[-1,-1,-1]","[-0.03856633717310091,-0.11492416600736717]","[-1,-1,-1]","[0.07546191812049226,-0.1481057948881555]","[-1,-1,-1]","[0.06179798441066849,-0.03586875824377519]","[-1,-1,-1]","[0.11918951053696403,0.152555454018491]","[1,1,1]","[0.06000841979670918,0.12681449908908388]","[-1,-1,-1]","[0.14046405519762112,0.04899903410390523]","[1,1,1]","[-0.08839036175021346,-0.16641734071946299]","[-1,-1,-1]","[0.12506591573260412,-0.014563999340075021]","[-1,-1,-1]","[-0.06901886723436172,0.0565987071946984]","[-1,-1,-1]","[-0.12625174359480174,-0.015440882405650832]","[1,1,1]","[-0.09403347517242151,-0.05964689403384437]","[-1,-1,-1]","[0.01767408067231478,-0.0656103990120099]","[-1,-1,-1]","[0.02,0.02]",150.6113,0,23,23,61,1,,,,,,,
,,,,,,,5f3287b83428cb05746e2214,682db4925c65bd43ab683899,2025-05-21_13h13.21.735,cuing_paradigm_dot,2024.1.5,Win32,57.14285714,682d556593cb38ad0a074487,,,,,,,,,,,150.6153,151.1166,,,151.3683,151.8522,right,0.4668,,,,,,,,,0.6,,,,,,151.1167,151.3682,151.8523,"[0.14593600677729227,-0.05180105600756676]","[1,1,1]","[-0.014198008187283897,0.014327923066379216]","[1,1,1]","[-0.03685648544227531,-0.19622709927772294]","[1,1,1]","[0.0716083157899468,0.0686742943679229]","[-1,-1,-1]","[-0.09447641537437648,-0.06955384279186126]","[-1,-1,-1]","[0.09298289375481913,-0.011360157634743753]","[1,1,1]","[-0.10506638936195437,-0.15883370069266037]","[-1,-1,-1]","[-0.13625046313723743,-0.006097719202818651]","[1,1,1]","[0.03236510131718045,-0.17196269598276487]","[1,1,1]","[0.05354689322337542,-0.09037488973806264]","[-1,-1,-1]","[0.09594938625844396,0.14824182545584233]","[1,1,1]","[0.060516137874160277,0.02625203929808379]","[-1,-1,-1]","[0.08558060212312828,-0.11811417692587875]","[1,1,1]","[0.14819083096419736,0.12281802997481792]","[1,1,1]","[-0.04675575418450428,0.11209459736864405]","[1,1,1]","[-0.14485586161737024,0.0558381253028317]","[1,1,1]","[-0.13076358580936348,0.11321668015902223]","[-1,-1,-1]","[0.19671222890677037,-0.02030539532987329]","[-1,-1,-1]","[0.1422298141965554,-0.12189692877428593]","[1,1,1]","[0.05034289840976599,-0.04343252062252682]","[1,1,1]","[-0.0882460841753412,-0.11602002949584937]","[-1,-1,-1]","[0.020774016584292423,0.19794590441673698]","[1,1,1]","[0.18344089631872806,-0.07374203355817886]","[-1,-1,-1]","[0.12471160157734372,0.03332151878752671]","[-1,-1,-1]","[-0.03422600044501983,-0.12772759949415236]","[-1,-1,-1]","[-0.1858410814265896,-0.06390492652110324]","[-1,-1,-1]","[0.023273268487677475,0.13185841121789144]","[-1,-1,-1]","[0.1488490239226073,-0.008824013620988613]","[1,1,1]","[-0.057577661167117565,-0.08781964768362753]","[1,1,1]","[-0.012330742158274828,0.1587723609840264]","[1,1,1]","[-0.0332480786356181,-0.032222157248481216]","[1,1,1]","[0.003551027203748678,0.09594233471803489]","[1,1,1]","[0.02,0.02]",152.9568,0,24,24,168,1,,,,,,,
,,,,,,,5f3287b83428cb05746e2214,682db4925c65bd43ab683899,2025-05-21_13h13.21.735,cuing_paradigm_dot,2024.1.5,Win32,57.14285714,682d556593cb38ad0a074487,,,,,,,,,,,152.9588,153.452,,,153.6979,154.2152,left,0.4993,,,,,,,,,0.1,,,,,,153.4521,153.6978,154.2152,"[-0.0935013776404827,-0.17283440956132318]","[-1,-1,-1]","[-0.14878237359043398,0.09543599389971089]","[1,1,1]","[0.06744631106023244,-0.11724877111121994]","[-1,-1,-1]","[0.10716763304769997,-0.10095877543331226]","[-1,-1,-1]","[0.061514227974477254,-0.04984765189635065]","[1,1,1]","[-0.14323053328625968,0.02141412172843068]","[-1,-1,-1]","[0.0621615667526323,0.1166609951305502]","[-1,-1,-1]","[-0.0011242779672985819,0.11216901186366476]","[-1,-1,-1]","[0.1724365501837139,-0.053771913487098026]","[-1,-1,-1]","[-0.03118787047485689,-0.05571390758235261]","[-1,-1,-1]","[-0.13201954067033436,-0.05103039473846796]","[-1,-1,-1]","[-0.024044035003978222,0.021865154556813225]","[-1,-1,-1]","[0.1371112065337962,0.10549960639805243]","[-1,-1,-1]","[-0.008239539308561675,-0.1594223618892433]","[-1,-1,-1]","[-0.10516701204938812,0.13844235698338464]","[-1,-1,-1]","[0.15440289079064404,-0.09448788320420307]","[-1,-1,-1]","[-0.19326927416557688,0.04955187846974834]","[-1,-1,-1]","[0.04140165662172429,0.02471950454997902]","[-1,-1,-1]","[0.11045577929500631,-0.04543960672974585]","[-1,-1,-1]","[-0.038116477338677804,0.061138681325460034]","[-1,-1,-1]","[-0.11102261719476501,-0.13333051560904483]","[-1,-1,-1]","[0.04842089310772489,-0.1918576682486748]","[-1,-1,-1]","[0.16943747261401687,0.07390865131598154]","[-1,-1,-1]","[0.10396057606149905,0.037648785209683754]","[-1,-1,-1]","[-0.08713249307502584,0.062334891640009535]","[-1,-1,-1]","[0.08955390086531027,-0.17362779776668258]","[-1,-1,-1]","[-0.08162291134914,-0.022704027694977574]","[-1,-1,-1]","[-0.01532849582277248,0.19869469545025284]","[-1,-1,-1]","[0.14525125487063417,-0.13518683975848553]","[1,1,1]","[-0.1897972289625209,-0.03884023424982778]","[-1,-1,-1]","[0.027398574964733184,0.1690865355066863]","[-1,-1,-1]","[0.1222517410884524,0.15407242811984262]","[-1,-1,-1]","[0.02,0.02]",155.3032,0,25,25,1,1,,,,,,,
,,,,,,,5f3287b83428cb05746e2214,682db4925c65bd43ab683899,2025-05-21_13h13.21.735,cuing_paradigm_dot,2024.1.5,Win32,57.14285714,682d556593cb38ad0a074487,,,,,,,,,,,155.3048,155.8032,,,156.0348,156.6163,right,0.5647,,,,,,,,,0.55,,,,,,155.8034,156.0347,156.6163,"[-0.10683869244994898,0.019998021218019614]","[1,1,1]","[0.10688643859904012,-0.16787785833613278]","[-1,-1,-1]","[0.1540333357758905,0.10173946021707052]","[1,1,1]","[-0.030175322915469253,-0.03274882769627999]","[1,1,1]","[-0.1569656275962811,-0.024873727402242907]","[1,1,1]","[0.05523968844340928,-0.0882986288101945]","[-1,-1,-1]","[0.004641732185647199,0.13581206469987867]","[1,1,1]","[0.012614611852241745,0.05482233970120684]","[-1,-1,-1]","[-0.06675814314428301,-0.05881796638317522]","[1,1,1]","[0.13453953820255377,-0.05364013237725038]","[-1,-1,-1]","[-0.1589026308938626,-0.11039921645445187]","[1,1,1]","[0.1960353902072946,-0.008964502298934623]","[1,1,1]","[0.0920882191815203,0.06699254385492684]","[-1,-1,-1]","[-0.03673829885556964,0.17856694956911448]","[1,1,1]","[-0.03507873032137803,0.11906226423739401]","[-1,-1,-1]","[-0.03926649354677649,-0.0952175595574051]","[1,1,1]","[0.11921929287567898,-0.106539161972475]","[1,1,1]","[0.0037162574254316657,0.01322864910178772]","[-1,-1,-1]","[0.09272029721316527,0.02219497601738756]","[1,1,1]","[0.18420590115730454,-0.05129285587114719]","[-1,-1,-1]","[-0.1560917268576578,0.018142633569579184]","[1,1,1]","[-0.1259205380817255,-0.08431127106373909]","[1,1,1]","[-0.054202117705858664,0.06488536654993554]","[-1,-1,-1]","[0.04610335151562837,0.16929572909123652]","[-1,-1,-1]","[-0.16202117594163393,0.11485986688863643]","[1,1,1]","[0.10994439117700079,0.1566227322466857]","[1,1,1]","[-0.07504899768770497,0.1027927747537302]","[-1,-1,-1]","[0.03240202437431544,-0.19444174135759973]","[-1,-1,-1]","[-0.06236755509191392,0.01950479544096085]","[-1,-1,-1]","[-0.11048607612123228,0.0702476076420816]","[1,1,1]","[0.15817111409120707,0.02936670615694419]","[-1,-1,-1]","[0.05196764608103389,-0.025544941805365123]","[1,1,1]","[0.02,0.02]",157.7057,0,26,26,128,1,,,,,,,
,,,,,,,5f3287b83428cb05746e2214,682db4925c65bd43ab683899,2025-05-21_13h13.21.735,cuing_paradigm_dot,2024.1.5,Win32,57.14285714,682d556593cb38ad0a074487,,,,,,,,,,,157.7069,158.1993,,,158.4547,158.8684,right,0.3986,,,,,,,,,0.1,,,,,,158.1994,158.4546,158.8684,"[-0.04324678182740438,0.11410889922788658]","[-1,-1,-1]","[0.10585024397789206,0.09290695864858768]","[-1,-1,-1]","[-0.08136483397662105,0.030849419812336295]","[-1,-1,-1]","[0.031647543561905356,-0.1307013966772252]","[-1,-1,-1]","[0.0002810342805440331,0.1529819306495168]","[-1,-1,-1]","[-0.08875844086299511,-0.14964387703354892]","[1,1,1]","[-0.12616759906815,-0.1162648846386034]","[-1,-1,-1]","[-0.032815416605512335,0.18293636533776228]","[-1,-1,-1]","[-0.10924233629747666,-0.03004489912002364]","[-1,-1,-1]","[0.03467127411046529,-0.059282399783228266]","[-1,-1,-1]","[-0.18014539469477536,-0.00362987999422447]","[1,1,1]","[-0.03586417262064165,0.04386714588500921]","[-1,-1,-1]","[-0.020478275584588004,-0.04059442049901536]","[-1,-1,-1]","[0.04435655661891641,0.06509878744423744]","[-1,-1,-1]","[0.1587615184573705,0.11361209567391445]","[-1,-1,-1]","[-0.14180827621618602,0.044438412545446254]","[-1,-1,-1]","[0.09427886799643258,-0.07959391854745454]","[-1,-1,-1]","[0.14515634681996337,0.0322439617652008]","[-1,-1,-1]","[0.016026515720226047,-0.01744539927993781]","[-1,-1,-1]","[0.02489595566283736,-0.1951056256047354]","[-1,-1,-1]","[0.14790009276265223,-0.07346033412495033]","[-1,-1,-1]","[-0.05612600433034639,-0.0028979276250872005]","[-1,-1,-1]","[-0.18441920670557976,-0.06191542002620634]","[-1,-1,-1]","[0.1019631743902359,-0.1710780969180819]","[1,1,1]","[0.11175747043012882,-0.03531032519834852]","[-1,-1,-1]","[0.013825216996813706,0.19192069217846972]","[-1,-1,-1]","[0.05970843524414453,0.16391543271994638]","[-1,-1,-1]","[-0.043869829576473694,-0.08993800333111196]","[-1,-1,-1]","[0.15347098595756298,-0.11925791408723815]","[-1,-1,-1]","[-0.12042619937871314,0.11727557183289126]","[-1,-1,-1]","[0.19074990767918684,0.052146199112551764]","[-1,-1,-1]","[0.03379180350705149,0.10644495239157598]","[-1,-1,-1]","[0.02,0.02]",159.9742,0,27,27,10,1,,,,,,,
,,,,,,,5f3287b83428cb05746e2214,682db4925c65bd43ab683899,2025-05-21_13h13.21.735,cuing_paradigm_dot,2024.1.5,Win32,57.14285714,682d556593cb38ad0a074487,,,,,,,,,,,159.9754,160.4661,,,160.7161,161.7681,right,1.0249,,,,,,,,,0.55,,,,,,160.4662,160.716,161.7682,"[0.06775639802131175,0.10066666679221117]","[1,1,1]","[0.013729845044886741,-0.07077084557246287]","[1,1,1]","[0.0013991634965037692,-0.19305411214446788]","[1,1,1]","[-0.005323399730290451,-0.03283727756287204]","[1,1,1]","[-0.15406902788413948,-0.021575931471867288]","[-1,-1,-1]","[-0.11605093122377588,-0.12179337217047632]","[1,1,1]","[0.037443118283045654,-0.016153402238951304]","[1,1,1]","[-0.08509829512734168,-0.029392999307576214]","[-1,-1,-1]","[-0.04943862550941186,0.07748764430637661]","[-1,-1,-1]","[0.04467201996106307,0.1934884784933936]","[1,1,1]","[0.17071818049921764,0.09061932106104313]","[-1,-1,-1]","[-0.19029665472238763,-0.04161273289321181]","[-1,-1,-1]","[0.07784753537485475,-0.011998051294800891]","[1,1,1]","[0.1591995007173495,-0.024270729127738814]","[1,1,1]","[-0.16459198084105714,0.026698857652574008]","[1,1,1]","[-0.15708957209552377,0.09097722205867748]","[1,1,1]","[-0.045402308376782136,0.15910399476464074]","[-1,-1,-1]","[-0.07704075209662282,0.028795563265787298]","[1,1,1]","[0.016451159674991427,0.08682929378573946]","[-1,-1,-1]","[-0.04804467106601044,-0.17207748007083187]","[-1,-1,-1]","[-0.1171651178342627,0.1535904524103649]","[-1,-1,-1]","[0.14566918924238267,0.05696226408033511]","[-1,-1,-1]","[0.05078273122337169,0.04130855702007657]","[-1,-1,-1]","[-0.07349554790390936,-0.13259958487514492]","[1,1,1]","[0.08591481129930507,-0.10536825965022273]","[-1,-1,-1]","[0.12116520967682694,-0.14350808079627347]","[1,1,1]","[-0.07163563193650191,0.11717755859242689]","[-1,-1,-1]","[0.15325169724375684,0.12730100215318169]","[1,1,1]","[-0.005378055649577726,0.037286022335318914]","[-1,-1,-1]","[0.05924200288197199,-0.051050774090503945]","[1,1,1]","[-0.1514657713905358,-0.0912145717318723]","[1,1,1]","[0.03449327488912472,-0.12259919522165383]","[1,1,1]","[0.02,0.02]",162.8633,0,28,28,141,1,,,,,,,
,,,,,,,5f3287b83428cb05746e2214,682db4925c65bd43ab683899,2025-05-21_13h13.21.735,cuing_paradigm_dot,2024.1.5,Win32,57.14285714,682d556593cb38ad0a074487,,,,,,,,,,,162.8648,163.359,,,163.602,164.5743,left,0.9565,,,,,,,,,0.4,,,,,,163.359,163.6018,164.5743,"[0.07075700104346973,0.10621200579552087]","[-1,-1,-1]","[-0.13930838657606007,0.0952138032174]","[-1,-1,-1]","[-0.08711339145613488,-0.056554471735020706]","[1,1,1]","[-0.12541424054216768,-0.025891396600759457]","[-1,-1,-1]","[-0.1693292817222851,-0.011988883173357754]","[1,1,1]","[0.02675436712891523,0.09630440515663455]","[-1,-1,-1]","[-0.03238394795866413,-0.023711619494864257]","[-1,-1,-1]","[0.03897824354622389,-0.06711456524433917]","[-1,-1,-1]","[-0.07442790445282708,-0.1525104135654743]","[-1,-1,-1]","[-0.0596371337741233,0.021318668350340766]","[-1,-1,-1]","[0.04518868961677917,0.0372088478007964]","[1,1,1]","[0.02315987036186523,-0.1272204485787993]","[1,1,1]","[-0.050211395054758676,0.11296662316085884]","[-1,-1,-1]","[0.12359078022305042,0.1382965623182462]","[-1,-1,-1]","[0.11150685743049234,0.03089249262388379]","[-1,-1,-1]","[-0.13060647713332932,-0.08007036614115871]","[1,1,1]","[-0.015701052472361168,0.07765493307894326]","[-1,-1,-1]","[0.05370432297901711,0.17589938417583093]","[1,1,1]","[0.09730196483267317,-0.15076903210093634]","[1,1,1]","[0.02481200921967583,-0.18555631122843133]","[-1,-1,-1]","[0.11211981902101537,0.08863848274710454]","[1,1,1]","[-0.1048766106017706,0.13136883753033735]","[1,1,1]","[-0.1263320614019523,0.034547898924375126]","[1,1,1]","[0.15298516273348925,0.0911272655344255]","[-1,-1,-1]","[0.06691955627197517,-0.12111649572959715]","[-1,-1,-1]","[0.009443857123387652,0.19749122928135424]","[-1,-1,-1]","[-0.03958958470244124,0.17080252586914116]","[-1,-1,-1]","[-0.06746303470236353,-0.09855606488245743]","[1,1,1]","[-0.12549847457236074,-0.14002978305218478]","[-1,-1,-1]","[0.17053641040580086,-0.04178270636327147]","[1,1,1]","[0.029313900191491334,-0.019257464215510434]","[1,1,1]","[0.08503944051009783,-0.06139425312559182]","[-1,-1,-1]","[0.02,0.02]",165.6693,0,29,29,33,1,,,,,,,
,,,,,,,5f3287b83428cb05746e2214,682db4925c65bd43ab683899,2025-05-21_13h13.21.735,cuing_paradigm_dot,2024.1.5,Win32,57.14285714,682d556593cb38ad0a074487,,,,,,,,,,,165.671,166.1723,,,166.4149,167.3479,right,0.916,,,,,,,,,0.5,,,,,,166.1726,166.4148,167.3481,"[0.0893426315426533,-0.14415375416368337]","[1,1,1]","[-0.13601062894906457,0.012065672923401596]","[-1,-1,-1]","[0.022535899451591845,-0.17285889216807532]","[1,1,1]","[-0.06027693387419371,0.1780687453769133]","[-1,-1,-1]","[0.15604274441054147,0.09414503609465724]","[1,1,1]","[0.16846800026473205,0.018183924991310066]","[-1,-1,-1]","[-0.08309054645924963,0.06724247392192607]","[1,1,1]","[-0.1047162184054919,-0.14177935960837348]","[1,1,1]","[0.11128714705973376,0.06891076245546576]","[-1,-1,-1]","[-0.040209010341860356,0.07816387573299007]","[1,1,1]","[0.013070511553923891,0.12882056245689072]","[1,1,1]","[-0.017652686324006756,-0.047709318981603105]","[-1,-1,-1]","[-0.038809463653562436,-0.09761493815535181]","[-1,-1,-1]","[0.0274214051281746,-0.07851501880641669]","[1,1,1]","[-0.17136675014329975,0.06138371436186018]","[-1,-1,-1]","[-0.01735803935684775,-0.15959364070134346]","[-1,-1,-1]","[0.13793958793654504,-0.12397944608744135]","[1,1,1]","[-0.16283115285553745,-0.03821055971621159]","[-1,-1,-1]","[-0.10324040033853192,-0.09275824719377146]","[-1,-1,-1]","[-0.06760064000258577,-0.17042467696767866]","[1,1,1]","[0.04436831323575711,0.0333194452632917]","[1,1,1]","[-0.1483435043175757,-0.12255409520562117]","[-1,-1,-1]","[-0.12017315931290519,-0.03244528907155206]","[-1,-1,-1]","[-0.058633173087027826,0.032762608926997054]","[1,1,1]","[-0.017606258694115782,0.03793261506567743]","[1,1,1]","[-0.09825534855373294,0.13895738966873442]","[1,1,1]","[0.03525408446089263,-0.024169105999633605]","[-1,-1,-1]","[0.0987932992011093,-0.02878267585929035]","[-1,-1,-1]","[0.11049101626343372,0.01619376541257548]","[-1,-1,-1]","[0.06178742279044011,0.08882425391931585]","[1,1,1]","[0.056848983041160685,0.1617455896860875]","[-1,-1,-1]","[-0.12366753553413022,0.08992698061573176]","[1,1,1]","[0.02,0.02]",168.4418,0,30,30,116,1,,,,,,,
,,,,,,,5f3287b83428cb05746e2214,682db4925c65bd43ab683899,2025-05-21_13h13.21.735,cuing_paradigm_dot,2024.1.5,Win32,57.14285714,682d556593cb38ad0a074487,,,,,,,,,,,168.4457,168.9331,,,169.1818,170.4376,left,1.2378,,,,,,,,,0.45,,,,,,168.9332,169.1817,170.4377,"[0.11383268516921267,-0.15424674873989636]","[1,1,1]","[0.11024234887511054,0.04038394995607013]","[-1,-1,-1]","[-0.15849313983440033,-0.11205938781135645]","[1,1,1]","[-0.0411136709060731,0.04137478609613359]","[-1,-1,-1]","[0.09752251984895702,-0.026555936232351786]","[1,1,1]","[-0.03575797445074242,-0.1340708122291802]","[1,1,1]","[-0.00021940391278172015,0.10053269751055886]","[1,1,1]","[0.18099255317079038,-0.08149788962474747]","[1,1,1]","[-0.09622384459105401,0.16924959209033916]","[1,1,1]","[0.05748274638841124,0.03685070562935123]","[-1,-1,-1]","[-0.13869787243181164,0.1394045873553841]","[-1,-1,-1]","[-0.022401096759270343,-0.052154414083045275]","[-1,-1,-1]","[0.01831012663175549,0.17256769035119593]","[-1,-1,-1]","[-0.1134590250634998,0.088421037752379]","[1,1,1]","[-0.037263602233726136,0.0006285830478546883]","[-1,-1,-1]","[0.01239615978849404,-0.08071283226168936]","[-1,-1,-1]","[-0.179880128897159,0.0051583809029009655]","[-1,-1,-1]","[-0.1561499483439046,0.09524053866421037]","[-1,-1,-1]","[0.12798478218272852,-0.0856837373499134]","[-1,-1,-1]","[-0.15593042797312998,-0.052432490881411206]","[1,1,1]","[0.05867671342266302,-0.09359195216813186]","[-1,-1,-1]","[0.159898382409909,0.023467666841620625]","[-1,-1,-1]","[-0.08370254655347963,-0.16902912049747526]","[1,1,1]","[-0.04760850128257838,0.08366943430393468]","[-1,-1,-1]","[0.14335087368144825,0.07450334400804479]","[1,1,1]","[-0.11110416338807959,-0.06530388543176925]","[1,1,1]","[-0.04741627262577257,0.14444327741947016]","[-1,-1,-1]","[0.09851174827038536,0.16429666824896402]","[1,1,1]","[0.1810958507593539,-0.01595930072184815]","[1,1,1]","[-0.11210599389402373,-0.11131857445161208]","[-1,-1,-1]","[0.028776958538862387,-0.18836609084148298]","[-1,-1,-1]","[-0.011969918773442171,-0.17281385363292875]","[-1,-1,-1]","[0.02,0.02]",171.5242,0,31,31,83,1,,,,,,,
,,,,,,,5f3287b83428cb05746e2214,682db4925c65bd43ab683899,2025-05-21_13h13.21.735,cuing_paradigm_dot,2024.1.5,Win32,57.14285714,682d556593cb38ad0a074487,,,,,,,,,,,171.5272,172.0248,,,172.2812,172.9348,right,0.6381,,,,,,,,,0.5,,,,,,172.0271,172.281,172.9349,"[-0.07119184296077832,0.0907384604938408]","[-1,-1,-1]","[-0.13420455250297908,-0.06795230052854702]","[-1,-1,-1]","[0.05376350403300637,0.00022130315316201094]","[1,1,1]","[-0.03407739007282074,-0.07596534575164546]","[1,1,1]","[0.06196477911831167,0.06401760509909826]","[-1,-1,-1]","[-0.10394430425497758,0.1473335250703977]","[1,1,1]","[-0.07457274700819475,0.17914505273149584]","[1,1,1]","[-0.185540405449539,0.0041131508612623135]","[-1,-1,-1]","[-0.10395891059883834,-0.15129279059799725]","[-1,-1,-1]","[-0.005018725466198031,-0.15334563691326827]","[1,1,1]","[0.06632931047220507,0.10481714290820475]","[-1,-1,-1]","[0.14856645965692944,0.029664477392051528]","[-1,-1,-1]","[0.06699757431223223,-0.15779250797293518]","[1,1,1]","[0.02707812260637901,-0.19057874444720574]","[-1,-1,-1]","[-0.14534676671184982,-0.12102064417911636]","[1,1,1]","[-0.016692214512947556,-0.008286533986208747]","[1,1,1]","[0.01241360155301133,0.07191025948010742]","[1,1,1]","[0.18941397088741815,0.03877365072903161]","[1,1,1]","[-0.08952021579750637,0.01677473122199271]","[-1,-1,-1]","[0.10334999468260765,-0.1302943243773151]","[1,1,1]","[0.10625180584814749,0.14354881943333933]","[-1,-1,-1]","[0.03454378777607516,-0.03559565581452353]","[-1,-1,-1]","[0.03172642853503796,0.17067310502515484]","[1,1,1]","[-0.10013898565909708,-0.03706996053391056]","[-1,-1,-1]","[-0.0622982888275559,-0.16623345981296675]","[-1,-1,-1]","[0.021088884556980214,0.025224298712843107]","[1,1,1]","[0.1425587382837709,-0.022886828173029363]","[1,1,1]","[0.08910701424816433,-0.051255312938247546]","[1,1,1]","[0.1484636018323629,-0.07029404461742006]","[-1,-1,-1]","[0.0962357829539406,0.00026438562607209473]","[1,1,1]","[0.19879463093041777,-0.003653063805100974]","[-1,-1,-1]","[-0.1383766938567963,-0.023683113439123084]","[-1,-1,-1]","[0.02,0.02]",174.0143,0,32,32,112,1,,,,,,,
,,,,,,,5f3287b83428cb05746e2214,682db4925c65bd43ab683899,2025-05-21_13h13.21.735,cuing_paradigm_dot,2024.1.5,Win32,57.14285714,682d556593cb38ad0a074487,,,,,,,,,,,174.0168,174.4954,,,174.737,175.5029,left,0.7464,,,,,,,,,0.1,,,,,,174.4955,174.7368,175.503,"[0.09236895380833239,-0.02012389297784759]","[-1,-1,-1]","[-0.06005633779788175,0.04676958294035261]","[-1,-1,-1]","[0.061828106606943864,0.00811074864332364]","[-1,-1,-1]","[-0.11732341164441083,-0.08165628879534906]","[-1,-1,-1]","[0.0017147824961638253,-0.1608401980479975]","[-1,-1,-1]","[0.09309132773824205,-0.06866999223732981]","[-1,-1,-1]","[0.029872949538657843,-0.19039253652698812]","[-1,-1,-1]","[0.058087900441271004,0.06070623077114965]","[1,1,1]","[0.007683646370904733,-0.011603805634706995]","[-1,-1,-1]","[0.0491667773922038,0.15374855887338412]","[-1,-1,-1]","[-0.026070255214026606,0.10861035109761576]","[-1,-1,-1]","[-0.032714488273648444,-0.10251836209295066]","[-1,-1,-1]","[-0.06078839354253702,0.08874099731911712]","[-1,-1,-1]","[0.05469671909409198,-0.1513279641772388]","[-1,-1,-1]","[-0.11415983878445689,0.07944977444199437]","[-1,-1,-1]","[-0.1035540104554779,-0.15900450171122962]","[-1,-1,-1]","[-0.12225555528979729,-0.037191169835332084]","[-1,-1,-1]","[0.12869771086250797,0.11245104202913285]","[-1,-1,-1]","[0.16753137701262596,-0.03952959943841576]","[-1,-1,-1]","[0.12813053114638642,-0.09585690127452934]","[-1,-1,-1]","[0.00729256394907678,0.03356259983091016]","[-1,-1,-1]","[-0.15748343437541248,0.11033599372787412]","[-1,-1,-1]","[0.03686061015407496,-0.11504249425150508]","[-1,-1,-1]","[-0.17188411359291775,-0.07543875549252452]","[-1,-1,-1]","[0.02128574348531437,-0.06204462292041407]","[1,1,1]","[-0.0428770228048858,-0.17978783634959378]","[-1,-1,-1]","[0.17135423800478722,-0.08522162308652381]","[-1,-1,-1]","[0.16737985881565362,0.003340080914678403]","[-1,-1,-1]","[-0.10864194073527406,0.12001547982865961]","[-1,-1,-1]","[-0.1623745347063555,0.04016746287300073]","[-1,-1,-1]","[-0.0826330185785802,-0.025652038819975]","[-1,-1,-1]","[-0.07995426351537697,0.17385550269271843]","[1,1,1]","[0.02,0.02]",176.5947,0,33,33,15,1,,,,,,,
,,,,,,,5f3287b83428cb05746e2214,682db4925c65bd43ab683899,2025-05-21_13h13.21.735,cuing_paradigm_dot,2024.1.5,Win32,57.14285714,682d556593cb38ad0a074487,,,,,,,,,,,176.5959,177.0904,,,177.3361,178.0664,right,0.7105,,,,,,,,,0.6,,,,,,177.0905,177.336,178.0665,"[-0.013967532201582578,0.19824759773146972]","[-1,-1,-1]","[0.10068035216482275,-0.06676316429507394]","[1,1,1]","[-0.10621204071290495,-0.008550451766555785]","[1,1,1]","[0.0972592252011896,0.015190811745819544]","[-1,-1,-1]","[-0.017944061235783203,-0.14431842188838345]","[-1,-1,-1]","[0.09955100672324614,0.12774959496837113]","[1,1,1]","[-0.16090835057606495,-0.04912530765773663]","[1,1,1]","[-0.12263510524442117,-0.14324781467887826]","[1,1,1]","[-0.16119909108857053,0.06369568963436309]","[1,1,1]","[-0.10323822372919195,0.0987129150661339]","[1,1,1]","[0.01459956095166711,-0.19877910984981925]","[1,1,1]","[-0.031316673936764065,0.051815652098430635]","[1,1,1]","[-0.05467544314575768,-0.10616453046825948]","[1,1,1]","[-0.02028923004488797,0.14759161518507058]","[1,1,1]","[0.13790195346622156,0.06877592357142069]","[1,1,1]","[-0.03728485555740326,-0.06396782076730416]","[-1,-1,-1]","[0.17128516285233836,-0.02313972775455298]","[-1,-1,-1]","[0.04536816670814988,0.005490451909887455]","[-1,-1,-1]","[-0.09646656971810826,-0.09919553872215997]","[-1,-1,-1]","[-0.05619424346804807,0.1887073420964965]","[1,1,1]","[-0.17779122800834077,-0.007784885858692098]","[-1,-1,-1]","[0.030996020211353465,-0.15404162177344313]","[1,1,1]","[0.16272852481465608,-0.10193347031435841]","[-1,-1,-1]","[0.17955271366818,0.038991176623734955]","[1,1,1]","[0.05819454968571088,0.10775701791837135]","[1,1,1]","[0.05763345127302219,-0.10229509952089472]","[-1,-1,-1]","[0.019918893146490854,0.15493526148385892]","[1,1,1]","[0.13231524945450243,-0.008151909458777211]","[1,1,1]","[0.022796121310312008,-0.04210737082041437]","[1,1,1]","[0.1405069838911039,-0.1363787278618581]","[-1,-1,-1]","[0.07396286631000083,-0.02874232204085728]","[-1,-1,-1]","[-0.07231026022300953,-0.14717200465791214]","[-1,-1,-1]","[0.02,0.02]",179.1636,0,34,34,174,1,,,,,,,
,,,,,,,5f3287b83428cb05746e2214,682db4925c65bd43ab683899,2025-05-21_13h13.21.735,cuing_paradigm_dot,2024.1.5,Win32,57.14285714,682d556593cb38ad0a074487,,,,,,,,,,,179.1653,179.6726,,,179.9132,181.4022,,,,,,,,,,,0.4,,,,,,179.6726,179.9132,181.4023,"[-0.07898318008119508,0.050168700054393243]","[1,1,1]","[0.023505208512640204,0.1016465650827148]","[1,1,1]","[-0.0847012716890894,-0.12437421546138587]","[1,1,1]","[-0.07435703291903908,-0.030216792455535896]","[-1,-1,-1]","[-0.04052292642752887,-0.12245900780152988]","[-1,-1,-1]","[0.1296768671665088,0.038160922633546104]","[1,1,1]","[-0.021000127859872597,-0.15943774802702743]","[-1,-1,-1]","[0.09589677299501144,0.11090806466660309]","[-1,-1,-1]","[-0.039566826149120646,0.018164644464959336]","[1,1,1]","[0.1664578577465214,-0.10261383585608837]","[-1,-1,-1]","[0.004089634421268904,-0.1172223579392134]","[1,1,1]","[-0.10261074364307918,0.12355490392941346]","[-1,-1,-1]","[0.01603349323493736,0.19567336005974417]","[-1,-1,-1]","[-0.1302025627397044,0.0034960660161699763]","[-1,-1,-1]","[-0.0015110259519099866,-0.050061926975743055]","[-1,-1,-1]","[0.03262133193176779,-0.014917603540450885]","[-1,-1,-1]","[0.1827001798172283,0.02040978133487445]","[1,1,1]","[0.06625876834459143,-0.07888225038707901]","[-1,-1,-1]","[0.008385252374913856,-0.1979633765560995]","[-1,-1,-1]","[-0.047379655841584656,0.08578043180858516]","[-1,-1,-1]","[-0.050754064310718855,-0.1881985239112892]","[1,1,1]","[0.06691753213886628,-0.1832095179197614]","[1,1,1]","[-0.11107315157043225,-0.06202919258898118]","[1,1,1]","[0.08377785176565,0.005802880775265399]","[1,1,1]","[0.11854242904731321,0.1451444486331123]","[-1,-1,-1]","[-0.03725882743170318,0.15078926020251981]","[-1,-1,-1]","[0.03798957598801723,0.028842512585820424]","[-1,-1,-1]","[-0.1461312855810737,-0.10847609869169919]","[-1,-1,-1]","[0.06632217646944422,0.18078187074888627]","[-1,-1,-1]","[0.0755639380439567,-0.13755841449133396]","[-1,-1,-1]","[-0.08481746899208757,0.009691869028317493]","[1,1,1]","[-0.18999025505775377,0.0027032889776742626]","[1,1,1]","[0.02,0.02]",182.5054,0,35,35,35,1,,,,,,,
,,,,,,,5f3287b83428cb05746e2214,682db4925c65bd43ab683899,2025-05-21_13h13.21.735,cuing_paradigm_dot,2024.1.5,Win32,57.14285714,682d556593cb38ad0a074487,,,,,,,,,,,182.5084,183.005,,,183.2477,184.0094,right,0.7428,,,,,,,,,0.5,,,,,,183.0051,183.2476,184.0096,"[0.014626186616788037,0.08662480576755412]","[1,1,1]","[-0.1951705648950711,0.021188378984528872]","[1,1,1]","[-0.06478051756565929,0.05736321478444974]","[1,1,1]","[0.1542095230302987,0.12424362713323371]","[-1,-1,-1]","[-0.17544325626851467,-0.09381548193303949]","[-1,-1,-1]","[0.06769908923079708,-0.16918951282361008]","[1,1,1]","[0.07152716168151972,0.10751201826620994]","[-1,-1,-1]","[0.1477322617480822,-0.12325650131729246]","[-1,-1,-1]","[-0.040159799671833106,-0.15286573759868824]","[-1,-1,-1]","[-0.09157841356665601,0.12587040127047555]","[1,1,1]","[-0.027345415815763476,0.0015464227328130528]","[1,1,1]","[-0.1456202294662609,0.040350849728841794]","[-1,-1,-1]","[0.02488738063854366,0.14171290866187983]","[-1,-1,-1]","[-0.15702695864506844,0.1161406280830435]","[1,1,1]","[-0.07781418176950981,-0.12552997263190765]","[-1,-1,-1]","[0.029329032249499478,0.18996043568347235]","[1,1,1]","[-0.08218551489457249,-0.0235852775186231]","[1,1,1]","[0.020922531055359062,-0.07446598683372568]","[1,1,1]","[0.003342600394729997,-0.1886453729411375]","[1,1,1]","[-0.029376298043738532,-0.06206802290793318]","[-1,-1,-1]","[0.0904094758740788,-0.00036571963503106574]","[1,1,1]","[0.020582222094702896,-0.030314479775116945]","[1,1,1]","[-0.1317005314180404,-0.09473641078252956]","[-1,-1,-1]","[-0.0197224805192662,0.04180128743819709]","[1,1,1]","[0.01812721405859859,-0.1310256367735335]","[1,1,1]","[0.07639331653193514,-0.09561499163101123]","[-1,-1,-1]","[0.19319848101444953,0.028929064410061402]","[-1,-1,-1]","[0.06160806316938117,0.036998812561890984]","[-1,-1,-1]","[-0.1880534311491539,-0.033058976817500155]","[-1,-1,-1]","[0.1263713661670074,0.07470897151020801]","[-1,-1,-1]","[0.11226830490573063,-0.04314812995351568]","[1,1,1]","[0.18097077927592084,-0.011793832317309365]","[-1,-1,-1]","[0.02,0.02]",185.0936,0,36,36,101,1,,,,,,,
,,,,,,,5f3287b83428cb05746e2214,682db4925c65bd43ab683899,2025-05-21_13h13.21.735,cuing_paradigm_dot,2024.1.5,Win32,57.14285714,682d556593cb38ad0a074487,,,,,,,,,,,185.0951,185.588,,,185.8421,186.4432,left,0.5814,,,,,,,,,0.1,,,,,,185.5881,185.842,186.4434,"[-0.06000773941809996,0.10722627292729237]","[-1,-1,-1]","[-0.07368573331307464,0.06835471772075087]","[-1,-1,-1]","[0.08869363039447581,-0.0016343863776155298]","[-1,-1,-1]","[0.16148717611631477,-0.0868961055452776]","[-1,-1,-1]","[-0.053980385001831374,-0.0857190257995348]","[-1,-1,-1]","[-0.15220760897360067,-0.09076654164786382]","[1,1,1]","[0.11638120405374866,0.15186494668637748]","[-1,-1,-1]","[0.06455723106585655,-0.06036591535935428]","[-1,-1,-1]","[-0.1351233097316021,-0.13696212202796365]","[1,1,1]","[-0.12011001891214966,-0.008208227546318907]","[-1,-1,-1]","[0.029741512481263926,-0.09194014986147131]","[-1,-1,-1]","[0.03044347183572751,0.03123553837836375]","[-1,-1,-1]","[0.11269534957637223,0.10709498288068667]","[-1,-1,-1]","[-0.043983981284168444,-0.127003589457157]","[-1,-1,-1]","[0.15539527110283116,-0.0004181041718622432]","[-1,-1,-1]","[0.03990942028856095,0.0723786206967154]","[-1,-1,-1]","[0.0852672459701385,0.06986235781167704]","[-1,-1,-1]","[-0.17767519836283044,0.011472911858048981]","[-1,-1,-1]","[0.1709587356473131,-0.046160662307253575]","[-1,-1,-1]","[-0.09967531426259979,-0.059367947142711104]","[-1,-1,-1]","[0.03787082210785524,-0.14295378921395518]","[-1,-1,-1]","[0.008915669495646776,0.15565073940732826]","[-1,-1,-1]","[0.008857626037081063,-0.03316611657718563]","[-1,-1,-1]","[0.18804719139858125,0.035667554581572794]","[1,1,1]","[0.1006677811590437,-0.17037410918264964]","[-1,-1,-1]","[-0.01865227978756435,0.060414232341071364]","[-1,-1,-1]","[0.08331762106305023,-0.10321659809910193]","[-1,-1,-1]","[-0.08227843607101004,0.019816517778300003]","[-1,-1,-1]","[-0.06625516308330254,-0.1773460133925159]","[-1,-1,-1]","[-0.11328700664029302,0.14452448393470513]","[-1,-1,-1]","[0.005473304672801615,-0.16676092634951029]","[-1,-1,-1]","[-0.1569892862255463,0.07876118028322653]","[-1,-1,-1]","[0.02,0.02]",187.528,0,37,37,5,1,,,,,,,
,,,,,,,5f3287b83428cb05746e2214,682db4925c65bd43ab683899,2025-05-21_13h13.21.735,cuing_paradigm_dot,2024.1.5,Win32,57.14285714,682d556593cb38ad0a074487,,,,,,,,,,,187.5297,188.0092,,,188.255,188.9088,right,0.6339,,,,,,,,,0.55,,,,,,188.0093,188.255,188.9089,"[0.09528622754887996,-0.041567126782451065]","[1,1,1]","[0.0696042737389386,0.0842536379101844]","[-1,-1,-1]","[-0.10566505789673096,-0.027210720641491843]","[1,1,1]","[-0.06304283880296851,0.03984350038214811]","[1,1,1]","[-0.0699334926268711,-0.05701530972401027]","[-1,-1,-1]","[0.054286083925243936,-0.14091593798522228]","[-1,-1,-1]","[-0.06701653740917382,0.13413088380624527]","[-1,-1,-1]","[0.18553284666935302,-0.033226678842573514]","[1,1,1]","[-0.1775262158972281,0.011983382437829487]","[-1,-1,-1]","[-0.007688685922452101,0.192138837609658]","[1,1,1]","[-0.18371483594372878,-0.033021546479947074]","[-1,-1,-1]","[0.07707222338226544,-0.083874211478523]","[1,1,1]","[0.04267041406742345,0.16077855808042127]","[1,1,1]","[-0.15696872169901943,-0.08589858981088136]","[-1,-1,-1]","[0.16394460091520976,-0.0815701375759385]","[1,1,1]","[-0.04802719144800132,-0.17093298388122422]","[-1,-1,-1]","[-0.05781445248003292,0.08945799872342323]","[1,1,1]","[-0.07316285079044815,-0.1236207690460588]","[1,1,1]","[-0.006243627550548718,0.08890419821227787]","[1,1,1]","[0.14375848637307734,0.1284222189852154]","[-1,-1,-1]","[-0.012295086985124675,-0.11875608725664392]","[-1,-1,-1]","[-0.18217112307813696,0.05686086057205656]","[1,1,1]","[-0.023863027183131526,-0.042663573001685336]","[1,1,1]","[0.1682888095200329,0.08823524200028339]","[-1,-1,-1]","[-0.146483984178619,0.0765826884454615]","[-1,-1,-1]","[-0.11374618715394806,-0.06811432302349973]","[1,1,1]","[0.023306555463308554,-0.027345105901550135]","[1,1,1]","[0.0003849003231897048,0.028270324776596474]","[1,1,1]","[-0.12195674739155656,-0.1397605730255217]","[1,1,1]","[-0.10959364934772639,0.05943173185512968]","[-1,-1,-1]","[0.08103893553643123,0.1745929256719005]","[-1,-1,-1]","[0.032814437214924067,-0.07811684638453102]","[1,1,1]","[0.02,0.02]",190.009,0,38,38,139,1,,,,,,,
,,,,,,,5f3287b83428cb05746e2214,682db4925c65bd43ab683899,2025-05-21_13h13.21.735,cuing_paradigm_dot,2024.1.5,Win32,57.14285714,682d556593cb38ad0a074487,,,,,,,,,,,190.0106,190.5009,,,190.7601,191.328,right,0.5522,,,,,,,,,0.6,,,,,,190.5012,190.7599,191.3282,"[0.1698648308224396,-0.06805539571217238]","[1,1,1]","[0.03808006580166371,-0.07601225960749762]","[1,1,1]","[0.09342668158465385,-0.09093847422104927]","[1,1,1]","[-0.1173857413966148,-0.016689740558590346]","[-1,-1,-1]","[-0.14505177446890577,0.016058723152238896]","[1,1,1]","[-0.0469611723620232,-0.15943523819772332]","[1,1,1]","[0.09824787328832098,0.006639165335237261]","[1,1,1]","[-0.026340786166267657,0.06154164680154343]","[1,1,1]","[-0.19021782897331868,0.04371423064801153]","[1,1,1]","[0.1154957087940225,-0.16070793863697824]","[-1,-1,-1]","[0.17505938133583474,-0.026175686682189083]","[-1,-1,-1]","[0.16389962400208408,0.01251137148962698]","[-1,-1,-1]","[-0.06891009359739861,-0.054817849658786076]","[-1,-1,-1]","[0.04287683458287394,-0.18539319636073792]","[1,1,1]","[0.04560616161933869,0.06464142171370804]","[-1,-1,-1]","[-0.09476392346647747,0.15874305259974503]","[-1,-1,-1]","[-0.0036626607824872858,-0.17182549682232254]","[1,1,1]","[0.13503821237899602,0.05439751134888395]","[1,1,1]","[0.05327404287679712,0.15597634544944503]","[1,1,1]","[-0.1338303018986585,-0.10709712429561419]","[-1,-1,-1]","[-0.10748759253429978,0.10656099996691362]","[-1,-1,-1]","[-0.07428395526956245,-0.10890502899908079]","[1,1,1]","[-0.1685769325091173,-0.06931349190993534]","[-1,-1,-1]","[0.06969655022805846,-0.04709034260558953]","[1,1,1]","[-0.04771164604553378,-0.020350628682159345]","[-1,-1,-1]","[-0.012381144270010868,0.10276774986326177]","[-1,-1,-1]","[-0.07385539168555891,0.05880052767578851]","[1,1,1]","[-0.014455410609811817,-0.12053774283765985]","[1,1,1]","[-0.11494351365810371,0.049092722643848445]","[1,1,1]","[0.18711024352046532,0.06766203960781024]","[-1,-1,-1]","[-0.040682116623856186,0.13723338588013737]","[1,1,1]","[-0.012039199407749985,0.19956191205386703]","[1,1,1]","[0.02,0.02]",192.4493,0,39,39,155,1,,,,,,,
,,,,,,,5f3287b83428cb05746e2214,682db4925c65bd43ab683899,2025-05-21_13h13.21.735,cuing_paradigm_dot,2024.1.5,Win32,57.14285714,682d556593cb38ad0a074487,,,,,,,,,,,192.4502,192.9346,,,193.1887,193.8107,right,0.6024,,,,,,,,,0.9,,,,,,192.9347,193.1875,193.8107,"[-0.041933982410608125,0.02163740842381723]","[1,1,1]","[0.0018262552854974975,0.08293732255619984]","[1,1,1]","[0.0854479302353212,-0.1712812775700829]","[1,1,1]","[0.0961837787621375,0.07083788473598678]","[-1,-1,-1]","[-0.08869730039337638,-0.1682652502502207]","[1,1,1]","[0.11621099487015098,-0.10585701099839835]","[1,1,1]","[-0.005259550908289308,-0.01730916275688303]","[1,1,1]","[-0.11985381116822079,-0.027788528578021256]","[-1,-1,-1]","[-0.06979390845012391,-0.013822936067861067]","[1,1,1]","[0.059932639377387534,0.05171200779061403]","[1,1,1]","[-0.11027724791080214,-0.09617415901938678]","[1,1,1]","[-0.03470048150517092,-0.110106775280667]","[1,1,1]","[0.032377211600863556,-0.1004735600317506]","[1,1,1]","[0.05516573248090363,-0.03791189465832004]","[1,1,1]","[-0.05990181907203194,-0.06940612990953522]","[1,1,1]","[0.16479744529948673,0.0665848229182316]","[1,1,1]","[-0.071593604534301,0.14697718099106888]","[1,1,1]","[0.1775396353225778,-0.032196030848725084]","[1,1,1]","[-0.07722877231840539,0.048139443015142246]","[1,1,1]","[0.02750432751129107,0.1343186789224111]","[1,1,1]","[0.07374684695009387,-0.0972227565369862]","[1,1,1]","[-0.048162685414966294,0.18016441011482118]","[1,1,1]","[-0.0370735181257837,0.12276547713494526]","[1,1,1]","[0.14580782313017046,0.015068088793173201]","[1,1,1]","[-0.13146960102823926,0.09734541892221887]","[1,1,1]","[0.01877452911351016,0.18473999670097035]","[1,1,1]","[-0.1610689434336636,0.0176573911588891]","[1,1,1]","[0.07230161620502822,0.11113189564953331]","[1,1,1]","[0.018750210625436706,0.027805181552678356]","[1,1,1]","[0.09931737279938606,-0.011303624015733097]","[1,1,1]","[0.1062519968021112,0.1395917104767828]","[-1,-1,-1]","[0.14830006833412784,0.10778932801289122]","[1,1,1]","[0.02,0.02]",194.9196,0,40,40,200,1,,,,,,,
,,,,,,,5f3287b83428cb05746e2214,682db4925c65bd43ab683899,2025-05-21_13h13.21.735,cuing_paradigm_dot,2024.1.5,Win32,57.14285714,682d556593cb38ad0a074487,,,,,,,,,,,194.9229,195.4252,,,195.6766,196.6251,left,0.9316,,,,,,,,,0.4,,,,,,195.4253,195.6765,196.6253,"[-0.09138691762673663,-0.10441029355393869]","[-1,-1,-1]","[-0.12473171935789304,-0.13376390828547455]","[-1,-1,-1]","[0.032383413339798016,-0.014929308667921177]","[1,1,1]","[0.11331745095439082,-0.012113783678472509]","[-1,-1,-1]","[0.03711067863766848,-0.18519752794532537]","[-1,-1,-1]","[-0.12497702797967554,0.06561277774949964]","[1,1,1]","[-0.030147587029383884,-0.013309181976454271]","[-1,-1,-1]","[0.07285809663609742,-0.06470407820077262]","[1,1,1]","[-0.06242393943226349,0.08824570873552108]","[-1,-1,-1]","[0.010474940032095776,-0.062384511588283856]","[-1,-1,-1]","[0.13371216239155284,0.09509009272714002]","[-1,-1,-1]","[-0.19623483510339207,-0.037203390935708014]","[-1,-1,-1]","[0.08596968968774635,-0.1587129217640346]","[1,1,1]","[0.14448449238222327,-0.09000375228951145]","[1,1,1]","[0.17005561147522885,-0.059018860681533905]","[1,1,1]","[0.18260674223273077,-0.0055328090968370935]","[1,1,1]","[-0.004948189713613683,-0.14664536801224465]","[1,1,1]","[0.17979338312015306,0.04245158551806231]","[-1,-1,-1]","[-0.032435177760466075,0.16828823791394137]","[-1,-1,-1]","[0.02579414423660511,0.12213803612530831]","[1,1,1]","[-0.18715898015427976,0.03564046686693765]","[1,1,1]","[-0.1034422862431618,0.11734588224565758]","[-1,-1,-1]","[-0.05976143647613512,0.1320152759323663]","[-1,-1,-1]","[-0.051436705569217964,-0.09064446366294589]","[-1,-1,-1]","[-0.07803848147568905,0.17364454196061796]","[-1,-1,-1]","[0.09493420597295263,0.10513939438361364]","[-1,-1,-1]","[-0.16032999810090076,0.08528965815873452]","[-1,-1,-1]","[0.08859045784190356,0.1680906209361946]","[1,1,1]","[0.03153370871726477,0.16475289511687563]","[1,1,1]","[0.1252636896537895,-0.13635847429165932]","[-1,-1,-1]","[-0.11724557474516192,-0.07062406123358363]","[1,1,1]","[0.028334870598706634,0.05649744355547784]","[-1,-1,-1]","[0.02,0.02]",197.7022,0,41,41,46,1,,,,,,,
,,,,,,,5f3287b83428cb05746e2214,682db4925c65bd43ab683899,2025-05-21_13h13.21.735,cuing_paradigm_dot,2024.1.5,Win32,57.14285714,682d556593cb38ad0a074487,,,,,,,,,,,197.7047,198.2076,,,198.4613,199.1574,right,0.6771,,,,,,,,,0.55,,,,,,198.2078,198.4611,199.1575,"[-0.14479688461896628,0.009951748869375594]","[-1,-1,-1]","[0.16909155193943037,-0.0015241443238759352]","[1,1,1]","[-0.08436966685933102,0.05618518772703412]","[-1,-1,-1]","[-0.02330578571621176,-0.1243986633588951]","[1,1,1]","[-0.18348959462733944,0.020678951011240586]","[1,1,1]","[0.13051099884610382,-0.12213881060643526]","[-1,-1,-1]","[0.06357222608280245,0.00749794135843914]","[-1,-1,-1]","[-0.06574171314786403,0.17921801150720737]","[-1,-1,-1]","[-0.12616938993490395,0.13479698808550045]","[-1,-1,-1]","[-0.08334882768826488,-0.13355121366274003]","[-1,-1,-1]","[-0.0014485554573342072,0.1558027905817211]","[1,1,1]","[-0.02202225307526467,0.03587363590067844]","[1,1,1]","[-0.058031063206250594,0.10120943038309274]","[1,1,1]","[0.03446775536069665,-0.11743084319850847]","[1,1,1]","[-0.03735305404544875,-0.18893229144567672]","[1,1,1]","[0.01160626455735478,0.099416536989084]","[1,1,1]","[0.1962547879864168,-0.03799663255704624]","[1,1,1]","[-0.14943576414364138,-0.11939036283822409]","[-1,-1,-1]","[-0.1436970704226115,0.060621480842372004]","[1,1,1]","[0.10413829054500022,0.15454856701620873]","[1,1,1]","[-0.021915322984483506,-0.06640300413483605]","[-1,-1,-1]","[-0.12522537006642315,-0.07212866527080992]","[1,1,1]","[0.11260330387433219,0.04476176112770624]","[1,1,1]","[0.10829697382761799,-0.013199050514534178]","[-1,-1,-1]","[0.0483931109641208,-0.07258805981754808]","[-1,-1,-1]","[0.004250750070930275,-0.16124631329364503]","[1,1,1]","[0.03988477102132349,0.0695541587533631]","[1,1,1]","[0.14021376774022049,-0.048624754180290414]","[-1,-1,-1]","[-0.11921591643292606,-0.023580180583074612]","[1,1,1]","[-0.07388381191434776,-0.0833044010756117]","[-1,-1,-1]","[-0.18830308023623468,-0.05222645130023876]","[-1,-1,-1]","[0.1077304786531602,-0.0752952088022641]","[1,1,1]","[0.02,0.02]",200.252,0,42,42,126,1,,,,,,,
,,,,,,,5f3287b83428cb05746e2214,682db4925c65bd43ab683899,2025-05-21_13h13.21.735,cuing_paradigm_dot,2024.1.5,Win32,57.14285714,682d556593cb38ad0a074487,,,,,,,,,,,200.2545,200.7537,,,201.0086,201.9732,right,0.9454,,,,,,,,,0.55,,,,,,200.7538,201.0085,201.9732,"[-0.1745103727373222,-0.00013938536287073805]","[-1,-1,-1]","[-0.02425409753474801,-0.12806902999664346]","[-1,-1,-1]","[-0.0006358768637460652,-0.039545360022705464]","[1,1,1]","[0.011852250261806967,-0.18153386062634094]","[1,1,1]","[-0.03398345124003946,0.16357200043552733]","[1,1,1]","[-0.1295528546228418,-0.0008534842496630515]","[-1,-1,-1]","[0.08027528051233436,-0.014725011880788277]","[1,1,1]","[-0.06753063968487856,0.08288105109659402]","[1,1,1]","[0.15822441446401828,0.08548294807783552]","[-1,-1,-1]","[-0.17757148501252662,0.06430794464352174]","[1,1,1]","[0.12347527855745288,-0.0504067684362923]","[1,1,1]","[0.1670813157907947,-0.0013686627027837933]","[-1,-1,-1]","[-0.09255920590611762,-0.10472725053472269]","[1,1,1]","[-0.06259734013841803,0.12946187182038393]","[1,1,1]","[0.09391586458712216,0.13802493309721278]","[-1,-1,-1]","[0.07144004012835194,0.04606092422817486]","[-1,-1,-1]","[0.057981898542586736,-0.0960451270577736]","[1,1,1]","[-0.012117128985553772,0.08385972177470873]","[-1,-1,-1]","[-0.11125002720290454,0.08039346283683799]","[-1,-1,-1]","[-0.1533677868300447,-0.06976888981093192]","[1,1,1]","[-0.044734528756719676,-0.03273162556772407]","[-1,-1,-1]","[0.08045173172581811,-0.16501520562925298]","[-1,-1,-1]","[-0.05591763635520174,-0.07872509758159202]","[1,1,1]","[-0.10160295527307812,-0.15488697394132558]","[1,1,1]","[0.14072007519760726,-0.09694862402678871]","[1,1,1]","[0.10776039681249228,0.01940015179282957]","[1,1,1]","[-0.11333607869201413,0.14837403803559837]","[1,1,1]","[-0.020899666196182092,0.04157934935578887]","[1,1,1]","[0.03820288811858498,0.16208349748696785]","[-1,-1,-1]","[-0.060950942216633046,-0.14628332689629023]","[1,1,1]","[0.18232148105288573,-0.07063855248499898]","[-1,-1,-1]","[-0.14696117690923108,-0.11131346447510168]","[-1,-1,-1]","[0.02,0.02]",203.0637,0,43,43,148,1,,,,,,,
,,,,,,,5f3287b83428cb05746e2214,682db4925c65bd43ab683899,2025-05-21_13h13.21.735,cuing_paradigm_dot,2024.1.5,Win32,57.14285714,682d556593cb38ad0a074487,,,,,,,,,,,203.0654,203.5595,,,203.794,204.4144,right,0.6036,,,,,,,,,0.55,,,,,,203.5595,203.7937,204.4145,"[-0.11153466149289838,0.14663362381586464]","[-1,-1,-1]","[0.09496823125820764,0.06920944730525122]","[1,1,1]","[0.11881905541326446,0.024219602157422058]","[-1,-1,-1]","[-0.15651005479021432,-0.09892099517140987]","[1,1,1]","[0.06262216870856828,-0.14713895448522685]","[-1,-1,-1]","[-0.03999227292186477,0.13342764482313213]","[-1,-1,-1]","[0.0150313163741982,0.018742359177224038]","[1,1,1]","[-0.13249995808603493,-0.008880328440861758]","[1,1,1]","[-0.11189501854825973,-0.1581888204045139]","[1,1,1]","[-0.1832585332813656,-0.018091105864945663]","[1,1,1]","[-0.08240231789164969,-0.009796692644770061]","[1,1,1]","[-0.05366071829614609,-0.08472168845497938]","[1,1,1]","[0.024537903444872444,-0.097889207364495]","[-1,-1,-1]","[0.16115398594501848,0.07470735615240763]","[-1,-1,-1]","[0.09902891848536713,-0.10467239296827487]","[-1,-1,-1]","[0.1736467670999112,0.019290914915206372]","[-1,-1,-1]","[0.07455965435268554,0.17673317532173824]","[1,1,1]","[0.11066767813510212,-0.04456476395948181]","[1,1,1]","[-0.11283402469722649,0.04541940802292522]","[1,1,1]","[0.05409149029301011,-0.027579128147676046]","[-1,-1,-1]","[0.06491344276319982,0.10924214880276983]","[1,1,1]","[0.048952794879565414,-0.18571022481637003]","[-1,-1,-1]","[-0.05609972494562104,0.17493397476143785]","[-1,-1,-1]","[0.16708299648197655,-0.07441331483608825]","[-1,-1,-1]","[-0.10838654877724348,-0.044019202326382754]","[1,1,1]","[-0.02256282100102009,-0.014116116777579278]","[-1,-1,-1]","[-0.026994531830482737,-0.053942031294927875]","[1,1,1]","[0.18478156043178526,-0.019229821961309203]","[-1,-1,-1]","[0.01498280153764998,0.13593409037193316]","[1,1,1]","[0.1399103979739085,0.11873716773678863]","[1,1,1]","[-0.08713022510995963,0.10903283000993257]","[1,1,1]","[0.028346243318129696,0.0698336839175706]","[1,1,1]","[0.02,0.02]",205.5086,0,44,44,136,1,,,,,,,
