right,left,explain.started,explain.stopped,key_resp_3.keys,key_resp_3.rt,key_resp_3.duration,participant,session,date,expName,psychopyVersion,OS,frameRate,study_id,explain_2.started,explain_2.stopped,key_resp_4.keys,key_resp_4.rt,key_resp_4.duration,explain_3.started,explain_3.stopped,key_resp_5.keys,key_resp_5.rt,key_resp_5.duration,fixation.started,fixation.stopped,practice.started,practice.stopped,response.started,response.stopped,key_resp.keys,key_resp.rt,key_resp.duration,feedback.started,feedback.stopped,trials_2.thisRepN,trials_2.thisTrialN,trials_2.thisN,trials_2.thisIndex,trials_2.ran,white_ratio,explain_4.started,explain_4.stopped,key_resp_6.keys,key_resp_6.rt,key_resp_6.duration,dotDisplay.started,dotDisplay.stopped,ITI.started,polygon_1.pos,polygon_1.color,polygon_2.pos,polygon_2.color,polygon_3.pos,polygon_3.color,polygon_4.pos,polygon_4.color,polygon_5.pos,polygon_5.color,polygon_6.pos,polygon_6.color,polygon_7.pos,polygon_7.color,polygon_8.pos,polygon_8.color,polygon_9.pos,polygon_9.color,polygon_10.pos,polygon_10.color,polygon_11.pos,polygon_11.color,polygon_12.pos,polygon_12.color,polygon_13.pos,polygon_13.color,polygon_14.pos,polygon_14.color,polygon_15.pos,polygon_15.color,polygon_16.pos,polygon_16.color,polygon_17.pos,polygon_17.color,polygon_18.pos,polygon_18.color,polygon_19.pos,polygon_19.color,polygon_20.pos,polygon_20.color,polygon_21.pos,polygon_21.color,polygon_22.pos,polygon_22.color,polygon_23.pos,polygon_23.color,polygon_24.pos,polygon_24.color,polygon_25.pos,polygon_25.color,polygon_26.pos,polygon_26.color,polygon_27.pos,polygon_27.color,polygon_28.pos,polygon_28.color,polygon_29.pos,polygon_29.color,polygon_30.pos,polygon_30.color,polygon_31.pos,polygon_31.color,polygon_32.pos,polygon_32.color,dot_size,ITI.stopped,trials.thisRepN,trials.thisTrialN,trials.thisN,trials.thisIndex,trials.ran,break_2.started,break_2.stopped,trials_3.thisRepN,trials_3.thisTrialN,trials_3.thisN,trials_3.thisIndex,trials_3.ran
subject chose black,subject chose white,0.0003,137.0147,space,121.9962,,5fa0091ec747500252d2891f,682f0fc1c9067d1b83fffdc0,2025-05-22_13h51.59.789,cuing_paradigm_dot,2024.1.5,Win32,59.17159763,682d573fa47f1360d1451895,,,,,,,,,,,,,,,,,,,,,,,,,,,,,,,,,,,,,,,,,,,,,,,,,,,,,,,,,,,,,,,,,,,,,,,,,,,,,,,,,,,,,,,,,,,,,,,,,,,,,,,,,,,,,,,,,
,,,,,,,5fa0091ec747500252d2891f,682f0fc1c9067d1b83fffdc0,2025-05-22_13h51.59.789,cuing_paradigm_dot,2024.1.5,Win32,59.17159763,682d573fa47f1360d1451895,137.0158,204.3192,space,37.2876,,,,,,,,,,,,,,,,,,,,,,,,,,,,,,,,,,,,,,,,,,,,,,,,,,,,,,,,,,,,,,,,,,,,,,,,,,,,,,,,,,,,,,,,,,,,,,,,,,,,,,,,,,,,,
,,,,,,,5fa0091ec747500252d2891f,682f0fc1c9067d1b83fffdc0,2025-05-22_13h51.59.789,cuing_paradigm_dot,2024.1.5,Win32,59.17159763,682d573fa47f1360d1451895,,,,,,204.3197,218.1548,space,10.8241,,,,,,,,,,,,,,,,,,,,,,,,,,,,,,,,,,,,,,,,,,,,,,,,,,,,,,,,,,,,,,,,,,,,,,,,,,,,,,,,,,,,,,,,,,,,,,,,,,,,,,,,
,,,,,,,5fa0091ec747500252d2891f,682f0fc1c9067d1b83fffdc0,2025-05-22_13h51.59.789,cuing_paradigm_dot,2024.1.5,Win32,59.17159763,682d573fa47f1360d1451895,,,,,,,,,,,218.216,218.6664,218.6677,218.917,218.9173,220.0284,right,1.0564,,220.0287,221.1183,0,0,0,1,1,0.2,,,,,,,,,,,,,,,,,,,,,,,,,,,,,,,,,,,,,,,,,,,,,,,,,,,,,,,,,,,,,,,,,,,,,,,,,,,,,,,,,,,,,,
,,,,,,,5fa0091ec747500252d2891f,682f0fc1c9067d1b83fffdc0,2025-05-22_13h51.59.789,cuing_paradigm_dot,2024.1.5,Win32,59.17159763,682d573fa47f1360d1451895,,,,,,,,,,,221.1201,221.6178,221.6187,221.8701,221.8702,222.2388,left,0.3486,,222.239,223.3347,0,1,1,0,1,0.8,,,,,,,,,,,,,,,,,,,,,,,,,,,,,,,,,,,,,,,,,,,,,,,,,,,,,,,,,,,,,,,,,,,,,,,,,,,,,,,,,,,,,,
,,,,,,,5fa0091ec747500252d2891f,682f0fc1c9067d1b83fffdc0,2025-05-22_13h51.59.789,cuing_paradigm_dot,2024.1.5,Win32,59.17159763,682d573fa47f1360d1451895,,,,,,,,,,,,,,,,,,,,,,,,,,,,223.3364,237.0104,space,10.6468,,,,,,,,,,,,,,,,,,,,,,,,,,,,,,,,,,,,,,,,,,,,,,,,,,,,,,,,,,,,,,,,,,,,,,,,,,,,,,,,,,
,,,,,,,5fa0091ec747500252d2891f,682f0fc1c9067d1b83fffdc0,2025-05-22_13h51.59.789,cuing_paradigm_dot,2024.1.5,Win32,59.17159763,682d573fa47f1360d1451895,,,,,,,,,,,237.0541,237.5245,,,237.7768,238.0584,left,0.2677,,,,,,,,,0.45,,,,,,237.5262,237.7767,238.0599,"[-0.055256269108345864,0.13656686533492557]","[-1,-1,-1]","[-0.1106717209010424,-0.06073310667724684]","[-1,-1,-1]","[-0.11132634558943966,0.08976212586847811]","[1,1,1]","[0.1820440324167677,0.03857843791495301]","[-1,-1,-1]","[-0.006494396245982002,-0.13284468794075732]","[-1,-1,-1]","[0.006825847858859113,0.15874505312885534]","[1,1,1]","[-0.06257250764275023,0.09169448586970522]","[-1,-1,-1]","[0.06051757953206376,0.10063253483330109]","[-1,-1,-1]","[-0.06448397551997515,-0.17395017075166805]","[-1,-1,-1]","[-0.05725891422559038,-0.02830311003607547]","[1,1,1]","[-0.08111741279745362,-0.08780659509860929]","[1,1,1]","[0.08972880165207542,-0.082345688130057]","[-1,-1,-1]","[-0.17431165996623532,0.05613010881280756]","[-1,-1,-1]","[0.04404837185525935,-0.04121891354383262]","[1,1,1]","[0.11578703867437716,0.002481525259396294]","[-1,-1,-1]","[0.10933780348475308,0.11515113150197122]","[1,1,1]","[-0.01369331310352995,-0.07654523551897179]","[-1,-1,-1]","[0.04679598316194588,-0.17793667581383152]","[1,1,1]","[-0.017277101011270175,0.0032126242278074507]","[1,1,1]","[0.053244304359357564,0.05473395447222485]","[-1,-1,-1]","[-0.1381153289644687,0.12346295396390357]","[1,1,1]","[0.0314385471183738,-0.08810057192518303]","[-1,-1,-1]","[-0.16478888221913393,0.012206499545690995]","[-1,-1,-1]","[-0.004699528494087969,0.10467312611779397]","[1,1,1]","[0.07286244554717557,-0.006175165418401231]","[-1,-1,-1]","[-0.10748579493775655,0.0028315648195603215]","[-1,-1,-1]","[0.16114302939567443,-0.08920248733404884]","[1,1,1]","[0.07070900916907492,-0.14076553395809752]","[-1,-1,-1]","[0.1549490821027826,-0.028455304164573217]","[1,1,1]","[0.09040017541446742,0.16384925723770316]","[-1,-1,-1]","[-0.11399390924717409,-0.11840822891684066]","[1,1,1]","[-0.10866132885385803,0.15553997424761323]","[1,1,1]","[0.02,0.02]",239.1584,0,0,0,63,1,,,,,,,
,,,,,,,5fa0091ec747500252d2891f,682f0fc1c9067d1b83fffdc0,2025-05-22_13h51.59.789,cuing_paradigm_dot,2024.1.5,Win32,59.17159763,682d573fa47f1360d1451895,,,,,,,,,,,239.1596,239.6585,,,239.9097,240.0936,right,0.1757,,,,,,,,,0.1,,,,,,239.6586,239.9097,240.0937,"[-0.0009349434084192214,-0.07413262509688578]","[-1,-1,-1]","[-0.034505053623313915,0.1095533199604848]","[1,1,1]","[-0.03370641634871608,-0.19708439156127833]","[-1,-1,-1]","[0.15811453884899784,-0.034342482431346535]","[-1,-1,-1]","[-0.04123381209618151,-0.05546130519325071]","[-1,-1,-1]","[0.011134927598023679,-0.11584810026728742]","[-1,-1,-1]","[0.09639276772731906,0.14487431862716066]","[-1,-1,-1]","[0.10422441749353804,-0.04218301516079845]","[-1,-1,-1]","[-0.1618760471381094,-0.0007671192294980004]","[-1,-1,-1]","[0.01654414708118963,0.1297271578061885]","[-1,-1,-1]","[0.059124578370852096,0.18748911209992716]","[-1,-1,-1]","[-0.1567929089470304,-0.06743171488808372]","[-1,-1,-1]","[-0.11739022757894588,0.14494217059319556]","[-1,-1,-1]","[-0.022606420479673428,0.068733790418855]","[-1,-1,-1]","[-0.010590458929640407,-0.006964595346859812]","[-1,-1,-1]","[-0.07540617244827363,-0.12345049160618278]","[-1,-1,-1]","[-0.018957914086859106,0.18821971932093817]","[-1,-1,-1]","[0.07477558994264608,-0.0982971203258025]","[-1,-1,-1]","[0.030270125240414343,-0.16050160811132222]","[-1,-1,-1]","[0.07849553137215382,0.07289995356771503]","[-1,-1,-1]","[0.08569522394865857,0.004279055198232943]","[-1,-1,-1]","[-0.17355956334864653,0.06950763188818941]","[-1,-1,-1]","[-0.14928668835243858,-0.1276686284410979]","[-1,-1,-1]","[-0.09095796280670987,-0.16179087201874856]","[1,1,1]","[0.034115927802257785,-0.03351112413510309]","[-1,-1,-1]","[-0.073544408698067,-0.014942609981822877]","[-1,-1,-1]","[0.09918748245969494,-0.1534374016311708]","[-1,-1,-1]","[0.12301557553963953,0.02752204975495715]","[-1,-1,-1]","[-0.08425188143360501,0.10620084263803539]","[-1,-1,-1]","[0.1567020239292024,0.07253885498121083]","[1,1,1]","[-0.053116920742451675,0.028950529859927212]","[-1,-1,-1]","[0.13620801399923674,-0.0771063554536428]","[-1,-1,-1]","[0.02,0.02]",241.1926,0,1,1,9,1,,,,,,,
,,,,,,,5fa0091ec747500252d2891f,682f0fc1c9067d1b83fffdc0,2025-05-22_13h51.59.789,cuing_paradigm_dot,2024.1.5,Win32,59.17159763,682d573fa47f1360d1451895,,,,,,,,,,,241.1935,241.6932,,,241.944,242.2102,left,0.2514,,,,,,,,,0.5,,,,,,241.6932,241.944,242.2103,"[0.03440069517275471,-0.09301588847463348]","[-1,-1,-1]","[-0.10762286532764229,-0.13133948753312388]","[1,1,1]","[0.08502657096352695,-0.052852045947469735]","[1,1,1]","[-0.09152783572667693,-0.018826531620179165]","[-1,-1,-1]","[0.17628918421382586,-0.003501623055591999]","[1,1,1]","[0.036631659613900164,-0.017635930018073728]","[-1,-1,-1]","[-0.013298507463827026,0.028044920005004303]","[-1,-1,-1]","[0.13439675981007654,0.014333633113060393]","[1,1,1]","[0.09920813052457761,0.15096272095874202]","[1,1,1]","[0.04767771104952846,0.1689397687292426]","[-1,-1,-1]","[0.0169305664973892,0.08230558570531595]","[-1,-1,-1]","[-0.09482298271491062,-0.07008152366412525]","[1,1,1]","[0.1576792877181778,-0.08037473700735616]","[-1,-1,-1]","[0.06741979335390076,0.05103478544091379]","[-1,-1,-1]","[-0.18977472594641911,0.015558176269038163]","[1,1,1]","[0.010180285575137244,-0.12535318898232078]","[1,1,1]","[-0.09362149819400402,0.0919201667546186]","[-1,-1,-1]","[-0.023561874395980797,-0.17213385550971422]","[-1,-1,-1]","[0.07739461153616864,-0.09456063148225359]","[1,1,1]","[0.040917722665262356,0.11523272149368138]","[1,1,1]","[-0.13596856536708551,0.0024545846337510257]","[1,1,1]","[-0.16706737145767403,-0.04976673140002937]","[1,1,1]","[0.10150402203878528,-0.1556042364203931]","[-1,-1,-1]","[-0.16407208734889286,0.10609285014196737]","[-1,-1,-1]","[-0.12536877764839346,0.14271224540659194]","[1,1,1]","[-0.16624990171427087,-0.10760048993233634]","[-1,-1,-1]","[-0.15269391735807478,0.06550699688398194]","[1,1,1]","[0.09859796727660672,0.0932063521570565]","[-1,-1,-1]","[0.013464050776489158,0.19182750473473797]","[-1,-1,-1]","[0.13341004646047167,-0.030282694244637868]","[1,1,1]","[0.15220131624637717,0.12801524657037813]","[1,1,1]","[-0.05399196018849394,0.10719287790930376]","[-1,-1,-1]","[0.02,0.02]",243.3099,0,2,2,100,1,,,,,,,
,,,,,,,5fa0091ec747500252d2891f,682f0fc1c9067d1b83fffdc0,2025-05-22_13h51.59.789,cuing_paradigm_dot,2024.1.5,Win32,59.17159763,682d573fa47f1360d1451895,,,,,,,,,,,243.3109,243.8104,,,244.0625,244.2794,left,0.1887,,,,,,,,,0.6,,,,,,243.8104,244.0625,244.2795,"[-0.06171438282139892,-0.029225463813971373]","[-1,-1,-1]","[-0.006021861515478024,-0.14969505686135007]","[1,1,1]","[-0.0002238435918543045,0.19660775672279351]","[1,1,1]","[0.17052265147008933,-0.09739758184201568]","[1,1,1]","[-0.1426347752432106,-0.07288209891489739]","[1,1,1]","[0.00367420711817053,-0.08841473631263336]","[-1,-1,-1]","[0.15958924808074818,-0.054022573760991975]","[1,1,1]","[-0.06051760068664989,0.060000196258227674]","[-1,-1,-1]","[-0.08131673528389387,0.10643400190331705]","[1,1,1]","[0.04972268219238425,0.08287917203889203]","[1,1,1]","[-0.1848902703313493,0.0389422679345392]","[-1,-1,-1]","[-0.06900968843156226,-0.1278891948317841]","[1,1,1]","[0.06454816816817413,-0.1479805151732396]","[1,1,1]","[0.05280404778529309,-0.06049796032665844]","[1,1,1]","[-0.161603650236598,-0.11565668999195072]","[1,1,1]","[-0.018553196909932557,0.14853819822552652]","[-1,-1,-1]","[0.19106765876832194,0.05335569754620387]","[-1,-1,-1]","[-0.07480343777233912,0.17082903751047515]","[1,1,1]","[0.09327659774393499,0.01699206135210787]","[1,1,1]","[0.10807146554919504,0.07849056379018401]","[1,1,1]","[0.10656873441394318,0.1665713923330372]","[1,1,1]","[-0.07274840627148234,-0.1755435671853768]","[-1,-1,-1]","[-0.020906846553774238,0.10035324710129986]","[-1,-1,-1]","[-0.18254500551829367,-0.05508072196268988]","[-1,-1,-1]","[0.0618091728340891,0.15651535483384058]","[1,1,1]","[0.09522950038400166,-0.037510342252440015]","[1,1,1]","[-0.14502715858736687,-0.031620144884848864]","[-1,-1,-1]","[0.17331092599568598,0.09477244090690014]","[1,1,1]","[0.16688450855291864,-0.013503930564023695]","[-1,-1,-1]","[0.04926792510759845,-0.005247902020859187]","[-1,-1,-1]","[0.006547745280094272,0.03388844412768277]","[1,1,1]","[-0.10055764349512267,0.05806175733588495]","[-1,-1,-1]","[0.02,0.02]",245.3781,0,3,3,153,1,,,,,,,
,,,,,,,5fa0091ec747500252d2891f,682f0fc1c9067d1b83fffdc0,2025-05-22_13h51.59.789,cuing_paradigm_dot,2024.1.5,Win32,59.17159763,682d573fa47f1360d1451895,,,,,,,,,,,245.3804,245.8782,,,246.1287,246.4284,right,0.286,,,,,,,,,0.4,,,,,,245.8785,246.1286,246.4285,"[-0.1641079137708326,0.068047597277398]","[1,1,1]","[-0.04472396050620538,0.08493181591272801]","[-1,-1,-1]","[0.13502573808306428,0.029787881331918967]","[1,1,1]","[0.007096491537997091,0.17496756411102096]","[-1,-1,-1]","[0.054275780995508595,0.055607545614051686]","[-1,-1,-1]","[0.09296682859528352,-0.10441887565664787]","[-1,-1,-1]","[0.08762022463668916,-0.1590634634494815]","[1,1,1]","[0.04980269154132961,-0.10300473276433215]","[-1,-1,-1]","[-0.010013887538575844,-0.05987494060188652]","[1,1,1]","[-0.17209015466549005,-0.03878442836763202]","[1,1,1]","[-0.11383277965843819,-0.15224892408163937]","[-1,-1,-1]","[-0.06703221415308548,-0.056807926817262766]","[-1,-1,-1]","[0.007801280487323495,0.0017990938190656444]","[-1,-1,-1]","[0.055498905823422026,0.1898333156534016]","[-1,-1,-1]","[0.08348253013541186,0.010119529313710952]","[-1,-1,-1]","[0.1566354254274903,-0.021787228770837008]","[1,1,1]","[-0.12749214858170804,-0.03468722129605054]","[-1,-1,-1]","[0.08565045455917497,-0.04733130868843337]","[-1,-1,-1]","[-0.09180418377519343,0.13726952144772658]","[1,1,1]","[-0.10380511258270188,0.040287906332986345]","[-1,-1,-1]","[0.04680785969037371,-0.15271016741033297]","[-1,-1,-1]","[0.10658523721705238,0.07891860361523517]","[1,1,1]","[-0.16736898163557182,0.014979308208014587]","[-1,-1,-1]","[-0.114493373774498,-0.0847695003717994]","[-1,-1,-1]","[0.15543499062978108,0.10037908025290117]","[1,1,1]","[0.07674891567550648,0.10902091722159661]","[-1,-1,-1]","[-0.08171679781711016,-0.014289064140645602]","[1,1,1]","[-0.04596454668687603,-0.17738930709961193]","[-1,-1,-1]","[0.13042418987404092,-0.07333415286782077]","[1,1,1]","[-0.15405841214115074,0.10808713193632706]","[1,1,1]","[-0.032570758702812896,0.1936012317360642]","[-1,-1,-1]","[0.017767226191177186,0.079147919103227]","[1,1,1]","[0.02,0.02]",247.529,0,4,4,36,1,,,,,,,
,,,,,,,5fa0091ec747500252d2891f,682f0fc1c9067d1b83fffdc0,2025-05-22_13h51.59.789,cuing_paradigm_dot,2024.1.5,Win32,59.17159763,682d573fa47f1360d1451895,,,,,,,,,,,247.5303,248.029,,,248.2687,248.6642,left,0.3713,,,,,,,,,0.6,,,,,,248.029,248.2686,248.6643,"[-0.16213355243697017,-0.08535403703020247]","[1,1,1]","[-0.12577372777836668,0.12809074462081688]","[-1,-1,-1]","[-0.12216456364530859,0.03856262493012206]","[1,1,1]","[-0.018944162685589114,0.1561587235371052]","[-1,-1,-1]","[-0.07945447414066437,-0.10272782597252098]","[-1,-1,-1]","[0.026940564809153522,0.1018889476754089]","[1,1,1]","[-0.1104038731251641,-0.054678052450655615]","[1,1,1]","[0.05024251980816978,0.18797989357827308]","[1,1,1]","[0.008120273715361477,0.06029593114189989]","[1,1,1]","[-0.18503987610387343,-0.008781935739657127]","[-1,-1,-1]","[0.18758256688204458,0.059593278294374497]","[-1,-1,-1]","[-0.03931798869000314,-0.1893345722011188]","[1,1,1]","[-0.014134864458227052,-0.0821500527233135]","[1,1,1]","[0.07508695523509691,-0.08118982079941586]","[-1,-1,-1]","[-0.1731864748803619,0.08029158473304819]","[-1,-1,-1]","[0.03260067394309754,0.015443343768534424]","[1,1,1]","[-0.006679557378887216,0.19643444104331695]","[1,1,1]","[-0.09192034115293139,0.16914758000478392]","[-1,-1,-1]","[-0.06325972488499154,-0.033901717726462804]","[1,1,1]","[0.09882863578009934,0.06328544256284888]","[1,1,1]","[-0.09745577818612092,0.07609493434828751]","[1,1,1]","[0.17136343818566313,0.10148877715862815]","[-1,-1,-1]","[-0.0027633634251065433,-0.026730932981677516]","[1,1,1]","[-0.1432225610215469,-0.1345151160797397]","[1,1,1]","[0.03148886330832536,-0.06414594065920766]","[-1,-1,-1]","[-0.1285612586530362,-0.005484516145867567]","[1,1,1]","[0.11844858076803859,-0.03764601023606456]","[-1,-1,-1]","[0.10381331846704478,0.014605667019748012]","[-1,-1,-1]","[0.14255751807286324,0.03925279774625306]","[1,1,1]","[0.19604816033135394,-0.012657421718557337]","[1,1,1]","[-0.06450746693327808,0.04956405482127838]","[1,1,1]","[0.02820289255324702,0.15260521720262957]","[-1,-1,-1]","[0.02,0.02]",249.7636,0,5,5,163,1,,,,,,,
,,,,,,,5fa0091ec747500252d2891f,682f0fc1c9067d1b83fffdc0,2025-05-22_13h51.59.789,cuing_paradigm_dot,2024.1.5,Win32,59.17159763,682d573fa47f1360d1451895,,,,,,,,,,,249.765,250.2639,,,250.519,250.7151,right,0.1716,,,,,,,,,0.1,,,,,,250.2641,250.5189,250.7152,"[-0.15817306244013055,0.10002071497671376]","[-1,-1,-1]","[0.044842257362246556,0.04578538948326608]","[-1,-1,-1]","[0.012028021499831948,-0.0013426213618397752]","[-1,-1,-1]","[0.17348358436405892,-0.0627417764465527]","[-1,-1,-1]","[-0.02083564428813367,-0.07363225024969697]","[-1,-1,-1]","[-0.05854146994985682,-0.012157608925574766]","[-1,-1,-1]","[-0.10907963661685305,-0.04100570364149508]","[-1,-1,-1]","[-0.08242632261118134,-0.1420614786170471]","[-1,-1,-1]","[-0.11256925341915887,0.09116527934998989]","[-1,-1,-1]","[-0.10248119408788167,0.13692689432198937]","[-1,-1,-1]","[-0.05036146565288268,0.15888027588050016]","[-1,-1,-1]","[-0.14012030084315794,0.04339946402258735]","[1,1,1]","[0.12813851572767468,-0.05539494943183597]","[1,1,1]","[0.0657523904161724,-0.15253836958277858]","[-1,-1,-1]","[0.12051595531440094,-0.0007832268636241509]","[-1,-1,-1]","[-0.03874129561200993,0.03480720495755764]","[1,1,1]","[0.06090498143193029,0.10128014083791431]","[-1,-1,-1]","[0.05323470601926303,-0.042108078846700495]","[-1,-1,-1]","[-0.19677036353775565,0.00033936263193751876]","[-1,-1,-1]","[-0.015605812895683734,-0.1358034137554233]","[-1,-1,-1]","[0.04724757951825556,-0.1938341373265455]","[-1,-1,-1]","[0.086657464503997,0.1478046840481095]","[-1,-1,-1]","[0.16800251680299988,0.03035564015807565]","[-1,-1,-1]","[0.04308647942204265,-0.10284587824159927]","[-1,-1,-1]","[-0.03562261735961755,0.11724912299034664]","[-1,-1,-1]","[-0.107998527267384,-0.0975727018260338]","[-1,-1,-1]","[0.11666577220308946,0.06905927644544903]","[-1,-1,-1]","[-0.0774441981483434,0.06952364467968976]","[-1,-1,-1]","[-0.17230656092195537,-0.039544334928818016]","[-1,-1,-1]","[-0.0988137994333943,0.03025553864378158]","[-1,-1,-1]","[-0.019905296376853458,-0.1883731049184823]","[-1,-1,-1]","[-0.054307648829424175,-0.10731808487157665]","[-1,-1,-1]","[0.02,0.02]",251.8142,0,6,6,1,1,,,,,,,
,,,,,,,5fa0091ec747500252d2891f,682f0fc1c9067d1b83fffdc0,2025-05-22_13h51.59.789,cuing_paradigm_dot,2024.1.5,Win32,59.17159763,682d573fa47f1360d1451895,,,,,,,,,,,251.8162,252.3145,,,252.5664,252.9551,right,0.3685,,,,,,,,,0.4,,,,,,252.3147,252.5663,252.9553,"[-0.16908657292902513,0.029766943333101006]","[1,1,1]","[0.0643642301492269,-0.06458864458611618]","[1,1,1]","[-0.007354088145263153,0.18764883337858176]","[-1,-1,-1]","[-0.08677850408345543,-0.12072340956560261]","[-1,-1,-1]","[0.04802828685896626,0.15917279940012524]","[-1,-1,-1]","[0.025414923894580707,0.08506789545249398]","[1,1,1]","[-0.09752298851812757,0.08568419404930376]","[1,1,1]","[-0.08677901269587267,-0.015101167429819078]","[-1,-1,-1]","[0.03536937720100854,-0.1634740220140873]","[1,1,1]","[-0.05932286605509416,0.02429444716960816]","[-1,-1,-1]","[-0.031527578921482544,0.09154881709736848]","[-1,-1,-1]","[0.17398467621655647,0.0602133482129276]","[1,1,1]","[-0.16700003073281275,-0.11001055234969606]","[-1,-1,-1]","[0.02163798011469511,0.020181514516875637]","[-1,-1,-1]","[-0.08110342230386039,-0.06443214946812892]","[-1,-1,-1]","[-0.045898867642094374,-0.11192178740329974]","[1,1,1]","[0.09892167781756173,0.010693489062602616]","[-1,-1,-1]","[0.06503104625801942,0.049903382909669426]","[-1,-1,-1]","[0.05532097790655438,-0.11562701508214145]","[1,1,1]","[-0.04013947431103912,-0.03306225650719968]","[-1,-1,-1]","[-0.08716290863732729,-0.17639473506176148]","[-1,-1,-1]","[-0.1271122009318444,-0.03997361681527249]","[1,1,1]","[-0.12628829970410993,-0.08600514842036422]","[-1,-1,-1]","[0.05663766542575895,0.11821285404203966]","[-1,-1,-1]","[0.01042111774216162,-0.05423899430272171]","[1,1,1]","[-0.014760652780021656,-0.18069294952128712]","[1,1,1]","[0.14960868226509966,0.10857514145922147]","[-1,-1,-1]","[0.12900049569120164,-0.10235347950867495]","[-1,-1,-1]","[-0.1574889295168945,0.11225469183482989]","[-1,-1,-1]","[-0.12415553992928414,0.010088797701195367]","[1,1,1]","[0.09068277427515486,-0.1608548723386004]","[-1,-1,-1]","[0.1764094078854246,-0.0858833996966547]","[1,1,1]","[0.02,0.02]",254.0491,0,7,7,34,1,,,,,,,
,,,,,,,5fa0091ec747500252d2891f,682f0fc1c9067d1b83fffdc0,2025-05-22_13h51.59.789,cuing_paradigm_dot,2024.1.5,Win32,59.17159763,682d573fa47f1360d1451895,,,,,,,,,,,254.0497,254.5492,,,254.8005,255.1345,right,0.3037,,,,,,,,,0.9,,,,,,254.5494,254.8005,255.1346,"[0.08457487615485157,0.17887527881530008]","[1,1,1]","[0.11834735787379179,-0.15061780201289382]","[1,1,1]","[-0.14322212650122138,-0.03387534953791538]","[-1,-1,-1]","[0.08687576323434454,-0.08226810852819384]","[1,1,1]","[0.04398551366610196,-0.1266799844998555]","[1,1,1]","[-0.16718019550471153,0.011397630227541426]","[1,1,1]","[0.007966843929438468,-0.03658018712831804]","[-1,-1,-1]","[-0.05974681540399397,0.037235731438722296]","[1,1,1]","[-0.031675155817977224,-0.18073803016472675]","[-1,-1,-1]","[0.040754118729737915,0.027865828776152707]","[1,1,1]","[-0.09602208159879841,-0.07019680404577895]","[1,1,1]","[-0.13644795081686875,0.04461524308424665]","[1,1,1]","[0.14273370184161782,0.07857647042062092]","[1,1,1]","[0.08332956030279878,-0.04001773111511488]","[1,1,1]","[0.04637883716396714,-0.0713560706430549]","[1,1,1]","[-0.015258492094197846,0.10405630935750973]","[1,1,1]","[0.028597092756820954,-0.1660320238452215]","[1,1,1]","[0.1517244415359439,0.021914221354432876]","[1,1,1]","[-0.006678757924314765,-0.09727742509127114]","[1,1,1]","[0.13689049349517893,-0.0825258248809026]","[1,1,1]","[-0.014486726020782343,0.159414939679777]","[1,1,1]","[0.08121266593275114,0.07881357621433983]","[1,1,1]","[-0.06873389961621942,-0.15497606191547852]","[1,1,1]","[0.09397778206788149,0.022592657129992713]","[1,1,1]","[-0.06412141764991228,0.1819718082306261]","[1,1,1]","[0.03150354730684577,0.16152223125942708]","[1,1,1]","[-0.15880532620733684,0.11649143816130901]","[1,1,1]","[-0.17401099884708304,-0.09509091443236277]","[1,1,1]","[0.0036481982561355447,0.19548730500018885]","[1,1,1]","[-0.05872662269488564,0.13373048169240698]","[1,1,1]","[-0.17411027447155986,0.07280010062830539]","[1,1,1]","[-0.09208419472798542,0.07231244810767548]","[1,1,1]","[0.02,0.02]",256.2388,0,8,8,201,1,,,,,,,
,,,,,,,5fa0091ec747500252d2891f,682f0fc1c9067d1b83fffdc0,2025-05-22_13h51.59.789,cuing_paradigm_dot,2024.1.5,Win32,59.17159763,682d573fa47f1360d1451895,,,,,,,,,,,256.2399,256.7333,,,256.9848,257.4506,right,0.4527,,,,,,,,,0.4,,,,,,256.7334,256.9847,257.4507,"[0.09677660348881578,0.07230577553328166]","[1,1,1]","[0.050428777465258,0.11582804114660636]","[1,1,1]","[-0.008123993936612388,0.06598742293827015]","[1,1,1]","[-0.10194486376171974,-0.05586421118797825]","[-1,-1,-1]","[-0.059135699281731575,-0.07822035372440782]","[-1,-1,-1]","[0.081683822500242,-0.1824884372061732]","[1,1,1]","[-0.1711688353968302,0.026377051823863514]","[1,1,1]","[-0.08835329640834606,0.0011188415670052658]","[-1,-1,-1]","[0.12189091938287747,0.0004593339879818951]","[-1,-1,-1]","[0.05252457653462625,-0.13587834038584742]","[1,1,1]","[0.03759461063941654,-0.06641685685104419]","[-1,-1,-1]","[-0.04037061889469255,-0.039042827491548325]","[-1,-1,-1]","[0.13144676319635704,-0.09550494168274211]","[-1,-1,-1]","[-0.015383023655416593,0.19480186259442636]","[-1,-1,-1]","[0.03409543282035458,0.06046444994884572]","[-1,-1,-1]","[-0.1276902068064944,0.11280812378227693]","[-1,-1,-1]","[-0.1383890009543763,-0.02157658768400544]","[-1,-1,-1]","[-0.14506608802516566,-0.07190272786879813]","[1,1,1]","[0.17395422522424672,0.016869563792541915]","[1,1,1]","[0.004109316050584412,-0.09934368882964958]","[-1,-1,-1]","[0.07708715289379711,-0.0533487828055752]","[-1,-1,-1]","[0.11128416987806147,0.14979173283630465]","[-1,-1,-1]","[-0.06464427170544382,-0.15424471542753995]","[1,1,1]","[-0.0023109420044123033,-0.15303073896428374]","[1,1,1]","[-0.09818584163849425,0.16372111630249417]","[1,1,1]","[0.1756646914815091,-0.032141957970463306]","[-1,-1,-1]","[0.1710825079625926,-0.08494630859850942]","[-1,-1,-1]","[-0.08775672452292732,0.041776766723301335]","[1,1,1]","[-0.09555008702598054,0.08492019210263814]","[1,1,1]","[-0.03495446724069621,0.024829540087722653]","[-1,-1,-1]","[-0.16190890964282495,0.08245020887018235]","[-1,-1,-1]","[0.05751370289158546,0.005345062000705126]","[-1,-1,-1]","[0.02,0.02]",258.5506,0,9,9,39,1,,,,,,,
,,,,,,,5fa0091ec747500252d2891f,682f0fc1c9067d1b83fffdc0,2025-05-22_13h51.59.789,cuing_paradigm_dot,2024.1.5,Win32,59.17159763,682d573fa47f1360d1451895,,,,,,,,,,,258.5515,259.0507,,,259.291,259.5196,left,0.2133,,,,,,,,,0.45,,,,,,259.0508,259.2909,259.5196,"[0.1729516427247365,0.02322712427401849]","[-1,-1,-1]","[0.08965905838913563,-0.050627543733245205]","[-1,-1,-1]","[-0.19909389305429043,-0.015873109400956324]","[-1,-1,-1]","[0.05811052648953076,-0.13700793697201757]","[1,1,1]","[0.06005070751695921,0.18402948287967494]","[-1,-1,-1]","[0.026644498406298674,0.07690806323136241]","[1,1,1]","[-0.18590946918392753,0.05151919584296195]","[-1,-1,-1]","[0.0027489995502905837,0.16288461891271647]","[1,1,1]","[0.001694248161819408,-0.15642508825761556]","[-1,-1,-1]","[-0.055870082863727424,-0.10518398977061753]","[1,1,1]","[-0.0994383889571083,0.13584993182960262]","[1,1,1]","[-0.053892134083519797,0.19139086837002633]","[-1,-1,-1]","[0.15531873540264415,-0.11059547352711362]","[1,1,1]","[0.1045151960030511,-0.16266547903621187]","[-1,-1,-1]","[0.12563378224472438,0.07192689636933101]","[1,1,1]","[0.04985163966224038,0.011500706002881743]","[-1,-1,-1]","[-0.06297028603921113,-0.060789307321700806]","[1,1,1]","[-0.06930624395878233,0.03354722436981484]","[-1,-1,-1]","[0.042475473018941716,-0.06044310868025343]","[1,1,1]","[-0.14809458074115592,0.10402715747438374]","[-1,-1,-1]","[0.09907927322354051,0.04168189753854584]","[-1,-1,-1]","[0.19450703785689505,-0.04640003178670958]","[1,1,1]","[-0.12655333256114612,0.010262703029727809]","[-1,-1,-1]","[-0.04809432005976529,0.07793560467882903]","[-1,-1,-1]","[0.15347006192948562,-0.03144671942767309]","[-1,-1,-1]","[0.12697860844197634,0.005707499560098973]","[-1,-1,-1]","[-0.019054304054593088,0.11091260288885459]","[1,1,1]","[-0.038323351575761465,-0.02009637357157507]","[-1,-1,-1]","[0.03517598272001082,-0.1022086310187344]","[1,1,1]","[-0.08867121733794645,-0.1587087098519606]","[1,1,1]","[-0.11163597352489897,-0.1236883824116265]","[1,1,1]","[-0.1438599039765808,0.052522884665499044]","[-1,-1,-1]","[0.02,0.02]",260.6181,0,10,10,89,1,,,,,,,
,,,,,,,5fa0091ec747500252d2891f,682f0fc1c9067d1b83fffdc0,2025-05-22_13h51.59.789,cuing_paradigm_dot,2024.1.5,Win32,59.17159763,682d573fa47f1360d1451895,,,,,,,,,,,260.6197,261.1187,,,261.359,261.636,left,0.2543,,,,,,,,,0.5,,,,,,261.1189,261.3589,261.6363,"[-0.003899790986234844,0.03620602644385844]","[1,1,1]","[0.06854536260716686,0.0913774293650343]","[1,1,1]","[0.05312886569361194,-0.0951984182647831]","[-1,-1,-1]","[-0.06347233140413851,0.06937757576079369]","[1,1,1]","[-0.14379317679969697,-0.1084420002816331]","[1,1,1]","[0.08773793054285159,-0.14979693052531864]","[1,1,1]","[0.12558594633482528,0.1221087703413617]","[-1,-1,-1]","[0.019054014838487912,-0.14484955766093358]","[1,1,1]","[-0.029972365154138807,-0.18420428203861483]","[-1,-1,-1]","[-0.030516256592074263,-0.04886521361848694]","[1,1,1]","[0.17698857840421142,-0.062282179245272094]","[-1,-1,-1]","[0.005802482884331694,0.1647067528045316]","[-1,-1,-1]","[-0.015097683422107197,-0.08798991356610394]","[-1,-1,-1]","[-0.16589929429426278,0.007497850422108242]","[-1,-1,-1]","[-0.13530991509452714,0.11936820635059234]","[-1,-1,-1]","[0.05288531867767846,-0.19211228164581476]","[1,1,1]","[-0.08983237966892252,-0.08761678141109512]","[-1,-1,-1]","[0.1651831722269675,0.09131375716411773]","[1,1,1]","[-0.1344596404669362,-0.05364350792667148]","[-1,-1,-1]","[0.09222336452456757,-0.10829837097902333]","[1,1,1]","[0.08543559490745149,0.024420403643004875]","[-1,-1,-1]","[-0.04553571643356585,0.019681378670293175]","[-1,-1,-1]","[0.09595647944695383,-0.019851388850784985]","[1,1,1]","[0.13408994864378293,-0.08295069448168031]","[-1,-1,-1]","[0.031191160014146922,0.12946824132160986]","[1,1,1]","[-0.1525447069570567,0.0494148992363945]","[-1,-1,-1]","[0.168901258459494,0.03128591472063106]","[-1,-1,-1]","[-0.07692585643868888,0.1287210612869341]","[1,1,1]","[-0.10661847530381069,-0.005048853459641689]","[1,1,1]","[-0.05154205117250549,-0.10796714397071248]","[-1,-1,-1]","[0.19140752001021813,-0.0024526917248824686]","[1,1,1]","[-0.06890646304525297,-0.15139769073953038]","[1,1,1]","[0.02,0.02]",262.7357,0,11,11,91,1,,,,,,,
,,,,,,,5fa0091ec747500252d2891f,682f0fc1c9067d1b83fffdc0,2025-05-22_13h51.59.789,cuing_paradigm_dot,2024.1.5,Win32,59.17159763,682d573fa47f1360d1451895,,,,,,,,,,,262.7375,263.2364,,,263.4876,263.7534,left,0.2536,,,,,,,,,0.9,,,,,,263.2367,263.4872,263.7536,"[-0.17090886495451985,0.0835674871561575]","[1,1,1]","[-0.12045613916214552,-0.052484949018574735]","[1,1,1]","[-0.11772313726585534,0.09296725285586971]","[1,1,1]","[-0.05364182750691346,0.06230353112666457]","[1,1,1]","[0.10813840685666536,-0.09341225443351152]","[1,1,1]","[-0.19243127207025562,0.013274750400698912]","[1,1,1]","[-0.11535891678236612,0.02606873971326422]","[1,1,1]","[-0.07149316684151143,0.13654524297572815]","[-1,-1,-1]","[-0.06442025278964945,0.0031646085426025156]","[1,1,1]","[0.1410604356451238,0.029785562798436735]","[1,1,1]","[0.0432448499702115,0.1653032343732943]","[1,1,1]","[-0.027796561128004754,-0.11608957583769113]","[-1,-1,-1]","[-0.010426256999796256,0.15270357849279226]","[-1,-1,-1]","[-0.03292347327314778,-0.15688722892132453]","[1,1,1]","[0.036217634476169394,0.07225793574175475]","[1,1,1]","[0.07223542734822466,-0.012072157688229335]","[1,1,1]","[-0.15009108977878,0.12363802155790554]","[1,1,1]","[0.17979862069832409,-0.05632744991810183]","[1,1,1]","[0.07443330217853181,-0.12515691373301813]","[1,1,1]","[-0.1025187186554725,0.16503945939301415]","[1,1,1]","[0.09538484448981698,0.1365704003779858]","[1,1,1]","[0.0732066110833388,0.04774947238762471]","[1,1,1]","[0.19146552258985197,-0.0022163758362619404]","[1,1,1]","[-0.14526971683569867,-0.08601109373777525]","[1,1,1]","[0.17930218042173032,0.08569365011253625]","[1,1,1]","[0.15310620380746845,-0.12232478178695984]","[1,1,1]","[0.04148447507719,-0.04089035219745064]","[1,1,1]","[-0.05541221929373565,0.17702687318892624]","[1,1,1]","[0.03214983380393832,-0.09427771313697966]","[1,1,1]","[-0.15956146754668735,-0.037034997602256356]","[1,1,1]","[-0.025776651981008727,-0.0725103735623226]","[1,1,1]","[-0.0067572042771519,-0.1926354590014125]","[1,1,1]","[0.02,0.02]",264.8536,0,12,12,198,1,,,,,,,
,,,,,,,5fa0091ec747500252d2891f,682f0fc1c9067d1b83fffdc0,2025-05-22_13h51.59.789,cuing_paradigm_dot,2024.1.5,Win32,59.17159763,682d573fa47f1360d1451895,,,,,,,,,,,264.8546,265.3537,,,265.593,265.8883,left,0.2742,,,,,,,,,0.55,,,,,,265.3537,265.593,265.8884,"[-0.04450587553456919,-0.12097068404977944]","[-1,-1,-1]","[-0.16284250633689695,-0.08368690778245995]","[1,1,1]","[0.09592384081501008,-0.12270460101266088]","[-1,-1,-1]","[-0.13766037675654336,0.05166850946685877]","[-1,-1,-1]","[0.030612576157274564,0.11739650709444048]","[-1,-1,-1]","[-0.022224375879759665,0.055544920854620664]","[-1,-1,-1]","[0.0278506111336552,-0.15743470267260015]","[1,1,1]","[-0.031144939266730117,0.17324069256471836]","[1,1,1]","[0.07397815263057292,0.17472331057549753]","[-1,-1,-1]","[-0.028399406401487397,0.1297260071383664]","[-1,-1,-1]","[0.004691124855586148,-0.019502309997768256]","[1,1,1]","[0.1561288760154835,0.0935995250857395]","[1,1,1]","[0.036981953248357236,-0.06039307800620656]","[1,1,1]","[-0.02713388858943159,-0.1621933560248785]","[1,1,1]","[-0.03358423506350973,-0.0800532016006062]","[1,1,1]","[0.14482213257857682,-0.06462350111533346]","[1,1,1]","[0.05361834054824812,0.06348236937549448]","[1,1,1]","[-0.17495065057939943,0.09270010457398202]","[-1,-1,-1]","[0.029594286519569944,0.014706010001320234]","[-1,-1,-1]","[-0.10399724424747939,-0.054409996814490574]","[1,1,1]","[0.156112651487714,-0.11273248260538123]","[1,1,1]","[-0.07409602346186209,0.0702733169258825]","[-1,-1,-1]","[0.11978753000141615,0.1309933187861931]","[1,1,1]","[0.008379067313741306,-0.11550194874683446]","[-1,-1,-1]","[-0.08984655975620927,0.017040771208013377]","[1,1,1]","[0.1200872772944915,0.04517374865662095]","[-1,-1,-1]","[-0.10589264228090663,0.1313246005016957]","[-1,-1,-1]","[-0.07649307137348767,-0.08843055284238577]","[1,1,1]","[0.15377178369097846,-0.012157513399862763]","[1,1,1]","[-0.1742022682656042,-0.03470968716830838]","[1,1,1]","[-0.030730262058192806,0.013442580755077115]","[-1,-1,-1]","[0.089078556030254,-0.016094112306308635]","[1,1,1]","[0.02,0.02]",266.988,0,13,13,147,1,,,,,,,
,,,,,,,5fa0091ec747500252d2891f,682f0fc1c9067d1b83fffdc0,2025-05-22_13h51.59.789,cuing_paradigm_dot,2024.1.5,Win32,59.17159763,682d573fa47f1360d1451895,,,,,,,,,,,266.9896,267.4885,,,267.7399,268.0731,left,0.305,,,,,,,,,0.55,,,,,,267.4888,267.7398,268.0731,"[0.02367629876944186,-0.1511286256680353]","[-1,-1,-1]","[-0.18961702858570056,-0.02196700479887412]","[1,1,1]","[-0.1422998416228872,-0.07450049748938434]","[1,1,1]","[0.17112241389188265,0.02951548517103619]","[1,1,1]","[-0.09480737816630698,-0.04080344318038328]","[1,1,1]","[0.11195025331937204,0.01129660480471407]","[1,1,1]","[-0.12428646376798119,-0.11081450115475368]","[1,1,1]","[-0.054672001172844806,-0.09781176440480074]","[-1,-1,-1]","[0.112403523114839,-0.1154004729266421]","[1,1,1]","[0.03786860120556982,0.08830291132811952]","[-1,-1,-1]","[-0.01724132699027654,0.18022254403562019]","[-1,-1,-1]","[0.11805166218822996,0.12365979327758915]","[1,1,1]","[-0.1065381568782541,0.04410990691801377]","[-1,-1,-1]","[-0.1778549633219887,0.027112128733401575]","[-1,-1,-1]","[0.19974280038366327,-0.0026257384739577587]","[1,1,1]","[0.09009678263996437,-0.06506828715916413]","[1,1,1]","[-0.017305304952208465,-0.013606937137594892]","[-1,-1,-1]","[0.036796258778189574,0.1500655289060004]","[1,1,1]","[0.09106456652273381,0.17087712012178521]","[-1,-1,-1]","[-0.06466068867483406,-0.1599143259332579]","[-1,-1,-1]","[-0.042745818524809256,0.054699418155584524]","[1,1,1]","[0.07002858740494626,-0.1443437971413164]","[1,1,1]","[0.16243664593459126,-0.051953523296781996]","[-1,-1,-1]","[-0.07061825577371726,0.16656471699849643]","[-1,-1,-1]","[0.021432622148342937,-0.03154863354018571]","[1,1,1]","[0.14716904555478186,-0.011457430902523854]","[1,1,1]","[0.14786985488965623,0.06868970095442212]","[1,1,1]","[-0.04004926490816673,0.09698433526945817]","[-1,-1,-1]","[0.021572417722712525,0.19486943155215283]","[-1,-1,-1]","[-0.13058376855266537,0.12652740431801182]","[1,1,1]","[-0.08903630910889464,0.10643442280633678]","[1,1,1]","[-0.023889030471819596,-0.17356637313834847]","[-1,-1,-1]","[0.02,0.02]",269.1724,0,14,14,139,1,,,,,,,
,,,,,,,5fa0091ec747500252d2891f,682f0fc1c9067d1b83fffdc0,2025-05-22_13h51.59.789,cuing_paradigm_dot,2024.1.5,Win32,59.17159763,682d573fa47f1360d1451895,,,,,,,,,,,269.1741,269.6728,,,269.9291,270.2573,left,0.3073,,,,,,,,,0.5,,,,,,269.673,269.929,270.2575,"[-0.018902951667049278,0.054857879443898576]","[1,1,1]","[-0.15253131095221126,0.010918241918096856]","[-1,-1,-1]","[-0.10020843746361487,-0.044313831887952224]","[-1,-1,-1]","[-0.015401521168102093,-0.00997217703444127]","[1,1,1]","[-0.1302149653106258,0.11199778469112809]","[1,1,1]","[0.05369097255803047,-0.10486844982459734]","[-1,-1,-1]","[0.04257056474685774,-0.1902812587709192]","[-1,-1,-1]","[0.02542493127139556,0.1649219451521915]","[-1,-1,-1]","[0.06984555221263722,-0.026549878412394787]","[-1,-1,-1]","[-0.17194086257188299,-0.040171718305206175]","[-1,-1,-1]","[-0.17040474902704766,0.06517239980908536]","[1,1,1]","[-0.04781591260223167,-0.137665638107529]","[1,1,1]","[0.17696286156687746,-0.03133921125473018]","[1,1,1]","[-0.13781965018782238,-0.1261138626787486]","[1,1,1]","[0.012644201469507019,0.0833234574217875]","[-1,-1,-1]","[-0.02672694819606473,0.1613446899432621]","[-1,-1,-1]","[-0.10111599279833039,-0.09125814029780296]","[-1,-1,-1]","[0.14511712330994328,-0.11690099897540307]","[-1,-1,-1]","[0.09283543605274518,0.07421666648616511]","[1,1,1]","[-0.09304039691905178,0.14956108618926445]","[-1,-1,-1]","[0.11060849456549893,-0.02999299658163794]","[1,1,1]","[-0.01061133947077792,-0.1978038164752037]","[1,1,1]","[-0.01718193889512458,-0.11078383979249616]","[-1,-1,-1]","[0.07304272211917683,0.1150655777482924]","[-1,-1,-1]","[0.08599855628210736,0.02399850264258135]","[1,1,1]","[-0.10325677386291952,0.05044368269497092]","[-1,-1,-1]","[0.12292760672683807,0.14380701831066106]","[-1,-1,-1]","[-0.06620529545290978,0.18401292183000972]","[1,1,1]","[-0.05254175519625695,-0.04685592586521724]","[1,1,1]","[-0.00502266663118904,0.1985443987234874]","[1,1,1]","[0.03867858449840775,0.01717042934004208]","[1,1,1]","[0.14408712170463167,-0.0751695226216668]","[1,1,1]","[0.02,0.02]",271.3567,0,15,15,117,1,,,,,,,
,,,,,,,5fa0091ec747500252d2891f,682f0fc1c9067d1b83fffdc0,2025-05-22_13h51.59.789,cuing_paradigm_dot,2024.1.5,Win32,59.17159763,682d573fa47f1360d1451895,,,,,,,,,,,271.3586,271.8571,,,272.1081,272.3914,left,0.2559,,,,,,,,,0.4,,,,,,271.8575,272.108,272.3915,"[0.14090858599627662,-0.0016720815275698966]","[-1,-1,-1]","[-0.12348645806678127,-0.06085593788571722]","[-1,-1,-1]","[-0.08821362008534693,-0.15638564330041269]","[1,1,1]","[-0.020077461400826977,-0.1553980195991758]","[1,1,1]","[0.007438759763797712,0.0315138178034658]","[1,1,1]","[0.17770697563269605,-0.06275142507966065]","[1,1,1]","[0.10713538387481623,0.07533197671584889]","[1,1,1]","[-0.05105378487628362,-0.0392710962288262]","[-1,-1,-1]","[0.03267571632459161,0.07287480221151259]","[-1,-1,-1]","[0.032178575292480624,0.15118880888383618]","[-1,-1,-1]","[-0.019565468300352527,0.1399620238264344]","[1,1,1]","[0.1471945115682337,0.12940516728052867]","[1,1,1]","[0.10266518785548229,0.1543565923691928]","[1,1,1]","[0.04463747673984976,-0.17209839647592373]","[-1,-1,-1]","[0.06162024235358068,0.10800931285812372]","[-1,-1,-1]","[0.09524566090427154,0.024453660607204223]","[-1,-1,-1]","[-0.0005974864295731441,-0.008600503146396246]","[-1,-1,-1]","[0.09871807861594835,-0.044668368689646916]","[-1,-1,-1]","[-0.12997730377928596,0.14437413720354825]","[1,1,1]","[0.17603249404134874,0.07464353770660613]","[-1,-1,-1]","[0.1188589724242732,-0.14506437212168188]","[1,1,1]","[0.05142108741784532,-0.11920151324895174]","[-1,-1,-1]","[-0.005033305562763909,0.09693960099406326]","[1,1,1]","[-0.12418347394057075,-0.12345879073111572]","[-1,-1,-1]","[-0.06594107860992023,0.04663137212627854]","[-1,-1,-1]","[0.0054589606650100745,-0.09726159443821575]","[-1,-1,-1]","[-0.09080728704567151,0.013701803390681494]","[1,1,1]","[-0.026986072104988483,0.19613625670131093]","[-1,-1,-1]","[-0.06355441139769603,0.15116771375699706]","[-1,-1,-1]","[-0.16711476504155454,-0.05216067670243152]","[1,1,1]","[0.04560374254292491,-0.04539573075675314]","[-1,-1,-1]","[0.15994862312644337,-0.10132767060812044]","[-1,-1,-1]","[0.02,0.02]",273.491,0,16,16,54,1,,,,,,,
,,,,,,,5fa0091ec747500252d2891f,682f0fc1c9067d1b83fffdc0,2025-05-22_13h51.59.789,cuing_paradigm_dot,2024.1.5,Win32,59.17159763,682d573fa47f1360d1451895,,,,,,,,,,,273.4926,273.9911,,,274.2308,274.793,right,0.5387,,,,,,,,,0.5,,,,,,273.9914,274.2308,274.7931,"[0.05744359199307364,-0.1357730332336986]","[1,1,1]","[-0.03554035486599794,0.033765453869203974]","[-1,-1,-1]","[0.1391231697916805,0.13510231589951185]","[-1,-1,-1]","[0.11798338991668283,0.08189261204495066]","[-1,-1,-1]","[0.01860368957431526,-0.1022344571827855]","[1,1,1]","[0.10236591506306565,-0.16084680907261556]","[-1,-1,-1]","[-0.1420676955738824,0.08306002583732788]","[1,1,1]","[0.13711826046899664,-0.07059554274091928]","[-1,-1,-1]","[0.12562196951566232,0.00656211701370479]","[1,1,1]","[-0.004635479559552176,0.11011816951967829]","[-1,-1,-1]","[-0.023887218127224254,-0.13883348318144756]","[-1,-1,-1]","[0.03307427829631489,-0.01027902350251445]","[1,1,1]","[-0.11284164905813185,-0.02191029813365811]","[1,1,1]","[0.16556088525669976,0.052043550309026715]","[1,1,1]","[0.07067590230157503,-0.09734958436736665]","[1,1,1]","[-0.06967868958113749,-0.003814964883510717]","[1,1,1]","[-0.14833354581945196,0.011751237281340757]","[-1,-1,-1]","[0.04839659358534641,0.11571613696764257]","[1,1,1]","[0.04725447713970968,0.037054746068473775]","[1,1,1]","[-0.1731184734164716,-0.03470144738174877]","[-1,-1,-1]","[0.017766229937863427,-0.1603981673872504]","[1,1,1]","[0.08679463291351482,0.13010567771451012]","[-1,-1,-1]","[0.04727353756565037,0.17977365000107495]","[1,1,1]","[-0.18977134526986658,0.04394793013322499]","[-1,-1,-1]","[-0.16077866960429754,-0.07481983673622858]","[-1,-1,-1]","[-0.03684333755810453,0.082520825589415]","[-1,-1,-1]","[-0.10074648885001643,0.14196672734709145]","[1,1,1]","[0.17362443349413675,-0.051788504974834]","[-1,-1,-1]","[0.16400521341518076,0.0921792924598233]","[1,1,1]","[-0.026760125890712957,-0.18690129516502807]","[-1,-1,-1]","[-0.045658577597922106,-0.044301497420653216]","[-1,-1,-1]","[0.03466319020131185,-0.05932540117872868]","[1,1,1]","[0.02,0.02]",275.8919,0,17,17,103,1,,,,,,,
,,,,,,,5fa0091ec747500252d2891f,682f0fc1c9067d1b83fffdc0,2025-05-22_13h51.59.789,cuing_paradigm_dot,2024.1.5,Win32,59.17159763,682d573fa47f1360d1451895,,,,,,,,,,,275.8936,276.3923,,,276.6469,276.8447,right,0.176,,,,,,,,,0.1,,,,,,276.3925,276.6467,276.8447,"[0.08316551137373364,0.051582669230033275]","[-1,-1,-1]","[-0.047577365892410094,0.17812394814556942]","[-1,-1,-1]","[0.09916224366638937,0.16166819377256345]","[-1,-1,-1]","[-0.16755723965811262,0.033982574760723666]","[-1,-1,-1]","[0.16462967656566357,-0.03842540807500518]","[-1,-1,-1]","[-0.09253556152042386,-0.17214201653295036]","[-1,-1,-1]","[-0.015521423747412628,0.02208434114755275]","[-1,-1,-1]","[-0.009613784986778217,0.09231231829692918]","[-1,-1,-1]","[0.04255477013518571,0.040978892450667596]","[-1,-1,-1]","[0.030008494647069103,0.07944486204467409]","[-1,-1,-1]","[-0.10040837893832677,0.10967053528116393]","[-1,-1,-1]","[0.02473988773591462,-0.10866273071112707]","[-1,-1,-1]","[0.1564502616315194,0.0453517644910287]","[1,1,1]","[-0.06271120632491832,0.06556828005898734]","[1,1,1]","[-0.09687392935710233,0.02177327432760392]","[-1,-1,-1]","[0.01079111757971009,-0.034606361664749036]","[-1,-1,-1]","[-0.02026530993274234,0.14764299160299027]","[-1,-1,-1]","[-0.022386323943998674,-0.08832406750812982]","[1,1,1]","[0.08360661995205124,-0.18077896466653035]","[-1,-1,-1]","[-0.16016445006429175,-0.0888668154368302]","[-1,-1,-1]","[-0.06919834615551686,-0.12935084397185168]","[-1,-1,-1]","[-0.13769297783587245,-0.03194174564188557]","[-1,-1,-1]","[0.09010112672631355,-0.11372567495383788]","[-1,-1,-1]","[0.12151468342600542,-0.039765715983495556]","[-1,-1,-1]","[0.16884153825914205,-0.09682356095580547]","[-1,-1,-1]","[0.07518600602056102,-0.03418134499143824]","[-1,-1,-1]","[0.030247277509014344,-0.15674460456749334]","[-1,-1,-1]","[0.16409239511723508,0.0017189766388187662]","[-1,-1,-1]","[0.16808530817577227,0.10281924246087777]","[-1,-1,-1]","[-0.08578204977261897,-0.059757432187676485]","[-1,-1,-1]","[-0.10519886797770886,0.06099617626296833]","[-1,-1,-1]","[-0.02320945579040028,-0.14261168504687588]","[-1,-1,-1]","[0.02,0.02]",277.9427,0,18,18,10,1,,,,,,,
,,,,,,,5fa0091ec747500252d2891f,682f0fc1c9067d1b83fffdc0,2025-05-22_13h51.59.789,cuing_paradigm_dot,2024.1.5,Win32,59.17159763,682d573fa47f1360d1451895,,,,,,,,,,,277.9441,278.4474,,,278.6968,279.2621,right,0.5466,,,,,,,,,0.4,,,,,,278.4475,278.6967,279.2624,"[0.11872845543712057,0.10731984731255717]","[-1,-1,-1]","[-0.09737175246320408,-0.023467392015410253]","[-1,-1,-1]","[-0.03582866839473854,0.009302166751615609]","[1,1,1]","[0.11966784979456664,-0.10644718272243647]","[-1,-1,-1]","[-0.07548367442367018,-0.10727160154056413]","[1,1,1]","[0.055998551522939914,0.09323347626309077]","[-1,-1,-1]","[-0.0059988450420259305,-0.06067690243018833]","[-1,-1,-1]","[0.04900002924780343,0.012000983675725203]","[1,1,1]","[0.1827290599945876,-0.014063735844003604]","[1,1,1]","[0.04313093735601436,0.17648104858037966]","[-1,-1,-1]","[0.040528042482989274,-0.14503582836347995]","[-1,-1,-1]","[-0.11302549643759527,0.12364519184761819]","[-1,-1,-1]","[-0.14667357114377594,-0.07494576317203311]","[-1,-1,-1]","[-0.13273802964659817,-0.1309297402054331]","[-1,-1,-1]","[0.13772605964265291,0.0526843744631885]","[-1,-1,-1]","[-0.03379518705815822,0.12248348200770817]","[-1,-1,-1]","[0.10923223724694228,-0.15181181247957815]","[1,1,1]","[-0.12967247577017157,0.02879590028729077]","[-1,-1,-1]","[-0.06675893320754794,-0.14813780623491593]","[-1,-1,-1]","[-0.045474132616339646,0.06590183455130527]","[1,1,1]","[-0.18738819720518796,-0.06737425827547931]","[1,1,1]","[0.13946097571128943,-0.06444523381669418]","[-1,-1,-1]","[-0.05264005011809099,-0.043136040420169997]","[1,1,1]","[-0.1531832913964874,0.06503732939078925]","[1,1,1]","[-0.06883778252671738,0.15111493869781878]","[1,1,1]","[-0.01789635879314839,-0.10018062923918122]","[-1,-1,-1]","[0.07542186741172835,-0.12287897722011638]","[-1,-1,-1]","[0.11977041229495403,0.014158310746894541]","[1,1,1]","[0.01845058364193609,0.13688651824349585]","[1,1,1]","[-0.1955616725457375,0.011933491734016251]","[-1,-1,-1]","[0.007070821669747474,0.06331885297760274]","[-1,-1,-1]","[0.056925219542613426,-0.08443089199860854]","[1,1,1]","[0.02,0.02]",280.3599,0,19,19,52,1,,,,,,,
,,,,,,,5fa0091ec747500252d2891f,682f0fc1c9067d1b83fffdc0,2025-05-22_13h51.59.789,cuing_paradigm_dot,2024.1.5,Win32,59.17159763,682d573fa47f1360d1451895,,,,,,,,,,,280.3622,280.86,,,281.1013,281.4955,left,0.3718,,,,,,,,,0.55,,,,,,280.8601,281.1011,281.4956,"[-0.17358396782858024,0.01830712247766851]","[1,1,1]","[0.016962130927652856,-0.06079137451349226]","[-1,-1,-1]","[-0.07309047744212255,0.04969501919271659]","[1,1,1]","[-0.1563979182253947,-0.09824376468423772]","[-1,-1,-1]","[-0.12384316603321512,0.14965137940035733]","[-1,-1,-1]","[0.037533307854383774,-0.1642066101291562]","[-1,-1,-1]","[-0.07329124031003395,0.1723686924175301]","[1,1,1]","[-0.05885777170269617,-0.06470167969087921]","[1,1,1]","[0.06273907936750696,0.05342308289059018]","[1,1,1]","[-0.11353028164772871,-0.0073248312074968265]","[1,1,1]","[0.041699393281663194,0.1504140581816392]","[-1,-1,-1]","[-0.18748093652326508,0.062383790722698305]","[1,1,1]","[-0.05721038703265286,0.005247520041152821]","[-1,-1,-1]","[-0.018194483577076252,0.14348775686828974]","[-1,-1,-1]","[0.10810752287312002,-0.08905828573686903]","[-1,-1,-1]","[-0.1364486390891905,-0.04123592542692448]","[1,1,1]","[0.0010842938687853699,-0.016098007795997522]","[1,1,1]","[-0.08560638199510683,-0.17041332180087845]","[1,1,1]","[0.008816309967040708,0.03935469284437756]","[1,1,1]","[0.09647553713637667,0.1453758780389889]","[-1,-1,-1]","[0.14964608686847353,0.06714434628114677]","[-1,-1,-1]","[0.15340910985397016,0.006260370633015243]","[1,1,1]","[0.15253483430574669,-0.12253657297487694]","[1,1,1]","[-0.029111442502296553,-0.09346722378682812]","[1,1,1]","[-0.11027855805808953,0.07407955152915806]","[1,1,1]","[-0.01899355758635449,-0.1802852410373864]","[-1,-1,-1]","[0.07658434842032548,-0.027294031042660937]","[1,1,1]","[-0.04697252709439354,0.0927542801195396]","[1,1,1]","[-0.1494765931903671,0.11186919360366364]","[-1,-1,-1]","[0.18263090311146865,0.039431231340453454]","[-1,-1,-1]","[0.1119502482298927,0.0928313091998792]","[-1,-1,-1]","[0.1056226951120344,0.030449396710311504]","[1,1,1]","[0.02,0.02]",282.5941,0,20,20,124,1,,,,,,,
,,,,,,,5fa0091ec747500252d2891f,682f0fc1c9067d1b83fffdc0,2025-05-22_13h51.59.789,cuing_paradigm_dot,2024.1.5,Win32,59.17159763,682d573fa47f1360d1451895,,,,,,,,,,,282.5964,283.0955,,,283.3516,283.6633,left,0.2923,,,,,,,,,0.6,,,,,,283.0956,283.3515,283.6634,"[-0.16465176309647978,-0.06396852229953578]","[-1,-1,-1]","[0.0941111227114631,0.12715593094377958]","[1,1,1]","[0.11959855318173142,-0.12043957715591877]","[1,1,1]","[0.15405532368383434,-0.056400520983414124]","[1,1,1]","[0.16552444049917492,0.006436616853507409]","[1,1,1]","[-0.10321717184570944,0.062304893713910514]","[-1,-1,-1]","[-0.00909044641530033,0.060903651444520014]","[-1,-1,-1]","[-0.15339439409886477,0.012363379124952415]","[1,1,1]","[-0.07118319073697657,-0.05232559737610693]","[-1,-1,-1]","[0.0936775805640372,0.04862057860636606]","[1,1,1]","[-0.045332916727063056,-0.16391353120044988]","[-1,-1,-1]","[0.04329327714935387,-0.18636204383258784]","[-1,-1,-1]","[-0.04627070978750408,-0.011024498268346712]","[-1,-1,-1]","[-0.06901006577167604,0.12390878924443575]","[1,1,1]","[0.001501220314118204,-0.08170983824535374]","[1,1,1]","[-0.002478311461888868,-0.0010729311895258961]","[1,1,1]","[0.15753556796025428,0.10365976925379593]","[1,1,1]","[0.11147586564483329,0.16416543973548667]","[-1,-1,-1]","[0.08379078535650085,-0.15384053141000542]","[1,1,1]","[0.06684223871693944,-0.11558127477582557]","[1,1,1]","[-0.06725864448172363,0.08044050686539765]","[-1,-1,-1]","[-0.10831938164609815,-0.0961328866422197]","[1,1,1]","[0.06071959933978944,-0.029507171642506453]","[-1,-1,-1]","[0.019663676640022026,-0.1223402105594685]","[-1,-1,-1]","[0.043810027317725604,-0.07639218716837813]","[-1,-1,-1]","[-0.04370528857087616,-0.11391066329918871]","[1,1,1]","[-0.1795255343589111,0.0654060524765291]","[1,1,1]","[-0.12274374373400936,-0.14971792576428486]","[1,1,1]","[-0.08422499938299628,0.025965777403556545]","[1,1,1]","[0.02087795168095996,0.09427415679059194]","[1,1,1]","[0.06677128892248223,0.015894401649624263]","[-1,-1,-1]","[0.13278655417258747,0.060199658343527446]","[1,1,1]","[0.02,0.02]",284.7626,0,21,21,154,1,,,,,,,
,,,,,,,5fa0091ec747500252d2891f,682f0fc1c9067d1b83fffdc0,2025-05-22_13h51.59.789,cuing_paradigm_dot,2024.1.5,Win32,59.17159763,682d573fa47f1360d1451895,,,,,,,,,,,284.7642,285.263,,,285.5167,285.8481,left,0.3046,,,,,,,,,0.4,,,,,,285.2632,285.5167,285.8483,"[0.0408661687446979,-0.0861780704972524]","[-1,-1,-1]","[0.028053940496438334,0.08854756826496013]","[1,1,1]","[-0.17273914272738294,-0.07974296833375069]","[-1,-1,-1]","[0.032500675313000466,0.044200782534555644]","[-1,-1,-1]","[0.09011499706168503,0.00792013189834272]","[-1,-1,-1]","[-0.026328775011190953,0.13395167812569564]","[-1,-1,-1]","[0.1398618841511059,0.07509725190493477]","[-1,-1,-1]","[-0.04306709324938293,-0.11856607760206903]","[-1,-1,-1]","[0.11166786110968532,-0.12950902318363855]","[-1,-1,-1]","[0.02692748922777037,-0.1314887863121617]","[-1,-1,-1]","[0.13585077169214957,0.11955571679154461]","[-1,-1,-1]","[0.17433246937630395,0.01573319893490678]","[1,1,1]","[0.03344186992863486,-0.02354508085137658]","[1,1,1]","[0.06408195101045684,0.11748578217285977]","[1,1,1]","[-0.1375875429515532,-0.10845272491910095]","[-1,-1,-1]","[-0.13428175467341366,0.06840844282168819]","[-1,-1,-1]","[-0.17838402568217349,0.004182604547214291]","[-1,-1,-1]","[-0.10156191516277721,-0.03893092532406248]","[-1,-1,-1]","[-0.012608050207045177,-0.15355735724466404]","[1,1,1]","[0.06765891661766146,-0.04434307067268246]","[1,1,1]","[0.08527215959873909,0.05066666678706496]","[-1,-1,-1]","[0.043774709894882975,-0.1677700942387208]","[1,1,1]","[-0.03134360354740247,0.002089170838798125]","[1,1,1]","[0.12524271162745468,-0.015710652300022006]","[1,1,1]","[0.11496284362695666,-0.08218703303137782]","[1,1,1]","[-0.06358409780343288,0.18164273472610365]","[1,1,1]","[0.08172520193537688,0.16924820759812892]","[-1,-1,-1]","[-0.1292978962702153,0.02636784243289509]","[1,1,1]","[0.020714689612849512,0.1841183613884021]","[-1,-1,-1]","[-0.09202867991715649,-0.13172309826304837]","[1,1,1]","[0.1715033842980759,-0.06006913190428311]","[-1,-1,-1]","[-0.07551184386913172,0.0982896234136234]","[-1,-1,-1]","[0.02,0.02]",286.947,0,22,22,43,1,,,,,,,
,,,,,,,5fa0091ec747500252d2891f,682f0fc1c9067d1b83fffdc0,2025-05-22_13h51.59.789,cuing_paradigm_dot,2024.1.5,Win32,59.17159763,682d573fa47f1360d1451895,,,,,,,,,,,286.9487,287.4475,,,287.7033,288.015,left,0.2927,,,,,,,,,0.6,,,,,,287.4478,287.7032,288.0151,"[0.15540020618056635,0.07301623391150167]","[1,1,1]","[0.07079055465180244,0.13028428611389645]","[1,1,1]","[-0.1347978663177303,0.075195172860057]","[-1,-1,-1]","[-0.1644204680058807,-0.10375443132251837]","[1,1,1]","[0.1963064682348856,-0.002544220153040833]","[1,1,1]","[-0.025929244577852253,-0.02919677533032885]","[-1,-1,-1]","[0.053052189781560184,0.1892968813740489]","[1,1,1]","[-0.14556513316317665,0.12464846133826868]","[1,1,1]","[0.010065581366006318,0.1951949352659985]","[1,1,1]","[-0.047205259217020575,-0.07432381461957636]","[-1,-1,-1]","[0.006522919788612378,0.15060689684139963]","[1,1,1]","[-0.0057767887403705675,-0.14193094965271322]","[1,1,1]","[0.06086216137183787,0.015767711004353202]","[1,1,1]","[-0.16385387666211895,-0.01290293313294009]","[-1,-1,-1]","[-0.10122285325728847,-0.09768123540828255]","[-1,-1,-1]","[0.09510701463859039,-0.12243784201651822]","[1,1,1]","[0.07388946969613071,-0.07991971339935858]","[-1,-1,-1]","[-0.1847205501535232,-0.06762760794102765]","[-1,-1,-1]","[-0.04074444481632035,0.1868280362894887]","[-1,-1,-1]","[-0.053882171826909596,0.1391703919049482]","[-1,-1,-1]","[0.1724332065226425,-0.08218723440370952]","[1,1,1]","[0.11146229331735683,0.1129147177641133]","[1,1,1]","[-0.11001096293576652,-0.04161789866031668]","[1,1,1]","[0.03155482138229543,-0.18006391351893034]","[-1,-1,-1]","[0.12521943732611382,-0.07918825078677025]","[-1,-1,-1]","[-0.0593656436348558,0.005026301370490976]","[-1,-1,-1]","[0.13471232513176057,0.14612527773669845]","[-1,-1,-1]","[0.19312358839415672,0.04201681652670695]","[1,1,1]","[-0.06325607538347511,-0.14692243934334673]","[1,1,1]","[0.057880174072825405,0.06061604595595881]","[1,1,1]","[-0.00033935933566085817,-0.06143877317287437]","[1,1,1]","[0.1673073089381088,-0.034681455915454386]","[1,1,1]","[0.02,0.02]",289.1144,0,23,23,157,1,,,,,,,
,,,,,,,5fa0091ec747500252d2891f,682f0fc1c9067d1b83fffdc0,2025-05-22_13h51.59.789,cuing_paradigm_dot,2024.1.5,Win32,59.17159763,682d573fa47f1360d1451895,,,,,,,,,,,289.116,289.6148,,,289.8662,290.1694,left,0.2824,,,,,,,,,0.5,,,,,,289.615,289.8661,290.1695,"[0.05918190506573032,-0.17438661735395491]","[-1,-1,-1]","[0.028981126039145006,0.04001083487072486]","[-1,-1,-1]","[0.0774404705174671,0.15527307366591803]","[-1,-1,-1]","[0.03055543001422042,0.1602129096098788]","[1,1,1]","[0.016273994296979215,-0.1183648983840708]","[-1,-1,-1]","[0.08518064054587032,-0.11613007252703911]","[-1,-1,-1]","[-0.01581289789628616,-0.015884016498082406]","[1,1,1]","[-0.16057709529574835,-0.05408009270339883]","[-1,-1,-1]","[-0.16004215825892573,0.10847002616255588]","[1,1,1]","[-0.030758094336349004,0.07752646706681539]","[1,1,1]","[-0.055475269394476875,0.11274826086047446]","[-1,-1,-1]","[-0.04024530279701034,-0.09941008267935081]","[1,1,1]","[-0.09229041547356066,-0.11849759707890224]","[-1,-1,-1]","[0.12013408243494428,0.04487590849627047]","[-1,-1,-1]","[-0.137102217641715,0.07516998117969938]","[1,1,1]","[-0.10552797828411364,0.1632789899028536]","[1,1,1]","[0.11842584697027389,-0.042002861108804225]","[-1,-1,-1]","[0.13958584942172422,0.11228672208056681]","[-1,-1,-1]","[-0.15791793338362167,0.029054855061568095]","[1,1,1]","[-0.03851027665561244,0.18972096194621021]","[1,1,1]","[-0.023005769608360104,-0.1383708214322792]","[-1,-1,-1]","[-0.04631991243555209,0.0313561495514042]","[1,1,1]","[-0.02004621370232227,0.1421897947514419]","[1,1,1]","[-0.04765136737657992,-0.18441148306226748]","[-1,-1,-1]","[0.037506659206346805,0.10704407015338259]","[1,1,1]","[0.14705200811564045,-0.12743772563584252]","[1,1,1]","[0.07910764104607472,0.10299378534103466]","[-1,-1,-1]","[0.1957045519342427,-0.02899306769741999]","[1,1,1]","[-0.1487751674695313,-0.12484137812685699]","[-1,-1,-1]","[0.1615633177829787,0.0030261587037610205]","[1,1,1]","[0.17929813814184223,-0.08593451364117505]","[-1,-1,-1]","[-0.11842467112560005,-0.07018639220416122]","[1,1,1]","[0.02,0.02]",291.2658,0,24,24,105,1,,,,,,,
,,,,,,,5fa0091ec747500252d2891f,682f0fc1c9067d1b83fffdc0,2025-05-22_13h51.59.789,cuing_paradigm_dot,2024.1.5,Win32,59.17159763,682d573fa47f1360d1451895,,,,,,,,,,,291.2674,291.7657,,,292.0171,292.3504,left,0.3235,,,,,,,,,0.5,,,,,,291.7658,292.0171,292.3505,"[0.05411906429357431,-0.01432629582021089]","[1,1,1]","[0.15898108657191373,0.09855176618763023]","[-1,-1,-1]","[-0.04454035145013394,-0.022081087047349054]","[1,1,1]","[-0.050437463942736384,-0.1209764963400933]","[1,1,1]","[0.029352440642423438,-0.08540248508235805]","[1,1,1]","[-0.11947703959173381,-0.04913418730504437]","[-1,-1,-1]","[0.07349733835828388,0.16568018629741302]","[-1,-1,-1]","[0.13812037845499212,0.021525564865999033]","[1,1,1]","[-0.17132242490739238,-0.030848294930649483]","[-1,-1,-1]","[0.057121589853023895,-0.13043154030166254]","[1,1,1]","[0.025325403664147483,0.04417868508077263]","[1,1,1]","[-0.09040556180506638,0.021531883403496724]","[1,1,1]","[-0.03842290310216459,-0.1660536643788081]","[-1,-1,-1]","[0.11853229186745078,-0.05450382087359177]","[1,1,1]","[0.09878630105759359,0.12703658337035917]","[-1,-1,-1]","[-0.11569724382765251,0.0675217328471216]","[-1,-1,-1]","[-0.08560701492306977,-0.01819442685391673]","[-1,-1,-1]","[-0.02792403877204936,0.043279175837056066]","[-1,-1,-1]","[-0.013679702646507292,0.11747648938300348]","[1,1,1]","[0.16091977561253026,-0.04772169423720148]","[1,1,1]","[0.07490314105939146,0.030128898210470025]","[-1,-1,-1]","[0.17480909825175445,-0.007791056854990427]","[1,1,1]","[0.1308921360861624,-0.10408642733783238]","[-1,-1,-1]","[0.007242697396476329,-0.1900802675456481]","[-1,-1,-1]","[0.0086131223460727,-0.043932074423845946]","[1,1,1]","[-0.13563295293497055,0.11384020982603547]","[1,1,1]","[-0.10325296805097973,-0.16541244851780748]","[1,1,1]","[0.014450701135851653,0.1752931090433592]","[1,1,1]","[0.0018314581162539513,-0.14099237714521495]","[-1,-1,-1]","[-0.1478477266444338,0.019900566665905114]","[-1,-1,-1]","[-0.11027347913127963,-0.1114852028263184]","[-1,-1,-1]","[0.0643723142088863,0.07391609306532229]","[-1,-1,-1]","[0.02,0.02]",293.45,0,25,25,111,1,,,,,,,
,,,,,,,5fa0091ec747500252d2891f,682f0fc1c9067d1b83fffdc0,2025-05-22_13h51.59.789,cuing_paradigm_dot,2024.1.5,Win32,59.17159763,682d573fa47f1360d1451895,,,,,,,,,,,293.4515,293.95,,,294.2017,294.4848,left,0.2539,,,,,,,,,0.45,,,,,,293.9502,294.2017,294.4848,"[0.004014038032834355,0.0916757155704277]","[-1,-1,-1]","[0.1761096254797087,0.08618801461949738]","[1,1,1]","[0.12406043634111781,0.09310366169570441]","[1,1,1]","[0.062158117615425106,0.08997160832044966]","[-1,-1,-1]","[0.1134745555484378,-0.09746075195261959]","[-1,-1,-1]","[0.031001918492569867,-0.12623190848787222]","[-1,-1,-1]","[0.020364907709983428,-0.030865447290092763]","[1,1,1]","[-0.10060875283604417,0.15486252810115192]","[-1,-1,-1]","[0.026012349574906835,0.18649416715410508]","[1,1,1]","[-0.05274522786349667,0.052577157474216096]","[-1,-1,-1]","[0.09893855936695414,-0.00003530205029744394]","[-1,-1,-1]","[-0.0481951856326328,-0.10886171484653218]","[-1,-1,-1]","[-0.13584757867390304,-0.04209339771189128]","[-1,-1,-1]","[0.17227469386895602,-0.03591410343198369]","[-1,-1,-1]","[-0.1748976878084215,-0.09161903425452132]","[1,1,1]","[0.060683620427515954,-0.1728269692654723]","[1,1,1]","[0.08729149307453975,0.15814479049267352]","[-1,-1,-1]","[0.08768970369253482,-0.13326648349953527]","[1,1,1]","[-0.1807911447568525,0.03385832111643575]","[-1,-1,-1]","[0.04450313097197594,0.12716803019965922]","[1,1,1]","[-0.14277625642766406,0.11207374292650661]","[-1,-1,-1]","[0.1557876054927641,0.015566832345099944]","[1,1,1]","[-0.05306354481368259,0.13564150255299123]","[1,1,1]","[-0.06829750712686497,-0.06804122058489963]","[1,1,1]","[0.1304422577420505,-0.13783303310523184]","[1,1,1]","[0.03687929823295108,0.020289202051203933]","[1,1,1]","[-0.018226127804284127,-0.06858446445262965]","[-1,-1,-1]","[-0.08051901586407392,-0.01604768091385047]","[-1,-1,-1]","[-0.11784183778701024,-0.09284359998448487]","[-1,-1,-1]","[0.16292420218572568,-0.09814077748299666]","[-1,-1,-1]","[-0.11007189486643225,0.05510849955120422]","[1,1,1]","[-0.04276822006912087,-0.0323975314690627]","[-1,-1,-1]","[0.02,0.02]",295.5844,0,26,26,69,1,,,,,,,
,,,,,,,5fa0091ec747500252d2891f,682f0fc1c9067d1b83fffdc0,2025-05-22_13h51.59.789,cuing_paradigm_dot,2024.1.5,Win32,59.17159763,682d573fa47f1360d1451895,,,,,,,,,,,295.5862,296.0843,,,296.3239,296.5527,left,0.2042,,,,,,,,,0.4,,,,,,296.0845,296.3238,296.5529,"[-0.007878940797495453,0.14579644920920573]","[-1,-1,-1]","[0.15334120427212045,-0.1172279300072842]","[-1,-1,-1]","[-0.11191882040376464,-0.05566072445378182]","[1,1,1]","[0.12212661203524183,0.11467544907163017]","[1,1,1]","[-0.06743849969743551,-0.02120914883393796]","[1,1,1]","[-0.06575044084134563,-0.13839696060045456]","[-1,-1,-1]","[0.04257687375457656,-0.07212756806064934]","[-1,-1,-1]","[-0.11446305102523006,-0.1266059093066464]","[-1,-1,-1]","[-0.1296092420965724,-0.009277857637045903]","[-1,-1,-1]","[0.08366680859229841,-0.056174163469832436]","[-1,-1,-1]","[0.0255920522990656,-0.16917149894637734]","[-1,-1,-1]","[-0.11222313957222359,0.16333176940407168]","[-1,-1,-1]","[0.017205977956152942,-0.12853262661001788]","[-1,-1,-1]","[-0.008724664382137742,-0.03759373590121965]","[1,1,1]","[0.14112785088276272,-0.05743477772249195]","[-1,-1,-1]","[-0.13982052712874457,0.09964943965553051]","[-1,-1,-1]","[0.059246126307320957,0.16103296664308345]","[1,1,1]","[-0.07709927046548476,-0.08752782723799857]","[1,1,1]","[0.17961833930300775,0.04172683337611845]","[1,1,1]","[0.09227003972675409,-0.16948457970218955]","[1,1,1]","[0.0026234776640500714,0.06352193523894113]","[1,1,1]","[0.1663468731071505,0.10438021843377748]","[-1,-1,-1]","[-0.05302566688742602,0.17325600114708214]","[-1,-1,-1]","[0.09355641487323871,-0.013930133863477483]","[1,1,1]","[-0.05011466786598347,0.1011164816335174]","[-1,-1,-1]","[-0.18763130013151952,-0.0204405519040606]","[-1,-1,-1]","[0.06603961399807524,0.12050729357479448]","[-1,-1,-1]","[-0.08621448701101057,0.0607675009779057]","[-1,-1,-1]","[-0.10163632104273365,0.11556545012771605]","[1,1,1]","[0.14423209515674917,0.011768193698050487]","[-1,-1,-1]","[0.1813011852828061,-0.03487757538037409]","[1,1,1]","[-0.18062068638357756,0.04163241872764341]","[1,1,1]","[0.02,0.02]",297.652,0,27,27,40,1,,,,,,,
,,,,,,,5fa0091ec747500252d2891f,682f0fc1c9067d1b83fffdc0,2025-05-22_13h51.59.789,cuing_paradigm_dot,2024.1.5,Win32,59.17159763,682d573fa47f1360d1451895,,,,,,,,,,,297.6539,298.1521,,,298.4039,298.5756,left,0.1517,,,,,,,,,0.4,,,,,,298.1523,298.4038,298.5758,"[-0.021916033538795125,0.03693292586582095]","[-1,-1,-1]","[0.01199047054227892,-0.08506547194356602]","[-1,-1,-1]","[0.06947874217220167,0.01892597033278046]","[1,1,1]","[-0.11780102604865121,0.03569388178867507]","[1,1,1]","[-0.0692610069040168,-0.1697129458425642]","[1,1,1]","[-0.033490018675243365,0.10817310014034576]","[-1,-1,-1]","[-0.07246180774492257,-0.0731983240247185]","[-1,-1,-1]","[-0.07983627399867678,0.08089043282187654]","[-1,-1,-1]","[0.14664448844198905,0.05514197850798484]","[1,1,1]","[0.019467094648876224,-0.19490564082780698]","[1,1,1]","[-0.15634249656920107,0.06277060341573729]","[-1,-1,-1]","[-0.08464215554073849,0.012206912615314702]","[-1,-1,-1]","[-0.1810498529831618,-0.0670551453392266]","[-1,-1,-1]","[0.013177274903209893,0.12686035461600081]","[-1,-1,-1]","[0.13427608049718792,0.14714540073738294]","[-1,-1,-1]","[-0.13515099314450155,-0.10142049019749705]","[1,1,1]","[0.07910218686472403,-0.07941385459042075]","[1,1,1]","[0.08461007245377863,-0.13977252984070143]","[1,1,1]","[-0.023652128942847506,-0.10787244468038057]","[-1,-1,-1]","[0.050444310619494594,0.05582615653475975]","[-1,-1,-1]","[0.13223745190214894,-0.029140433597426005]","[1,1,1]","[-0.1369600293976527,0.12431945176131272]","[-1,-1,-1]","[0.1718501834306871,-0.010042917044858966]","[-1,-1,-1]","[0.008426669243227634,-0.018462797294379232]","[-1,-1,-1]","[-0.0349232387710662,-0.02087569978996335]","[-1,-1,-1]","[0.1831556985031912,0.036176337757149735]","[1,1,1]","[-0.1976161358807369,0.01555935676615305]","[-1,-1,-1]","[-0.06865379058882473,0.1631161452121143]","[1,1,1]","[0.13884081686533167,-0.08967585333991067]","[1,1,1]","[-0.11963780293550103,-0.06089580932453973]","[-1,-1,-1]","[-0.13778348075318392,-0.024941246856076606]","[-1,-1,-1]","[0.031049661982191952,-0.1323296936848489]","[1,1,1]","[0.02,0.02]",299.6694,0,28,28,59,1,,,,,,,
,,,,,,,5fa0091ec747500252d2891f,682f0fc1c9067d1b83fffdc0,2025-05-22_13h51.59.789,cuing_paradigm_dot,2024.1.5,Win32,59.17159763,682d573fa47f1360d1451895,,,,,,,,,,,299.6708,300.1686,,,300.4215,300.6709,right,0.2222,,,,,,,,,0.1,,,,,,300.1687,300.4213,300.671,"[-0.16151143712890137,-0.0940383730419222]","[-1,-1,-1]","[-0.13079326212857553,0.07292033947151941]","[-1,-1,-1]","[-0.07313761371652473,-0.11161553575075021]","[-1,-1,-1]","[0.13284368091763563,-0.0550547107260588]","[-1,-1,-1]","[0.04792453883559281,0.029853168139580926]","[-1,-1,-1]","[-0.1190636552447452,0.1510547897564531]","[-1,-1,-1]","[0.09057144690003571,-0.060831142742567436]","[-1,-1,-1]","[-0.15360681611205584,0.027769231588508796]","[-1,-1,-1]","[-0.05321229792013973,0.036084624091498714]","[-1,-1,-1]","[-0.017761500006598707,-0.19053545931756352]","[-1,-1,-1]","[0.1194745894819436,0.09331640493012036]","[-1,-1,-1]","[-0.129431624383184,-0.027778507616860706]","[-1,-1,-1]","[0.010489473803305345,0.1131909429601776]","[-1,-1,-1]","[0.010795276723823187,-0.04892474926810075]","[-1,-1,-1]","[-0.05464883638931967,0.12090632911101215]","[-1,-1,-1]","[0.03559777271310028,-0.15623744266973846]","[-1,-1,-1]","[0.12013792208049072,0.019651059141102337]","[-1,-1,-1]","[-0.04383181062766416,-0.08195674308274736]","[-1,-1,-1]","[0.06395767315965149,0.1732812175996153]","[-1,-1,-1]","[-0.028696047342842618,0.1619387212380608]","[-1,-1,-1]","[0.19332913362733262,0.04701138624331333]","[-1,-1,-1]","[-0.0724703920574775,0.07590532968423294]","[1,1,1]","[-0.01414364905133671,0.05379135600667358]","[-1,-1,-1]","[0.084528096458177,-0.0031356972866692493]","[1,1,1]","[-0.12138567707673723,-0.07654950227369788]","[-1,-1,-1]","[-0.035090034907752095,-0.14815336587662764]","[-1,-1,-1]","[0.16354850702773768,-0.10497702948770221]","[-1,-1,-1]","[-0.024373655582973486,-0.017928668247797878]","[-1,-1,-1]","[-0.15860472745305285,0.1068904697379919]","[1,1,1]","[0.08412914235884182,0.06138601774653865]","[-1,-1,-1]","[-0.10654373705437038,-0.16557334685235348]","[-1,-1,-1]","[0.15670122677026221,-0.010770735792661738]","[-1,-1,-1]","[0.02,0.02]",301.7702,0,29,29,4,1,,,,,,,
,,,,,,,5fa0091ec747500252d2891f,682f0fc1c9067d1b83fffdc0,2025-05-22_13h51.59.789,cuing_paradigm_dot,2024.1.5,Win32,59.17159763,682d573fa47f1360d1451895,,,,,,,,,,,301.7717,302.2707,,,302.51,302.7051,right,0.1759,,,,,,,,,0.1,,,,,,302.2708,302.5099,302.7051,"[0.06533858442857876,0.18658389833867478]","[-1,-1,-1]","[-0.03067694340636152,0.021273047385383083]","[-1,-1,-1]","[-0.032022936104845745,-0.08568572275978993]","[-1,-1,-1]","[0.08175736744799993,0.05326552264821555]","[1,1,1]","[0.0040037915261618125,-0.10480723849419077]","[-1,-1,-1]","[-0.0979157067742146,-0.16485155938294904]","[-1,-1,-1]","[0.03814080749732884,0.020080689082606882]","[-1,-1,-1]","[-0.09822552331571487,-0.07777620157373084]","[-1,-1,-1]","[-0.1630069585667218,0.05316648892752344]","[-1,-1,-1]","[0.17867106637376726,-0.022405236313120802]","[-1,-1,-1]","[0.03279108705719808,0.09925618200560977]","[-1,-1,-1]","[0.06633620426299228,-0.022553768451858653]","[-1,-1,-1]","[0.0034178720502222727,-0.16561680032354778]","[-1,-1,-1]","[0.06809230944731656,-0.09563478014795923]","[-1,-1,-1]","[0.09303725606480823,0.106193408511393]","[-1,-1,-1]","[-0.14990397874993353,-0.0889742955904889]","[-1,-1,-1]","[0.13204411864695073,0.08038053660122856]","[-1,-1,-1]","[-0.044100444098853483,0.12289169436701436]","[-1,-1,-1]","[-0.115628303613772,0.12908089834222733]","[-1,-1,-1]","[-0.0908085195685264,0.06616180301209584]","[-1,-1,-1]","[-0.15704393730936622,-0.02309628986717746]","[1,1,1]","[0.0682077107045474,-0.15477236474848333]","[-1,-1,-1]","[0.12935213679509083,-0.05957074375675147]","[-1,-1,-1]","[-0.007095097024598874,0.1906212650735862]","[-1,-1,-1]","[0.1918149459429967,0.03700647297481435]","[-1,-1,-1]","[0.12552376824664202,-0.15281386373568492]","[-1,-1,-1]","[-0.038737246368155946,-0.1785715996642603]","[1,1,1]","[0.11377837468869752,0.16049282312911184]","[-1,-1,-1]","[-0.1937755239897582,0.023848408122166046]","[-1,-1,-1]","[-0.03750648303730152,-0.1348354568529651]","[-1,-1,-1]","[-0.0810402159002946,0.017753343084921127]","[-1,-1,-1]","[-0.05366181421523994,0.1734466420100478]","[-1,-1,-1]","[0.02,0.02]",303.8038,0,30,30,15,1,,,,,,,
,,,,,,,5fa0091ec747500252d2891f,682f0fc1c9067d1b83fffdc0,2025-05-22_13h51.59.789,cuing_paradigm_dot,2024.1.5,Win32,59.17159763,682d573fa47f1360d1451895,,,,,,,,,,,303.8054,304.305,,,304.5567,304.8393,left,0.2539,,,,,,,,,0.4,,,,,,304.3052,304.5565,304.8393,"[0.12142968345447842,0.042979997338905895]","[-1,-1,-1]","[-0.012135559024909464,0.06960360881386389]","[-1,-1,-1]","[0.10059160481586055,-0.031123938042710155]","[-1,-1,-1]","[-0.005038679596666259,0.13421609866893758]","[1,1,1]","[0.09643961351677305,-0.11183196477607396]","[-1,-1,-1]","[0.19658906933277415,0.031645220078391406]","[-1,-1,-1]","[0.09333154975672527,0.1536049464070525]","[-1,-1,-1]","[-0.15621783532322822,0.06644081921754141]","[-1,-1,-1]","[0.044161836229414525,-0.05090036340037813]","[-1,-1,-1]","[-0.14353449065346122,0.006151668166753206]","[1,1,1]","[-0.04142687567022294,-0.1689448329754184]","[-1,-1,-1]","[-0.04254782820644351,-0.02974665044845925]","[-1,-1,-1]","[0.1845085747386247,-0.032939339004183436]","[-1,-1,-1]","[-0.10505965400907186,0.06561989453603526]","[1,1,1]","[-0.1624914103385607,-0.09193794413854484]","[-1,-1,-1]","[-0.10518597041318924,0.1257015655766908]","[1,1,1]","[0.04286630499499349,0.007756701145428734]","[-1,-1,-1]","[0.03306998099170447,0.09360749608709851]","[1,1,1]","[0.0038490260270276056,0.19207512739927526]","[1,1,1]","[-0.0805546389689129,-0.046831888296724404]","[-1,-1,-1]","[-0.15608534446921082,0.12334439695554786]","[1,1,1]","[0.016439001414568107,-0.191520503953973]","[1,1,1]","[-0.19057923148418301,-0.05575831030962241]","[1,1,1]","[0.14197757669755318,0.11667334956914245]","[-1,-1,-1]","[-0.03486976179573524,0.16702650246427295]","[1,1,1]","[-0.12481871076222972,-0.0705845801168112]","[-1,-1,-1]","[0.15002689098188446,-0.09100557487567683]","[1,1,1]","[0.1603700500958562,0.0061825618019578634]","[-1,-1,-1]","[-0.19510268032913866,0.029550300063945774]","[1,1,1]","[0.18066336850030643,0.07813232551666838]","[-1,-1,-1]","[-0.07043980773433789,0.09926340530695135]","[1,1,1]","[-0.049961719999082554,-0.12201608345314938]","[-1,-1,-1]","[0.02,0.02]",305.9388,0,31,31,57,1,,,,,,,
,,,,,,,5fa0091ec747500252d2891f,682f0fc1c9067d1b83fffdc0,2025-05-22_13h51.59.789,cuing_paradigm_dot,2024.1.5,Win32,59.17159763,682d573fa47f1360d1451895,,,,,,,,,,,305.9404,306.4389,,,306.6784,306.9903,left,0.2904,,,,,,,,,0.45,,,,,,306.4391,306.6783,306.9904,"[0.15864899044384528,0.004429014282171372]","[1,1,1]","[0.03970681326212984,-0.028647523358191606]","[-1,-1,-1]","[0.052667296638388636,0.11460738519322937]","[-1,-1,-1]","[0.14822837677985357,-0.0844754960788321]","[-1,-1,-1]","[0.13349212783451797,0.059379172009123356]","[-1,-1,-1]","[0.13783617863094322,0.10896113649825577]","[-1,-1,-1]","[-0.1267131157432893,0.07158690328624286]","[-1,-1,-1]","[0.10132799130217833,0.16898039389181574]","[1,1,1]","[0.038439081629812334,-0.08336222055882907]","[-1,-1,-1]","[0.06499729356052679,-0.14234959572048844]","[-1,-1,-1]","[-0.013549553081516444,0.16396241660999608]","[-1,-1,-1]","[0.02905000451633186,0.056999917723275006]","[1,1,1]","[-0.11811492790898091,-0.0804398979205645]","[1,1,1]","[-0.12857502798993245,-0.040286941842910005]","[-1,-1,-1]","[-0.06580946536441905,0.15355538938511457]","[1,1,1]","[-0.1860966045254822,-0.042436386321915535]","[-1,-1,-1]","[-0.14440271757581227,0.031099505970830103]","[-1,-1,-1]","[-0.01041876290578558,-0.14846155798001043]","[1,1,1]","[-0.12993368466372684,-0.13946589478188365]","[1,1,1]","[-0.09336802617873496,0.04895188706543636]","[-1,-1,-1]","[0.18517067045355737,0.06711425746009297]","[1,1,1]","[-0.019126868826817037,-0.029874290993335148]","[-1,-1,-1]","[0.07588841823379551,0.05117976552181875]","[1,1,1]","[-0.1656297063788281,0.08771732740609446]","[1,1,1]","[-0.05840874380900716,-0.04090943120708349]","[1,1,1]","[-0.07798970503138879,-0.004577092210944243]","[1,1,1]","[-0.04041166592091453,0.10935331134808061]","[-1,-1,-1]","[0.08282225950000413,-0.056277092211780316]","[-1,-1,-1]","[0.03195167406986559,0.014909847343597623]","[-1,-1,-1]","[0.09655506159726301,-0.09707625385691565]","[1,1,1]","[-0.12183735479156413,0.11587455080019333]","[-1,-1,-1]","[0.13780098294353185,-0.13091174559146038]","[1,1,1]","[0.02,0.02]",308.0898,0,32,32,60,1,,,,,,,
,,,,,,,5fa0091ec747500252d2891f,682f0fc1c9067d1b83fffdc0,2025-05-22_13h51.59.789,cuing_paradigm_dot,2024.1.5,Win32,59.17159763,682d573fa47f1360d1451895,,,,,,,,,,,308.0914,308.59,,,308.8278,309.2475,right,0.4026,,,,,,,,,0.5,,,,,,308.5902,308.8278,309.2476,"[0.13682737557243324,0.00460102373744659]","[1,1,1]","[0.0990169478141549,0.16836098994492688]","[1,1,1]","[0.10462555655459782,0.06582845580134211]","[1,1,1]","[0.025526400000578056,-0.03684545002982816]","[-1,-1,-1]","[0.14694607967696519,0.04363127908295778]","[-1,-1,-1]","[0.16281058768816353,-0.0963402881871119]","[-1,-1,-1]","[-0.07220837646920353,-0.16408456270635255]","[1,1,1]","[-0.029228336231700965,-0.19333330451775993]","[1,1,1]","[0.0025171629550219785,-0.14878552205640716]","[1,1,1]","[-0.1263682073773383,-0.008150089708233369]","[1,1,1]","[0.12524134883947086,-0.0722140248427918]","[-1,-1,-1]","[0.058461269706248147,0.18657490142792862]","[-1,-1,-1]","[-0.0180675018502932,-0.01192575770801686]","[-1,-1,-1]","[0.002448884487646854,0.17987038466883498]","[-1,-1,-1]","[0.004946686798715743,0.04734937928942538]","[-1,-1,-1]","[-0.1493977983012044,0.050261190439681004]","[1,1,1]","[0.023769225619734928,-0.11257496882372939]","[1,1,1]","[-0.04560701986607436,0.14849753288844847]","[-1,-1,-1]","[0.08095953364644129,-0.10269905456025819]","[1,1,1]","[-0.130889297706652,-0.14047045177562953]","[-1,-1,-1]","[-0.09377358886780335,-0.03753090107369221]","[-1,-1,-1]","[0.11744166304038214,-0.13122054841024236]","[-1,-1,-1]","[0.061144320709846135,0.1411416511747367]","[1,1,1]","[-0.04898718322613256,0.03437055141521562]","[-1,-1,-1]","[0.10814272980605438,0.12900355434921887]","[1,1,1]","[-0.18787437583746572,-0.060435725568457846]","[-1,-1,-1]","[-0.005745442132986456,0.11731035415511046]","[1,1,1]","[-0.06826948069546793,-0.07046800020858807]","[1,1,1]","[0.04436227279452871,0.10102462605089427]","[-1,-1,-1]","[0.04968586136818432,-0.1657217012563095]","[-1,-1,-1]","[-0.02560986478366599,-0.09039322115028804]","[1,1,1]","[-0.0580715363020557,-0.12537889161739083]","[1,1,1]","[0.02,0.02]",310.346,0,33,33,94,1,,,,,,,
,,,,,,,5fa0091ec747500252d2891f,682f0fc1c9067d1b83fffdc0,2025-05-22_13h51.59.789,cuing_paradigm_dot,2024.1.5,Win32,59.17159763,682d573fa47f1360d1451895,,,,,,,,,,,310.347,310.846,,,311.0948,311.4755,left,0.3608,,,,,,,,,0.55,,,,,,310.8461,311.0947,311.4756,"[-0.03030595222012615,-0.004554845378373861]","[1,1,1]","[0.05845875990951393,-0.01851240154088549]","[-1,-1,-1]","[-0.1756151398299014,-0.004681068604558915]","[-1,-1,-1]","[0.16505014967527265,-0.02723107892457249]","[1,1,1]","[-0.016190241130396774,-0.14667800332030556]","[1,1,1]","[0.1302215155132907,0.05084092283242793]","[1,1,1]","[-0.15607526311858796,0.08359363255427735]","[-1,-1,-1]","[0.05425944165790506,0.027290589971645823]","[1,1,1]","[-0.02440921041843577,0.10474130165712105]","[-1,-1,-1]","[0.045745655065987004,0.08342923752694176]","[1,1,1]","[0.0059667561618327565,-0.0785928315104651]","[-1,-1,-1]","[-0.05421918842523324,-0.1189999306826404]","[1,1,1]","[-0.029662525743557343,0.16621127177940573]","[-1,-1,-1]","[0.13696919227530416,-0.05659875481474709]","[-1,-1,-1]","[0.039839789943246696,-0.16760081504912186]","[-1,-1,-1]","[0.0032689958382053517,-0.027349186268682837]","[-1,-1,-1]","[-0.09725764928712023,-0.13318312593757953]","[1,1,1]","[0.10051965018691841,0.15429884741161634]","[-1,-1,-1]","[0.12420531145672971,-0.11373557510176602]","[1,1,1]","[-0.09914251256621982,0.06977963017994401]","[1,1,1]","[0.09855445580535463,-0.025008751180980535]","[1,1,1]","[-0.10811444240181929,-0.012678398154236478]","[1,1,1]","[0.16424975305112613,0.097954760025526]","[-1,-1,-1]","[-0.04763891666989701,-0.056893063067521364]","[1,1,1]","[0.03748057610495579,-0.10933087723636897]","[1,1,1]","[0.03445793823545678,0.1410415732258342]","[-1,-1,-1]","[-0.12626102562929584,0.14579418760126767]","[1,1,1]","[-0.06887844374578693,0.14559971371782754]","[1,1,1]","[0.16330139191557663,0.023259232332169814]","[1,1,1]","[-0.010323814385358598,-0.19801037581366585]","[1,1,1]","[-0.15538503705573084,-0.07791310688121253]","[-1,-1,-1]","[-0.05953139259511353,0.02868417719091694]","[-1,-1,-1]","[0.02,0.02]",312.5754,0,34,34,142,1,,,,,,,
,,,,,,,5fa0091ec747500252d2891f,682f0fc1c9067d1b83fffdc0,2025-05-22_13h51.59.789,cuing_paradigm_dot,2024.1.5,Win32,59.17159763,682d573fa47f1360d1451895,,,,,,,,,,,312.5774,313.0762,,,313.327,313.5599,left,0.2037,,,,,,,,,0.6,,,,,,313.0765,313.327,313.56,"[-0.05207164813718597,-0.06727875145856263]","[-1,-1,-1]","[-0.06229662428281938,-0.158354373081677]","[1,1,1]","[-0.045884504003131585,0.15835733822693326]","[-1,-1,-1]","[0.016694932182833373,-0.10878791604356362]","[1,1,1]","[0.03168546226899287,0.05405695159078985]","[-1,-1,-1]","[0.17300342833456817,0.07960245689778976]","[1,1,1]","[0.0635554386251163,0.10736258442387618]","[-1,-1,-1]","[-0.1535709700147983,-0.08696368018367907]","[-1,-1,-1]","[0.13558260039404357,0.14101782814004118]","[-1,-1,-1]","[0.125964310759968,-0.0021672483180521836]","[1,1,1]","[0.044581281433130254,-0.044327091301526914]","[-1,-1,-1]","[-0.1612702535398994,-0.036856287784454975]","[-1,-1,-1]","[-0.08425649416347768,0.12069272654194561]","[1,1,1]","[-0.09239396660953454,-0.08193613041167602]","[1,1,1]","[-0.0868151078455565,0.08027832809512965]","[1,1,1]","[0.08016282559212483,-0.12779497210224625]","[1,1,1]","[-0.0005414146855073526,-0.048534606514347024]","[1,1,1]","[-0.008871206289041972,0.10904997908426306]","[-1,-1,-1]","[0.011131956925473611,0.17842053246334108]","[1,1,1]","[0.0741667775705439,0.02512649462432693]","[1,1,1]","[0.1772484695527263,-0.050667800869185244]","[-1,-1,-1]","[0.09523261348031409,0.07314012177676771]","[1,1,1]","[-0.13182132949366618,0.08690346838235521]","[1,1,1]","[-0.02456110006794439,-0.12212720495541803]","[-1,-1,-1]","[-0.13545600051603954,0.04007466667238538]","[1,1,1]","[0.06726279795158188,0.15725754790717292]","[1,1,1]","[0.042872499228995053,-0.0022350121853261067]","[-1,-1,-1]","[0.11684040002302958,-0.07597735436363254]","[-1,-1,-1]","[-0.006184710497999948,-0.002312975524847823]","[1,1,1]","[-0.16565918622889808,0.11124951269862024]","[1,1,1]","[0.12459584344722331,-0.11552881647199142]","[1,1,1]","[0.015789697532963016,-0.1533436813477009]","[1,1,1]","[0.02,0.02]",314.6593,0,35,35,175,1,,,,,,,
,,,,,,,5fa0091ec747500252d2891f,682f0fc1c9067d1b83fffdc0,2025-05-22_13h51.59.789,cuing_paradigm_dot,2024.1.5,Win32,59.17159763,682d573fa47f1360d1451895,,,,,,,,,,,314.6612,315.1598,,,315.4113,316.0611,right,0.639,,,,,,,,,0.4,,,,,,315.16,315.4112,316.0614,"[-0.10565183024123224,0.10160501495156973]","[-1,-1,-1]","[0.15966918115430584,0.07367172160336619]","[1,1,1]","[-0.15397638290410745,0.02944032004181464]","[-1,-1,-1]","[-0.08783441100910405,0.15986596282240287]","[1,1,1]","[-0.05180729270768147,0.0072627292569366]","[-1,-1,-1]","[-0.08586672220170319,-0.016002888379256473]","[-1,-1,-1]","[0.18937617126931636,-0.0573481315060491]","[1,1,1]","[0.06215470256170907,-0.0899988317058971]","[1,1,1]","[0.05603670984221479,0.12378494017680018]","[1,1,1]","[0.07514699208691529,-0.18318999522980628]","[-1,-1,-1]","[-0.01180611943522058,-0.031164292632764976]","[-1,-1,-1]","[-0.06244916913372605,-0.07973323130015711]","[-1,-1,-1]","[0.11774109682537402,0.020023586193655556]","[1,1,1]","[-0.01578025145781912,0.0864929247271373]","[-1,-1,-1]","[0.08219819020732852,-0.04273510134872339]","[1,1,1]","[0.09433896725122196,0.05844000413753148]","[1,1,1]","[0.11036405297309161,-0.1413408924325253]","[1,1,1]","[0.014295176151957575,-0.0762920146688425]","[1,1,1]","[0.029232704124578963,0.15979577415100812]","[-1,-1,-1]","[-0.14999341647013442,-0.08734620046081873]","[-1,-1,-1]","[-0.09494588707416003,0.06076545502339943]","[-1,-1,-1]","[-0.060095682016401725,0.08264433229548952]","[-1,-1,-1]","[0.034410966860678995,-0.19171094750807358]","[-1,-1,-1]","[0.18377036084982512,0.027963992070639536]","[-1,-1,-1]","[-0.02975217264897858,0.04873109240030805]","[-1,-1,-1]","[0.010327536729819481,0.034404341146930764]","[1,1,1]","[0.13971639675025635,0.11918639109419567]","[-1,-1,-1]","[0.12437580569095143,-0.08938064805102994]","[1,1,1]","[-0.0855089070588924,-0.13777774828751033]","[-1,-1,-1]","[-0.023920629464155168,-0.18056965173920358]","[-1,-1,-1]","[-0.11234246099981414,-0.10779762448625672]","[-1,-1,-1]","[-0.023279486313505612,0.14469831042360767]","[1,1,1]","[0.02,0.02]",317.1609,0,36,36,56,1,,,,,,,
,,,,,,,5fa0091ec747500252d2891f,682f0fc1c9067d1b83fffdc0,2025-05-22_13h51.59.789,cuing_paradigm_dot,2024.1.5,Win32,59.17159763,682d573fa47f1360d1451895,,,,,,,,,,,317.1623,317.6607,,,317.9125,318.1958,left,0.2697,,,,,,,,,0.9,,,,,,317.6609,317.9124,318.1959,"[0.08591610070809201,0.1805662670217935]","[1,1,1]","[-0.06877316780514725,0.024770807898104163]","[1,1,1]","[0.043007185936457054,0.10431196108263381]","[1,1,1]","[-0.09751038704665736,-0.004348966346021798]","[1,1,1]","[0.1137665336395413,-0.0014533674196802416]","[1,1,1]","[-0.18728162010989896,0.019730961617344073]","[1,1,1]","[-0.05708154946031386,0.11843165324633086]","[1,1,1]","[-0.02440766567852458,-0.08835185862395056]","[-1,-1,-1]","[0.107802096483899,0.07595309747672853]","[1,1,1]","[0.15829177981875925,-0.07515257073045675]","[1,1,1]","[0.09154944190542412,-0.13786694293120935]","[1,1,1]","[-0.1350318339748332,-0.053142038772333554]","[1,1,1]","[-0.0922067147522325,0.06187998276880642]","[1,1,1]","[0.17925487666298,0.07940593818418608]","[1,1,1]","[-0.09716921462038301,-0.08621096777732254]","[1,1,1]","[-0.012481873086237992,0.15091967556924918]","[1,1,1]","[0.04962890646394872,0.05486632416902851]","[1,1,1]","[0.018887943266014517,-0.11860456057511214]","[1,1,1]","[0.04292608290575098,-0.04831352005830819]","[-1,-1,-1]","[0.0822836218179799,-0.0813852214891549]","[1,1,1]","[0.10950486154054506,0.116299806245271]","[1,1,1]","[0.13206341207888886,-0.1109720206929125]","[1,1,1]","[-0.17921864770817295,-0.07716562710252775]","[1,1,1]","[-0.14861731121909294,0.07341763222632791]","[1,1,1]","[0.03498818469531513,0.14802428623489655]","[1,1,1]","[-0.14407341366757057,-0.001209692018098318]","[1,1,1]","[0.14952859160346388,0.1288313034373252]","[1,1,1]","[-0.13323900959598126,0.12298937411181739]","[1,1,1]","[-0.017547329450983893,0.09504930531897499]","[1,1,1]","[0.011294798262183851,-0.1814840978524429]","[-1,-1,-1]","[-0.15355360587973607,-0.12673234532828792]","[1,1,1]","[0.0031289803716413257,0.009353918838148095]","[1,1,1]","[0.02,0.02]",319.2953,0,37,37,185,1,,,,,,,
,,,,,,,5fa0091ec747500252d2891f,682f0fc1c9067d1b83fffdc0,2025-05-22_13h51.59.789,cuing_paradigm_dot,2024.1.5,Win32,59.17159763,682d573fa47f1360d1451895,,,,,,,,,,,319.2963,319.7955,,,320.0466,320.329,left,0.2674,,,,,,,,,0.55,,,,,,319.7956,320.0464,320.3293,"[-0.0018755735256581912,0.1903932391372261]","[1,1,1]","[0.033734300582644094,-0.1524579473341466]","[-1,-1,-1]","[-0.14130254194134126,-0.13674590475501788]","[1,1,1]","[0.044546747618003577,0.12784783886807385]","[1,1,1]","[0.13814924257528474,0.09784090527586392]","[1,1,1]","[-0.16428049384177407,0.0700416485962878]","[-1,-1,-1]","[-0.07300213459422158,0.173113113709029]","[1,1,1]","[-0.036101857839995886,-0.1391392208161703]","[1,1,1]","[0.0983723490393579,-0.11203172055687857]","[-1,-1,-1]","[-0.0557572258156628,-0.1770040781208078]","[1,1,1]","[-0.04646585878727423,-0.10045306732750535]","[1,1,1]","[0.06240377095521919,-0.050769108709564824]","[-1,-1,-1]","[0.11723182293533474,-0.15548337342979335]","[-1,-1,-1]","[-0.04708915312869252,0.10046631709663498]","[1,1,1]","[-0.01591360673732595,0.1265749184958287]","[1,1,1]","[-0.16350762654515683,-0.06288278938139501]","[-1,-1,-1]","[0.18661579539369588,0.017774696596925002]","[1,1,1]","[-0.02556793084361052,-0.04845664887639481]","[-1,-1,-1]","[0.10529140720293073,0.12377007517088616]","[1,1,1]","[0.12523672574639064,-0.05651880048516773]","[-1,-1,-1]","[-0.006154799502109759,-0.09603975213665687]","[-1,-1,-1]","[-0.11910374893114176,0.05351033985910411]","[1,1,1]","[0.021687248554231597,0.015519999450561088]","[1,1,1]","[-0.09567084575801105,0.014330438425879914]","[-1,-1,-1]","[-0.08287581032471734,-0.08133344895237779]","[1,1,1]","[0.13132441109616175,-0.015193338342853831]","[-1,-1,-1]","[0.06397291558541908,0.03466656908067461]","[-1,-1,-1]","[0.17161058574476573,0.059855439911903875]","[-1,-1,-1]","[-0.18214027058660157,-0.009632713201245162]","[1,1,1]","[-0.003025128070705589,-0.1913956065167575]","[-1,-1,-1]","[0.03710389836190597,0.06507573666334295]","[1,1,1]","[0.15788237208149467,-0.08157482682760363]","[1,1,1]","[0.02,0.02]",321.4292,0,38,38,131,1,,,,,,,
,,,,,,,5fa0091ec747500252d2891f,682f0fc1c9067d1b83fffdc0,2025-05-22_13h51.59.789,cuing_paradigm_dot,2024.1.5,Win32,59.17159763,682d573fa47f1360d1451895,,,,,,,,,,,321.4302,321.9297,,,322.1809,322.5473,left,0.3525,,,,,,,,,0.5,,,,,,321.9298,322.1808,322.5474,"[0.05067524653140758,0.17925687388149839]","[1,1,1]","[-0.01093500073451719,0.10515771604128833]","[1,1,1]","[-0.058255353456266146,-0.18240661333808567]","[1,1,1]","[0.12821044174415383,-0.11799651619254298]","[-1,-1,-1]","[-0.09293246162806225,0.16568787095319562]","[-1,-1,-1]","[-0.14909374707706022,0.112357827363247]","[-1,-1,-1]","[0.026749387688194102,-0.16945417297872306]","[-1,-1,-1]","[0.004968620312742185,0.055406109242588306]","[1,1,1]","[0.005832577992793976,0.14301824294155546]","[-1,-1,-1]","[-0.0015101143087591108,-0.04078107193737606]","[1,1,1]","[-0.13480802710388926,-0.02398416764715344]","[1,1,1]","[-0.04462902257948247,0.05206134991676905]","[1,1,1]","[-0.17576712697371877,0.06749511344807328]","[-1,-1,-1]","[-0.06667186875247008,0.08762625296746641]","[1,1,1]","[0.004821195066155838,0.001154690772493958]","[-1,-1,-1]","[0.16449298876059748,-0.01773767236364262]","[-1,-1,-1]","[0.016774226682114673,-0.12724365636749393]","[1,1,1]","[0.09678600301208362,0.00179948139053196]","[-1,-1,-1]","[-0.025157844340005075,-0.11629087134203127]","[-1,-1,-1]","[-0.19123626407429187,-0.05658178001198492]","[1,1,1]","[0.15787532196470955,0.04710661060602432]","[-1,-1,-1]","[-0.036667920806341056,0.0077868103432841606]","[1,1,1]","[0.0681921616299775,0.031136867905584384]","[1,1,1]","[-0.14698039199268934,-0.09564446547141238]","[-1,-1,-1]","[-0.09619573407033226,0.016521640106158416]","[1,1,1]","[0.07529063541634921,0.13316452603368584]","[-1,-1,-1]","[0.04711246456350741,-0.08786991415786757]","[1,1,1]","[0.11883585355049744,0.13999236782287677]","[1,1,1]","[0.1730946498858911,-0.08945216289931887]","[-1,-1,-1]","[0.07568052880886574,-0.1358856770599642]","[-1,-1,-1]","[-0.09823957487032157,-0.11264309981481709]","[1,1,1]","[-0.0763216806052112,-0.03032332003729872]","[-1,-1,-1]","[0.02,0.02]",323.6473,0,39,39,110,1,,,,,,,
,,,,,,,5fa0091ec747500252d2891f,682f0fc1c9067d1b83fffdc0,2025-05-22_13h51.59.789,cuing_paradigm_dot,2024.1.5,Win32,59.17159763,682d573fa47f1360d1451895,,,,,,,,,,,323.6484,324.1474,,,324.3984,324.6144,left,0.2023,,,,,,,,,0.6,,,,,,324.1474,324.3983,324.6146,"[-0.06452074291569161,0.14419035754087595]","[-1,-1,-1]","[0.09585842897342274,-0.0009931937807459489]","[-1,-1,-1]","[-0.007677399289903772,-0.0021701236340770846]","[1,1,1]","[-0.06629007554273318,-0.15527746335325932]","[-1,-1,-1]","[0.08813034363906733,0.13125037210626514]","[1,1,1]","[-0.17217843136514932,0.03178076563914341]","[1,1,1]","[-0.01266092408603072,0.1367519949361955]","[1,1,1]","[-0.04828263606860956,-0.08212403537616372]","[-1,-1,-1]","[0.14985423315058213,-0.011508614947302319]","[1,1,1]","[-0.1638094986523629,-0.10888781171505797]","[1,1,1]","[-0.009195325022046319,-0.1284421722436995]","[-1,-1,-1]","[-0.06401250354508113,0.18849339903719953]","[-1,-1,-1]","[-0.15769566447416902,-0.048972855710677915]","[1,1,1]","[0.12251171807571745,-0.11858791346815817]","[1,1,1]","[-0.0014323125913141186,0.06262111486420394]","[-1,-1,-1]","[0.06982605573369527,-0.11595497647308613]","[-1,-1,-1]","[-0.10330243283736242,-0.018480838206769035]","[-1,-1,-1]","[0.05063937646809317,-0.006768075471196368]","[-1,-1,-1]","[-0.18315925694373975,-0.013588164782399442]","[1,1,1]","[0.12171233035713439,-0.073547467408902]","[1,1,1]","[0.13698458307554923,0.08161086237862207]","[1,1,1]","[0.08684809562376354,-0.1779708084326433]","[-1,-1,-1]","[0.03608186393290028,-0.08445297330290835]","[1,1,1]","[0.1819291109497881,0.06529520317866233]","[-1,-1,-1]","[-0.1032513967883885,0.12061108069273326]","[1,1,1]","[-0.07154070227368639,0.06394332926481444]","[1,1,1]","[-0.08034563022924132,-0.11508363838399126]","[-1,-1,-1]","[-0.1277264573732751,0.01652585980698461]","[1,1,1]","[0.18714413415310283,-0.0499345708590129]","[1,1,1]","[-0.1205830172908875,-0.0820633662222241]","[1,1,1]","[-0.00436418840209544,-0.18040019597607077]","[1,1,1]","[0.10839259442267285,0.05198969050700755]","[1,1,1]","[0.02,0.02]",325.7147,0,40,40,170,1,,,,,,,
,,,,,,,5fa0091ec747500252d2891f,682f0fc1c9067d1b83fffdc0,2025-05-22_13h51.59.789,cuing_paradigm_dot,2024.1.5,Win32,59.17159763,682d573fa47f1360d1451895,,,,,,,,,,,325.7158,326.2149,,,326.4642,326.8155,left,0.3371,,,,,,,,,0.5,,,,,,326.215,326.4641,326.8157,"[0.1470961740993413,-0.06077045186849182]","[1,1,1]","[-0.09513929680225763,-0.071431921527146]","[-1,-1,-1]","[0.024836628209165323,-0.12424088054259527]","[1,1,1]","[-0.15055092083078497,0.06966541596205998]","[1,1,1]","[0.09436973512439659,0.027115120070895105]","[1,1,1]","[0.024053726889295555,0.18136950683112907]","[-1,-1,-1]","[-0.04252606324850645,0.08979347498184026]","[-1,-1,-1]","[-0.02895146153184494,-0.1708435972862775]","[1,1,1]","[0.12108267688615357,0.10535811093225225]","[-1,-1,-1]","[0.0018699625856007718,0.10345376052365432]","[1,1,1]","[0.08830828644883999,0.15838077181673055]","[-1,-1,-1]","[-0.06846930980445609,-0.18007174062523787]","[1,1,1]","[0.021318355286320593,-0.1940340388015299]","[-1,-1,-1]","[-0.17627927331984092,-0.08236942400070803]","[-1,-1,-1]","[0.15455705470347436,0.016555089478237524]","[-1,-1,-1]","[-0.19237262227614382,-0.013698126456097772]","[1,1,1]","[0.18205609165002343,-0.016215047333337812]","[1,1,1]","[0.17143639226443821,0.07127306346412884]","[-1,-1,-1]","[-0.0683060120860189,0.1226745226907565]","[-1,-1,-1]","[0.046507322626201074,-0.02098549741851693]","[-1,-1,-1]","[-0.1497880269699504,0.10984576472041681]","[1,1,1]","[0.04370971259972294,0.08612535071722356]","[-1,-1,-1]","[0.04875907004688275,0.14618120886711342]","[1,1,1]","[-0.10871499238719691,0.020210537191885498]","[1,1,1]","[0.08967953343815928,-0.030616878412503545]","[1,1,1]","[0.08594146749293746,-0.16964756124443284]","[-1,-1,-1]","[0.12417933326943167,-0.12036423609950506]","[-1,-1,-1]","[-0.10316139312552672,-0.11318126117869891]","[1,1,1]","[-0.042682402432562216,0.01788353365134077]","[-1,-1,-1]","[-0.17976890240067142,0.04158526275909702]","[1,1,1]","[0.00992955120589882,0.042644353658368245]","[1,1,1]","[-0.02041149696344886,-0.13106652645548003]","[-1,-1,-1]","[0.02,0.02]",327.9155,0,41,41,112,1,,,,,,,
,,,,,,,5fa0091ec747500252d2891f,682f0fc1c9067d1b83fffdc0,2025-05-22_13h51.59.789,cuing_paradigm_dot,2024.1.5,Win32,59.17159763,682d573fa47f1360d1451895,,,,,,,,,,,327.9165,328.4155,,,328.6673,328.9836,left,0.3052,,,,,,,,,0.6,,,,,,328.4157,328.6672,328.9839,"[-0.05581178234712343,-0.011446652943688459]","[-1,-1,-1]","[-0.1953941116017636,0.030173994182846844]","[-1,-1,-1]","[-0.0022606841134769568,0.12703518801167352]","[1,1,1]","[0.15281558148036725,0.06979771638180243]","[1,1,1]","[0.054912527576883245,-0.07683481795644571]","[-1,-1,-1]","[-0.01152365042926612,0.08377721810947221]","[1,1,1]","[-0.03761932558832104,-0.1197783114065003]","[1,1,1]","[0.11324868361059597,0.07864487085166373]","[1,1,1]","[-0.13173668537734579,0.10303780308542568]","[1,1,1]","[-0.1875192501004881,-0.016092588640461338]","[-1,-1,-1]","[-0.08907908627984737,0.17682698030736063]","[1,1,1]","[0.08418634642389172,0.04012165755692769]","[1,1,1]","[-0.07687432544713897,-0.07255624278554368]","[-1,-1,-1]","[-0.014156419822955282,-0.02778702682865473]","[1,1,1]","[0.06885574041159521,-0.1182760398357043]","[1,1,1]","[0.06615304186686038,0.002158241303029686]","[1,1,1]","[0.16740260599199427,-0.027576830624323874]","[1,1,1]","[-0.1428320844613969,-0.10791940112344897]","[1,1,1]","[-0.15644975422129034,0.0632731272174133]","[1,1,1]","[-0.09466664125768443,-0.1653106321695814]","[1,1,1]","[0.03946966188926747,0.14138397147980375]","[-1,-1,-1]","[-0.10911300623872902,0.03717885967066827]","[-1,-1,-1]","[0.08157216574952648,0.13903981131958773]","[1,1,1]","[0.03604888715216516,-0.03558015242111784]","[1,1,1]","[0.04432214052550564,0.04549660080454632]","[-1,-1,-1]","[-0.033886409757623796,-0.07639122534823427]","[-1,-1,-1]","[0.1381087226020761,0.125845995051699]","[-1,-1,-1]","[-0.16861952628451454,-0.05608364950288147]","[1,1,1]","[0.17408188042521383,-0.08939580790194951]","[-1,-1,-1]","[-0.11888596018992739,-0.046222617549489954]","[-1,-1,-1]","[0.01939777494645132,0.17606739884308342]","[-1,-1,-1]","[0.025758764470160754,0.004629156255589044]","[1,1,1]","[0.02,0.02]",330.0832,0,42,42,168,1,,,,,,,
,,,,,,,5fa0091ec747500252d2891f,682f0fc1c9067d1b83fffdc0,2025-05-22_13h51.59.789,cuing_paradigm_dot,2024.1.5,Win32,59.17159763,682d573fa47f1360d1451895,,,,,,,,,,,330.0842,330.5835,,,330.8351,331.334,right,0.4892,,,,,,,,,0.4,,,,,,330.5837,330.835,331.3341,"[-0.027312544649759525,-0.14608139791220673]","[-1,-1,-1]","[-0.023520192988248034,-0.18965701771208685]","[1,1,1]","[0.028558919234667163,-0.14508495999661936]","[-1,-1,-1]","[-0.024430588466164634,0.10170434891103475]","[-1,-1,-1]","[0.06604440080986797,0.18075437115861454]","[-1,-1,-1]","[0.12224213696987005,0.0929929220549701]","[1,1,1]","[-0.05778813181866373,0.14047054513997315]","[-1,-1,-1]","[0.048382873191503986,-0.05743254041667923]","[1,1,1]","[0.08216758346171442,0.03545239005578244]","[-1,-1,-1]","[0.05938706009693426,0.13192885451367187]","[1,1,1]","[-0.11455637658655307,0.06869730254973239]","[-1,-1,-1]","[0.03350109294540375,-0.019926615159852983]","[-1,-1,-1]","[-0.08546498714017041,-0.06753501501785157]","[-1,-1,-1]","[-0.0381941839538658,0.027201976308447916]","[1,1,1]","[0.12494166548581562,0.1402624054852829]","[-1,-1,-1]","[-0.1663236097933521,0.016295413399488715]","[-1,-1,-1]","[-0.14666627393258846,-0.07563016541392463]","[1,1,1]","[0.11956642090508039,-0.09508141452082058]","[-1,-1,-1]","[0.012593152825992066,0.15545981886144153]","[1,1,1]","[0.05652758063281756,-0.17651624237237024]","[1,1,1]","[0.03066943417112656,0.0793506197355948]","[1,1,1]","[0.13118889058612632,-0.1414308683639836]","[-1,-1,-1]","[0.12976950872057383,0.01324405572582978]","[1,1,1]","[-0.17147842837398944,0.08585486539387643]","[-1,-1,-1]","[-0.04035241752864584,0.18839663809082602]","[-1,-1,-1]","[-0.050548729431516344,-0.045322181127742174]","[1,1,1]","[-0.08054384651549698,-0.16975931150737958]","[1,1,1]","[0.012259383759252339,0.013995800425011803]","[-1,-1,-1]","[-0.0800177144164974,-0.12193185962565316]","[-1,-1,-1]","[-0.08475694502894994,0.041459551799296834]","[1,1,1]","[0.19099641831878994,0.02399001266211019]","[-1,-1,-1]","[0.15822361902369383,-0.04638879002163469]","[-1,-1,-1]","[0.02,0.02]",332.4347,0,43,43,41,1,,,,,,,
,,,,,,,5fa0091ec747500252d2891f,682f0fc1c9067d1b83fffdc0,2025-05-22_13h51.59.789,cuing_paradigm_dot,2024.1.5,Win32,59.17159763,682d573fa47f1360d1451895,,,,,,,,,,,332.4358,332.9347,,,333.1902,333.6386,left,0.4323,,,,,,,,,0.6,,,,,,332.9348,333.1901,333.6388,"[0.08780674748025882,0.14089324595130978]","[1,1,1]","[0.08730840905958095,-0.040596782265165554]","[-1,-1,-1]","[0.04609070400241761,-0.10882154622200049]","[1,1,1]","[0.13510935419033746,0.054277333892041764]","[1,1,1]","[0.07639359267615113,0.0753176316001117]","[1,1,1]","[0.049163602858080475,-0.0008629194907800327]","[1,1,1]","[-0.06402457881368627,0.06244814974460989]","[-1,-1,-1]","[-0.002460360683002342,-0.08155219309270337]","[-1,-1,-1]","[-0.12531893908812597,0.07614289155575442]","[-1,-1,-1]","[-0.1566322346649046,-0.09034103289944913]","[1,1,1]","[-0.04481135303546111,-0.15674115281198592]","[1,1,1]","[0.03298006972507531,0.1785164478873752]","[-1,-1,-1]","[0.1592479256224243,-0.09706686505943135]","[1,1,1]","[-0.0794960885751524,0.10697829235568698]","[1,1,1]","[-0.1744955634046611,0.0425602778202826]","[-1,-1,-1]","[0.18726529807608733,0.0367444845179099]","[-1,-1,-1]","[-0.08599867534180125,-0.17503461873955423]","[-1,-1,-1]","[-0.049217266824313106,-0.02879211732731566]","[1,1,1]","[0.1787514248671176,-0.01637208749321823]","[1,1,1]","[0.10742856557464084,-0.13889734135393528]","[1,1,1]","[-0.08621944876596466,-0.09986536296032994]","[-1,-1,-1]","[0.011860068969509308,0.08003822168387309]","[1,1,1]","[-0.15557557399143945,0.0007143072298601994]","[1,1,1]","[0.1173731240161573,0.09362077554710765]","[1,1,1]","[0.12428044518997611,-0.06956207938353141]","[-1,-1,-1]","[0.025881519588494207,-0.14519546267449024]","[1,1,1]","[-0.06458917351074754,0.0090500249385628]","[-1,-1,-1]","[0.01728386552818944,-0.1901365583955764]","[1,1,1]","[0.03185422502233356,0.11493110048984116]","[-1,-1,-1]","[-0.021974994930225956,0.18296512073410912]","[1,1,1]","[-0.11605880838764977,0.15598877321949756]","[1,1,1]","[-0.07754789129633285,-0.05809844707161517]","[-1,-1,-1]","[0.02,0.02]",334.7353,0,44,44,150,1,,,,,,,
