right,left,explain.started,explain.stopped,key_resp_3.keys,key_resp_3.rt,key_resp_3.duration,participant,session,date,expName,psychopyVersion,OS,frameRate,study_id,explain_2.started,explain_2.stopped,key_resp_4.keys,key_resp_4.rt,key_resp_4.duration,explain_3.started,explain_3.stopped,key_resp_5.keys,key_resp_5.rt,key_resp_5.duration,fixation.started,fixation.stopped,practice.started,practice.stopped,response.started,response.stopped,key_resp.keys,key_resp.rt,key_resp.duration,feedback.started,feedback.stopped,trials_2.thisRepN,trials_2.thisTrialN,trials_2.thisN,trials_2.thisIndex,trials_2.ran,white_ratio,explain_4.started,explain_4.stopped,key_resp_6.keys,key_resp_6.rt,key_resp_6.duration,dotDisplay.started,dotDisplay.stopped,ITI.started,polygon_1.pos,polygon_1.color,polygon_2.pos,polygon_2.color,polygon_3.pos,polygon_3.color,polygon_4.pos,polygon_4.color,polygon_5.pos,polygon_5.color,polygon_6.pos,polygon_6.color,polygon_7.pos,polygon_7.color,polygon_8.pos,polygon_8.color,polygon_9.pos,polygon_9.color,polygon_10.pos,polygon_10.color,polygon_11.pos,polygon_11.color,polygon_12.pos,polygon_12.color,polygon_13.pos,polygon_13.color,polygon_14.pos,polygon_14.color,polygon_15.pos,polygon_15.color,polygon_16.pos,polygon_16.color,polygon_17.pos,polygon_17.color,polygon_18.pos,polygon_18.color,polygon_19.pos,polygon_19.color,polygon_20.pos,polygon_20.color,polygon_21.pos,polygon_21.color,polygon_22.pos,polygon_22.color,polygon_23.pos,polygon_23.color,polygon_24.pos,polygon_24.color,polygon_25.pos,polygon_25.color,polygon_26.pos,polygon_26.color,polygon_27.pos,polygon_27.color,polygon_28.pos,polygon_28.color,polygon_29.pos,polygon_29.color,polygon_30.pos,polygon_30.color,polygon_31.pos,polygon_31.color,polygon_32.pos,polygon_32.color,dot_size,ITI.stopped,trials.thisRepN,trials.thisTrialN,trials.thisN,trials.thisIndex,trials.ran,break_2.started,break_2.stopped,trials_3.thisRepN,trials_3.thisTrialN,trials_3.thisN,trials_3.thisIndex,trials_3.ran
subject chose white,subject chose black,0.0002,35.747,space,20.7435,,5faeb56b25a37f01d47d326c,682db396950c0ec3f75fd358,2025-05-21_15h03.18.345,cuing_paradigm_dot,2024.1.5,Win32,142.8571429,682d556593cb38ad0a074487,,,,,,,,,,,,,,,,,,,,,,,,,,,,,,,,,,,,,,,,,,,,,,,,,,,,,,,,,,,,,,,,,,,,,,,,,,,,,,,,,,,,,,,,,,,,,,,,,,,,,,,,,,,,,,,,,
,,,,,,,5faeb56b25a37f01d47d326c,682db396950c0ec3f75fd358,2025-05-21_15h03.18.345,cuing_paradigm_dot,2024.1.5,Win32,142.8571429,682d556593cb38ad0a074487,35.7471,67.3478,space,1.5896,,,,,,,,,,,,,,,,,,,,,,,,,,,,,,,,,,,,,,,,,,,,,,,,,,,,,,,,,,,,,,,,,,,,,,,,,,,,,,,,,,,,,,,,,,,,,,,,,,,,,,,,,,,,,
,,,,,,,5faeb56b25a37f01d47d326c,682db396950c0ec3f75fd358,2025-05-21_15h03.18.345,cuing_paradigm_dot,2024.1.5,Win32,142.8571429,682d556593cb38ad0a074487,,,,,,67.3481,71.0426,space,0.683,,,,,,,,,,,,,,,,,,,,,,,,,,,,,,,,,,,,,,,,,,,,,,,,,,,,,,,,,,,,,,,,,,,,,,,,,,,,,,,,,,,,,,,,,,,,,,,,,,,,,,,,
,,,,,,,5faeb56b25a37f01d47d326c,682db396950c0ec3f75fd358,2025-05-21_15h03.18.345,cuing_paradigm_dot,2024.1.5,Win32,142.8571429,682d556593cb38ad0a074487,,,,,,,,,,,71.055,71.5495,71.5496,71.7997,71.7997,72.7943,left,0.977,,72.7944,73.89,0,0,0,1,1,0.2,,,,,,,,,,,,,,,,,,,,,,,,,,,,,,,,,,,,,,,,,,,,,,,,,,,,,,,,,,,,,,,,,,,,,,,,,,,,,,,,,,,,,,
,,,,,,,5faeb56b25a37f01d47d326c,682db396950c0ec3f75fd358,2025-05-21_15h03.18.345,cuing_paradigm_dot,2024.1.5,Win32,142.8571429,682d556593cb38ad0a074487,,,,,,,,,,,73.8903,74.3902,74.3903,74.6402,74.6403,74.9388,right,0.2885,,74.9389,76.036,0,1,1,0,1,0.8,,,,,,,,,,,,,,,,,,,,,,,,,,,,,,,,,,,,,,,,,,,,,,,,,,,,,,,,,,,,,,,,,,,,,,,,,,,,,,,,,,,,,,
,,,,,,,5faeb56b25a37f01d47d326c,682db396950c0ec3f75fd358,2025-05-21_15h03.18.345,cuing_paradigm_dot,2024.1.5,Win32,142.8571429,682d556593cb38ad0a074487,,,,,,,,,,,,,,,,,,,,,,,,,,,,76.0363,79.6617,space,0.6191,,,,,,,,,,,,,,,,,,,,,,,,,,,,,,,,,,,,,,,,,,,,,,,,,,,,,,,,,,,,,,,,,,,,,,,,,,,,,,,,,,
,,,,,,,5faeb56b25a37f01d47d326c,682db396950c0ec3f75fd358,2025-05-21_15h03.18.345,cuing_paradigm_dot,2024.1.5,Win32,142.8571429,682d556593cb38ad0a074487,,,,,,,,,,,79.6689,80.1685,,,80.4189,81.0715,left,0.65,,,,,,,,,0.45,,,,,,80.1688,80.4188,81.0717,"[0.154627834552271,-0.03250328272847518]","[-1,-1,-1]","[-0.11628317323655964,-0.010270682507430592]","[-1,-1,-1]","[0.06528888879820785,-0.18660734664698633]","[-1,-1,-1]","[0.01462210059091689,0.0007038115828734204]","[-1,-1,-1]","[0.03562980166748072,0.09010170183684486]","[-1,-1,-1]","[0.16502943750252544,0.013955943175922615]","[-1,-1,-1]","[0.12737483053326756,0.04604710063583551]","[1,1,1]","[-0.07800456183454864,0.02037226320408218]","[-1,-1,-1]","[0.1693037571995377,0.08853504762698568]","[-1,-1,-1]","[0.0876119080109752,-0.018476025519994402]","[-1,-1,-1]","[0.016221714422994506,-0.05698932612588094]","[1,1,1]","[0.03820980778985008,0.15031908266208951]","[1,1,1]","[-0.1138638958112286,0.1280966806467893]","[1,1,1]","[-0.049761337362492525,0.15059102738490782]","[1,1,1]","[0.09063257888357983,0.12003284793541472]","[-1,-1,-1]","[-0.04850213673582984,-0.15536432743043427]","[1,1,1]","[0.0367510684626139,-0.1266170870519111]","[1,1,1]","[-0.044116476826744376,-0.09523877500702001]","[-1,-1,-1]","[-0.034635452572240315,-0.05570805639136485]","[1,1,1]","[-0.11804181453751783,0.08831407498265166]","[1,1,1]","[0.06174536606063737,0.034658934842742815]","[1,1,1]","[-0.01585313929783925,0.06732201488870262]","[-1,-1,-1]","[-0.13397400299803267,0.05139496760190196]","[1,1,1]","[-0.14702202485257435,-0.09335823503596279]","[1,1,1]","[0.14133991583071945,-0.11912579060311088]","[-1,-1,-1]","[0.09292341424630267,-0.08241795595899228]","[-1,-1,-1]","[-0.16016116305110564,-0.030007317793753065]","[-1,-1,-1]","[-0.00040237092696639973,0.1748896532954265]","[1,1,1]","[-0.01735439072191967,-0.13004758514121423]","[-1,-1,-1]","[-0.09412445772669091,-0.13379719849405766]","[-1,-1,-1]","[0.09698183033564159,0.07427104650942855]","[1,1,1]","[-0.08578770059145509,-0.050301390970848105]","[-1,-1,-1]","[0.02,0.02]",82.1688,0,0,0,66,1,,,,,,,
,,,,,,,5faeb56b25a37f01d47d326c,682db396950c0ec3f75fd358,2025-05-21_15h03.18.345,cuing_paradigm_dot,2024.1.5,Win32,142.8571429,682d556593cb38ad0a074487,,,,,,,,,,,82.1692,82.6689,,,82.9191,83.6343,right,0.7109,,,,,,,,,0.55,,,,,,82.6689,82.9191,83.6343,"[0.12033623480436711,-0.10534567506567889]","[1,1,1]","[-0.11283423313609679,0.022679768958219597]","[1,1,1]","[0.10176660096404318,-0.014381398501936558]","[1,1,1]","[-0.13989400320129636,-0.11473470252434669]","[1,1,1]","[-0.052405549385584,0.12589662671170868]","[1,1,1]","[-0.04609681280956032,-0.02761678287473645]","[-1,-1,-1]","[0.04378488366792558,-0.0692184890528452]","[-1,-1,-1]","[-0.09313957192799026,0.08170754787358364]","[-1,-1,-1]","[-0.17812888408834787,-0.07464837435404632]","[1,1,1]","[0.015862738852286194,0.012930635222326427]","[-1,-1,-1]","[0.00045013983255083546,-0.0618547129046525]","[1,1,1]","[-0.01688998413690679,-0.09926328639020009]","[-1,-1,-1]","[0.13305309216117497,0.05116530578050161]","[1,1,1]","[0.13547091992821372,0.13919918783022925]","[-1,-1,-1]","[-0.09605977094497178,0.17130057556112474]","[1,1,1]","[-0.00008485555747556327,-0.15034774664819123]","[-1,-1,-1]","[0.1004042819613847,0.09445733423786706]","[1,1,1]","[0.06647104402290417,-0.12356474927763642]","[-1,-1,-1]","[0.1484528153647164,-0.02036923068996572]","[-1,-1,-1]","[-0.14809019998057762,-0.014582582538263432]","[1,1,1]","[-0.044670380544655726,0.18841050254659436]","[1,1,1]","[0.16373309516763052,-0.09515024806504183]","[-1,-1,-1]","[-0.036231751191478506,0.01803074801119137]","[1,1,1]","[0.022909316909485725,0.1935363000089439]","[1,1,1]","[0.18268961557172858,0.012096455754304567]","[-1,-1,-1]","[0.012386251726205121,0.09908758675739167]","[1,1,1]","[-0.06763605015371105,-0.17775011374181343]","[-1,-1,-1]","[-0.14854876871575773,0.08090436199940204]","[1,1,1]","[0.18416028788197233,0.06426293109618478]","[1,1,1]","[-0.18551754562017886,-0.029108951433138398]","[-1,-1,-1]","[0.0985599958774837,0.15486435425814832]","[-1,-1,-1]","[-0.11835684757381949,0.11710954457344668]","[1,1,1]","[0.02,0.02]",84.7315,0,1,1,120,1,,,,,,,
,,,,,,,5faeb56b25a37f01d47d326c,682db396950c0ec3f75fd358,2025-05-21_15h03.18.345,cuing_paradigm_dot,2024.1.5,Win32,142.8571429,682d556593cb38ad0a074487,,,,,,,,,,,84.7318,85.2316,,,85.4819,86.2874,left,0.7989,,,,,,,,,0.55,,,,,,85.2316,85.4819,86.2874,"[0.10672295265753828,-0.10397937174697547]","[1,1,1]","[-0.06316297762688868,0.056202106162232014]","[-1,-1,-1]","[-0.14043731773627416,-0.02836745080559568]","[-1,-1,-1]","[0.1224346134186028,0.1291556557883997]","[1,1,1]","[0.14536153786735873,0.06109618699477632]","[1,1,1]","[0.1925692212238732,-0.01668972811308636]","[-1,-1,-1]","[-0.17969308568713033,-0.01883459515581265]","[-1,-1,-1]","[-0.04871855211927116,-0.13558639871830333]","[1,1,1]","[0.09073263713505046,0.08240288307785183]","[1,1,1]","[0.1696100289401949,0.09369710206151588]","[1,1,1]","[-0.1115588162997936,0.010827201201501933]","[-1,-1,-1]","[-0.0823198071810732,0.14790491596356709]","[1,1,1]","[0.14904854408339308,-0.006904466246587074]","[1,1,1]","[-0.0731857886222445,-0.013493753017009823]","[-1,-1,-1]","[0.019617945985637167,0.07902873052909759]","[1,1,1]","[0.00211405337490588,0.00860285868426923]","[-1,-1,-1]","[-0.17759822670990832,0.022879331274086114]","[1,1,1]","[-0.0030850602629933234,-0.09007254037758408]","[-1,-1,-1]","[0.04359599759064196,-0.1137041922454433]","[-1,-1,-1]","[0.07559174819507485,-0.01610228015917031]","[-1,-1,-1]","[-0.10349813896938342,0.08211130162663893]","[1,1,1]","[0.03272887854476314,-0.046314324580105426]","[1,1,1]","[-0.04236129697908195,0.15112457964395282]","[-1,-1,-1]","[-0.15535527394637752,-0.06690490411503555]","[1,1,1]","[-0.009047720858852271,-0.18897071646598537]","[-1,-1,-1]","[0.09464890076224357,0.17153002727666883]","[-1,-1,-1]","[-0.09700622079376071,-0.14149196176099002]","[-1,-1,-1]","[0.015137912649329255,0.19816959096881634]","[1,1,1]","[-0.074241377215046,-0.10162758911778462]","[1,1,1]","[0.14751621677967125,-0.12384047858418841]","[1,1,1]","[0.04320364153754516,-0.16957564963812471]","[1,1,1]","[-0.185329369801206,0.07437545869581681]","[1,1,1]","[0.02,0.02]",87.3848,0,2,2,138,1,,,,,,,
,,,,,,,5faeb56b25a37f01d47d326c,682db396950c0ec3f75fd358,2025-05-21_15h03.18.345,cuing_paradigm_dot,2024.1.5,Win32,142.8571429,682d556593cb38ad0a074487,,,,,,,,,,,87.385,87.8848,,,88.135,88.7114,left,0.5717,,,,,,,,,0.1,,,,,,87.8848,88.1349,88.7115,"[0.10430773155095845,-0.0662952080428679]","[-1,-1,-1]","[-0.17044897773416476,0.0070461916317298085]","[-1,-1,-1]","[0.12785563701651156,-0.11572777997604011]","[-1,-1,-1]","[0.016597388328632296,-0.1982178792085333]","[-1,-1,-1]","[0.09159166377221932,-0.13668006337459904]","[-1,-1,-1]","[0.04947471737111162,-0.09176568464841066]","[-1,-1,-1]","[-0.15759269449427424,-0.09109999686337983]","[-1,-1,-1]","[-0.12824495407554926,-0.027918322677134334]","[1,1,1]","[0.1507955283353069,-0.05383438509588146]","[-1,-1,-1]","[-0.03728252532675314,0.11281215404221047]","[-1,-1,-1]","[-0.01411166390668203,0.14692638590439644]","[-1,-1,-1]","[0.02203362292909878,0.023577521914421584]","[-1,-1,-1]","[-0.15762929154190644,0.081880229408067]","[-1,-1,-1]","[0.013722906053102828,-0.025781938935198978]","[-1,-1,-1]","[-0.05714561833681562,0.021430137695734878]","[-1,-1,-1]","[-0.05479265163988314,0.062393363125847]","[1,1,1]","[0.12078762344749185,0.07008153289841419]","[-1,-1,-1]","[-0.025409321195331437,-0.14544467785071938]","[-1,-1,-1]","[0.11356170449194776,0.13151101811347057]","[-1,-1,-1]","[-0.10422989379892258,-0.11313502117354944]","[-1,-1,-1]","[-0.05951135271008605,-0.024411968839896454]","[-1,-1,-1]","[0.1537409304354345,-0.0053534543250667]","[-1,-1,-1]","[-0.11301397294322078,0.03793942703075489]","[-1,-1,-1]","[0.061325353843858274,0.03757928199750078]","[-1,-1,-1]","[0.17534306315310771,0.03155770106115605]","[1,1,1]","[-0.10085981021542058,0.1353620672958545]","[-1,-1,-1]","[-0.0070523581681405535,0.08419089626415126]","[-1,-1,-1]","[-0.11870679294834038,-0.15233934269216007]","[-1,-1,-1]","[-0.07399102569789347,-0.1559099236925348]","[-1,-1,-1]","[0.060536288941197544,-0.020206268295463018]","[-1,-1,-1]","[0.17794492422755664,0.08969638904218175]","[-1,-1,-1]","[-0.08386939690861407,0.09409012035744521]","[-1,-1,-1]","[0.02,0.02]",89.8086,0,3,3,28,1,,,,,,,
,,,,,,,5faeb56b25a37f01d47d326c,682db396950c0ec3f75fd358,2025-05-21_15h03.18.345,cuing_paradigm_dot,2024.1.5,Win32,142.8571429,682d556593cb38ad0a074487,,,,,,,,,,,89.8088,90.3087,,,90.5588,90.7533,left,0.1917,,,,,,,,,0.1,,,,,,90.3087,90.5588,90.7533,"[0.034216857581079424,0.15514978409141222]","[-1,-1,-1]","[0.09745477052822606,0.15054208148320578]","[-1,-1,-1]","[-0.1551473006698778,0.10393214608200196]","[-1,-1,-1]","[-0.0001401117779400839,0.18132627036188667]","[-1,-1,-1]","[-0.008643254334808809,0.13822747959830373]","[-1,-1,-1]","[-0.06622154526107563,-0.030423614614028177]","[-1,-1,-1]","[-0.11313422969948174,-0.13308249241441555]","[-1,-1,-1]","[-0.018495564247594663,-0.03597733676962186]","[-1,-1,-1]","[-0.0717170759060636,-0.12022675262299184]","[-1,-1,-1]","[-0.12375244930540172,-0.06804587181446152]","[-1,-1,-1]","[-0.0018023432831626082,-0.09766685956990505]","[-1,-1,-1]","[-0.06029054769906477,0.1586368274922806]","[-1,-1,-1]","[-0.18109037757684526,-0.05773009359522121]","[-1,-1,-1]","[0.030243148428613798,-0.010146615882089573]","[-1,-1,-1]","[0.05082249985667888,-0.06689751460842619]","[-1,-1,-1]","[0.1370375282318898,-0.0933930407155614]","[1,1,1]","[-0.007344061760769003,-0.17325749425604506]","[-1,-1,-1]","[-0.10905082238635425,0.12904648904318652]","[-1,-1,-1]","[-0.03165432739606267,-0.1331537280513262]","[1,1,1]","[-0.09118646414107602,0.07921925790655612]","[-1,-1,-1]","[-0.1720189515500782,0.04267297462653104]","[-1,-1,-1]","[0.17640102099734262,0.0323829080081189]","[-1,-1,-1]","[-0.05430985312415696,0.09887197403840414]","[-1,-1,-1]","[0.01583253892514313,0.08684959419979806]","[-1,-1,-1]","[0.05364877844580031,-0.11134090775134196]","[-1,-1,-1]","[0.12184175100722716,0.11388245885096637]","[-1,-1,-1]","[-0.03429161128831285,0.017170618239221527]","[-1,-1,-1]","[0.09191422970234855,-0.010969468383281337]","[1,1,1]","[0.04798074919654666,0.19377478334408235]","[-1,-1,-1]","[0.030385298943989475,-0.15031588001084337]","[-1,-1,-1]","[-0.10642369338405895,-0.03174724709354797]","[-1,-1,-1]","[0.06540260810002832,-0.18072249476820562]","[-1,-1,-1]","[0.02,0.02]",91.8505,0,4,4,26,1,,,,,,,
,,,,,,,5faeb56b25a37f01d47d326c,682db396950c0ec3f75fd358,2025-05-21_15h03.18.345,cuing_paradigm_dot,2024.1.5,Win32,142.8571429,682d556593cb38ad0a074487,,,,,,,,,,,91.8507,92.3506,,,92.6011,92.9133,right,0.3062,,,,,,,,,0.55,,,,,,92.3507,92.6011,92.9134,"[-0.19157067858112753,-0.019976072064381317]","[1,1,1]","[0.09944572344705697,-0.12332525637092798]","[1,1,1]","[-0.08826296289747303,0.055755018675773836]","[1,1,1]","[-0.12939014014697128,-0.05049402303949665]","[-1,-1,-1]","[-0.035271156720199204,-0.16569169523250768]","[1,1,1]","[-0.11358030445540117,-0.012179542543283229]","[-1,-1,-1]","[-0.11389653849741073,-0.15841117349671155]","[1,1,1]","[0.02774785694985617,0.019317859790198243]","[-1,-1,-1]","[0.14038453326723888,-0.010044019738534863]","[-1,-1,-1]","[-0.0054831822889317965,-0.1251711009497435]","[1,1,1]","[-0.019252453694796272,0.11192305277913181]","[1,1,1]","[-0.060435458251786395,-0.02566615883746081]","[-1,-1,-1]","[-0.05746675028848072,0.13295660539738785]","[1,1,1]","[0.11537611431324978,0.10555977623898105]","[1,1,1]","[0.12037283652858495,-0.05199942756822599]","[-1,-1,-1]","[0.03465608085149412,-0.17379722579900356]","[1,1,1]","[0.12223509864908867,0.031706367071445134]","[-1,-1,-1]","[-0.16083799439174953,0.04336248852115233]","[-1,-1,-1]","[0.09344474087553516,0.14203378229740818]","[1,1,1]","[0.14000895008326936,-0.09715096416282425]","[1,1,1]","[-0.0016230766930929457,0.16750298695378044]","[-1,-1,-1]","[0.06682089245195727,-0.013143265918349138]","[-1,-1,-1]","[-0.07347288118414873,0.1744189689075565]","[1,1,1]","[-0.11130058269243363,-0.10324494438743766]","[-1,-1,-1]","[-0.03566185542648516,0.0500970857783993]","[-1,-1,-1]","[0.182395089395416,-0.06921508138650459]","[1,1,1]","[-0.01866940274728435,-0.07538263036574677]","[1,1,1]","[-0.030270127745424716,0.001372972434115959]","[1,1,1]","[0.058472972947348316,-0.09165662192432272]","[-1,-1,-1]","[0.09176635979190718,0.05868103656430072]","[1,1,1]","[-0.16751924309096253,0.10688107388587754]","[-1,-1,-1]","[0.07471493291999035,0.18328711115637594]","[1,1,1]","[0.02,0.02]",94.0105,0,5,5,135,1,,,,,,,
,,,,,,,5faeb56b25a37f01d47d326c,682db396950c0ec3f75fd358,2025-05-21_15h03.18.345,cuing_paradigm_dot,2024.1.5,Win32,142.8571429,682d556593cb38ad0a074487,,,,,,,,,,,94.0108,94.5106,,,94.7607,95.1914,right,0.427,,,,,,,,,0.55,,,,,,94.5106,94.7607,95.1914,"[0.023022467068328445,-0.07239893098564343]","[1,1,1]","[-0.1464552182881208,-0.04344752237918208]","[1,1,1]","[0.14115738998303817,-0.09581634833187075]","[1,1,1]","[-0.09010728790034156,-0.10899729479489893]","[-1,-1,-1]","[0.03782256880860737,0.0368788077065703]","[1,1,1]","[0.16254213362047318,0.049542653817640045]","[1,1,1]","[-0.01824438576398923,-0.13452163679249007]","[-1,-1,-1]","[-0.15835317987593547,0.02842432525998808]","[-1,-1,-1]","[-0.07596191411958549,-0.18271870493334827]","[-1,-1,-1]","[-0.014982073546734311,-0.093544983002867]","[-1,-1,-1]","[-0.02651151993113562,0.18978711676106164]","[1,1,1]","[0.15400844230455554,0.11877204260513108]","[1,1,1]","[0.10717201967299872,0.07341255928019945]","[1,1,1]","[-0.0011097753177263026,-0.03294480299102791]","[-1,-1,-1]","[0.07819638314000779,-0.17813285862785125]","[1,1,1]","[0.06627421191178495,-0.12483447128651452]","[1,1,1]","[0.054540274022571916,0.0748940546337168]","[1,1,1]","[0.03056941828317024,0.12859386865926623]","[-1,-1,-1]","[-0.1620178672130007,0.07492264124790733]","[1,1,1]","[0.16044112517533102,-0.03053071613220753]","[1,1,1]","[0.07707157737425836,-0.012538524838922906]","[-1,-1,-1]","[-0.06401402355071381,0.05935713272738427]","[1,1,1]","[-0.0007873021143370473,-0.1933681386035694]","[1,1,1]","[0.06791862859281035,-0.05421985181093289]","[-1,-1,-1]","[-0.07081038273587778,0.10914122106994369]","[-1,-1,-1]","[0.19760939885099982,0.004815572712628459]","[-1,-1,-1]","[-0.079740714117987,-0.0003447707530353566]","[-1,-1,-1]","[-0.06560128724833708,0.1673337272736321]","[1,1,1]","[0.022737661622047673,-0.13239987539795037]","[1,1,1]","[-0.05384861420342509,-0.07179734111472827]","[1,1,1]","[0.07537410264322232,0.16691726737488793]","[-1,-1,-1]","[0.11034076945767106,-0.0389478563950726]","[-1,-1,-1]","[0.02,0.02]",96.2886,0,6,6,128,1,,,,,,,
,,,,,,,5faeb56b25a37f01d47d326c,682db396950c0ec3f75fd358,2025-05-21_15h03.18.345,cuing_paradigm_dot,2024.1.5,Win32,142.8571429,682d556593cb38ad0a074487,,,,,,,,,,,96.2888,96.7886,,,97.039,97.393,right,0.3498,,,,,,,,,0.9,,,,,,96.7887,97.0389,97.393,"[0.18338812846266841,0.03243477689945874]","[1,1,1]","[-0.079635406250775,-0.08294733363127162]","[1,1,1]","[0.10654336836432089,-0.02659325706127176]","[1,1,1]","[0.0725725428644324,0.06601779074544753]","[1,1,1]","[-0.006329266792842112,0.14230126699732143]","[1,1,1]","[0.1274533542500532,0.06105414021718167]","[1,1,1]","[-0.09717595888226341,0.12154159547435361]","[-1,-1,-1]","[-0.14229955726650612,0.10578411916943643]","[1,1,1]","[0.058583257286710815,-0.15214043914571584]","[1,1,1]","[-0.10317919495711474,0.06311136133577519]","[-1,-1,-1]","[0.0119023885441136,-0.07584110929580375]","[1,1,1]","[-0.17025846577100415,-0.004368212418768983]","[1,1,1]","[0.08211842781232977,0.005162003497748278]","[1,1,1]","[-0.12820008401539112,-0.10971490840100538]","[1,1,1]","[-0.07744750908889479,0.001289678494917766]","[1,1,1]","[0.004441467050929914,0.03858375702141556]","[1,1,1]","[-0.025508155241900927,-0.03266456841379785]","[1,1,1]","[-0.12852753256033492,-0.023616955754934423]","[1,1,1]","[0.14157950407710124,0.12945845263256547]","[1,1,1]","[-0.05084750473967062,-0.13375666457633534]","[1,1,1]","[-0.16887155273795987,-0.0865840756610855]","[1,1,1]","[0.0022093142665780777,-0.1801346605130376]","[1,1,1]","[0.17834628612568906,-0.04896083028950408]","[-1,-1,-1]","[0.0756753482792329,-0.0877914201269836]","[1,1,1]","[0.14313777210637604,-0.008415470026571965]","[1,1,1]","[0.13855707249854166,-0.1411475382579342]","[1,1,1]","[-0.031647826950990464,0.059351090173360176]","[1,1,1]","[-0.18837583205933678,0.03623676050047123]","[1,1,1]","[0.09700913563236276,-0.13506611904056637]","[1,1,1]","[-0.14825474323607554,0.04399369370106467]","[1,1,1]","[-0.17772975160160417,0.07839030526110176]","[1,1,1]","[0.1324749779186096,-0.06482047073954064]","[1,1,1]","[0.02,0.02]",98.4902,0,7,7,184,1,,,,,,,
,,,,,,,5faeb56b25a37f01d47d326c,682db396950c0ec3f75fd358,2025-05-21_15h03.18.345,cuing_paradigm_dot,2024.1.5,Win32,142.8571429,682d556593cb38ad0a074487,,,,,,,,,,,98.4905,98.9904,,,99.2405,99.7197,right,0.473,,,,,,,,,0.6,,,,,,98.9904,99.2405,99.7197,"[0.0512526422443328,-0.16222397230655294]","[1,1,1]","[0.131281164212038,-0.14607104303512106]","[-1,-1,-1]","[-0.04677498150982717,-0.11551503552695713]","[-1,-1,-1]","[-0.15325627255077762,-0.04530628073555394]","[1,1,1]","[-0.021916723549716258,-0.07038586866352943]","[-1,-1,-1]","[-0.0018571467535175893,0.06560967533836921]","[1,1,1]","[-0.029834143874039265,0.011943615718821772]","[1,1,1]","[0.12719994604117085,0.13887524074406415]","[1,1,1]","[0.0903162757656752,-0.06847590241707029]","[1,1,1]","[-0.02429095391914391,0.10069979909453476]","[1,1,1]","[-0.03325092480559003,0.1963560421263843]","[1,1,1]","[-0.022267390278315393,-0.16381503330347028]","[1,1,1]","[0.03956379335340136,0.027051328706111835]","[1,1,1]","[-0.07972115455407289,0.10457383928521624]","[1,1,1]","[0.16760913445100342,-0.10321574538606268]","[1,1,1]","[0.07704969794367729,-0.10820571271496367]","[1,1,1]","[-0.13085403549842506,-0.09063449959054456]","[-1,-1,-1]","[0.18112304629730994,0.0021337205973475464]","[1,1,1]","[-0.11238471445508141,-0.12756748282238115]","[-1,-1,-1]","[-0.17887782650313397,0.01735089146459452]","[1,1,1]","[0.06668295402455643,0.10993744932550506]","[-1,-1,-1]","[0.015096077472054865,-0.10569059637652597]","[-1,-1,-1]","[0.13626025763924465,-0.045701024499346495]","[-1,-1,-1]","[-0.10967801704022942,-0.03544389951554228]","[-1,-1,-1]","[-0.09737054213180116,0.011501902508712592]","[-1,-1,-1]","[-0.05395866885649492,0.1513227286645683]","[1,1,1]","[-0.13598182064486392,0.02349958769361327]","[-1,-1,-1]","[-0.10365446684205662,0.16871946632257492]","[1,1,1]","[0.0934241071046523,0.06743593523355883]","[-1,-1,-1]","[-0.013940500725389923,-0.02898802402721886]","[1,1,1]","[0.1549088393872182,0.0978458506322599]","[1,1,1]","[0.03882227955730351,-0.03613514100555713]","[-1,-1,-1]","[0.02,0.02]",100.8169,0,8,8,157,1,,,,,,,
,,,,,,,5faeb56b25a37f01d47d326c,682db396950c0ec3f75fd358,2025-05-21_15h03.18.345,cuing_paradigm_dot,2024.1.5,Win32,142.8571429,682d556593cb38ad0a074487,,,,,,,,,,,100.8171,101.317,,,101.5673,101.9422,left,0.3703,,,,,,,,,0.45,,,,,,101.317,101.5673,101.9422,"[-0.10093441742452998,0.14025133915065835]","[-1,-1,-1]","[0.010029120476371237,0.19553840983804333]","[-1,-1,-1]","[-0.02658879475335658,-0.15323031519954358]","[-1,-1,-1]","[0.06357768239740856,-0.1653225935309421]","[1,1,1]","[-0.02923581732063884,0.051065888244091036]","[-1,-1,-1]","[-0.11811615384681938,-0.10587657822812295]","[1,1,1]","[0.1107703368705013,0.022891848954728053]","[-1,-1,-1]","[-0.14524662402092609,0.06959078965909392]","[1,1,1]","[-0.17141106601351047,-0.008800011983540927]","[1,1,1]","[-0.013035107633501027,-0.08118713677127626]","[1,1,1]","[0.06820253466730389,0.15680140939850415]","[-1,-1,-1]","[-0.0829028397339642,-0.15380167645666998]","[-1,-1,-1]","[-0.021418864603917454,0.16463142604922482]","[1,1,1]","[-0.1084676963007688,0.005660864074058037]","[-1,-1,-1]","[-0.010295940747720878,-0.011184914535228541]","[-1,-1,-1]","[0.1825732587731425,0.005350290229361776]","[1,1,1]","[-0.03667988763678275,-0.04769230538749614]","[-1,-1,-1]","[0.04977291648149592,-0.07170808808767351]","[-1,-1,-1]","[0.01734004516730433,0.08048727144654985]","[1,1,1]","[0.026964237093264072,0.1412388294789689]","[1,1,1]","[-0.08101136043557594,-0.07093988832307478]","[-1,-1,-1]","[0.15857052155548693,0.05515438657452263]","[-1,-1,-1]","[-0.14789659473289307,-0.07747154612784522]","[-1,-1,-1]","[-0.09696133799349826,0.052855676921996504]","[1,1,1]","[0.17490903184175727,-0.06336453542459783]","[-1,-1,-1]","[-0.00826011852924252,-0.19490321290022147]","[1,1,1]","[0.04991030509530422,0.04584327213707639]","[1,1,1]","[0.09318632316075179,0.0627030142007147]","[1,1,1]","[0.05678415287212786,-0.01924199746890101]","[-1,-1,-1]","[0.10936847913190832,0.14207060137417452]","[-1,-1,-1]","[0.038160400960504076,-0.12425351120378775]","[-1,-1,-1]","[0.14015891287772478,-0.013310021601410118]","[1,1,1]","[0.02,0.02]",103.0394,0,9,9,79,1,,,,,,,
,,,,,,,5faeb56b25a37f01d47d326c,682db396950c0ec3f75fd358,2025-05-21_15h03.18.345,cuing_paradigm_dot,2024.1.5,Win32,142.8571429,682d556593cb38ad0a074487,,,,,,,,,,,103.0397,103.5395,,,103.7897,104.2759,right,0.4829,,,,,,,,,0.55,,,,,,103.5395,103.7897,104.2759,"[-0.11759536546845095,0.1136350685049365]","[-1,-1,-1]","[-0.08680334454562212,-0.0924927462049329]","[1,1,1]","[-0.07132009866757132,-0.014343288415496331]","[-1,-1,-1]","[-0.026610066218628433,-0.17559812998513724]","[1,1,1]","[-0.05596294847545362,0.07243538005271112]","[-1,-1,-1]","[0.05635288273525423,0.08605056276933663]","[1,1,1]","[0.1490434736734804,0.020381111602193986]","[-1,-1,-1]","[0.16427274971964667,0.10091670040972553]","[1,1,1]","[0.051655989865464116,0.16975103519266424]","[1,1,1]","[0.08228700796020762,0.05558859639248374]","[1,1,1]","[-0.1585854485833909,-0.05073978543095984]","[1,1,1]","[0.10012401810146242,0.15189477750168043]","[1,1,1]","[0.021107630043511506,-0.11744074169368245]","[-1,-1,-1]","[-0.020377960775359832,-0.13477613879977537]","[1,1,1]","[-0.08259065080861316,-0.1766460969056845]","[1,1,1]","[0.08680644217977208,-0.033985583258772226]","[-1,-1,-1]","[-0.07958460886356886,0.12662041338113145]","[1,1,1]","[-0.04797008902874717,-0.048076338825231824]","[1,1,1]","[-0.10607264305809497,0.014554183105774198]","[1,1,1]","[-0.06763237947408628,-0.13490682022814923]","[-1,-1,-1]","[0.19106124551782144,0.04858183130401092]","[-1,-1,-1]","[0.012030300508034443,0.014019481487125634]","[1,1,1]","[0.032169618362598615,0.12118120138518237]","[-1,-1,-1]","[0.18944374879034753,-0.008740958116415929]","[1,1,1]","[-0.01282970354629738,0.13645277423580632]","[-1,-1,-1]","[-0.1661865144239035,0.010221290596142936]","[-1,-1,-1]","[0.16551163617516565,-0.06043310315806042]","[-1,-1,-1]","[0.023644606484609573,-0.1922225602585842]","[1,1,1]","[0.08684788002668827,0.014568588455885472]","[-1,-1,-1]","[-0.18795457244075717,0.06609390792835862]","[1,1,1]","[0.10067804420761538,-0.09418138325874648]","[1,1,1]","[-0.1553434435487875,-0.1180279520581019]","[-1,-1,-1]","[0.02,0.02]",105.3731,0,10,10,122,1,,,,,,,
,,,,,,,5faeb56b25a37f01d47d326c,682db396950c0ec3f75fd358,2025-05-21_15h03.18.345,cuing_paradigm_dot,2024.1.5,Win32,142.8571429,682d556593cb38ad0a074487,,,,,,,,,,,105.3732,105.8731,,,106.1234,106.7345,left,0.6084,,,,,,,,,0.6,,,,,,105.8732,106.1234,106.7345,"[0.15842972980116501,-0.06945632608359097]","[-1,-1,-1]","[0.0875146049631032,0.15919687324739248]","[1,1,1]","[-0.1695496030252755,-0.08729490966970536]","[1,1,1]","[-0.11783166679412074,0.039435958366438484]","[-1,-1,-1]","[0.17697078491831533,0.08638050353914122]","[-1,-1,-1]","[0.09767884239586952,0.06073827213756181]","[1,1,1]","[-0.044360431553316,-0.0013277188375996766]","[1,1,1]","[0.13515812802728822,0.07761722556528716]","[-1,-1,-1]","[-0.07002106316596617,-0.05218220182577084]","[-1,-1,-1]","[0.06361940568876764,-0.05586045020587393]","[1,1,1]","[-0.03099209972756006,0.06341155838553662]","[1,1,1]","[0.08449177481898598,-0.002003647119832139]","[-1,-1,-1]","[-0.12915866929187955,-0.020258632421734993]","[1,1,1]","[0.038198501678498614,-0.022983161870318295]","[1,1,1]","[-0.05999502759078269,0.17328712345273833]","[1,1,1]","[0.0615765180794591,0.12659767637459265]","[-1,-1,-1]","[0.14227506061179213,0.031627081650239]","[-1,-1,-1]","[-0.019181925638126315,-0.11412519809109202]","[1,1,1]","[0.030758049049096375,-0.1856012769738488]","[-1,-1,-1]","[-0.09309724012642592,0.12285363180295503]","[-1,-1,-1]","[-0.19428874839402566,0.010340299269636864]","[1,1,1]","[-0.003447887298604963,-0.035772819975835216]","[1,1,1]","[-0.10268505298827499,-0.10056596751788899]","[1,1,1]","[0.1877948438871873,0.027952409852249855]","[1,1,1]","[0.09776844763745338,0.10947428796774969]","[1,1,1]","[0.013824811087211335,0.06385111809117729]","[1,1,1]","[-0.18530612767345533,0.06507170241911124]","[-1,-1,-1]","[0.08393089807625706,-0.17586100630511767]","[-1,-1,-1]","[0.12408098785222064,-0.03782829624281966]","[1,1,1]","[-0.14234421450957596,-0.12266383489370591]","[1,1,1]","[0.03929040621778494,0.16790830311067861]","[-1,-1,-1]","[0.022683561232640627,-0.11969458501042823]","[1,1,1]","[0.02,0.02]",107.8318,0,11,11,179,1,,,,,,,
,,,,,,,5faeb56b25a37f01d47d326c,682db396950c0ec3f75fd358,2025-05-21_15h03.18.345,cuing_paradigm_dot,2024.1.5,Win32,142.8571429,682d556593cb38ad0a074487,,,,,,,,,,,107.832,108.3318,,,108.582,109.0473,left,0.4637,,,,,,,,,0.45,,,,,,108.3318,108.582,109.0474,"[0.04208088036976582,0.18542724750688888]","[1,1,1]","[-0.044390097032933416,-0.032983244906825526]","[1,1,1]","[-0.09007946610628136,0.04766328388511486]","[-1,-1,-1]","[0.1776482921039056,0.036354083239373614]","[-1,-1,-1]","[0.08172434385351934,-0.07141544706800225]","[-1,-1,-1]","[-0.08150739712969735,0.0991087559158891]","[1,1,1]","[-0.06922173339885483,-0.1811143864479822]","[-1,-1,-1]","[0.015234469441734663,0.1371382949616442]","[1,1,1]","[0.1664120366155374,-0.0592850106081399]","[1,1,1]","[0.12245495157000763,0.06745655578656595]","[-1,-1,-1]","[-0.17704826443408447,0.028227722981707167]","[1,1,1]","[0.015271900240893114,-0.07534472334950706]","[-1,-1,-1]","[0.12078092236789922,-0.03197038824405588]","[1,1,1]","[-0.1192482870611991,-0.11473912862464014]","[-1,-1,-1]","[0.022548928193860847,-0.009022939567417279]","[1,1,1]","[0.12697016608650774,-0.07160237861254422]","[-1,-1,-1]","[0.005583370590481022,-0.1564247856388401]","[-1,-1,-1]","[-0.024030642440423036,0.15073361644112762]","[-1,-1,-1]","[0.05324699370349068,0.052501654339279065]","[-1,-1,-1]","[-0.10454684962569068,-0.15219083046967846]","[-1,-1,-1]","[-0.1486180141528059,-0.02211988717485657]","[-1,-1,-1]","[0.07240528418255819,0.12468709615579723]","[1,1,1]","[-0.15118839859830766,0.10815315484898178]","[1,1,1]","[0.0910962956966007,0.015156647158649755]","[1,1,1]","[-0.10688569321233637,-0.012364876523410626]","[-1,-1,-1]","[0.198081221636864,-0.015160564774659904]","[-1,-1,-1]","[0.12063819650312999,0.11829321327078797]","[1,1,1]","[-0.054827199047319614,0.18284722181049137]","[-1,-1,-1]","[-0.04036249627764834,0.056692117968251736]","[1,1,1]","[-0.11441655287042472,0.15788002085249586]","[1,1,1]","[-0.09618810684119747,-0.08183208789836159]","[-1,-1,-1]","[0.139855574665264,0.017047003729060317]","[-1,-1,-1]","[0.02,0.02]",110.1445,0,12,12,74,1,,,,,,,
,,,,,,,5faeb56b25a37f01d47d326c,682db396950c0ec3f75fd358,2025-05-21_15h03.18.345,cuing_paradigm_dot,2024.1.5,Win32,142.8571429,682d556593cb38ad0a074487,,,,,,,,,,,110.1448,110.6446,,,110.8947,111.5754,left,0.6779,,,,,,,,,0.55,,,,,,110.6446,110.8947,111.5754,"[-0.07049108626332601,-0.1831214380156367]","[-1,-1,-1]","[0.04811014357782915,-0.043265208403157604]","[1,1,1]","[-0.02547010811685163,-0.047531722052941205]","[-1,-1,-1]","[0.05253919671411649,0.019746339960134664]","[1,1,1]","[0.09160963140418904,0.044109357522033946]","[1,1,1]","[-0.016882363336155618,0.03361762621252249]","[-1,-1,-1]","[0.08932570703882245,-0.08651239972334994]","[1,1,1]","[-0.19321618920590425,-0.03735305758947684]","[-1,-1,-1]","[-0.09096798486734907,-0.14195569513772077]","[1,1,1]","[0.0840012488031563,0.13661624707687442]","[1,1,1]","[0.13944178937826837,0.14286348841412133]","[-1,-1,-1]","[-0.05826142536571008,0.1620411640199176]","[1,1,1]","[-0.112766146797015,0.1515231815809249]","[1,1,1]","[0.054924422644132935,-0.14838438847354557]","[1,1,1]","[-0.12254237312047654,-0.005711628603253827]","[-1,-1,-1]","[-0.14442567443659834,0.05803956037876281]","[1,1,1]","[-0.15491627442918615,0.10541271928440353]","[-1,-1,-1]","[0.13602668247599453,0.08699208684503291]","[-1,-1,-1]","[-0.1412824499569629,-0.12242141906973943]","[1,1,1]","[-0.12437810856686442,-0.07215593095402312]","[-1,-1,-1]","[0.16885495945025045,-0.027728394869204302]","[-1,-1,-1]","[0.11998546491694148,-0.03711103266930686]","[1,1,1]","[-0.05247809881763039,0.0728490076343281]","[-1,-1,-1]","[-0.06792726357519624,-0.07668109248187348]","[1,1,1]","[0.14728278130084435,0.016515414008520288]","[-1,-1,-1]","[0.18336657614695806,0.040997996019992836]","[-1,-1,-1]","[-0.04924092217602513,-0.12250325241774289]","[1,1,1]","[0.1285104551683282,-0.12179298099953953]","[-1,-1,-1]","[0.06599742448672996,0.09740975546117968]","[1,1,1]","[0.0471227602294874,0.17686157623336854]","[1,1,1]","[0.004704309915631745,-0.013538400533983246]","[1,1,1]","[-0.008863627646894207,-0.14629988697042393]","[1,1,1]","[0.02,0.02]",112.6726,0,13,13,132,1,,,,,,,
,,,,,,,5faeb56b25a37f01d47d326c,682db396950c0ec3f75fd358,2025-05-21_15h03.18.345,cuing_paradigm_dot,2024.1.5,Win32,142.8571429,682d556593cb38ad0a074487,,,,,,,,,,,112.6729,113.1727,,,113.4228,113.791,left,0.3628,,,,,,,,,0.45,,,,,,113.1727,113.4228,113.791,"[-0.09775833018581229,-0.08632459544832868]","[-1,-1,-1]","[-0.16937410377581624,-0.002318407468528216]","[1,1,1]","[-0.02050604295856278,-0.02753442259601185]","[-1,-1,-1]","[0.09275844108029055,0.07632588742554103]","[-1,-1,-1]","[0.16822059854931795,-0.08260703723864145]","[-1,-1,-1]","[-0.16779972133734092,0.07241670644118701]","[1,1,1]","[-0.1396984336900433,0.1403449480271174]","[1,1,1]","[0.04562342579781558,-0.09071162690076572]","[-1,-1,-1]","[0.04602028688759465,0.0015234981850299639]","[-1,-1,-1]","[0.053190555528155714,0.10285787312325116]","[1,1,1]","[0.12591652062428513,0.14600405205327943]","[1,1,1]","[0.14198086155906495,-0.008113056998846922]","[-1,-1,-1]","[-0.0064718563962863195,0.11807826418348284]","[1,1,1]","[0.01634972434047631,0.19216030836589962]","[-1,-1,-1]","[-0.0477250037156245,0.07791784097577094]","[-1,-1,-1]","[0.05985343716293485,-0.17657469161846384]","[-1,-1,-1]","[-0.047872381916526034,0.14571967681766818]","[-1,-1,-1]","[0.05097951651667084,-0.05053042474524359]","[-1,-1,-1]","[0.06070770053198657,-0.1351089426315943]","[-1,-1,-1]","[-0.08568264871243261,-0.038046803428756805]","[-1,-1,-1]","[-0.0028632339825929755,-0.19909708881412838]","[-1,-1,-1]","[-0.10265278569347429,0.03701058554378049]","[1,1,1]","[-0.0889221971575061,0.08324876977748213]","[1,1,1]","[-0.11234901234449486,-0.1444883857715296]","[1,1,1]","[0.07229121664815916,0.040512669386433414]","[1,1,1]","[0.11570110356187253,-0.06786879085805365]","[1,1,1]","[-0.020474743219426755,-0.12275283500760016]","[1,1,1]","[0.16578542631692955,0.06952355930300026]","[1,1,1]","[0.00983807079974841,0.07741474415536986]","[-1,-1,-1]","[0.06584322480709902,0.1776626350584743]","[-1,-1,-1]","[0.19630118192502002,0.03172210482427333]","[-1,-1,-1]","[0.12097355673780184,-0.13512496170788188]","[1,1,1]","[0.02,0.02]",114.8882,0,14,14,87,1,,,,,,,
,,,,,,,5faeb56b25a37f01d47d326c,682db396950c0ec3f75fd358,2025-05-21_15h03.18.345,cuing_paradigm_dot,2024.1.5,Win32,142.8571429,682d556593cb38ad0a074487,,,,,,,,,,,114.8883,115.3883,,,115.6384,116.2357,right,0.5941,,,,,,,,,0.45,,,,,,115.3883,115.6384,116.2358,"[-0.02263047496208038,-0.1486523587797899]","[-1,-1,-1]","[-0.04513769884394077,0.09373237921198066]","[1,1,1]","[0.17346068936072012,-0.013701456752492198]","[1,1,1]","[-0.1951055697710672,-0.023493515070310104]","[1,1,1]","[0.007602983008921828,0.0820649486096574]","[1,1,1]","[0.12921239092377512,0.12827641775846627]","[1,1,1]","[0.11257165825858445,-0.15396421937517957]","[1,1,1]","[0.15658835463559906,-0.08156134436073129]","[-1,-1,-1]","[-0.06549884449861129,0.05493605137828576]","[-1,-1,-1]","[-0.12167385475817644,0.10069137226921444]","[-1,-1,-1]","[-0.01709658880925903,0.16209099306769942]","[-1,-1,-1]","[-0.09842981527845651,-0.156108688426921]","[-1,-1,-1]","[-0.13626566731531967,-0.0991589289585293]","[-1,-1,-1]","[0.016964078134191783,-0.06453952063199922]","[-1,-1,-1]","[0.13765729333053986,-0.03201175015146071]","[1,1,1]","[0.035096007436936257,-0.14664910202388204]","[-1,-1,-1]","[-0.058940349780378924,0.1638946349175296]","[-1,-1,-1]","[-0.1231191450431447,0.025143022335524016]","[-1,-1,-1]","[-0.133883717105643,-0.05382038523847308]","[1,1,1]","[0.04896316446803126,0.193030671379218]","[-1,-1,-1]","[0.15939511104269444,0.05983853223013842]","[-1,-1,-1]","[0.07175571654496285,-0.07071582367412306]","[-1,-1,-1]","[0.050549086403931465,-0.18771306854845313]","[1,1,1]","[0.06803492074414247,0.005645762007422438]","[1,1,1]","[0.07814653048574116,0.13695202072662804]","[-1,-1,-1]","[0.06576822392265708,0.06935207370457586]","[-1,-1,-1]","[-0.16083260253176665,0.04755845364426119]","[1,1,1]","[0.1002640509638114,0.0922796563373438]","[1,1,1]","[-0.10537289281839785,0.1439687546623227]","[1,1,1]","[-0.06098497668227432,-0.1124381647427064]","[-1,-1,-1]","[0.10202126475595162,0.0470021886516194]","[-1,-1,-1]","[-0.03335519298027831,-0.04887510270352232]","[1,1,1]","[0.02,0.02]",117.333,0,15,15,75,1,,,,,,,
,,,,,,,5faeb56b25a37f01d47d326c,682db396950c0ec3f75fd358,2025-05-21_15h03.18.345,cuing_paradigm_dot,2024.1.5,Win32,142.8571429,682d556593cb38ad0a074487,,,,,,,,,,,117.3332,117.833,,,118.0832,118.4235,left,0.3387,,,,,,,,,0.4,,,,,,117.833,118.0832,118.4235,"[-0.09835668540191583,0.04466462279202192]","[-1,-1,-1]","[-0.08220109195041124,0.16764300719693623]","[1,1,1]","[0.1106851710421149,-0.020770214513387897]","[1,1,1]","[-0.09139879456055751,-0.0900505689243507]","[-1,-1,-1]","[-0.10817996038354566,-0.162508042981578]","[1,1,1]","[0.006369990264878529,-0.03238558632556502]","[-1,-1,-1]","[0.01623909986295538,-0.18178607230524224]","[-1,-1,-1]","[0.020703384390723407,0.09139698810088565]","[-1,-1,-1]","[-0.044547066615566996,0.00017656673944283933]","[-1,-1,-1]","[0.13800420510760975,0.024914632720634395]","[1,1,1]","[0.040527314882777575,-0.06974833397905962]","[1,1,1]","[-0.16863961500039742,-0.07104123157012539]","[-1,-1,-1]","[0.1772812983512561,-0.07088045187638732]","[-1,-1,-1]","[-0.04160906724349483,0.041111314492299635]","[1,1,1]","[0.08053533617064397,-0.06407667529434734]","[-1,-1,-1]","[0.09585425843055109,-0.13689975746686345]","[1,1,1]","[0.031910872717142644,0.007265939038296984]","[-1,-1,-1]","[0.07007705296760888,-0.019850573442334832]","[-1,-1,-1]","[0.0800985912603331,0.15265567287966178]","[-1,-1,-1]","[-0.08451779243037345,0.0913818512359812]","[1,1,1]","[-0.06822671687059635,-0.16752156493992845]","[-1,-1,-1]","[0.019276734608663755,0.19570778061217975]","[-1,-1,-1]","[-0.13098783495594782,0.12079515351603878]","[-1,-1,-1]","[0.12079871501976606,0.06687244819206696]","[1,1,1]","[-0.007240190278816559,-0.12110611684309074]","[1,1,1]","[0.033701777343621564,-0.12048486964749734]","[1,1,1]","[0.13568362749939358,-0.0865943144778269]","[-1,-1,-1]","[-0.16526453318283346,0.037098238954173225]","[-1,-1,-1]","[-0.027568500359571656,0.17033603209080617]","[-1,-1,-1]","[-0.0714910884464926,-0.03559289113951077]","[1,1,1]","[-0.034084815772696966,0.11134302654838696]","[-1,-1,-1]","[0.19110110241953354,-0.018168995526364324]","[1,1,1]","[0.02,0.02]",119.5207,0,16,16,57,1,,,,,,,
,,,,,,,5faeb56b25a37f01d47d326c,682db396950c0ec3f75fd358,2025-05-21_15h03.18.345,cuing_paradigm_dot,2024.1.5,Win32,142.8571429,682d556593cb38ad0a074487,,,,,,,,,,,119.5209,120.0208,,,120.271,120.9725,right,0.6997,,,,,,,,,0.55,,,,,,120.0208,120.2709,120.9725,"[0.08181538265699308,0.11731015132652574]","[-1,-1,-1]","[-0.06165663669132851,0.1503183507643971]","[-1,-1,-1]","[-0.05046548064542567,-0.1772491198281887]","[-1,-1,-1]","[0.16819678416552927,-0.08188986111777373]","[1,1,1]","[0.04738500461163105,-0.12881837298307294]","[-1,-1,-1]","[0.04632933569923443,0.048171682109412715]","[1,1,1]","[-0.055757805978598966,0.09468655906515357]","[-1,-1,-1]","[-0.0905996574573504,-0.061274977578166474]","[-1,-1,-1]","[0.0626988676539808,-0.030154464761596726]","[1,1,1]","[-0.17795268688632743,0.07402223244405286]","[-1,-1,-1]","[-0.10691523018826483,0.05978530623258157]","[1,1,1]","[0.1438657216897542,-0.13358009599604312]","[1,1,1]","[0.1678799603610464,-0.005164862854773196]","[1,1,1]","[0.18938687235807142,0.035100686285217376]","[-1,-1,-1]","[0.04436857859750654,-0.08853325770143423]","[1,1,1]","[-0.008875939202990001,-0.01864366091055662]","[-1,-1,-1]","[0.0285028089085347,0.08621994045258885]","[1,1,1]","[0.15551284216775227,0.06342683881098744]","[1,1,1]","[0.1401817753948662,-0.05287450004194947]","[-1,-1,-1]","[-0.09339499609258299,-0.12290352415690547]","[1,1,1]","[-0.01688703618698987,0.12926276626235017]","[-1,-1,-1]","[0.10262001143004255,0.16934094926989257]","[1,1,1]","[-0.11233015226923058,0.003501127392630663]","[1,1,1]","[-0.09355597858800783,0.11919728566161139]","[1,1,1]","[0.013064022962585521,-0.18966014678742363]","[1,1,1]","[-0.054035454568117355,0.02833372931961921]","[1,1,1]","[0.13578323844937146,0.10009413481449903]","[1,1,1]","[-0.1817141039677138,-0.03605930697906084]","[1,1,1]","[0.09896533757355858,0.04216209108320029]","[1,1,1]","[-0.022001703831696136,-0.08671722144978336]","[-1,-1,-1]","[-0.13636863030673316,0.1435935026195469]","[-1,-1,-1]","[-0.14073246744796777,-0.10499572707243497]","[-1,-1,-1]","[0.02,0.02]",122.0697,0,17,17,142,1,,,,,,,
,,,,,,,5faeb56b25a37f01d47d326c,682db396950c0ec3f75fd358,2025-05-21_15h03.18.345,cuing_paradigm_dot,2024.1.5,Win32,142.8571429,682d556593cb38ad0a074487,,,,,,,,,,,122.0699,122.5697,,,122.8199,123.4034,left,0.5767,,,,,,,,,0.5,,,,,,122.5697,122.8199,123.4034,"[0.10783312490241397,0.04161382632630151]","[1,1,1]","[-0.11077935669692235,-0.07418769333276386]","[1,1,1]","[-0.08160475147052494,0.028062616174044062]","[1,1,1]","[0.06141441185069102,0.1100319180626077]","[-1,-1,-1]","[-0.14401087518754224,-0.11275479487549311]","[-1,-1,-1]","[0.006721206980046489,0.1814215686733424]","[1,1,1]","[-0.12122838534803372,0.11592591510331866]","[-1,-1,-1]","[0.019161046440194927,0.11614786468594265]","[-1,-1,-1]","[0.1365947032242035,-0.006319498243135788]","[1,1,1]","[0.0009326493189667031,0.05824264891786472]","[1,1,1]","[-0.1617186324522146,0.007821013260985646]","[-1,-1,-1]","[0.1996220486398954,-0.006873519578698863]","[-1,-1,-1]","[0.048259106833133066,-0.02665994727706867]","[-1,-1,-1]","[0.03978627272590128,0.06870319030579466]","[-1,-1,-1]","[0.004841923487550972,-0.06833914819015925]","[1,1,1]","[0.1851477215028506,0.039303051306768075]","[1,1,1]","[0.11472773643942036,-0.13173581162270936]","[-1,-1,-1]","[-0.03560777792720464,-0.05917984682375134]","[-1,-1,-1]","[-0.13040489681757175,-0.022786681963516863]","[1,1,1]","[-0.0353485805548109,-0.19412055519063812]","[-1,-1,-1]","[0.06757539368496646,0.033722175171660665]","[-1,-1,-1]","[0.06937659137506919,-0.0881991545052678]","[1,1,1]","[0.1754984886691874,-0.07883711896047195]","[-1,-1,-1]","[0.12088502344667086,0.12010043199018369]","[1,1,1]","[0.055812881711632054,0.15346060418228155]","[-1,-1,-1]","[0.16992364439762764,0.10077522387791756]","[1,1,1]","[-0.1893701454920929,-0.056016120534137355]","[-1,-1,-1]","[-0.12348886741464608,0.04672146808186303]","[-1,-1,-1]","[-0.055700343096298406,-0.13606631945921013]","[1,1,1]","[0.017918382233259967,0.008673690397549587]","[1,1,1]","[0.09926235212535799,-0.02957674924779803]","[1,1,1]","[-0.05612863212610508,-0.02477362149491658]","[1,1,1]","[0.02,0.02]",124.5006,0,18,18,95,1,,,,,,,
,,,,,,,5faeb56b25a37f01d47d326c,682db396950c0ec3f75fd358,2025-05-21_15h03.18.345,cuing_paradigm_dot,2024.1.5,Win32,142.8571429,682d556593cb38ad0a074487,,,,,,,,,,,124.5008,125.0006,,,125.2507,125.5773,left,0.324,,,,,,,,,0.4,,,,,,125.0006,125.2507,125.5773,"[-0.13430774668385814,0.13565671365060744]","[1,1,1]","[0.07913663909461283,-0.057687594775179485]","[1,1,1]","[0.16099183865850025,-0.08762624232862685]","[1,1,1]","[-0.08690865080259184,0.09202881753983351]","[1,1,1]","[-0.00023051106839817973,0.12742030976349775]","[1,1,1]","[0.10225372001891957,0.010335272058511579]","[1,1,1]","[0.024557601281806108,-0.10063927530102941]","[-1,-1,-1]","[0.02289229476054972,-0.01901098855359569]","[-1,-1,-1]","[0.012201511618786715,0.04407247077570982]","[-1,-1,-1]","[-0.10377081641861184,-0.08860586393193952]","[-1,-1,-1]","[0.08548467471417065,0.17212597463750556]","[1,1,1]","[0.11090225576562163,-0.13685574372545012]","[-1,-1,-1]","[-0.021351489662031996,-0.07974949737948886]","[-1,-1,-1]","[-0.15982728994342052,-0.023856147309224363]","[-1,-1,-1]","[-0.11970444867797968,0.05593551677250791]","[-1,-1,-1]","[-0.11059619226944338,-0.03726879664549003]","[1,1,1]","[0.06560102961267612,-0.15840744822689695]","[-1,-1,-1]","[0.1132078858242346,0.09021296795612015]","[-1,-1,-1]","[0.11373286954385044,-0.09586096057670536]","[-1,-1,-1]","[0.03053839084366729,0.09923047984824584]","[-1,-1,-1]","[-0.0627871133349779,-0.0018049802041720778]","[1,1,1]","[-0.03307118256673836,0.1611391606275649]","[-1,-1,-1]","[0.14266655197246317,-0.021770457741457413]","[-1,-1,-1]","[-0.005346454407983033,-0.16786555158068076]","[-1,-1,-1]","[-0.19708806339621754,0.023514547676244904]","[1,1,1]","[-0.1573665415792161,-0.10960284473151317]","[-1,-1,-1]","[0.05340227695077267,0.06585213643541388]","[-1,-1,-1]","[0.15844701571610606,0.022023414662281783]","[1,1,1]","[-0.08222458143601862,-0.15942836100179855]","[-1,-1,-1]","[0.18569501892577478,-0.04221382979240228]","[1,1,1]","[0.1454727960998745,0.12344893841834462]","[1,1,1]","[-0.105625067768024,0.010954141206946138]","[-1,-1,-1]","[0.02,0.02]",126.6744,0,19,19,35,1,,,,,,,
,,,,,,,5faeb56b25a37f01d47d326c,682db396950c0ec3f75fd358,2025-05-21_15h03.18.345,cuing_paradigm_dot,2024.1.5,Win32,142.8571429,682d556593cb38ad0a074487,,,,,,,,,,,126.6746,127.1744,,,127.4246,128.2164,left,0.7891,,,,,,,,,0.4,,,,,,127.1745,127.4245,128.2164,"[-0.11236847258947362,-0.06946718775332636]","[-1,-1,-1]","[-0.17506436974447934,-0.06847878768551709]","[-1,-1,-1]","[-0.05692894106072093,-0.11067062634730632]","[1,1,1]","[-0.17894681759210598,-0.02752803354033773]","[-1,-1,-1]","[-0.10226365014724627,0.1315183516862315]","[-1,-1,-1]","[-0.10339582932280415,0.06774626603693058]","[1,1,1]","[0.025801423678417458,-0.15072303997067]","[-1,-1,-1]","[0.09624008468589298,-0.1627857144817691]","[-1,-1,-1]","[0.10032380430358155,0.09113614706789673]","[1,1,1]","[0.09819783344626909,0.03446087709305613]","[-1,-1,-1]","[0.012927106148121535,-0.0312399114786966]","[-1,-1,-1]","[0.0982320906085988,-0.08463627427305545]","[1,1,1]","[0.07390758989590339,0.1743264843591314]","[1,1,1]","[0.022105004260917004,0.16399281876895813]","[-1,-1,-1]","[-0.06628598149203907,-0.013756420364550727]","[1,1,1]","[0.01801038032379038,0.10114217130515375]","[-1,-1,-1]","[-0.0627655658128136,-0.15605137433448502]","[-1,-1,-1]","[-0.15757091214290378,0.05735309668060643]","[-1,-1,-1]","[-0.03366677688482947,0.17564588323408403]","[1,1,1]","[-0.13951660779516808,-0.14279261417115235]","[1,1,1]","[0.11034102179102197,0.13189843597413772]","[-1,-1,-1]","[-0.14822719500064185,0.11292761868531576]","[-1,-1,-1]","[-0.030637479176730743,-0.07990005814443707]","[-1,-1,-1]","[-0.02251132884646459,-0.15276841908932126]","[1,1,1]","[0.12631994412640524,-0.11836509964012008]","[1,1,1]","[0.062203082991624414,0.007912817103503085]","[1,1,1]","[0.16836461675320905,0.09728039921714988]","[1,1,1]","[0.024356062846319294,-0.09138976580354576]","[1,1,1]","[-0.018858109931137762,0.06385425320036688]","[-1,-1,-1]","[0.05325543873765464,-0.033999613287205424]","[-1,-1,-1]","[0.12595538126641556,-0.014056408562628022]","[-1,-1,-1]","[0.1624611573296769,-0.08635105488841874]","[-1,-1,-1]","[0.02,0.02]",129.3137,0,20,20,39,1,,,,,,,
,,,,,,,5faeb56b25a37f01d47d326c,682db396950c0ec3f75fd358,2025-05-21_15h03.18.345,cuing_paradigm_dot,2024.1.5,Win32,142.8571429,682d556593cb38ad0a074487,,,,,,,,,,,129.3139,129.8137,,,130.0639,130.2932,right,0.2278,,,,,,,,,0.9,,,,,,129.8137,130.0639,130.2932,"[-0.039313464071652364,0.057288955511468974]","[1,1,1]","[0.053336575609666995,-0.11366928188969981]","[1,1,1]","[-0.11579907251982813,-0.01304078530452721]","[1,1,1]","[0.1322635249190602,0.05035456375255447]","[1,1,1]","[-0.1823511239546345,-0.022243308415612898]","[1,1,1]","[0.06925149386996776,0.05900497244527579]","[-1,-1,-1]","[-0.15451747180869846,0.11668549408319782]","[1,1,1]","[-0.1315473089990368,0.05453179460586313]","[1,1,1]","[-0.0645336391440295,-0.08585491607257098]","[1,1,1]","[0.012274171654371993,0.11693895519341138]","[1,1,1]","[0.08833889665958401,-0.1718885565087746]","[1,1,1]","[0.02690909064394551,0.024218612577479332]","[1,1,1]","[0.09769878365817651,0.1497055707082935]","[1,1,1]","[-0.08795793933824332,-0.14723978268916119]","[1,1,1]","[-0.14755519757471913,-0.0685191994248197]","[-1,-1,-1]","[0.03947739144142264,0.18922689762532147]","[1,1,1]","[-0.01607056882808517,-0.04329114435558294]","[1,1,1]","[-0.07189594200862073,0.17523164391366522]","[1,1,1]","[0.11141622923277962,-0.07281488722430528]","[1,1,1]","[0.09882373563605878,-0.034433738289374266]","[1,1,1]","[-0.0842961188772107,-0.047350758444420736]","[1,1,1]","[0.0667102907586555,-0.06268800426243322]","[-1,-1,-1]","[0.009052222837973993,-0.08103054841863323]","[1,1,1]","[0.16236066734223342,-0.020153638879480566]","[1,1,1]","[0.06532519326917413,0.11439580980956651]","[1,1,1]","[-0.02684514368038767,0.012318331400471965]","[1,1,1]","[-0.010671834187220437,-0.11685189878188804]","[1,1,1]","[-0.09090268079879926,0.0476928913669638]","[1,1,1]","[0.14879703847259046,-0.1286820139199658]","[1,1,1]","[0.17386994229105132,-0.09206872106251959]","[1,1,1]","[-0.05778666906405805,-0.17990239399734115]","[1,1,1]","[0.1446714186814214,0.10579539214491146]","[1,1,1]","[0.02,0.02]",131.3904,0,21,21,204,1,,,,,,,
,,,,,,,5faeb56b25a37f01d47d326c,682db396950c0ec3f75fd358,2025-05-21_15h03.18.345,cuing_paradigm_dot,2024.1.5,Win32,142.8571429,682d556593cb38ad0a074487,,,,,,,,,,,131.3905,131.8904,,,132.1406,132.5851,right,0.4412,,,,,,,,,0.6,,,,,,131.8904,132.1406,132.5851,"[0.027966407990216626,0.018149742699439107]","[1,1,1]","[-0.07479092335008296,-0.17394106195257525]","[-1,-1,-1]","[0.023699000149817993,-0.19230693717211111]","[1,1,1]","[0.09133251601714908,0.14943990495394172]","[1,1,1]","[-0.0852883445602397,0.01779252249213456]","[-1,-1,-1]","[0.1397813762553363,0.11656588210405934]","[1,1,1]","[0.18049225050916753,0.06861267893347296]","[-1,-1,-1]","[-0.11997786648584148,0.13212782725542693]","[-1,-1,-1]","[-0.10877014206527777,0.07168178348630252]","[1,1,1]","[0.08306380349193497,-0.017929316216013746]","[1,1,1]","[0.1490624521853464,-0.1183567753849122]","[1,1,1]","[0.022970161315467228,-0.12339780604123958]","[1,1,1]","[-0.1893602388320139,-0.0007418827462287763]","[1,1,1]","[-0.04695123560016632,0.11184050130674594]","[-1,-1,-1]","[-0.09062523881077326,-0.1281852859325404]","[-1,-1,-1]","[0.010829851652533574,0.07278326837074363]","[-1,-1,-1]","[0.02709991428146422,0.14643698496000657]","[1,1,1]","[-0.054256779544612235,-0.03524285922974592]","[-1,-1,-1]","[0.09110508270614896,0.08298754803272022]","[-1,-1,-1]","[-0.1107613460706729,-0.06007380595217975]","[1,1,1]","[-0.1654551798666181,-0.04301661231973199]","[-1,-1,-1]","[0.08898366635622784,-0.07326308247448599]","[1,1,1]","[-0.027709974149186346,0.05393365425546365]","[-1,-1,-1]","[0.0036891461296547526,-0.06474025475735286]","[1,1,1]","[-0.05361607002957588,0.16844189256435968]","[1,1,1]","[0.07736701198588093,0.04481094734989058]","[-1,-1,-1]","[0.17962690818424099,-0.030921516796257133]","[1,1,1]","[-0.15917785251637695,0.1148882797551761]","[1,1,1]","[-0.1516743114623785,0.025717042541229005]","[1,1,1]","[0.1622331523275345,0.023579237725982832]","[1,1,1]","[0.09749293527015507,-0.1497570613454617]","[1,1,1]","[0.03026555277692079,-0.02779958334311984]","[-1,-1,-1]","[0.02,0.02]",133.6823,0,22,22,154,1,,,,,,,
,,,,,,,5faeb56b25a37f01d47d326c,682db396950c0ec3f75fd358,2025-05-21_15h03.18.345,cuing_paradigm_dot,2024.1.5,Win32,142.8571429,682d556593cb38ad0a074487,,,,,,,,,,,133.6827,134.1823,,,134.433,134.7659,left,0.322,,,,,,,,,0.1,,,,,,134.1823,134.433,134.7659,"[-0.0000895736475366104,0.060150578644634176]","[-1,-1,-1]","[0.09773680572520103,-0.16136770850942894]","[-1,-1,-1]","[-0.07199623092460211,-0.0948891579563795]","[-1,-1,-1]","[-0.06269449586317244,0.0142759225440052]","[-1,-1,-1]","[0.016406602563690587,0.009073365683586545]","[-1,-1,-1]","[0.043062341007588295,-0.19133476704287083]","[-1,-1,-1]","[-0.03872165120443652,0.10284463280071657]","[-1,-1,-1]","[-0.17542894565238157,0.008704684236765719]","[-1,-1,-1]","[-0.14340359858539206,-0.038774737632489134]","[-1,-1,-1]","[0.08915918999940112,-0.005019885789283644]","[-1,-1,-1]","[0.01751278801115615,0.16041319880774227]","[-1,-1,-1]","[-0.1261175850631025,0.11763419018903418]","[-1,-1,-1]","[0.13097839434620046,0.09898118732742493]","[1,1,1]","[-0.17686103877864284,0.07339522352563525]","[-1,-1,-1]","[0.06972779586965637,-0.0657948792383058]","[-1,-1,-1]","[0.1832746536200588,0.0516068397757651]","[-1,-1,-1]","[0.1944836169545444,-0.00856734189648493]","[-1,-1,-1]","[0.02503302258913274,0.1101692109373656]","[-1,-1,-1]","[0.08256338227911594,0.05264898564578617]","[-1,-1,-1]","[0.07946189712480786,0.1460564116892502]","[-1,-1,-1]","[0.005636741498226276,-0.08024277275289526]","[1,1,1]","[-0.009774293679693537,-0.18966478654406255]","[1,1,1]","[-0.10981454825124773,0.07230317093006833]","[-1,-1,-1]","[-0.05753016587476952,-0.1915404960753613]","[-1,-1,-1]","[-0.09331922681529867,-0.03578628558446591]","[-1,-1,-1]","[-0.07100136783924446,0.13703110319092773]","[-1,-1,-1]","[-0.04966568398448328,0.05447850572610668]","[-1,-1,-1]","[0.0878242933358411,0.09808721795718708]","[-1,-1,-1]","[-0.1961954667915178,-0.03502339446219456]","[-1,-1,-1]","[0.16225354296144015,-0.0672957966444197]","[-1,-1,-1]","[0.14646653079373265,-0.011415419256865636]","[-1,-1,-1]","[0.12028483184296543,0.02335407529591928]","[-1,-1,-1]","[0.02,0.02]",135.863,0,23,23,20,1,,,,,,,
,,,,,,,5faeb56b25a37f01d47d326c,682db396950c0ec3f75fd358,2025-05-21_15h03.18.345,cuing_paradigm_dot,2024.1.5,Win32,142.8571429,682d556593cb38ad0a074487,,,,,,,,,,,135.8633,136.3631,,,136.6137,137.2037,right,0.5784,,,,,,,,,0.55,,,,,,136.3632,136.6137,137.2037,"[0.10149079832313362,0.16564257386212852]","[-1,-1,-1]","[0.19605097407442232,0.022398006108936573]","[1,1,1]","[0.18192637397082498,-0.03030744534761149]","[1,1,1]","[0.04033263949245723,-0.1505869261397466]","[-1,-1,-1]","[0.10218599512416711,-0.12381294305837733]","[1,1,1]","[0.08083379514457922,-0.08553693953289351]","[-1,-1,-1]","[-0.19897686785441554,0.004241868488686594]","[-1,-1,-1]","[0.08146291090555088,-0.006562113184569701]","[-1,-1,-1]","[0.04084420860120131,-0.10774107538306495]","[1,1,1]","[0.017376128722161953,0.1977122538443778]","[-1,-1,-1]","[-0.07883198570513271,0.07630544752183407]","[1,1,1]","[-0.10201964064647806,0.1552445011825112]","[1,1,1]","[0.12315367606578913,0.06260739027405986]","[1,1,1]","[-0.073748711564526,-0.171722739839913]","[-1,-1,-1]","[-0.0611357417565206,-0.06775124175278108]","[-1,-1,-1]","[0.12391817521859681,0.1277551299438919]","[-1,-1,-1]","[0.0820454736472179,0.12450859074452465]","[1,1,1]","[-0.03758353624661901,0.12964817814149363]","[1,1,1]","[0.018566318449437014,-0.010353664822544054]","[1,1,1]","[-0.06092824275945576,0.1880603030382027]","[1,1,1]","[-0.09826168786387568,-0.041417268578933346]","[-1,-1,-1]","[-0.04607049954188559,0.05156754960006051]","[1,1,1]","[-0.14919025516171502,0.044809295647956326]","[1,1,1]","[-0.03500635459727901,0.0031631307726919774]","[1,1,1]","[-0.13614792730538774,-0.02654363753467822]","[-1,-1,-1]","[0.0243574542249023,0.10803398808273117]","[1,1,1]","[-0.17812131623586044,-0.07474989446387577]","[1,1,1]","[0.007716793067670208,0.031848614521284284]","[1,1,1]","[-0.024904374154918914,-0.0905007352752639]","[1,1,1]","[-0.09951426327121515,-0.13471638169530398]","[-1,-1,-1]","[-0.1480986184167808,-0.11781356025479647]","[-1,-1,-1]","[-0.11401683794124819,0.09723795957635971]","[-1,-1,-1]","[0.02,0.02]",138.301,0,24,24,129,1,,,,,,,
,,,,,,,5faeb56b25a37f01d47d326c,682db396950c0ec3f75fd358,2025-05-21_15h03.18.345,cuing_paradigm_dot,2024.1.5,Win32,142.8571429,682d556593cb38ad0a074487,,,,,,,,,,,138.3013,138.8009,,,139.0512,139.3915,left,0.337,,,,,,,,,0.1,,,,,,138.8011,139.0511,139.3916,"[-0.049331947546729336,-0.07272575281549969]","[-1,-1,-1]","[-0.008545478213863858,-0.11412860106316192]","[-1,-1,-1]","[0.05548370974745426,-0.1765507667320401]","[-1,-1,-1]","[-0.06713031315186017,0.1366629590903095]","[-1,-1,-1]","[-0.10404389217202491,-0.08469423988181646]","[-1,-1,-1]","[-0.046283791520144446,0.0928994313729168]","[-1,-1,-1]","[0.031275185379968484,0.12980395038708428]","[-1,-1,-1]","[-0.07133536555135445,0.021482872081775146]","[-1,-1,-1]","[0.14599075420441263,-0.035805076158702445]","[1,1,1]","[0.08576600618516364,0.11248155773045121]","[-1,-1,-1]","[-0.14942571505946384,-0.10615791744120935]","[-1,-1,-1]","[-0.02683918036060696,0.14431074813590783]","[-1,-1,-1]","[0.1438240797903563,-0.08571577425315352]","[-1,-1,-1]","[0.12459487588633736,-0.1546323796918541]","[-1,-1,-1]","[-0.018075211865765436,-0.154857149345778]","[-1,-1,-1]","[0.18368499652029435,0.002761962665710583]","[-1,-1,-1]","[-0.08604300465543553,-0.14451812116839893]","[-1,-1,-1]","[0.037829717255936875,0.08709504145494375]","[1,1,1]","[-0.11568317030523621,0.0036384552445822924]","[-1,-1,-1]","[-0.19526492851786487,0.011607228089616306]","[-1,-1,-1]","[0.13769806620737476,0.11887868488503983]","[-1,-1,-1]","[-0.12076775972755799,0.0710268701474449]","[-1,-1,-1]","[-0.039343741484740236,-0.031221426266413957]","[-1,-1,-1]","[0.16831080363344283,0.08111589335183053]","[-1,-1,-1]","[-0.08732554817629642,-0.0428632405418428]","[-1,-1,-1]","[0.05139600519236054,0.18984231251800687]","[-1,-1,-1]","[0.08242486454689125,-0.00900668460910582]","[1,1,1]","[0.06975429070774589,0.15381645283817572]","[-1,-1,-1]","[-0.16994879407444527,-0.04244895311557744]","[-1,-1,-1]","[0.06394715996203731,0.05095848514074734]","[-1,-1,-1]","[-0.10768094727249573,0.15223431845147983]","[-1,-1,-1]","[0.05309431202719078,-0.0440641253869474]","[-1,-1,-1]","[0.02,0.02]",140.4887,0,25,25,9,1,,,,,,,
,,,,,,,5faeb56b25a37f01d47d326c,682db396950c0ec3f75fd358,2025-05-21_15h03.18.345,cuing_paradigm_dot,2024.1.5,Win32,142.8571429,682d556593cb38ad0a074487,,,,,,,,,,,140.4889,140.9888,,,141.239,142.0516,right,0.8112,,,,,,,,,0.45,,,,,,140.9888,141.239,142.0516,"[0.07523344644414977,-0.08631805314750172]","[-1,-1,-1]","[-0.09525460041112634,-0.16531715351237797]","[-1,-1,-1]","[0.1837936847624477,0.032343532733076406]","[-1,-1,-1]","[0.10035097943522088,0.016263010287970243]","[-1,-1,-1]","[0.16887257835696795,0.10536997630213434]","[1,1,1]","[-0.06799580289524447,-0.09558682142899262]","[1,1,1]","[-0.07849200827807325,0.12143108228651568]","[1,1,1]","[-0.012280993472096572,-0.14116866221079452]","[1,1,1]","[0.15429625607478106,0.004239730991538934]","[-1,-1,-1]","[-0.09184556387422993,0.014465940207145644]","[1,1,1]","[0.0537918559387055,0.09456987374459509]","[-1,-1,-1]","[-0.03433006876072862,0.02498958449215644]","[-1,-1,-1]","[-0.15239436694039651,0.07966631369034527]","[1,1,1]","[0.17963767275135267,-0.03983835326212373]","[1,1,1]","[0.052708791421930454,-0.03869898836135913]","[-1,-1,-1]","[-0.1645778884923271,-0.0977051859611246]","[1,1,1]","[-0.026507541807672612,0.07208381429744697]","[1,1,1]","[0.011105382540235352,-0.01903850270364684]","[1,1,1]","[0.025667644587603723,0.04825739178893362]","[-1,-1,-1]","[-0.017580616389754732,0.17662766317583]","[-1,-1,-1]","[0.13660428969450833,-0.04226887732073448]","[-1,-1,-1]","[0.09223515048651035,-0.14090698478782515]","[-1,-1,-1]","[-0.11958395689014426,-0.09827722336820677]","[-1,-1,-1]","[0.09638439235000924,0.13619855637929448]","[1,1,1]","[-0.13808191881404908,-0.025199254957221112]","[-1,-1,-1]","[-0.1054596194912094,0.08108390727044937]","[-1,-1,-1]","[-0.09636964206571949,0.16670714326845162]","[-1,-1,-1]","[0.005851119527036783,-0.08506251877503059]","[1,1,1]","[-0.08839796336724785,-0.04878301540998764]","[-1,-1,-1]","[0.04050239403560223,0.13336641347348263]","[-1,-1,-1]","[-0.056302031865983516,-0.012539260548041112]","[1,1,1]","[0.0923238606598419,0.05635118464912124]","[1,1,1]","[0.02,0.02]",143.1488,0,26,26,76,1,,,,,,,
,,,,,,,5faeb56b25a37f01d47d326c,682db396950c0ec3f75fd358,2025-05-21_15h03.18.345,cuing_paradigm_dot,2024.1.5,Win32,142.8571429,682d556593cb38ad0a074487,,,,,,,,,,,143.149,143.6488,,,143.899,144.1629,right,0.2618,,,,,,,,,0.9,,,,,,143.6489,143.899,144.163,"[-0.013027285745226576,-0.013352942880111369]","[1,1,1]","[0.10807092407736495,-0.07887052463693622]","[1,1,1]","[0.009134469703711708,-0.16080572238257626]","[1,1,1]","[-0.14235489912559401,-0.06507295742203673]","[1,1,1]","[0.007185923780010682,-0.07909607605981005]","[1,1,1]","[-0.09079541631284012,0.14564089020547719]","[1,1,1]","[-0.06712895960054123,-0.11934471973111338]","[1,1,1]","[-0.12633121066605674,0.11209886874363442]","[1,1,1]","[0.014569806328450502,0.01867491051678357]","[1,1,1]","[-0.019747724041229247,-0.11432526007006784]","[1,1,1]","[0.09238798647155828,0.05956619587226371]","[1,1,1]","[-0.13773621364792052,0.023231579575371364]","[1,1,1]","[0.19061731738207613,0.04716241803435359]","[1,1,1]","[-0.1690555108404111,0.05298639527562448]","[1,1,1]","[0.04345754566893687,0.0742455107678874]","[1,1,1]","[-0.1595094418925252,-0.1069239178967259]","[-1,-1,-1]","[-0.041502329752728585,0.13967019510844958]","[1,1,1]","[-0.046671793597109865,-0.04983563617262366]","[1,1,1]","[0.15863879396835087,-0.027705188003119278]","[1,1,1]","[-0.022869834820081654,0.044928567048345296]","[1,1,1]","[0.09262224822288721,0.12298060742710232]","[1,1,1]","[0.0604936750413924,0.017947255408170004]","[1,1,1]","[-0.030864928714343876,-0.18499648351405198]","[-1,-1,-1]","[0.08216814031590736,-0.16679955777107358]","[1,1,1]","[0.015219574009621697,0.12026507589618746]","[-1,-1,-1]","[-0.11616831074388599,-0.09842431568623315]","[1,1,1]","[-0.16571276834888796,0.10287880689005052]","[1,1,1]","[-0.10967747109607294,0.07424325763878084]","[1,1,1]","[-0.06638859783127997,0.005939107646813215]","[1,1,1]","[0.021706618538973824,0.16891340086377676]","[1,1,1]","[0.047660946358736155,-0.02834142262871421]","[1,1,1]","[-0.18713337106900169,0.015246542293683676]","[1,1,1]","[0.02,0.02]",145.2601,0,27,27,197,1,,,,,,,
,,,,,,,5faeb56b25a37f01d47d326c,682db396950c0ec3f75fd358,2025-05-21_15h03.18.345,cuing_paradigm_dot,2024.1.5,Win32,142.8571429,682d556593cb38ad0a074487,,,,,,,,,,,145.2603,145.7602,,,146.0104,146.6285,left,0.6117,,,,,,,,,0.45,,,,,,145.7602,146.0104,146.6285,"[-0.12161326709550797,0.03774090245113383]","[-1,-1,-1]","[-0.14176964242142057,-0.032886896761384066]","[1,1,1]","[0.1573455398692604,-0.030976022390179443]","[1,1,1]","[-0.005915534034909117,0.009163227667125184]","[-1,-1,-1]","[-0.003766920769743107,0.14206420868863087]","[-1,-1,-1]","[-0.16590949478672762,-0.09100629487217067]","[-1,-1,-1]","[-0.038615196435918216,-0.029607818943723153]","[-1,-1,-1]","[0.030098376270205264,-0.015208687872611022]","[1,1,1]","[0.09836744572407413,0.04335568983600388]","[-1,-1,-1]","[0.07244948334109763,0.13981892235820226]","[1,1,1]","[0.06012093642006585,-0.06756384244375505]","[-1,-1,-1]","[0.024130635063061602,0.18909994282180598]","[-1,-1,-1]","[0.036650872189989345,-0.18034384115180901]","[-1,-1,-1]","[-0.0849166429115461,0.11918955649929616]","[-1,-1,-1]","[0.05972579582148383,-0.12476255227660675]","[-1,-1,-1]","[0.041983874549883525,0.10114063194309657]","[1,1,1]","[-0.1277275595940353,-0.11693998503232232]","[-1,-1,-1]","[-0.09139984040153167,-0.0058812011157246095]","[1,1,1]","[-0.1759815780086794,0.020706959438238758]","[1,1,1]","[-0.061446855316722816,-0.158715653190331]","[-1,-1,-1]","[-0.007256706976217413,-0.0930042287081055]","[-1,-1,-1]","[0.15408363337383732,0.010237673637568646]","[1,1,1]","[0.1156793043118777,0.14107276386338988]","[1,1,1]","[0.12053541507681809,-0.05386323369419893]","[1,1,1]","[0.11594065411425802,-0.1545911993285619]","[-1,-1,-1]","[0.001029944189443776,0.060354235992682054]","[-1,-1,-1]","[0.15884175314915946,0.060858053097247865]","[1,1,1]","[0.034747412110983845,0.03704231449728458]","[-1,-1,-1]","[0.1103432890100446,0.08364935820811871]","[1,1,1]","[-0.07525666734009603,0.17381731311928036]","[1,1,1]","[-0.0017978480456329196,-0.1477061901263974]","[-1,-1,-1]","[0.08157076224132874,-0.175223088766769]","[1,1,1]","[0.02,0.02]",147.7258,0,28,28,73,1,,,,,,,
,,,,,,,5faeb56b25a37f01d47d326c,682db396950c0ec3f75fd358,2025-05-21_15h03.18.345,cuing_paradigm_dot,2024.1.5,Win32,142.8571429,682d556593cb38ad0a074487,,,,,,,,,,,147.7261,148.2258,,,148.4761,149.3649,left,0.8869,,,,,,,,,0.4,,,,,,148.2258,148.476,149.3649,"[-0.12213141953195067,0.09377708648476007]","[1,1,1]","[-0.015166328880917561,-0.009768253711573655]","[-1,-1,-1]","[0.06342450329492583,0.17243520484368408]","[-1,-1,-1]","[-0.18937808336969886,0.025961396483209994]","[1,1,1]","[0.17660129852832218,-0.08794065551543256]","[-1,-1,-1]","[-0.08678615984747079,-0.07785250465325179]","[-1,-1,-1]","[0.08266727885600228,-0.06874112855881294]","[-1,-1,-1]","[-0.01173992049138097,0.08864354285140517]","[-1,-1,-1]","[-0.08086555391025337,0.07443916649618428]","[-1,-1,-1]","[-0.1750484607599701,0.06379238667386566]","[-1,-1,-1]","[-0.1178063863214201,-0.13660592221109816]","[-1,-1,-1]","[0.08358408800078983,-0.11143534121117553]","[-1,-1,-1]","[0.1867073637866827,0.0062481548949929475]","[1,1,1]","[0.042605468611541825,-0.08043483111688576]","[1,1,1]","[-0.052211484487379355,0.16532039793340794]","[1,1,1]","[0.05745412821577005,0.0392793392423215]","[-1,-1,-1]","[-0.13818874341819432,-0.024527374009230718]","[-1,-1,-1]","[0.0774254166071142,-0.013970911682170356]","[-1,-1,-1]","[-0.046004007114488356,-0.15183006051723558]","[1,1,1]","[-0.12782845830716297,0.1391564471510575]","[-1,-1,-1]","[0.0077892349530443595,-0.18294470785785125]","[-1,-1,-1]","[-0.14728757019693828,-0.07751667597333152]","[1,1,1]","[0.12176112391747165,0.09897928240855404]","[1,1,1]","[-0.12204156014715825,0.041113132194001964]","[-1,-1,-1]","[-0.015237714670304542,0.04338065582303491]","[-1,-1,-1]","[-0.06762114897808882,0.12042485032590326]","[1,1,1]","[0.009922497470046249,-0.10481089059016206]","[1,1,1]","[0.1288320250691283,0.05841704612245917]","[1,1,1]","[0.02581078741743843,0.00022194440207478543]","[1,1,1]","[0.11914261919620983,-0.021203072829767734]","[-1,-1,-1]","[-0.07923576724050627,-0.037033352243184096]","[1,1,1]","[-0.04297457078228498,-0.06703730964993858]","[-1,-1,-1]","[0.02,0.02]",150.4622,0,29,29,30,1,,,,,,,
,,,,,,,5faeb56b25a37f01d47d326c,682db396950c0ec3f75fd358,2025-05-21_15h03.18.345,cuing_paradigm_dot,2024.1.5,Win32,142.8571429,682d556593cb38ad0a074487,,,,,,,,,,,150.4624,150.9623,,,151.2124,151.6917,right,0.4756,,,,,,,,,0.9,,,,,,150.9623,151.2123,151.6917,"[-0.10472620614781158,0.0778323901577775]","[-1,-1,-1]","[0.0028553573475538327,0.13361829851047335]","[1,1,1]","[-0.04014920178009747,0.038824374691836964]","[1,1,1]","[-0.012595222553108307,-0.03125208363868773]","[1,1,1]","[-0.021034989393682427,-0.19865246851949186]","[1,1,1]","[0.10990354742584854,-0.14927983363450373]","[1,1,1]","[0.18738451205797646,-0.048384531508134605]","[1,1,1]","[0.0846510025458285,0.13937651316291633]","[1,1,1]","[0.05311020646634837,-0.0905875159063437]","[1,1,1]","[0.1032080537507687,-0.08949376301346587]","[1,1,1]","[-0.07876682748928567,-0.05025986093246059]","[1,1,1]","[-0.18941767434158183,-0.06310256806280605]","[1,1,1]","[0.11765553146543671,-0.008815962752653504]","[1,1,1]","[0.04727402302730101,-0.011084291744929227]","[-1,-1,-1]","[-0.04706303024451929,0.1471831176605916]","[1,1,1]","[-0.10682179196024154,0.16132831795945116]","[1,1,1]","[-0.12620882791708532,-0.09840894645537905]","[1,1,1]","[0.12220672802401523,0.09776695440986964]","[-1,-1,-1]","[-0.09169293474570483,-0.1462107781312537]","[1,1,1]","[0.06435155129386752,-0.16595020768712457]","[1,1,1]","[0.01656115292487844,-0.15851122462805278]","[1,1,1]","[-0.1505424905301551,0.12711228033701338]","[1,1,1]","[-0.16280063267275993,-0.028267217037015905]","[1,1,1]","[0.1615754283792704,0.013971683429292062]","[1,1,1]","[-0.004293010542223075,-0.08676196722425988]","[1,1,1]","[-0.018667286237768303,0.1933436511321599]","[1,1,1]","[-0.16522850998607952,0.06908167429040309]","[1,1,1]","[0.018796832356918456,0.07604445518591703]","[1,1,1]","[0.07824017742341456,0.025085130922992013]","[1,1,1]","[-0.030824864255100313,-0.138399839914415]","[1,1,1]","[0.13656328548892788,-0.05151588782946757]","[1,1,1]","[-0.13018040505731243,0.035477813414842845]","[1,1,1]","[0.02,0.02]",152.7889,0,30,30,181,1,,,,,,,
,,,,,,,5faeb56b25a37f01d47d326c,682db396950c0ec3f75fd358,2025-05-21_15h03.18.345,cuing_paradigm_dot,2024.1.5,Win32,142.8571429,682d556593cb38ad0a074487,,,,,,,,,,,152.7891,153.2889,,,153.5393,153.817,left,0.2716,,,,,,,,,0.45,,,,,,153.2889,153.5393,153.817,"[0.08158754028682225,-0.13861913433325296]","[-1,-1,-1]","[-0.1738618221733809,0.05063768834484925]","[1,1,1]","[-0.12498586732671833,-0.12984940558958535]","[-1,-1,-1]","[-0.049189017506123894,0.08844402571445598]","[1,1,1]","[-0.014153633425848312,-0.13259577628763272]","[-1,-1,-1]","[0.08513852931791817,0.09641363983389814]","[-1,-1,-1]","[0.03661485615279778,-0.02183944585155294]","[-1,-1,-1]","[-0.0833919903001113,0.006498843974341481]","[1,1,1]","[-0.03342197089525289,0.03685417754308263]","[1,1,1]","[0.03664575442233608,-0.13532090262157193]","[-1,-1,-1]","[-0.11686235873215169,0.03664433397535343]","[1,1,1]","[-0.14895125529652642,-0.004269760754422187]","[1,1,1]","[0.04601210239226754,0.15181586390558177]","[1,1,1]","[0.017419193119169403,0.04722286324188055]","[-1,-1,-1]","[-0.056934237822534234,-0.13395799033099676]","[1,1,1]","[-0.060834519106816136,0.12813394605754957]","[-1,-1,-1]","[0.17913496904785137,-0.027823570460507617]","[1,1,1]","[-0.008912953272670714,0.18200472616822042]","[-1,-1,-1]","[0.0523499162239229,-0.06022063260235483]","[-1,-1,-1]","[0.03438257252010795,0.08442231578586176]","[-1,-1,-1]","[0.047958995302252276,-0.1886038814972906]","[1,1,1]","[0.06871574233619165,-0.09944699805616662]","[-1,-1,-1]","[-0.005353875531398744,-0.04657359922886034]","[1,1,1]","[-0.13647724932267719,-0.07124381782855252]","[-1,-1,-1]","[0.13258380003796993,0.08034235883370328]","[-1,-1,-1]","[-0.05417759111494508,-0.02155574091807035]","[-1,-1,-1]","[-0.11547284568639976,0.11896741371211596]","[1,1,1]","[-0.042554814338156416,-0.06639472642280066]","[1,1,1]","[0.09380881135955507,0.05188633316453096]","[-1,-1,-1]","[0.16854004149954913,-0.08571777857584467]","[-1,-1,-1]","[-0.09007095950766969,0.1655994195707341]","[-1,-1,-1]","[-0.0005505650249355345,0.009218736261508776]","[1,1,1]","[0.02,0.02]",154.9141,0,31,31,71,1,,,,,,,
,,,,,,,5faeb56b25a37f01d47d326c,682db396950c0ec3f75fd358,2025-05-21_15h03.18.345,cuing_paradigm_dot,2024.1.5,Win32,142.8571429,682d556593cb38ad0a074487,,,,,,,,,,,154.9143,155.4142,,,155.6643,156.3451,left,0.6735,,,,,,,,,0.45,,,,,,155.4142,155.6643,156.3451,"[0.19625354912313278,0.026628283593676243]","[-1,-1,-1]","[-0.18408810099058076,0.028230215054236153]","[1,1,1]","[0.13496252896119135,0.06162546845217112]","[-1,-1,-1]","[0.016553198060691977,-0.15152822388320455]","[-1,-1,-1]","[-0.12125401567023224,-0.019824440574166283]","[1,1,1]","[-0.050652080098032584,-0.08798902295568399]","[-1,-1,-1]","[0.0863405566363247,0.018170189777762136]","[1,1,1]","[-0.16732118717977149,-0.03319408700377835]","[1,1,1]","[-0.09225747214744497,0.020093047199022343]","[1,1,1]","[-0.050079572157655024,0.13952017377198386]","[1,1,1]","[0.036469518299905364,-0.11631557343912959]","[1,1,1]","[-0.05566254430968515,-0.15355526432332375]","[1,1,1]","[0.04092693149149259,-0.0712286218858089]","[-1,-1,-1]","[0.02298790730930285,-0.0179228177884559]","[-1,-1,-1]","[-0.04091198585055916,0.06882128612556372]","[1,1,1]","[-0.12903798025699265,-0.07678855684169425]","[-1,-1,-1]","[0.004497661941349197,0.12174394829864664]","[-1,-1,-1]","[0.012388637788162493,0.19052268112752963]","[-1,-1,-1]","[0.09060010115206686,0.09075610539370134]","[-1,-1,-1]","[-0.1094255970107718,-0.15234478367199078]","[-1,-1,-1]","[0.1516120362395733,-0.06819915084376389]","[-1,-1,-1]","[0.05306340567761073,0.13188007912408775]","[-1,-1,-1]","[0.039774970195072576,-0.19434312327897044]","[1,1,1]","[-0.0889733959188583,-0.05237477838126679]","[-1,-1,-1]","[0.08128573921737632,-0.1286887745501716]","[-1,-1,-1]","[-0.12562747606818342,0.11230960369091886]","[1,1,1]","[-0.10208173964725036,0.07576571811581503]","[-1,-1,-1]","[-0.02254629402674506,-0.04824379399802976]","[1,1,1]","[0.045387677210378286,0.01643613430172311]","[-1,-1,-1]","[-0.04339445204294125,0.02017771686881299]","[1,1,1]","[0.09888747065217365,-0.03395903151849728]","[1,1,1]","[-0.13311023921801873,0.029882938697981067]","[-1,-1,-1]","[0.02,0.02]",157.4422,0,32,32,77,1,,,,,,,
,,,,,,,5faeb56b25a37f01d47d326c,682db396950c0ec3f75fd358,2025-05-21_15h03.18.345,cuing_paradigm_dot,2024.1.5,Win32,142.8571429,682d556593cb38ad0a074487,,,,,,,,,,,157.4424,157.9423,,,158.1925,158.8592,left,0.6611,,,,,,,,,0.55,,,,,,157.9424,158.1925,158.8592,"[-0.05157303363322659,-0.14267994233544637]","[1,1,1]","[0.014290835883611049,0.019162338206534603]","[1,1,1]","[0.15467615076148206,-0.0680490964577904]","[1,1,1]","[0.038145774051654244,0.12673419673521027]","[1,1,1]","[0.16542489433834098,0.05594689413180712]","[-1,-1,-1]","[-0.07660455805044773,-0.06825242776708766]","[-1,-1,-1]","[-0.10381972266532039,0.05018647526384969]","[1,1,1]","[0.05802559942317607,-0.1205901563680488]","[1,1,1]","[-0.11134315484496225,-0.0961043017981494]","[-1,-1,-1]","[-0.10969892309712366,-0.0000385615549380805]","[1,1,1]","[-0.031129187206201774,0.12191803224380168]","[1,1,1]","[-0.05876989868420692,0.17302236869889978]","[1,1,1]","[0.0782255260394093,0.030434108836036745]","[1,1,1]","[-0.11836169426874679,0.13746773594392495]","[-1,-1,-1]","[-0.1735607932900849,0.00976648384463325]","[1,1,1]","[-0.03594942750477288,-0.19578463973931362]","[-1,-1,-1]","[0.16504350861893974,0.005075751906828381]","[1,1,1]","[-0.1557402269068712,-0.07703170005201578]","[-1,-1,-1]","[-0.04218216959342711,-0.037329196166139764]","[1,1,1]","[0.011063584656171778,-0.107637944374249]","[1,1,1]","[0.12394312611352915,0.033772214376522926]","[1,1,1]","[-0.07038907040529084,0.027442024397068773]","[1,1,1]","[-0.13379444455733322,0.08659002308423433]","[-1,-1,-1]","[-0.17353644308407318,-0.031264816227538746]","[1,1,1]","[0.13029832580646739,-0.017038866720050606]","[-1,-1,-1]","[0.09079737498518693,0.17004986983667325]","[-1,-1,-1]","[0.0363859468028186,-0.032718802100155875]","[-1,-1,-1]","[0.09471048415120897,0.12558127117171983]","[-1,-1,-1]","[-0.01931785126646542,0.06248841377172594]","[-1,-1,-1]","[0.02417559286833613,-0.15700808070780467]","[1,1,1]","[0.03950362210949747,0.16819019214516057]","[-1,-1,-1]","[0.11905762854326132,0.08863813957874866]","[-1,-1,-1]","[0.02,0.02]",159.9564,0,33,33,121,1,,,,,,,
,,,,,,,5faeb56b25a37f01d47d326c,682db396950c0ec3f75fd358,2025-05-21_15h03.18.345,cuing_paradigm_dot,2024.1.5,Win32,142.8571429,682d556593cb38ad0a074487,,,,,,,,,,,159.9566,160.4565,,,160.7067,161.3873,left,0.675,,,,,,,,,0.55,,,,,,160.4565,160.7067,161.3873,"[0.10740448336885107,-0.05709952791543856]","[1,1,1]","[-0.009228182317230101,0.051094494285055476]","[1,1,1]","[0.061026361809213024,-0.16765976613429714]","[-1,-1,-1]","[0.014797652478844974,-0.05761034406211886]","[-1,-1,-1]","[-0.009294267512067128,-0.1081678131497161]","[-1,-1,-1]","[-0.055803925031776905,-0.1900693148257767]","[-1,-1,-1]","[0.10337700164236278,-0.1099941677905075]","[-1,-1,-1]","[-0.11933882080514088,-0.035409384039971514]","[1,1,1]","[0.17987277155155817,-0.06826086147274987]","[-1,-1,-1]","[-0.17399935387274487,-0.018311995725957465]","[-1,-1,-1]","[0.05805760047875494,-0.1238019043371742]","[1,1,1]","[-0.10252039183536435,0.15532461259103872]","[1,1,1]","[0.05836612229182356,0.186740466102477]","[1,1,1]","[-0.15933475626194007,0.026665092131575176]","[1,1,1]","[0.05612895916183608,-0.019379589763781666]","[-1,-1,-1]","[0.10789243721888521,0.1028174543231007]","[-1,-1,-1]","[-0.10388218386776005,0.0017476707118483708]","[1,1,1]","[-0.005728959122516584,0.0012399905928693249]","[1,1,1]","[0.018179099049542933,0.11785249490008338]","[-1,-1,-1]","[0.14195836483328467,0.018768045022166693]","[1,1,1]","[0.0506112023765895,0.022031864632941267]","[1,1,1]","[-0.1611059234940575,-0.06247751758052516]","[-1,-1,-1]","[0.002894989006388733,-0.1539388405660454]","[-1,-1,-1]","[-0.028050592209262027,0.11905033297735614]","[1,1,1]","[-0.13943733037809558,0.10552388256343366]","[1,1,1]","[0.17244243173020868,-0.009638818226518782]","[1,1,1]","[-0.05830008354826518,0.0599150142426172]","[-1,-1,-1]","[-0.007494848406142728,0.1712838549593294]","[1,1,1]","[-0.05222436399146996,-0.08577307990511744]","[-1,-1,-1]","[-0.16887855850995515,-0.10467949754577585]","[1,1,1]","[-0.11745937891759191,-0.10665307628118538]","[1,1,1]","[0.09925931593831665,0.008959152539575087]","[1,1,1]","[0.02,0.02]",162.4846,0,34,34,145,1,,,,,,,
,,,,,,,5faeb56b25a37f01d47d326c,682db396950c0ec3f75fd358,2025-05-21_15h03.18.345,cuing_paradigm_dot,2024.1.5,Win32,142.8571429,682d556593cb38ad0a074487,,,,,,,,,,,162.4848,162.9846,,,163.2348,163.7766,right,0.5398,,,,,,,,,0.55,,,,,,162.9846,163.2348,163.7766,"[-0.08236543503197573,-0.11535317542754434]","[1,1,1]","[-0.07705001634317274,0.07530560673461781]","[-1,-1,-1]","[0.06308659764946781,-0.026888697210255344]","[1,1,1]","[-0.01853404208036283,-0.17840470979817696]","[1,1,1]","[-0.042446298919423774,0.009490775018542667]","[-1,-1,-1]","[-0.038191647638824426,-0.09993448965610534]","[1,1,1]","[-0.0654244471663389,-0.18169183417701085]","[-1,-1,-1]","[0.07173890327153913,0.03759064384933484]","[1,1,1]","[-0.19141871293175536,-0.0037489178575806762]","[1,1,1]","[0.050068852166030256,-0.101001405638548]","[1,1,1]","[0.01007075737887851,0.01231014265310109]","[-1,-1,-1]","[0.08284340618891121,0.13042828583970542]","[1,1,1]","[-0.10718495473102439,0.04637853609102589]","[1,1,1]","[-0.0238062444041664,-0.05512584799861724]","[-1,-1,-1]","[-0.09765492777461614,0.15581138898359478]","[1,1,1]","[0.10079039805459825,-0.08006166627563346]","[-1,-1,-1]","[0.1540357499052193,0.0954561306275952]","[1,1,1]","[-0.167867032857987,-0.056154529589051684]","[1,1,1]","[-0.00012037963855329616,-0.11582422414629247]","[1,1,1]","[0.04398996477173566,0.1850458594072356]","[-1,-1,-1]","[0.085190516725775,-0.12408716200827359]","[-1,-1,-1]","[0.1424606166774037,-0.052478338634084076]","[1,1,1]","[0.020973599577823708,-0.028920795922629774]","[1,1,1]","[-0.008089733814886216,0.10688806238820742]","[-1,-1,-1]","[-0.14341092564548794,-0.1014201768743469]","[1,1,1]","[0.18901409528315943,0.060474434221265645]","[1,1,1]","[0.14783232216137407,-0.006918988112804643]","[-1,-1,-1]","[-0.14020090327826618,0.023683123698635063]","[-1,-1,-1]","[0.11185066604262996,0.0783208803969349]","[-1,-1,-1]","[-0.02977701084620359,0.15551884717991385]","[-1,-1,-1]","[0.06449289706255126,0.08778940907942684]","[1,1,1]","[-0.044545475640847175,-0.14079285388635435]","[-1,-1,-1]","[0.02,0.02]",164.8738,0,35,35,139,1,,,,,,,
,,,,,,,5faeb56b25a37f01d47d326c,682db396950c0ec3f75fd358,2025-05-21_15h03.18.345,cuing_paradigm_dot,2024.1.5,Win32,142.8571429,682d556593cb38ad0a074487,,,,,,,,,,,164.874,165.3738,,,165.624,166.1379,right,0.511,,,,,,,,,0.6,,,,,,165.3739,165.624,166.138,"[-0.045257307514562244,0.1468246042072469]","[1,1,1]","[0.15255342887728748,-0.06678495092234472]","[1,1,1]","[0.013833503831979933,0.05125097205591465]","[-1,-1,-1]","[-0.04780945131186463,0.10431966961759208]","[-1,-1,-1]","[0.030597266103484594,-0.13963545629005214]","[-1,-1,-1]","[-0.13803029648720264,-0.06151269360419687]","[1,1,1]","[-0.10138222095844715,-0.15064201601072583]","[-1,-1,-1]","[-0.049696625221605284,0.018003258015664568]","[1,1,1]","[-0.01653978893450264,-0.10046038687954535]","[1,1,1]","[0.11378614963987581,0.09097670157264505]","[1,1,1]","[-0.15087586632833516,-0.00714572163303811]","[1,1,1]","[0.01656686336328824,0.09163100362693245]","[-1,-1,-1]","[-0.05169813484090742,-0.18302850288504138]","[1,1,1]","[0.07882519456335084,-0.11051167082592844]","[1,1,1]","[-0.05256115152273065,-0.056636317688221006]","[-1,-1,-1]","[0.05759135492643428,-0.18204436780977248]","[1,1,1]","[-0.15531736301816954,0.09158208976682357]","[1,1,1]","[-0.09323723919707945,0.11896985885638764]","[1,1,1]","[0.08653724605235026,0.1344582947725852]","[1,1,1]","[0.18604082585834178,0.0452095240402916]","[1,1,1]","[-0.0013785243137453957,0.15033661821495645]","[-1,-1,-1]","[-0.1334910956954265,-0.1110617720260428]","[1,1,1]","[0.03978673195872826,-0.09104376949833026]","[1,1,1]","[-0.18175753105813525,-0.05272357259567921]","[1,1,1]","[-0.003739694752943544,-0.1773827291928754]","[-1,-1,-1]","[0.07932519722313067,0.0694059323752733]","[1,1,1]","[0.09043683072541776,-0.013722874563413983]","[-1,-1,-1]","[0.14974245635877703,0.12075226350687066]","[-1,-1,-1]","[0.13150508197984273,0.045711394857890816]","[-1,-1,-1]","[-0.09727075340195689,-0.07350038983829399]","[-1,-1,-1]","[0.1259657392586895,-0.13551513963454728]","[-1,-1,-1]","[-0.08173994466518338,0.06607815584025079]","[1,1,1]","[0.02,0.02]",167.2352,0,36,36,172,1,,,,,,,
,,,,,,,5faeb56b25a37f01d47d326c,682db396950c0ec3f75fd358,2025-05-21_15h03.18.345,cuing_paradigm_dot,2024.1.5,Win32,142.8571429,682d556593cb38ad0a074487,,,,,,,,,,,167.2354,167.7352,,,167.9855,168.5759,right,0.5862,,,,,,,,,0.5,,,,,,167.7352,167.9855,168.5759,"[0.019741385664495716,-0.09715258607222646]","[1,1,1]","[0.17175155937793543,0.09098933723936325]","[1,1,1]","[-0.11213465457426175,-0.10314195969646628]","[-1,-1,-1]","[0.12692580204522189,0.04807417094238131]","[1,1,1]","[-0.16573978978876944,-0.03429450579656411]","[-1,-1,-1]","[-0.06032959502182354,0.15855534274884928]","[1,1,1]","[0.06938600360632483,0.12985640466724102]","[1,1,1]","[-0.05739099871577843,-0.17223222395792434]","[-1,-1,-1]","[-0.13358219385956419,0.05269554192882285]","[-1,-1,-1]","[0.0607988464741676,-0.03438857367974331]","[-1,-1,-1]","[-0.02260843494337252,0.0549505296951317]","[1,1,1]","[-0.18926748054039622,0.03317815232247279]","[-1,-1,-1]","[-0.1335724884236202,0.1273273586298812]","[-1,-1,-1]","[0.10009130910880451,0.012126185168585728]","[1,1,1]","[0.047421959341007056,0.17819672928815858]","[1,1,1]","[-0.1446640469631453,-0.07340990969137308]","[-1,-1,-1]","[0.15223029336997165,-0.01149025381114439]","[1,1,1]","[-0.04079310303442873,-0.049360967579902826]","[1,1,1]","[0.08170682927581405,-0.16376291615946068]","[1,1,1]","[-0.07309556967012479,0.002574338711103182]","[1,1,1]","[-0.03827573114717006,0.11884805453349573]","[-1,-1,-1]","[-0.07040612841563598,0.05071784452539519]","[-1,-1,-1]","[0.012182430039981646,-0.016482679763194]","[-1,-1,-1]","[-0.0012243111603640804,0.1358744786500765]","[-1,-1,-1]","[-0.0641635290739194,-0.08532352647098747]","[1,1,1]","[0.03594453279098602,0.02129153022835254]","[1,1,1]","[-0.10256252444119983,-0.03359537712658245]","[-1,-1,-1]","[-0.0025208743033290812,0.09000638482341393]","[1,1,1]","[0.19718495646728665,-0.02067421875772539]","[1,1,1]","[-0.10751902019071194,-0.14742856316503047]","[-1,-1,-1]","[0.10133798776100063,-0.0315315889496223]","[-1,-1,-1]","[0.18389726877103552,0.034453947185826554]","[-1,-1,-1]","[0.02,0.02]",169.673,0,37,37,97,1,,,,,,,
,,,,,,,5faeb56b25a37f01d47d326c,682db396950c0ec3f75fd358,2025-05-21_15h03.18.345,cuing_paradigm_dot,2024.1.5,Win32,142.8571429,682d556593cb38ad0a074487,,,,,,,,,,,169.6733,170.173,,,170.4232,170.8885,left,0.4627,,,,,,,,,0.4,,,,,,170.173,170.4232,170.8886,"[-0.006306444861627471,-0.11566120730334888]","[-1,-1,-1]","[0.09316289291278856,0.009139215084213505]","[-1,-1,-1]","[0.18982262920979273,0.033150917755824585]","[-1,-1,-1]","[-0.008096758593934219,-0.020991495251679388]","[-1,-1,-1]","[-0.13308541172355562,0.009158118365701903]","[-1,-1,-1]","[0.04898171859322089,-0.18130897012679192]","[-1,-1,-1]","[0.1650047402285836,-0.03853558409440641]","[-1,-1,-1]","[0.05907909757087075,-0.03172280743899512]","[1,1,1]","[-0.06879492768075056,0.18463853150251955]","[-1,-1,-1]","[-0.013294811515782184,-0.1744548463523116]","[1,1,1]","[0.07075384146059173,-0.13941205870834686]","[1,1,1]","[0.07547293231847467,0.0517314886735825]","[1,1,1]","[-0.1303014312398112,0.05969732720033533]","[-1,-1,-1]","[-0.10837962655412571,-0.1155938282841033]","[1,1,1]","[0.0002649902471793854,0.18684818706538295]","[-1,-1,-1]","[-0.14568154730716334,0.0976124211635956]","[-1,-1,-1]","[-0.003943793964404602,0.09438193648564959]","[1,1,1]","[0.17067748875512523,-0.09917529198477615]","[-1,-1,-1]","[0.1062044123256439,0.16155080893951243]","[1,1,1]","[-0.06655630434338661,-0.07954081787047246]","[1,1,1]","[-0.12867070584730544,-0.06937169018279576]","[-1,-1,-1]","[0.12155917910240022,0.05082380153638594]","[-1,-1,-1]","[0.05494611563271768,0.16848019357496188]","[1,1,1]","[-0.09271273696818878,0.1524931720717919]","[1,1,1]","[0.10057198436436028,-0.03465614560020935]","[1,1,1]","[-0.19144938647105375,-0.0022555277178984054]","[1,1,1]","[-0.0892268704263686,-0.0012375517748172379]","[-1,-1,-1]","[-0.18721605958375953,-0.0679884488711584]","[1,1,1]","[0.10527424629947323,0.11796845108739909]","[-1,-1,-1]","[-0.17687648245810564,0.05805756827024864]","[-1,-1,-1]","[0.021176237184386004,-0.1507303103744901]","[-1,-1,-1]","[0.05301535158478032,0.09196335619392991]","[-1,-1,-1]","[0.02,0.02]",171.9857,0,38,38,44,1,,,,,,,
,,,,,,,5faeb56b25a37f01d47d326c,682db396950c0ec3f75fd358,2025-05-21_15h03.18.345,cuing_paradigm_dot,2024.1.5,Win32,142.8571429,682d556593cb38ad0a074487,,,,,,,,,,,171.986,172.4859,,,172.736,173.1597,right,0.4177,,,,,,,,,0.9,,,,,,172.4859,172.7359,173.1597,"[0.11056262216273025,0.1592663000986737]","[1,1,1]","[-0.0337810368721285,0.18546797423788464]","[-1,-1,-1]","[-0.02143568356543969,0.13270061695200136]","[1,1,1]","[0.041573567740735826,-0.06613449630345479]","[1,1,1]","[-0.013574649782703006,-0.17562397697646737]","[1,1,1]","[-0.03872609654777944,-0.0039975621008148466]","[-1,-1,-1]","[0.12198685053403127,-0.09285632863589334]","[1,1,1]","[-0.06221144078036586,0.0771286944933455]","[1,1,1]","[-0.1569272461889522,-0.008765916614719343]","[1,1,1]","[-0.15554539809766715,-0.08744653748108486]","[1,1,1]","[0.07139289279144756,0.02282343961651897]","[1,1,1]","[0.16268767667039213,0.10623969200960576]","[1,1,1]","[-0.14592867348719288,0.11848278208570166]","[1,1,1]","[-0.054891501104804515,-0.15267630747339572]","[1,1,1]","[0.012532953478113352,0.04128538943646179]","[1,1,1]","[0.07055080083579708,-0.021080568769509395]","[1,1,1]","[0.09193595059887763,0.12327558215039587]","[1,1,1]","[0.012081325945432195,0.16296809734708176]","[1,1,1]","[0.05554837063738901,0.06886113276442477]","[1,1,1]","[0.1672349582879414,0.0060772181734730065]","[1,1,1]","[0.02830241067232911,-0.16575452819794037]","[-1,-1,-1]","[0.12991809070657548,-0.134721623015673]","[1,1,1]","[-0.11128301452645242,-0.03324035564777836]","[1,1,1]","[-0.1108218243649692,0.07024327062363414]","[1,1,1]","[0.13515620888880053,0.07176479599430204]","[1,1,1]","[-0.043951366691469505,-0.0668124383780501]","[1,1,1]","[-0.10507994685543673,-0.1376474795013593]","[1,1,1]","[-0.09149133937171053,0.12032007188224256]","[1,1,1]","[0.018712572549269734,0.08691713553047511]","[1,1,1]","[0.04893936069624298,-0.12427765941578908]","[1,1,1]","[0.1029941988685911,-0.05387147268795067]","[1,1,1]","[-0.10325867105439536,-0.08502279932266585]","[1,1,1]","[0.02,0.02]",174.2569,0,39,39,194,1,,,,,,,
,,,,,,,5faeb56b25a37f01d47d326c,682db396950c0ec3f75fd358,2025-05-21_15h03.18.345,cuing_paradigm_dot,2024.1.5,Win32,142.8571429,682d556593cb38ad0a074487,,,,,,,,,,,174.2572,174.757,,,175.0071,175.2991,left,0.2909,,,,,,,,,0.1,,,,,,174.757,175.0071,175.2991,"[-0.14569831368388717,-0.10572095103413627]","[-1,-1,-1]","[0.04505606087145694,0.13496179938801553]","[-1,-1,-1]","[0.001526071837936504,0.08122538251387507]","[-1,-1,-1]","[0.10866347179711158,0.04139908577619277]","[-1,-1,-1]","[0.10445706310536149,0.09609848858363022]","[-1,-1,-1]","[0.0006382926263589818,-0.1345459402749991]","[-1,-1,-1]","[0.16218763840267056,0.0019616755853929507]","[-1,-1,-1]","[-0.1488368662555046,0.1323109745895488]","[-1,-1,-1]","[0.0313380436569902,-0.07388307112311625]","[1,1,1]","[0.025354928745297187,-0.012434764360107178]","[-1,-1,-1]","[-0.005886549214314693,0.1955020338489294]","[-1,-1,-1]","[-0.1024732038527709,0.026870052561068523]","[-1,-1,-1]","[0.1705731076160275,0.09416587655662755]","[-1,-1,-1]","[-0.1290195423728161,-0.027349891426376616]","[-1,-1,-1]","[-0.038117987628484236,0.06859003203158635]","[-1,-1,-1]","[-0.061374833133215685,0.03329208128503434]","[-1,-1,-1]","[0.0716761663756738,0.01146061554483578]","[-1,-1,-1]","[0.043591808402375726,0.07526833837132019]","[-1,-1,-1]","[-0.11124500562977312,0.07584039879915619]","[-1,-1,-1]","[-0.07308867003942258,-0.14566417252413477]","[-1,-1,-1]","[-0.056641653257564484,-0.02605818295892374]","[-1,-1,-1]","[0.18266931524635124,-0.03807798878700482]","[-1,-1,-1]","[-0.11408512407663775,-0.07887522093290278]","[1,1,1]","[-0.16022859343324072,0.057180805014433275]","[-1,-1,-1]","[0.12971492987649302,-0.14112045314861102]","[-1,-1,-1]","[0.15648586920525479,-0.09996502403132337]","[-1,-1,-1]","[-0.06078135893817629,-0.06997906688588779]","[-1,-1,-1]","[-0.07164543840135662,0.1801413181867999]","[-1,-1,-1]","[-0.18241528855980305,-0.06570343017652966]","[-1,-1,-1]","[-0.052149975844287946,0.13701689038361323]","[1,1,1]","[0.07759608154527678,0.16116517250125334]","[-1,-1,-1]","[0.12126770211831499,0.0005041571236432949]","[-1,-1,-1]","[0.02,0.02]",176.3961,0,40,40,21,1,,,,,,,
,,,,,,,5faeb56b25a37f01d47d326c,682db396950c0ec3f75fd358,2025-05-21_15h03.18.345,cuing_paradigm_dot,2024.1.5,Win32,142.8571429,682d556593cb38ad0a074487,,,,,,,,,,,176.3963,176.8961,,,177.1463,177.4032,right,0.2518,,,,,,,,,0.9,,,,,,176.8961,177.1463,177.4033,"[0.06289799695003302,-0.08158047839835696]","[1,1,1]","[-0.005672132359756418,0.08630093189159187]","[1,1,1]","[0.11994809770353114,0.09578046805147392]","[1,1,1]","[0.10257461577148368,0.03581332000121677]","[1,1,1]","[0.17637843690986485,-0.05428818842445157]","[1,1,1]","[-0.03742954937597424,-0.18301207267024422]","[1,1,1]","[-0.14886933720610007,0.10440500852003629]","[1,1,1]","[0.10212993516821262,-0.13328163583256464]","[1,1,1]","[0.17060263630523714,0.08350435163287319]","[1,1,1]","[0.06388027481750173,0.003513803139040526]","[1,1,1]","[-0.0828402342685331,0.06568501276296744]","[1,1,1]","[0.0357795185007134,0.03436814808918593]","[1,1,1]","[-0.06805262959454136,0.01648062446036444]","[1,1,1]","[0.05831785255092297,0.17552705408604]","[1,1,1]","[-0.0035208789728098412,-0.10848712512338675]","[1,1,1]","[-0.027401900176379557,-0.05494773234252296]","[1,1,1]","[0.10676491526514617,-0.04664445031524862]","[1,1,1]","[0.09350269743717288,0.13788390819645635]","[1,1,1]","[0.18049531985142928,0.02956231503104781]","[1,1,1]","[-0.08044286521938994,-0.10616053289367787]","[1,1,1]","[-0.14493773322376263,0.04648648087801091]","[-1,-1,-1]","[0.004792237690716919,-0.02503816786366357]","[1,1,1]","[-0.1714355864982046,-0.06360948891145847]","[1,1,1]","[0.06039095323785404,-0.144472769500003]","[1,1,1]","[-0.061820553891625,0.16327172969282744]","[1,1,1]","[0.05496646980857967,0.09630786542884466]","[1,1,1]","[-0.0014393867098298789,0.17327632119231792]","[1,1,1]","[-0.036962572859749555,0.04899016907544703]","[-1,-1,-1]","[-0.17891529343491286,0.07762009584970488]","[1,1,1]","[-0.15079989455602405,-0.022416732368941508]","[1,1,1]","[0.14121302356676835,-0.09072720508327461]","[1,1,1]","[0.0431552050634247,-0.04299902339524295]","[-1,-1,-1]","[0.02,0.02]",178.5005,0,41,41,188,1,,,,,,,
,,,,,,,5faeb56b25a37f01d47d326c,682db396950c0ec3f75fd358,2025-05-21_15h03.18.345,cuing_paradigm_dot,2024.1.5,Win32,142.8571429,682d556593cb38ad0a074487,,,,,,,,,,,178.5007,179.0006,,,179.2508,179.7508,right,0.4929,,,,,,,,,0.45,,,,,,179.0006,179.2508,179.7509,"[0.008439835333182582,0.1401627016713185]","[1,1,1]","[-0.1061361060776322,0.10436319372631171]","[1,1,1]","[0.17478509904603398,0.06860982863664515]","[-1,-1,-1]","[0.18263381526221945,-0.013381499609409505]","[-1,-1,-1]","[-0.0752861406675129,-0.04395576413964534]","[-1,-1,-1]","[-0.18938725692458147,-0.03837271971946129]","[-1,-1,-1]","[0.0740305772954249,0.07680378461219185]","[1,1,1]","[-0.018370383628340828,-0.0829860517641424]","[1,1,1]","[0.1931784804990752,0.030470189390608894]","[-1,-1,-1]","[0.1706039151110159,-0.09098885701762993]","[-1,-1,-1]","[0.1150094729028934,-0.11352983616111793]","[-1,-1,-1]","[0.11436326148843592,0.15330427757439907]","[-1,-1,-1]","[-0.0522032486301713,0.0427488542989319]","[-1,-1,-1]","[0.003988476234726556,0.04047744449870375]","[-1,-1,-1]","[0.060894357428983394,-0.15805791718437354]","[1,1,1]","[0.02163529178480916,-0.04755019022969982]","[-1,-1,-1]","[0.10234478540846198,-0.013383016856252173]","[-1,-1,-1]","[-0.028729451495969248,0.09612039271891841]","[1,1,1]","[0.1231858057455149,-0.04760053034198542]","[-1,-1,-1]","[-0.13463415592656341,-0.029871045172628646]","[-1,-1,-1]","[-0.1109025416920734,0.14545454249981393]","[1,1,1]","[0.11348578079793697,0.05846884611607554]","[1,1,1]","[0.06040164775862228,-0.1068869871015404]","[1,1,1]","[-0.08553401259113258,-0.17362082251970173]","[-1,-1,-1]","[0.13567999543860884,0.01731165553697345]","[-1,-1,-1]","[-0.038743675416560826,-0.14290235284129277]","[1,1,1]","[-0.17335065901703064,0.0006610237866552458]","[1,1,1]","[-0.11535327603293183,-0.12806365654779872]","[-1,-1,-1]","[-0.13224409594333048,-0.08478463039390996]","[-1,-1,-1]","[-0.13361544964992544,0.07309489571850754]","[1,1,1]","[0.15030746817195373,0.11342799843658863]","[1,1,1]","[-0.04121668938218289,0.17504381970426153]","[1,1,1]","[0.02,0.02]",180.848,0,42,42,83,1,,,,,,,
,,,,,,,5faeb56b25a37f01d47d326c,682db396950c0ec3f75fd358,2025-05-21_15h03.18.345,cuing_paradigm_dot,2024.1.5,Win32,142.8571429,682d556593cb38ad0a074487,,,,,,,,,,,180.8482,181.3481,,,181.5982,182.6678,left,1.0645,,,,,,,,,0.4,,,,,,181.3481,181.5982,182.6678,"[0.03167914886654116,-0.0002927184599073611]","[-1,-1,-1]","[0.03772085818747903,0.09266280662224732]","[-1,-1,-1]","[0.17837110565801087,-0.069434558322109]","[-1,-1,-1]","[0.07735732328991707,-0.048625253692721165]","[-1,-1,-1]","[-0.08251977444037163,-0.07385893176619926]","[1,1,1]","[-0.08102068483863459,-0.022531387199844988]","[-1,-1,-1]","[0.03763179088882579,0.1439269751183517]","[1,1,1]","[0.15833948877248197,0.0795758431034194]","[-1,-1,-1]","[-0.018659138832318362,-0.0013856775938008608]","[-1,-1,-1]","[-0.130079169191578,0.004529690751432655]","[1,1,1]","[0.19258281902085533,0.03556358639292501]","[1,1,1]","[0.12926778468479616,-0.07594019832026391]","[1,1,1]","[-0.04298752693449039,0.05335012881282946]","[-1,-1,-1]","[-0.1681959791208284,-0.012312492418313087]","[1,1,1]","[0.15187336685684416,0.021669724870653388]","[-1,-1,-1]","[-0.07692554761582703,0.14827158557209727]","[1,1,1]","[0.10760340462901678,0.15203413341739294]","[-1,-1,-1]","[-0.02094424439037658,-0.11642523530399168]","[-1,-1,-1]","[-0.10690997085924495,0.04532022169572837]","[-1,-1,-1]","[0.07704772371514837,0.04696427372949092]","[1,1,1]","[-0.021899907792332002,0.17368908777956546]","[-1,-1,-1]","[0.055065664256817734,-0.14906766790954445]","[1,1,1]","[-0.16113695000786013,0.037503695012337114]","[-1,-1,-1]","[-0.1162750472151418,-0.11506002916614286]","[-1,-1,-1]","[0.04500055064276795,-0.08928521860608718]","[-1,-1,-1]","[0.020142752462858956,0.0440878286436071]","[1,1,1]","[0.009657709477016508,-0.17060846714571362]","[-1,-1,-1]","[-0.07086290011344118,-0.17732729775411343]","[-1,-1,-1]","[-0.020857184972669373,0.1158693939216686]","[1,1,1]","[-0.15667236060952688,-0.086406322534119]","[-1,-1,-1]","[-0.14241842678474814,0.08034261463456091]","[1,1,1]","[0.05796726312524427,0.18417209596739997]","[1,1,1]","[0.02,0.02]",183.7652,0,43,43,59,1,,,,,,,
,,,,,,,5faeb56b25a37f01d47d326c,682db396950c0ec3f75fd358,2025-05-21_15h03.18.345,cuing_paradigm_dot,2024.1.5,Win32,142.8571429,682d556593cb38ad0a074487,,,,,,,,,,,183.7655,184.2652,,,184.5153,184.7445,right,0.2246,,,,,,,,,0.9,,,,,,184.2652,184.5153,184.7445,"[-0.13990605183567345,0.05493849477469178]","[-1,-1,-1]","[0.12285915905740333,-0.08733807969462408]","[1,1,1]","[-0.07716973018424121,-0.08839935487631712]","[1,1,1]","[-0.08833086703884055,-0.005072514659735034]","[1,1,1]","[-0.12625618247632464,0.09275694004035967]","[1,1,1]","[0.08334135161610626,-0.059755168012898416]","[1,1,1]","[-0.0020795597242154675,0.0005163326957777814]","[1,1,1]","[-0.0034247379238695904,0.12973518694771655]","[-1,-1,-1]","[0.00466142942833621,-0.04134322332693898]","[1,1,1]","[0.14049797748688486,-0.019329896977868043]","[1,1,1]","[0.051790144830153845,0.08604837686543369]","[1,1,1]","[-0.019618808433160963,-0.07702382863289933]","[1,1,1]","[0.031794588403893695,0.1688449171160398]","[1,1,1]","[-0.13804095246951936,-0.05514198149913975]","[1,1,1]","[0.07258158958936234,-0.17822075766831566]","[1,1,1]","[0.025263208328740606,0.04062357445256325]","[1,1,1]","[-0.18178068613672627,0.016347180329857165]","[1,1,1]","[-0.13058999898005277,0.13374139858233855]","[1,1,1]","[-0.08974650582240487,0.1183405889752798]","[-1,-1,-1]","[0.08542010625224544,-0.10641793478745089]","[1,1,1]","[-0.009074581481822571,-0.16897307557745397]","[1,1,1]","[0.1164426848721104,0.07885348191720756]","[1,1,1]","[0.011733739782276684,-0.10208930748927549]","[1,1,1]","[-0.033733044633818016,0.061629560029033824]","[1,1,1]","[-0.06376487894016135,0.15731711169201995]","[1,1,1]","[0.0323630137618232,-0.19393759857842907]","[1,1,1]","[-0.04597468850093444,-0.14311019416533713]","[1,1,1]","[-0.09259651074387361,-0.1500613852694128]","[1,1,1]","[-0.04871237799314143,-0.03951087138059512]","[1,1,1]","[0.18671398478313675,-0.0494280967189438]","[1,1,1]","[0.18705861065113308,0.050247431846683045]","[1,1,1]","[-0.19382887196571932,-0.04575629613574781]","[1,1,1]","[0.02,0.02]",185.8418,0,44,44,183,1,,,,,,,
