right,left,explain.started,explain.stopped,key_resp_3.keys,key_resp_3.rt,key_resp_3.duration,participant,session,date,expName,psychopyVersion,OS,frameRate,study_id,explain_2.started,explain_2.stopped,key_resp_4.keys,key_resp_4.rt,key_resp_4.duration,explain_3.started,explain_3.stopped,key_resp_5.keys,key_resp_5.rt,key_resp_5.duration,fixation.started,fixation.stopped,practice.started,practice.stopped,response.started,response.stopped,key_resp.keys,feedback.started,feedback.stopped,trials_2.thisRepN,trials_2.thisTrialN,trials_2.thisN,trials_2.thisIndex,trials_2.ran,white_ratio,key_resp.rt,key_resp.duration,explain_4.started,explain_4.stopped,key_resp_6.keys,key_resp_6.rt,key_resp_6.duration,dotDisplay.started,dotDisplay.stopped,ITI.started,polygon_1.pos,polygon_1.color,polygon_2.pos,polygon_2.color,polygon_3.pos,polygon_3.color,polygon_4.pos,polygon_4.color,polygon_5.pos,polygon_5.color,polygon_6.pos,polygon_6.color,polygon_7.pos,polygon_7.color,polygon_8.pos,polygon_8.color,polygon_9.pos,polygon_9.color,polygon_10.pos,polygon_10.color,polygon_11.pos,polygon_11.color,polygon_12.pos,polygon_12.color,polygon_13.pos,polygon_13.color,polygon_14.pos,polygon_14.color,polygon_15.pos,polygon_15.color,polygon_16.pos,polygon_16.color,polygon_17.pos,polygon_17.color,polygon_18.pos,polygon_18.color,polygon_19.pos,polygon_19.color,polygon_20.pos,polygon_20.color,polygon_21.pos,polygon_21.color,polygon_22.pos,polygon_22.color,polygon_23.pos,polygon_23.color,polygon_24.pos,polygon_24.color,polygon_25.pos,polygon_25.color,polygon_26.pos,polygon_26.color,polygon_27.pos,polygon_27.color,polygon_28.pos,polygon_28.color,polygon_29.pos,polygon_29.color,polygon_30.pos,polygon_30.color,polygon_31.pos,polygon_31.color,polygon_32.pos,polygon_32.color,dot_size,ITI.stopped,trials.thisRepN,trials.thisTrialN,trials.thisN,trials.thisIndex,trials.ran,break_2.started,break_2.stopped,trials_3.thisRepN,trials_3.thisTrialN,trials_3.thisN,trials_3.thisIndex,trials_3.ran
subject chose white,subject chose black,1E-04,31.4432,space,16.4197,,5ff782ca9927434579cbb764,682db45e33295b87f6a446bf,2025-05-21_12h09.31.388,cuing_paradigm_dot,2024.1.5,Win32,59.52380952,682d556593cb38ad0a074487,,,,,,,,,,,,,,,,,,,,,,,,,,,,,,,,,,,,,,,,,,,,,,,,,,,,,,,,,,,,,,,,,,,,,,,,,,,,,,,,,,,,,,,,,,,,,,,,,,,,,,,,,,,,,,,,,
,,,,,,,5ff782ca9927434579cbb764,682db45e33295b87f6a446bf,2025-05-21_12h09.31.388,cuing_paradigm_dot,2024.1.5,Win32,59.52380952,682d556593cb38ad0a074487,31.4432,62.6095,space,1.1363,,,,,,,,,,,,,,,,,,,,,,,,,,,,,,,,,,,,,,,,,,,,,,,,,,,,,,,,,,,,,,,,,,,,,,,,,,,,,,,,,,,,,,,,,,,,,,,,,,,,,,,,,,,,,
,,,,,,,5ff782ca9927434579cbb764,682db45e33295b87f6a446bf,2025-05-21_12h09.31.388,cuing_paradigm_dot,2024.1.5,Win32,59.52380952,682d556593cb38ad0a074487,,,,,,62.6095,66.9595,space,1.3299,,,,,,,,,,,,,,,,,,,,,,,,,,,,,,,,,,,,,,,,,,,,,,,,,,,,,,,,,,,,,,,,,,,,,,,,,,,,,,,,,,,,,,,,,,,,,,,,,,,,,,,,
,,,,,,,5ff782ca9927434579cbb764,682db45e33295b87f6a446bf,2025-05-21_12h09.31.388,cuing_paradigm_dot,2024.1.5,Win32,59.52380952,682d556593cb38ad0a074487,,,,,,,,,,,66.9665,67.4594,67.4595,67.7122,67.7123,69.2095,,69.2095,70.3095,0,0,0,1,1,0.2,,,,,,,,,,,,,,,,,,,,,,,,,,,,,,,,,,,,,,,,,,,,,,,,,,,,,,,,,,,,,,,,,,,,,,,,,,,,,,,,,,,,,,,,
,,,,,,,5ff782ca9927434579cbb764,682db45e33295b87f6a446bf,2025-05-21_12h09.31.388,cuing_paradigm_dot,2024.1.5,Win32,59.52380952,682d556593cb38ad0a074487,,,,,,,,,,,70.3097,70.8093,70.8093,71.0609,71.061,71.4593,right,71.4594,72.5593,0,1,1,0,1,0.8,0.3736,,,,,,,,,,,,,,,,,,,,,,,,,,,,,,,,,,,,,,,,,,,,,,,,,,,,,,,,,,,,,,,,,,,,,,,,,,,,,,,,,,,,,,,
,,,,,,,5ff782ca9927434579cbb764,682db45e33295b87f6a446bf,2025-05-21_12h09.31.388,cuing_paradigm_dot,2024.1.5,Win32,59.52380952,682d556593cb38ad0a074487,,,,,,,,,,,,,,,,,,,,,,,,,,,,72.5595,76.4093,space,0.8201,,,,,,,,,,,,,,,,,,,,,,,,,,,,,,,,,,,,,,,,,,,,,,,,,,,,,,,,,,,,,,,,,,,,,,,,,,,,,,,,,,
,,,,,,,5ff782ca9927434579cbb764,682db45e33295b87f6a446bf,2025-05-21_12h09.31.388,cuing_paradigm_dot,2024.1.5,Win32,59.52380952,682d556593cb38ad0a074487,,,,,,,,,,,76.414,76.9093,,,77.1595,77.6093,left,,,,,,,,0.55,0.4177,,,,,,,76.9094,77.1595,77.6096,"[0.020268473188482027,-0.06932309275941999]","[1,1,1]","[0.004509775942611639,0.10702288373054523]","[1,1,1]","[0.10078260073273629,0.056876908080248735]","[1,1,1]","[0.11269811746983951,0.09750601783957895]","[1,1,1]","[0.03145939559642058,0.0017443095442268755]","[-1,-1,-1]","[0.11756141616107982,0.14675778279544757]","[1,1,1]","[0.0340584329159609,-0.14944663327464267]","[1,1,1]","[-0.062400267789647336,-0.04820010211425431]","[1,1,1]","[-0.14288435468030658,0.06297891001490943]","[1,1,1]","[-0.054057728663617285,0.15235459038221882]","[-1,-1,-1]","[-0.012873981608239568,-0.00903255945311542]","[1,1,1]","[-0.17056518880926755,-0.0026198788555626446]","[1,1,1]","[0.14674124897268975,0.03749131946136825]","[-1,-1,-1]","[0.04543188466512095,0.10865171884434975]","[-1,-1,-1]","[0.09962496283661479,-0.07524023193756435]","[-1,-1,-1]","[0.16172424113577594,0.0919124883314768]","[-1,-1,-1]","[-0.1581548523670055,-0.04764658479532761]","[-1,-1,-1]","[-0.059250317968807864,0.058045230627479155]","[-1,-1,-1]","[-0.08688085912553736,0.09357016197186266]","[1,1,1]","[0.040317273554840403,0.18908429548910047]","[-1,-1,-1]","[-0.03776688656617509,-0.17539474906146882]","[1,1,1]","[0.14016483093007465,-0.015558177762171254]","[-1,-1,-1]","[-0.09660876458569823,-0.07164997015319693]","[1,1,1]","[0.045184800827542074,0.06516897580925216]","[-1,-1,-1]","[-0.06981341035666168,-0.11710073896635091]","[1,1,1]","[0.13830212683128829,-0.11839100434811768]","[1,1,1]","[0.057110841334471904,-0.11134459513769304]","[1,1,1]","[0.1794252690978011,-0.05436746708248309]","[-1,-1,-1]","[-0.016477510637644452,-0.08907044217829257]","[1,1,1]","[-0.09246986911996596,-0.17106506192693022]","[1,1,1]","[-0.09010967359464181,-0.010780291874406427]","[-1,-1,-1]","[0.08335348973435018,-0.14364280078810215]","[-1,-1,-1]","[0.02,0.02]",78.7094,0,0,0,142,1,,,,,,,
,,,,,,,5ff782ca9927434579cbb764,682db45e33295b87f6a446bf,2025-05-21_12h09.31.388,cuing_paradigm_dot,2024.1.5,Win32,59.52380952,682d556593cb38ad0a074487,,,,,,,,,,,78.7096,79.2092,,,79.4621,79.8426,left,,,,,,,,0.4,0.3504,,,,,,,79.2093,79.462,79.8426,"[-0.020977317143747894,0.19693503239412688]","[1,1,1]","[0.11598577215216573,-0.086499336813688]","[1,1,1]","[-0.02405836166613716,0.005836230805845804]","[-1,-1,-1]","[0.016886435399849922,0.11837300206244544]","[-1,-1,-1]","[-0.050787899008273504,-0.17549449097790984]","[-1,-1,-1]","[0.07094805610938808,-0.027614830987627518]","[1,1,1]","[-0.016712960008582575,-0.0833464493645205]","[-1,-1,-1]","[0.09520957469739096,-0.16343954209709097]","[-1,-1,-1]","[0.01682290285110809,0.16521091765201373]","[1,1,1]","[-0.10900363852079603,0.08949692653090299]","[1,1,1]","[-0.03869396860330072,-0.04313492006655668]","[-1,-1,-1]","[0.04629364703291867,-0.1287838578188292]","[-1,-1,-1]","[-0.1950669713863309,-0.031049183329486543]","[1,1,1]","[-0.1381589601766462,-0.0561522817076129]","[1,1,1]","[-0.15635853707972072,-0.003903843639775364]","[1,1,1]","[-0.17250910167199576,0.09193259610599053]","[-1,-1,-1]","[0.13834306273616598,-0.1369611684870699]","[1,1,1]","[0.05851309283073411,0.09903473233141653]","[1,1,1]","[-0.12605863063389766,0.024774437574992546]","[-1,-1,-1]","[-0.10280076858594417,0.15101812124157502]","[-1,-1,-1]","[0.0014455813560058624,-0.19891502517780782]","[-1,-1,-1]","[0.08553359981446368,0.1356284456807282]","[-1,-1,-1]","[-0.1266750146219951,-0.12870416795648498]","[-1,-1,-1]","[0.070750431414464,0.016990530826104074]","[-1,-1,-1]","[0.05473640031527267,-0.08112649172206264]","[-1,-1,-1]","[-0.028445821244465513,0.05154790962488616]","[-1,-1,-1]","[0.01380691179498289,0.032054786218179365]","[-1,-1,-1]","[-0.17161946561720176,0.05112335156795611]","[1,1,1]","[-0.061338031266755064,0.11707423725187424]","[-1,-1,-1]","[-0.04932447526623332,-0.11892745666088728]","[1,1,1]","[-0.09498623795909607,-0.03614605758922363]","[-1,-1,-1]","[0.16125572996105214,-0.071084337696616]","[1,1,1]","[0.02,0.02]",80.9426,0,1,1,40,1,,,,,,,
,,,,,,,5ff782ca9927434579cbb764,682db45e33295b87f6a446bf,2025-05-21_12h09.31.388,cuing_paradigm_dot,2024.1.5,Win32,59.52380952,682d556593cb38ad0a074487,,,,,,,,,,,80.9427,81.4426,,,81.6927,81.9261,right,,,,,,,,0.9,0.2047,,,,,,,81.4426,81.6927,81.9261,"[-0.03487290026589509,-0.17679315074489635]","[1,1,1]","[0.052564886093607974,0.05373240853511645]","[1,1,1]","[0.16974278994422262,0.012591878202740072]","[-1,-1,-1]","[0.1007573493423085,0.026587277205463493]","[1,1,1]","[-0.0004962465810125837,-0.002512317600757777]","[1,1,1]","[-0.037372684151597495,-0.04853607635423463]","[-1,-1,-1]","[0.04652894896460947,-0.11109203816544959]","[1,1,1]","[-0.01410865435733026,0.1496369009939325]","[1,1,1]","[-0.16597335960906665,-0.03660163253159261]","[-1,-1,-1]","[0.05202490934545422,0.14414610544055642]","[1,1,1]","[-0.1118714962482847,-0.15582028598035458]","[1,1,1]","[0.00016230410609856472,-0.11394296182477053]","[1,1,1]","[0.1494165644001371,0.05120816906540347]","[1,1,1]","[0.12649605072877962,-0.014265909721596215]","[1,1,1]","[0.009364057419697076,0.04683493232636044]","[1,1,1]","[-0.06357788850918733,0.08057607126791923]","[1,1,1]","[0.08742862835759757,-0.05980739080301939]","[1,1,1]","[-0.09061346381504194,-0.1058648552322366]","[1,1,1]","[-0.13491266425728063,0.10264956849050842]","[1,1,1]","[-0.059154004820799494,0.1661839565564696]","[1,1,1]","[-0.022299268235570092,0.09719762306002042]","[1,1,1]","[0.13019848117341482,-0.061381188666616814]","[1,1,1]","[-0.10211061352307202,0.04697985392473256]","[1,1,1]","[0.10227142196372217,-0.11049863349802617]","[1,1,1]","[-0.1776710768741136,0.04961576596870448]","[1,1,1]","[-0.12401937889607377,0.0032972061474226522]","[1,1,1]","[0.08946268296459176,0.12190039815723756]","[1,1,1]","[0.1616836529968727,-0.10195475560708879]","[1,1,1]","[0.0960971251611049,-0.17243508209791086]","[1,1,1]","[-0.04472561987715636,-0.12242622106930706]","[1,1,1]","[-0.13282213067874224,0.14741239412717316]","[1,1,1]","[-0.05609656585510976,0.12081454930511941]","[1,1,1]","[0.02,0.02]",83.026,0,2,2,190,1,,,,,,,
,,,,,,,5ff782ca9927434579cbb764,682db45e33295b87f6a446bf,2025-05-21_12h09.31.388,cuing_paradigm_dot,2024.1.5,Win32,59.52380952,682d556593cb38ad0a074487,,,,,,,,,,,83.0261,83.526,,,83.776,84.2426,left,,,,,,,,0.4,0.4412,,,,,,,83.526,83.7759,84.2426,"[-0.02150249117175731,-0.01896684854764402]","[-1,-1,-1]","[0.017235317514431223,0.19706824600165246]","[1,1,1]","[0.04385820090154911,0.16654185517171066]","[-1,-1,-1]","[0.13010900196266875,-0.10718189730598705]","[1,1,1]","[0.19479240715490947,0.04162401909657952]","[1,1,1]","[0.06694054661227529,0.056976050895969785]","[1,1,1]","[-0.08337367141995673,0.0756219088521745]","[1,1,1]","[-0.050761270789457455,-0.04933494410151912]","[-1,-1,-1]","[-0.10607855917399427,-0.10378762743381953]","[-1,-1,-1]","[0.05968110762613311,-0.04055518027324558]","[1,1,1]","[-0.06884084805674172,-0.17903118083011157]","[1,1,1]","[-0.034570522425660354,0.028645008163872037]","[-1,-1,-1]","[0.03621260916247897,-0.1140507067353658]","[1,1,1]","[-0.17562735449107097,-0.01910493674950622]","[-1,-1,-1]","[0.13176979548246612,0.13746396620603707]","[-1,-1,-1]","[0.012052793452366973,0.028353253687232165]","[-1,-1,-1]","[0.11922773902535622,-0.15440303605757363]","[-1,-1,-1]","[0.13928996190121376,0.07762242761443458]","[-1,-1,-1]","[0.10491090214472512,-0.07400185522801074]","[1,1,1]","[0.040683472761845425,0.11458032743232094]","[-1,-1,-1]","[0.10539651850672066,0.03903478944474241]","[1,1,1]","[-0.016334544487465484,0.12471386384195679]","[-1,-1,-1]","[0.06635126065742454,-0.15189884491846745]","[-1,-1,-1]","[-0.17033100037563442,0.026579684282789364]","[-1,-1,-1]","[0.18791703910685414,-0.0025177352439850293]","[-1,-1,-1]","[-0.03784135101239533,0.07442805510477844]","[-1,-1,-1]","[0.07765924754619125,-0.1081182449508582]","[1,1,1]","[-0.1394682829392756,-0.1336423551936769]","[-1,-1,-1]","[-0.005471891975796887,-0.10641363521774452]","[1,1,1]","[-0.12465441298334098,0.11409893817507066]","[1,1,1]","[-0.07739773371154803,0.00994020076857298]","[-1,-1,-1]","[-0.025811727000999943,0.17988456939312616]","[-1,-1,-1]","[0.02,0.02]",85.3426,0,3,3,31,1,,,,,,,
,,,,,,,5ff782ca9927434579cbb764,682db45e33295b87f6a446bf,2025-05-21_12h09.31.388,cuing_paradigm_dot,2024.1.5,Win32,59.52380952,682d556593cb38ad0a074487,,,,,,,,,,,85.3427,85.8426,,,86.0927,86.3593,right,,,,,,,,0.9,0.2447,,,,,,,85.8426,86.0927,86.3593,"[0.15705910553979996,-0.04935647577069599]","[1,1,1]","[-0.05766858364920289,-0.053145275129372366]","[1,1,1]","[0.0637518112872414,-0.16665004492596625]","[1,1,1]","[-0.04340757418709008,-0.18173041315492747]","[1,1,1]","[-0.1529829263858008,0.01070093353019619]","[1,1,1]","[0.02661731865240357,0.03322663348687611]","[1,1,1]","[0.1641227876391202,0.1007308834749219]","[1,1,1]","[0.017376519882072464,-0.010753353648737292]","[1,1,1]","[-0.076258147888064,0.0743095007493863]","[1,1,1]","[-0.12929435377872794,0.13101701798827617]","[1,1,1]","[0.00032353345819957223,-0.12508140333112436]","[-1,-1,-1]","[0.07737418483362571,0.08246945858097017]","[1,1,1]","[-0.12031285038954309,-0.08904858277612106]","[1,1,1]","[-0.054649367458874255,-0.10431373053418111]","[1,1,1]","[-0.1418494888785717,-0.036184700766982346]","[1,1,1]","[-0.16661556088180052,-0.10954865481170518]","[1,1,1]","[0.08955014873256967,0.03151507083194505]","[1,1,1]","[0.0009728462100794656,0.14672370318928452]","[1,1,1]","[0.05407893793558114,0.1769963928609146]","[-1,-1,-1]","[0.1088247306946455,-0.0582777725714668]","[1,1,1]","[0.16487352660437957,-0.008072663794164166]","[1,1,1]","[0.0683918804351438,-0.013173413784251643]","[1,1,1]","[-0.03600773520209411,0.0820692953562948]","[1,1,1]","[-0.02363596944108294,0.18305830157683564]","[1,1,1]","[-0.05673016571961663,0.13123689618738996]","[1,1,1]","[0.044029530463984175,-0.11029377760589179]","[1,1,1]","[0.13080835441035388,0.0377319587790032]","[1,1,1]","[0.0007575419125962427,-0.1793118976442089]","[-1,-1,-1]","[0.14459419046774155,-0.12113651211054935]","[1,1,1]","[-0.08768186544364914,-0.1414679269267686]","[1,1,1]","[0.08459163691634329,-0.12225229219193355]","[1,1,1]","[0.0375572387574504,0.08649519890069894]","[1,1,1]","[0.02,0.02]",87.4592,0,4,4,193,1,,,,,,,
,,,,,,,5ff782ca9927434579cbb764,682db45e33295b87f6a446bf,2025-05-21_12h09.31.388,cuing_paradigm_dot,2024.1.5,Win32,59.52380952,682d556593cb38ad0a074487,,,,,,,,,,,87.4594,87.9593,,,88.2093,88.6927,left,,,,,,,,0.5,0.456,,,,,,,87.9593,88.2093,88.6927,"[0.10911285338341223,0.15084076960478293]","[-1,-1,-1]","[0.05356035242057469,-0.04795302140905739]","[1,1,1]","[-0.022704551457679734,-0.12562472034926184]","[1,1,1]","[-0.022357945402033175,0.14162295045348297]","[-1,-1,-1]","[-0.15620160454072674,-0.01452724920622452]","[1,1,1]","[-0.004487316252035187,-0.0499308216835661]","[-1,-1,-1]","[-0.17852138596387526,0.03852425284058651]","[1,1,1]","[0.16599221246475515,-0.09601823109382775]","[-1,-1,-1]","[0.09214889985584532,-0.1540675836211199]","[1,1,1]","[0.07073330986552209,-0.10469169961414902]","[-1,-1,-1]","[0.14605958098800767,-0.04036527957376243]","[-1,-1,-1]","[-0.07589653563154432,-0.12151407706246058]","[1,1,1]","[-0.08765651454797059,0.17048695591455137]","[1,1,1]","[-0.13242465283968402,0.09034214078661824]","[1,1,1]","[0.12088115139776293,-0.005294229442928528]","[-1,-1,-1]","[-0.09044287546669019,0.023202284157351868]","[1,1,1]","[0.011054053472312524,-0.17001275019308545]","[-1,-1,-1]","[0.011238938950580752,0.07188399693025085]","[1,1,1]","[0.06018770134893228,0.14985617892038022]","[1,1,1]","[-0.17708264710680657,-0.06806424305343625]","[1,1,1]","[-0.025689328373836005,0.030279523334386382]","[-1,-1,-1]","[0.12746037587231687,0.08821574276479219]","[1,1,1]","[-0.03244825692810643,-0.1727824908569311]","[1,1,1]","[0.14131908405450627,-0.13804092377704819]","[-1,-1,-1]","[-0.08963442439858658,0.06469366563102344]","[-1,-1,-1]","[-0.05418859786472184,-0.08131026463907813]","[-1,-1,-1]","[0.17365513734358057,0.039546851575755305]","[-1,-1,-1]","[0.05412039459998325,0.03230687896084714]","[-1,-1,-1]","[-0.07559192929176342,0.10267158573582277]","[-1,-1,-1]","[-0.08868467980678683,-0.16774917274632536]","[-1,-1,-1]","[-0.048179814391826586,-0.03191265411257951]","[1,1,1]","[-0.12849889652778063,0.035583278292522266]","[1,1,1]","[0.02,0.02]",89.7925,0,5,5,102,1,,,,,,,
,,,,,,,5ff782ca9927434579cbb764,682db45e33295b87f6a446bf,2025-05-21_12h09.31.388,cuing_paradigm_dot,2024.1.5,Win32,59.52380952,682d556593cb38ad0a074487,,,,,,,,,,,89.7926,90.2926,,,90.5426,90.9426,left,,,,,,,,0.5,0.3785,,,,,,,90.2926,90.5425,90.9426,"[0.12062662881793627,-0.05918263306129499]","[-1,-1,-1]","[-0.09323889408491211,-0.12809202117470753]","[1,1,1]","[-0.1518213345581356,-0.0275922958218793]","[1,1,1]","[-0.06841151398475218,0.09465525122848836]","[1,1,1]","[-0.05201841516555219,0.16485770765038155]","[-1,-1,-1]","[0.1253803381346767,0.04373122256688302]","[-1,-1,-1]","[-0.060279725704111976,-0.09590063841684152]","[-1,-1,-1]","[-0.11833679739090427,0.008564657854879887]","[-1,-1,-1]","[-0.004049541122584889,0.07881491419430552]","[-1,-1,-1]","[0.02184328331756062,-0.10089206100335375]","[-1,-1,-1]","[0.07262493554381755,0.03648312097256755]","[1,1,1]","[-0.10080831809774121,-0.07524243523935709]","[-1,-1,-1]","[-0.010090303905116373,0.13028038310250312]","[1,1,1]","[0.07068699708996337,0.15482233412486177]","[-1,-1,-1]","[-0.17971679902232837,-0.08258263947676743]","[-1,-1,-1]","[-0.163710937500423,0.07951521662626479]","[-1,-1,-1]","[-0.15430132285131923,0.03700052571805235]","[1,1,1]","[-0.04148858659583324,-0.1556054350299336]","[1,1,1]","[-0.008816076751605824,-0.19331237701728077]","[-1,-1,-1]","[0.1527131565629403,-0.00031889431103906995]","[1,1,1]","[0.017628095148602137,-0.0514781158086191]","[-1,-1,-1]","[-0.004477791452281311,0.020286538211512387]","[1,1,1]","[0.03718578100395319,-0.00837702461334276]","[-1,-1,-1]","[-0.08063959992105933,-0.03567880325746853]","[1,1,1]","[0.04811193262536878,0.10255499392636426]","[1,1,1]","[0.041610293778877004,-0.15802989783371163]","[1,1,1]","[0.1780800772090216,0.05792186019154011]","[-1,-1,-1]","[-0.10655896054820804,-0.16644971967240502]","[1,1,1]","[-0.09906482405653975,0.1524703098581896]","[1,1,1]","[0.0754370007765323,-0.11509821506831826]","[1,1,1]","[0.14375038753693317,0.12650742347804722]","[1,1,1]","[0.0921391787534996,-0.00680974870627296]","[-1,-1,-1]","[0.02,0.02]",92.0425,0,6,6,105,1,,,,,,,
,,,,,,,5ff782ca9927434579cbb764,682db45e33295b87f6a446bf,2025-05-21_12h09.31.388,cuing_paradigm_dot,2024.1.5,Win32,59.52380952,682d556593cb38ad0a074487,,,,,,,,,,,92.0426,92.5425,,,92.7926,93.3092,right,,,,,,,,0.6,0.4888,,,,,,,92.5426,92.7926,93.3092,"[0.0113356913213941,-0.14224631628070597]","[1,1,1]","[0.15767454644752657,-0.009458100402285332]","[1,1,1]","[-0.05244291324484285,-0.09645138161233159]","[1,1,1]","[-0.19063122639946722,-0.0012472150631464619]","[1,1,1]","[0.14792742147076068,0.0710729978950301]","[-1,-1,-1]","[-0.022879710095846238,0.062268962464668724]","[1,1,1]","[0.048731135744282894,0.1229646846869702]","[1,1,1]","[-0.0243576920350041,-0.17019909156037416]","[-1,-1,-1]","[0.11367891979599028,0.1401575746877865]","[1,1,1]","[0.05429273299401145,0.07987233995566526]","[1,1,1]","[0.060892428811241885,-0.10251364131740374]","[-1,-1,-1]","[-0.1406930975307472,-0.05361664262916791]","[-1,-1,-1]","[-0.04042004831573185,0.1792350390078049]","[-1,-1,-1]","[-0.09983105261856166,-0.06628780537727884]","[-1,-1,-1]","[-0.1375092240170293,0.011798986439199547]","[1,1,1]","[-0.14894163576575023,-0.11171380942150168]","[1,1,1]","[0.1392706095540291,-0.13215138420471245]","[-1,-1,-1]","[0.04114693862444747,0.17706722916863132]","[-1,-1,-1]","[0.06950245152964495,-0.1528280437181759]","[1,1,1]","[-0.13538991837213665,0.09154852905504496]","[1,1,1]","[0.04709775978533779,0.01312012781213133]","[-1,-1,-1]","[0.11903964719544852,0.03640281614246865]","[1,1,1]","[0.016994647599850535,0.048912083969411206]","[1,1,1]","[-0.18322766243955227,0.06994297433367938]","[-1,-1,-1]","[0.059988178080108215,-0.04498229293893078]","[1,1,1]","[-0.08220371378821882,-0.15330712420065326]","[-1,-1,-1]","[-0.10051749609907114,0.11563358855869806]","[1,1,1]","[0.0351517640897736,-0.1870918112368619]","[-1,-1,-1]","[0.12314024490787497,-0.046709461003651205]","[-1,-1,-1]","[0.004102547151355887,0.14023099612859824]","[1,1,1]","[0.011552554992280513,-0.048365650034071624]","[1,1,1]","[0.15129943018008638,-0.08928445285787487]","[1,1,1]","[0.02,0.02]",94.4092,0,7,7,159,1,,,,,,,
,,,,,,,5ff782ca9927434579cbb764,682db45e33295b87f6a446bf,2025-05-21_12h09.31.388,cuing_paradigm_dot,2024.1.5,Win32,59.52380952,682d556593cb38ad0a074487,,,,,,,,,,,94.4093,94.9091,,,95.1592,95.4926,right,,,,,,,,0.9,0.3004,,,,,,,94.9091,95.1592,95.4926,"[0.085653033780866,0.08584488821226897]","[1,1,1]","[0.12475512666387474,0.0259687573546279]","[1,1,1]","[-0.03594711796500419,0.1597953902513021]","[1,1,1]","[0.06262100523335674,-0.019961785847916382]","[1,1,1]","[-0.15391143971531265,0.057759999661841324]","[1,1,1]","[0.01869371472292617,-0.17126540340982366]","[1,1,1]","[0.17290632107083506,0.06089813136010903]","[1,1,1]","[-0.006727284252819393,-0.08691988194345217]","[1,1,1]","[0.03891712501531697,-0.07334086021092322]","[-1,-1,-1]","[0.13639082208664627,-0.0743315600768382]","[1,1,1]","[-0.064031476304565,0.123081794557797]","[1,1,1]","[0.07470765944397935,0.15059654389267005]","[1,1,1]","[-0.0869308455085914,-0.06935567106687437]","[1,1,1]","[-0.1268625850364423,-0.1501079433889484]","[1,1,1]","[-0.17502281499136507,0.010292391780923262]","[1,1,1]","[0.18182855141010115,-0.02575916800197762]","[1,1,1]","[-0.12536922765407307,-0.01032724761854617]","[-1,-1,-1]","[-0.16386053095556663,-0.08461514541594517]","[1,1,1]","[0.06874810489067744,-0.11137063830654262]","[1,1,1]","[0.0005106669512623444,0.061728566666365295]","[1,1,1]","[-0.009505770230077397,-0.001934830067599922]","[-1,-1,-1]","[0.01283774454786066,0.14121510037248886]","[1,1,1]","[-0.12288748377479904,0.13494470908834916]","[1,1,1]","[-0.10071289025039577,0.029793829061395626]","[1,1,1]","[-0.05130472375002056,0.005987013345329584]","[1,1,1]","[0.0025160835267899534,0.18264184836369718]","[1,1,1]","[-0.11751272405853909,0.08632305359590878]","[1,1,1]","[-0.03692527131052373,-0.05874124557404916]","[1,1,1]","[0.13269996459942465,-0.026729424114044106]","[1,1,1]","[0.07715993484593023,0.024722712160762963]","[1,1,1]","[-0.03928428631662139,-0.14332494381669303]","[1,1,1]","[0.10410292040871931,-0.15151762169635413]","[1,1,1]","[0.02,0.02]",96.5925,0,8,8,194,1,,,,,,,
,,,,,,,5ff782ca9927434579cbb764,682db45e33295b87f6a446bf,2025-05-21_12h09.31.388,cuing_paradigm_dot,2024.1.5,Win32,59.52380952,682d556593cb38ad0a074487,,,,,,,,,,,96.5926,97.0925,,,97.3425,97.7092,left,,,,,,,,0.6,0.3378,,,,,,,97.0925,97.3425,97.7092,"[-0.05154154602114684,0.05071465209220315]","[-1,-1,-1]","[-0.0641626244018989,-0.009596667710132819]","[1,1,1]","[0.059920227102768654,0.14340878536074197]","[-1,-1,-1]","[0.11245659227458137,0.1445382527184984]","[-1,-1,-1]","[-0.1629062709529351,-0.049603957815739425]","[1,1,1]","[0.07077006322966158,0.0037696383198460486]","[1,1,1]","[-0.06194217328749672,0.11550699651779976]","[1,1,1]","[-0.10509292487404263,0.02661152445816757]","[1,1,1]","[0.12908611118241792,0.0774580071209699]","[1,1,1]","[0.13216061161781992,-0.011138738916029003]","[-1,-1,-1]","[0.1924973469823755,0.03901008471402576]","[1,1,1]","[0.05184407818031352,-0.11602988422916441]","[1,1,1]","[-0.16045233106581971,0.10379157192694154]","[-1,-1,-1]","[-0.03393040535485703,0.18931952324881954]","[1,1,1]","[0.005796928540118612,0.1613293176515086]","[1,1,1]","[0.02628774070917906,0.10812359882938487]","[-1,-1,-1]","[-0.05665028711768832,-0.16494069388695284]","[1,1,1]","[0.06514391978364027,-0.1692153868189625]","[1,1,1]","[-0.1497277448343485,0.024675432487612187]","[-1,-1,-1]","[-0.1342580061132315,-0.1382783596978648]","[-1,-1,-1]","[-0.10574986633922757,-0.03194275369859691]","[1,1,1]","[-0.1911613579888319,0.044525829202075096]","[1,1,1]","[0.013544573706000828,-0.14933417339699145]","[1,1,1]","[-0.08431230432395141,0.0783238067838376]","[-1,-1,-1]","[0.08889213395005467,-0.09090706827597762]","[-1,-1,-1]","[-0.044157633600201925,-0.044758417104029204]","[1,1,1]","[0.011955473673116697,-0.011767077447059756]","[-1,-1,-1]","[0.04067304125546278,-0.06357982039500315]","[1,1,1]","[0.14576252374460827,-0.10380791717022309]","[-1,-1,-1]","[0.06546630029385365,0.04612125488171622]","[-1,-1,-1]","[-0.19110965567967472,-0.0061618190911901195]","[1,1,1]","[0.005845024930449087,-0.1950243229488092]","[1,1,1]","[0.02,0.02]",98.8091,0,9,9,169,1,,,,,,,
,,,,,,,5ff782ca9927434579cbb764,682db45e33295b87f6a446bf,2025-05-21_12h09.31.388,cuing_paradigm_dot,2024.1.5,Win32,59.52380952,682d556593cb38ad0a074487,,,,,,,,,,,98.8093,99.3091,,,99.5592,99.9425,left,,,,,,,,0.1,0.3623,,,,,,,99.3091,99.5592,99.9425,"[0.05584199681082783,0.15312766119829924]","[-1,-1,-1]","[0.17276728551692186,0.08680676585423526]","[1,1,1]","[-0.12314209067424393,-0.08658208663023602]","[-1,-1,-1]","[-0.042715505229705776,0.07268552692593322]","[-1,-1,-1]","[-0.10774363213408678,0.1246030232214814]","[1,1,1]","[0.13949105741168555,-0.04035209310416635]","[-1,-1,-1]","[-0.04235551910370328,0.17392011666047882]","[-1,-1,-1]","[-0.059566349882056044,-0.04384111289707344]","[-1,-1,-1]","[0.05037164011713294,0.08998540368326265]","[-1,-1,-1]","[-0.01651707190665596,-0.10345859714892328]","[-1,-1,-1]","[-0.07784517117650101,0.016493480025229757]","[-1,-1,-1]","[-0.15381535838523414,0.050674485956323526]","[-1,-1,-1]","[-0.07277489333778034,-0.13416871919238726]","[-1,-1,-1]","[0.014487338942861814,-0.18937356363758956]","[-1,-1,-1]","[-0.1445388920056468,-0.019669966707272668]","[-1,-1,-1]","[-0.02706752504057144,-0.16360088565931527]","[-1,-1,-1]","[-0.17618373120268993,0.005265613896518172]","[-1,-1,-1]","[-0.03662331822410016,-0.006674474801903111]","[-1,-1,-1]","[0.15187168971627746,0.04022470647972212]","[-1,-1,-1]","[0.0019234729091263702,0.05190937579299213]","[-1,-1,-1]","[-0.15232653348909775,0.10952675973613561]","[-1,-1,-1]","[0.10739149862538488,-0.16548537315838321]","[-1,-1,-1]","[0.051513528882102054,-0.08985190893193096]","[-1,-1,-1]","[0.09214101698252596,0.10152425722262556]","[-1,-1,-1]","[0.01630880513611212,0.11966536381008626]","[-1,-1,-1]","[-0.08432767752507116,0.08380422727768004]","[-1,-1,-1]","[0.19192965286996103,0.00960854247841086]","[1,1,1]","[0.10372067121534284,-0.00402364772233732]","[-1,-1,-1]","[0.10404433114690541,-0.06020984414993925]","[-1,-1,-1]","[-0.0267763439095981,0.12194530693091458]","[-1,-1,-1]","[-0.12713774194912553,-0.14196698549903353]","[-1,-1,-1]","[0.018814938963941333,-0.12977662402586232]","[-1,-1,-1]","[0.02,0.02]",101.0424,0,10,10,12,1,,,,,,,
,,,,,,,5ff782ca9927434579cbb764,682db45e33295b87f6a446bf,2025-05-21_12h09.31.388,cuing_paradigm_dot,2024.1.5,Win32,59.52380952,682d556593cb38ad0a074487,,,,,,,,,,,101.0426,101.5425,,,101.7926,102.2091,left,,,,,,,,0.5,0.3929,,,,,,,101.5425,101.7926,102.2092,"[-0.112708801837877,0.030026580073149484]","[1,1,1]","[-0.03868194637022172,-0.12535251345083867]","[1,1,1]","[-0.15655948118889954,0.08071963594802599]","[-1,-1,-1]","[0.035905114022225855,-0.07609945825505657]","[-1,-1,-1]","[-0.03145838850011777,-0.03609818393685812]","[1,1,1]","[0.0016188298678099962,-0.0002942579486616265]","[-1,-1,-1]","[0.12481460875853187,0.01171363941997364]","[-1,-1,-1]","[0.13508124713506262,-0.14150877899807063]","[1,1,1]","[0.07939094043550028,0.09161309296393248]","[1,1,1]","[0.17314256644276788,-0.08672284988277994]","[1,1,1]","[-0.01827030217645364,0.11411620032869281]","[-1,-1,-1]","[0.12337800168449806,0.1557298219410029]","[1,1,1]","[-0.06990616681172634,0.03232448573671298]","[1,1,1]","[-0.03955099129571903,0.16038980100240768]","[-1,-1,-1]","[0.012559687592518357,-0.1126059164956003]","[-1,-1,-1]","[0.05522033733035113,0.16143711064457264]","[1,1,1]","[-0.10431943414940956,-0.10597309004896403]","[-1,-1,-1]","[-0.05932776690984077,-0.1662758259136592]","[-1,-1,-1]","[0.0979022555925329,-0.09129726953201531]","[1,1,1]","[0.07955103127085918,-0.032462594122511235]","[-1,-1,-1]","[0.13706779912961603,0.09109242413884892]","[1,1,1]","[-0.012259769880730248,0.04647782578146812]","[1,1,1]","[0.08324660550216104,-0.13038630985225777]","[-1,-1,-1]","[0.07228532956357853,-0.18197571259837808]","[-1,-1,-1]","[-0.016918325526989724,-0.18284243088634666]","[-1,-1,-1]","[-0.09477262814431195,0.15131727232414147]","[1,1,1]","[-0.16095236776850166,-0.020672532382148175]","[1,1,1]","[0.05254753834613875,0.046241102935450445]","[-1,-1,-1]","[-0.16400255664270244,-0.08120586252527294]","[1,1,1]","[0.18775516054489022,0.0440778366701553]","[-1,-1,-1]","[-0.08938472420576549,-0.04713936944938874]","[1,1,1]","[0.17061580880462102,-0.019404787897631864]","[-1,-1,-1]","[0.02,0.02]",103.3091,0,11,11,94,1,,,,,,,
,,,,,,,5ff782ca9927434579cbb764,682db45e33295b87f6a446bf,2025-05-21_12h09.31.388,cuing_paradigm_dot,2024.1.5,Win32,59.52380952,682d556593cb38ad0a074487,,,,,,,,,,,103.3093,103.8091,,,104.0592,104.3591,right,,,,,,,,0.9,0.2784,,,,,,,103.8092,104.0592,104.3591,"[-0.02679254178137716,0.09685428267382074]","[1,1,1]","[-0.07053556422561845,0.10773760663476047]","[-1,-1,-1]","[-0.15688569886059409,0.029778168219715323]","[1,1,1]","[0.12541720203245832,-0.0520688606856202]","[1,1,1]","[0.11326030344423531,-0.10698386296770618]","[1,1,1]","[0.11431002039068884,0.011334781967342314]","[1,1,1]","[0.039958130813587095,-0.19088764973190647]","[1,1,1]","[-0.13357341624143904,-0.03866586556011476]","[1,1,1]","[-0.0579186633926194,-0.0477641871786171]","[1,1,1]","[0.16581844501761012,0.02991477899671661]","[1,1,1]","[0.046706658143621856,-0.10859800289197677]","[1,1,1]","[-0.11405228188507172,-0.12847879517608124]","[1,1,1]","[0.012305298917513396,0.028793688314892554]","[1,1,1]","[-0.01850783801126153,-0.03178279402338287]","[1,1,1]","[0.09850692286804393,0.06519864547247178]","[1,1,1]","[-0.05446158412883646,-0.11915437391228156]","[1,1,1]","[-0.12359622349506026,0.11226439701849959]","[1,1,1]","[0.05869296370962399,-0.0480222375614775]","[1,1,1]","[0.10571342121032355,0.14514184613167705]","[1,1,1]","[-0.04211092412988235,0.0008488475441854112]","[1,1,1]","[0.17834949742398198,-0.08458663277781765]","[1,1,1]","[-0.01729172757469205,-0.1941774913260347]","[1,1,1]","[-0.13017297301543476,-0.08109303537133922]","[1,1,1]","[0.04459010012739694,0.13562186583107372]","[1,1,1]","[-0.08627608379067062,0.01034696046401283]","[-1,-1,-1]","[0.028413391660935327,0.19392811600774532]","[1,1,1]","[-0.03224405298820066,0.1819698265026471]","[1,1,1]","[0.08288196331905821,-0.15045630202437607]","[-1,-1,-1]","[-0.061459739550862064,0.04558650985497457]","[1,1,1]","[-0.18153784488542574,-0.046010568753225116]","[1,1,1]","[-0.09485467713415528,0.1491252840121404]","[1,1,1]","[0.15307185493346961,0.11399902062660454]","[1,1,1]","[0.02,0.02]",105.459,0,12,12,203,1,,,,,,,
,,,,,,,5ff782ca9927434579cbb764,682db45e33295b87f6a446bf,2025-05-21_12h09.31.388,cuing_paradigm_dot,2024.1.5,Win32,59.52380952,682d556593cb38ad0a074487,,,,,,,,,,,105.4593,105.9592,,,106.2092,106.5091,left,,,,,,,,0.1,0.2723,,,,,,,105.9592,106.2092,106.5091,"[-0.07845031722556091,-0.02460126416441756]","[-1,-1,-1]","[-0.11691947984072269,-0.12577802324406614]","[-1,-1,-1]","[0.05378198184366892,0.17380155909237455]","[-1,-1,-1]","[0.04392697267814749,-0.07679795752941423]","[-1,-1,-1]","[0.11221153757112025,-0.1409281886644783]","[-1,-1,-1]","[-0.16643515159085479,0.07355507362155773]","[-1,-1,-1]","[0.09752754395659366,-0.10226595425395735]","[-1,-1,-1]","[-0.0259333554149278,-0.18299384414182507]","[-1,-1,-1]","[-0.08915417720309245,0.13678962991925725]","[-1,-1,-1]","[0.037581338601854336,0.05063637537434788]","[1,1,1]","[-0.15564436093429757,-0.005529402434793005]","[-1,-1,-1]","[0.03324644799680287,0.12956980100229196]","[-1,-1,-1]","[0.179488851831723,0.06532297305459923]","[-1,-1,-1]","[-0.07001030954884513,-0.16094664389686036]","[-1,-1,-1]","[0.15099609039263465,-0.058547282420823646]","[-1,-1,-1]","[0.17580393401934183,0.01201098026135404]","[-1,-1,-1]","[-0.04427744301962954,-0.05151905832293091]","[-1,-1,-1]","[0.10574514253513498,0.10306925487319143]","[-1,-1,-1]","[-0.004702863085714567,0.05348519213982481]","[-1,-1,-1]","[-0.05216620757302576,-0.11196048309778216]","[-1,-1,-1]","[-0.04167267103426352,0.17943429449767498]","[-1,-1,-1]","[-0.042179544265950025,0.12395144055009083]","[-1,-1,-1]","[0.13299383859884165,0.026000768657569607]","[-1,-1,-1]","[-0.11270055492944063,-0.07228291456495181]","[-1,-1,-1]","[-0.06423517786122013,0.08402745398880702]","[-1,-1,-1]","[0.04717952089066512,-0.022201184592099302]","[-1,-1,-1]","[0.0045892320892062435,-0.045113591226474604]","[-1,-1,-1]","[0.006735566484617092,0.18528760434429722]","[-1,-1,-1]","[-0.00010921635713017978,-0.0034774424233010616]","[-1,-1,-1]","[-0.19346546156439337,0.02316320799723722]","[-1,-1,-1]","[-0.10161649370931897,0.02870854163990307]","[1,1,1]","[0.1047653204273618,-0.007313973275136277]","[1,1,1]","[0.02,0.02]",107.6091,0,13,13,22,1,,,,,,,
,,,,,,,5ff782ca9927434579cbb764,682db45e33295b87f6a446bf,2025-05-21_12h09.31.388,cuing_paradigm_dot,2024.1.5,Win32,59.52380952,682d556593cb38ad0a074487,,,,,,,,,,,107.6092,108.1091,,,108.3592,108.9258,left,,,,,,,,0.4,0.5463,,,,,,,108.1091,108.3592,108.9258,"[0.07717228908273858,-0.10209828578843345]","[1,1,1]","[-0.0034665986852209585,-0.11083570884292035]","[1,1,1]","[-0.13862311293051452,0.13962263285708482]","[-1,-1,-1]","[-0.08467426561483637,0.13077186625556156]","[1,1,1]","[-0.1695789469620471,0.000955360334959447]","[-1,-1,-1]","[0.022462037296671775,-0.0747652039660493]","[-1,-1,-1]","[-0.14415978472783594,-0.13090046620653514]","[-1,-1,-1]","[-0.04864624938321272,0.06562413348811628]","[-1,-1,-1]","[0.16601754932055449,-0.06984179270235676]","[1,1,1]","[0.028962312183403505,0.08359851508121771]","[1,1,1]","[-0.16087618676962906,0.07745060425982184]","[-1,-1,-1]","[0.17639703641236376,0.01908226441485897]","[-1,-1,-1]","[-0.08904719882554188,-0.12899477324351902]","[-1,-1,-1]","[0.05638557124809036,0.025577806376869912]","[-1,-1,-1]","[0.12344406228615203,-0.13380511504495082]","[-1,-1,-1]","[-0.0942327376023218,0.041674983976254854]","[1,1,1]","[-0.19519092274009822,-0.03709147622676336]","[-1,-1,-1]","[-0.06630018726668489,-0.16798847280342533]","[1,1,1]","[-0.1159505309084029,-0.1599322315798342]","[-1,-1,-1]","[0.04562040445457636,0.1336944109154704]","[-1,-1,-1]","[0.15017615442441287,0.11002596196577417]","[1,1,1]","[-0.007710557833771512,-0.15586632335250203]","[-1,-1,-1]","[-0.014401087825403306,0.1510573724951736]","[-1,-1,-1]","[-0.0627733176851777,-0.035004107246654044]","[-1,-1,-1]","[-0.005373070210527771,0.047824801330611226]","[1,1,1]","[-0.018440439542354827,0.004942381925609447]","[-1,-1,-1]","[0.09781266588834611,0.005239311570498555]","[1,1,1]","[0.08387956982154736,0.1781679270110519]","[-1,-1,-1]","[0.11032339335083287,-0.0614206882154719]","[-1,-1,-1]","[-0.11292494659955753,-0.07062771053722997]","[1,1,1]","[0.12233427270708885,0.046165754821451306]","[1,1,1]","[0.06644026482036967,-0.16050287841272803]","[1,1,1]","[0.02,0.02]",110.0258,0,14,14,45,1,,,,,,,
,,,,,,,5ff782ca9927434579cbb764,682db45e33295b87f6a446bf,2025-05-21_12h09.31.388,cuing_paradigm_dot,2024.1.5,Win32,59.52380952,682d556593cb38ad0a074487,,,,,,,,,,,110.0259,110.5257,,,110.7758,111.0924,right,,,,,,,,0.6,0.2899,,,,,,,110.5257,110.7758,111.0924,"[0.048571932042880024,0.12862130579274345]","[-1,-1,-1]","[-0.0939827708098427,0.14069511718136538]","[1,1,1]","[0.054131992577102224,-0.17953721501557382]","[-1,-1,-1]","[-0.08308358779618286,0.06266229688216593]","[-1,-1,-1]","[-0.028809766784911654,-0.08113003767974675]","[-1,-1,-1]","[-0.05026101172565965,-0.15963569831947172]","[-1,-1,-1]","[0.09887185678027183,-0.015221866036301048]","[1,1,1]","[0.10007721828362262,-0.11670792498774166]","[1,1,1]","[0.022616730138810652,0.17818541912937794]","[1,1,1]","[-0.10963868446193481,0.0975047489624684]","[-1,-1,-1]","[0.10481643298119225,0.1516904651843205]","[1,1,1]","[-0.01687661254120686,0.07385937095156504]","[1,1,1]","[-0.151786140173776,-0.12423547272001413]","[1,1,1]","[-0.05086983247782532,-0.042840379144376245]","[1,1,1]","[-0.1145180681932259,-0.15844711573249531]","[1,1,1]","[0.026864249482161994,-0.09612118891760947]","[-1,-1,-1]","[-0.027201551055806277,0.011458194131267443]","[1,1,1]","[-0.15866840261034937,0.05497421870015982]","[1,1,1]","[-0.09423576726970362,-0.021291342295580776]","[-1,-1,-1]","[0.1691339613050267,-0.042455158672502435]","[-1,-1,-1]","[-0.008667208338263916,-0.185721988556687]","[1,1,1]","[0.18630427545054748,0.021931849174633585]","[1,1,1]","[-0.05818026951673019,0.16496558501843403]","[-1,-1,-1]","[0.13758520619592593,-0.0843366603377496]","[1,1,1]","[0.177274519256876,0.07060493078377945]","[1,1,1]","[0.14855425998342478,0.04108596253158968]","[1,1,1]","[-0.12454294141918067,-0.06185674081432842]","[-1,-1,-1]","[-0.07222732370650915,-0.09767737526432811]","[-1,-1,-1]","[-0.18529989431530183,0.0022286018612219863]","[1,1,1]","[0.026509146733281776,0.06990186665458545]","[-1,-1,-1]","[0.10433750994174872,-0.0567367383544796]","[1,1,1]","[0.1148753455881478,0.08874592192066019]","[1,1,1]","[0.02,0.02]",112.1924,0,15,15,154,1,,,,,,,
,,,,,,,5ff782ca9927434579cbb764,682db45e33295b87f6a446bf,2025-05-21_12h09.31.388,cuing_paradigm_dot,2024.1.5,Win32,59.52380952,682d556593cb38ad0a074487,,,,,,,,,,,112.1925,112.6924,,,112.9425,113.4925,left,,,,,,,,0.45,0.5233,,,,,,,112.6924,112.9425,113.4925,"[-0.16111047935640974,-0.09079841880610985]","[-1,-1,-1]","[0.060233851427127984,-0.06405368820117781]","[-1,-1,-1]","[0.060974216981301406,-0.10940720900140119]","[-1,-1,-1]","[-0.003015709997452252,0.09511135399998952]","[-1,-1,-1]","[-0.03738114087178438,-0.08598844325109893]","[-1,-1,-1]","[-0.09772374676781949,-0.09570953359575131]","[1,1,1]","[-0.14461200302697907,-0.13769401353485297]","[1,1,1]","[0.07851617399756425,-0.006426122623723532]","[-1,-1,-1]","[0.0695314479529647,0.059363802136987144]","[-1,-1,-1]","[0.07489572698502818,0.12265958439912218]","[-1,-1,-1]","[-0.02434148314688184,-0.028487246583391714]","[1,1,1]","[-0.024080820547981076,0.18192052257291888]","[1,1,1]","[-0.1416655233010397,0.1403428329370095]","[-1,-1,-1]","[-0.10099431261633794,-0.14975889978649212]","[1,1,1]","[-0.19069365400322263,-0.030967615737744664]","[-1,-1,-1]","[-0.04727770694964461,0.10968596038915808]","[1,1,1]","[-0.03316558864528948,-0.12963244498416665]","[1,1,1]","[-0.03785176810277778,0.05827922853349235]","[-1,-1,-1]","[-0.18037618199924782,0.05499219440470397]","[1,1,1]","[0.030903835596605783,0.13625221573179058]","[-1,-1,-1]","[0.10320530645469243,0.08773434965643824]","[-1,-1,-1]","[0.17714330671506026,-0.0477679317493459]","[-1,-1,-1]","[-0.08327476930461405,0.06582445923400433]","[-1,-1,-1]","[0.10135705736566426,0.02981136846439567]","[-1,-1,-1]","[0.13569130793031278,0.004808154440997506]","[-1,-1,-1]","[0.031508836986832725,0.0721730074247701]","[1,1,1]","[-0.11662985377801481,-0.019902780869793024]","[1,1,1]","[-0.014226104684544447,0.13372218740108952]","[1,1,1]","[0.15030151442291062,0.0634274112410783]","[1,1,1]","[0.12930266078065356,-0.072183660604556]","[-1,-1,-1]","[0.09629399408762207,0.17099966858086327]","[1,1,1]","[-0.08075478663022016,0.17687985393070077]","[1,1,1]","[0.02,0.02]",114.5924,0,16,16,78,1,,,,,,,
,,,,,,,5ff782ca9927434579cbb764,682db45e33295b87f6a446bf,2025-05-21_12h09.31.388,cuing_paradigm_dot,2024.1.5,Win32,59.52380952,682d556593cb38ad0a074487,,,,,,,,,,,114.5926,115.0924,,,115.3424,115.7091,left,,,,,,,,0.4,0.3394,,,,,,,115.0924,115.3424,115.7091,"[-0.11344673842053758,-0.16068881507302218]","[1,1,1]","[0.09922774158951612,-0.15107351326035945]","[1,1,1]","[-0.045638642815175844,0.05301202345575821]","[-1,-1,-1]","[0.164775185789666,-0.07041469808599923]","[-1,-1,-1]","[-0.017335993049291485,-0.1626369549654302]","[-1,-1,-1]","[0.032634759491958015,0.1674024139066643]","[-1,-1,-1]","[-0.006125401293511153,0.1148773810745305]","[-1,-1,-1]","[-0.18120536218531164,-0.01313155241501075]","[-1,-1,-1]","[0.13600407374659598,-0.10670182619950473]","[1,1,1]","[0.108948438724565,0.05397743168413056]","[1,1,1]","[0.0012240872582901803,-0.01759737115293315]","[-1,-1,-1]","[0.0626465922402815,-0.09901243211174035]","[1,1,1]","[0.04274332677273929,-0.1600460125110531]","[-1,-1,-1]","[0.061250877634983145,0.12290681918870044]","[-1,-1,-1]","[-0.10587499711702932,0.011465468437191127]","[-1,-1,-1]","[-0.1614564244157933,0.027055090610396553]","[-1,-1,-1]","[0.0223018370981074,0.07399658681254062]","[-1,-1,-1]","[0.040101092424668215,0.003909045750423948]","[1,1,1]","[0.10287266804609864,-0.0584645085720619]","[-1,-1,-1]","[0.07461625402321843,0.02440000964670271]","[1,1,1]","[-0.13163295326326777,-0.0747256227994461]","[-1,-1,-1]","[-0.024320879656523946,-0.09887003603668916]","[-1,-1,-1]","[-0.0638121527569484,-0.10897674421310917]","[1,1,1]","[-0.07146602804034888,0.1859615039222982]","[1,1,1]","[-0.14511819885145127,0.1276318399012975]","[1,1,1]","[-0.0655239726352702,0.09906016490540673]","[-1,-1,-1]","[0.13372330355991932,0.12008764010512973]","[1,1,1]","[-0.009823403367703836,0.17648667211435778]","[-1,-1,-1]","[-0.17458177185381446,-0.06711779683521187]","[1,1,1]","[0.13370483094947722,0.011594839182891361]","[-1,-1,-1]","[-0.0884876010959721,0.04945106259376251]","[-1,-1,-1]","[0.16152769970094003,0.04915243145002299]","[1,1,1]","[0.02,0.02]",116.809,0,17,17,48,1,,,,,,,
,,,,,,,5ff782ca9927434579cbb764,682db45e33295b87f6a446bf,2025-05-21_12h09.31.388,cuing_paradigm_dot,2024.1.5,Win32,59.52380952,682d556593cb38ad0a074487,,,,,,,,,,,116.8092,117.309,,,117.5591,118.0424,right,,,,,,,,0.55,0.4586,,,,,,,117.309,117.5591,118.0424,"[-0.16022509907422594,0.03745726577276803]","[-1,-1,-1]","[-0.10963691277643187,-0.12815141623708526]","[1,1,1]","[0.12460802158292779,-0.07686342060576244]","[-1,-1,-1]","[0.16257282380985563,-0.02900188093954162]","[1,1,1]","[0.12051298308844952,0.06930693813454353]","[1,1,1]","[-0.1841208518338759,-0.029412092399534955]","[-1,-1,-1]","[-0.11918188130547254,0.06884620682502378]","[-1,-1,-1]","[-0.12378385111755606,-0.05508113148416719]","[1,1,1]","[0.06006909454413647,0.09723481271448728]","[1,1,1]","[-0.08440870854297698,0.1778483380061123]","[1,1,1]","[-0.1413282737336877,0.11543365316563055]","[-1,-1,-1]","[-0.012081456003256209,-0.10091246022637866]","[1,1,1]","[0.025010310998208052,-0.08560648628432793]","[1,1,1]","[-0.01960959797451645,0.10702749836999252]","[1,1,1]","[-0.06546214422753434,-0.12136809852926045]","[1,1,1]","[0.08094746705302933,-0.03458359604871494]","[-1,-1,-1]","[0.0832374425307196,0.1372969315022247]","[-1,-1,-1]","[0.1263771530914865,0.15042648213587362]","[1,1,1]","[0.03265799403067914,-0.1848393376945945]","[-1,-1,-1]","[0.12300688110013924,-0.019884857058235873]","[-1,-1,-1]","[0.04240777894150815,0.016841318808235833]","[1,1,1]","[0.044177217123603986,0.17006972671925188]","[-1,-1,-1]","[0.07014087082434378,-0.16743793208284782]","[1,1,1]","[0.020172069952097332,-0.1433937435303744]","[-1,-1,-1]","[-0.010702720373109957,-0.17480661452106966]","[1,1,1]","[-0.062281241634134205,-0.028674292105490808]","[-1,-1,-1]","[0.06859933474332838,-0.10478161293623103]","[1,1,1]","[0.1309456320904748,0.024517151290539503]","[1,1,1]","[-0.12649463659966614,-0.014833766116163886]","[1,1,1]","[0.028905919499628646,-0.031887039930238226]","[1,1,1]","[-0.05801604210672817,0.13941601123823477]","[-1,-1,-1]","[-0.15967829759074037,-0.1087325150798636]","[-1,-1,-1]","[0.02,0.02]",119.1423,0,18,18,139,1,,,,,,,
,,,,,,,5ff782ca9927434579cbb764,682db45e33295b87f6a446bf,2025-05-21_12h09.31.388,cuing_paradigm_dot,2024.1.5,Win32,59.52380952,682d556593cb38ad0a074487,,,,,,,,,,,119.1425,119.6423,,,119.8924,120.2423,right,,,,,,,,0.9,0.3174,,,,,,,119.6423,119.8924,120.2424,"[0.07466749371994454,0.09037492676909803]","[1,1,1]","[0.09558903813178384,0.13737458817060014]","[1,1,1]","[0.11046603486421248,-0.07410526045738905]","[1,1,1]","[-0.15721501547868555,0.03131140551672524]","[1,1,1]","[-0.1382864771750768,-0.03727999860683299]","[1,1,1]","[-0.05387389196007888,0.022673975169469562]","[1,1,1]","[0.1104627566730476,0.0030649216605966364]","[1,1,1]","[0.06046975573882412,-0.09048946981381126]","[1,1,1]","[0.1775565301284193,-0.06418020730574509]","[1,1,1]","[-0.09959540101312511,0.13027857262497378]","[-1,-1,-1]","[-0.05419258730876712,0.07945095134902785]","[1,1,1]","[-0.008630741015075105,-0.10815815295690755]","[1,1,1]","[-0.05384266235612272,0.18713089386522028]","[1,1,1]","[0.15306520246776714,-0.10169893216030935]","[1,1,1]","[-0.06294146703753681,-0.047404617131723774]","[1,1,1]","[-0.10765796682034288,0.02137295573273339]","[1,1,1]","[0.1092586345925147,0.047280706331498785]","[1,1,1]","[0.013707367213918567,-0.047454581426539695]","[1,1,1]","[0.1602643319513012,0.08163312686838747]","[1,1,1]","[-0.08750863218024121,-0.16774055125999607]","[1,1,1]","[0.0496015784270064,-0.143656991974082]","[1,1,1]","[0.152663648634207,0.03862891305250671]","[-1,-1,-1]","[-0.15652719432164602,0.10980670715756664]","[1,1,1]","[0.032219984514429874,0.15685755279300767]","[1,1,1]","[-0.13607399099867948,0.06733581583944996]","[1,1,1]","[-0.021568299939098617,0.16164294274435048]","[1,1,1]","[0.06946143387508683,0.015996614673676846]","[1,1,1]","[-0.1385198776319715,-0.13672959057995757]","[1,1,1]","[0.024764115116822423,0.0888151343533806]","[1,1,1]","[-0.08413167891444223,-0.11201529653474508]","[1,1,1]","[0.18736593738518853,0.000970744809284148]","[-1,-1,-1]","[-0.10865449921550842,-0.07087343706023869]","[1,1,1]","[0.02,0.02]",121.3424,0,19,19,202,1,,,,,,,
,,,,,,,5ff782ca9927434579cbb764,682db45e33295b87f6a446bf,2025-05-21_12h09.31.388,cuing_paradigm_dot,2024.1.5,Win32,59.52380952,682d556593cb38ad0a074487,,,,,,,,,,,121.3424,121.8423,,,122.0923,122.4757,left,,,,,,,,0.45,0.3573,,,,,,,121.8423,122.0923,122.4757,"[0.04833072795900372,-0.19028627761151348]","[1,1,1]","[-0.05559454297382168,-0.058328776500360134]","[-1,-1,-1]","[-0.08816320485273599,-0.15632165887927968]","[1,1,1]","[-0.11060497046868888,0.14473875730401703]","[1,1,1]","[-0.13972164082217195,0.0706772974708056]","[1,1,1]","[-0.0314867659093032,-0.10996641307940769]","[-1,-1,-1]","[0.11667764808875179,-0.12448969795255095]","[-1,-1,-1]","[0.07747332512925119,0.06352552813545934]","[1,1,1]","[0.12605181210454305,-0.06357338939821724]","[1,1,1]","[-0.16263710242906593,-0.008065288041910194]","[-1,-1,-1]","[0.024739703741408846,0.13038181996126222]","[-1,-1,-1]","[0.18261786313176848,-0.04451014598097016]","[-1,-1,-1]","[-0.10553036764817549,-0.09981362168484262]","[-1,-1,-1]","[-0.017045873572406358,-0.1541036708357916]","[-1,-1,-1]","[0.08423308664747463,0.0165052475377114]","[1,1,1]","[-0.03443485054668925,0.07447335490292754]","[1,1,1]","[-0.19426785653167797,0.040362276789657155]","[-1,-1,-1]","[0.06598042103020582,-0.14752203552352558]","[-1,-1,-1]","[0.16768746556576355,0.02075717833691682]","[1,1,1]","[-0.08577077944997,0.06272868108618875]","[-1,-1,-1]","[-0.030370900751019364,-0.020397381865075247]","[-1,-1,-1]","[0.055093641956993185,-0.01760628300894665]","[1,1,1]","[0.05027050944628875,0.09312762086779323]","[-1,-1,-1]","[-0.017995226256076625,-0.19880141865196732]","[-1,-1,-1]","[0.0940005142509187,0.15868613548132834]","[-1,-1,-1]","[-0.036209081568488996,0.11813057755876051]","[-1,-1,-1]","[0.15425183798563258,0.10756511309760357]","[-1,-1,-1]","[-0.026660909626741575,0.17636833632112153]","[1,1,1]","[-0.16974366096198001,-0.07140309916317733]","[1,1,1]","[0.011670819762001038,-0.07631932902329977]","[1,1,1]","[-0.11784567264722359,-0.014179394877058582]","[1,1,1]","[-0.14736966473296453,-0.12506619454128484]","[-1,-1,-1]","[0.02,0.02]",123.5757,0,20,20,61,1,,,,,,,
,,,,,,,5ff782ca9927434579cbb764,682db45e33295b87f6a446bf,2025-05-21_12h09.31.388,cuing_paradigm_dot,2024.1.5,Win32,59.52380952,682d556593cb38ad0a074487,,,,,,,,,,,123.5758,124.0756,,,124.3257,124.6423,right,,,,,,,,0.9,0.2922,,,,,,,124.0756,124.3257,124.6424,"[-0.12424388349256892,-0.07799038257627988]","[1,1,1]","[-0.0967633249064448,-0.14878319638211907]","[1,1,1]","[-0.024714108804802765,0.0024109744454481317]","[-1,-1,-1]","[-0.07492718828792116,0.08419389089868179]","[1,1,1]","[0.12736919423813067,0.05080055675576275]","[1,1,1]","[0.02398850642120932,0.055858117358228]","[1,1,1]","[-0.012372753834054673,0.08648977955994094]","[1,1,1]","[0.04133219644353418,-0.17013405493128445]","[1,1,1]","[-0.19519326493630915,0.016821374046107167]","[1,1,1]","[0.0874577073502037,0.004373045216012141]","[1,1,1]","[0.1193523498554829,-0.035158660957981244]","[1,1,1]","[0.07004495080977532,0.1282599668800104]","[1,1,1]","[-0.14774124956641974,0.1039348542275981]","[1,1,1]","[-0.10313425309745364,0.054045237841795796]","[-1,-1,-1]","[-0.044778210375425564,-0.10379075979293668]","[1,1,1]","[0.09034694246800924,-0.0671561984833555]","[1,1,1]","[-0.19471871119921727,-0.036712811398871774]","[1,1,1]","[0.16176204232650468,0.09440250197209664]","[1,1,1]","[0.047502198756029464,-0.054087165332852315]","[1,1,1]","[0.08316462625664525,0.17854129573803024]","[1,1,1]","[-0.002906487424699921,-0.12641271918904154]","[1,1,1]","[0.0783140137204602,0.04939755084362749]","[1,1,1]","[-0.08312973768651248,0.017391551864873435]","[1,1,1]","[0.050300131211192346,0.08766605419943051]","[1,1,1]","[0.1704103906468008,-0.07368938234609464]","[1,1,1]","[-0.029333556597399852,-0.045286294912123555]","[1,1,1]","[0.19185782333691484,-0.009753298178639413]","[-1,-1,-1]","[0.04404913311692743,-0.005493644605027941]","[1,1,1]","[0.11092284527371053,-0.10434944576975827]","[1,1,1]","[0.1215329005552462,0.13284481225384603]","[1,1,1]","[-0.026990024008242252,0.15878489391360529]","[1,1,1]","[0.053725850777577085,-0.11815874029424782]","[1,1,1]","[0.02,0.02]",125.7423,0,21,21,188,1,,,,,,,
,,,,,,,5ff782ca9927434579cbb764,682db45e33295b87f6a446bf,2025-05-21_12h09.31.388,cuing_paradigm_dot,2024.1.5,Win32,59.52380952,682d556593cb38ad0a074487,,,,,,,,,,,125.7424,126.2423,,,126.4924,126.8757,left,,,,,,,,0.45,0.3566,,,,,,,126.2423,126.4924,126.8757,"[-0.03569815168300732,0.12158981980252372]","[1,1,1]","[0.09631771263165365,-0.07563191895602658]","[-1,-1,-1]","[-0.12954894479184853,-0.10333920396583937]","[1,1,1]","[-0.141268977407296,-0.014342077316230372]","[1,1,1]","[-0.06387965430844889,0.06688142158724686]","[-1,-1,-1]","[-0.0045445543978032635,-0.1385560632835783]","[-1,-1,-1]","[-0.04742708130521145,-0.11306486021491934]","[-1,-1,-1]","[-0.01812007101523949,-0.0444512325211402]","[-1,-1,-1]","[0.05286863518347253,0.14245055924001235]","[1,1,1]","[-0.14124954343700266,0.1072625968259209]","[-1,-1,-1]","[0.09061559191333513,-0.035339970988853664]","[-1,-1,-1]","[0.15788560464360255,0.06896085232090095]","[-1,-1,-1]","[0.13081964312896152,-0.007636307137822442]","[-1,-1,-1]","[0.19375707619555327,-0.04534907775230882]","[-1,-1,-1]","[0.010954569708664735,-0.09211416233275431]","[1,1,1]","[0.05213955791894902,-0.12475699211174242]","[1,1,1]","[-0.13242053956031752,0.14817804283907232]","[1,1,1]","[0.0562143119841567,0.02030938190995374]","[1,1,1]","[-0.12070933014601909,-0.06241335698371381]","[-1,-1,-1]","[0.19714188681903166,0.01812068365828599]","[1,1,1]","[-0.13495973646712775,0.04104753978932709]","[-1,-1,-1]","[0.08305457117963168,0.11150068983518344]","[1,1,1]","[0.009647251148374498,0.0483300508758885]","[-1,-1,-1]","[0.06859516046935621,0.18183408866741443]","[1,1,1]","[-0.003357435136165256,0.0945898094073128]","[-1,-1,-1]","[0.14228640558547964,-0.10331583435854938]","[-1,-1,-1]","[0.12740973229529676,0.1468736000025438]","[-1,-1,-1]","[0.1163880739043351,0.07543734691885222]","[1,1,1]","[-0.08558113888508767,0.026267219835951476]","[1,1,1]","[-0.08970441347147623,0.16664270664977981]","[1,1,1]","[0.1474915624544742,0.11055408481551773]","[-1,-1,-1]","[0.02903433964664484,0.19067767002649658]","[-1,-1,-1]","[0.02,0.02]",127.9773,0,22,22,73,1,,,,,,,
,,,,,,,5ff782ca9927434579cbb764,682db45e33295b87f6a446bf,2025-05-21_12h09.31.388,cuing_paradigm_dot,2024.1.5,Win32,59.52380952,682d556593cb38ad0a074487,,,,,,,,,,,127.9774,128.4757,,,128.7257,129.4757,right,,,,,,,,0.45,0.7169,,,,,,,128.4757,128.7257,129.4757,"[-0.09834448726226641,0.041415361898431084]","[-1,-1,-1]","[-0.018892769926588903,0.1297288434298088]","[-1,-1,-1]","[-0.03568679868368909,-0.06622832174261642]","[1,1,1]","[0.04428640856712455,0.16641763587062808]","[1,1,1]","[0.030965484504659906,0.1278222787595332]","[1,1,1]","[0.0022689186160864227,-0.08927268432608694]","[-1,-1,-1]","[-0.029518620999510563,0.19667509232099797]","[-1,-1,-1]","[0.18590200862362521,0.01774860664923598]","[-1,-1,-1]","[-0.04457588244038515,-0.11750349392529365]","[1,1,1]","[-0.014531801747123667,0.05906441502109781]","[1,1,1]","[0.06430451569511483,-0.1131783054608446]","[-1,-1,-1]","[-0.16406943077828479,0.04857679093129238]","[1,1,1]","[0.1625975379985484,0.11421839401816362]","[1,1,1]","[-0.06076887517031227,0.0744337897180012]","[1,1,1]","[0.09097536622300974,0.12812097168252126]","[-1,-1,-1]","[0.1945242558879519,-0.03409258647033127]","[-1,-1,-1]","[0.07998675618016217,0.035726192128024685]","[-1,-1,-1]","[-0.08482402007813161,-0.1631673186321418]","[1,1,1]","[0.11876637076476827,-0.1344588312888445]","[1,1,1]","[0.023558753931026688,-0.14704739750470538]","[1,1,1]","[-0.1571473631937227,-0.015388991442538889]","[-1,-1,-1]","[-0.1147807939945875,-0.04457515176503416]","[1,1,1]","[-0.17240952933358117,-0.066452271777939]","[-1,-1,-1]","[-0.021159924119508927,0.006020860709239235]","[-1,-1,-1]","[-0.10921223462983906,0.1198675368216428]","[1,1,1]","[0.11412098757370812,0.0569195611303147]","[-1,-1,-1]","[0.13752321389553604,-0.04432391123542153]","[-1,-1,-1]","[0.06190671597064937,-0.047447028978554046]","[-1,-1,-1]","[0.062384966551329114,0.08679972900097287]","[-1,-1,-1]","[0.0793657320500683,-0.010637394815722066]","[-1,-1,-1]","[-0.08432728367460457,-0.11125994754865796]","[-1,-1,-1]","[0.15678763924807812,-0.11086147130482847]","[1,1,1]","[0.02,0.02]",130.5756,0,23,23,84,1,,,,,,,
,,,,,,,5ff782ca9927434579cbb764,682db45e33295b87f6a446bf,2025-05-21_12h09.31.388,cuing_paradigm_dot,2024.1.5,Win32,59.52380952,682d556593cb38ad0a074487,,,,,,,,,,,130.5757,131.0756,,,131.3257,131.9923,right,,,,,,,,0.45,0.6364,,,,,,,131.0756,131.3257,131.9924,"[0.16970938451235604,-0.04673695559268712]","[-1,-1,-1]","[-0.08525527147166245,0.1449795706343908]","[1,1,1]","[0.11598593767310496,0.10502701319694899]","[-1,-1,-1]","[-0.14832590079661456,-0.046304283959726744]","[1,1,1]","[-0.09621254928811468,-0.1398118914665107]","[1,1,1]","[0.07910506956463058,0.008178341453987655]","[-1,-1,-1]","[0.053816462326483114,0.14713264908049895]","[-1,-1,-1]","[0.14068235630120737,-0.00046894448266017274]","[-1,-1,-1]","[0.0010696334631546142,-0.17671614637487562]","[1,1,1]","[-0.010165011172587434,0.020971529991534347]","[1,1,1]","[-0.07579539487363468,-0.05550616232400179]","[1,1,1]","[0.17585627849214316,0.031173578040535735]","[-1,-1,-1]","[-0.08455400938903246,0.07615978033464815]","[1,1,1]","[-0.1497479963202089,0.07871641724985866]","[-1,-1,-1]","[-0.0895550655045937,0.02786832590293455]","[1,1,1]","[0.026232458175136933,0.06122953356162271]","[1,1,1]","[0.01445332679950279,0.1332069779734346]","[-1,-1,-1]","[0.08885014657445432,-0.09869118088242987]","[-1,-1,-1]","[0.02360829616096673,-0.1370393148270959]","[-1,-1,-1]","[0.1278568221164775,-0.06301927922755537]","[1,1,1]","[-0.1654891155606571,0.02430329967339484]","[-1,-1,-1]","[0.09391561253668368,0.05574668579841791]","[-1,-1,-1]","[-0.026861519588209915,0.15239415308182358]","[-1,-1,-1]","[0.0019230246890154829,-0.028341179610292]","[1,1,1]","[-0.1687433044154709,-0.09210900190335955]","[1,1,1]","[-0.037636493218946715,-0.08291189729305158]","[-1,-1,-1]","[0.14271133540841288,-0.12844332450733295]","[-1,-1,-1]","[0.05794230602906433,-0.1812148344170772]","[-1,-1,-1]","[-0.06356545043543098,-0.17362297596242848]","[1,1,1]","[-0.062202131282718384,-0.002941297304731071]","[1,1,1]","[0.04461961540971609,-0.05795111466002387]","[-1,-1,-1]","[-0.1220867812838909,-0.002093410029666215]","[-1,-1,-1]","[0.02,0.02]",133.0923,0,24,24,64,1,,,,,,,
,,,,,,,5ff782ca9927434579cbb764,682db45e33295b87f6a446bf,2025-05-21_12h09.31.388,cuing_paradigm_dot,2024.1.5,Win32,59.52380952,682d556593cb38ad0a074487,,,,,,,,,,,133.0925,133.5923,,,133.8423,134.3423,left,,,,,,,,0.4,0.4718,,,,,,,133.5923,133.8423,134.3423,"[0.057057572431009895,0.10821560007264756]","[-1,-1,-1]","[-0.17741206384941471,0.08043924624501639]","[-1,-1,-1]","[0.11540133119118387,-0.12663151964677147]","[1,1,1]","[0.07350354010319786,0.007043176078608725]","[-1,-1,-1]","[-0.05084361956063271,-0.06443813457630375]","[-1,-1,-1]","[0.18608911500965414,0.026745913021232633]","[-1,-1,-1]","[0.04531043110124561,-0.05589787509006016]","[1,1,1]","[-0.025332198744894882,-0.18534242187255273]","[1,1,1]","[0.14564418993462308,-0.07153927658472234]","[-1,-1,-1]","[-0.027111789807127504,0.17736318295690592]","[1,1,1]","[-0.129932065888788,0.03946002835106482]","[-1,-1,-1]","[-0.12319633324262315,-0.11181999989365494]","[-1,-1,-1]","[-0.06726953917275061,-0.1412236907770829]","[1,1,1]","[0.14900798678281055,0.11664427981220611]","[-1,-1,-1]","[-0.0028400555751595673,-0.005627935949051194]","[-1,-1,-1]","[-0.1043041283325968,0.0021132285822063534]","[-1,-1,-1]","[0.019239597114128083,0.07003337093009955]","[1,1,1]","[-0.11817135634500138,0.09486559812808694]","[1,1,1]","[0.030352523763626345,0.023863367122868802]","[1,1,1]","[-0.06967959777938527,0.138492652571209]","[1,1,1]","[0.13224706246177198,0.0757572210032261]","[1,1,1]","[0.02027508589834533,-0.178395039547267]","[1,1,1]","[0.0524565149013089,-0.11743787301081567]","[1,1,1]","[-0.09292111024310723,-0.17513174068799747]","[1,1,1]","[0.08427270338916647,-0.15719589197081846]","[-1,-1,-1]","[-0.051697621158964445,-0.006772161338364287]","[-1,-1,-1]","[0.18375850336684693,-0.03794685147342218]","[-1,-1,-1]","[-0.02284115734228656,-0.1269327831152278]","[-1,-1,-1]","[-0.1895476458064236,-0.02764815358046846]","[-1,-1,-1]","[0.08368727251463479,0.05581473515238525]","[-1,-1,-1]","[-0.0671199179857276,0.0772681040005811]","[-1,-1,-1]","[-0.022257257412651936,0.112824489567858]","[-1,-1,-1]","[0.02,0.02]",135.4423,0,25,25,37,1,,,,,,,
,,,,,,,5ff782ca9927434579cbb764,682db45e33295b87f6a446bf,2025-05-21_12h09.31.388,cuing_paradigm_dot,2024.1.5,Win32,59.52380952,682d556593cb38ad0a074487,,,,,,,,,,,135.4424,135.9423,,,136.1924,136.6422,left,,,,,,,,0.1,0.4423,,,,,,,135.9423,136.1924,136.6422,"[-0.024374276772982633,-0.05642080984772362]","[-1,-1,-1]","[-0.14968434608322356,-0.1295301604014889]","[-1,-1,-1]","[-0.16979593868134268,-0.0012734278686261488]","[-1,-1,-1]","[-0.13209119005839298,-0.07045438592748259]","[-1,-1,-1]","[0.019583716824105844,0.1848317372197519]","[-1,-1,-1]","[0.14892536425723102,0.012957490344149293]","[-1,-1,-1]","[0.00656272134871463,0.1024086671571947]","[-1,-1,-1]","[-0.11146433703232315,0.1337778619364845]","[-1,-1,-1]","[0.07886040222372977,-0.016778245453197126]","[-1,-1,-1]","[0.08723788729436426,-0.0706342329847408]","[-1,-1,-1]","[0.1135065389857131,-0.1368865383523421]","[-1,-1,-1]","[-0.08232244561158555,-0.08822869332292228]","[-1,-1,-1]","[0.076871248318278,0.07241163250138123]","[-1,-1,-1]","[-0.06573281477374189,0.07228780345507282]","[1,1,1]","[0.058959034749635895,-0.17235716026948758]","[-1,-1,-1]","[-0.03448278208365995,-0.12545133524764554]","[-1,-1,-1]","[-0.020196281765917937,0.04563819111142738]","[-1,-1,-1]","[0.14137693035788007,0.1099866600384842]","[-1,-1,-1]","[-0.1726892418390578,-0.07309175886059718]","[-1,-1,-1]","[-0.13361150505725167,-0.01859256516090736]","[1,1,1]","[0.15975060793006796,-0.040503462953290666]","[-1,-1,-1]","[0.029657940351172758,0.1394843965281863]","[-1,-1,-1]","[0.13287315232606525,0.06624810278058262]","[-1,-1,-1]","[-0.08658945120135438,-0.03989122192088724]","[-1,-1,-1]","[-0.11312528467626336,0.08356845380963772]","[-1,-1,-1]","[0.05422357455594531,-0.11722181489014522]","[-1,-1,-1]","[0.11103366138107228,0.138656751206001]","[-1,-1,-1]","[0.158236423595206,-0.11568698497106893]","[-1,-1,-1]","[0.0038219677376474873,-0.17591489917620792]","[-1,-1,-1]","[0.040672685775709164,-0.058606042728464494]","[1,1,1]","[-0.06433543910297215,-0.16944239270299016]","[-1,-1,-1]","[-0.17860568457279752,0.04413506449640581]","[-1,-1,-1]","[0.02,0.02]",137.7422,0,26,26,3,1,,,,,,,
,,,,,,,5ff782ca9927434579cbb764,682db45e33295b87f6a446bf,2025-05-21_12h09.31.388,cuing_paradigm_dot,2024.1.5,Win32,59.52380952,682d556593cb38ad0a074487,,,,,,,,,,,137.7424,138.2422,,,138.4922,138.9922,right,,,,,,,,0.6,0.4701,,,,,,,138.2422,138.4922,138.9922,"[-0.045907170149564566,-0.06084808294942857]","[1,1,1]","[0.00943453917643686,-0.08251282255206757]","[1,1,1]","[0.07659553135415624,0.06333084573212905]","[-1,-1,-1]","[-0.004791702629304178,-0.023466674958055225]","[1,1,1]","[-0.0025200445116401946,-0.16772285637683756]","[1,1,1]","[0.0404560697216756,-0.01453333522188442]","[1,1,1]","[0.01429400220681407,0.0771708447954252]","[1,1,1]","[0.07572822406705892,0.18472986134108446]","[-1,-1,-1]","[0.13910332352711202,0.04600951828475721]","[1,1,1]","[0.07361669748197293,0.02254815673352114]","[1,1,1]","[0.0835167853265557,-0.17801191714721282]","[1,1,1]","[-0.1748292710493685,0.04669763260142074]","[-1,-1,-1]","[-0.09828001278558271,0.1349618089296907]","[1,1,1]","[0.08486504975337929,-0.13545028073275284]","[1,1,1]","[0.04272186456633024,-0.1414546538572609]","[1,1,1]","[0.14119703730405367,0.09956221692358959]","[-1,-1,-1]","[-0.05640934263823151,0.04586049387184462]","[1,1,1]","[0.057220892524804515,0.10754015834923568]","[1,1,1]","[-0.08750497013996966,-0.05104490884106929]","[1,1,1]","[0.17866249670918732,-0.07252637643897511]","[1,1,1]","[-0.06278910673647216,0.16957029262041912]","[1,1,1]","[-0.15810061080656823,0.010127751475538443]","[-1,-1,-1]","[0.17894328327459158,0.07915144340542528]","[-1,-1,-1]","[0.11234980119448229,0.14656372828745495]","[-1,-1,-1]","[-0.1496644640573556,-0.03649726569470599]","[-1,-1,-1]","[-0.0377425514397142,-0.19451500456827922]","[1,1,1]","[-0.07423358636787203,0.09222024131190211]","[-1,-1,-1]","[-0.12296164207297278,0.09730481041844141]","[-1,-1,-1]","[-0.11352719714137967,-0.13235942144663734]","[-1,-1,-1]","[-0.12343574439704218,-0.07648657628038738]","[-1,-1,-1]","[0.02353291180778808,0.03317742715314008]","[-1,-1,-1]","[-0.07292810888516904,-0.11533912410516702]","[1,1,1]","[0.02,0.02]",140.0922,0,27,27,165,1,,,,,,,
,,,,,,,5ff782ca9927434579cbb764,682db45e33295b87f6a446bf,2025-05-21_12h09.31.388,cuing_paradigm_dot,2024.1.5,Win32,59.52380952,682d556593cb38ad0a074487,,,,,,,,,,,140.0924,140.5922,,,140.8423,141.1755,left,,,,,,,,0.9,0.312,,,,,,,140.5922,140.8423,141.1755,"[0.08665165808201108,-0.08645533674796746]","[1,1,1]","[-0.06176443293433244,-0.034105010973269026]","[1,1,1]","[0.13929375809459396,0.03474108008035979]","[1,1,1]","[-0.15085518135911893,-0.12213365055383728]","[1,1,1]","[-0.1301932961072683,0.1455342149345834]","[1,1,1]","[-0.038376187616616916,0.03922248070489617]","[1,1,1]","[0.09645419509727528,0.08069669589825065]","[-1,-1,-1]","[0.12864323232710398,0.13491589601402018]","[1,1,1]","[-0.1044254569375301,0.09027706860206024]","[1,1,1]","[-0.15206857477604865,-0.008277689871320923]","[1,1,1]","[-0.03261801607160268,-0.09140400232750208]","[1,1,1]","[0.10430471674208427,-0.04552843570775787]","[-1,-1,-1]","[-0.08131678738108708,0.15357696663214307]","[1,1,1]","[-0.0737241632838288,-0.1570951767475703]","[1,1,1]","[0.05308684615483697,-0.02358123111355733]","[1,1,1]","[-0.009994888250659244,-0.0009515806464875025]","[1,1,1]","[0.0493838459201403,-0.10917745824814191]","[1,1,1]","[-0.10330644706914666,0.029597242338077426]","[1,1,1]","[-0.019840452740633337,-0.17906284605243014]","[1,1,1]","[0.0802136797513282,0.020419687941511402]","[1,1,1]","[0.05832559154361188,0.1151381865017767]","[-1,-1,-1]","[0.11187833287036308,-0.15534569298837866]","[1,1,1]","[0.1683787443938497,0.06527856912799194]","[1,1,1]","[-0.011881690631299275,0.1696819419276151]","[1,1,1]","[0.063385935534967,0.1665671700967078]","[1,1,1]","[-0.16650712939494294,0.0815898313047843]","[1,1,1]","[0.013161060490425666,0.1253548905461168]","[1,1,1]","[0.054667862210029554,-0.1644720865777815]","[1,1,1]","[-0.15198579027259898,-0.07088062972830975]","[1,1,1]","[0.13006470548380586,-0.08409015999833383]","[1,1,1]","[0.0063319776678137105,-0.14263713812914805]","[1,1,1]","[-0.03688160037041144,0.12081216829744833]","[1,1,1]","[0.02,0.02]",142.2755,0,28,28,189,1,,,,,,,
,,,,,,,5ff782ca9927434579cbb764,682db45e33295b87f6a446bf,2025-05-21_12h09.31.388,cuing_paradigm_dot,2024.1.5,Win32,59.52380952,682d556593cb38ad0a074487,,,,,,,,,,,142.2757,142.7756,,,143.0256,143.3922,right,,,,,,,,0.9,0.3448,,,,,,,142.7757,143.0256,143.3922,"[-0.037101933577996064,0.16011019054585976]","[1,1,1]","[0.14887669595815953,0.04759187120555484]","[1,1,1]","[0.01350203379033952,0.16197382195372445]","[-1,-1,-1]","[-0.0829159143044335,-0.07711303008991836]","[1,1,1]","[-0.009311331642550784,-0.13462476757089042]","[1,1,1]","[-0.16196620584668245,-0.06225715466434058]","[1,1,1]","[0.09072664982531634,0.17527635754366017]","[1,1,1]","[-0.07169206287241092,-0.13770092622065813]","[1,1,1]","[0.04078194991526241,0.0262811498035879]","[1,1,1]","[0.1864878448775559,-0.05106884661733864]","[1,1,1]","[0.07410275957508519,0.07433296736542706]","[1,1,1]","[-0.03686528071218064,0.019529083516977637]","[1,1,1]","[0.11778682772766157,0.07523287881188487]","[1,1,1]","[0.04116316323857669,-0.03571736255065916]","[1,1,1]","[-0.12259839326171895,-0.04283166741044723]","[1,1,1]","[-0.025942383862179428,0.11387470065398772]","[1,1,1]","[0.12053056910662868,0.13135067502259462]","[1,1,1]","[-0.09884916512988964,0.01925877153626489]","[-1,-1,-1]","[0.15415851705819061,-0.10289241611370406]","[1,1,1]","[0.08024558964327773,-0.006751477586613222]","[1,1,1]","[-0.13411085815555598,0.08873993439164173]","[1,1,1]","[0.025513087997314055,0.0752280129598902]","[-1,-1,-1]","[-0.05784095573914052,0.08249676418180381]","[1,1,1]","[0.09095368601515187,-0.054270262121113855]","[1,1,1]","[0.12635962720862062,-0.13197473268632937]","[1,1,1]","[-0.0884853348431534,0.1489135197087761]","[1,1,1]","[-0.009284269451819021,-0.03757868852428249]","[1,1,1]","[-0.1213697634479307,-0.14875514557109978]","[1,1,1]","[-0.17793011048446222,0.02818639308321495]","[1,1,1]","[0.046937003449369165,0.18994682143380626]","[1,1,1]","[0.1284575809902295,0.007215555295758202]","[1,1,1]","[0.0033493772735650835,-0.1964135278340463]","[1,1,1]","[0.02,0.02]",144.4922,0,29,29,201,1,,,,,,,
,,,,,,,5ff782ca9927434579cbb764,682db45e33295b87f6a446bf,2025-05-21_12h09.31.388,cuing_paradigm_dot,2024.1.5,Win32,59.52380952,682d556593cb38ad0a074487,,,,,,,,,,,144.4923,144.9923,,,145.2423,145.8088,right,,,,,,,,0.5,0.544,,,,,,,144.9923,145.2423,145.8088,"[-0.0528977814298023,0.18281592967709828]","[-1,-1,-1]","[-0.04707109237874321,0.10076921949034343]","[1,1,1]","[-0.07205339769405075,-0.06710751682791996]","[1,1,1]","[-0.1591856819247549,-0.0025659507160382304]","[1,1,1]","[0.12748218845177936,0.04698162900166876]","[1,1,1]","[-0.16138073002992276,-0.11775816010655771]","[1,1,1]","[-0.020905761203617965,-0.052363661936008846]","[1,1,1]","[0.07601210322329845,0.17467100640067842]","[-1,-1,-1]","[0.0338769770176838,0.14446294830311712]","[1,1,1]","[0.0307535634722773,-0.19395180793065675]","[-1,-1,-1]","[0.17168594332913267,-0.0768720743374851]","[-1,-1,-1]","[-0.06072375282085063,0.03765004740721947]","[-1,-1,-1]","[0.08968138803105391,-0.008528099396662691]","[-1,-1,-1]","[-0.13720596250295838,0.05105259078663948]","[1,1,1]","[0.1845105943764918,0.0269404237267127]","[-1,-1,-1]","[0.05518298773289411,-0.11462612062549556]","[-1,-1,-1]","[-0.09322981283329164,0.12430411892050608]","[-1,-1,-1]","[0.030918476150921984,-0.1532245041059029]","[1,1,1]","[-0.09998135029670427,-0.14372355982298818]","[-1,-1,-1]","[0.07169733801432553,0.08174223833006083]","[-1,-1,-1]","[-0.13640821379136447,0.09649003062795757]","[-1,-1,-1]","[-0.11389239021669886,-0.0939675390128916]","[-1,-1,-1]","[-0.038720394044889354,-0.17815555888528137]","[1,1,1]","[0.05718812769361732,0.03826336908336005]","[1,1,1]","[-0.09651040006856258,0.07171231035856684]","[1,1,1]","[-0.1602537798285524,-0.046604587066749456]","[-1,-1,-1]","[0.1001952454120576,-0.06765806591635556]","[-1,-1,-1]","[0.1563519387390621,0.09755452589417438]","[1,1,1]","[0.020251058990364997,-0.024003982057293198]","[-1,-1,-1]","[0.12131103870499166,0.1282092362770288]","[1,1,1]","[0.017098089338001082,0.03038502029333271]","[1,1,1]","[0.16234633150335995,-0.030632428716297545]","[1,1,1]","[0.02,0.02]",146.9088,0,30,30,118,1,,,,,,,
,,,,,,,5ff782ca9927434579cbb764,682db45e33295b87f6a446bf,2025-05-21_12h09.31.388,cuing_paradigm_dot,2024.1.5,Win32,59.52380952,682d556593cb38ad0a074487,,,,,,,,,,,146.9089,147.4089,,,147.6589,148.1589,left,,,,,,,,0.5,0.4716,,,,,,,147.4089,147.6588,148.1589,"[-0.10496195624994895,-0.06372945245644533]","[-1,-1,-1]","[0.15668614282131615,0.044840158226743726]","[1,1,1]","[-0.01441707911956869,-0.023770107691874338]","[-1,-1,-1]","[-0.07084140280332253,0.02553556489842922]","[1,1,1]","[0.13984644138278374,-0.02765801707513666]","[-1,-1,-1]","[-0.12685021794132956,0.05424944837715974]","[-1,-1,-1]","[-0.09052400586073006,0.15094530026207137]","[-1,-1,-1]","[0.019175498288832336,-0.18596431107717393]","[1,1,1]","[-0.009473356801493383,0.054341856758190164]","[-1,-1,-1]","[0.11394886570858079,-0.12347090219046737]","[1,1,1]","[0.1529133222012592,-0.09397880622616099]","[-1,-1,-1]","[0.033621437289120086,-0.06518019836406884]","[1,1,1]","[-0.12304523750057769,0.10748780512747375]","[-1,-1,-1]","[-0.08472152338505413,-0.10216580761301068]","[-1,-1,-1]","[-0.04420835287349787,0.10599905352676266]","[1,1,1]","[0.10899891951470887,0.13452765800881172]","[-1,-1,-1]","[-0.1621688986644033,-0.06241963127040898]","[-1,-1,-1]","[-0.1496375901765539,-0.019713046166208604]","[1,1,1]","[0.177036453421667,0.08143854574620792]","[1,1,1]","[-0.13751623157802614,-0.12632684576730802]","[1,1,1]","[0.05990958000739369,-0.15803792775264602]","[-1,-1,-1]","[-0.03838730509438054,-0.19222856211739733]","[1,1,1]","[-0.1794410232905159,0.06023756107784863]","[-1,-1,-1]","[-0.06459924487088689,-0.014556674741511845]","[1,1,1]","[-0.027572768604431593,0.19428520379762043]","[1,1,1]","[0.03541125836575411,0.17560986046740382]","[1,1,1]","[-0.05502723641542066,-0.14162414796718908]","[-1,-1,-1]","[0.10264200260716098,0.04460608702053269]","[1,1,1]","[0.07434833719548117,-0.005832182836391102]","[1,1,1]","[0.18594107346585192,0.013602081501939778]","[1,1,1]","[-0.016005525024177847,0.14877552537534922]","[-1,-1,-1]","[0.17573580661739985,-0.054905662013506135]","[-1,-1,-1]","[0.02,0.02]",149.2588,0,31,31,97,1,,,,,,,
,,,,,,,5ff782ca9927434579cbb764,682db45e33295b87f6a446bf,2025-05-21_12h09.31.388,cuing_paradigm_dot,2024.1.5,Win32,59.52380952,682d556593cb38ad0a074487,,,,,,,,,,,149.2589,149.7588,,,150.009,150.7255,right,,,,,,,,0.6,0.6897,,,,,,,149.7588,150.009,150.7255,"[0.17271860201427,-0.05291462138534343]","[1,1,1]","[-0.03590397042447598,0.1000280241989175]","[-1,-1,-1]","[-0.10605145886875893,0.0727877192959614]","[-1,-1,-1]","[-0.1797428572798646,-0.04949828753557514]","[1,1,1]","[0.02581554402490096,-0.18573261963832435]","[1,1,1]","[-0.0670898841587087,-0.1348326863398814]","[1,1,1]","[0.10145860701076118,-0.1654698665585733]","[-1,-1,-1]","[-0.06497601140235794,-0.17909855357289758]","[-1,-1,-1]","[-0.009895971082808543,-0.0765532830849618]","[-1,-1,-1]","[0.0707744307607101,-0.045630976242386455]","[-1,-1,-1]","[-0.01629844519243845,-0.02857160200781028]","[1,1,1]","[0.10203878944924545,0.12733952394335968]","[-1,-1,-1]","[0.19081470314559315,0.03469542799825009]","[1,1,1]","[-0.1095938072277358,-0.09422231189842895]","[1,1,1]","[0.014424049763548146,0.050829966151595386]","[1,1,1]","[0.14293106021641258,0.10696037507280098]","[1,1,1]","[-0.055227571114987904,-0.044639518608723595]","[1,1,1]","[0.17901681795682212,0.08578849605161469]","[-1,-1,-1]","[-0.006827359779873116,0.15279630394638247]","[1,1,1]","[0.08810060337734411,0.08707170084790736]","[1,1,1]","[-0.13288733301484568,-0.05236511728988734]","[1,1,1]","[0.019127800554539363,0.18651254922647298]","[1,1,1]","[-0.15636785943116077,0.088926837867264]","[-1,-1,-1]","[-0.16622133805209693,-0.003154873385406882]","[1,1,1]","[-0.0945536762881407,0.17027099448550204]","[-1,-1,-1]","[0.14785246767991958,-0.09866208786112415]","[-1,-1,-1]","[0.09882095941775668,0.03510882267902938]","[-1,-1,-1]","[-0.08933644815425185,-0.0033678852036785885]","[1,1,1]","[-0.004822084841324385,-0.12437148228889157]","[1,1,1]","[0.14938878382456627,0.036161450616370786]","[1,1,1]","[0.04231727363995432,-0.08442626504629333]","[1,1,1]","[-0.058793266396006225,0.034927789553625146]","[-1,-1,-1]","[0.02,0.02]",151.8255,0,32,32,170,1,,,,,,,
,,,,,,,5ff782ca9927434579cbb764,682db45e33295b87f6a446bf,2025-05-21_12h09.31.388,cuing_paradigm_dot,2024.1.5,Win32,59.52380952,682d556593cb38ad0a074487,,,,,,,,,,,151.8257,152.3255,,,152.5756,153.7088,left,,,,,,,,0.5,1.1003,,,,,,,152.3255,152.5754,153.7088,"[-0.17453558737355093,-0.00938995101376975]","[1,1,1]","[0.13380657514330874,0.029359506253894777]","[-1,-1,-1]","[-0.008140404080085237,0.01804837329806006]","[-1,-1,-1]","[-0.06858078365692108,-0.028560064944102903]","[1,1,1]","[0.07671086242460441,-0.07804308065754667]","[-1,-1,-1]","[-0.14034915476288282,-0.07501195966212679]","[-1,-1,-1]","[-0.10302548949192977,-0.10012080138765658]","[1,1,1]","[0.018065981499799127,0.13464322746968085]","[-1,-1,-1]","[0.017089635285247668,-0.069930634960001]","[1,1,1]","[-0.1525786648855212,0.05729691397178776]","[-1,-1,-1]","[-0.09179354389621132,0.09114031305349696]","[-1,-1,-1]","[0.17843710720725042,-0.07063326330284724]","[1,1,1]","[-0.0486645168819187,-0.1471293352046098]","[1,1,1]","[0.008165460195111331,-0.1172113164084321]","[1,1,1]","[0.015126233579898013,0.1762343453594321]","[1,1,1]","[-0.08708498766676002,-0.17050645638787604]","[1,1,1]","[-0.11994922698239159,0.011528231044406043]","[-1,-1,-1]","[-0.03622335667390696,0.16499355214064587]","[1,1,1]","[0.12428534464527567,-0.09822698672006579]","[1,1,1]","[0.14924977324806574,-0.12991131042630016]","[1,1,1]","[-0.09167633161616524,0.15878773765312054]","[-1,-1,-1]","[0.09005307534869625,0.08179128150214368]","[-1,-1,-1]","[-0.024088786103702325,-0.19149259308450284]","[-1,-1,-1]","[0.12686122324658947,0.11201729654841935]","[1,1,1]","[0.04725133621302342,-0.17857445412698075]","[1,1,1]","[0.03384450071920541,0.003754372227276059]","[1,1,1]","[0.1516678317231043,-0.040837437197652045]","[-1,-1,-1]","[-0.021431579683246927,0.10828559854018484]","[-1,-1,-1]","[-0.07907359592956166,0.022181433349202598]","[-1,-1,-1]","[-0.15309313803422422,0.10901816528209984]","[-1,-1,-1]","[-0.027721245519737446,-0.032003212816591846]","[1,1,1]","[0.02487482393965492,0.08866939872413382]","[-1,-1,-1]","[0.02,0.02]",154.8088,0,33,33,91,1,,,,,,,
,,,,,,,5ff782ca9927434579cbb764,682db45e33295b87f6a446bf,2025-05-21_12h09.31.388,cuing_paradigm_dot,2024.1.5,Win32,59.52380952,682d556593cb38ad0a074487,,,,,,,,,,,154.809,155.3088,,,155.5588,156.1088,left,,,,,,,,0.45,0.5237,,,,,,,155.3088,155.5588,156.1088,"[0.0579392264555455,-0.1279761828254631]","[-1,-1,-1]","[-0.04855054150690775,0.03391115743194862]","[-1,-1,-1]","[-0.046266758128976286,0.12836365149986367]","[1,1,1]","[0.1485251127251181,0.05975865566206603]","[-1,-1,-1]","[0.015903322253882777,0.046772877787553915]","[-1,-1,-1]","[0.12894575421206658,-0.019492895748254625]","[-1,-1,-1]","[0.005626733508850797,-0.0946341483081439]","[-1,-1,-1]","[-0.14043376215921768,-0.12924184076035491]","[-1,-1,-1]","[0.09258491145334234,-0.14805637905647398]","[1,1,1]","[0.05808506861613013,0.14378904783386703]","[-1,-1,-1]","[0.016375616351370588,0.17863984233038271]","[-1,-1,-1]","[-0.16036405359064448,-0.04323713884073151]","[1,1,1]","[0.050391600574153164,-0.030952763964256187]","[-1,-1,-1]","[-0.19628354048712468,0.030121560118998216]","[-1,-1,-1]","[-0.022248544752107417,-0.13384909597483835]","[1,1,1]","[0.07278362388447386,0.026510136506595956]","[-1,-1,-1]","[0.09866519077200428,0.08366557995834645]","[1,1,1]","[-0.0657394076893773,-0.05702786008578056]","[1,1,1]","[0.17297166680982606,-0.0016842799450496892]","[1,1,1]","[-0.1080540119664918,-0.08064918922122301]","[-1,-1,-1]","[0.17630048805261783,-0.06244723075382193]","[1,1,1]","[0.12313613854916375,0.15507973479304313]","[-1,-1,-1]","[-0.11676479188736087,0.07726282418744496]","[-1,-1,-1]","[-0.09768572149661274,-0.17265693042833918]","[1,1,1]","[-0.09056959811147129,0.0013063501175708866]","[-1,-1,-1]","[-0.1512692051044313,0.05512955331697804]","[1,1,1]","[-0.0714564479499458,0.08874818151047056]","[1,1,1]","[0.09117975812841886,-0.10301572385702665]","[-1,-1,-1]","[-0.08686243854654298,0.12901743567678295]","[1,1,1]","[0.14957992862889427,0.12084939788986808]","[1,1,1]","[0.13141318714515868,-0.07146623348864727]","[-1,-1,-1]","[-0.05913841641390766,-0.1602678568231134]","[1,1,1]","[0.02,0.02]",157.2088,0,34,34,75,1,,,,,,,
,,,,,,,5ff782ca9927434579cbb764,682db45e33295b87f6a446bf,2025-05-21_12h09.31.388,cuing_paradigm_dot,2024.1.5,Win32,59.52380952,682d556593cb38ad0a074487,,,,,,,,,,,157.209,157.7088,,,157.9588,158.5922,left,,,,,,,,0.45,0.6037,,,,,,,157.7088,157.9588,158.5922,"[0.18962300255846046,0.0017538667035858074]","[-1,-1,-1]","[0.08829001304049322,-0.0031137989641266814]","[1,1,1]","[0.03070298011977426,-0.08145117114554387]","[-1,-1,-1]","[-0.0701370611448031,-0.09584163910168893]","[-1,-1,-1]","[-0.13292818890955274,-0.06788778180566227]","[1,1,1]","[-0.11357888623191742,0.14396264385853408]","[-1,-1,-1]","[-0.036306693257393885,-0.1569650482186083]","[1,1,1]","[-0.16246775400056043,0.09160365488638524]","[-1,-1,-1]","[-0.06946411761203343,0.04804362293762655]","[-1,-1,-1]","[0.06379976825453294,0.14029260790693737]","[-1,-1,-1]","[0.18503269536340364,0.042613683701508295]","[1,1,1]","[-0.01382251961760191,-0.12014475595209781]","[1,1,1]","[0.10536166251971703,-0.05999299317081307]","[1,1,1]","[0.1622362878459364,-0.10078271024915673]","[-1,-1,-1]","[-0.11950870145405773,-0.015114923932818438]","[-1,-1,-1]","[0.11381331620823489,-0.10045803887124746]","[1,1,1]","[-0.12099197070538253,-0.15190040245548014]","[-1,-1,-1]","[-0.06351328848715312,0.0014910123091938811]","[1,1,1]","[-0.18785398739593606,-0.043084481271288375]","[-1,-1,-1]","[-0.0020254681824365328,-0.05343588986751624]","[-1,-1,-1]","[-0.03107125962041305,0.1245894146817994]","[-1,-1,-1]","[-0.08209222346307507,-0.16757511638557088]","[1,1,1]","[0.07622834877469824,-0.16436455581892592]","[-1,-1,-1]","[-0.11088694253993597,-0.10743695402634315]","[1,1,1]","[0.043726447133306263,-0.1932676629900593]","[-1,-1,-1]","[-0.034315863635456925,0.07384365516827145]","[-1,-1,-1]","[-0.11708924211588571,0.06835947216102674]","[-1,-1,-1]","[-0.07729047405212665,0.12342019368217773]","[1,1,1]","[0.05628799112055162,0.100303782079665]","[1,1,1]","[0.01696128290076388,0.013698791602815051]","[-1,-1,-1]","[0.0577911886320754,0.05105139051044892]","[1,1,1]","[0.1861588200761011,-0.06521535101588405]","[1,1,1]","[0.02,0.02]",159.6921,0,35,35,63,1,,,,,,,
,,,,,,,5ff782ca9927434579cbb764,682db45e33295b87f6a446bf,2025-05-21_12h09.31.388,cuing_paradigm_dot,2024.1.5,Win32,59.52380952,682d556593cb38ad0a074487,,,,,,,,,,,159.6922,160.1921,,,160.4422,161.0421,right,,,,,,,,0.55,0.5752,,,,,,,160.1921,160.4422,161.0421,"[-0.11285065283216365,-0.0373773963956177]","[1,1,1]","[-0.052224161017416955,0.16045048037346446]","[1,1,1]","[0.026263415298415214,-0.08688317418625906]","[1,1,1]","[0.10824170730168035,0.009828020245712218]","[-1,-1,-1]","[0.08502651035034192,-0.1553680078215271]","[1,1,1]","[-0.049607234587650775,0.06985203270356558]","[-1,-1,-1]","[-0.1663526489019929,0.052691100902851645]","[1,1,1]","[-0.06130529816845402,-0.18331504193774564]","[-1,-1,-1]","[0.022373156645926446,-0.04302185512950802]","[-1,-1,-1]","[-0.10146651736152362,0.11965138557760983]","[-1,-1,-1]","[-0.010908822935885163,-0.19409209261114632]","[1,1,1]","[0.07582013661255059,0.08382908259772152]","[1,1,1]","[0.16736462142197125,0.030760315046678085]","[-1,-1,-1]","[0.1669622522508693,0.08619003364509469]","[-1,-1,-1]","[-0.19076685113445838,-0.056861313571310246]","[1,1,1]","[-0.02859699212829156,0.12413112987185612]","[-1,-1,-1]","[-0.11535729936255232,-0.1198025990650867]","[1,1,1]","[0.1076062401977867,-0.09071168494843121]","[-1,-1,-1]","[0.060652661486547424,0.14174969026723414]","[-1,-1,-1]","[0.03900745183416799,0.03162954087980948]","[1,1,1]","[0.013462649271984022,0.08595590467794682]","[1,1,1]","[-0.05304100891732436,-0.0019606044326064324]","[1,1,1]","[0.01551356651582212,0.15328829480582182]","[1,1,1]","[-0.15088385132200074,0.007077158018327101]","[1,1,1]","[0.164137398910977,-0.052219886634347665]","[1,1,1]","[-0.007737339940309636,-0.12276671269428013]","[1,1,1]","[0.12603354726265897,0.1232797841896782]","[-1,-1,-1]","[-0.09489085476226071,0.027881425936419305]","[-1,-1,-1]","[0.11328921922982116,0.05434877923087772]","[1,1,1]","[-0.11583372279098704,0.16089266174404276]","[-1,-1,-1]","[0.14078839957539482,-0.1396218063483238]","[-1,-1,-1]","[0.014879997756804906,-0.003140338292672065]","[1,1,1]","[0.02,0.02]",162.1421,0,36,36,138,1,,,,,,,
,,,,,,,5ff782ca9927434579cbb764,682db45e33295b87f6a446bf,2025-05-21_12h09.31.388,cuing_paradigm_dot,2024.1.5,Win32,59.52380952,682d556593cb38ad0a074487,,,,,,,,,,,162.1422,162.6421,,,162.8921,163.5254,right,,,,,,,,0.6,0.6005,,,,,,,162.6421,162.8921,163.5254,"[-0.04918577615761799,0.027433439525465966]","[1,1,1]","[0.1759948285835807,0.005062813183468359]","[1,1,1]","[0.025385338502849214,-0.10006155227431285]","[-1,-1,-1]","[0.11928494990839823,-0.017085150877961443]","[-1,-1,-1]","[0.10052641607506262,0.06559059966135693]","[1,1,1]","[0.17669076154171567,0.05604029318957961]","[1,1,1]","[0.044411146045823406,0.0770746391360957]","[-1,-1,-1]","[-0.1523997902058009,0.0893917324496165]","[1,1,1]","[-0.09723185914111761,-0.16189600515720298]","[-1,-1,-1]","[-0.10860260822905522,-0.11923856986473678]","[1,1,1]","[-0.1494648026713043,-0.047865871831758]","[-1,-1,-1]","[0.012604108207650339,0.18808748974926642]","[-1,-1,-1]","[0.09017403955023567,-0.06985157446051846]","[1,1,1]","[-0.07795573877051964,-0.09286956666795092]","[-1,-1,-1]","[-0.03530941343353074,0.1532176068105827]","[1,1,1]","[-0.056763933631504594,0.08269938969823414]","[1,1,1]","[0.0051970755424867445,-0.023857617500980647]","[-1,-1,-1]","[-0.05233614474265184,-0.12645725903452018]","[1,1,1]","[-0.12433157154077214,0.12244732662160608]","[1,1,1]","[0.15897688275084862,-0.09739728194573785]","[1,1,1]","[-0.196126653976827,-0.022351244570120655]","[1,1,1]","[-0.11854701156661995,0.0185305485869401]","[1,1,1]","[0.12557926301514463,-0.11981903584189327]","[-1,-1,-1]","[0.09264310348409203,0.11167512723743651]","[-1,-1,-1]","[-0.03748855445834333,-0.021673131003185585]","[-1,-1,-1]","[0.06289010363627046,-0.13551505842840758]","[1,1,1]","[0.031243853907475517,0.020285380037999658]","[1,1,1]","[-0.01683056239217684,0.10496206705407007]","[-1,-1,-1]","[0.10477237532656665,0.15344526332612354]","[1,1,1]","[0.14226885414792617,0.08177350310511633]","[-1,-1,-1]","[-0.1626951008819238,0.040959412939085886]","[1,1,1]","[0.00009924637622521887,-0.17125513744778686]","[1,1,1]","[0.02,0.02]",164.6254,0,37,37,153,1,,,,,,,
,,,,,,,5ff782ca9927434579cbb764,682db45e33295b87f6a446bf,2025-05-21_12h09.31.388,cuing_paradigm_dot,2024.1.5,Win32,59.52380952,682d556593cb38ad0a074487,,,,,,,,,,,164.6256,165.1254,,,165.3754,166.2754,left,,,,,,,,0.55,0.8673,,,,,,,165.1254,165.3754,166.2755,"[0.05037863367012594,-0.06791834130979278]","[-1,-1,-1]","[-0.11537721658543296,-0.09336438711807014]","[-1,-1,-1]","[0.00023566355977500694,-0.07159673712842873]","[1,1,1]","[0.19285030376160328,-0.03636825637108482]","[1,1,1]","[0.09378645292837781,0.15458629966747048]","[1,1,1]","[0.03245211603911764,0.18712430427314675]","[1,1,1]","[-0.047622114859582565,-0.027711229144511053]","[1,1,1]","[-0.16112135387831553,0.01988748712983542]","[-1,-1,-1]","[-0.06705365411606663,0.03233660973846648]","[1,1,1]","[-0.12905544132184435,0.04959510804650167]","[1,1,1]","[0.06329979248508193,-0.1132418260136686]","[-1,-1,-1]","[0.02017786995490597,0.05890708079111863]","[-1,-1,-1]","[-0.0692222969437597,0.1610625880503643]","[-1,-1,-1]","[0.15118617761573946,0.04113427546409407]","[1,1,1]","[0.09894889140365093,0.01748330975530926]","[-1,-1,-1]","[-0.053228781224960185,-0.1498926440202033]","[-1,-1,-1]","[0.13939385356240525,0.11390359244629453]","[1,1,1]","[0.13353821379536787,-0.0075867398090918615]","[-1,-1,-1]","[0.11094932085367568,0.06211473537966658]","[1,1,1]","[-0.1661871731797637,-0.0916718206304965]","[1,1,1]","[0.13201665836604948,-0.12133374966840413]","[-1,-1,-1]","[0.027280451427510115,-0.1827684670017696]","[-1,-1,-1]","[-0.07842210890919699,0.08244233722938941]","[-1,-1,-1]","[-0.045260249872439345,0.1941090129193775]","[-1,-1,-1]","[0.03197951149198332,0.10401961654838604]","[1,1,1]","[-0.014234521943287691,0.09820777945547744]","[1,1,1]","[-0.15662822793952755,0.10708249820314951]","[1,1,1]","[-0.05373124759640226,-0.07033104783823933]","[1,1,1]","[-0.18666493105075507,-0.03242339720906958]","[1,1,1]","[-0.03011274101981351,-0.11083220234027509]","[1,1,1]","[0.006703254826216184,-0.028358970346006124]","[-1,-1,-1]","[-0.12078621951725335,-0.0012861787086860524]","[1,1,1]","[0.02,0.02]",167.3753,0,38,38,136,1,,,,,,,
,,,,,,,5ff782ca9927434579cbb764,682db45e33295b87f6a446bf,2025-05-21_12h09.31.388,cuing_paradigm_dot,2024.1.5,Win32,59.52380952,682d556593cb38ad0a074487,,,,,,,,,,,167.3755,167.8753,,,168.1255,168.6254,left,,,,,,,,0.1,0.4693,,,,,,,167.8753,168.1255,168.6254,"[0.06255759261621509,0.021398771814596453]","[-1,-1,-1]","[-0.057248295556382216,-0.027121226898847193]","[-1,-1,-1]","[-0.09577875179949871,0.1348226361138003]","[-1,-1,-1]","[-0.08786587376053666,-0.09621935826960766]","[-1,-1,-1]","[0.02984536157485805,-0.162667957826295]","[1,1,1]","[-0.09597402722103841,-0.05236822765163536]","[-1,-1,-1]","[0.06727378536961898,0.1323712405372318]","[-1,-1,-1]","[-0.04722494173779724,-0.16578350484022808]","[-1,-1,-1]","[-0.1456208712455048,0.04108241243418916]","[-1,-1,-1]","[-0.14559219931935896,-0.11597746824647505]","[-1,-1,-1]","[-0.07355124399711528,0.04172203545642379]","[-1,-1,-1]","[0.06343073670709885,0.1848440678931361]","[1,1,1]","[0.1530822746529914,-0.08897839144006843]","[-1,-1,-1]","[0.07014053311203297,-0.1686111624190907]","[-1,-1,-1]","[0.10480158986583613,0.04317091257728474]","[-1,-1,-1]","[-0.03408087428638797,0.183478173783334]","[1,1,1]","[-0.10999389657510622,0.0702729728076545]","[-1,-1,-1]","[-0.04644149259161731,0.07971794871276092]","[-1,-1,-1]","[-0.16984588402799003,0.09917775369145998]","[-1,-1,-1]","[0.07601767394474829,-0.1204603730571653]","[-1,-1,-1]","[-0.1798678814031829,-0.03498435267987291]","[-1,-1,-1]","[0.09399196290981454,-0.06807437032507711]","[-1,-1,-1]","[0.01679979354397764,0.1323524000999407]","[-1,-1,-1]","[-0.12054162305387689,-0.15447542024413105]","[-1,-1,-1]","[0.02403408215023224,-0.0795325134793871]","[-1,-1,-1]","[0.12250304892100713,0.1364395671201499]","[-1,-1,-1]","[0.15878043746858284,-0.0355813206644352]","[-1,-1,-1]","[-0.04228267614127566,0.12342715321994491]","[-1,-1,-1]","[-0.07409118642204587,0.18413294347672043]","[-1,-1,-1]","[0.19978760429389383,0.0045416053645176]","[-1,-1,-1]","[0.1587845846584415,0.11087912525869588]","[-1,-1,-1]","[0.11531625375721744,-0.0021902122665757567]","[-1,-1,-1]","[0.02,0.02]",169.7253,0,39,39,0,1,,,,,,,
,,,,,,,5ff782ca9927434579cbb764,682db45e33295b87f6a446bf,2025-05-21_12h09.31.388,cuing_paradigm_dot,2024.1.5,Win32,59.52380952,682d556593cb38ad0a074487,,,,,,,,,,,169.7255,170.2253,,,170.4753,171.3087,left,,,,,,,,0.6,0.8076,,,,,,,170.2253,170.4753,171.3087,"[0.009852307801361608,-0.0008126236771315909]","[1,1,1]","[0.12142503457490399,-0.10790251668519062]","[1,1,1]","[-0.006498606719850091,-0.11197462180417357]","[-1,-1,-1]","[0.07426970235310383,0.00092936622943841]","[-1,-1,-1]","[0.00825757905771942,-0.058567182740322424]","[-1,-1,-1]","[-0.1465826267701907,-0.10890185689282504]","[1,1,1]","[-0.08632888872878412,0.13201617330738805]","[1,1,1]","[-0.01223367259471686,0.13456211251990202]","[-1,-1,-1]","[0.07090614891169218,-0.05899193500119151]","[1,1,1]","[-0.16163384993075183,0.07307256894671309]","[1,1,1]","[0.1431103753111771,0.012116718530126882]","[1,1,1]","[-0.14327521389408257,-0.030780942964805234]","[1,1,1]","[-0.08269939660635675,-0.011011589209328107]","[-1,-1,-1]","[-0.09198175246508807,0.05449769783786069]","[1,1,1]","[-0.04513007495531023,0.06343371105146253]","[-1,-1,-1]","[0.044336794925563174,0.19355753992717287]","[1,1,1]","[-0.03551221964061356,-0.18985009932828453]","[1,1,1]","[0.0528134860431159,-0.09939201805414591]","[-1,-1,-1]","[0.023545297631598315,-0.189415946065228]","[1,1,1]","[-0.12492984862883888,0.10043583807995977]","[-1,-1,-1]","[0.11524204286773036,0.10165592914048523]","[1,1,1]","[0.16588024065225315,0.05131457084300076]","[1,1,1]","[-0.0527013809481067,0.16978001194863876]","[-1,-1,-1]","[-0.07857812347637984,-0.1135144918959906]","[1,1,1]","[-0.17412488592478764,0.01030751373236547]","[-1,-1,-1]","[0.1638379002706943,-0.024549843198496558]","[1,1,1]","[0.09385503528397994,0.0571325061210664]","[-1,-1,-1]","[0.04105975638349757,0.10469971074558113]","[1,1,1]","[-0.05672269319643149,-0.06176659125153933]","[-1,-1,-1]","[0.004583789972596954,0.045383497249036314]","[1,1,1]","[-0.11428472744267222,0.016527059971022]","[1,1,1]","[0.12376801682963286,-0.03184352879139873]","[-1,-1,-1]","[0.02,0.02]",172.4087,0,40,40,162,1,,,,,,,
,,,,,,,5ff782ca9927434579cbb764,682db45e33295b87f6a446bf,2025-05-21_12h09.31.388,cuing_paradigm_dot,2024.1.5,Win32,59.52380952,682d556593cb38ad0a074487,,,,,,,,,,,172.4088,172.9087,,,173.1588,173.7421,right,,,,,,,,0.6,0.5504,,,,,,,172.9087,173.1588,173.7421,"[0.07315964226191034,-0.1509597968312554]","[1,1,1]","[-0.13674973096249765,-0.003009409948205498]","[-1,-1,-1]","[0.04405820931821531,0.07533941621352912]","[-1,-1,-1]","[0.11214498446796012,0.007555146044095756]","[1,1,1]","[-0.0021567514546994675,0.1596948508704672]","[1,1,1]","[-0.04862566489045766,-0.17852281028410352]","[1,1,1]","[-0.014682603791474727,-0.14273880895090138]","[-1,-1,-1]","[-0.08476578311811951,0.08724209458761654]","[1,1,1]","[-0.06479171192302419,-0.0029156898527102717]","[-1,-1,-1]","[0.010977266323271326,-0.18767964610217805]","[1,1,1]","[0.04459463373349834,0.14764092601662906]","[-1,-1,-1]","[-0.014347956927981803,-0.027524860592643925]","[1,1,1]","[-0.07201378939459709,0.044594781229599645]","[1,1,1]","[-0.07963659816407415,-0.11756298768481564]","[1,1,1]","[-0.0018657822692269282,0.024165668570475078]","[-1,-1,-1]","[-0.15256917491956096,-0.06158269297013967]","[1,1,1]","[0.13193953858870625,-0.08622678469533858]","[-1,-1,-1]","[0.09116223829536994,0.08698795260087706]","[-1,-1,-1]","[-0.012577711917722409,0.08672113074914878]","[1,1,1]","[0.07437615278965129,-0.10540030144092777]","[-1,-1,-1]","[-0.018949027064234174,-0.10279526532392892]","[-1,-1,-1]","[-0.09614902200964331,0.14486783606692707]","[1,1,1]","[0.07662487313967763,0.0489576822199127]","[1,1,1]","[0.04799029044219181,-0.008080125160968291]","[1,1,1]","[0.03607985246570215,-0.09019405964448741]","[-1,-1,-1]","[-0.18929378879959236,0.02726084530522771]","[1,1,1]","[0.17101714229025558,-0.014242247765034672]","[1,1,1]","[0.13716277292024695,0.10667194530275484]","[-1,-1,-1]","[-0.055858667114793224,0.1594503810844799]","[1,1,1]","[-0.1273636179998065,0.11760009965123741]","[-1,-1,-1]","[0.14508094091369947,-0.13765301109579053]","[1,1,1]","[-0.12091447180754872,-0.09207380231948656]","[1,1,1]","[0.02,0.02]",174.842,0,41,41,179,1,,,,,,,
,,,,,,,5ff782ca9927434579cbb764,682db45e33295b87f6a446bf,2025-05-21_12h09.31.388,cuing_paradigm_dot,2024.1.5,Win32,59.52380952,682d556593cb38ad0a074487,,,,,,,,,,,174.8421,175.342,,,175.592,176.3753,left,,,,,,,,0.5,0.7549,,,,,,,175.342,175.592,176.3754,"[0.15151915157478021,-0.020915104695287855]","[1,1,1]","[-0.05404547366007857,0.1239946986997125]","[1,1,1]","[-0.05881804388228535,0.06730351890516548]","[-1,-1,-1]","[0.009755504002255186,-0.10594104824056186]","[1,1,1]","[0.05584870711248442,0.08653051060090806]","[-1,-1,-1]","[-0.15904502590070838,-0.08006929625174156]","[-1,-1,-1]","[-0.04232022176379629,0.16635091841783042]","[-1,-1,-1]","[0.12622723826669316,-0.1478085743527911]","[1,1,1]","[-0.09499302002174177,-0.04609336748120085]","[-1,-1,-1]","[0.08534648481600082,-0.16355042710552745]","[-1,-1,-1]","[0.1552632168642114,-0.09099700818793582]","[1,1,1]","[-0.11052908068873529,0.06344952317972018]","[-1,-1,-1]","[-0.06161227305920857,-0.08761211118742078]","[1,1,1]","[0.15579476077650228,0.09544616447316723]","[1,1,1]","[-0.10967290662703892,0.005690695554201437]","[-1,-1,-1]","[0.04102302038227387,-0.18133422859585557]","[-1,-1,-1]","[-0.10980681811123037,-0.14666339388363145]","[-1,-1,-1]","[-0.12362053966156517,0.1285761469018613]","[1,1,1]","[-0.011454124979156093,0.01081729387530193]","[-1,-1,-1]","[0.0845672799758707,0.015501220170781526]","[1,1,1]","[0.05049856053561016,0.136234591098499]","[-1,-1,-1]","[0.001446723175459196,0.09248690953222238]","[1,1,1]","[-0.157112492520267,0.00402075567701433]","[1,1,1]","[0.10970351062556559,-0.050423384928237065]","[-1,-1,-1]","[0.04725842350386636,-0.06473450646632153]","[-1,-1,-1]","[0.04182627813981997,0.013862247035631827]","[1,1,1]","[-0.1928049384041021,0.027804606924388308]","[1,1,1]","[0.06685959638758662,0.18545212182614662]","[-1,-1,-1]","[-0.047724421887427745,-0.14118735086357992]","[1,1,1]","[0.005466324194715456,0.1335239875511012]","[1,1,1]","[-0.18103698139933258,0.08442472427926034]","[-1,-1,-1]","[0.1991016585872673,0.011917672041443901]","[1,1,1]","[0.02,0.02]",177.4753,0,42,42,95,1,,,,,,,
,,,,,,,5ff782ca9927434579cbb764,682db45e33295b87f6a446bf,2025-05-21_12h09.31.388,cuing_paradigm_dot,2024.1.5,Win32,59.52380952,682d556593cb38ad0a074487,,,,,,,,,,,177.4755,177.9754,,,178.2254,178.6586,left,,,,,,,,0.1,0.4015,,,,,,,177.9754,178.2253,178.6586,"[-0.1926414467610157,0.05316244357237481]","[-1,-1,-1]","[-0.10612055591192988,0.12667540680870693]","[-1,-1,-1]","[-0.014993183103517476,-0.04835872246026833]","[-1,-1,-1]","[-0.04331732596012542,0.09023845006566435]","[-1,-1,-1]","[0.1296548996898666,0.1133058578112877]","[-1,-1,-1]","[-0.1429192638336055,0.03526622007551354]","[-1,-1,-1]","[0.16592287526485358,0.07266979207987007]","[1,1,1]","[0.07572689196577598,-0.1179405306975303]","[-1,-1,-1]","[-0.09466049600411182,-0.16238625885666289]","[-1,-1,-1]","[0.08009536585621664,-0.010072203326264581]","[-1,-1,-1]","[0.0615874281547891,0.10718409792432207]","[-1,-1,-1]","[0.03481094573651358,0.012593677061089718]","[-1,-1,-1]","[-0.01782831561634621,0.18312490958962707]","[-1,-1,-1]","[0.017933321214081834,-0.182435586982893]","[-1,-1,-1]","[-0.18107564997334236,-0.009520306522939352]","[-1,-1,-1]","[0.1618881439387011,0.02533351931834559]","[-1,-1,-1]","[-0.051939336641246586,-0.022406377224427856]","[-1,-1,-1]","[-0.04133868684266028,0.1358126087361348]","[-1,-1,-1]","[0.11216372209922669,-0.15202048522321437]","[-1,-1,-1]","[-0.0215666890439842,-0.147183833277131]","[-1,-1,-1]","[-0.12513691650066613,0.08410776430585627]","[-1,-1,-1]","[-0.08322372335446526,-0.05506830218407184]","[-1,-1,-1]","[0.015113063670052319,-0.1202734158243786]","[-1,-1,-1]","[0.11558478088012293,0.07129839538671502]","[1,1,1]","[0.12102519941899731,-0.1051215098928471]","[-1,-1,-1]","[0.08117793368265841,0.03154261350571914]","[-1,-1,-1]","[-0.004976740368387067,0.1173649668769776]","[-1,-1,-1]","[0.07213399290145539,0.1811163813309633]","[-1,-1,-1]","[-0.1348335278364932,-0.12890743282049077]","[-1,-1,-1]","[-0.0320568045499094,0.04607048829115513]","[1,1,1]","[-0.0840019219932399,0.006029523674209975]","[-1,-1,-1]","[-0.06391917369796944,0.17722658269182354]","[-1,-1,-1]","[0.02,0.02]",179.7586,0,43,43,18,1,,,,,,,
,,,,,,,5ff782ca9927434579cbb764,682db45e33295b87f6a446bf,2025-05-21_12h09.31.388,cuing_paradigm_dot,2024.1.5,Win32,59.52380952,682d556593cb38ad0a074487,,,,,,,,,,,179.7588,180.2586,,,180.5087,181.192,left,,,,,,,,0.45,0.6625,,,,,,,180.2586,180.5087,181.192,"[0.17606424155353667,0.0327908081859149]","[-1,-1,-1]","[-0.025840509581450614,0.0343458723556407]","[-1,-1,-1]","[0.14709571927758408,-0.034852501370952145]","[-1,-1,-1]","[0.16389439619104712,-0.09030297480566551]","[-1,-1,-1]","[0.025411644821555467,-0.1391360930262394]","[1,1,1]","[0.08871861181180173,-0.062140206202047646]","[1,1,1]","[0.13042037024041483,0.11131771719528542]","[-1,-1,-1]","[-0.13345574676433195,0.11327260318506675]","[-1,-1,-1]","[-0.007621341726317605,0.09958870036908074]","[1,1,1]","[-0.06850544732861144,0.08788995424791557]","[-1,-1,-1]","[-0.14321626181430272,-0.03425881046508139]","[-1,-1,-1]","[0.021242899499143892,-0.17935235099077487]","[1,1,1]","[0.06902627736969115,0.03797582141895294]","[1,1,1]","[-0.04120383696257392,0.13862695600710254]","[-1,-1,-1]","[-0.07732680405474343,-0.15641776762241708]","[-1,-1,-1]","[-0.07656408853924264,0.02469096968773135]","[-1,-1,-1]","[-0.18706999504422683,0.004805995356830079]","[1,1,1]","[-0.09784054881578892,0.13774847909374974]","[1,1,1]","[0.08024585400770345,0.12576437404515056]","[1,1,1]","[0.04702637787730464,-0.06495853219202007]","[-1,-1,-1]","[-0.08581473741981596,-0.02681680966755423]","[1,1,1]","[-0.16002528765668703,-0.09047038931483171]","[1,1,1]","[0.07412804500227645,-0.009067872144470036]","[-1,-1,-1]","[-0.1412109576107049,-0.13816937488278946]","[1,1,1]","[-0.1625237600574425,0.08023487248807103]","[-1,-1,-1]","[0.04201029648690423,0.08903913612855954]","[1,1,1]","[-0.08056510777843906,-0.07437458801285589]","[-1,-1,-1]","[-0.006137368160211253,-0.013949414079492253]","[-1,-1,-1]","[0.15549037843328067,0.07557703820184578]","[-1,-1,-1]","[0.10140081614084347,-0.10487197191975861]","[1,1,1]","[-0.04034755374748413,-0.06056789211241685]","[1,1,1]","[0.07478914560245623,0.16842759417378075]","[-1,-1,-1]","[0.02,0.02]",182.2919,0,44,44,62,1,,,,,,,
