right,left,explain.started,explain.stopped,key_resp_3.keys,key_resp_3.rt,key_resp_3.duration,participant,session,date,expName,psychopyVersion,OS,frameRate,study_id,explain_2.started,explain_2.stopped,key_resp_4.keys,key_resp_4.rt,key_resp_4.duration,explain_3.started,explain_3.stopped,key_resp_5.keys,key_resp_5.rt,key_resp_5.duration,fixation.started,fixation.stopped,practice.started,practice.stopped,response.started,response.stopped,key_resp.keys,key_resp.rt,key_resp.duration,feedback.started,feedback.stopped,trials_2.thisRepN,trials_2.thisTrialN,trials_2.thisN,trials_2.thisIndex,trials_2.ran,white_ratio,explain_4.started,explain_4.stopped,key_resp_6.keys,key_resp_6.rt,key_resp_6.duration,dotDisplay.started,dotDisplay.stopped,ITI.started,polygon_1.pos,polygon_1.color,polygon_2.pos,polygon_2.color,polygon_3.pos,polygon_3.color,polygon_4.pos,polygon_4.color,polygon_5.pos,polygon_5.color,polygon_6.pos,polygon_6.color,polygon_7.pos,polygon_7.color,polygon_8.pos,polygon_8.color,polygon_9.pos,polygon_9.color,polygon_10.pos,polygon_10.color,polygon_11.pos,polygon_11.color,polygon_12.pos,polygon_12.color,polygon_13.pos,polygon_13.color,polygon_14.pos,polygon_14.color,polygon_15.pos,polygon_15.color,polygon_16.pos,polygon_16.color,polygon_17.pos,polygon_17.color,polygon_18.pos,polygon_18.color,polygon_19.pos,polygon_19.color,polygon_20.pos,polygon_20.color,polygon_21.pos,polygon_21.color,polygon_22.pos,polygon_22.color,polygon_23.pos,polygon_23.color,polygon_24.pos,polygon_24.color,polygon_25.pos,polygon_25.color,polygon_26.pos,polygon_26.color,polygon_27.pos,polygon_27.color,polygon_28.pos,polygon_28.color,polygon_29.pos,polygon_29.color,polygon_30.pos,polygon_30.color,polygon_31.pos,polygon_31.color,polygon_32.pos,polygon_32.color,dot_size,ITI.stopped,trials.thisRepN,trials.thisTrialN,trials.thisN,trials.thisIndex,trials.ran,break_2.started,break_2.stopped,trials_3.thisRepN,trials_3.thisTrialN,trials_3.thisN,trials_3.thisIndex,trials_3.ran
subject chose white,subject chose black,0.0005,39.35,space,24.3312,,603c11e7db9042987c7180be,682db39a2ae2ce0ea5cc7930,2025-05-21_13h06.20.840,cuing_paradigm_dot,2024.1.5,Win32,60.24096386,682d556593cb38ad0a074487,,,,,,,,,,,,,,,,,,,,,,,,,,,,,,,,,,,,,,,,,,,,,,,,,,,,,,,,,,,,,,,,,,,,,,,,,,,,,,,,,,,,,,,,,,,,,,,,,,,,,,,,,,,,,,,,,
,,,,,,,603c11e7db9042987c7180be,682db39a2ae2ce0ea5cc7930,2025-05-21_13h06.20.840,cuing_paradigm_dot,2024.1.5,Win32,60.24096386,682d556593cb38ad0a074487,39.3503,70.2316,space,0.8625,,,,,,,,,,,,,,,,,,,,,,,,,,,,,,,,,,,,,,,,,,,,,,,,,,,,,,,,,,,,,,,,,,,,,,,,,,,,,,,,,,,,,,,,,,,,,,,,,,,,,,,,,,,,,
,,,,,,,603c11e7db9042987c7180be,682db39a2ae2ce0ea5cc7930,2025-05-21_13h06.20.840,cuing_paradigm_dot,2024.1.5,Win32,60.24096386,682d556593cb38ad0a074487,,,,,,70.2318,75.0809,space,1.823,,,,,,,,,,,,,,,,,,,,,,,,,,,,,,,,,,,,,,,,,,,,,,,,,,,,,,,,,,,,,,,,,,,,,,,,,,,,,,,,,,,,,,,,,,,,,,,,,,,,,,,,
,,,,,,,603c11e7db9042987c7180be,682db39a2ae2ce0ea5cc7930,2025-05-21_13h06.20.840,cuing_paradigm_dot,2024.1.5,Win32,60.24096386,682d556593cb38ad0a074487,,,,,,,,,,,75.1193,75.598,75.5987,75.8482,75.8485,76.6158,right,0.7252,,76.6161,77.7139,0,0,0,0,1,0.8,,,,,,,,,,,,,,,,,,,,,,,,,,,,,,,,,,,,,,,,,,,,,,,,,,,,,,,,,,,,,,,,,,,,,,,,,,,,,,,,,,,,,,
,,,,,,,603c11e7db9042987c7180be,682db39a2ae2ce0ea5cc7930,2025-05-21_13h06.20.840,cuing_paradigm_dot,2024.1.5,Win32,60.24096386,682d556593cb38ad0a074487,,,,,,,,,,,77.7148,78.2136,78.2138,78.4642,78.4642,79.0303,left,0.5386,,79.0303,80.1323,0,1,1,1,1,0.2,,,,,,,,,,,,,,,,,,,,,,,,,,,,,,,,,,,,,,,,,,,,,,,,,,,,,,,,,,,,,,,,,,,,,,,,,,,,,,,,,,,,,,
,,,,,,,603c11e7db9042987c7180be,682db39a2ae2ce0ea5cc7930,2025-05-21_13h06.20.840,cuing_paradigm_dot,2024.1.5,Win32,60.24096386,682d556593cb38ad0a074487,,,,,,,,,,,,,,,,,,,,,,,,,,,,80.1329,84.6631,space,1.5041,,,,,,,,,,,,,,,,,,,,,,,,,,,,,,,,,,,,,,,,,,,,,,,,,,,,,,,,,,,,,,,,,,,,,,,,,,,,,,,,,,
,,,,,,,603c11e7db9042987c7180be,682db39a2ae2ce0ea5cc7930,2025-05-21_13h06.20.840,cuing_paradigm_dot,2024.1.5,Win32,60.24096386,682d556593cb38ad0a074487,,,,,,,,,,,84.7002,85.1783,,,85.4326,86.1954,left,0.7363,,,,,,,,,0.4,,,,,,85.1789,85.4325,86.1961,"[0.0250673075624912,-0.05577510123877134]","[-1,-1,-1]","[-0.12046109953382395,0.10163599674757764]","[-1,-1,-1]","[-0.010752204308941811,-0.13593661232872944]","[-1,-1,-1]","[0.08623772148398663,-0.05366382933806937]","[-1,-1,-1]","[-0.022370593722849982,-0.027730681424892482]","[1,1,1]","[0.06865112477369294,-0.12789338304039705]","[1,1,1]","[-0.12223311815076937,0.06014796342522699]","[1,1,1]","[-0.0007921598811161314,0.053515154465296415]","[-1,-1,-1]","[0.12658557417424404,0.10437413493885153]","[-1,-1,-1]","[-0.06855959598427726,0.005112534671222206]","[1,1,1]","[-0.10666396993018731,-0.08162198453043633]","[-1,-1,-1]","[-0.002929047454348075,-0.18843112769699252]","[-1,-1,-1]","[0.043349204707223414,0.18251854741442955]","[1,1,1]","[0.06514959969140315,0.10066177259719211]","[1,1,1]","[0.17875345091209977,-0.04132109279023421]","[1,1,1]","[0.10681476345311099,0.14485695931306353]","[-1,-1,-1]","[-0.14458252702386423,-0.10810434883658045]","[1,1,1]","[-0.036720671918613175,-0.10022886809978036]","[1,1,1]","[0.060806775845509954,0.05166126897473523]","[-1,-1,-1]","[0.05290445550847228,-0.17808416147177036]","[1,1,1]","[0.14842137480071566,-0.06892631196689392]","[1,1,1]","[-0.10594749289513708,-0.15066548906605964]","[-1,-1,-1]","[-0.02962283921289197,0.10511692769605259]","[-1,-1,-1]","[-0.0635964701226366,-0.1855362413151049]","[1,1,1]","[-0.17248231579056975,-0.0018977816379969318]","[-1,-1,-1]","[0.09558405020670559,-0.16036362535732185]","[-1,-1,-1]","[-0.16624173011457807,0.06468839791849966]","[-1,-1,-1]","[0.1193202356538698,-0.10610472844281654]","[-1,-1,-1]","[-0.12999378217539492,0.0007823293465486688]","[1,1,1]","[-0.12751412508910265,-0.04370985102449902]","[-1,-1,-1]","[-0.0683093935249849,0.16584275915190233]","[-1,-1,-1]","[0.16447691736854314,0.07065961320873781]","[-1,-1,-1]","[0.02,0.02]",87.2977,0,0,0,41,1,,,,,,,
,,,,,,,603c11e7db9042987c7180be,682db39a2ae2ce0ea5cc7930,2025-05-21_13h06.20.840,cuing_paradigm_dot,2024.1.5,Win32,60.24096386,682d556593cb38ad0a074487,,,,,,,,,,,87.2985,87.7949,,,88.048,88.8448,left,0.7702,,,,,,,,,0.45,,,,,,87.7951,88.0479,88.845,"[0.0005453737943977435,0.17352949917308516]","[-1,-1,-1]","[-0.14220664279421918,0.08314813544919995]","[-1,-1,-1]","[-0.03219775832279492,-0.051292032884743696]","[1,1,1]","[0.1525139727753823,0.0630564205332248]","[-1,-1,-1]","[-0.0670463287363379,0.08847518899355152]","[1,1,1]","[-0.005309949881328998,0.10352399166257308]","[1,1,1]","[0.19354035471421885,-0.030575100648766333]","[1,1,1]","[0.017036378000680752,0.049878724835967586]","[-1,-1,-1]","[0.045058952063314395,-0.030068254863007113]","[1,1,1]","[-0.12739488948601213,-0.1363994747923984]","[-1,-1,-1]","[0.008582381707865336,-0.06348938225018004]","[-1,-1,-1]","[0.11763517572487663,0.15531869660037978]","[-1,-1,-1]","[-0.12276795285579693,0.1363390504706946]","[1,1,1]","[0.14034634344179137,0.0017612054754755258]","[-1,-1,-1]","[-0.1747233119915128,0.04289659178118415]","[1,1,1]","[0.007982271730389998,-0.17549099388123826]","[1,1,1]","[-0.017713553987987785,-0.1320175456873404]","[-1,-1,-1]","[0.06373900013034589,-0.152428530046436]","[-1,-1,-1]","[-0.1401638302672332,-0.09664023440836289]","[1,1,1]","[0.04796531736619018,0.0869280882862011]","[1,1,1]","[-0.06294486373739915,0.045199330838637405]","[1,1,1]","[0.18670139445612907,0.03915047316558262]","[-1,-1,-1]","[0.12152725641361682,-0.09840762480196258]","[-1,-1,-1]","[0.0918472547885525,0.01974154075392272]","[-1,-1,-1]","[-0.09492953593346136,-0.010914811464460853]","[-1,-1,-1]","[-0.043542712374758694,0.18386840036237986]","[1,1,1]","[0.05228832009465588,0.1306554337223032]","[-1,-1,-1]","[-0.06394059796526932,-0.09533563916342837]","[1,1,1]","[0.18334921258060363,-0.07665638891456529]","[-1,-1,-1]","[0.1635676898816722,0.10554889100432427]","[-1,-1,-1]","[0.042043739639966125,0.013817347759736405]","[-1,-1,-1]","[0.11721297766776084,0.11485916049033187]","[1,1,1]","[0.02,0.02]",89.9464,0,1,1,89,1,,,,,,,
,,,,,,,603c11e7db9042987c7180be,682db39a2ae2ce0ea5cc7930,2025-05-21_13h06.20.840,cuing_paradigm_dot,2024.1.5,Win32,60.24096386,682d556593cb38ad0a074487,,,,,,,,,,,89.9468,90.4445,,,90.6967,91.2972,left,0.5836,,,,,,,,,0.45,,,,,,90.4445,90.6966,91.2974,"[0.02447802943576382,0.04762542838826456]","[-1,-1,-1]","[0.10108363340785134,0.051525555144722755]","[-1,-1,-1]","[0.06557193491543202,-0.09458765579843058]","[1,1,1]","[0.015850228377057164,0.1311177303840134]","[1,1,1]","[-0.11606074652931435,0.08805877912827967]","[1,1,1]","[-0.13722760021592087,0.021979902518834842]","[-1,-1,-1]","[-0.14294596051163022,-0.13792730116822238]","[-1,-1,-1]","[0.06539100148524533,-0.15524143783076835]","[1,1,1]","[0.08125636422022911,0.13079427492228538]","[1,1,1]","[-0.07906674949797236,-0.13686470109081994]","[1,1,1]","[-0.13386207725998905,-0.07184943100102317]","[-1,-1,-1]","[-0.17840859204056086,0.024566945919636166]","[-1,-1,-1]","[-0.053028747784060894,0.013074166828318683]","[1,1,1]","[0.006648766688328623,-0.165582487328377]","[-1,-1,-1]","[0.059506854880768435,-0.042951212841921514]","[1,1,1]","[-0.03867605251351952,0.0682282837342266]","[-1,-1,-1]","[-0.08260558492442246,0.06470046166330119]","[1,1,1]","[-0.18593634210736154,-0.07322087232060467]","[-1,-1,-1]","[-0.007803968143515093,0.19076952402690484]","[-1,-1,-1]","[0.15855384748272047,0.10145896717730395]","[1,1,1]","[-0.07135851469772864,-0.08454752140652705]","[-1,-1,-1]","[0.17558630046723409,-0.01909166386777515]","[1,1,1]","[-0.04268326666904104,-0.17500978512714369]","[1,1,1]","[0.12624215111428888,-0.04213062287143675]","[-1,-1,-1]","[-0.09852766433724666,0.12902241944900494]","[-1,-1,-1]","[0.13831626210339362,-0.13667062668949495]","[1,1,1]","[0.03928976464816157,0.0976543063735615]","[1,1,1]","[0.1822647347233547,-0.061788967972998834]","[-1,-1,-1]","[0.14278155562857514,0.013049879566682602]","[-1,-1,-1]","[-0.13976685674574363,0.14250369967096915]","[-1,-1,-1]","[-0.007988701724272922,-0.03712476795712268]","[-1,-1,-1]","[-0.056208419433403614,0.18297841677895496]","[-1,-1,-1]","[0.02,0.02]",92.3938,0,2,2,81,1,,,,,,,
,,,,,,,603c11e7db9042987c7180be,682db39a2ae2ce0ea5cc7930,2025-05-21_13h06.20.840,cuing_paradigm_dot,2024.1.5,Win32,60.24096386,682d556593cb38ad0a074487,,,,,,,,,,,92.3946,92.8933,,,93.1465,93.7109,left,0.5366,,,,,,,,,0.4,,,,,,92.8934,93.1465,93.711,"[-0.1528290456417182,0.01042666276474218]","[-1,-1,-1]","[-0.0030757113271794624,-0.10198886889836538]","[1,1,1]","[0.06187729929531603,-0.1420649208399206]","[-1,-1,-1]","[0.02518476655369471,0.03432472594640881]","[1,1,1]","[0.06222798711644112,-0.015744228341113706]","[1,1,1]","[0.07784966576564525,0.1270016365340937]","[-1,-1,-1]","[0.13090410902902508,0.13054357480988849]","[1,1,1]","[0.059787669190030535,-0.07953354513313228]","[-1,-1,-1]","[0.13180753769237336,-0.06052539532919234]","[1,1,1]","[0.009699172300698888,0.09533935130463297]","[-1,-1,-1]","[0.17910925939294142,-0.0747775277170596]","[-1,-1,-1]","[-0.01592915247015341,0.017969734538904224]","[-1,-1,-1]","[-0.12794886240794562,-0.03541136639548922]","[1,1,1]","[-0.17027303308819325,-0.10110711852560407]","[1,1,1]","[0.111914084007024,0.07118821997921718]","[-1,-1,-1]","[0.06645437726547745,0.08580009463241543]","[-1,-1,-1]","[-0.14295012679926672,0.04937626072405309]","[-1,-1,-1]","[-0.04403379865849471,-0.1139407442653558]","[-1,-1,-1]","[-0.08035067740891069,-0.05774148584129961]","[-1,-1,-1]","[0.15203868356660372,-0.002576474072276732]","[1,1,1]","[-0.05918709931328639,-0.1892592042199843]","[-1,-1,-1]","[-0.051313345987262435,0.17752324204165068]","[1,1,1]","[0.0650028939169066,0.1668773851231947]","[-1,-1,-1]","[-0.07922392574243478,0.0735365247605825]","[-1,-1,-1]","[-0.1554988164848888,0.1042728929413448]","[-1,-1,-1]","[0.10197589254529364,-0.020634228133005406]","[1,1,1]","[0.1812066346790307,-0.031044832459908824]","[-1,-1,-1]","[-0.12176714411865028,-0.12015362034432579]","[-1,-1,-1]","[0.12162364753365969,-0.10074165509408198]","[1,1,1]","[-0.17900513594105263,-0.05497873230004135]","[1,1,1]","[0.18928028731347896,0.038131692246808686]","[1,1,1]","[-0.04066342796090831,0.054138932771919064]","[-1,-1,-1]","[0.02,0.02]",94.8104,0,3,3,59,1,,,,,,,
,,,,,,,603c11e7db9042987c7180be,682db39a2ae2ce0ea5cc7930,2025-05-21_13h06.20.840,cuing_paradigm_dot,2024.1.5,Win32,60.24096386,682d556593cb38ad0a074487,,,,,,,,,,,94.8112,95.3101,,,95.5606,96.2783,right,0.6992,,,,,,,,,0.4,,,,,,95.3102,95.5604,96.2784,"[-0.13835892792071589,0.11284311870377088]","[1,1,1]","[0.11647055701055395,-0.010545153473807616]","[1,1,1]","[0.03121538738652364,0.08449861916589273]","[-1,-1,-1]","[-0.08473290105473093,-0.104473240086293]","[-1,-1,-1]","[-0.04159819405407918,-0.17097875962927464]","[-1,-1,-1]","[-0.12991253064629021,-0.006758542740456716]","[-1,-1,-1]","[0.14398018242652907,0.12898326958823966]","[1,1,1]","[-0.07112446395802872,0.12141911254989861]","[1,1,1]","[0.1829773975393834,0.07799718748830166]","[-1,-1,-1]","[0.13103017689322835,0.04812753006100805]","[-1,-1,-1]","[-0.1780110000160677,-0.045397739701289685]","[1,1,1]","[-0.0012206392380800224,0.18388901434687172]","[-1,-1,-1]","[-0.10572967402979834,0.07791644649770335]","[-1,-1,-1]","[0.16079432000046825,0.01992059146744244]","[1,1,1]","[-0.17178735132895234,0.048955347550194456]","[1,1,1]","[-0.08158918186428545,-0.1565043311954117]","[-1,-1,-1]","[0.036322058273888895,-0.18344355686422387]","[-1,-1,-1]","[0.07069861258712021,0.05242971958586469]","[-1,-1,-1]","[-0.0754774776170477,-0.06392395108088314]","[1,1,1]","[-0.007833525039682241,0.12732119971395775]","[-1,-1,-1]","[0.1182326858573849,-0.08481541184270633]","[-1,-1,-1]","[-0.043590713308347316,0.17853595543342135]","[1,1,1]","[-0.1803018701665692,-0.08560501705692493]","[-1,-1,-1]","[0.1062621084169892,0.08315839568735246]","[-1,-1,-1]","[0.013511941417198421,-0.02601390722754012]","[-1,-1,-1]","[-0.02978775494746733,0.01745416888277434]","[1,1,1]","[0.18395053260998429,-0.03710255980203014]","[1,1,1]","[-0.03490968890949543,-0.1031793793711258]","[1,1,1]","[0.0021601145649566057,-0.08412954885156403]","[-1,-1,-1]","[-0.015139633620834803,0.06629983562951244]","[1,1,1]","[0.10071850955009906,0.1412145684961212]","[-1,-1,-1]","[0.08906145132757057,-0.11508635638068869]","[-1,-1,-1]","[0.02,0.02]",97.3762,0,4,4,46,1,,,,,,,
,,,,,,,603c11e7db9042987c7180be,682db39a2ae2ce0ea5cc7930,2025-05-21_13h06.20.840,cuing_paradigm_dot,2024.1.5,Win32,60.24096386,682d556593cb38ad0a074487,,,,,,,,,,,97.3771,97.8762,,,98.1269,98.7757,left,0.629,,,,,,,,,0.45,,,,,,97.8763,98.1268,98.7759,"[0.17096883358235113,0.03403516914228368]","[1,1,1]","[-0.06362285795318798,-0.08201863795311377]","[-1,-1,-1]","[0.025812013972059344,0.1265824795375683]","[-1,-1,-1]","[0.12716564288621457,-0.005362477683385072]","[1,1,1]","[-0.06739074625584492,0.036840779526288156]","[1,1,1]","[-0.0594163162552606,0.10935930178504384]","[1,1,1]","[0.008796861667213062,0.051288611850942585]","[-1,-1,-1]","[0.06615958072574991,0.17710288028424895]","[-1,-1,-1]","[0.021349551524717948,-0.16594904922719392]","[-1,-1,-1]","[0.046943948983067564,-0.10983796556860377]","[-1,-1,-1]","[-0.04258657991580698,0.1851881222239776]","[1,1,1]","[-0.1201167605818817,0.0392763488430278]","[-1,-1,-1]","[0.03169703545330185,-0.05171125363739398]","[-1,-1,-1]","[0.08845422759740072,0.12362891811985596]","[1,1,1]","[-0.03452697188776525,-0.13007475213519504]","[-1,-1,-1]","[0.14588290607815674,0.11405531132782976]","[1,1,1]","[0.007343737958205107,-0.091275814126709]","[-1,-1,-1]","[0.13343740452251748,0.056378022362467195]","[1,1,1]","[0.14845139155032203,-0.06322180950530684]","[-1,-1,-1]","[-0.0032138961582314465,0.09707518328543471]","[1,1,1]","[-0.17440491042431935,-0.07384306597704808]","[-1,-1,-1]","[0.04880169069878683,0.03735384510725067]","[-1,-1,-1]","[-0.15153789691158043,0.11885889919161392]","[1,1,1]","[-0.02290254247580204,-0.020326700327947457]","[1,1,1]","[0.10036633157615117,-0.046373174929669234]","[-1,-1,-1]","[-0.09028269421802715,-0.15853907066859052]","[-1,-1,-1]","[-0.12556207192772298,-0.10050010485307216]","[-1,-1,-1]","[0.1762894675428064,-0.01185064657494132]","[-1,-1,-1]","[0.026957829467511074,0.19339834255473975]","[1,1,1]","[-0.1019341532174153,-0.0060813075393258385]","[1,1,1]","[-0.1900269268819879,-0.009259190463861873]","[1,1,1]","[0.11911756232702998,-0.14083033475953594]","[-1,-1,-1]","[0.02,0.02]",99.8758,0,5,5,61,1,,,,,,,
,,,,,,,603c11e7db9042987c7180be,682db39a2ae2ce0ea5cc7930,2025-05-21_13h06.20.840,cuing_paradigm_dot,2024.1.5,Win32,60.24096386,682d556593cb38ad0a074487,,,,,,,,,,,99.8765,100.3756,,,100.6263,101.1927,right,0.5366,,,,,,,,,0.5,,,,,,100.3757,100.6262,101.1928,"[0.1706498440518383,0.04581460107437118]","[1,1,1]","[0.07057588389623973,0.15197018627135933]","[-1,-1,-1]","[-0.12450401429238407,-0.10976507122787739]","[-1,-1,-1]","[-0.1476547712158293,0.056201247413328326]","[1,1,1]","[0.027733152124108554,0.12358669019027518]","[1,1,1]","[-0.020929871868691413,0.08414495428039208]","[-1,-1,-1]","[-0.06365045677843305,0.13423830847628357]","[-1,-1,-1]","[0.049985058996468594,0.07493132224070038]","[-1,-1,-1]","[0.08845448948349854,0.030433686449283584]","[1,1,1]","[0.11550499656338867,0.10516649592893693]","[1,1,1]","[-0.0714568206014139,0.055146507198327935]","[1,1,1]","[-0.059874353324178384,-0.13146986577654685]","[1,1,1]","[0.016575426322282052,-0.18287390091107633]","[-1,-1,-1]","[0.0015272851511512497,-0.03775401739129232]","[1,1,1]","[0.15677775761660998,-0.058681572738710414]","[-1,-1,-1]","[-0.011221266163799709,-0.11344715249550992]","[1,1,1]","[-0.02626827579846223,0.16323025441439593]","[-1,-1,-1]","[0.12196042451375763,-0.09597034943803362]","[1,1,1]","[-0.13897016567514625,-0.05751565284381166]","[-1,-1,-1]","[0.08863902629361917,-0.14191740006612485]","[1,1,1]","[-0.0785680027456164,0.17889499691648963]","[-1,-1,-1]","[-0.01913584796478349,0.023722767305549855]","[1,1,1]","[0.11955238409011365,-0.03079778371292183]","[1,1,1]","[-0.1356832450505467,0.006484774951667894]","[1,1,1]","[-0.16888209353627623,-0.022452684173764535]","[-1,-1,-1]","[0.13237315213582998,0.03166920673089799]","[-1,-1,-1]","[0.1858595527267449,-0.027854125028857053]","[-1,-1,-1]","[-0.05359048080190044,-0.07381016066046615]","[-1,-1,-1]","[0.05624664989627474,-0.054060236369472506]","[-1,-1,-1]","[-0.1359857420568681,0.11475314882247616]","[-1,-1,-1]","[0.031178979872668072,0.012289212017438725]","[1,1,1]","[-0.18171476228523056,0.017210240346670996]","[1,1,1]","[0.02,0.02]",102.292,0,6,6,108,1,,,,,,,
,,,,,,,603c11e7db9042987c7180be,682db39a2ae2ce0ea5cc7930,2025-05-21_13h06.20.840,cuing_paradigm_dot,2024.1.5,Win32,60.24096386,682d556593cb38ad0a074487,,,,,,,,,,,102.2927,102.7914,,,103.0445,103.5748,right,0.5044,,,,,,,,,0.45,,,,,,102.7915,103.0445,103.575,"[-0.05107885365187904,-0.1072483716620787]","[-1,-1,-1]","[-0.14471677366908087,-0.025532084081442148]","[-1,-1,-1]","[-0.06629208168739126,-0.1841373539390075]","[1,1,1]","[-0.08090839951987248,0.10651553122544265]","[1,1,1]","[-0.005074759982906143,-0.12409370808344944]","[1,1,1]","[0.06354916564674849,-0.132681034248587]","[-1,-1,-1]","[-0.057353612413262194,0.14642267814396967]","[1,1,1]","[-0.0010380638262068483,0.08129625197359801]","[-1,-1,-1]","[0.0705401881434503,0.009409680861669937]","[-1,-1,-1]","[-0.16577215484289776,-0.08393941847899718]","[1,1,1]","[-0.17101963901618847,0.04979189428273308]","[-1,-1,-1]","[-0.11337729032824248,0.0466552260984536]","[1,1,1]","[0.07411367928491458,-0.04747689066037012]","[-1,-1,-1]","[-0.05163893285251089,0.02425034131553646]","[1,1,1]","[0.03281392515182823,-0.07778951065429264]","[-1,-1,-1]","[0.11307084684960475,-0.12318025823884592]","[1,1,1]","[-0.06451128564091142,-0.05999594132633675]","[-1,-1,-1]","[0.12643870550817712,0.022683603432807654]","[-1,-1,-1]","[0.13989910599509994,0.1056654418494066]","[-1,-1,-1]","[-0.022446755514081453,-0.004161823402265711]","[-1,-1,-1]","[-0.07919080764607721,-0.14602283402102717]","[-1,-1,-1]","[0.181124576317293,-0.041975912375556416]","[-1,-1,-1]","[0.19530175648354423,0.03084306602584828]","[-1,-1,-1]","[0.09799672021865152,0.1474071308338709]","[1,1,1]","[0.05826691657158338,0.1060216341329397]","[-1,-1,-1]","[-0.008817764002205198,-0.07655665582268975]","[1,1,1]","[0.15035812598223108,0.0638366263534107]","[-1,-1,-1]","[-0.04176355926950946,0.07116962982545107]","[1,1,1]","[0.016534782411874012,0.16293307990600395]","[1,1,1]","[0.03272611233261847,-0.0075444248584281655]","[-1,-1,-1]","[0.054099198698442104,-0.19131055655202467]","[1,1,1]","[0.13774795873613235,-0.02844392541628824]","[1,1,1]","[0.02,0.02]",104.6748,0,7,7,72,1,,,,,,,
,,,,,,,603c11e7db9042987c7180be,682db39a2ae2ce0ea5cc7930,2025-05-21_13h06.20.840,cuing_paradigm_dot,2024.1.5,Win32,60.24096386,682d556593cb38ad0a074487,,,,,,,,,,,104.6757,105.1746,,,105.4249,106.0082,right,0.5532,,,,,,,,,0.9,,,,,,105.1747,105.4249,106.0083,"[-0.06015539588944805,0.15012392698311258]","[1,1,1]","[0.05320140427376103,0.12013921457219967]","[1,1,1]","[0.029109323131265647,-0.029823837512642937]","[1,1,1]","[0.12722474115881055,0.06651472688299338]","[1,1,1]","[0.1005720163648596,-0.008184529890977987]","[1,1,1]","[0.10110968058354071,-0.16554613479083752]","[1,1,1]","[-0.08801843006123658,-0.06389699240249161]","[1,1,1]","[-0.15905503794956166,-0.1036753022300918]","[1,1,1]","[-0.11387450497328061,0.08143809800382934]","[1,1,1]","[-0.025686363091155563,0.19018879155472374]","[1,1,1]","[-0.007742956460171628,0.12333564276902123]","[1,1,1]","[0.11362449927917127,0.13622318270656852]","[1,1,1]","[0.020245187126342348,0.05517347035892487]","[1,1,1]","[-0.09086690007618525,0.03058968863057255]","[-1,-1,-1]","[0.02854602910159931,-0.1845135411170941]","[1,1,1]","[0.049970735147707356,-0.14440996730274222]","[-1,-1,-1]","[0.10154512655045997,-0.10870267577127393]","[1,1,1]","[0.06535294492026358,0.027339175424962916]","[1,1,1]","[-0.1485955036732708,0.1288620847072573]","[1,1,1]","[0.1937443861741707,-0.022879559454450464]","[1,1,1]","[-0.04478656225942889,-0.11445777181007517]","[1,1,1]","[-0.14754144828283677,0.031358588372517766]","[1,1,1]","[0.011055493959441427,-0.11576342693390321]","[1,1,1]","[-0.07881060068001815,-0.010002774201737771]","[1,1,1]","[0.01873595297457092,-0.07521113155059055]","[-1,-1,-1]","[-0.04004833409692202,-0.15552337407281336]","[1,1,1]","[-0.14518264192391334,-0.058033350015738096]","[1,1,1]","[-0.01623070289465387,-0.0165787973545403]","[1,1,1]","[0.017071157359835165,0.18517361110001646]","[1,1,1]","[-0.10656395980876181,-0.12921214186665528]","[1,1,1]","[-0.011004181694290738,0.08162204357170277]","[1,1,1]","[-0.13166568558680244,-0.0133113004595447]","[1,1,1]","[0.02,0.02]",107.1072,0,8,8,192,1,,,,,,,
,,,,,,,603c11e7db9042987c7180be,682db39a2ae2ce0ea5cc7930,2025-05-21_13h06.20.840,cuing_paradigm_dot,2024.1.5,Win32,60.24096386,682d556593cb38ad0a074487,,,,,,,,,,,107.108,107.6068,,,107.8582,108.4731,left,0.5885,,,,,,,,,0.5,,,,,,107.6069,107.8581,108.4733,"[0.12155311545008529,-0.13581125142019618]","[1,1,1]","[0.11684648077183919,-0.08549613520171931]","[1,1,1]","[0.010911786213822636,-0.029309341659400075]","[-1,-1,-1]","[0.021640826928969556,0.08196213322866645]","[1,1,1]","[-0.07233295303658852,-0.14406152645739922]","[-1,-1,-1]","[-0.07694798239735015,0.1603885173919684]","[-1,-1,-1]","[-0.08274437295673819,-0.016358475747998102]","[1,1,1]","[0.07394720148044014,0.14575233319302172]","[1,1,1]","[0.15560011303481855,-0.0041365994148146006]","[1,1,1]","[-0.03737047107709588,-0.16894638006390567]","[1,1,1]","[-0.14791913749213798,-0.00991295134406465]","[1,1,1]","[0.15976681100396786,0.07111133948921228]","[1,1,1]","[0.001814763716261037,-0.11464167573877304]","[1,1,1]","[-0.030510721957925674,-0.05830881657125658]","[-1,-1,-1]","[0.10142729618899594,0.006523200056571393]","[1,1,1]","[-0.018622735209564655,0.12934694894971072]","[-1,-1,-1]","[0.1437569505729289,-0.04249525894209502]","[-1,-1,-1]","[-0.1344489296729259,0.11017040050372502]","[-1,-1,-1]","[-0.10638349550860776,-0.07246179016276755]","[1,1,1]","[-0.03165746540499861,0.08869320092117719]","[-1,-1,-1]","[0.029343964411093732,0.03447692572522736]","[1,1,1]","[-0.19203229503348082,-0.024230012097254727]","[1,1,1]","[-0.11615662422840202,0.14753698485903877]","[-1,-1,-1]","[0.05210141895032487,-0.09511500843770218]","[-1,-1,-1]","[0.05717848106749251,-0.15811752844224267]","[-1,-1,-1]","[-0.10407770247704042,0.02041026469986268]","[-1,-1,-1]","[-0.021699910336325474,0.03674679864895127]","[-1,-1,-1]","[0.08116437783797074,-0.03888373309966936]","[-1,-1,-1]","[-0.18955275495416157,0.030355870571666815]","[1,1,1]","[-0.15959178996143833,-0.08971367559840482]","[-1,-1,-1]","[0.17930389802171806,-0.08035638535923158]","[1,1,1]","[0.01622627672228474,-0.17134861599751994]","[-1,-1,-1]","[0.02,0.02]",109.5733,0,9,9,119,1,,,,,,,
,,,,,,,603c11e7db9042987c7180be,682db39a2ae2ce0ea5cc7930,2025-05-21_13h06.20.840,cuing_paradigm_dot,2024.1.5,Win32,60.24096386,682d556593cb38ad0a074487,,,,,,,,,,,109.5741,110.0736,,,110.3244,110.809,right,0.4661,,,,,,,,,0.55,,,,,,110.0737,110.3243,110.809,"[0.14723018111342204,-0.1350584105298447]","[-1,-1,-1]","[-0.11141736450305256,0.11162801087201436]","[-1,-1,-1]","[-0.02658162876413506,0.030226431407693505]","[1,1,1]","[0.06350606170346818,0.11043058006774652]","[1,1,1]","[-0.005122748897976964,0.13453189231730278]","[-1,-1,-1]","[0.015077576893012382,0.09562224546892813]","[-1,-1,-1]","[0.16668307841814606,-0.06558803293546067]","[-1,-1,-1]","[0.05629335820623541,-0.13501728591169587]","[1,1,1]","[0.011008568020010092,0.17666057533223353]","[1,1,1]","[-0.13186685967722578,-0.0018419677028258476]","[1,1,1]","[0.112327498627195,-0.034835512821782585]","[1,1,1]","[0.07750395951368493,-0.17773737081175628]","[-1,-1,-1]","[0.11502484336225031,-0.08875059432734204]","[-1,-1,-1]","[0.11500396140689803,0.11059867056744045]","[1,1,1]","[-0.12892290721521543,-0.08570455723267081]","[-1,-1,-1]","[0.11780345823404392,0.018413197550262942]","[1,1,1]","[-0.06708745386699368,-0.02462620074552317]","[-1,-1,-1]","[-0.1042273253977442,-0.16158750936757518]","[1,1,1]","[-0.05658475300445162,0.06096910849855393]","[1,1,1]","[-0.1537005471572449,-0.12416722780305563]","[1,1,1]","[-0.16083985930932407,0.11162360435704476]","[1,1,1]","[0.17084485526733614,0.04361371868717742]","[1,1,1]","[0.16901920517608462,0.09308241841701982]","[1,1,1]","[-0.05736171973417352,-0.1341498773263822]","[1,1,1]","[-0.0016621997788324656,-0.11322281030853105]","[-1,-1,-1]","[-0.1802384659656098,0.0013183635186905626]","[-1,-1,-1]","[-0.03930625656689948,-0.17832673313559164]","[-1,-1,-1]","[-0.11957175549883314,0.15140810026683874]","[1,1,1]","[-0.07066012877205154,0.17074206158818034]","[-1,-1,-1]","[0.06075902159648605,0.16463037258532004]","[1,1,1]","[-0.18703827007557228,0.05068385316666008]","[1,1,1]","[-0.11753693056510647,0.042283483420899604]","[-1,-1,-1]","[0.02,0.02]",111.9083,0,10,10,122,1,,,,,,,
,,,,,,,603c11e7db9042987c7180be,682db39a2ae2ce0ea5cc7930,2025-05-21_13h06.20.840,cuing_paradigm_dot,2024.1.5,Win32,60.24096386,682d556593cb38ad0a074487,,,,,,,,,,,111.9088,112.406,,,112.6571,113.0225,left,0.3416,,,,,,,,,0.1,,,,,,112.4062,112.657,113.0226,"[-0.04085698441203819,0.026594436212818488]","[-1,-1,-1]","[0.02528564370924762,0.055320224479654845]","[-1,-1,-1]","[0.14922763673295136,-0.06940540955119953]","[1,1,1]","[-0.08616881964689649,0.08010256557169185]","[-1,-1,-1]","[0.1763222119659564,0.009345090540240795]","[-1,-1,-1]","[0.06813014765296507,0.13476790214673262]","[-1,-1,-1]","[-0.14576217228090452,0.006586174161197883]","[-1,-1,-1]","[-0.11085752761640408,-0.09608542101723276]","[-1,-1,-1]","[-0.022931212954993476,0.14405344340988527]","[-1,-1,-1]","[0.14190321649613438,0.1371313928303125]","[-1,-1,-1]","[0.02324424625885359,0.1678233275475666]","[-1,-1,-1]","[-0.07726763681013728,-0.06668506202643397]","[-1,-1,-1]","[0.07850148645438973,0.06284773642104267]","[-1,-1,-1]","[-0.0723899782320643,0.1447672123895282]","[-1,-1,-1]","[0.07042553532894409,-0.11444943552727818]","[-1,-1,-1]","[-0.10871853721567844,-0.01776499732359475]","[-1,-1,-1]","[0.017359247989965305,-0.1854495372317329]","[-1,-1,-1]","[-0.16803480401023646,0.07989457700039584]","[-1,-1,-1]","[-0.18330373075179487,-0.05239460240259375]","[-1,-1,-1]","[-0.18426685289473568,0.03872249381182414]","[-1,-1,-1]","[-0.07148295480533137,-0.11090989420082556]","[-1,-1,-1]","[-0.04035778084946235,-0.029136037185636045]","[1,1,1]","[0.133167827995079,0.007746413031117228]","[-1,-1,-1]","[0.12819762391169706,0.0711894000774319]","[-1,-1,-1]","[0.03868876488686448,0.007472596657305735]","[1,1,1]","[-0.1170572936198585,0.15820227781593407]","[-1,-1,-1]","[0.08481907239869979,-0.04733336156735357]","[-1,-1,-1]","[0.10344499720699289,-0.14646056644061398]","[-1,-1,-1]","[0.14470190920418438,-0.1357891889138722]","[-1,-1,-1]","[0.0058317981333218475,-0.129267173061264]","[-1,-1,-1]","[-0.03668414896138401,-0.14585179111697008]","[-1,-1,-1]","[-0.1507135626636263,-0.10226900893126505]","[-1,-1,-1]","[0.02,0.02]",114.1229,0,11,11,13,1,,,,,,,
,,,,,,,603c11e7db9042987c7180be,682db39a2ae2ce0ea5cc7930,2025-05-21_13h06.20.840,cuing_paradigm_dot,2024.1.5,Win32,60.24096386,682d556593cb38ad0a074487,,,,,,,,,,,114.1236,114.623,,,114.8733,115.2392,left,0.3436,,,,,,,,,0.1,,,,,,114.6231,114.8733,115.2392,"[0.04410385493547663,-0.03077398886592696]","[-1,-1,-1]","[0.025471377524985246,0.11317757516046581]","[-1,-1,-1]","[0.0959020268367991,0.1269297300194461]","[-1,-1,-1]","[0.10503051875055215,-0.03330410753621505]","[-1,-1,-1]","[-0.03955632671241864,-0.0010305099344172363]","[-1,-1,-1]","[0.04510797668092444,0.19044785039849202]","[-1,-1,-1]","[-0.010307852059334481,0.1755016423670157]","[-1,-1,-1]","[-0.08212639373201171,-0.0713111101925163]","[1,1,1]","[0.0419903800410217,-0.0923302569442251]","[-1,-1,-1]","[-0.12520344205088962,0.04502122485823919]","[-1,-1,-1]","[0.08237923370889118,0.16900225432859947]","[-1,-1,-1]","[-0.04711247431905585,0.03908758246327815]","[-1,-1,-1]","[0.1539933093581985,-0.05717906105729559]","[-1,-1,-1]","[-0.08288980469643627,0.09639456329872413]","[1,1,1]","[0.11756677187846634,0.050313016979378]","[-1,-1,-1]","[-0.009851822051393967,-0.11862955468955247]","[1,1,1]","[0.08274826655724675,-0.1411440704774327]","[-1,-1,-1]","[0.18550483114858726,0.03246202920084154]","[-1,-1,-1]","[0.15714659231724443,0.08172986619549878]","[-1,-1,-1]","[-0.08860045110691141,0.13662665278997171]","[-1,-1,-1]","[-0.12999321252745455,-0.12011700923808]","[-1,-1,-1]","[-0.07095007771753321,-0.1264753461379368]","[-1,-1,-1]","[0.05169587639546268,0.01078053797404156]","[-1,-1,-1]","[0.13335138319012577,0.14346912478711496]","[-1,-1,-1]","[-0.1951251121327573,0.015866298111284788]","[-1,-1,-1]","[-0.16085178837937644,0.11394741385597294]","[-1,-1,-1]","[0.02687696514817574,0.1533552583577134]","[-1,-1,-1]","[0.1231879780726088,-0.1291198473398729]","[-1,-1,-1]","[-0.0436771071147707,0.13987783280081825]","[-1,-1,-1]","[0.0020652515885468074,0.065964983140423]","[-1,-1,-1]","[-0.06045833607718862,0.18580116997922816]","[-1,-1,-1]","[0.0368434784935116,-0.16034263631948995]","[-1,-1,-1]","[0.02,0.02]",116.3387,0,12,12,7,1,,,,,,,
,,,,,,,603c11e7db9042987c7180be,682db39a2ae2ce0ea5cc7930,2025-05-21_13h06.20.840,cuing_paradigm_dot,2024.1.5,Win32,60.24096386,682d556593cb38ad0a074487,,,,,,,,,,,116.3395,116.8386,,,117.0894,117.6385,right,0.5218,,,,,,,,,0.55,,,,,,116.8388,117.0894,117.6386,"[-0.0939514117971604,0.0759694768810907]","[1,1,1]","[-0.005830210228458602,-0.11012901789323767]","[1,1,1]","[-0.00030640330466995063,0.10828622962008846]","[-1,-1,-1]","[0.11003518522711947,-0.09097988763860028]","[-1,-1,-1]","[-0.14766762841319414,0.10413645376153961]","[-1,-1,-1]","[-0.015288740249174463,0.15218303855952683]","[1,1,1]","[0.06395489365008758,0.15386195893016638]","[-1,-1,-1]","[-0.04720641424837915,-0.11921764574851013]","[1,1,1]","[-0.13892929640710647,-0.11543697196710646]","[1,1,1]","[-0.06604812625727546,0.03911856718315838]","[-1,-1,-1]","[0.081660319735089,-0.003964091987899354]","[1,1,1]","[0.14684571247468112,0.012407997105327868]","[-1,-1,-1]","[0.002026421401310444,-0.196589343376536]","[1,1,1]","[-0.04790765385113024,0.10143579562621133]","[-1,-1,-1]","[0.19388593867344206,-0.01077278474834281]","[1,1,1]","[0.003193169201246417,-0.0043666239604747735]","[1,1,1]","[0.019883163683166633,0.04195231010132883]","[1,1,1]","[0.09883007179089408,0.07878198743295793]","[-1,-1,-1]","[0.048578800436752514,-0.16366046745522647]","[1,1,1]","[0.07630046126651116,-0.05734956919324663]","[1,1,1]","[-0.07517434080764802,-0.0005887772308155055]","[1,1,1]","[-0.15986146864003611,-0.01864180109941776]","[-1,-1,-1]","[-0.11245443006155732,0.1348601095511598]","[-1,-1,-1]","[0.04493536032615713,-0.11465956168595702]","[-1,-1,-1]","[0.11706455501758477,-0.14827495029159618]","[-1,-1,-1]","[-0.008633161661107868,-0.06575219689414134]","[1,1,1]","[-0.1502142786853574,-0.07673406798859311]","[1,1,1]","[-0.04522621937773751,-0.1630210856871164]","[-1,-1,-1]","[-0.08745856489353507,-0.14723147592041116]","[1,1,1]","[-0.15419454806584512,0.029847603764939046]","[1,1,1]","[-0.05478526683039686,0.16239664497818238]","[-1,-1,-1]","[0.12321624683995942,-0.042988039472170975]","[1,1,1]","[0.02,0.02]",118.7386,0,13,13,145,1,,,,,,,
,,,,,,,603c11e7db9042987c7180be,682db39a2ae2ce0ea5cc7930,2025-05-21_13h06.20.840,cuing_paradigm_dot,2024.1.5,Win32,60.24096386,682d556593cb38ad0a074487,,,,,,,,,,,118.7392,119.2384,,,119.4902,119.924,left,0.4164,,,,,,,,,0.6,,,,,,119.2385,119.4902,119.9241,"[0.0016388848041023229,-0.12822821015457658]","[1,1,1]","[-0.15094758026800434,-0.11109198731249074]","[-1,-1,-1]","[-0.10422344719131207,-0.0760170033235665]","[1,1,1]","[0.054984852031125304,-0.048473159610256986]","[1,1,1]","[-0.003589058873782423,-0.1850101289682235]","[1,1,1]","[-0.04645584442605529,0.16361954177472032]","[-1,-1,-1]","[-0.04928574865206732,-0.008942303854242844]","[1,1,1]","[0.19727500902095513,-0.015110231393994842]","[-1,-1,-1]","[-0.14238485107073048,-0.01348342039242572]","[1,1,1]","[-0.11850517349003639,0.04006043319428201]","[1,1,1]","[0.031609984773831284,0.11570392125350676]","[1,1,1]","[-0.09226147368029361,0.17487236313046345]","[-1,-1,-1]","[0.06228073547739274,0.01641387856886956]","[-1,-1,-1]","[0.10092592008135122,-0.06892401758658469]","[1,1,1]","[-0.06345646595666694,0.07003620869139805]","[1,1,1]","[-0.0071450661678250475,0.0749974211507369]","[-1,-1,-1]","[0.15193204387170706,-0.0664718353571097]","[1,1,1]","[0.033224736618255264,0.18842695164191303]","[1,1,1]","[0.15372394556823618,-0.10670368761571737]","[-1,-1,-1]","[0.11395872233088294,-0.014818384679245946]","[1,1,1]","[-0.020825360880715307,-0.0689168115838541]","[-1,-1,-1]","[-0.07836854349848718,0.10855743091687188]","[-1,-1,-1]","[0.08488834069475419,-0.11745591521604824]","[-1,-1,-1]","[-0.07324802215042407,-0.13088735982554314]","[-1,-1,-1]","[0.07530045685516852,0.08261854184803549]","[1,1,1]","[0.07278215416791738,0.16209946909735246]","[-1,-1,-1]","[-0.15571188992507518,0.05669025452814089]","[1,1,1]","[0.0034972948250668544,0.021970147285439657]","[1,1,1]","[-0.11681903296553439,-0.13470045385730334]","[1,1,1]","[0.1722059911692308,0.07758902934724313]","[-1,-1,-1]","[0.14247551203904418,0.1355961747464528]","[1,1,1]","[-0.16237861119093291,0.10788230141661216]","[1,1,1]","[0.02,0.02]",121.0212,0,14,14,167,1,,,,,,,
,,,,,,,603c11e7db9042987c7180be,682db39a2ae2ce0ea5cc7930,2025-05-21_13h06.20.840,cuing_paradigm_dot,2024.1.5,Win32,60.24096386,682d556593cb38ad0a074487,,,,,,,,,,,121.022,121.5212,,,121.7742,122.4214,left,0.6211,,,,,,,,,0.4,,,,,,121.5213,121.7741,122.4215,"[-0.08794854718942496,0.02779333597335888]","[-1,-1,-1]","[-0.10271714997196756,0.14385616977466847]","[1,1,1]","[-0.12495702404731336,-0.09999210874426157]","[1,1,1]","[0.09841494962828128,-0.09067079729066256]","[1,1,1]","[-0.13687681198923857,0.11176475560478553]","[-1,-1,-1]","[-0.12143088505397896,0.07410331868377741]","[1,1,1]","[0.11371522944913712,0.11801766583093236]","[-1,-1,-1]","[-0.07999631532147039,-0.04073471957429677]","[-1,-1,-1]","[-0.18086149034238094,0.07864359974714522]","[1,1,1]","[0.11201952661833497,-0.04925182129143348]","[-1,-1,-1]","[-0.035167773891240844,-0.14721695363634257]","[-1,-1,-1]","[0.10997089396518699,0.015957640697121325]","[-1,-1,-1]","[0.07169343992633384,0.10558723709199398]","[-1,-1,-1]","[-0.02466726423052157,0.045028699707534856]","[-1,-1,-1]","[-0.19147357416054567,-0.02808256775891393]","[-1,-1,-1]","[-0.1344129246126475,-0.05668346454337007]","[1,1,1]","[-0.007441865801224368,0.13558132228965064]","[-1,-1,-1]","[0.16005841248354544,0.11701082146675286]","[1,1,1]","[0.04084189663912532,0.07589245935318971]","[-1,-1,-1]","[0.16548833038910815,0.05795629082144021]","[1,1,1]","[-0.19426203160550937,0.01259401462220333]","[1,1,1]","[0.1397862636221121,-0.098861604964644]","[-1,-1,-1]","[-0.1779072571389146,-0.08133280561235019]","[-1,-1,-1]","[0.08927178706354437,0.17245212435907278]","[-1,-1,-1]","[-0.0023675276611985017,-0.1986363927728078]","[1,1,1]","[0.018619202919742242,0.19050888270607078]","[1,1,1]","[-0.1427516296941457,0.031467066997999414]","[1,1,1]","[0.17776902823100524,-0.07599070631264117]","[1,1,1]","[-0.004571710610433907,-0.019724005846467475]","[-1,-1,-1]","[-0.13784469682564637,-0.13965124547619992]","[-1,-1,-1]","[-0.04192806188973173,0.17240801975415354]","[-1,-1,-1]","[0.14819224881176624,0.001042445281109217]","[-1,-1,-1]","[0.02,0.02]",123.5208,0,15,15,49,1,,,,,,,
,,,,,,,603c11e7db9042987c7180be,682db39a2ae2ce0ea5cc7930,2025-05-21_13h06.20.840,cuing_paradigm_dot,2024.1.5,Win32,60.24096386,682d556593cb38ad0a074487,,,,,,,,,,,123.5217,124.0207,,,124.2739,124.9536,left,0.66,,,,,,,,,0.5,,,,,,124.0208,124.2738,124.9537,"[-0.08063729599986719,0.09462906042878165]","[-1,-1,-1]","[0.1045044321395443,-0.08754588980866038]","[1,1,1]","[0.11771078798062869,-0.04775654572353838]","[-1,-1,-1]","[0.16659072556870405,0.022436443838396533]","[1,1,1]","[0.013569292687661437,0.1639375505505713]","[1,1,1]","[-0.0051565816129178,-0.1484091595521172]","[1,1,1]","[-0.03866734818261717,0.0938080637874378]","[1,1,1]","[-0.04802560643705909,-0.016267254238831755]","[-1,-1,-1]","[-0.006978183209080243,-0.08039400630450581]","[-1,-1,-1]","[0.0025600463745617404,-0.035712035915592605]","[1,1,1]","[0.037964992033618576,-0.17668957581420938]","[-1,-1,-1]","[-0.06292259257459953,-0.06242876603445386]","[-1,-1,-1]","[-0.17922978536921258,-0.08242148390881987]","[1,1,1]","[0.09840035996072594,0.13503573102245328]","[1,1,1]","[0.1661689681322779,-0.07270551535085903]","[-1,-1,-1]","[-0.11546760557185186,0.13474575366628938]","[1,1,1]","[0.0926518166820659,0.013295977179285642]","[-1,-1,-1]","[-0.09359183589582254,-0.14909314849961874]","[-1,-1,-1]","[0.07302917920917135,-0.15380270504732835]","[-1,-1,-1]","[-0.1743098383295388,0.02768257046391365]","[-1,-1,-1]","[0.050418826356659716,-0.014690857284014253]","[-1,-1,-1]","[-0.11523418698044802,-0.04142939239285663]","[1,1,1]","[0.048160129275606825,-0.07756581435102247]","[1,1,1]","[0.15602339242985777,0.07775993556517208]","[1,1,1]","[-0.03248060757980201,0.13508728615318905]","[1,1,1]","[-0.09441847963105375,-0.08765068155652293]","[-1,-1,-1]","[-0.08109676107768811,0.007592018836744472]","[1,1,1]","[0.003593978776472519,0.09260489297405221]","[-1,-1,-1]","[-0.1670289086444503,0.07348160473882788]","[-1,-1,-1]","[-0.15071130863991022,-0.01656665898391648]","[-1,-1,-1]","[-0.05908684744019256,0.042457689333665144]","[1,1,1]","[0.06459776101314617,0.15699411705909172]","[1,1,1]","[0.02,0.02]",126.0535,0,16,16,107,1,,,,,,,
,,,,,,,603c11e7db9042987c7180be,682db39a2ae2ce0ea5cc7930,2025-05-21_13h06.20.840,cuing_paradigm_dot,2024.1.5,Win32,60.24096386,682d556593cb38ad0a074487,,,,,,,,,,,126.0544,126.5532,,,126.8063,127.4198,right,0.5946,,,,,,,,,0.4,,,,,,126.5533,126.8062,127.4199,"[0.02654799725406159,0.1956623631501955]","[-1,-1,-1]","[-0.15936707389125954,-0.010469778678780739]","[-1,-1,-1]","[0.11203550496097067,0.0788140642909241]","[-1,-1,-1]","[-0.06853704434748774,-0.15543913576949914]","[1,1,1]","[-0.14121989060900525,0.12578257034740034]","[-1,-1,-1]","[0.06885256644951565,0.12044398531101186]","[1,1,1]","[0.18589667379959832,0.021337085297903846]","[1,1,1]","[0.013889300810367733,-0.12127834919605301]","[-1,-1,-1]","[-0.16044317502852407,0.03402460091332575]","[-1,-1,-1]","[-0.10646614736421527,-0.11263680936485591]","[1,1,1]","[-0.12465022115177872,0.06981843272176881]","[-1,-1,-1]","[0.1515211457737671,0.05012100918774816]","[1,1,1]","[-0.10971616050293925,0.15477471357222164]","[-1,-1,-1]","[0.08630692043329072,-0.11598911016408738]","[-1,-1,-1]","[-0.059898948754000356,0.020464618639706028]","[1,1,1]","[-0.046108601475981795,-0.07165485645284202]","[-1,-1,-1]","[0.09660865957003167,-0.03748244272851647]","[1,1,1]","[0.13678402371672255,0.14323399621165295]","[1,1,1]","[-0.10153880882700864,0.10965806398811892]","[-1,-1,-1]","[-0.01614622643313494,-0.18876819001074419]","[-1,-1,-1]","[-0.13900207259417677,-0.1374743604892462]","[1,1,1]","[0.09573258576538254,0.1607391436280275]","[-1,-1,-1]","[-0.004598285550817356,0.030897481521539677]","[1,1,1]","[0.03728669470674787,0.03091338658329339]","[-1,-1,-1]","[-0.07608553173895397,0.062438527036308866]","[-1,-1,-1]","[0.1271511248806949,0.017734611851710703]","[1,1,1]","[-0.10391784174631057,-0.025890045342582504]","[-1,-1,-1]","[0.00919688033322414,-0.008406199046928842]","[-1,-1,-1]","[-0.017779263245950378,0.13721860022728236]","[-1,-1,-1]","[0.05702349851304339,0.07838110346277659]","[-1,-1,-1]","[0.03010747417987207,0.14097142555417663]","[1,1,1]","[0.1424566030961177,-0.12669132920690776]","[1,1,1]","[0.02,0.02]",128.5193,0,17,17,38,1,,,,,,,
,,,,,,,603c11e7db9042987c7180be,682db39a2ae2ce0ea5cc7930,2025-05-21_13h06.20.840,cuing_paradigm_dot,2024.1.5,Win32,60.24096386,682d556593cb38ad0a074487,,,,,,,,,,,128.5204,129.0198,,,129.2708,129.7703,right,0.471,,,,,,,,,0.55,,,,,,129.0199,129.2708,129.7704,"[0.016674006199345157,-0.1394339006177449]","[1,1,1]","[0.05309999236394985,-0.16005877466535356]","[1,1,1]","[0.17873663194056424,0.05011633418334899]","[-1,-1,-1]","[0.10969456089665847,-0.1127769442111563]","[-1,-1,-1]","[-0.1737079873261966,-0.02363723504598302]","[1,1,1]","[0.11617127979769608,-0.0358239281935285]","[1,1,1]","[0.09421269797032789,0.13624590541795378]","[1,1,1]","[-0.03430282345860733,0.16227323063300178]","[-1,-1,-1]","[-0.1606074887658627,0.05870955630367526]","[-1,-1,-1]","[-0.09964697991633817,-0.07694644143196813]","[-1,-1,-1]","[0.06565676505717563,0.07068927161804404]","[-1,-1,-1]","[0.16169056230292705,-0.10680776814724272]","[-1,-1,-1]","[0.1536037430908662,0.008724642367229094]","[1,1,1]","[-0.09140729808119946,-0.13499735762841455]","[1,1,1]","[-0.062425396552114876,-0.10061925471032104]","[-1,-1,-1]","[-0.14469697828996644,0.014386911116410937]","[-1,-1,-1]","[-0.06731610478724782,-0.01471992204659921]","[1,1,1]","[-0.04696401170541383,-0.1532496907391812]","[-1,-1,-1]","[-0.1068805443725075,0.110093492364281]","[-1,-1,-1]","[0.016611973588175753,-0.008839742158921911]","[1,1,1]","[-0.041451000502415625,0.1032571818651026]","[-1,-1,-1]","[-0.0907964493177903,0.17155143511998794]","[1,1,1]","[0.02300580673100963,0.05850999247581465]","[1,1,1]","[-0.09549411287115768,0.018475878702904153]","[1,1,1]","[-0.16614595832105397,-0.06907813444894839]","[1,1,1]","[0.01204135268712179,0.16030111314255863]","[-1,-1,-1]","[0.18253728311341416,-0.0422752814050228]","[1,1,1]","[0.05418931028662204,-0.0781207264254655]","[1,1,1]","[-0.015181488762176069,-0.11209176145846358]","[1,1,1]","[0.1503338049286101,0.09941017057487318]","[1,1,1]","[-0.006876831186132477,-0.1889727385835681]","[1,1,1]","[-0.06068659946704484,-0.060294789743263966]","[-1,-1,-1]","[0.02,0.02]",130.8692,0,18,18,133,1,,,,,,,
,,,,,,,603c11e7db9042987c7180be,682db39a2ae2ce0ea5cc7930,2025-05-21_13h06.20.840,cuing_paradigm_dot,2024.1.5,Win32,60.24096386,682d556593cb38ad0a074487,,,,,,,,,,,130.87,131.3688,,,131.6198,132.1522,left,0.512,,,,,,,,,0.1,,,,,,131.3689,131.6197,132.1523,"[-0.0974143299884585,-0.12006440215912825]","[-1,-1,-1]","[-0.06823014219711573,-0.18573039900001098]","[-1,-1,-1]","[-0.1394253811982672,-0.0721570141649995]","[1,1,1]","[0.0957669982103249,0.09150144962059985]","[-1,-1,-1]","[-0.06297625563198475,-0.045949572824778635]","[-1,-1,-1]","[-0.11187160609282694,0.037183855516074]","[-1,-1,-1]","[-0.15992008599340737,0.04545664674862114]","[-1,-1,-1]","[0.06593623471506826,0.17778249968991178]","[-1,-1,-1]","[0.08125987449644499,-0.058662275295973114]","[-1,-1,-1]","[0.006659529721559568,-0.014754185493907232]","[-1,-1,-1]","[-0.03318299693212057,0.14462207453592466]","[-1,-1,-1]","[-0.13813114818265473,-0.008210339005129]","[-1,-1,-1]","[0.17833018966056663,0.0024997314554698344]","[-1,-1,-1]","[-0.17762429662740076,0.006884035231018562]","[-1,-1,-1]","[-0.021534854782087564,-0.04565232838539226]","[1,1,1]","[0.1334772030823849,-0.1328753696726094]","[-1,-1,-1]","[0.012061281505642455,0.07983140943979385]","[-1,-1,-1]","[0.03781205786698712,0.1195628188602827]","[-1,-1,-1]","[0.08182220516856553,0.004974146075245038]","[-1,-1,-1]","[-0.00007529140967426818,-0.1533821047238889]","[-1,-1,-1]","[0.17576526055589964,0.059063818622595396]","[-1,-1,-1]","[-0.04525077948078602,-0.1092165809851512]","[1,1,1]","[-0.1638726503176683,-0.03978080797323191]","[-1,-1,-1]","[0.08771002553059278,-0.13602513640951935]","[-1,-1,-1]","[-0.12133200700836698,0.11966128011438792]","[-1,-1,-1]","[0.041007395755383855,-0.05023734827897492]","[-1,-1,-1]","[0.142848808894629,0.09050105238912254]","[-1,-1,-1]","[0.14182800767133782,0.0216594068266648]","[-1,-1,-1]","[-0.09875467426084662,0.15902868186940722]","[-1,-1,-1]","[0.1584626398865362,-0.03225069875782729]","[-1,-1,-1]","[0.006395500057813529,0.1607186310292125]","[-1,-1,-1]","[0.039359675303466575,-0.18163757523550378]","[-1,-1,-1]","[0.02,0.02]",133.252,0,19,19,25,1,,,,,,,
,,,,,,,603c11e7db9042987c7180be,682db39a2ae2ce0ea5cc7930,2025-05-21_13h06.20.840,cuing_paradigm_dot,2024.1.5,Win32,60.24096386,682d556593cb38ad0a074487,,,,,,,,,,,133.2528,133.752,,,134.0026,134.4023,right,0.3701,,,,,,,,,0.9,,,,,,133.7521,134.0025,134.4024,"[0.0003445942070423293,-0.1237749134466694]","[1,1,1]","[-0.029049814549470202,0.13997617802301066]","[1,1,1]","[-0.04635896321220259,0.046731228242111345]","[1,1,1]","[-0.053044223340560775,-0.08131224335267322]","[-1,-1,-1]","[0.09396466468270208,-0.027021154180384286]","[-1,-1,-1]","[-0.0325602199719324,-0.17514490779243752]","[1,1,1]","[0.16709548850816638,0.008345509976582774]","[1,1,1]","[-0.09670445084342646,-0.17040423767337495]","[1,1,1]","[0.14067250318415012,0.12301251953663143]","[1,1,1]","[0.0978736183131005,0.1481076195759514]","[1,1,1]","[-0.09552601705319562,0.14215850582985037]","[1,1,1]","[-0.09041513119380813,-0.10110555464746478]","[1,1,1]","[0.04084684429812554,0.0433287558316993]","[1,1,1]","[-0.13104637701394714,-0.042231620962117127]","[1,1,1]","[0.16272971793854013,-0.03366424918544498]","[1,1,1]","[0.08045765826736093,0.027885839517391275]","[1,1,1]","[0.0958153327714706,-0.14668816512797758]","[1,1,1]","[0.07894576683398054,0.18372100650754072]","[1,1,1]","[0.10932581998610359,-0.09932670079872939]","[1,1,1]","[-0.1485873239354399,-0.004776816813439956]","[1,1,1]","[0.01964699755402292,-0.03873818229517943]","[1,1,1]","[0.13456909869144865,0.043301759697376846]","[1,1,1]","[-0.12964776327175595,0.08890366885933881]","[1,1,1]","[0.009728173596870818,0.18913407938541532]","[1,1,1]","[-0.10138447678629593,0.050256026083568967]","[1,1,1]","[-0.0054859874498659885,0.004347972826246638]","[1,1,1]","[-0.07879406285381411,0.0873630426294937]","[1,1,1]","[0.06692083599102984,-0.07078166217995253]","[1,1,1]","[-0.004037578649842223,0.049372302519131744]","[1,1,1]","[0.03277689290634622,-0.19140140992544008]","[1,1,1]","[0.16324337486145196,0.0843473413650406]","[1,1,1]","[0.14906023754783385,-0.10520485307505584]","[-1,-1,-1]","[0.02,0.02]",135.5016,0,20,20,186,1,,,,,,,
,,,,,,,603c11e7db9042987c7180be,682db39a2ae2ce0ea5cc7930,2025-05-21_13h06.20.840,cuing_paradigm_dot,2024.1.5,Win32,60.24096386,682d556593cb38ad0a074487,,,,,,,,,,,135.5024,136.0012,,,136.2522,136.7178,left,0.4571,,,,,,,,,0.45,,,,,,136.0014,136.2521,136.7179,"[0.10810453258731499,-0.16551061490334826]","[1,1,1]","[0.06439150704518246,0.0880602026272023]","[-1,-1,-1]","[0.019892940434718537,0.1686797019690059]","[-1,-1,-1]","[0.1401376501050732,0.03046665734791118]","[-1,-1,-1]","[-0.016151927546309734,-0.13649424433853666]","[1,1,1]","[-0.12739912059747885,-0.09972984785949057]","[-1,-1,-1]","[-0.10369623049292429,0.021585254980825593]","[1,1,1]","[0.0815123855270136,0.011475732416819814]","[1,1,1]","[-0.04688330236464442,0.07707221746023553]","[1,1,1]","[-0.12323999350301161,-0.033260050687060914]","[-1,-1,-1]","[-0.1545597035681771,0.046852959602237364]","[-1,-1,-1]","[0.18154431181328312,-0.08215226923353543]","[1,1,1]","[-0.057112608284367525,-0.12301783587841043]","[1,1,1]","[0.06288022362300086,-0.04524563379867627]","[-1,-1,-1]","[-0.037571509608121306,-0.06766151459780906]","[-1,-1,-1]","[-0.06813211107332058,0.17462747341890145]","[-1,-1,-1]","[-0.03163432002475802,0.13154601540425934]","[-1,-1,-1]","[-0.037509784700963014,0.016674157603715444]","[-1,-1,-1]","[0.11659122260622574,-0.10428751362463602]","[1,1,1]","[0.0076705550587125755,-0.06675132895400533]","[-1,-1,-1]","[-0.07033034320602141,-0.024932168470983642]","[-1,-1,-1]","[-0.1184697348022875,0.15980569009526024]","[1,1,1]","[0.027972973967470414,-0.023878250658704706]","[1,1,1]","[0.15419803861767956,0.08756998429467547]","[1,1,1]","[0.11328685625308757,-0.0551185535117193]","[-1,-1,-1]","[0.13292821868079202,0.14865251733139623]","[1,1,1]","[0.03185544788196386,-0.11183440634194232]","[-1,-1,-1]","[0.1287801762966124,-0.009218668143009916]","[1,1,1]","[-0.11483676605074142,0.06659029612614237]","[1,1,1]","[0.04734983305159292,0.03594869066959531]","[-1,-1,-1]","[-0.10710311867147285,0.11516858781671467]","[-1,-1,-1]","[0.17809976488101356,0.0131638346198791]","[-1,-1,-1]","[0.02,0.02]",137.8177,0,21,21,78,1,,,,,,,
,,,,,,,603c11e7db9042987c7180be,682db39a2ae2ce0ea5cc7930,2025-05-21_13h06.20.840,cuing_paradigm_dot,2024.1.5,Win32,60.24096386,682d556593cb38ad0a074487,,,,,,,,,,,137.8185,138.3177,,,138.571,139.0675,left,0.4725,,,,,,,,,0.5,,,,,,138.3179,138.5709,139.0676,"[-0.14117712646671624,0.1213562207372119]","[1,1,1]","[-0.06558487254858036,-0.13732769909145978]","[1,1,1]","[-0.10752903872694311,-0.02203740854679059]","[1,1,1]","[-0.12482104610402436,-0.11793991376906036]","[1,1,1]","[-0.016421782717683128,0.15972164961292998]","[1,1,1]","[0.034214017225818086,0.015889695273750663]","[-1,-1,-1]","[-0.011369531518294432,0.040610441710398654]","[1,1,1]","[0.07056466088400427,-0.06638365341171164]","[-1,-1,-1]","[-0.07215155338087874,0.12670408567108088]","[-1,-1,-1]","[0.08467217975710618,-0.1442465188990197]","[-1,-1,-1]","[0.13948083528153932,-0.097411137966677]","[-1,-1,-1]","[-0.054362976417943173,0.028551051885249902]","[1,1,1]","[0.003132819988373032,-0.052306484140426004]","[1,1,1]","[-0.08706026450491944,0.07201253983089727]","[-1,-1,-1]","[0.04077316011410341,-0.09615772795309402]","[1,1,1]","[0.054857434708314515,0.06671778515400954]","[1,1,1]","[-0.18255101189224254,0.045250356528927164]","[-1,-1,-1]","[-0.1465672315651458,-0.03855336682013575]","[-1,-1,-1]","[0.1758024792609938,0.050881037963563774]","[1,1,1]","[0.12038754953962238,0.08199838683911967]","[1,1,1]","[-0.07920803648939047,-0.18138991793626158]","[-1,-1,-1]","[-0.04972132435444549,-0.06097475179503153]","[-1,-1,-1]","[0.0752474539252106,0.020941399183351767]","[1,1,1]","[-0.12398686945941213,0.05394706716188811]","[-1,-1,-1]","[-0.02400746745831306,-0.1680554648035412]","[1,1,1]","[-0.02825632634597625,0.1054962954189709]","[-1,-1,-1]","[0.16070857383830747,-0.006519474464420981]","[-1,-1,-1]","[0.07948340119960073,0.14943654876895748]","[-1,-1,-1]","[0.11755055648839086,-0.05606453341961684]","[1,1,1]","[-0.166017241869862,-0.08514650025129207]","[-1,-1,-1]","[0.1266138589799121,0.016637032191298026]","[-1,-1,-1]","[0.1501408865095115,0.1227317686918226]","[1,1,1]","[0.02,0.02]",140.1673,0,22,22,90,1,,,,,,,
,,,,,,,603c11e7db9042987c7180be,682db39a2ae2ce0ea5cc7930,2025-05-21_13h06.20.840,cuing_paradigm_dot,2024.1.5,Win32,60.24096386,682d556593cb38ad0a074487,,,,,,,,,,,140.1681,140.6672,,,140.9216,141.3509,left,0.414,,,,,,,,,0.1,,,,,,140.6674,140.9215,141.351,"[-0.1250306877846885,0.1339606981793155]","[-1,-1,-1]","[-0.009870121618795835,-0.05490093758414063]","[-1,-1,-1]","[0.06381467851249592,-0.14434571909348262]","[-1,-1,-1]","[-0.08016970747480302,-0.023345321349246103]","[-1,-1,-1]","[0.02983196538206447,0.16976386586621428]","[-1,-1,-1]","[-0.12021908360527638,-0.023535939160999286]","[-1,-1,-1]","[-0.06466984473641721,0.15952360909277472]","[-1,-1,-1]","[-0.038210190751904544,-0.0998865586104659]","[-1,-1,-1]","[0.09467082298336689,-0.04870691186840083]","[-1,-1,-1]","[0.14920739247225426,-0.011759479121702544]","[-1,-1,-1]","[0.07606234331925012,-0.10532351677632333]","[-1,-1,-1]","[-0.1978864623159298,0.010247368223777161]","[-1,-1,-1]","[-0.10169902070544462,-0.12453911045467753]","[-1,-1,-1]","[-0.019284685550692873,0.12596730893887756]","[-1,-1,-1]","[-0.015561620313001241,-0.16457139907900253]","[-1,-1,-1]","[0.09046787182163403,0.060222839721625135]","[-1,-1,-1]","[0.05782294551976854,-0.011831603405021068]","[-1,-1,-1]","[0.08665438565897729,0.12252154230817751]","[-1,-1,-1]","[0.1401997384871955,-0.11690304439148803]","[-1,-1,-1]","[0.05069297832339371,0.05384431980944241]","[-1,-1,-1]","[-0.1473166799295657,-0.10023619680471174]","[-1,-1,-1]","[0.05775113794870696,-0.06469711777019106]","[1,1,1]","[-0.1067397217469362,0.06179263436385807]","[-1,-1,-1]","[0.004964252727735652,-0.09230297647088234]","[-1,-1,-1]","[-0.18307623612507357,-0.03828897242299664]","[1,1,1]","[-0.14901130241790606,0.02088603350824927]","[-1,-1,-1]","[0.11064628952277264,0.014059975346623716]","[-1,-1,-1]","[-0.012346616868563894,0.1908848709369079]","[-1,-1,-1]","[-0.03799645305487156,-0.026237436598570543]","[-1,-1,-1]","[-0.09717503332284251,0.016149152226524834]","[-1,-1,-1]","[0.1471785060060433,0.11189504084434862]","[1,1,1]","[0.19430815491736902,-0.0011812508707286203]","[-1,-1,-1]","[0.02,0.02]",142.4502,0,23,23,4,1,,,,,,,
,,,,,,,603c11e7db9042987c7180be,682db39a2ae2ce0ea5cc7930,2025-05-21_13h06.20.840,cuing_paradigm_dot,2024.1.5,Win32,60.24096386,682d556593cb38ad0a074487,,,,,,,,,,,142.4513,142.9497,,,143.2004,143.5672,left,0.3421,,,,,,,,,0.1,,,,,,142.9498,143.2003,143.5673,"[-0.014057067782266551,-0.1831792355830853]","[-1,-1,-1]","[0.04735913977315314,-0.0987592114878537]","[-1,-1,-1]","[0.19032427381222927,-0.036555586175816765]","[1,1,1]","[0.06622660364331104,0.005363971483511477]","[-1,-1,-1]","[0.11973700766002605,-0.07697360383538109]","[-1,-1,-1]","[-0.06845925579687186,-0.015538025298984032]","[1,1,1]","[-0.06922429389607061,0.0871201036854705]","[-1,-1,-1]","[-0.118934286466555,0.07343465814884943]","[-1,-1,-1]","[0.10892977663840199,0.005459891109580277]","[-1,-1,-1]","[-0.1378047140371766,-0.05444096905587056]","[-1,-1,-1]","[-0.19068333209198743,-0.029634989565209248]","[-1,-1,-1]","[-0.030956447682169118,0.11422775569922687]","[-1,-1,-1]","[0.011964198959490078,-0.032860639152874134]","[1,1,1]","[0.049322500542356026,-0.17952561375222878]","[-1,-1,-1]","[0.17793447714591606,0.01627396872680667]","[-1,-1,-1]","[0.028368955340451026,0.1641779494924246]","[-1,-1,-1]","[-0.03465630474134781,-0.059511095582216976]","[-1,-1,-1]","[-0.07938159641158617,-0.1470936989393949]","[-1,-1,-1]","[-0.1011831411228808,0.03738546212813096]","[-1,-1,-1]","[-0.1499402504476891,-0.01595490678921651]","[-1,-1,-1]","[0.0608334353791002,-0.05252770862017887]","[-1,-1,-1]","[-0.17103179102904603,-0.08984384648621765]","[-1,-1,-1]","[0.07363559225890982,0.10338421070869988]","[-1,-1,-1]","[-0.09145156791466395,-0.04945892180500287]","[-1,-1,-1]","[-0.134824255199386,0.12292428669666114]","[-1,-1,-1]","[0.15719706769069375,-0.09893812168789058]","[-1,-1,-1]","[0.10231359673530856,0.05043869976935949]","[-1,-1,-1]","[-0.015340310387632235,0.05743156525740778]","[-1,-1,-1]","[-0.16092631353097078,0.050425332766790065]","[-1,-1,-1]","[-0.04803222751435241,0.16357695273879388]","[-1,-1,-1]","[-0.10886116335739253,-0.10606229523560487]","[-1,-1,-1]","[-0.027953587615689512,-0.11098691003507365]","[-1,-1,-1]","[0.02,0.02]",144.6664,0,24,24,9,1,,,,,,,
,,,,,,,603c11e7db9042987c7180be,682db39a2ae2ce0ea5cc7930,2025-05-21_13h06.20.840,cuing_paradigm_dot,2024.1.5,Win32,60.24096386,682d556593cb38ad0a074487,,,,,,,,,,,144.6672,145.1664,,,145.4191,145.8659,right,0.4408,,,,,,,,,0.55,,,,,,145.1665,145.419,145.866,"[0.09363534574827474,0.08086626845272721]","[-1,-1,-1]","[-0.033201290689049,-0.044881785051241664]","[1,1,1]","[-0.1127587714481019,0.1567796951831409]","[1,1,1]","[0.027312294877935985,0.026818981762361322]","[-1,-1,-1]","[-0.06555885503738812,0.04497724887446504]","[1,1,1]","[-0.1609199809156633,0.041170160185983434]","[1,1,1]","[-0.10576460227452118,-0.05413566452971078]","[1,1,1]","[0.02207893927554736,-0.14755329638630912]","[-1,-1,-1]","[-0.13754172000344597,-0.12245764993844743]","[1,1,1]","[0.06590486670952024,-0.11410380142626483]","[-1,-1,-1]","[-0.035435289081320466,0.08185988831187431]","[-1,-1,-1]","[-0.04037642759529511,0.158956009853941]","[-1,-1,-1]","[0.15769554630236882,0.0017676731784586812]","[1,1,1]","[-0.0006032733613852711,0.1821216201596631]","[1,1,1]","[0.1380314652488384,-0.13878963672337916]","[-1,-1,-1]","[0.011995249245919163,-0.04031760589385197]","[1,1,1]","[0.0044223221207369025,-0.19387197225793049]","[1,1,1]","[-0.06613453239400219,-0.1713455475130371]","[1,1,1]","[-0.15653403901665258,0.1048382443191962]","[-1,-1,-1]","[0.06540444515439703,0.1273501872724883]","[1,1,1]","[0.13404491365110308,0.10687851552028112]","[-1,-1,-1]","[0.0580182979262948,-0.07337908712719886]","[1,1,1]","[-0.0983110563042917,0.006522194282111237]","[1,1,1]","[0.12954400042458009,-0.09901153095154308]","[1,1,1]","[0.020783932422543606,0.08171769487823063]","[-1,-1,-1]","[-0.1121809455003756,0.08755190405833908]","[1,1,1]","[-0.004454706066338032,-0.1138073901298278]","[1,1,1]","[-0.1688534316001854,-0.04169044501837321]","[-1,-1,-1]","[-0.18136596337681185,-0.08113204452950856]","[-1,-1,-1]","[0.18845856526234947,-0.045002955070913404]","[-1,-1,-1]","[0.04398199297783761,0.18278494751423982]","[1,1,1]","[0.10009314696246951,0.003634262288533258]","[-1,-1,-1]","[0.02,0.02]",146.9659,0,25,25,132,1,,,,,,,
,,,,,,,603c11e7db9042987c7180be,682db39a2ae2ce0ea5cc7930,2025-05-21_13h06.20.840,cuing_paradigm_dot,2024.1.5,Win32,60.24096386,682d556593cb38ad0a074487,,,,,,,,,,,146.9668,147.466,,,147.7178,148.1828,right,0.4366,,,,,,,,,0.6,,,,,,147.4661,147.7178,148.1829,"[-0.14825269834784596,-0.10672103393509987]","[-1,-1,-1]","[0.07599731101624324,-0.12530549847438904]","[-1,-1,-1]","[-0.09124727905462952,0.012512358771917313]","[-1,-1,-1]","[0.16535454199439784,0.09335091008018291]","[-1,-1,-1]","[-0.17903181432568466,-0.07835949707399012]","[1,1,1]","[0.05612585652358804,-0.0683889800150458]","[1,1,1]","[-0.09675535318060859,-0.09796591812106073]","[1,1,1]","[0.12997004505289958,0.14625981201748414]","[1,1,1]","[0.13481649665366238,-0.0035905004153421296]","[-1,-1,-1]","[0.0023258871177777125,-0.0584515481424311]","[1,1,1]","[-0.09615862282461535,-0.0321312085327229]","[1,1,1]","[-0.07978082559793831,0.11510094341114788]","[-1,-1,-1]","[-0.018218781377839003,-0.16689579326946413]","[1,1,1]","[0.07298678454736886,-0.017868754928271016]","[-1,-1,-1]","[-0.1591040674168461,0.06483827635622509]","[1,1,1]","[-0.07770649989822438,0.16178467538866753]","[-1,-1,-1]","[0.13464231697820522,-0.126196079563956]","[1,1,1]","[-0.048758164311481667,-0.19357642179692788]","[1,1,1]","[-0.008889017126973134,0.10208352263581552]","[1,1,1]","[0.0362896681625071,0.03246499172779813]","[1,1,1]","[0.1664622131883777,-0.055072851596495366]","[1,1,1]","[0.11711709137014495,-0.040298737168211606]","[-1,-1,-1]","[-0.04339934200360012,0.0059126761779895644]","[1,1,1]","[-0.1664615126367055,-0.012770813259482488]","[-1,-1,-1]","[0.050190634534791244,0.1339780432070133]","[1,1,1]","[0.032747651788558645,-0.11794997698601883]","[-1,-1,-1]","[0.03719385714885914,-0.17280454703640907]","[1,1,1]","[-0.05729708428053059,-0.13443168665518687]","[-1,-1,-1]","[0.1913986625675633,0.00976824734493945]","[1,1,1]","[-0.19725626820408082,0.02329925621503174]","[-1,-1,-1]","[-0.04937841677956032,-0.03594407596371717]","[1,1,1]","[-0.14046259446319187,0.1127451662810326]","[1,1,1]","[0.02,0.02]",149.2821,0,26,26,157,1,,,,,,,
,,,,,,,603c11e7db9042987c7180be,682db39a2ae2ce0ea5cc7930,2025-05-21_13h06.20.840,cuing_paradigm_dot,2024.1.5,Win32,60.24096386,682d556593cb38ad0a074487,,,,,,,,,,,149.2828,149.7821,,,150.0351,150.4483,right,0.3937,,,,,,,,,0.9,,,,,,149.7823,150.0351,150.4485,"[0.014371026567951991,-0.14541868273065914]","[1,1,1]","[0.06847861374409868,0.023925220042583902]","[1,1,1]","[0.00851563034731042,0.08032289009631603]","[1,1,1]","[-0.18712701634882087,-0.013780678024220581]","[1,1,1]","[-0.0440118241845696,0.1434542737290744]","[1,1,1]","[-0.10773530881095322,-0.03849266287721798]","[1,1,1]","[0.1628331629156808,-0.05565779074164638]","[1,1,1]","[-0.14703951563758688,-0.07574381437548662]","[1,1,1]","[0.1362311436302226,0.03659829473388535]","[1,1,1]","[0.10438690162576975,-0.05524630944511644]","[1,1,1]","[-0.0918175330436504,-0.11946857614257839]","[1,1,1]","[-0.17905445083528995,0.0710474368159527]","[1,1,1]","[0.008313460374197109,-0.017917386643419908]","[1,1,1]","[0.11837501405795368,-0.15249962192935754]","[1,1,1]","[0.07268000147470677,-0.16376284958688872]","[1,1,1]","[0.1575832120807513,0.07255759867482378]","[1,1,1]","[0.09607974385108288,0.0681561635467815]","[1,1,1]","[-0.009439530923213164,-0.1779454302974399]","[1,1,1]","[-0.027838039708255494,-0.07001660883138378]","[-1,-1,-1]","[-0.015407670869155312,0.021910406612417357]","[-1,-1,-1]","[0.0778821664684775,0.1477669718933479]","[1,1,1]","[0.035704538395998,-0.10683024054985839]","[1,1,1]","[-0.043276500189415416,0.18585212890321062]","[1,1,1]","[0.0394142296052315,0.1779522394656957]","[1,1,1]","[0.1806151860920187,-0.008153902049433814]","[1,1,1]","[-0.11027446662004327,0.1505594688827007]","[1,1,1]","[0.11233285009385426,0.12258492077368219]","[1,1,1]","[-0.04149367711033679,-0.012595510033061356]","[1,1,1]","[-0.1889583573946172,-0.05653068226723369]","[-1,-1,-1]","[-0.10089904842947488,0.08915755094524978]","[1,1,1]","[-0.05960425924288717,0.08304917090142361]","[1,1,1]","[-0.002977295752181601,0.1574689152610684]","[1,1,1]","[0.02,0.02]",151.5482,0,27,27,207,1,,,,,,,
,,,,,,,603c11e7db9042987c7180be,682db39a2ae2ce0ea5cc7930,2025-05-21_13h06.20.840,cuing_paradigm_dot,2024.1.5,Win32,60.24096386,682d556593cb38ad0a074487,,,,,,,,,,,151.5489,152.0482,,,152.2988,152.6691,left,0.3519,,,,,,,,,0.1,,,,,,152.0483,152.2988,152.6691,"[0.03816617910000923,0.028292146470491955]","[-1,-1,-1]","[-0.05733920711221399,0.08795713890325649]","[1,1,1]","[0.17167190744494015,0.07865479447937107]","[-1,-1,-1]","[0.004869977396457121,-0.09073498089204583]","[-1,-1,-1]","[0.1295363213428089,-0.1305638449141283]","[-1,-1,-1]","[-0.035570463266211966,-0.02794668998610847]","[-1,-1,-1]","[-0.10275828325445673,0.02254966039887007]","[-1,-1,-1]","[-0.03446295715485953,-0.1230714913615743]","[-1,-1,-1]","[-0.054963056881071955,0.019665554042692966]","[-1,-1,-1]","[0.09823614657832667,-0.006723143000860247]","[-1,-1,-1]","[0.1636463513301184,0.03770242029754635]","[-1,-1,-1]","[0.01631214416409192,-0.03917579195130447]","[-1,-1,-1]","[0.059405730827298615,-0.1598784871450768]","[-1,-1,-1]","[0.15215380241882928,-0.08310851919957547]","[-1,-1,-1]","[0.06550760462722043,-0.0478932077196122]","[-1,-1,-1]","[0.01621692957488197,0.09294749247297826]","[-1,-1,-1]","[0.012244814613680651,0.16030551155092515]","[-1,-1,-1]","[-0.11619163254772297,-0.10597538416330377]","[-1,-1,-1]","[-0.024514805678775488,0.050533527804937334]","[-1,-1,-1]","[-0.09329747386119346,0.13461209380170203]","[-1,-1,-1]","[0.09841545637224086,0.035540417805728655]","[-1,-1,-1]","[0.17829261221164774,-0.0515563007034388]","[1,1,1]","[-0.10943945813234625,0.06634024817306385]","[-1,-1,-1]","[-0.15008634313743577,0.0922738633719451]","[-1,-1,-1]","[0.061986716475582064,0.1896159935230584]","[-1,-1,-1]","[0.11031375196665445,0.1577434879558411]","[1,1,1]","[-0.1921969001033203,0.04535391381182589]","[-1,-1,-1]","[-0.03866182711462902,-0.19369050837515148]","[-1,-1,-1]","[-0.1417683664101711,0.04076058383348902]","[-1,-1,-1]","[-0.1919569339210358,-0.02479331618058136]","[-1,-1,-1]","[-0.051479383673601165,0.13518836332193016]","[-1,-1,-1]","[0.12464012198965299,-0.04140316688882619]","[-1,-1,-1]","[0.02,0.02]",153.7645,0,28,28,23,1,,,,,,,
,,,,,,,603c11e7db9042987c7180be,682db39a2ae2ce0ea5cc7930,2025-05-21_13h06.20.840,cuing_paradigm_dot,2024.1.5,Win32,60.24096386,682d556593cb38ad0a074487,,,,,,,,,,,153.7653,154.2641,,,154.515,154.9813,left,0.4365,,,,,,,,,0.5,,,,,,154.2642,154.5148,154.9814,"[0.06546203916285805,0.07549871885111742]","[-1,-1,-1]","[-0.1622081259084608,-0.05881453152835811]","[1,1,1]","[-0.04539808619733508,0.1900455439070106]","[-1,-1,-1]","[0.041568748533679346,-0.061180053261934375]","[-1,-1,-1]","[-0.09015932394627772,0.038602396241826445]","[-1,-1,-1]","[0.04467757406868838,-0.16433792137365807]","[-1,-1,-1]","[-0.058509443950219495,-0.08982359670443596]","[-1,-1,-1]","[-0.09042232127951651,0.13626583860059707]","[1,1,1]","[0.01802846001078845,-0.0003859279331059578]","[1,1,1]","[-0.02606034584994262,-0.11947962450938428]","[-1,-1,-1]","[-0.14525655984634528,0.1243963928030129]","[1,1,1]","[-0.17329324467211077,0.008566454881706632]","[1,1,1]","[0.1192536272309871,-0.10716699088925259]","[1,1,1]","[-0.12863459876006803,-0.1298687068546424]","[1,1,1]","[-0.01278329634726682,0.06016914409629545]","[-1,-1,-1]","[0.04560399017557068,0.18436663327067132]","[-1,-1,-1]","[0.12296188623977454,0.0033191778893157673]","[-1,-1,-1]","[-0.01941079990022265,0.014129997074131805]","[1,1,1]","[0.08069129281594854,-0.002973665823203512]","[1,1,1]","[-0.10123004466210005,-0.055659153635631835]","[1,1,1]","[-0.013273756638936408,-0.16478369078356478]","[1,1,1]","[-0.06267302774937106,-0.044973781188339466]","[-1,-1,-1]","[0.14004660318597736,0.1312798675707865]","[1,1,1]","[-0.12130582088090389,0.08300905513558007]","[-1,-1,-1]","[0.14499961964882244,0.058028331624400235]","[1,1,1]","[0.15194498492030456,-0.04484611325734946]","[-1,-1,-1]","[0.1842628894981882,0.023570203246270023]","[1,1,1]","[-0.0890467668499397,-0.16498705396111915]","[1,1,1]","[0.1764252520767079,-0.08133232956476255]","[-1,-1,-1]","[0.10106732820104647,-0.045499655060023084]","[-1,-1,-1]","[-0.05811038002345066,0.003105887850518815]","[1,1,1]","[0.10440776851507771,0.15731844638683992]","[-1,-1,-1]","[0.02,0.02]",156.0807,0,29,29,118,1,,,,,,,
,,,,,,,603c11e7db9042987c7180be,682db39a2ae2ce0ea5cc7930,2025-05-21_13h06.20.840,cuing_paradigm_dot,2024.1.5,Win32,60.24096386,682d556593cb38ad0a074487,,,,,,,,,,,156.0815,156.5804,,,156.8311,157.1472,right,0.2955,,,,,,,,,0.9,,,,,,156.5805,156.831,157.1474,"[-0.03895559003285035,0.16385284865587488]","[1,1,1]","[0.12188521563583549,0.054629238361683194]","[1,1,1]","[0.01698572962793794,-0.15607014813578476]","[1,1,1]","[-0.1775535995675984,-0.002668189421399529]","[1,1,1]","[-0.10041729656854592,-0.048149307982411085]","[1,1,1]","[-0.06978791268522064,0.08731972997368788]","[1,1,1]","[-0.08679993615893629,0.15489027108209064]","[-1,-1,-1]","[0.06461417644587221,0.12030615208686411]","[1,1,1]","[0.12115258306685409,-0.06589579492174878]","[1,1,1]","[0.0819249624022374,0.06931139746462131]","[1,1,1]","[0.0731863411267385,-0.05180792212148399]","[1,1,1]","[-0.13890659031846847,0.08293753050864332]","[1,1,1]","[0.1658704212681655,-0.04137490682613014]","[1,1,1]","[0.11077614603979828,-0.1327504159079816]","[1,1,1]","[0.009077242833117281,0.010964635583991094]","[1,1,1]","[0.018697469362317056,-0.11317803257152949]","[1,1,1]","[-0.02434162856684931,0.06438155106396452]","[1,1,1]","[0.17352803447100987,0.06680496921205666]","[1,1,1]","[-0.04663539565865821,0.01777115870752508]","[1,1,1]","[0.051927865437871576,0.003363697612531424]","[1,1,1]","[0.05524190900695688,0.15972633342535084]","[1,1,1]","[-0.1546970970036534,-0.0841898994165223]","[-1,-1,-1]","[-0.01672217440667957,-0.034708620986133004]","[1,1,1]","[-0.09736502877060593,-0.1458447730417712]","[-1,-1,-1]","[0.12495892340199022,0.14864365086841747]","[1,1,1]","[0.013542811440909403,0.10216060123018496]","[1,1,1]","[0.029030968325344682,-0.042296045681269066]","[1,1,1]","[-0.13901551732212555,-0.1244657308524266]","[1,1,1]","[0.005702568299997274,0.1486904787064145]","[1,1,1]","[0.11332173254905145,0.10860401851040495]","[1,1,1]","[0.029191581346614183,0.04810051660706599]","[1,1,1]","[-0.1066776333017527,0.045506356413581965]","[1,1,1]","[0.02,0.02]",158.2469,0,30,30,205,1,,,,,,,
,,,,,,,603c11e7db9042987c7180be,682db39a2ae2ce0ea5cc7930,2025-05-21_13h06.20.840,cuing_paradigm_dot,2024.1.5,Win32,60.24096386,682d556593cb38ad0a074487,,,,,,,,,,,158.248,158.7468,,,158.9994,159.4302,left,0.4035,,,,,,,,,0.1,,,,,,158.7469,158.9994,159.4304,"[-0.10271568781074572,0.03440598242438295]","[1,1,1]","[-0.09158690677354164,0.1286892572632568]","[1,1,1]","[-0.05527467804943765,-0.06494526635194436]","[-1,-1,-1]","[-0.159307413119665,0.08014539255384807]","[-1,-1,-1]","[0.17008204259418203,-0.08569620328928128]","[-1,-1,-1]","[0.17812097974897378,-0.012530696993707352]","[-1,-1,-1]","[-0.00010681766082026845,0.12900314786126482]","[-1,-1,-1]","[0.12498676035598016,0.08656712451252269]","[1,1,1]","[0.0364165116570044,-0.09628436743251742]","[-1,-1,-1]","[0.03125828540915078,-0.020035591575790306]","[-1,-1,-1]","[0.0517973995458254,0.09778126677742603]","[-1,-1,-1]","[0.08630434607898366,0.13791454727474156]","[-1,-1,-1]","[0.13746630173250438,-0.01374599327866689]","[-1,-1,-1]","[0.09807970638150751,-0.1405952141243023]","[-1,-1,-1]","[-0.05402278989055473,0.10845819354159136]","[-1,-1,-1]","[-0.08871203050872727,-0.15037813617673004]","[-1,-1,-1]","[-0.08974300641343622,0.16961362356583426]","[-1,-1,-1]","[-0.10939291848601318,-0.029475738609790598]","[-1,-1,-1]","[0.11886624492647693,-0.07178139450347262]","[-1,-1,-1]","[0.02471585196454422,0.1965338386309467]","[-1,-1,-1]","[-0.1887837872395576,-0.015781741237934327]","[-1,-1,-1]","[-0.057316392912789525,-0.1214126273410625]","[-1,-1,-1]","[-0.14208365950750085,-0.11198325616881573]","[-1,-1,-1]","[-0.04623420031097659,0.15086242945578]","[-1,-1,-1]","[0.13826876350167167,-0.12606847680955952]","[-1,-1,-1]","[-0.026726810924924058,-0.15461718912782108]","[-1,-1,-1]","[-0.1370308311929644,0.13834031397921637]","[-1,-1,-1]","[0.17052947447169958,0.028119655655639512]","[-1,-1,-1]","[0.019055059488475513,0.03167775858709025]","[-1,-1,-1]","[0.16450764435465895,0.07834407675875792]","[-1,-1,-1]","[-0.010269411889825775,-0.09044037036007337]","[-1,-1,-1]","[-0.036812724612955205,0.013614746807761244]","[-1,-1,-1]","[0.02,0.02]",160.5299,0,31,31,0,1,,,,,,,
,,,,,,,603c11e7db9042987c7180be,682db39a2ae2ce0ea5cc7930,2025-05-21_13h06.20.840,cuing_paradigm_dot,2024.1.5,Win32,60.24096386,682d556593cb38ad0a074487,,,,,,,,,,,160.5307,161.0298,,,161.2803,161.7801,right,0.472,,,,,,,,,0.6,,,,,,161.0298,161.2803,161.7803,"[-0.07784085942107286,0.1733567968427716]","[-1,-1,-1]","[-0.04336723139529861,0.07200566611907724]","[1,1,1]","[-0.027634406360791036,0.014295769664792422]","[1,1,1]","[0.16342471965236616,0.015182158941810844]","[-1,-1,-1]","[-0.08196428374707741,-0.08704812901406488]","[1,1,1]","[0.1481417540624759,-0.0900785291584155]","[-1,-1,-1]","[-0.02292201566346862,-0.09236419693985246]","[1,1,1]","[0.04093321087526605,-0.04782070867644249]","[-1,-1,-1]","[0.1661085242876734,-0.04637941506416109]","[-1,-1,-1]","[-0.044718386184106056,0.12562984818685044]","[1,1,1]","[0.07506309406071454,-0.09911745605901638]","[-1,-1,-1]","[0.04008181333512384,-0.13727212410760617]","[-1,-1,-1]","[-0.12583133105412497,0.151816276654228]","[1,1,1]","[0.09186292791954744,0.17418676458175145]","[1,1,1]","[0.012337045859797825,0.15303865514879797]","[1,1,1]","[-0.01908094614770253,-0.1820433891602914]","[1,1,1]","[0.08865466739104332,0.061468023759986994]","[1,1,1]","[0.12384792808883677,-0.1407727095917433]","[1,1,1]","[0.08364474672901254,0.11782108464539587]","[1,1,1]","[0.029743384955604933,-0.18668738210233812]","[1,1,1]","[-0.05582874164920625,-0.04324761539947788]","[1,1,1]","[0.13325792507951892,0.1261165729984278]","[-1,-1,-1]","[-0.09209989888396279,0.11536725538116209]","[1,1,1]","[-0.17937754971717346,0.06596521261285856]","[-1,-1,-1]","[0.14123316180407475,0.06359528523506468]","[-1,-1,-1]","[0.004221823466288715,0.057029722835846015]","[-1,-1,-1]","[0.039956070803026836,0.10932569352577551]","[1,1,1]","[0.0267666262351306,-0.0002707423129079272]","[1,1,1]","[-0.1577432501578558,-0.029861896176316974]","[1,1,1]","[-0.0524998127199474,-0.15014478412659776]","[1,1,1]","[-0.026585117457980353,0.19703129459466467]","[-1,-1,-1]","[-0.13788124810913588,0.05622454188713507]","[-1,-1,-1]","[0.02,0.02]",162.879,0,32,32,154,1,,,,,,,
,,,,,,,603c11e7db9042987c7180be,682db39a2ae2ce0ea5cc7930,2025-05-21_13h06.20.840,cuing_paradigm_dot,2024.1.5,Win32,60.24096386,682d556593cb38ad0a074487,,,,,,,,,,,162.88,163.3792,,,163.63,164.2813,right,0.6326,,,,,,,,,0.6,,,,,,163.3793,163.63,164.2813,"[-0.10871089944586482,-0.04952583628908714]","[1,1,1]","[-0.1042710099448182,0.0312810241216618]","[1,1,1]","[0.07172118225852375,0.012554475615300412]","[-1,-1,-1]","[0.16567844521673872,-0.08841692036318374]","[1,1,1]","[0.05907635241928522,0.0832405981145318]","[-1,-1,-1]","[0.13837883863345368,0.09578066408395935]","[-1,-1,-1]","[0.047489277005116064,-0.08837647002925711]","[-1,-1,-1]","[-0.06627002644942634,0.18021940123703836]","[1,1,1]","[0.12521301396416765,-0.028811425196522817]","[-1,-1,-1]","[0.1946956395233491,0.03714211399598497]","[-1,-1,-1]","[-0.014599668533875336,-0.14803989493574649]","[1,1,1]","[-0.1826829840732653,0.01395105367497467]","[1,1,1]","[0.1843989466372077,-0.021340794488796493]","[1,1,1]","[0.098381250161804,0.10422784826312687]","[1,1,1]","[0.11768875686392428,-0.14122720895378058]","[-1,-1,-1]","[-0.11634402104218589,-0.12119711449129217]","[-1,-1,-1]","[-0.11357581784232228,0.15429785263451282]","[-1,-1,-1]","[0.0646921398006241,-0.18164561825972278]","[-1,-1,-1]","[-0.04261363580825971,0.08975361537109174]","[1,1,1]","[-0.07358031487802283,-0.15098230428166495]","[1,1,1]","[-0.05337949591694863,0.022126493388574846]","[1,1,1]","[0.07286074143643081,0.14821888677484946]","[1,1,1]","[0.029800265123439598,0.029647457556048345]","[1,1,1]","[-0.035520111183280766,-0.045345788211798306]","[1,1,1]","[-0.15383406015994538,0.05382547577024554]","[-1,-1,-1]","[0.11071283051899644,0.024172130461839827]","[1,1,1]","[-0.0010033165291007142,0.10809578923012729]","[1,1,1]","[-0.03325899134012408,-0.09561428689247989]","[1,1,1]","[-0.04368584221276644,-0.188423011251908]","[-1,-1,-1]","[-0.08571400957182493,0.10005278164819124]","[1,1,1]","[-0.18536721801891384,-0.05651131381855194]","[1,1,1]","[0.07364151944487311,-0.038417843498780656]","[-1,-1,-1]","[0.02,0.02]",165.3788,0,33,33,178,1,,,,,,,
,,,,,,,603c11e7db9042987c7180be,682db39a2ae2ce0ea5cc7930,2025-05-21_13h06.20.840,cuing_paradigm_dot,2024.1.5,Win32,60.24096386,682d556593cb38ad0a074487,,,,,,,,,,,165.3796,165.8787,,,166.1304,166.862,right,0.7052,,,,,,,,,0.45,,,,,,165.8789,166.1304,166.8621,"[0.06296711892024659,0.18071093848695324]","[1,1,1]","[-0.06964160190258165,0.1536544773858161]","[1,1,1]","[-0.012764558657373026,-0.1225366443622632]","[-1,-1,-1]","[-0.0704522620888931,-0.17372332091030518]","[-1,-1,-1]","[-0.042130408964900036,-0.06716446583616559]","[-1,-1,-1]","[0.19214130733462123,-0.022841809589767014]","[-1,-1,-1]","[-0.15153871542939332,-0.0008044863969221337]","[1,1,1]","[0.06259946691690832,-0.033330956447715034]","[1,1,1]","[0.04042012510642711,-0.09302683550487337]","[-1,-1,-1]","[-0.1383864788907443,0.1398953083153603]","[1,1,1]","[0.10558012277977606,0.11076842551890462]","[-1,-1,-1]","[0.15739245887206013,-0.05743425167720048]","[-1,-1,-1]","[0.11442775061560904,-0.018617826060009158]","[-1,-1,-1]","[0.02374395959135878,0.01666017326702379]","[1,1,1]","[0.007775355031667066,0.08957462453303391]","[1,1,1]","[0.13687816276529205,0.07655667272679453]","[-1,-1,-1]","[-0.06221501743187051,0.060264323336542955]","[-1,-1,-1]","[-0.05907818992914102,-0.10710724545477357]","[1,1,1]","[0.10650329456519975,-0.11287129983610746]","[1,1,1]","[-0.05910468427551556,0.020262367183853654]","[1,1,1]","[-0.026920503084553783,0.18084446529243653]","[-1,-1,-1]","[0.03229281830708657,0.13716531187313777]","[-1,-1,-1]","[-0.13335217266708055,0.04023900153525601]","[-1,-1,-1]","[-0.09582924462289091,-0.040398362305316016]","[-1,-1,-1]","[0.06523289862600995,0.07120963577627148]","[1,1,1]","[0.19394594099923074,0.03478925999038251]","[1,1,1]","[-0.024608513711898136,-0.025394732782799648]","[-1,-1,-1]","[0.14498539008236253,0.12448199068416009]","[-1,-1,-1]","[0.07866830161769725,-0.18236944813853015]","[1,1,1]","[0.1567033671777049,0.008564742742136536]","[-1,-1,-1]","[0.02860526586340752,-0.16763397149830023]","[1,1,1]","[-0.19084810387236698,-0.02125620111573762]","[-1,-1,-1]","[0.02,0.02]",167.9617,0,34,34,73,1,,,,,,,
,,,,,,,603c11e7db9042987c7180be,682db39a2ae2ce0ea5cc7930,2025-05-21_13h06.20.840,cuing_paradigm_dot,2024.1.5,Win32,60.24096386,682d556593cb38ad0a074487,,,,,,,,,,,167.9624,168.4615,,,168.7122,169.3112,right,0.5797,,,,,,,,,0.5,,,,,,168.4615,168.7121,169.3113,"[0.15097950453405418,0.057642438944412996]","[1,1,1]","[-0.08005323983099036,-0.10789366272199648]","[-1,-1,-1]","[-0.006332602739241498,0.08771885170418146]","[1,1,1]","[0.10563808503848753,0.013175522041518166]","[-1,-1,-1]","[0.13356390530278744,-0.05829018450437126]","[-1,-1,-1]","[-0.0022957848855629415,-0.1337928719632572]","[-1,-1,-1]","[-0.04685916933503558,-0.04775345736379716]","[-1,-1,-1]","[0.09302654207440705,0.08373875687160143]","[1,1,1]","[0.00607645236034601,-0.08620215057769111]","[1,1,1]","[0.03328779261966723,0.09437404347409739]","[1,1,1]","[0.06795907306124237,0.13794715565212184]","[-1,-1,-1]","[-0.15869581994409301,0.020323932498783313]","[-1,-1,-1]","[-0.01958381959938963,0.005789284173737749]","[1,1,1]","[0.019819475496088756,0.1418382557760015]","[1,1,1]","[-0.10494046855452609,0.024730642228542776]","[1,1,1]","[-0.1316117050080719,-0.0834396587800679]","[1,1,1]","[-0.009170612307251486,-0.17714682847419577]","[1,1,1]","[-0.03438574463348826,0.19641460854145662]","[-1,-1,-1]","[-0.08136459398143203,0.12669431010565094]","[1,1,1]","[-0.07511952638835274,-0.14764314256729835]","[-1,-1,-1]","[0.11785704327765088,-0.13180199560218067]","[1,1,1]","[0.025241725228041453,-0.023159416590909976]","[-1,-1,-1]","[0.10407071965713119,-0.0897256596509945]","[1,1,1]","[-0.16317946040979206,-0.04242254300694498]","[-1,-1,-1]","[0.08670513672918549,-0.1689343825075955]","[-1,-1,-1]","[-0.08478930971746529,0.07799570644698588]","[1,1,1]","[0.027236385367934813,0.05142486102230718]","[1,1,1]","[0.061439700878362646,-0.05201533634013874]","[1,1,1]","[0.18129104529984988,-0.05551432833945354]","[-1,-1,-1]","[0.19744212820359588,0.014513705826959723]","[-1,-1,-1]","[0.09262202228999437,0.17147831420272197]","[-1,-1,-1]","[-0.11592172969898261,-0.026964961542385677]","[-1,-1,-1]","[0.02,0.02]",170.411,0,35,35,93,1,,,,,,,
,,,,,,,603c11e7db9042987c7180be,682db39a2ae2ce0ea5cc7930,2025-05-21_13h06.20.840,cuing_paradigm_dot,2024.1.5,Win32,60.24096386,682d556593cb38ad0a074487,,,,,,,,,,,170.4118,170.911,,,171.1615,171.6973,right,0.5171,,,,,,,,,0.55,,,,,,170.9111,171.1614,171.6973,"[-0.042405543230535477,-0.14619219603576783]","[1,1,1]","[-0.1437399035440672,-0.011707426718676958]","[1,1,1]","[-0.18873736923236303,-0.02183189568489684]","[-1,-1,-1]","[0.119162517377659,0.012972463651023218]","[1,1,1]","[-0.03653123681193201,0.026879679459614853]","[-1,-1,-1]","[0.14749486679055276,-0.029739048123938856]","[1,1,1]","[-0.1810993125918699,0.07046954510501341]","[1,1,1]","[0.10074346258760007,-0.12716095886684423]","[1,1,1]","[0.0813689676669104,0.07688775252575841]","[1,1,1]","[0.014097876272099774,0.08369176116575291]","[-1,-1,-1]","[0.02009567445908188,0.1269059866754569]","[-1,-1,-1]","[-0.07647639506807281,0.021855042402076665]","[1,1,1]","[-0.08666787866893576,-0.11441492780518937]","[-1,-1,-1]","[0.046861697869171506,-0.1555243319032717]","[-1,-1,-1]","[0.07705143842491585,0.012441117833390676]","[1,1,1]","[0.04624753288415967,0.18120092586989378]","[-1,-1,-1]","[-0.06697687003178043,-0.06357723031330721]","[1,1,1]","[0.06061815321224427,-0.03681176551183017]","[-1,-1,-1]","[-0.10555195290491838,-0.027793135706031417]","[-1,-1,-1]","[-0.1517997311976046,-0.053010404956530546]","[-1,-1,-1]","[-0.013911091309817776,-0.04177676919055463]","[1,1,1]","[-0.12197096468653398,0.1351102329413432]","[-1,-1,-1]","[0.10343303152471897,-0.05669588005825429]","[1,1,1]","[0.09629401486250973,0.12871711186346482]","[1,1,1]","[-0.09314385863963251,0.08650605666044214]","[-1,-1,-1]","[-0.11062315168270731,-0.15111672680833066]","[1,1,1]","[-0.021082535748327132,0.11501483931294863]","[-1,-1,-1]","[-0.1431534553711582,0.05497235792492416]","[1,1,1]","[0.18760278120255497,-0.05933265409589225]","[-1,-1,-1]","[-0.14881729221411305,-0.09902630965606407]","[1,1,1]","[0.1371893399319154,-0.09649985676627112]","[1,1,1]","[-0.0203034247792224,0.17180025955307565]","[1,1,1]","[0.02,0.02]",172.7935,0,36,36,134,1,,,,,,,
,,,,,,,603c11e7db9042987c7180be,682db39a2ae2ce0ea5cc7930,2025-05-21_13h06.20.840,cuing_paradigm_dot,2024.1.5,Win32,60.24096386,682d556593cb38ad0a074487,,,,,,,,,,,172.7944,173.2939,,,173.5457,174.0773,right,0.5078,,,,,,,,,0.55,,,,,,173.294,173.5457,174.0774,"[-0.10986420198389124,-0.037820622241098716]","[1,1,1]","[-0.07377819554690448,0.097757127991656]","[1,1,1]","[0.01562072764155775,0.00048343286259612886]","[1,1,1]","[0.14216285597797662,0.01794499712721739]","[1,1,1]","[-0.15519686723202636,0.01770662388656643]","[1,1,1]","[-0.06812287335254999,0.1470882175726104]","[1,1,1]","[0.03900250214974642,0.040245642883065307]","[-1,-1,-1]","[0.01963131198084735,-0.16093430400010328]","[1,1,1]","[0.050603275697505855,0.11761790623983917]","[1,1,1]","[-0.14119102558592558,0.12584587383149737]","[-1,-1,-1]","[-0.08607909835728787,-0.11219526484820176]","[1,1,1]","[0.05063738874195764,-0.11917847048585474]","[1,1,1]","[0.13007765043120942,0.08774839410353207]","[1,1,1]","[0.09924530985750993,-0.1433845490748986]","[-1,-1,-1]","[-0.04603503909429571,0.06674519072251643]","[-1,-1,-1]","[-0.039967566142307384,-0.13703038127938222]","[-1,-1,-1]","[0.15392849923920846,-0.07107923253203036]","[1,1,1]","[0.07372095941438135,0.007669851197277571]","[-1,-1,-1]","[-0.11266800037973655,0.024441572384080974]","[-1,-1,-1]","[0.005343664570866233,-0.08293793668806854]","[1,1,1]","[-0.0639567753774529,0.02864449910796886]","[-1,-1,-1]","[0.022517788518784092,0.167420462297606]","[1,1,1]","[-0.042855501110025104,-0.18217418261394067]","[-1,-1,-1]","[0.19377157391382865,-0.0023515923270516544]","[-1,-1,-1]","[-0.035690445432292925,-0.07891508002112688]","[-1,-1,-1]","[0.04862768192947232,-0.05232188835277402]","[1,1,1]","[0.1100692913588812,-0.07164294117322421]","[-1,-1,-1]","[0.09534757952180217,0.05356449291644672]","[-1,-1,-1]","[-0.030847829858198204,0.165818009900305]","[1,1,1]","[-0.09926449867164926,0.17347453056774717]","[1,1,1]","[0.004120091052341335,0.09252069799051046]","[1,1,1]","[-0.16604745635088403,-0.08698744416211664]","[-1,-1,-1]","[0.02,0.02]",175.1794,0,37,37,139,1,,,,,,,
,,,,,,,603c11e7db9042987c7180be,682db39a2ae2ce0ea5cc7930,2025-05-21_13h06.20.840,cuing_paradigm_dot,2024.1.5,Win32,60.24096386,682d556593cb38ad0a074487,,,,,,,,,,,175.1799,175.6793,,,175.9273,176.5484,left,0.6022,,,,,,,,,0.5,,,,,,175.6793,175.9272,176.5485,"[0.13193361446555543,0.10556458628393266]","[-1,-1,-1]","[-0.1313683833557081,-0.0893620876977774]","[1,1,1]","[-0.016856415191778107,0.03447279312133704]","[1,1,1]","[0.08474175902227825,0.09082757388768856]","[-1,-1,-1]","[-0.0981609663928854,-0.041005534935996776]","[1,1,1]","[0.027225188565165592,-0.001747844377224461]","[-1,-1,-1]","[0.0041740568721886345,-0.1229050712773419]","[-1,-1,-1]","[-0.059673489439829606,0.09662943302006136]","[-1,-1,-1]","[0.17284031512352194,0.05622236805414564]","[1,1,1]","[-0.013340334084871465,0.12673524985750378]","[-1,-1,-1]","[-0.05345803528658575,0.13908933843641047]","[-1,-1,-1]","[-0.1099309199807964,0.12944621827491742]","[1,1,1]","[0.07608316544349991,-0.15785068225879725]","[-1,-1,-1]","[0.11319630537687464,-0.07707232666884706]","[-1,-1,-1]","[-0.016158916506576835,-0.07134736313732128]","[1,1,1]","[-0.19199931076978985,-0.0037770650670271976]","[1,1,1]","[0.1697621482883147,-0.041221819538170175]","[-1,-1,-1]","[0.029001799510677786,-0.1575460092431038]","[-1,-1,-1]","[-0.07328429873611891,-0.008803760203423387]","[1,1,1]","[-0.03082403826395409,-0.15058568902787442]","[1,1,1]","[0.05207824671388235,0.04496640698265942]","[1,1,1]","[0.1413737874273661,0.0008492996607072682]","[1,1,1]","[0.07342378951468474,-0.04908990383259733]","[-1,-1,-1]","[0.019413724042183455,0.18236025411904558]","[-1,-1,-1]","[-0.06487998852068715,0.032431428260143315]","[-1,-1,-1]","[-0.18076623773861805,-0.04817749900959803]","[1,1,1]","[-0.16755548996625652,0.07486743625086152]","[1,1,1]","[0.18957975365599353,0.014982743174019531]","[-1,-1,-1]","[0.09318686050930117,-0.00403543961134496]","[1,1,1]","[-0.09436044437721011,-0.1626279821803705]","[1,1,1]","[0.06308761323607234,0.18160162789677414]","[-1,-1,-1]","[-0.13140797420162242,0.017042534022133068]","[1,1,1]","[0.02,0.02]",177.6426,0,38,38,98,1,,,,,,,
,,,,,,,603c11e7db9042987c7180be,682db39a2ae2ce0ea5cc7930,2025-05-21_13h06.20.840,cuing_paradigm_dot,2024.1.5,Win32,60.24096386,682d556593cb38ad0a074487,,,,,,,,,,,177.6434,178.143,,,178.3933,178.7425,left,0.329,,,,,,,,,0.1,,,,,,178.1431,178.3933,178.7427,"[0.0014038878142041684,0.08110859963302668]","[-1,-1,-1]","[0.11679862205245398,0.11326058350110647]","[-1,-1,-1]","[-0.1740568745337223,-0.07862930130220262]","[-1,-1,-1]","[-0.045675553821748954,0.14052170922560558]","[-1,-1,-1]","[0.08778587926625085,-0.06798774482446822]","[-1,-1,-1]","[-0.13583771703886344,-0.1238297543053927]","[-1,-1,-1]","[-0.015406009829920849,-0.03474164333477638]","[-1,-1,-1]","[-0.054886222256059734,0.057548004420727966]","[-1,-1,-1]","[-0.14984500541520154,0.037757265347487474]","[1,1,1]","[-0.10594959293448673,0.10307675183720601]","[-1,-1,-1]","[0.015168527938905432,-0.11449843579422768]","[-1,-1,-1]","[0.006794952826327723,0.13927768957317674]","[-1,-1,-1]","[0.10347309285982438,0.01936603487821658]","[-1,-1,-1]","[-0.16743089391920637,0.09574593030126427]","[-1,-1,-1]","[0.06146997023145089,0.07338642477842144]","[-1,-1,-1]","[0.027294783438992398,0.05037463657655432]","[-1,-1,-1]","[-0.025756119567996137,0.029920911337036615]","[-1,-1,-1]","[0.14343384107479423,-0.10591730571666674]","[-1,-1,-1]","[0.16258246419753764,-0.04777939339273716]","[-1,-1,-1]","[-0.02914082128436019,-0.16772049437110817]","[-1,-1,-1]","[0.08670805761532759,-0.14284894132656273]","[-1,-1,-1]","[0.1724737403779125,0.023624438700247472]","[-1,-1,-1]","[0.059956335618422237,0.15015244117515297]","[-1,-1,-1]","[0.05042303231915691,-0.04747507809817724]","[-1,-1,-1]","[0.039102065961192145,0.10676454825549081]","[-1,-1,-1]","[-0.09328401566952871,0.14224419042033423]","[-1,-1,-1]","[-0.06085559558079539,-0.14169315509517405]","[1,1,1]","[-0.18780505172164327,-0.03028578743051278]","[-1,-1,-1]","[0.17106627615634018,0.09097789736537507]","[1,1,1]","[-0.007511843992861128,-0.08032916721128691]","[-1,-1,-1]","[-0.12383718249142003,-0.018584749781450867]","[-1,-1,-1]","[0.19296504087573596,-0.01886583433456371]","[-1,-1,-1]","[0.02,0.02]",179.8424,0,39,39,3,1,,,,,,,
,,,,,,,603c11e7db9042987c7180be,682db39a2ae2ce0ea5cc7930,2025-05-21_13h06.20.840,cuing_paradigm_dot,2024.1.5,Win32,60.24096386,682d556593cb38ad0a074487,,,,,,,,,,,179.8432,180.3446,,,180.5955,181.1094,right,0.4927,,,,,,,,,0.55,,,,,,180.3446,180.5955,181.1096,"[-0.002890782955958885,0.03210938422211447]","[-1,-1,-1]","[-0.0788238268420451,-0.1316375868355142]","[1,1,1]","[-0.09898274585254013,0.06221355172806294]","[1,1,1]","[0.07996384175263495,0.15426639633049102]","[1,1,1]","[0.03128349232584876,0.13120017014178803]","[-1,-1,-1]","[-0.18357966882512425,-0.07735768282679736]","[1,1,1]","[0.02303106749495885,-0.00276056809124708]","[1,1,1]","[-0.09884073904667214,-0.09336477134497229]","[-1,-1,-1]","[0.026992351726270146,-0.10661743089188286]","[-1,-1,-1]","[-0.019442293327139787,-0.1569057517300117]","[1,1,1]","[0.002755223862433145,-0.04036034771881342]","[-1,-1,-1]","[0.1084781742086091,0.11502541904242142]","[1,1,1]","[-0.0872423604635706,0.12023643534055722]","[-1,-1,-1]","[0.09522854024791508,-0.1325543121859716]","[-1,-1,-1]","[0.06624483119331395,-0.08387048077682034]","[1,1,1]","[0.04272438703633928,-0.15862015437328517]","[1,1,1]","[0.0005751353222587995,0.0884167412863497]","[1,1,1]","[-0.06121000144435518,-0.025781862235403696]","[1,1,1]","[-0.10734810893790846,-0.014069151243327343]","[1,1,1]","[0.13225866578923096,-0.104584661216873]","[-1,-1,-1]","[-0.14253729815921862,-0.05073033615253177]","[-1,-1,-1]","[-0.1780134273268525,0.0032240860334589796]","[-1,-1,-1]","[-0.027044467748061223,-0.09201740162606979]","[1,1,1]","[0.11818459096875802,0.057784418254664884]","[1,1,1]","[-0.010906222970013174,0.18517889019740802]","[1,1,1]","[0.14425739112770034,-0.03655398260428272]","[1,1,1]","[-0.1624871041102176,0.04664560107042797]","[1,1,1]","[-0.05941303138517664,0.022093720701244386]","[-1,-1,-1]","[0.1592172216738526,0.09731154171748746]","[-1,-1,-1]","[0.06810859140964563,-0.03684416357231441]","[-1,-1,-1]","[0.18685794166988887,0.03985179210437481]","[1,1,1]","[-0.05942750274775627,0.08006658333451538]","[-1,-1,-1]","[0.02,0.02]",182.209,0,40,40,121,1,,,,,,,
,,,,,,,603c11e7db9042987c7180be,682db39a2ae2ce0ea5cc7930,2025-05-21_13h06.20.840,cuing_paradigm_dot,2024.1.5,Win32,60.24096386,682d556593cb38ad0a074487,,,,,,,,,,,182.2096,182.7082,,,182.9589,183.4752,right,0.4965,,,,,,,,,0.9,,,,,,182.7084,182.9589,183.4753,"[0.09369975084300429,-0.10844511842994829]","[1,1,1]","[0.15733537523556673,0.08351432034157476]","[1,1,1]","[-0.14809534155260065,-0.04336059632681765]","[1,1,1]","[0.14127451593232163,-0.056995037462727764]","[1,1,1]","[-0.10735989478160188,-0.06588315706283086]","[1,1,1]","[0.0008066757772308851,-0.18542336339235213]","[1,1,1]","[0.14098157479845788,-0.1390233467775024]","[1,1,1]","[-0.03710661791556965,0.12110060929766911]","[1,1,1]","[0.015322151658562244,0.11100305028462217]","[1,1,1]","[-0.0674118204438476,0.047942115722479035]","[-1,-1,-1]","[0.11877716949095858,0.03954125168600802]","[1,1,1]","[0.04676027936407457,-0.17032122769938335]","[1,1,1]","[-0.1428625703415414,-0.13233023195959523]","[1,1,1]","[-0.12621314420354635,0.09138275329072736]","[1,1,1]","[0.007016800770883374,-0.057073573749763254]","[1,1,1]","[-0.1651069879645727,0.08196094161599671]","[1,1,1]","[0.03552516681854113,-0.016179182592587358]","[1,1,1]","[-0.03355130575111407,0.01915848830389096]","[1,1,1]","[0.022484696120187563,0.04023244844592067]","[1,1,1]","[-0.10081585872251726,-0.15756085850319784]","[1,1,1]","[-0.007203971126888479,0.1509437860811354]","[1,1,1]","[-0.07881086261799879,-0.008378523036091875]","[1,1,1]","[0.11733544466423688,0.11223722666867765]","[1,1,1]","[-0.016133745340038003,0.0756380080647735]","[1,1,1]","[-0.1827288031710891,0.004535707673823106]","[1,1,1]","[0.015890874774866462,-0.11894672789102351]","[-1,-1,-1]","[0.024492379210654558,0.1837249249029935]","[1,1,1]","[0.09297665671338123,-0.031520940378554574]","[-1,-1,-1]","[-0.19048557957527493,-0.06013247311931209]","[1,1,1]","[-0.04997693950928537,0.18236555939945123]","[1,1,1]","[-0.10859497934622937,0.04556425312914352]","[1,1,1]","[-0.07816023383244287,-0.10575678731440531]","[1,1,1]","[0.02,0.02]",184.5748,0,41,41,189,1,,,,,,,
,,,,,,,603c11e7db9042987c7180be,682db39a2ae2ce0ea5cc7930,2025-05-21_13h06.20.840,cuing_paradigm_dot,2024.1.5,Win32,60.24096386,682d556593cb38ad0a074487,,,,,,,,,,,184.5756,185.0746,,,185.3277,186.1247,right,0.7697,,,,,,,,,0.6,,,,,,185.0748,185.3277,186.1248,"[0.02472668816736395,0.15976098883630005]","[1,1,1]","[0.02342592582516814,-0.0605873523526149]","[-1,-1,-1]","[0.12226990825747298,-0.14576628260336696]","[1,1,1]","[0.17029986214003973,-0.09785951852303015]","[-1,-1,-1]","[-0.0753526590772381,-0.09008106207138246]","[1,1,1]","[-0.13592153776710472,0.00016353642324332847]","[1,1,1]","[0.012016728718467868,-0.1892489775185889]","[-1,-1,-1]","[-0.13335738490673324,-0.11537354390145475]","[1,1,1]","[0.1170123083510376,-0.005528738274938212]","[1,1,1]","[-0.006466914895477239,-0.11221615643014415]","[1,1,1]","[-0.1448847140015994,-0.06581284436268475]","[-1,-1,-1]","[0.13403450902665048,0.09347454766161868]","[1,1,1]","[-0.014409180423664384,0.07610488120552729]","[1,1,1]","[0.12411771942436892,-0.08773979602198231]","[-1,-1,-1]","[0.03291718620938423,0.050739556934612]","[-1,-1,-1]","[0.08938449015404669,0.06058142311066491]","[1,1,1]","[-0.034182682141569665,0.1948205073610484]","[-1,-1,-1]","[0.061770129748619305,-0.01102500458899686]","[1,1,1]","[-0.07431755559777127,0.10543219148383277]","[1,1,1]","[-0.031244419576929697,-0.008953028073641855]","[-1,-1,-1]","[0.009506586742223015,-0.0076345396339076365]","[-1,-1,-1]","[-0.04047850363379901,0.0441663033618932]","[-1,-1,-1]","[0.06674573554743878,-0.15066968946542628]","[-1,-1,-1]","[-0.08669060969171294,0.17904196667673714]","[-1,-1,-1]","[0.07451923839749434,0.1367604044665392]","[1,1,1]","[0.1513965427281758,0.041971894683131596]","[-1,-1,-1]","[-0.12219783599500546,0.11203607928336382]","[1,1,1]","[-0.026913925432850247,0.1525296293346192]","[1,1,1]","[-0.10842986692978412,-0.04027676202402822]","[1,1,1]","[0.1747944340579735,-0.02061805633555177]","[1,1,1]","[0.08716900303463593,-0.05739242800664313]","[1,1,1]","[-0.015926141407679145,-0.04774899237824413]","[1,1,1]","[0.02,0.02]",187.2241,0,42,42,171,1,,,,,,,
,,,,,,,603c11e7db9042987c7180be,682db39a2ae2ce0ea5cc7930,2025-05-21_13h06.20.840,cuing_paradigm_dot,2024.1.5,Win32,60.24096386,682d556593cb38ad0a074487,,,,,,,,,,,187.2248,187.7243,,,187.9748,188.5245,right,0.5206,,,,,,,,,0.55,,,,,,187.7244,187.9748,188.5245,"[0.036893957697076804,-0.16915452305535753]","[-1,-1,-1]","[-0.037036540145232284,0.15211319863285147]","[1,1,1]","[0.09806662951404128,0.0017269517432264916]","[-1,-1,-1]","[-0.08274797391312652,-0.15719530935438894]","[1,1,1]","[0.06111952138608922,0.023868439863900758]","[-1,-1,-1]","[0.13430541165254178,-0.04321724750013953]","[1,1,1]","[0.0339681352426794,-0.11501496178155696]","[1,1,1]","[-0.18657537459761614,-0.004115197047777227]","[-1,-1,-1]","[0.09317115510741514,-0.13835836317747302]","[1,1,1]","[0.009578829818306394,0.06854673164129314]","[1,1,1]","[-0.1630305953983462,0.03906989136078603]","[1,1,1]","[0.1736983841148417,-0.08159280212529627]","[1,1,1]","[0.09385161629521743,0.09650791097720819]","[-1,-1,-1]","[0.08558827102014963,-0.044371883561777764]","[-1,-1,-1]","[-0.11661595216136465,0.08562711762808681]","[1,1,1]","[-0.11141535633869623,0.006871372633653896]","[1,1,1]","[0.04951527490078048,0.11870698362877469]","[1,1,1]","[0.03977002460438064,-0.07247183956442563]","[1,1,1]","[-0.0871103539682947,0.16651617434883245]","[-1,-1,-1]","[-0.050032463589106686,-0.01097385159094243]","[1,1,1]","[0.016114659120110182,0.0005963039991008724]","[-1,-1,-1]","[-0.09272796435118887,-0.09157115624048465]","[-1,-1,-1]","[-0.02268243326576675,-0.15814717914078769]","[1,1,1]","[0.11553849969593327,0.13672991435578724]","[-1,-1,-1]","[0.17835935129154912,-0.016208532619862635]","[1,1,1]","[-0.18345692025925953,-0.049308872546579334]","[-1,-1,-1]","[-0.1485576594933617,-0.08521907695614123]","[-1,-1,-1]","[-0.04800520857151116,0.0637717870113406]","[-1,-1,-1]","[-0.003458828242575923,0.1291849117129041]","[-1,-1,-1]","[-0.01258469987158893,-0.07478897562721139]","[1,1,1]","[0.18284091447044648,0.050536236250881376]","[1,1,1]","[-0.1590093934412614,0.10177048085973059]","[1,1,1]","[0.02,0.02]",189.6238,0,43,43,149,1,,,,,,,
,,,,,,,603c11e7db9042987c7180be,682db39a2ae2ce0ea5cc7930,2025-05-21_13h06.20.840,cuing_paradigm_dot,2024.1.5,Win32,60.24096386,682d556593cb38ad0a074487,,,,,,,,,,,189.6245,190.1236,,,190.3766,190.9287,left,0.5358,,,,,,,,,0.45,,,,,,190.1237,190.3766,190.9288,"[0.019143380776811672,-0.06876304088497945]","[-1,-1,-1]","[-0.10734497533495273,-0.007706551697684272]","[1,1,1]","[-0.08693212570072986,-0.07414698469917781]","[-1,-1,-1]","[0.0010591511825855306,0.09717323643340023]","[1,1,1]","[-0.08046847740357095,0.1261030466672591]","[-1,-1,-1]","[-0.012864410212806293,0.05493397954886164]","[-1,-1,-1]","[0.06466660908498797,-0.07028406551906663]","[-1,-1,-1]","[0.13179306380621558,-0.03432793818143896]","[-1,-1,-1]","[0.1286542079667132,-0.09594911047065295]","[1,1,1]","[0.17450659154026288,0.01390647000525717]","[1,1,1]","[0.11281655057103812,0.02555272669914476]","[-1,-1,-1]","[-0.1264254065428304,-0.11787053787812206]","[-1,-1,-1]","[-0.033973667805148634,-0.09584566637941708]","[1,1,1]","[0.11118953028357315,-0.1437497961163555]","[-1,-1,-1]","[-0.006531805817177154,0.19364870395366277]","[1,1,1]","[-0.010040615641007535,0.0045436266402837135]","[1,1,1]","[0.11366227984501868,0.08270531727976796]","[-1,-1,-1]","[0.05252468380198223,0.11328800671961789]","[-1,-1,-1]","[-0.048196447154606546,-0.03926860313810952]","[1,1,1]","[-0.13475440387055115,0.04025812475793877]","[1,1,1]","[-0.06468442109126622,-0.14143072228843773]","[1,1,1]","[0.024217975751515967,-0.184257673995969]","[-1,-1,-1]","[-0.12358964207506073,0.11304712179792273]","[-1,-1,-1]","[-0.04635524262952252,0.18337550288614568]","[-1,-1,-1]","[0.04476113108859791,0.00575297850674353]","[-1,-1,-1]","[0.06284755385895352,-0.1467574833671924]","[-1,-1,-1]","[-0.0669024680169236,0.08774554749302263]","[-1,-1,-1]","[0.06539440662529898,0.06647785870410451]","[-1,-1,-1]","[0.01874448531025579,0.14440623572939443]","[1,1,1]","[-0.042172632536340265,0.1379318780531826]","[1,1,1]","[-0.050603312748719396,-0.1800026400214975]","[1,1,1]","[0.026609980164049262,0.045231392352923436]","[1,1,1]","[0.02,0.02]",192.0233,0,44,44,80,1,,,,,,,
