right,left,explain.started,explain.stopped,key_resp_3.keys,key_resp_3.rt,key_resp_3.duration,participant,session,date,expName,psychopyVersion,OS,frameRate,study_id,explain_2.started,explain_2.stopped,key_resp_4.keys,key_resp_4.rt,key_resp_4.duration,explain_3.started,explain_3.stopped,key_resp_5.keys,key_resp_5.rt,key_resp_5.duration,fixation.started,fixation.stopped,practice.started,practice.stopped,response.started,response.stopped,key_resp.keys,feedback.started,feedback.stopped,trials_2.thisRepN,trials_2.thisTrialN,trials_2.thisN,trials_2.thisIndex,trials_2.ran,white_ratio,key_resp.rt,key_resp.duration,explain_4.started,explain_4.stopped,key_resp_6.keys,key_resp_6.rt,key_resp_6.duration,dotDisplay.started,dotDisplay.stopped,ITI.started,polygon_1.pos,polygon_1.color,polygon_2.pos,polygon_2.color,polygon_3.pos,polygon_3.color,polygon_4.pos,polygon_4.color,polygon_5.pos,polygon_5.color,polygon_6.pos,polygon_6.color,polygon_7.pos,polygon_7.color,polygon_8.pos,polygon_8.color,polygon_9.pos,polygon_9.color,polygon_10.pos,polygon_10.color,polygon_11.pos,polygon_11.color,polygon_12.pos,polygon_12.color,polygon_13.pos,polygon_13.color,polygon_14.pos,polygon_14.color,polygon_15.pos,polygon_15.color,polygon_16.pos,polygon_16.color,polygon_17.pos,polygon_17.color,polygon_18.pos,polygon_18.color,polygon_19.pos,polygon_19.color,polygon_20.pos,polygon_20.color,polygon_21.pos,polygon_21.color,polygon_22.pos,polygon_22.color,polygon_23.pos,polygon_23.color,polygon_24.pos,polygon_24.color,polygon_25.pos,polygon_25.color,polygon_26.pos,polygon_26.color,polygon_27.pos,polygon_27.color,polygon_28.pos,polygon_28.color,polygon_29.pos,polygon_29.color,polygon_30.pos,polygon_30.color,polygon_31.pos,polygon_31.color,polygon_32.pos,polygon_32.color,dot_size,ITI.stopped,trials.thisRepN,trials.thisTrialN,trials.thisN,trials.thisIndex,trials.ran,break_2.started,break_2.stopped,trials_3.thisRepN,trials_3.thisTrialN,trials_3.thisN,trials_3.thisIndex,trials_3.ran
subject chose black,subject chose white,0.0007,86.9777,space,71.9517,,60d1e0cc196b3af97639e61a,682f0fca7f8fc3438384ae8c,2025-05-22_13h52.11.002,cuing_paradigm_dot,2024.1.5,Win32,59.52380952,682d573fa47f1360d1451895,,,,,,,,,,,,,,,,,,,,,,,,,,,,,,,,,,,,,,,,,,,,,,,,,,,,,,,,,,,,,,,,,,,,,,,,,,,,,,,,,,,,,,,,,,,,,,,,,,,,,,,,,,,,,,,,,
,,,,,,,60d1e0cc196b3af97639e61a,682f0fca7f8fc3438384ae8c,2025-05-22_13h52.11.002,cuing_paradigm_dot,2024.1.5,Win32,59.52380952,682d573fa47f1360d1451895,86.9785,124.7589,space,7.7583,,,,,,,,,,,,,,,,,,,,,,,,,,,,,,,,,,,,,,,,,,,,,,,,,,,,,,,,,,,,,,,,,,,,,,,,,,,,,,,,,,,,,,,,,,,,,,,,,,,,,,,,,,,,,
,,,,,,,60d1e0cc196b3af97639e61a,682f0fca7f8fc3438384ae8c,2025-05-22_13h52.11.002,cuing_paradigm_dot,2024.1.5,Win32,59.52380952,682d573fa47f1360d1451895,,,,,,124.7592,129.7419,space,1.9557,,,,,,,,,,,,,,,,,,,,,,,,,,,,,,,,,,,,,,,,,,,,,,,,,,,,,,,,,,,,,,,,,,,,,,,,,,,,,,,,,,,,,,,,,,,,,,,,,,,,,,,,
,,,,,,,60d1e0cc196b3af97639e61a,682f0fca7f8fc3438384ae8c,2025-05-22_13h52.11.002,cuing_paradigm_dot,2024.1.5,Win32,59.52380952,682d573fa47f1360d1451895,,,,,,,,,,,129.7681,130.258,130.2584,130.4929,130.4934,131.9918,,131.9922,133.092,0,0,0,0,1,0.8,,,,,,,,,,,,,,,,,,,,,,,,,,,,,,,,,,,,,,,,,,,,,,,,,,,,,,,,,,,,,,,,,,,,,,,,,,,,,,,,,,,,,,,,
,,,,,,,60d1e0cc196b3af97639e61a,682f0fca7f8fc3438384ae8c,2025-05-22_13h52.11.002,cuing_paradigm_dot,2024.1.5,Win32,59.52380952,682d573fa47f1360d1451895,,,,,,,,,,,133.0929,133.5914,133.5916,133.8424,133.8426,134.8913,left,134.8914,135.9914,0,1,1,1,1,0.2,1.0407,,,,,,,,,,,,,,,,,,,,,,,,,,,,,,,,,,,,,,,,,,,,,,,,,,,,,,,,,,,,,,,,,,,,,,,,,,,,,,,,,,,,,,,
,,,,,,,60d1e0cc196b3af97639e61a,682f0fca7f8fc3438384ae8c,2025-05-22_13h52.11.002,cuing_paradigm_dot,2024.1.5,Win32,59.52380952,682d573fa47f1360d1451895,,,,,,,,,,,,,,,,,,,,,,,,,,,,135.9922,142.8575,space,3.8393,,,,,,,,,,,,,,,,,,,,,,,,,,,,,,,,,,,,,,,,,,,,,,,,,,,,,,,,,,,,,,,,,,,,,,,,,,,,,,,,,,
,,,,,,,60d1e0cc196b3af97639e61a,682f0fca7f8fc3438384ae8c,2025-05-22_13h52.11.002,cuing_paradigm_dot,2024.1.5,Win32,59.52380952,682d573fa47f1360d1451895,,,,,,,,,,,142.8689,143.3572,,,143.6079,144.4411,left,,,,,,,,0.55,0.8192,,,,,,,143.3579,143.6079,144.4417,"[-0.09064077238527718,0.09198585139806134]","[-1,-1,-1]","[0.12258279926355244,0.12094966328058789]","[-1,-1,-1]","[0.06725371863842637,0.002333301604259668]","[1,1,1]","[0.15713017415534383,-0.03008012105408719]","[1,1,1]","[0.10386331895987748,-0.1615812050626924]","[-1,-1,-1]","[-0.1296601753372397,-0.018217472361663777]","[1,1,1]","[-0.06834955187063746,0.00600192416689652]","[1,1,1]","[-0.02076556138194376,0.05344971459352586]","[1,1,1]","[-0.13523148524949363,0.08506012985324168]","[1,1,1]","[-0.04355915152017896,-0.16407897710306116]","[1,1,1]","[0.024453850679927613,0.1219521237845202]","[1,1,1]","[0.07045145131753691,-0.10032487068074473]","[1,1,1]","[-0.013850536672641333,0.1458378470255492]","[-1,-1,-1]","[-0.02320783746234502,0.18616458629359403]","[-1,-1,-1]","[0.06115297694927793,0.17885821677876876]","[-1,-1,-1]","[0.09995518431000051,0.08279804684934568]","[-1,-1,-1]","[-0.09858622090452644,0.04777736005964601]","[-1,-1,-1]","[-0.105097218799315,-0.15559115680448798]","[-1,-1,-1]","[0.14805250354442384,-0.07973812019572606]","[1,1,1]","[0.11641295466603004,-0.006057765935006596]","[1,1,1]","[-0.18208458055753404,-0.07228689854144194]","[-1,-1,-1]","[-0.018587060749176553,-0.020442060165317518]","[1,1,1]","[0.15430671958149295,0.07090923742612627]","[1,1,1]","[0.024641379191565012,-0.16964486561635064]","[-1,-1,-1]","[-0.03777218561597402,-0.12189007050881015]","[-1,-1,-1]","[-0.06711236969903106,-0.047270050052147135]","[1,1,1]","[-0.1785194558195577,0.06777721482739686]","[-1,-1,-1]","[0.022027412073332545,-0.08644311508711724]","[1,1,1]","[0.00998091969321924,0.08316580024517807]","[1,1,1]","[0.07525148153150377,0.04510114265873356]","[-1,-1,-1]","[-0.08119345877594424,0.14791693314005752]","[1,1,1]","[-0.13692324229160202,-0.11579982428788918]","[1,1,1]","[0.02,0.02]",145.5415,0,0,0,138,1,,,,,,,
,,,,,,,60d1e0cc196b3af97639e61a,682f0fca7f8fc3438384ae8c,2025-05-22_13h52.11.002,cuing_paradigm_dot,2024.1.5,Win32,59.52380952,682d573fa47f1360d1451895,,,,,,,,,,,145.5423,146.0411,,,146.2909,146.9923,right,,,,,,,,0.4,0.6914,,,,,,,146.0412,146.2909,146.9923,"[-0.09985290972100604,0.01722051431068187]","[-1,-1,-1]","[-0.054259349368608344,0.12294928852122765]","[-1,-1,-1]","[-0.05480345448847065,-0.043058638372062384]","[1,1,1]","[0.13055585776007608,-0.026716457536191063]","[-1,-1,-1]","[0.12875499879777008,0.07694110171120873]","[1,1,1]","[0.04529653513402802,-0.1474822032829628]","[1,1,1]","[-0.09179105649867898,-0.17246021371654216]","[-1,-1,-1]","[0.16650096926434527,0.021568221343525377]","[-1,-1,-1]","[0.0012652070853771383,-0.07742477609639965]","[-1,-1,-1]","[0.1711742819041806,-0.1002414561031687]","[1,1,1]","[-0.020217642698769064,-0.1170129633226571]","[1,1,1]","[-0.12009419779669621,0.1285573646729299]","[-1,-1,-1]","[-0.18583026926551235,-0.04436054497660838]","[1,1,1]","[0.054146785393989406,0.12329633263074084]","[-1,-1,-1]","[-0.14752993012559662,0.03624314204174838]","[1,1,1]","[0.02970047150835536,-0.19552461101601443]","[1,1,1]","[-0.07472033909528243,-0.10874237854129025]","[1,1,1]","[-0.048117619785533215,0.02514112222408173]","[-1,-1,-1]","[0.13417412031555004,0.14063242135144094]","[1,1,1]","[-0.10657619185693117,-0.08402801826282875]","[1,1,1]","[-0.0461926253281701,-0.15026183547159963]","[-1,-1,-1]","[0.08231990289932953,0.0292942815651855]","[1,1,1]","[-0.12971878373102272,-0.13032619003323104]","[-1,-1,-1]","[0.09403582290763188,0.11743436648462535]","[-1,-1,-1]","[0.009226187017519965,0.05223733780308552]","[-1,-1,-1]","[-0.08768204691412566,0.06560698177295363]","[-1,-1,-1]","[0.11614956033282056,-0.1022191683296509]","[-1,-1,-1]","[-0.07451779218228569,0.1646677511046268]","[-1,-1,-1]","[-0.000016026039798784235,0.17660588518240614]","[1,1,1]","[0.08537279048806394,-0.048890670331624364]","[-1,-1,-1]","[0.11507601997891356,-0.15695713340434242]","[-1,-1,-1]","[0.0428213703863951,0.18993996584077683]","[-1,-1,-1]","[0.02,0.02]",148.0912,0,1,1,48,1,,,,,,,
,,,,,,,60d1e0cc196b3af97639e61a,682f0fca7f8fc3438384ae8c,2025-05-22_13h52.11.002,cuing_paradigm_dot,2024.1.5,Win32,59.52380952,682d573fa47f1360d1451895,,,,,,,,,,,148.0921,148.5915,,,148.8419,149.6578,left,,,,,,,,0.9,0.8011,,,,,,,148.5916,148.8419,149.6579,"[-0.02291133866386817,-0.15430897469463561]","[1,1,1]","[-0.004981306820529465,0.13530241879195548]","[1,1,1]","[-0.06366536267179897,0.06707885896941675]","[1,1,1]","[0.04326154688088479,-0.052469249018431474]","[1,1,1]","[0.061359104001626114,0.04175560258946479]","[1,1,1]","[-0.13948953044377993,0.12433188925816588]","[1,1,1]","[-0.027035531351626136,-0.007560541172413867]","[1,1,1]","[-0.12610795919354872,0.06054165875257648]","[1,1,1]","[0.06366659609989751,0.10258105249853873]","[1,1,1]","[-0.18716973234299486,-0.06587940106342628]","[1,1,1]","[0.06702845793920832,0.1561181753454628]","[1,1,1]","[-0.08467852017409376,-0.1246799624865616]","[-1,-1,-1]","[-0.056725715722790115,0.10999005987304002]","[1,1,1]","[-0.08068514555687928,-0.0018657943123202183]","[-1,-1,-1]","[0.09951492286752951,-0.04786736262955824]","[1,1,1]","[0.19161269035970796,-0.03974279672738202]","[1,1,1]","[0.07512824237078118,-0.10114262097368111]","[-1,-1,-1]","[0.1811719802839373,0.06002496181706221]","[1,1,1]","[0.13508686944926573,0.010408215592917767]","[1,1,1]","[-0.12762816306569974,-0.09056791752952106]","[1,1,1]","[-0.16003868532378054,0.026249930696658326]","[1,1,1]","[-0.14188488850699474,-0.03518174787315096]","[1,1,1]","[-0.0007176521615249909,0.19223490199860252]","[1,1,1]","[0.0860334295701077,-0.15744588685271083]","[1,1,1]","[-0.02581159510548887,-0.06842466511410242]","[1,1,1]","[-0.08787035791722986,-0.16814369424370684]","[1,1,1]","[0.017227245357335063,0.01578578740990313]","[1,1,1]","[0.03401710089790893,-0.15611612368605088]","[1,1,1]","[0.04289536817284033,0.19232847386716692]","[1,1,1]","[-0.004687685432154375,0.059623496351411925]","[1,1,1]","[0.1829997534561815,-0.07966817236826557]","[1,1,1]","[-0.09419014474108346,-0.059716758740107734]","[1,1,1]","[0.02,0.02]",150.7577,0,2,2,202,1,,,,,,,
,,,,,,,60d1e0cc196b3af97639e61a,682f0fca7f8fc3438384ae8c,2025-05-22_13h52.11.002,cuing_paradigm_dot,2024.1.5,Win32,59.52380952,682d573fa47f1360d1451895,,,,,,,,,,,150.7583,151.257,,,151.508,152.0574,left,,,,,,,,0.9,0.5342,,,,,,,151.2571,151.5079,152.0575,"[-0.14625299909763909,-0.02190428902624461]","[1,1,1]","[0.052316820027786336,-0.1748952269954167]","[1,1,1]","[-0.029384012781638245,-0.06436176286381984]","[1,1,1]","[-0.08667721606119624,0.15641950322913784]","[1,1,1]","[-0.1355614118305947,0.02651626910838617]","[-1,-1,-1]","[-0.09300756736150204,-0.021561281838627974]","[1,1,1]","[-0.07641340774762355,-0.14659919330182586]","[1,1,1]","[-0.12421051250397494,-0.08681441024406047]","[1,1,1]","[-0.06979203795042618,0.09805398936975941]","[1,1,1]","[0.1287523753500253,0.024280986301374926]","[1,1,1]","[0.05853593497842825,0.017900373600171868]","[1,1,1]","[-0.1784835799647659,0.003666447272912759]","[1,1,1]","[-0.18783241150442556,-0.049226267132377016]","[1,1,1]","[-0.16867102780719204,-0.09213408275979636]","[1,1,1]","[-0.031683934900170616,0.14235114064591792]","[1,1,1]","[0.06920769339777547,0.07578085732380506]","[1,1,1]","[0.02876596290305582,0.07010923199261543]","[1,1,1]","[0.15227986505387725,-0.01839501978044298]","[1,1,1]","[0.016096932560444557,-0.07617514301029252]","[1,1,1]","[-0.029231129291053898,0.1971140530895259]","[1,1,1]","[0.11792870773972418,0.07818827900345797]","[1,1,1]","[0.18793183475814634,-0.0593254553788372]","[1,1,1]","[0.14570869010316265,-0.08035893995016968]","[1,1,1]","[-0.01956371425695159,0.002458122941531881]","[1,1,1]","[0.17422560640443518,0.050290958897966115]","[1,1,1]","[0.04424688050902567,-0.11507144381229312]","[1,1,1]","[-0.1221971141544003,0.0947218316450898]","[-1,-1,-1]","[0.03482327190631986,0.18837821907702143]","[1,1,1]","[-0.028408088872353878,0.07203126796050842]","[1,1,1]","[-0.17556905387710411,0.08087429964853529]","[1,1,1]","[-0.19423823884425062,0.04102374255350914]","[-1,-1,-1]","[-0.08184249117574013,-0.0666818364515803]","[1,1,1]","[0.02,0.02]",153.1569,0,3,3,188,1,,,,,,,
,,,,,,,60d1e0cc196b3af97639e61a,682f0fca7f8fc3438384ae8c,2025-05-22_13h52.11.002,cuing_paradigm_dot,2024.1.5,Win32,59.52380952,682d573fa47f1360d1451895,,,,,,,,,,,153.1573,153.6571,,,153.9072,154.3407,left,,,,,,,,0.9,0.4189,,,,,,,153.6571,153.9071,154.3409,"[0.057865668475386836,-0.11853221716281262]","[1,1,1]","[-0.16375010515783064,0.03135353830178105]","[1,1,1]","[-0.13442048086876557,-0.02653725843238236]","[1,1,1]","[0.016988954324957152,0.13533154316819676]","[1,1,1]","[0.04258986381636054,-0.0205692899755747]","[1,1,1]","[0.09468259563655468,0.12593273797104623]","[1,1,1]","[-0.002176266414238631,-0.12924175789024622]","[-1,-1,-1]","[0.06467144664103945,-0.1821536924738697]","[1,1,1]","[0.18697395947543724,-0.04064273518287367]","[1,1,1]","[0.05086571961035124,0.018734789739215964]","[1,1,1]","[0.09278047664336386,0.04492874378745747]","[1,1,1]","[-0.09963521640319685,0.01990215520499855]","[1,1,1]","[-0.019019891885357246,-0.07356887670926958]","[1,1,1]","[-0.12551716276936825,-0.09371523483569544]","[1,1,1]","[0.13725484572111102,0.0601612986085955]","[1,1,1]","[0.16438554045056467,-0.07720839471707723]","[-1,-1,-1]","[0.08919927394572638,-0.04607452018887498]","[1,1,1]","[-0.14284737314765045,0.08840894156583666]","[1,1,1]","[-0.05996157279817757,0.035201541503180576]","[1,1,1]","[-0.04134537010604462,0.07357278496354583]","[1,1,1]","[-0.05913979887889122,-0.17398076729831471]","[-1,-1,-1]","[-0.05062963237864884,0.1745708040064048]","[1,1,1]","[0.001264818180004667,0.055188140280238836]","[1,1,1]","[-0.05622069087013193,-0.055123131381270694]","[1,1,1]","[-0.1757498270914147,-0.08126664413425952]","[1,1,1]","[0.1418793212905153,0.13737545992335418]","[1,1,1]","[0.1406293903697359,-0.13965147628412675]","[1,1,1]","[-0.024084583343026968,0.12164688131806929]","[1,1,1]","[0.04820267064842957,0.06126333440128887]","[1,1,1]","[-0.17828679590169916,0.06904354756489546]","[1,1,1]","[-0.014859848994974107,-0.19084744015527935]","[1,1,1]","[0.11963269034385444,-0.10528505105146282]","[1,1,1]","[0.02,0.02]",155.4404,0,4,4,186,1,,,,,,,
,,,,,,,60d1e0cc196b3af97639e61a,682f0fca7f8fc3438384ae8c,2025-05-22_13h52.11.002,cuing_paradigm_dot,2024.1.5,Win32,59.52380952,682d573fa47f1360d1451895,,,,,,,,,,,155.4407,155.9408,,,156.1913,156.8072,right,,,,,,,,0.5,0.6014,,,,,,,155.9409,156.1913,156.8073,"[0.053285289082042955,0.16542494728330173]","[-1,-1,-1]","[-0.06341983384779229,-0.042402019288539684]","[-1,-1,-1]","[0.03477552149472643,-0.09860419624455778]","[-1,-1,-1]","[-0.06725504095382567,-0.12833630445002783]","[-1,-1,-1]","[-0.03974900530816449,0.09685237701576785]","[1,1,1]","[-0.11573213815969734,-0.08438235480516071]","[-1,-1,-1]","[0.13588070327392177,-0.08928300741299318]","[1,1,1]","[0.14219195931761544,0.015386642658131024]","[1,1,1]","[0.057190537801113786,-0.16838699734918552]","[1,1,1]","[0.06517606357786553,0.0656605563245522]","[-1,-1,-1]","[-0.1608441838169765,-0.0883851952053498]","[-1,-1,-1]","[0.1682607423372693,0.06665567696849745]","[-1,-1,-1]","[0.07260865364917402,-0.04476055515841706]","[1,1,1]","[0.1789137948259191,-0.026460679152858674]","[1,1,1]","[0.12418351288031848,0.0890694230257337]","[-1,-1,-1]","[-0.12796745781649307,-0.023605570195865535]","[-1,-1,-1]","[-0.13293509437546294,0.05724820637901839]","[-1,-1,-1]","[-0.09929899910669546,0.09280130431035767]","[1,1,1]","[-0.05338633836775116,-0.17323046371124876]","[1,1,1]","[-0.011474656095411154,0.06426185135655842]","[-1,-1,-1]","[0.0940773776632684,0.03662204557455457]","[1,1,1]","[0.11695251432185046,-0.1526546672368982]","[-1,-1,-1]","[0.10234503921809464,0.1666279954938616]","[-1,-1,-1]","[0.015151800475190045,0.14380406811928984]","[-1,-1,-1]","[-0.1668809182555697,0.09103297063370211]","[1,1,1]","[-0.0005906958070900077,-0.162968582088531]","[1,1,1]","[-0.19022909848351868,0.006183078886447474]","[1,1,1]","[0.0187709751895285,0.09384302997729416]","[1,1,1]","[-0.19109154551349744,-0.05812508515123433]","[1,1,1]","[-0.0841963971682964,0.1739755740912368]","[1,1,1]","[-0.11513108802957778,-0.12605592996425244]","[1,1,1]","[0.07615592813936532,-0.11249434366923793]","[-1,-1,-1]","[0.02,0.02]",157.9066,0,5,5,90,1,,,,,,,
,,,,,,,60d1e0cc196b3af97639e61a,682f0fca7f8fc3438384ae8c,2025-05-22_13h52.11.002,cuing_paradigm_dot,2024.1.5,Win32,59.52380952,682d573fa47f1360d1451895,,,,,,,,,,,157.9071,158.4066,,,158.6576,159.274,right,,,,,,,,0.4,0.6016,,,,,,,158.4068,158.6576,159.2741,"[-0.10756527257543896,0.09658290594993968]","[-1,-1,-1]","[-0.038218981470870196,-0.08917896687351042]","[1,1,1]","[-0.1628152509434309,-0.03012958023408252]","[-1,-1,-1]","[-0.1178955956087133,0.15864565677759745]","[1,1,1]","[-0.00461400858841112,0.12423573613691488]","[1,1,1]","[0.16995825983415916,0.03776856350982691]","[1,1,1]","[0.15174116430190046,-0.06861622021064309]","[-1,-1,-1]","[-0.0974618976351439,-0.042699265470409975]","[1,1,1]","[-0.027584593068724704,0.056118638440416695]","[-1,-1,-1]","[0.012720850620934901,-0.048745400423525966]","[-1,-1,-1]","[-0.14687549053122814,0.06296385481162846]","[1,1,1]","[0.14142963409868717,-0.11047298224964892]","[-1,-1,-1]","[-0.01944540940774764,0.18930637111224385]","[1,1,1]","[-0.04733204811531773,-0.023352254966179514]","[1,1,1]","[-0.09221129949568592,0.020290347717844694]","[-1,-1,-1]","[0.047015847930084724,0.05201916502772546]","[-1,-1,-1]","[0.11999132112747934,-0.013878582042761062]","[1,1,1]","[0.07907892460449968,0.12980384115952243]","[-1,-1,-1]","[0.14918218758376714,0.09397140725615459]","[1,1,1]","[-0.16414390407852922,0.020788862142519467]","[-1,-1,-1]","[-0.1990877688705628,-0.004717985828694705]","[1,1,1]","[0.19200343691660177,-0.019834278041571486]","[1,1,1]","[-0.07378813174385246,0.13965225535465425]","[-1,-1,-1]","[-0.12281754084324575,-0.0959826878452754]","[-1,-1,-1]","[0.09847130038511943,0.08062934732941403]","[-1,-1,-1]","[0.12130988312855605,0.027446353406994854]","[-1,-1,-1]","[0.007447127432588515,-0.00683992376842438]","[-1,-1,-1]","[0.09565598447176418,-0.11385710970617981]","[-1,-1,-1]","[0.07575223354091963,0.17073944643688205]","[-1,-1,-1]","[0.051879540054961995,-0.009034709706217836]","[-1,-1,-1]","[0.07220031134432284,-0.07258169819533072]","[1,1,1]","[-0.14559377240203306,0.11050310180878714]","[-1,-1,-1]","[0.02,0.02]",160.3738,0,6,6,50,1,,,,,,,
,,,,,,,60d1e0cc196b3af97639e61a,682f0fca7f8fc3438384ae8c,2025-05-22_13h52.11.002,cuing_paradigm_dot,2024.1.5,Win32,59.52380952,682d573fa47f1360d1451895,,,,,,,,,,,160.3743,160.8742,,,161.1244,161.8738,right,,,,,,,,0.55,0.7328,,,,,,,160.8743,161.1244,161.8738,"[-0.1261939517124165,0.11951653773693953]","[-1,-1,-1]","[0.14818067603715507,-0.062416969169497474]","[-1,-1,-1]","[-0.16821727917142565,0.014141935990860693]","[1,1,1]","[0.000037389365254543744,-0.1391332621778849]","[1,1,1]","[0.06270078318378323,-0.10158268685360797]","[1,1,1]","[0.06420891869007658,-0.18163031625963805]","[-1,-1,-1]","[-0.06414023941508062,-0.04163197803446258]","[1,1,1]","[0.06862799641845443,0.022361968119246498]","[1,1,1]","[-0.025177446376644978,0.16372476230140637]","[1,1,1]","[-0.06229090084871161,0.002664212971403842]","[1,1,1]","[-0.0717145887184967,0.13787826259654046]","[-1,-1,-1]","[0.09907507963400722,0.12575931696810286]","[1,1,1]","[0.03828949016937403,0.08639973001092463]","[1,1,1]","[0.14584036869150832,0.10223136665123532]","[1,1,1]","[0.13328931413721282,-0.0019183144880197333]","[-1,-1,-1]","[-0.166543142429722,-0.06005686595119695]","[1,1,1]","[0.012926407640905828,-0.009839666851448119]","[1,1,1]","[0.10913892849960134,-0.15077383114772255]","[-1,-1,-1]","[-0.12497751567524736,-0.03961856854306353]","[1,1,1]","[0.11911191054561243,-0.10690316217089435]","[-1,-1,-1]","[-0.07279406290690368,-0.17074492113762574]","[-1,-1,-1]","[0.05248689364036183,0.13394014428900702]","[-1,-1,-1]","[-0.15649999459175434,-0.10045566845276863]","[-1,-1,-1]","[-0.08474603810835653,0.03979457697868595]","[1,1,1]","[-0.014985537663687518,-0.044903067312134476]","[-1,-1,-1]","[-0.1654409715075663,0.10977151099850503]","[-1,-1,-1]","[0.11503043794315143,0.07236523972483248]","[-1,-1,-1]","[0.1761689575474573,0.07108922581752594]","[1,1,1]","[-0.12706593467998095,-0.15287293629636567]","[1,1,1]","[0.0936274468027526,0.17360861617445833]","[1,1,1]","[-0.07179764416216998,0.07923893513362461]","[-1,-1,-1]","[0.012210218996716484,-0.1885919267997371]","[1,1,1]","[0.02,0.02]",162.9739,0,7,7,145,1,,,,,,,
,,,,,,,60d1e0cc196b3af97639e61a,682f0fca7f8fc3438384ae8c,2025-05-22_13h52.11.002,cuing_paradigm_dot,2024.1.5,Win32,59.52380952,682d573fa47f1360d1451895,,,,,,,,,,,162.9744,163.4739,,,163.7244,164.3069,right,,,,,,,,0.45,0.5687,,,,,,,163.474,163.7243,164.3069,"[0.025751718446854182,0.13460146590930055]","[-1,-1,-1]","[0.04792810271920555,-0.10037467950822533]","[-1,-1,-1]","[0.132083840931088,-0.09494563926473712]","[1,1,1]","[0.07598848943577051,0.04527862294120925]","[1,1,1]","[0.07262298448952735,0.16930310082906147]","[-1,-1,-1]","[0.10005074211786655,-0.1566015233799812]","[1,1,1]","[-0.09055813793375837,-0.03873464241191868]","[1,1,1]","[-0.13875756301902453,0.08855651541485852]","[1,1,1]","[0.037219655947190726,-0.05139270034728638]","[-1,-1,-1]","[-0.038049910778338705,0.0063643440806372305]","[-1,-1,-1]","[-0.10970101957657784,0.16530608715402337]","[-1,-1,-1]","[-0.18506166611029165,0.053177831061169564]","[1,1,1]","[0.18030509391376273,0.0633202936402342]","[1,1,1]","[-0.05023597463884629,-0.08988135120303434]","[-1,-1,-1]","[-0.13800425512494213,-0.05356112936118675]","[1,1,1]","[0.06066904175964965,-0.18500500858948823]","[-1,-1,-1]","[0.15079345168057684,0.004807988709181078]","[1,1,1]","[-0.07700050014801742,0.062310125194674236]","[-1,-1,-1]","[-0.05948009237849467,-0.18536244208887212]","[-1,-1,-1]","[-0.1392782471808658,-0.11802706103676922]","[-1,-1,-1]","[0.048713711643564674,0.0791716972718144]","[1,1,1]","[0.11372016510885616,-0.039155569253473216]","[-1,-1,-1]","[0.014568512561582342,0.176695173773155]","[1,1,1]","[-0.011914708881130826,-0.1275132114800473]","[-1,-1,-1]","[0.007114211813281704,0.04608271789419473]","[-1,-1,-1]","[0.02842376699218616,-0.1595205470008791]","[1,1,1]","[-0.008222797093895397,-0.06929963947977304]","[1,1,1]","[0.0881001182057014,0.10884854485672371]","[1,1,1]","[0.05212254095212256,-0.0022075431933538192]","[-1,-1,-1]","[-0.09648008741762404,-0.13088690252309756]","[-1,-1,-1]","[0.1724767161748244,-0.06139979261561964]","[-1,-1,-1]","[-0.0576191704988638,0.1559877944423867]","[-1,-1,-1]","[0.02,0.02]",165.4069,0,8,8,60,1,,,,,,,
,,,,,,,60d1e0cc196b3af97639e61a,682f0fca7f8fc3438384ae8c,2025-05-22_13h52.11.002,cuing_paradigm_dot,2024.1.5,Win32,59.52380952,682d573fa47f1360d1451895,,,,,,,,,,,165.4072,165.9068,,,166.1579,166.857,left,,,,,,,,0.6,0.6834,,,,,,,165.9068,166.1578,166.8571,"[-0.1668917141967119,-0.03162220434525795]","[1,1,1]","[-0.02214719239851911,-0.1663450836819227]","[1,1,1]","[0.06230748050617387,-0.14184832689373025]","[1,1,1]","[0.13745456839399048,-0.13770002926406041]","[-1,-1,-1]","[0.0765993946171144,0.16312813497119055]","[1,1,1]","[-0.1210546931061629,0.15649878725593117]","[-1,-1,-1]","[0.07288213308507968,-0.056090713126337635]","[1,1,1]","[0.15346982229647538,0.11815597800916726]","[-1,-1,-1]","[0.01626122202384555,0.023507535239526724]","[-1,-1,-1]","[-0.08847868606207544,0.0115707736975232]","[1,1,1]","[-0.14862243383971024,0.057724918837366794]","[1,1,1]","[-0.07304523398499137,-0.09187865822563736]","[1,1,1]","[-0.04297614006318299,0.09406189280258367]","[-1,-1,-1]","[0.06686141639164124,0.0967598108976728]","[1,1,1]","[-0.15737191438393788,0.01126712164470483]","[1,1,1]","[-0.07702863329428085,-0.15731228834057592]","[1,1,1]","[-0.02238316852248537,0.18379146268356442]","[1,1,1]","[-0.08659595294207942,0.123793276609179]","[-1,-1,-1]","[-0.14384503780431787,-0.12246546312006279]","[-1,-1,-1]","[0.1648100492784965,0.013060556036077494]","[-1,-1,-1]","[0.12973707567015327,-0.042987948273767125]","[1,1,1]","[0.07434468063607942,0.023408301207320285]","[1,1,1]","[0.09195253819574109,-0.1707245980163722]","[1,1,1]","[0.012895011547321724,0.06475483975322487]","[1,1,1]","[-0.024332538117889074,-0.061451340224894124]","[1,1,1]","[-0.11013668301147049,-0.06757744503508828]","[-1,-1,-1]","[0.182601090826018,0.07857284604016927]","[1,1,1]","[0.015811892176529452,-0.135516165029635]","[1,1,1]","[-0.02200891078775525,-0.01754335333462559]","[-1,-1,-1]","[0.11930397028454867,0.0032667521437369533]","[-1,-1,-1]","[-0.06912870168625361,0.17185219875638005]","[-1,-1,-1]","[-0.046460095914625736,0.01742573445129191]","[-1,-1,-1]","[0.02,0.02]",167.9571,0,9,9,155,1,,,,,,,
,,,,,,,60d1e0cc196b3af97639e61a,682f0fca7f8fc3438384ae8c,2025-05-22_13h52.11.002,cuing_paradigm_dot,2024.1.5,Win32,59.52380952,682d573fa47f1360d1451895,,,,,,,,,,,167.9577,168.4572,,,168.7076,169.7064,right,,,,,,,,0.45,0.9827,,,,,,,168.4573,168.7075,169.7064,"[-0.0910558259162534,-0.13360560341100589]","[-1,-1,-1]","[-0.1455020013466082,-0.09707324477280721]","[1,1,1]","[-0.06397616158808575,-0.023363389535700656]","[-1,-1,-1]","[-0.08064192538201599,0.12825015148941332]","[1,1,1]","[0.09286386870498872,-0.16475177464955448]","[1,1,1]","[0.043088599814971956,0.06731530754370943]","[-1,-1,-1]","[-0.03608926599149449,-0.10516012441602032]","[-1,-1,-1]","[0.17893260462104807,-0.01995464279223548]","[1,1,1]","[0.028139878914988644,0.11484571934960654]","[1,1,1]","[-0.026836092449905466,0.09096118737114217]","[1,1,1]","[0.08830950622306906,0.13556141009545045]","[-1,-1,-1]","[-0.054025480622020526,-0.18107465590547525]","[-1,-1,-1]","[-0.044016509048352005,0.15847723878301165]","[1,1,1]","[0.169437123200966,0.06854805773682277]","[1,1,1]","[-0.14678694451638674,0.0685480244514512]","[-1,-1,-1]","[-0.18445319936043078,0.039844679380216394]","[-1,-1,-1]","[0.08619505172883768,-0.027926043443040106]","[-1,-1,-1]","[0.10361844627647755,0.009956118923159639]","[1,1,1]","[-0.1082120155799012,0.014326631049657087]","[1,1,1]","[0.14715912762247782,-0.07274584527040565]","[-1,-1,-1]","[-0.003593156146106063,0.18022797651077627]","[-1,-1,-1]","[0.0418442563125877,-0.017098689305047605]","[1,1,1]","[-0.10300785860739423,-0.09465070830241501]","[1,1,1]","[0.1375553706310501,0.13255169884755957]","[1,1,1]","[-0.13399191626070656,-0.14834770660975358]","[-1,-1,-1]","[0.13340254408027596,0.08961623068227302]","[-1,-1,-1]","[0.1577284301271371,0.015842801497487936]","[-1,-1,-1]","[-0.1591992879167043,-0.008454005808122588]","[-1,-1,-1]","[-0.005999475268125692,-0.19819169843246617]","[-1,-1,-1]","[-0.10280108371024946,0.07800084068504944]","[-1,-1,-1]","[0.0031853239504223,-0.06602751309545118]","[-1,-1,-1]","[0.13678524639048287,-0.02115903930857963]","[1,1,1]","[0.02,0.02]",170.8063,0,10,10,80,1,,,,,,,
,,,,,,,60d1e0cc196b3af97639e61a,682f0fca7f8fc3438384ae8c,2025-05-22_13h52.11.002,cuing_paradigm_dot,2024.1.5,Win32,59.52380952,682d573fa47f1360d1451895,,,,,,,,,,,170.8066,171.3067,,,171.5566,172.1733,left,,,,,,,,0.9,0.6026,,,,,,,171.3068,171.5565,172.1734,"[-0.07164358894779274,-0.09426146860231334]","[1,1,1]","[0.11915942436606723,0.12196201784077369]","[1,1,1]","[0.09718460284222218,-0.06381971611164373]","[-1,-1,-1]","[-0.15095138700117366,-0.0171044928173336]","[1,1,1]","[-0.03749105300144615,-0.03099057672826083]","[1,1,1]","[0.14203215578014272,-0.04917098058876423]","[1,1,1]","[0.09200295365690958,0.1617420171467538]","[1,1,1]","[0.061938424743932824,-0.1586940292425749]","[1,1,1]","[0.08568443742224699,0.05317965115789799]","[1,1,1]","[-0.0014670775174995185,-0.09121059803137717]","[1,1,1]","[-0.030816533080656582,-0.18115155088915688]","[1,1,1]","[0.0893799892764836,0.0004989293919945074]","[1,1,1]","[0.014578229184509383,-0.033586519790277394]","[1,1,1]","[-0.10768264643993028,0.0735340580208149]","[1,1,1]","[-0.0654978266167107,0.02480941425196261]","[1,1,1]","[0.15217270524298795,0.05715198308616104]","[1,1,1]","[-0.03703177325721168,0.17001082263890704]","[1,1,1]","[-0.17862093747971736,-0.047058626746449624]","[1,1,1]","[-0.12400884100626641,-0.10546407537396572]","[1,1,1]","[-0.0025114829300196275,0.04021507963995422]","[-1,-1,-1]","[0.017397684497594566,-0.18473315743896893]","[1,1,1]","[0.0985034015852301,-0.10659965004207773]","[1,1,1]","[0.050052500447422786,-0.1076701317545878]","[1,1,1]","[0.012386644049473986,0.1817034042372122]","[1,1,1]","[0.17761826252790572,-0.08272833309163931]","[1,1,1]","[-0.08210768359927312,-0.14636590106188957]","[1,1,1]","[-0.14720315757581517,0.02763255252918657]","[-1,-1,-1]","[-0.05946472591725938,0.06507306165215514]","[1,1,1]","[-0.1556936986216495,0.11721846658241909]","[1,1,1]","[-0.09474778486236296,0.1427010207481105]","[1,1,1]","[-0.005156033768436482,0.09364264030621411]","[1,1,1]","[-0.10943531186272512,-0.05988460160430923]","[1,1,1]","[0.02,0.02]",173.273,0,11,11,204,1,,,,,,,
,,,,,,,60d1e0cc196b3af97639e61a,682f0fca7f8fc3438384ae8c,2025-05-22_13h52.11.002,cuing_paradigm_dot,2024.1.5,Win32,59.52380952,682d573fa47f1360d1451895,,,,,,,,,,,173.2733,173.7737,,,174.0246,174.6406,left,,,,,,,,0.5,0.6002,,,,,,,173.7737,174.0246,174.6406,"[-0.10805359315848719,0.0018724939070942114]","[-1,-1,-1]","[0.05264011505067483,-0.03161998650294556]","[1,1,1]","[0.1302908354184548,0.08537236274659339]","[1,1,1]","[0.07071856933526177,0.058482913988843865]","[1,1,1]","[0.07253823766016927,0.15000640555346464]","[-1,-1,-1]","[-0.10760023488464444,0.07111051954191036]","[-1,-1,-1]","[-0.136149120940955,0.03720089519875118]","[1,1,1]","[0.11632294788120039,0.13594080584619062]","[1,1,1]","[-0.0610847759189166,0.013505048179048625]","[1,1,1]","[0.03177238271809724,0.17381064284228578]","[1,1,1]","[-0.04726864270498569,-0.05775762626677728]","[1,1,1]","[0.0097342880796561,0.05612635598279985]","[1,1,1]","[-0.009299203938027863,-0.13481115812331437]","[-1,-1,-1]","[-0.01572162080130577,0.1838839496065116]","[-1,-1,-1]","[-0.06530829196543307,0.05569481148163723]","[-1,-1,-1]","[-0.0549276605295654,0.1595523696241131]","[1,1,1]","[0.17208474869524273,0.0216160631951491]","[1,1,1]","[-0.08467696782627204,-0.13574306226611801]","[1,1,1]","[-0.15535933565192772,0.07505463552853692]","[1,1,1]","[0.011573143842682414,0.13675611423762205]","[-1,-1,-1]","[-0.11567005799188211,-0.09965039725978356]","[-1,-1,-1]","[0.031635064853204456,-0.168137398905668]","[-1,-1,-1]","[0.040305345578555044,0.08609796573190559]","[1,1,1]","[0.1168029833669399,-0.05132974296006848]","[-1,-1,-1]","[0.024555415221968007,-0.11262429156348468]","[-1,-1,-1]","[-0.11997212388389135,-0.15959207140633896]","[-1,-1,-1]","[-0.02045323730630622,0.09050356491152096]","[-1,-1,-1]","[-0.03112322304203872,-0.17022146485002274]","[-1,-1,-1]","[-0.1866489314397518,0.015236094554939203]","[1,1,1]","[-0.011127322060840154,-0.015504892418297557]","[-1,-1,-1]","[0.015421423666703253,-0.06617157904509156]","[1,1,1]","[0.1313077373781555,-0.12616478140864473]","[-1,-1,-1]","[0.02,0.02]",175.7399,0,12,12,95,1,,,,,,,
,,,,,,,60d1e0cc196b3af97639e61a,682f0fca7f8fc3438384ae8c,2025-05-22_13h52.11.002,cuing_paradigm_dot,2024.1.5,Win32,59.52380952,682d573fa47f1360d1451895,,,,,,,,,,,175.7407,176.2401,,,176.4904,176.9903,right,,,,,,,,0.1,0.484,,,,,,,176.2401,176.4904,176.9904,"[0.127333911812504,0.09394765818522548]","[-1,-1,-1]","[0.03915428024991282,-0.09363949877359219]","[-1,-1,-1]","[-0.03235148203588704,0.15794545881509978]","[-1,-1,-1]","[0.04007605939491633,-0.004637023078421528]","[1,1,1]","[0.11293864649305581,0.027981916034312777]","[-1,-1,-1]","[-0.028637455213559093,-0.025772842037572116]","[-1,-1,-1]","[-0.07292195305879001,-0.07547732093990744]","[-1,-1,-1]","[-0.036978992164420174,0.11437322751826774]","[-1,-1,-1]","[-0.1698660582530455,0.05904039503548631]","[-1,-1,-1]","[-0.10158965715496866,-0.018620740541706843]","[1,1,1]","[0.10937220022247922,-0.08723098257347196]","[-1,-1,-1]","[-0.1494412305746406,-0.07424093048992843]","[-1,-1,-1]","[-0.11631737896394626,0.06960853340880599]","[-1,-1,-1]","[-0.019005495737998576,-0.16026279518146022]","[-1,-1,-1]","[-0.06659588220066417,-0.13135312723549894]","[-1,-1,-1]","[-0.12386961526224419,0.12254329538590783]","[-1,-1,-1]","[0.1242113221594889,-0.15478691056080446]","[-1,-1,-1]","[0.19347640062045582,0.005570276533676637]","[-1,-1,-1]","[0.05718568006309707,0.08842983155937856]","[1,1,1]","[-0.10604258987353118,-0.09849166033972782]","[-1,-1,-1]","[-0.16989718347514263,-0.006893340783560367]","[-1,-1,-1]","[0.047767261492699144,-0.16388956446731834]","[-1,-1,-1]","[-0.10670698517652707,-0.15066495480985437]","[-1,-1,-1]","[0.16088910550589275,-0.03883781865366941]","[-1,-1,-1]","[-0.07845789713575989,0.09278235194215188]","[-1,-1,-1]","[0.06430348893046177,-0.05843899216513835]","[-1,-1,-1]","[0.14840757550191497,0.04798627941583412]","[-1,-1,-1]","[0.17479112101895924,0.08767842829351491]","[-1,-1,-1]","[-0.039729306342843836,0.061371098100850306]","[-1,-1,-1]","[-0.09667063776791858,0.16962991019723664]","[-1,-1,-1]","[0.09832874780473265,-0.03397795762349898]","[-1,-1,-1]","[0.037055805062322,0.14092663766205601]","[-1,-1,-1]","[0.02,0.02]",178.0907,0,13,13,7,1,,,,,,,
,,,,,,,60d1e0cc196b3af97639e61a,682f0fca7f8fc3438384ae8c,2025-05-22_13h52.11.002,cuing_paradigm_dot,2024.1.5,Win32,59.52380952,682d573fa47f1360d1451895,,,,,,,,,,,178.0913,178.5904,,,178.8406,179.1904,right,,,,,,,,0.1,0.3357,,,,,,,178.5905,178.8406,179.1904,"[0.037326591174624266,0.049671674407474]","[-1,-1,-1]","[-0.020286528468690307,-0.005197559204995185]","[-1,-1,-1]","[-0.040719448791591874,-0.13297709836530128]","[-1,-1,-1]","[0.10434232726545936,0.0848386101158882]","[-1,-1,-1]","[0.1369490271881852,-0.06509364822622121]","[-1,-1,-1]","[-0.05836713159477956,0.0964215102887388]","[-1,-1,-1]","[-0.02706230178526336,0.03535057157364627]","[-1,-1,-1]","[0.029966663836531644,-0.11814692276001384]","[-1,-1,-1]","[0.12692649329378758,0.15372010965093127]","[-1,-1,-1]","[0.11237983875024136,0.03916342815962217]","[-1,-1,-1]","[-0.11320053195622125,-0.05187776500019114]","[-1,-1,-1]","[-0.03280360612216042,0.14979704247750766]","[-1,-1,-1]","[0.03125455324573979,0.15373556019459284]","[-1,-1,-1]","[-0.19093954793132406,-0.0011332066786468558]","[-1,-1,-1]","[-0.12478289083650414,0.04640957141501749]","[-1,-1,-1]","[-0.11758730389903581,0.006749828757470265]","[1,1,1]","[0.06670041945853014,0.019139020639557174]","[-1,-1,-1]","[-0.16117093451686101,-0.06258801381430272]","[1,1,1]","[-0.14699260601469627,0.11254999884307272]","[-1,-1,-1]","[-0.11667057084818216,-0.09242351903844194]","[1,1,1]","[0.10565649224152374,-0.15332698791620558]","[-1,-1,-1]","[0.016366587375146978,-0.06435186390492442]","[-1,-1,-1]","[0.0721586765122443,-0.18095982277973988]","[-1,-1,-1]","[-0.0038014462490129613,0.0940420161923289]","[-1,-1,-1]","[-0.013822347685341645,-0.18807068740665364]","[-1,-1,-1]","[-0.052890022953653366,-0.05381292323870439]","[-1,-1,-1]","[0.08409393387527717,-0.07030811413649347]","[-1,-1,-1]","[-0.07370032376954938,-0.012400353667121961]","[-1,-1,-1]","[0.1478766267749788,0.10751277433499598]","[-1,-1,-1]","[-0.016280628004869145,0.1957565597611111]","[-1,-1,-1]","[0.02116921907292732,-0.020046081698156516]","[-1,-1,-1]","[-0.0717131777888355,-0.18633479332431313]","[-1,-1,-1]","[0.02,0.02]",180.2899,0,14,14,20,1,,,,,,,
,,,,,,,60d1e0cc196b3af97639e61a,682f0fca7f8fc3438384ae8c,2025-05-22_13h52.11.002,cuing_paradigm_dot,2024.1.5,Win32,59.52380952,682d573fa47f1360d1451895,,,,,,,,,,,180.2904,180.79,,,181.0406,181.7228,right,,,,,,,,0.45,0.6667,,,,,,,180.79,181.0406,181.7229,"[0.0722581017910103,0.05868701816189186]","[1,1,1]","[0.03468713122602694,0.03673632253722989]","[-1,-1,-1]","[-0.0384777719996915,0.0005806210448724315]","[-1,-1,-1]","[0.07228591641060343,0.15070924993507134]","[1,1,1]","[-0.15892625755817427,0.06284799505007646]","[1,1,1]","[-0.015571725276161713,0.09760385562441735]","[-1,-1,-1]","[-0.06520664469116653,0.10606057018034665]","[1,1,1]","[-0.014874428127305987,-0.1758764736937237]","[1,1,1]","[0.1634590066775103,0.06293293485774357]","[1,1,1]","[-0.06615945312628313,-0.17673071717709188]","[-1,-1,-1]","[-0.007819488104039877,0.029291068866350026]","[-1,-1,-1]","[-0.17146876700260757,-0.07262661693259584]","[-1,-1,-1]","[-0.05892619809022792,-0.09772379469356152]","[-1,-1,-1]","[0.10909778473928514,-0.0028281590693771683]","[-1,-1,-1]","[-0.010588421007460179,0.18133109188278546]","[1,1,1]","[-0.1367617249580553,0.12807247111634792]","[-1,-1,-1]","[0.016143058095826026,-0.04811645222244286]","[1,1,1]","[0.15474985580368203,-0.0018583792274218713]","[-1,-1,-1]","[0.01207073178685846,-0.0962412454338299]","[1,1,1]","[-0.0767809172837385,0.15173838817361893]","[-1,-1,-1]","[0.10869378406891382,-0.08625428920391538]","[1,1,1]","[0.032332847330463946,0.10207546892317361]","[1,1,1]","[0.11447233400463531,-0.12739348630101424]","[-1,-1,-1]","[-0.1576310530530614,0.004701880416654324]","[1,1,1]","[0.11600851139665144,0.15275375762058138]","[-1,-1,-1]","[-0.05039120865957869,0.06820599420396732]","[-1,-1,-1]","[0.07300941218670191,-0.03809846275140906]","[1,1,1]","[0.1494667800711286,0.10672821997443292]","[-1,-1,-1]","[-0.07236349086872611,-0.029969484574391487]","[-1,-1,-1]","[0.029633000136136286,-0.18234030266999382]","[-1,-1,-1]","[-0.034636150577060994,-0.054444628201749785]","[1,1,1]","[-0.12439100317083468,-0.055587606760194065]","[-1,-1,-1]","[0.02,0.02]",182.8227,0,15,15,87,1,,,,,,,
,,,,,,,60d1e0cc196b3af97639e61a,682f0fca7f8fc3438384ae8c,2025-05-22_13h52.11.002,cuing_paradigm_dot,2024.1.5,Win32,59.52380952,682d573fa47f1360d1451895,,,,,,,,,,,182.8232,183.3225,,,183.5729,183.957,left,,,,,,,,0.9,0.3782,,,,,,,183.3225,183.5728,183.9571,"[0.007502045689412672,0.10320954716176865]","[1,1,1]","[0.04218283277371675,0.14306469890517143]","[1,1,1]","[0.15370262096783335,0.09339559626712558]","[1,1,1]","[-0.15617791173620263,-0.06535424981900816]","[1,1,1]","[-0.09548399212979176,0.15693732557076884]","[1,1,1]","[-0.039035369995402164,-0.08754983302121785]","[1,1,1]","[-0.12866052772601314,0.12221292877587409]","[1,1,1]","[-0.0007546843246205207,0.15079446495345192]","[1,1,1]","[0.0331668933373734,-0.11140795245878174]","[-1,-1,-1]","[0.18175308464220183,-0.048519534711491986]","[1,1,1]","[0.053306581176155464,0.02703350589287642]","[-1,-1,-1]","[0.02421866439419672,-0.021088875973024994]","[1,1,1]","[0.13708693132755623,0.008987344862550617]","[1,1,1]","[-0.037545153603152276,0.0020297718097327558]","[1,1,1]","[-0.049359273349759196,-0.04850693802819478]","[1,1,1]","[0.15632453386353892,-0.11145583155593818]","[1,1,1]","[0.11041503422677008,-0.07935031120100146]","[-1,-1,-1]","[-0.002244724148646561,-0.18701864344322222]","[1,1,1]","[-0.13037918852509645,-0.10383296292197733]","[1,1,1]","[-0.11993199877609535,-0.14442125519184398]","[1,1,1]","[0.07852828067564985,-0.043404805141387]","[1,1,1]","[-0.16075499067679247,0.08005373287155537]","[1,1,1]","[0.07912577049100927,0.09888771666273151]","[1,1,1]","[-0.04534858280518585,0.17583461703473632]","[1,1,1]","[-0.11137487050671792,0.07643098676076436]","[1,1,1]","[-0.08404092154067487,-0.1202992019545644]","[1,1,1]","[-0.006838663048982883,0.054087505568684933]","[1,1,1]","[-0.007257888683268827,-0.1436185428872249]","[1,1,1]","[-0.10535820574467164,-0.06148134475941392]","[1,1,1]","[0.010553012083470249,-0.06926037497977497]","[1,1,1]","[0.16125695914123883,0.04421680900992779]","[1,1,1]","[-0.10648224216957781,-0.004998091043036554]","[1,1,1]","[0.02,0.02]",185.057,0,16,16,193,1,,,,,,,
,,,,,,,60d1e0cc196b3af97639e61a,682f0fca7f8fc3438384ae8c,2025-05-22_13h52.11.002,cuing_paradigm_dot,2024.1.5,Win32,59.52380952,682d573fa47f1360d1451895,,,,,,,,,,,185.0576,185.5563,,,185.8068,186.4234,right,,,,,,,,0.4,0.6003,,,,,,,185.5564,185.8068,186.4235,"[0.07000194018402812,0.1678803642311566]","[-1,-1,-1]","[0.0056909203014062,0.010234596405181576]","[1,1,1]","[0.08862525688729873,0.03157322048096798]","[-1,-1,-1]","[0.12815649694327544,-0.03719815074998485]","[-1,-1,-1]","[-0.18646948786574863,0.03572707235069705]","[1,1,1]","[-0.0077721958795661066,-0.09157767597428028]","[1,1,1]","[-0.03495183195425076,-0.1671102711365791]","[-1,-1,-1]","[-0.02717463333932018,0.03780385385707671]","[-1,-1,-1]","[-0.09088294426194733,-0.08616996864407506]","[-1,-1,-1]","[0.07681433564056935,0.0807767525043849]","[1,1,1]","[0.10081798822187411,-0.10767813147865096]","[1,1,1]","[0.005507036955567018,0.06813481163038188]","[-1,-1,-1]","[-0.012098232276182851,0.19551607235419322]","[1,1,1]","[-0.12863279895507956,0.018546578515736333]","[-1,-1,-1]","[0.0557762182033599,-0.15144503631147005]","[1,1,1]","[0.1925682232416759,-0.04976110293233863]","[1,1,1]","[0.13516379593530528,0.13445619363386235]","[-1,-1,-1]","[0.05060395383397162,0.1271948415700497]","[-1,-1,-1]","[0.1662675069474163,-0.1089108208199961]","[-1,-1,-1]","[-0.170429181474206,-0.09472251013321357]","[-1,-1,-1]","[-0.1297789793857749,-0.14844026031388835]","[-1,-1,-1]","[0.07078054461331887,-0.06490653606942061]","[1,1,1]","[-0.06911876486966499,-0.013618514416005255]","[-1,-1,-1]","[0.1935675101641406,0.02690374485719107]","[-1,-1,-1]","[-0.07130543238586866,0.1765838748840046]","[-1,-1,-1]","[-0.16652206586949525,-0.03364398573756812]","[-1,-1,-1]","[-0.030367492191983515,0.1581590402601475]","[-1,-1,-1]","[-0.11030007743907032,0.09093888736032917]","[1,1,1]","[-0.008144424180867652,-0.04179695018989509]","[1,1,1]","[0.12516451959678268,0.06587437776159605]","[-1,-1,-1]","[0.015098451683272177,0.15718867014356155]","[1,1,1]","[0.01615657760090614,-0.1847920079008536]","[1,1,1]","[0.02,0.02]",187.5228,0,17,17,51,1,,,,,,,
,,,,,,,60d1e0cc196b3af97639e61a,682f0fca7f8fc3438384ae8c,2025-05-22_13h52.11.002,cuing_paradigm_dot,2024.1.5,Win32,59.52380952,682d573fa47f1360d1451895,,,,,,,,,,,187.5233,188.023,,,188.2738,188.9895,left,,,,,,,,0.5,0.7029,,,,,,,188.023,188.2737,188.9896,"[-0.07182336625667396,0.040958984095746845]","[-1,-1,-1]","[-0.15858291683297202,0.004612882182627711]","[-1,-1,-1]","[0.03276239466775765,-0.13385690036988276]","[-1,-1,-1]","[-0.03137642268716903,0.14328522933201684]","[1,1,1]","[0.050526028822160576,0.0013086729462577276]","[-1,-1,-1]","[-0.002171270118637643,0.03503467507359195]","[-1,-1,-1]","[0.0588917337405351,0.12390758927792885]","[-1,-1,-1]","[-0.08234090506999578,-0.1017753294711823]","[-1,-1,-1]","[0.16222811762807615,0.11299166159046829]","[1,1,1]","[-0.0007911848416637793,-0.03749807005995849]","[1,1,1]","[0.062244805279704774,-0.06944528902129253]","[-1,-1,-1]","[-0.09763853560974602,0.1390074584911753]","[-1,-1,-1]","[-0.12594289321863625,0.07434034172729405]","[1,1,1]","[0.13355581350693513,-0.0980770160328277]","[-1,-1,-1]","[0.10889908783348462,-0.018826278249791394]","[-1,-1,-1]","[-0.02074936555287821,-0.07317045183146155]","[1,1,1]","[-0.08609124457517792,-0.027630833373094705]","[1,1,1]","[-0.18027325403671127,0.07219832829903225]","[1,1,1]","[-0.07020873552340642,0.16957111813887674]","[-1,-1,-1]","[-0.17424675998798472,-0.08322058941460307]","[1,1,1]","[0.1680830555670506,0.026708856596382224]","[-1,-1,-1]","[-0.04627498358794191,0.09790812864621336]","[-1,-1,-1]","[0.03642127714574242,0.16387789312898005]","[1,1,1]","[-0.08206809710943364,-0.15380407042974556]","[1,1,1]","[0.11472146416717419,0.1599941543671477]","[1,1,1]","[-0.19639163866341214,0.0314925113354463]","[1,1,1]","[-0.00391543979782883,0.1134216651689219]","[1,1,1]","[0.12594652613974014,0.028151547154813553]","[1,1,1]","[0.16091541696614375,-0.057890747491657735]","[1,1,1]","[0.07433305972557248,-0.1677978703969478]","[-1,-1,-1]","[0.11864348849132153,0.06828423707633434]","[1,1,1]","[-0.1238069017908833,-0.12259208679244604]","[-1,-1,-1]","[0.02,0.02]",190.0891,0,18,18,104,1,,,,,,,
,,,,,,,60d1e0cc196b3af97639e61a,682f0fca7f8fc3438384ae8c,2025-05-22_13h52.11.002,cuing_paradigm_dot,2024.1.5,Win32,59.52380952,682d573fa47f1360d1451895,,,,,,,,,,,190.0896,190.5898,,,190.8402,191.2901,left,,,,,,,,0.55,0.4347,,,,,,,190.5899,190.8402,191.2902,"[0.00934198960927414,0.18004170546590734]","[-1,-1,-1]","[-0.13330738790511243,-0.056418528054009515]","[1,1,1]","[0.07384268518820118,0.0717894143441984]","[1,1,1]","[-0.09704390222004775,0.08856386376301427]","[1,1,1]","[0.10735559245962993,0.02532045634499433]","[-1,-1,-1]","[-0.14613654420796024,0.13084656701511171]","[1,1,1]","[-0.06301636833275692,-0.1274332095765035]","[1,1,1]","[0.0421648687275074,0.04174125467208134]","[-1,-1,-1]","[0.10277348816367726,-0.08851985006630739]","[-1,-1,-1]","[-0.10629233930944415,-0.009208384600512909]","[1,1,1]","[0.13390274715464878,-0.03974018890994825]","[1,1,1]","[-0.1829797125980784,-0.0093531350729089]","[1,1,1]","[-0.13510621084216798,0.04267535589440306]","[1,1,1]","[0.043496993119475455,-0.09434407482810098]","[1,1,1]","[-0.17091052591968225,0.07004094141594713]","[-1,-1,-1]","[0.060117527855876145,0.17680239268739026]","[-1,-1,-1]","[-0.06099436085664514,0.05649726257299968]","[-1,-1,-1]","[0.14408668212256454,0.007550820712357177]","[1,1,1]","[-0.01793175898921616,-0.10272695445466308]","[1,1,1]","[-0.11837830553999075,-0.12547777440674257]","[-1,-1,-1]","[0.1353680426535645,-0.11221481222512411]","[1,1,1]","[0.0004359544052642014,-0.14453912674300015]","[1,1,1]","[0.1267090735189546,0.08176066768976233]","[-1,-1,-1]","[0.09102600631629905,0.13985503389134138]","[-1,-1,-1]","[-0.09369271617823602,0.15645980844405594]","[-1,-1,-1]","[0.01181689392389734,0.10584805408433731]","[-1,-1,-1]","[0.09560347854992361,-0.017459495168261528]","[-1,-1,-1]","[-0.17411056598235244,-0.0838528905940425]","[1,1,1]","[0.030819931487105896,-0.04462011487693732]","[1,1,1]","[0.002083895505208692,0.05534010128639575]","[-1,-1,-1]","[-0.034811054809195656,0.09330835892260972]","[1,1,1]","[-0.05667198409748759,-0.1814452377034136]","[1,1,1]","[0.02,0.02]",192.3903,0,19,19,144,1,,,,,,,
,,,,,,,60d1e0cc196b3af97639e61a,682f0fca7f8fc3438384ae8c,2025-05-22_13h52.11.002,cuing_paradigm_dot,2024.1.5,Win32,59.52380952,682d573fa47f1360d1451895,,,,,,,,,,,192.3909,192.8897,,,193.1398,193.9901,left,,,,,,,,0.45,0.8352,,,,,,,192.8897,193.1397,193.9901,"[0.03860863304657993,-0.15900383520079764]","[-1,-1,-1]","[-0.02184929392906195,0.05955354835848457]","[-1,-1,-1]","[-0.16988242394186395,-0.08009447118085018]","[1,1,1]","[-0.03877474055180667,-0.06936305004595762]","[1,1,1]","[-0.03156286728202818,-0.12135284395675836]","[-1,-1,-1]","[-0.19578921456395243,0.03173775922114491]","[-1,-1,-1]","[0.005954640246640676,0.0007356143207034283]","[1,1,1]","[0.14695940006472571,-0.006161133440741058]","[-1,-1,-1]","[-0.12075859246630291,-0.13073759367993476]","[1,1,1]","[0.11705043133663258,-0.07191788480769817]","[1,1,1]","[0.13367055275613832,0.09275272339919513]","[1,1,1]","[-0.08658437590501292,0.025247895022156526]","[1,1,1]","[-0.1306374599733809,0.03799976481185656]","[-1,-1,-1]","[-0.12914594296057608,0.12222693480971894]","[-1,-1,-1]","[0.03607751078166222,0.10748096531665981]","[1,1,1]","[0.14935580054422798,-0.1212080345656725]","[1,1,1]","[0.1090635566432657,-0.023404972456784374]","[1,1,1]","[-0.06430036635328547,-0.18817231752526087]","[-1,-1,-1]","[-0.09434728417352527,0.1762952784845867]","[1,1,1]","[-0.08500644931929464,-0.10753624810912735]","[-1,-1,-1]","[-0.05413614653947781,0.11095174163426039]","[1,1,1]","[0.0500443174446901,0.05508521501845017]","[-1,-1,-1]","[0.17545018917559443,0.07697851994425886]","[-1,-1,-1]","[-0.008764516085463586,0.16308679947636637]","[-1,-1,-1]","[0.03299790707787395,0.14925817806486313]","[-1,-1,-1]","[-0.11683982767223618,-0.04019046191361808]","[-1,-1,-1]","[-0.011372735819873959,-0.16513013501021181]","[-1,-1,-1]","[0.032464593322881714,-0.03922939947702687]","[1,1,1]","[0.08600258198144106,-0.15635816395856783]","[-1,-1,-1]","[0.08116644043046975,0.08580151592476903]","[-1,-1,-1]","[0.073313611231245,0.13515359736246305]","[-1,-1,-1]","[0.08821228079280673,0.031113373936058536]","[1,1,1]","[0.02,0.02]",195.0893,0,20,20,77,1,,,,,,,
,,,,,,,60d1e0cc196b3af97639e61a,682f0fca7f8fc3438384ae8c,2025-05-22_13h52.11.002,cuing_paradigm_dot,2024.1.5,Win32,59.52380952,682d573fa47f1360d1451895,,,,,,,,,,,195.0899,195.5893,,,195.8398,196.2059,left,,,,,,,,0.9,0.351,,,,,,,195.5895,195.8397,196.2059,"[0.05341296348894784,0.10523761301551952]","[1,1,1]","[-0.03440175225670006,-0.011925789143890324]","[1,1,1]","[-0.0031275891700013846,0.06066930104332304]","[1,1,1]","[-0.0065960532634608835,-0.1039675414147709]","[1,1,1]","[0.01165541212761217,0.14606441950380591]","[1,1,1]","[0.08905119699036196,0.15820895121404951]","[1,1,1]","[-0.052086064968693425,-0.05557976152278508]","[1,1,1]","[-0.08723811223691241,0.07586639213711982]","[1,1,1]","[0.08992043540381438,-0.10855866664484255]","[1,1,1]","[-0.10587059834474812,-0.16818245091422485]","[1,1,1]","[0.08601952969240732,-0.008074324225113947]","[-1,-1,-1]","[0.013092716304312586,0.10358440766912853]","[1,1,1]","[0.11885920239900534,0.048586241915963994]","[1,1,1]","[-0.13089875538727763,-0.08176669601129924]","[1,1,1]","[-0.05383753071463472,-0.1319294371631563]","[1,1,1]","[0.1490303318786166,-0.11135066827579602]","[1,1,1]","[0.12228020539781558,-0.06636349393982394]","[1,1,1]","[-0.047484257163598886,0.1320050745216071]","[1,1,1]","[0.11630647412822916,-0.15588548052018944]","[1,1,1]","[-0.14698860502337244,-0.12177616074684196]","[1,1,1]","[0.183118545185498,0.0434089265128716]","[-1,-1,-1]","[-0.08147542106227325,0.030736347540819893]","[-1,-1,-1]","[-0.17955117504494672,-0.06259513685424323]","[1,1,1]","[-0.15164128792273376,0.12068147195675065]","[1,1,1]","[-0.03700554253858009,-0.17885970129114653]","[1,1,1]","[0.04453684743148323,0.012150439916280203]","[1,1,1]","[0.04041550354910708,-0.04410653500742059]","[1,1,1]","[0.12704908320691857,0.002845248751393552]","[1,1,1]","[0.19487155540440623,-0.01857576129400579]","[1,1,1]","[0.09888449151874305,0.11891797762029883]","[1,1,1]","[-0.1447866440543926,0.07569523096824533]","[1,1,1]","[-0.1472207123400334,-0.011554842389999626]","[1,1,1]","[0.02,0.02]",197.3062,0,21,21,196,1,,,,,,,
,,,,,,,60d1e0cc196b3af97639e61a,682f0fca7f8fc3438384ae8c,2025-05-22_13h52.11.002,cuing_paradigm_dot,2024.1.5,Win32,59.52380952,682d573fa47f1360d1451895,,,,,,,,,,,197.3068,197.8057,,,198.0562,198.7224,left,,,,,,,,0.55,0.6524,,,,,,,197.8058,198.0561,198.7224,"[0.08892307034145036,-0.08586937611621707]","[-1,-1,-1]","[0.08898738177043003,0.17265711077124268]","[1,1,1]","[-0.004269540379027789,-0.00817312560356361]","[-1,-1,-1]","[0.061535165017027944,0.126431963757504]","[1,1,1]","[0.1644837073190627,0.10827599025553494]","[1,1,1]","[-0.06355501458192325,0.04212114513261781]","[1,1,1]","[-0.0037857909741301566,0.15385554173458685]","[1,1,1]","[0.04945610956032174,-0.07008083398870196]","[-1,-1,-1]","[0.12828018624415105,0.06673226668791597]","[1,1,1]","[0.0440643678633095,0.0634246904912001]","[1,1,1]","[0.0870594936400572,-0.04432982340350837]","[-1,-1,-1]","[0.04806722474771739,0.1674688047722549]","[1,1,1]","[-0.02259731339624128,0.18955890001834236]","[1,1,1]","[0.1881882252828519,0.011782001981752508]","[-1,-1,-1]","[-0.016392870510347296,0.10561824093349859]","[-1,-1,-1]","[0.10055700185744534,0.09742797082756943]","[-1,-1,-1]","[-0.06563900943035458,-0.10291195269053717]","[-1,-1,-1]","[-0.12042915180392079,0.02613314528636305]","[-1,-1,-1]","[-0.05376955301306084,-0.020954127933667164]","[1,1,1]","[-0.023922032225737026,-0.07540666689001628]","[1,1,1]","[-0.09259672545094477,-0.17587801851545698]","[-1,-1,-1]","[-0.06641627194170735,0.18826781272659407]","[1,1,1]","[-0.02535219217639684,-0.15466487482930966]","[1,1,1]","[0.1251453832815174,-0.13530112232518418]","[1,1,1]","[-0.1664330415295313,-0.09153487894489863]","[-1,-1,-1]","[-0.11330414806137691,-0.02877065819510457]","[-1,-1,-1]","[-0.18663985354802934,0.020806368120880266]","[1,1,1]","[-0.16591352337434628,-0.03862645055108605]","[-1,-1,-1]","[-0.10676528184203822,-0.1291435483536338]","[1,1,1]","[-0.17670066516523825,0.06572574079691886]","[1,1,1]","[0.10465308632594202,-0.000009354957574292941]","[-1,-1,-1]","[0.0662093313841129,-0.12310683705965934]","[1,1,1]","[0.02,0.02]",199.8228,0,22,22,125,1,,,,,,,
,,,,,,,60d1e0cc196b3af97639e61a,682f0fca7f8fc3438384ae8c,2025-05-22_13h52.11.002,cuing_paradigm_dot,2024.1.5,Win32,59.52380952,682d573fa47f1360d1451895,,,,,,,,,,,199.8234,200.3225,,,200.5732,201.3392,right,,,,,,,,0.5,0.7498,,,,,,,200.3226,200.573,201.3393,"[0.14386816754954151,-0.06656335719336463]","[-1,-1,-1]","[0.022518846745768373,0.048141961371018394]","[1,1,1]","[0.016329862490086035,-0.1392955700361879]","[1,1,1]","[0.06492332380194209,0.1643816789739651]","[1,1,1]","[0.02738806856772413,-0.1956304829204191]","[-1,-1,-1]","[0.02508119606243458,-0.024803384953196957]","[-1,-1,-1]","[-0.02125148887121687,0.13793290769338326]","[-1,-1,-1]","[-0.12896676038259178,0.1317245893953435]","[-1,-1,-1]","[-0.13044921759547676,0.00011341014036351966]","[1,1,1]","[0.11062964011847666,-0.15164827045999033]","[-1,-1,-1]","[-0.031444572776104705,-0.1828400765302236]","[1,1,1]","[0.09808738782790999,-0.021370147111675807]","[1,1,1]","[-0.03440478644837655,0.00400094968555759]","[1,1,1]","[0.09815869640684578,0.12260093648868212]","[-1,-1,-1]","[-0.0780728813210164,-0.009540839005620189]","[-1,-1,-1]","[0.19140626558943613,-0.013612745558266845]","[1,1,1]","[0.09230740883746873,-0.0658156565854302]","[1,1,1]","[0.12447428294641862,0.09213105676501608]","[1,1,1]","[-0.01301120990097178,-0.09211052948475937]","[-1,-1,-1]","[0.014816273073767127,0.11763788253975181]","[1,1,1]","[-0.07270266185632246,-0.11817489282957853]","[-1,-1,-1]","[0.16942227884119337,0.060514138750373675]","[1,1,1]","[-0.049888002899087784,0.18257483363778687]","[1,1,1]","[-0.15330882951040029,-0.06507501933635484]","[-1,-1,-1]","[-0.05910318307441585,0.07244395307496194]","[-1,-1,-1]","[-0.18352701322979872,-0.01976980261751009]","[-1,-1,-1]","[-0.09407668386839217,-0.0536309317002229]","[-1,-1,-1]","[-0.12507193941827643,0.048335620652545375]","[-1,-1,-1]","[0.1377892625644163,0.024623872760673318]","[-1,-1,-1]","[0.049351427615487886,-0.079095116058093]","[1,1,1]","[0.05403664368919611,-0.15860694846405587]","[1,1,1]","[-0.10387086239698654,0.16739447082239278]","[1,1,1]","[0.02,0.02]",202.4395,0,23,23,101,1,,,,,,,
,,,,,,,60d1e0cc196b3af97639e61a,682f0fca7f8fc3438384ae8c,2025-05-22_13h52.11.002,cuing_paradigm_dot,2024.1.5,Win32,59.52380952,682d573fa47f1360d1451895,,,,,,,,,,,202.4402,202.9389,,,203.1898,203.606,left,,,,,,,,0.9,0.4009,,,,,,,202.9389,203.1897,203.606,"[0.017182248549775847,0.1320731810710613]","[-1,-1,-1]","[-0.0017026848316754571,-0.07063326554227825]","[1,1,1]","[0.09769727029135483,-0.01898730839423969]","[1,1,1]","[-0.019753978461455716,0.06158846352667014]","[1,1,1]","[0.028849641576665006,0.013605442234561442]","[1,1,1]","[0.11712571605399577,0.161275651576031]","[1,1,1]","[0.08352494426460731,0.05208376671957357]","[1,1,1]","[-0.17276483688028516,0.08464066808740395]","[1,1,1]","[-0.09175097105519703,-0.07750799557441598]","[1,1,1]","[-0.06701364663854294,0.1681157088530654]","[1,1,1]","[-0.11743377378218216,0.09583797505124603]","[1,1,1]","[-0.023427244784193182,0.0027636427750156456]","[1,1,1]","[0.1769290172659391,0.08211238998778439]","[1,1,1]","[-0.16001360213378113,-0.09243643141624175]","[1,1,1]","[-0.019966136034709148,0.10803091042360315]","[1,1,1]","[0.07125334147102803,-0.10617478358639625]","[1,1,1]","[0.04174019592662679,-0.18785642046024595]","[1,1,1]","[0.014564960625846281,0.18250261920803962]","[1,1,1]","[0.0985648713751966,-0.13649867368212448]","[1,1,1]","[-0.03978582431565931,-0.15493923693901326]","[1,1,1]","[-0.036518047054919636,-0.04975267056247389]","[1,1,1]","[-0.10120043385294718,0.01662006114896332]","[1,1,1]","[-0.17639107770543788,0.018614800666001737]","[1,1,1]","[-0.1612507510260353,-0.02563075871923578]","[1,1,1]","[0.1559343933699383,-0.020530127056700466]","[-1,-1,-1]","[-0.08209402131092064,-0.1325806141556985]","[1,1,1]","[0.13524419132011326,0.06070512603064623]","[1,1,1]","[0.189972725255499,-0.04510636593226063]","[1,1,1]","[0.014546574846241172,-0.14231117989780978]","[-1,-1,-1]","[-0.07171043437569996,0.06740325855209979]","[1,1,1]","[0.14986332781521192,-0.0916806755687712]","[1,1,1]","[0.03166518039761461,-0.04300104202999424]","[1,1,1]","[0.02,0.02]",204.7056,0,24,24,197,1,,,,,,,
,,,,,,,60d1e0cc196b3af97639e61a,682f0fca7f8fc3438384ae8c,2025-05-22_13h52.11.002,cuing_paradigm_dot,2024.1.5,Win32,59.52380952,682d573fa47f1360d1451895,,,,,,,,,,,204.7063,205.2057,,,205.4567,206.2729,right,,,,,,,,0.45,0.8099,,,,,,,205.2058,205.4567,206.2729,"[0.053350834056992126,-0.17554237654263305]","[-1,-1,-1]","[-0.1969727902246242,0.008656999549578753]","[-1,-1,-1]","[-0.0430799849663403,0.09552901485423586]","[-1,-1,-1]","[-0.18882317660607756,-0.05166398080610338]","[-1,-1,-1]","[0.13219308467473478,-0.11410388859774147]","[-1,-1,-1]","[0.07314025978931075,-0.11486864678377876]","[-1,-1,-1]","[-0.10324938279845099,-0.11625577609702258]","[-1,-1,-1]","[-0.060161171990654294,0.15144817914767]","[-1,-1,-1]","[-0.10023195328133418,0.1392852413121013]","[-1,-1,-1]","[-0.029102405248497623,-0.1921711422688781]","[-1,-1,-1]","[0.17602203954608622,0.0713538968245939]","[-1,-1,-1]","[-0.10506056355213006,-0.019763095026786463]","[1,1,1]","[0.11992681355015393,0.07377461613695695]","[1,1,1]","[-0.1180904781573749,0.03643107328302259]","[-1,-1,-1]","[0.11285949139768217,0.15759102943133135]","[-1,-1,-1]","[0.044339143987046074,0.023371912116841722]","[1,1,1]","[-0.024561026254196584,-0.0037713305680978576]","[-1,-1,-1]","[0.04378755469465849,0.17965599853734107]","[-1,-1,-1]","[-0.0475927624376412,-0.11759875319653032]","[1,1,1]","[0.06936190941800624,0.07583682619403691]","[1,1,1]","[0.1046209834609933,-0.1646264947776511]","[1,1,1]","[0.08625950228757849,0.12012172153654399]","[1,1,1]","[-0.0007235008001156289,-0.13116830348072966]","[1,1,1]","[-0.06587640170542998,-0.06022025161334483]","[-1,-1,-1]","[-0.03253188511748646,0.055202285017137996]","[-1,-1,-1]","[-0.13602928111471746,0.10387509865334295]","[1,1,1]","[0.028694705876227123,0.12658713997889762]","[1,1,1]","[0.049320983690264726,-0.06692235929726742]","[1,1,1]","[-0.022665963970640714,-0.06840081412165312]","[1,1,1]","[0.14751990680206745,-0.014977256272586604]","[-1,-1,-1]","[0.16054792829494147,0.11858185015452362]","[1,1,1]","[0.08910453878718834,-0.028562596876970384]","[1,1,1]","[0.02,0.02]",207.3728,0,25,25,84,1,,,,,,,
,,,,,,,60d1e0cc196b3af97639e61a,682f0fca7f8fc3438384ae8c,2025-05-22_13h52.11.002,cuing_paradigm_dot,2024.1.5,Win32,59.52380952,682d573fa47f1360d1451895,,,,,,,,,,,207.3739,207.8723,,,208.1226,208.4725,left,,,,,,,,0.9,0.3344,,,,,,,207.8725,208.1226,208.4726,"[0.06515960485325405,-0.054964189574808996]","[1,1,1]","[-0.0812542234915242,0.17388656099412883]","[1,1,1]","[-0.17639811212505477,-0.020067663247836078]","[1,1,1]","[0.01652195481512368,-0.08281268345752504]","[1,1,1]","[-0.17620063903532515,-0.08737043077961144]","[1,1,1]","[0.19784164695961337,0.026996206445423842]","[-1,-1,-1]","[-0.04845994851826933,-0.04011852092962019]","[1,1,1]","[0.04190882381654108,-0.1868379724143775]","[1,1,1]","[0.006217554590037881,-0.1530066291452369]","[1,1,1]","[0.0573111426208666,0.0893148089901947]","[1,1,1]","[0.10466347677772604,-0.16083633446549908]","[1,1,1]","[0.16624022050043075,0.05967042089000424]","[1,1,1]","[-0.004194260691629126,-0.040547134257291347]","[1,1,1]","[0.15575024691275305,-0.003994132361267783]","[1,1,1]","[-0.05318581412397062,-0.16287443623541661]","[1,1,1]","[0.12011504449416739,-0.05401189882048348]","[-1,-1,-1]","[-0.050344286721483326,0.06752035774412422]","[1,1,1]","[0.0950262724948614,-0.018921527932816387]","[1,1,1]","[0.09954694599094564,-0.11945240668544546]","[1,1,1]","[0.00410671847678146,0.17169455919292198]","[1,1,1]","[0.16803300161637494,0.10319621150758727]","[1,1,1]","[-0.16595671334045473,0.0772707085509338]","[1,1,1]","[0.05556085010796924,0.03305692650532592]","[1,1,1]","[0.013099309977750237,0.05833354986089643]","[1,1,1]","[-0.05748565742459315,-0.0916587325953332]","[1,1,1]","[-0.11011434046189483,-0.13274527364427566]","[1,1,1]","[0.10444019609257027,0.08640030074657175]","[1,1,1]","[0.06484622507812488,-0.1406930299244593]","[-1,-1,-1]","[-0.09331917076603136,-0.17272181029691566]","[1,1,1]","[-0.11652045625712346,0.08724230280525583]","[1,1,1]","[0.03281667970343843,-0.006226882454023171]","[1,1,1]","[-0.10280796020179306,-0.07498405478902906]","[1,1,1]","[0.02,0.02]",209.5725,0,26,26,200,1,,,,,,,
,,,,,,,60d1e0cc196b3af97639e61a,682f0fca7f8fc3438384ae8c,2025-05-22_13h52.11.002,cuing_paradigm_dot,2024.1.5,Win32,59.52380952,682d573fa47f1360d1451895,,,,,,,,,,,209.573,210.0724,,,210.3224,210.706,right,,,,,,,,0.1,0.3741,,,,,,,210.0725,210.3223,210.7061,"[-0.02252597838527821,0.07304645773630282]","[-1,-1,-1]","[0.005547973134550652,0.18843204907766523]","[-1,-1,-1]","[-0.03598126797104191,0.13200064828680944]","[-1,-1,-1]","[0.1401705090568978,-0.015170530831671641]","[-1,-1,-1]","[-0.1335105782581868,0.015768521113217505]","[-1,-1,-1]","[0.1890768678173684,-0.021007167217712407]","[-1,-1,-1]","[0.14390366023943732,-0.13846663266565246]","[-1,-1,-1]","[0.07668661125784601,-0.14647411944913075]","[-1,-1,-1]","[0.05175335746715357,-0.08217121973630116]","[-1,-1,-1]","[0.00852402782533608,-0.03663497476850946]","[-1,-1,-1]","[0.12751512966847509,0.06117254721757366]","[-1,-1,-1]","[0.0731331363893004,0.14628931966206998]","[-1,-1,-1]","[0.0695515920884226,-0.03666867339602583]","[-1,-1,-1]","[-0.14096059268914904,-0.09566296888806937]","[-1,-1,-1]","[0.07883445319653883,0.07392740996992386]","[1,1,1]","[0.01345068368278478,0.027998611192157172]","[-1,-1,-1]","[-0.08964780463464449,-0.08608305205793522]","[-1,-1,-1]","[0.046621199441860314,-0.19296857280059695]","[-1,-1,-1]","[-0.09053118775302071,0.02903852980762772]","[-1,-1,-1]","[-0.126411691765998,-0.14168396429927016]","[-1,-1,-1]","[-0.11888591292162375,0.15937681591275174]","[1,1,1]","[-0.17338986284643354,0.088475435903148]","[-1,-1,-1]","[0.11081117270639788,-0.10926799394310097]","[-1,-1,-1]","[0.07343854713343154,0.03055923480536747]","[-1,-1,-1]","[-0.1657710602976478,-0.04357768035035214]","[-1,-1,-1]","[0.1464227280615731,-0.05780959308997105]","[-1,-1,-1]","[-0.022483439883523193,-0.08166890389143786]","[-1,-1,-1]","[-0.06088339109008217,-0.1717661378473801]","[-1,-1,-1]","[-0.016268917510969077,-0.1706512624583412]","[-1,-1,-1]","[-0.029288143580324534,0.015732394816054415]","[-1,-1,-1]","[-0.0695715469014029,0.09935787289099361]","[1,1,1]","[0.014049501177404623,-0.12433058391850996]","[-1,-1,-1]","[0.02,0.02]",211.8057,0,27,27,21,1,,,,,,,
,,,,,,,60d1e0cc196b3af97639e61a,682f0fca7f8fc3438384ae8c,2025-05-22_13h52.11.002,cuing_paradigm_dot,2024.1.5,Win32,59.52380952,682d573fa47f1360d1451895,,,,,,,,,,,211.8062,212.3058,,,212.5553,213.522,left,,,,,,,,0.6,0.9573,,,,,,,212.3058,212.5553,213.5221,"[0.0763154964351386,-0.037729079940064365]","[1,1,1]","[0.10487643566449294,-0.14333425287781723]","[-1,-1,-1]","[0.003427386299828997,0.13373499967129931]","[1,1,1]","[-0.03917551983428414,0.18103240793826297]","[1,1,1]","[-0.019868333404017866,-0.06727003596460034]","[1,1,1]","[0.12683580732059271,-0.03932437272593252]","[1,1,1]","[0.029633886509736005,0.09098716985406095]","[1,1,1]","[-0.004255074133757898,-0.16049495918559387]","[-1,-1,-1]","[0.0326209192450962,-0.055916537288467606]","[1,1,1]","[0.09484113340184988,0.0893856369833625]","[1,1,1]","[0.061112231266302615,-0.16872451546844977]","[-1,-1,-1]","[0.0003145545440836899,0.0395879147711715]","[-1,-1,-1]","[-0.08534825949552016,-0.026541602285913568]","[1,1,1]","[-0.06863597875028203,0.09283196361898362]","[-1,-1,-1]","[-0.03843412490945764,0.05203739383663138]","[1,1,1]","[0.16819208075369818,-0.023133747476498077]","[1,1,1]","[-0.11091175637652367,0.1373667346601342]","[-1,-1,-1]","[0.13533640926483123,-0.10006028815967029]","[1,1,1]","[-0.17184659915726552,-0.03352995150537186]","[-1,-1,-1]","[0.10918565104852034,0.1373327509041792]","[1,1,1]","[0.0010767608661836636,-0.00510329097828424]","[1,1,1]","[0.12667317220083868,0.007517568953232269]","[1,1,1]","[-0.1636595445088912,0.007465605057204926]","[1,1,1]","[-0.05059254307267572,0.13118495030918906]","[1,1,1]","[-0.15036385280469036,-0.09526983446225927]","[1,1,1]","[0.13224600159277788,0.07301336180594507]","[-1,-1,-1]","[0.07147367677237892,0.16719761142846742]","[-1,-1,-1]","[-0.1214830375885647,-0.0031225434857051295]","[1,1,1]","[-0.10440921730054531,0.0602897220636291]","[-1,-1,-1]","[-0.1486075045729333,0.04872177180951217]","[-1,-1,-1]","[-0.12184990654624084,-0.13532369827850066]","[-1,-1,-1]","[0.014809638507000391,0.1897060556741354]","[-1,-1,-1]","[0.02,0.02]",214.6224,0,28,28,166,1,,,,,,,
,,,,,,,60d1e0cc196b3af97639e61a,682f0fca7f8fc3438384ae8c,2025-05-22_13h52.11.002,cuing_paradigm_dot,2024.1.5,Win32,59.52380952,682d573fa47f1360d1451895,,,,,,,,,,,214.623,215.1223,,,215.373,216.0718,right,,,,,,,,0.45,0.6868,,,,,,,215.1224,215.373,216.0718,"[-0.03296551451388808,0.06907458137543075]","[1,1,1]","[0.13962286346430558,-0.1300528914673573]","[-1,-1,-1]","[0.004358887818324996,0.025615504195185965]","[-1,-1,-1]","[-0.09621173144232079,0.06953880302134781]","[1,1,1]","[0.04790656728303184,-0.008153741143729127]","[1,1,1]","[0.17138866043310974,-0.037300253103325534]","[-1,-1,-1]","[-0.18221170750988824,-0.049560483516482706]","[-1,-1,-1]","[0.03367352767730834,-0.10548115310375474]","[-1,-1,-1]","[-0.14603890797290933,0.08408186379230673]","[-1,-1,-1]","[0.05484993307062455,0.11052984218005397]","[1,1,1]","[-0.0981156321398492,0.027626753465199043]","[1,1,1]","[0.12456761579637693,0.15387768028933047]","[-1,-1,-1]","[0.08744329315775483,-0.14705581692382053]","[1,1,1]","[0.06706789196620185,-0.07445162870929549]","[1,1,1]","[0.0365184667641225,-0.16143603602396123]","[-1,-1,-1]","[-0.08787140727272039,-0.16149567537922208]","[-1,-1,-1]","[-0.02020196325693642,-0.18593276648466825]","[-1,-1,-1]","[0.039590100814175154,0.06893059423639465]","[-1,-1,-1]","[-0.010778696199147862,-0.06435840756657651]","[-1,-1,-1]","[-0.0303611327982253,-0.014690672955218474]","[1,1,1]","[-0.07501655553181061,-0.0658914752050693]","[1,1,1]","[0.12454073373111323,0.0627914048334703]","[-1,-1,-1]","[0.01885953811766893,0.13922798990429242]","[-1,-1,-1]","[-0.009062592347011652,-0.12208091731824552]","[1,1,1]","[-0.14640317625404614,-0.08212084467449647]","[-1,-1,-1]","[-0.10644414692947855,0.11718202549721458]","[1,1,1]","[0.1660961754818283,0.09082624136456359]","[-1,-1,-1]","[-0.1436610741159332,-0.0007022372087575569]","[1,1,1]","[-0.16446510944666987,0.041611310824923226]","[-1,-1,-1]","[-0.09427744858231327,-0.022108410113865707]","[-1,-1,-1]","[-0.12180659471182922,0.15657803733685757]","[1,1,1]","[-0.06802664629113196,0.1568015239434477]","[1,1,1]","[0.02,0.02]",217.172,0,29,29,83,1,,,,,,,
,,,,,,,60d1e0cc196b3af97639e61a,682f0fca7f8fc3438384ae8c,2025-05-22_13h52.11.002,cuing_paradigm_dot,2024.1.5,Win32,59.52380952,682d573fa47f1360d1451895,,,,,,,,,,,217.1728,217.6721,,,217.9223,218.5223,right,,,,,,,,0.55,0.5847,,,,,,,217.6721,217.9222,218.5224,"[0.03864491990499104,0.001301531886237568]","[-1,-1,-1]","[-0.02963243318749574,0.17499392093481447]","[1,1,1]","[0.07665238463479573,0.07268189515690966]","[1,1,1]","[0.07308631686284657,0.11321913347453286]","[-1,-1,-1]","[-0.1355406147548458,0.0987957882248138]","[-1,-1,-1]","[-0.05624775960758882,0.0024125543014813997]","[1,1,1]","[-0.03990638578181272,-0.10007258532471461]","[1,1,1]","[0.15014090924706275,0.02280257798763149]","[1,1,1]","[-0.16953116424003417,0.024219269578296947]","[-1,-1,-1]","[-0.018734442720123305,-0.1928528285830274]","[1,1,1]","[0.15446884976530645,0.08129607730558969]","[1,1,1]","[-0.18580573981779208,-0.02849132648308056]","[1,1,1]","[-0.08939427774628765,-0.06462067430821075]","[1,1,1]","[-0.15436310555627283,-0.09304839906966762]","[-1,-1,-1]","[0.03918767331830273,-0.15469665277035813]","[-1,-1,-1]","[0.1489594840661743,-0.042881130201739746]","[-1,-1,-1]","[0.08088507095911256,-0.17927597011374538]","[1,1,1]","[-0.10498314423387481,-0.01253672602732912]","[-1,-1,-1]","[-0.04528250622947024,0.06493798590818646]","[1,1,1]","[-0.008507791124389433,-0.0336530829562971]","[1,1,1]","[-0.06177599813502265,-0.1788563313090188]","[-1,-1,-1]","[0.08096665471119778,-0.04648849300138936]","[-1,-1,-1]","[0.1952355317355794,-0.04107734054057529]","[1,1,1]","[-0.09448137548815692,-0.11506644705312222]","[1,1,1]","[0.03859635185939638,-0.04506595753218943]","[1,1,1]","[-0.0807104439628044,0.16054699894187527]","[-1,-1,-1]","[-0.12380912991890296,0.04615369606203706]","[-1,-1,-1]","[0.051212680887133044,0.1548680342413793]","[-1,-1,-1]","[-0.018644946623319853,-0.14739536382967428]","[1,1,1]","[0.005467142481614578,-0.09962699671915154]","[1,1,1]","[-0.043333120623396476,0.11225052005070683]","[1,1,1]","[0.09289495760122038,0.00245879249103102]","[-1,-1,-1]","[0.02,0.02]",219.622,0,30,30,142,1,,,,,,,
,,,,,,,60d1e0cc196b3af97639e61a,682f0fca7f8fc3438384ae8c,2025-05-22_13h52.11.002,cuing_paradigm_dot,2024.1.5,Win32,59.52380952,682d573fa47f1360d1451895,,,,,,,,,,,219.6226,220.122,,,220.3722,220.9218,left,,,,,,,,0.6,0.5348,,,,,,,220.122,220.3722,220.9218,"[-0.11814262217656205,-0.13820375601227847]","[1,1,1]","[-0.06687070267608482,-0.06977157202997851]","[1,1,1]","[0.029024417308490723,0.06833234372268615]","[1,1,1]","[0.19147289667610692,0.01500389771245728]","[1,1,1]","[-0.10076667206799572,0.11323160418670195]","[1,1,1]","[-0.04792252614820575,0.16656156977510259]","[1,1,1]","[0.0036133215509888406,-0.009645126692977016]","[-1,-1,-1]","[-0.05097182886024592,-0.12087800193444988]","[1,1,1]","[0.104954974849169,0.021243202717410575]","[-1,-1,-1]","[0.07687810761509728,-0.16618029100920936]","[-1,-1,-1]","[-0.15408388085438707,0.10152073102430205]","[1,1,1]","[0.00033314477457832504,-0.18727981974388808]","[1,1,1]","[0.14912935596698268,-0.13026284186563286]","[1,1,1]","[-0.00365657080208941,-0.076495090077523]","[1,1,1]","[0.12416540177640002,-0.018364296471116127]","[1,1,1]","[-0.18334957726424117,-0.009471083643507745]","[1,1,1]","[-0.16096531133014447,-0.05858858924631013]","[1,1,1]","[-0.016199038022661656,0.07147959042613965]","[-1,-1,-1]","[0.09362067726224889,0.10809980751063346]","[-1,-1,-1]","[-0.04654755957026239,-0.1931865649359419]","[1,1,1]","[0.07912590852759449,0.06246238261384971]","[-1,-1,-1]","[0.042713845466774536,-0.1264239183289387]","[1,1,1]","[-0.11523383919631354,-0.0163493902157421]","[-1,-1,-1]","[0.11942011955208784,-0.06332088512417758]","[-1,-1,-1]","[0.18324750044587193,-0.036287018839952445]","[-1,-1,-1]","[0.007410142013396812,0.1731116844814698]","[1,1,1]","[-0.022797223999359642,0.13161301580866352]","[-1,-1,-1]","[0.1317338774475457,0.137557575853375]","[-1,-1,-1]","[0.06650969890068574,0.16699548460586958]","[1,1,1]","[-0.05433415778317578,0.018806343078015222]","[-1,-1,-1]","[0.0014465718495817186,0.03474576816213558]","[1,1,1]","[-0.1367995904646947,0.026677013347663942]","[-1,-1,-1]","[0.02,0.02]",222.0214,0,31,31,165,1,,,,,,,
,,,,,,,60d1e0cc196b3af97639e61a,682f0fca7f8fc3438384ae8c,2025-05-22_13h52.11.002,cuing_paradigm_dot,2024.1.5,Win32,59.52380952,682d573fa47f1360d1451895,,,,,,,,,,,222.0219,222.5223,,,222.7726,223.472,right,,,,,,,,0.1,0.6846,,,,,,,222.5223,222.7725,223.4721,"[0.10940804372961047,0.0843004957048455]","[-1,-1,-1]","[-0.058554404251735526,0.06578784730311685]","[-1,-1,-1]","[0.08604726526561884,-0.12807093080864737]","[-1,-1,-1]","[-0.07832454019209815,-0.03013929959957993]","[-1,-1,-1]","[-0.011995455696570012,-0.037083123461107974]","[-1,-1,-1]","[-0.019903371525015926,0.013192319228321472]","[-1,-1,-1]","[0.16353792998317349,0.07979777000025783]","[-1,-1,-1]","[-0.11039026754250823,-0.0014514221439313254]","[-1,-1,-1]","[-0.17425551853735513,-0.0909112545057214]","[1,1,1]","[0.06435801908058278,0.07667807753857561]","[-1,-1,-1]","[0.14054499973501716,0.02143239361253851]","[1,1,1]","[-0.07764485357530021,-0.12919193575621465]","[-1,-1,-1]","[-0.018072998577342715,0.11436869586200246]","[-1,-1,-1]","[0.0036293771081623476,0.06540982144559591]","[-1,-1,-1]","[0.18451252009780822,-0.07525597793171422]","[-1,-1,-1]","[0.07890307779134956,0.009469669325776194]","[1,1,1]","[-0.13583405242205446,-0.03739304246538342]","[-1,-1,-1]","[0.01665621456706489,-0.09556100956796065]","[-1,-1,-1]","[0.1414222749442339,0.13061486577015727]","[-1,-1,-1]","[0.033303394590339847,-0.03440110265202097]","[-1,-1,-1]","[-0.1715420575410164,0.058962117423699376]","[-1,-1,-1]","[0.01090602196077945,0.19349037720049664]","[-1,-1,-1]","[0.011990613224629259,-0.1354533722647663]","[-1,-1,-1]","[-0.16064449993718952,0.11246279746592443]","[-1,-1,-1]","[0.05184377873116536,-0.179187091639873]","[-1,-1,-1]","[-0.1153457596425807,0.06479046074292467]","[-1,-1,-1]","[-0.10397401821748654,0.1120028458220142]","[-1,-1,-1]","[0.0302514211436784,0.11915083292125477]","[-1,-1,-1]","[-0.017222217970472842,-0.1859233425675067]","[-1,-1,-1]","[0.12010441141595218,-0.02980396227641612]","[-1,-1,-1]","[0.05082618456034197,0.17962236795650943]","[-1,-1,-1]","[-0.06954127401331536,0.1762401814350763]","[-1,-1,-1]","[0.02,0.02]",224.572,0,32,32,5,1,,,,,,,
,,,,,,,60d1e0cc196b3af97639e61a,682f0fca7f8fc3438384ae8c,2025-05-22_13h52.11.002,cuing_paradigm_dot,2024.1.5,Win32,59.52380952,682d573fa47f1360d1451895,,,,,,,,,,,224.5724,225.0721,,,225.3228,226.2549,right,,,,,,,,0.5,0.9244,,,,,,,225.0721,225.3226,226.255,"[0.10063090944559211,-0.10780211358200885]","[1,1,1]","[-0.12225664233360728,0.021684948725042293]","[1,1,1]","[0.06802385719716655,0.10478276335394371]","[-1,-1,-1]","[0.18449184794287793,-0.026426039108461075]","[-1,-1,-1]","[-0.07917129419800513,0.17907735003093697]","[1,1,1]","[-0.12349790523812215,-0.038636925771827674]","[-1,-1,-1]","[-0.07391116729717262,-0.0235658152945543]","[1,1,1]","[-0.06483680617912115,0.14111799558081245]","[-1,-1,-1]","[-0.15915796601546028,-0.009089783608515]","[-1,-1,-1]","[0.06951753556624435,-0.18551822841458593]","[1,1,1]","[0.025156812687571025,-0.17130348041486165]","[1,1,1]","[-0.0050065808866132855,0.013333761489849213]","[1,1,1]","[0.04182256417594264,0.00020137179106778674]","[-1,-1,-1]","[0.1402690056286673,0.07510287134932081]","[-1,-1,-1]","[-0.026659609071004817,0.10702610649123007]","[1,1,1]","[0.04905246130432449,-0.04626954447154372]","[1,1,1]","[-0.04285846995702613,-0.06239808783581425]","[-1,-1,-1]","[0.002656371394070865,-0.0289894585795424]","[1,1,1]","[0.06518739165987232,-0.1353212663264538]","[-1,-1,-1]","[0.08060029451151486,0.15303155962337725]","[1,1,1]","[0.019973315737463016,0.19230141218665578]","[-1,-1,-1]","[0.13579781335352092,0.1189411901725779]","[-1,-1,-1]","[-0.09305098995579347,-0.0951215102417362]","[1,1,1]","[-0.1804081876035388,-0.052920947256988024]","[1,1,1]","[0.06375643234436429,0.0536252574655714]","[1,1,1]","[0.18589998483604572,0.023992497892028807]","[-1,-1,-1]","[-0.11765909238073355,0.14537908415143086]","[-1,-1,-1]","[0.15527389948740075,-0.07405409282553986]","[-1,-1,-1]","[-0.021133339583215966,0.19403422770954118]","[1,1,1]","[0.016358355676528494,0.13958255318832338]","[-1,-1,-1]","[-0.14553715103247752,0.07154572873699099]","[1,1,1]","[0.14158856157391073,0.0289828667322579]","[-1,-1,-1]","[0.02,0.02]",227.3551,0,33,33,102,1,,,,,,,
,,,,,,,60d1e0cc196b3af97639e61a,682f0fca7f8fc3438384ae8c,2025-05-22_13h52.11.002,cuing_paradigm_dot,2024.1.5,Win32,59.52380952,682d573fa47f1360d1451895,,,,,,,,,,,227.3557,227.855,,,228.1057,228.8722,right,,,,,,,,0.45,0.7501,,,,,,,227.855,228.1057,228.8723,"[0.011707921093547513,-0.18935133775171825]","[-1,-1,-1]","[0.06206198935024552,-0.1698813331517238]","[-1,-1,-1]","[0.059746563688644554,-0.03634805406599051]","[1,1,1]","[0.02693925169641429,0.04066299847785358]","[1,1,1]","[-0.05249652018631949,-0.12110181003837672]","[-1,-1,-1]","[-0.10461320063088157,-0.06716403633103217]","[-1,-1,-1]","[0.08199723633563859,-0.11963613049145642]","[1,1,1]","[-0.060425204621914266,0.03804110398947343]","[-1,-1,-1]","[0.09675427054044718,0.08315630652901343]","[-1,-1,-1]","[0.05340332715786421,0.17152354605119255]","[-1,-1,-1]","[0.15953332330496672,-0.033202789528450447]","[-1,-1,-1]","[-0.0491125441488327,0.1817507550509899]","[-1,-1,-1]","[-0.15494172518855082,0.11013176198774197]","[-1,-1,-1]","[0.14588564647757127,0.056710701249600565]","[-1,-1,-1]","[-0.16513146044362195,-0.06484839610944014]","[1,1,1]","[-0.14796341006849514,-0.008547384705216727]","[-1,-1,-1]","[0.008514481664998902,-0.1170285055798593]","[1,1,1]","[-0.033670625459816944,-0.05039119841183139]","[1,1,1]","[-0.031845219584843105,-0.15699315333464406]","[1,1,1]","[0.08900685679637745,0.1248809676769542]","[1,1,1]","[-0.0992449182647663,0.06031935758337319]","[1,1,1]","[-0.17775400668841487,0.07540736037078602]","[-1,-1,-1]","[0.011317069023303566,0.0021560857435166786]","[1,1,1]","[0.160133291380722,-0.10544051451911514]","[-1,-1,-1]","[-0.1934672033913641,-0.021101156082768673]","[-1,-1,-1]","[-0.080098121222441,0.12388534556895499]","[1,1,1]","[-0.10770003771820975,-0.0027953596744156976]","[-1,-1,-1]","[0.10018833091254581,-0.05806791271613913]","[1,1,1]","[-0.09013632050094786,-0.17818249638619643]","[-1,-1,-1]","[-0.030586983461332685,0.08830777991497378]","[-1,-1,-1]","[0.1609698569283924,0.11782398714279663]","[1,1,1]","[0.09712648808196893,0.019179436934516333]","[1,1,1]","[0.02,0.02]",229.9717,0,34,34,70,1,,,,,,,
,,,,,,,60d1e0cc196b3af97639e61a,682f0fca7f8fc3438384ae8c,2025-05-22_13h52.11.002,cuing_paradigm_dot,2024.1.5,Win32,59.52380952,682d573fa47f1360d1451895,,,,,,,,,,,229.9724,230.4718,,,230.7224,231.7546,left,,,,,,,,0.4,1.0202,,,,,,,230.4719,230.7223,231.7547,"[0.15337784186767914,-0.11202934690294925]","[1,1,1]","[0.05370375575709908,-0.019126759253558667]","[-1,-1,-1]","[0.1773236847372419,0.020108132497773212]","[-1,-1,-1]","[-0.1508273544584563,-0.005958301670392419]","[-1,-1,-1]","[0.06709608276949768,-0.1329603748845923]","[-1,-1,-1]","[-0.01859888248211901,0.12771036655357268]","[1,1,1]","[-0.015334697412932002,0.006277039492880733]","[-1,-1,-1]","[-0.08916591657751091,0.0634917280710009]","[-1,-1,-1]","[-0.1744522687870049,-0.05586502282898143]","[1,1,1]","[0.028286962054092497,-0.18590183251507073]","[1,1,1]","[-0.1525623393343,0.07165608413236199]","[-1,-1,-1]","[-0.009572862669387791,-0.043761094037301544]","[-1,-1,-1]","[0.06984036643013795,-0.17995585195346772]","[1,1,1]","[0.039539425869582694,0.11594597905780166]","[-1,-1,-1]","[0.08596746922631096,0.11497086518765964]","[-1,-1,-1]","[0.16677146805068246,-0.032798354608090885]","[1,1,1]","[0.04428005643117993,0.18164007532326362]","[-1,-1,-1]","[-0.13237357582979473,0.12698865566744585]","[-1,-1,-1]","[0.15348144109263256,0.10470967789203088]","[-1,-1,-1]","[-0.06419346510000018,-0.06336800896807367]","[-1,-1,-1]","[0.11265026189777747,-0.02516529890120255]","[1,1,1]","[-0.08311168512776411,-0.17860255769135544]","[1,1,1]","[-0.03778138672858811,0.18481006146348067]","[1,1,1]","[0.05826387950424792,-0.08039995003145457]","[-1,-1,-1]","[0.12326837706971751,-0.08003888919402576]","[-1,-1,-1]","[0.14276814694835502,0.06437983390589534]","[1,1,1]","[0.03605491827971065,0.053463023955643146]","[1,1,1]","[-0.0545775486362508,0.10732341256366276]","[1,1,1]","[-0.04000815258804053,-0.15780425846230448]","[-1,-1,-1]","[-0.17254296653011034,-0.09769018697421569]","[1,1,1]","[-0.13621407203301172,-0.13366420276268007]","[-1,-1,-1]","[0.09784519832631515,0.040963053628863384]","[-1,-1,-1]","[0.02,0.02]",232.8543,0,35,35,56,1,,,,,,,
,,,,,,,60d1e0cc196b3af97639e61a,682f0fca7f8fc3438384ae8c,2025-05-22_13h52.11.002,cuing_paradigm_dot,2024.1.5,Win32,59.52380952,682d573fa47f1360d1451895,,,,,,,,,,,232.8546,233.3545,,,233.6046,234.1546,left,,,,,,,,0.6,0.5398,,,,,,,233.3546,233.6045,234.1546,"[-0.03235066970428089,-0.1452107340315096]","[1,1,1]","[-0.06627357326784565,-0.018664210949103886]","[1,1,1]","[0.1391341828151619,0.03271221777021557]","[-1,-1,-1]","[0.09628111143971317,-0.10384924101291435]","[-1,-1,-1]","[-0.10665399341153672,0.08342865473936473]","[1,1,1]","[-0.14489204956820695,-0.060663731292285944]","[1,1,1]","[0.17613427024434822,0.08504133568850682]","[1,1,1]","[0.11202485165162873,-0.00879954823250077]","[1,1,1]","[0.0022194461512110727,0.02668398853115724]","[1,1,1]","[0.057030774995974795,0.09478125999102154]","[-1,-1,-1]","[0.04112264208555755,-0.14582055696680693]","[-1,-1,-1]","[-0.09600082658005547,-0.17180556406106992]","[1,1,1]","[0.04592437752029952,0.0005218794424250766]","[-1,-1,-1]","[0.1419215976978228,-0.0662156038817696]","[-1,-1,-1]","[0.18769156299473866,-0.006930412865474904]","[1,1,1]","[0.08749856355731724,0.15894706746771087]","[-1,-1,-1]","[0.014972936032789536,-0.08803773908665549]","[1,1,1]","[-0.04801773392465206,0.06040822619893385]","[-1,-1,-1]","[-0.07875351909908555,-0.09084769707565037]","[1,1,1]","[-0.18227217938090007,-0.008630594753189568]","[-1,-1,-1]","[0.06030910319812583,-0.07754658981680793]","[1,1,1]","[-0.05354744828532802,0.1198787789277987]","[1,1,1]","[0.07140825119742483,-0.1839558969751406]","[1,1,1]","[-0.18952684212959903,0.047896115493973]","[-1,-1,-1]","[0.04776987522136521,0.1850057192047189]","[-1,-1,-1]","[-0.006992736840974319,0.12466266926525128]","[-1,-1,-1]","[-0.11699443849930641,0.017432541930604093]","[1,1,1]","[-0.0063222787563686255,0.17771402808606188]","[1,1,1]","[-0.038052682219988025,0.010259499081926785]","[-1,-1,-1]","[0.135828063409997,-0.142095150601462]","[1,1,1]","[-0.11408672874031597,-0.023675847413945416]","[1,1,1]","[0.006211498947644336,-0.1736994842079955]","[1,1,1]","[0.02,0.02]",235.255,0,36,36,151,1,,,,,,,
,,,,,,,60d1e0cc196b3af97639e61a,682f0fca7f8fc3438384ae8c,2025-05-22_13h52.11.002,cuing_paradigm_dot,2024.1.5,Win32,59.52380952,682d573fa47f1360d1451895,,,,,,,,,,,235.2555,235.7546,,,236.0056,236.4213,right,,,,,,,,0.1,0.4005,,,,,,,235.7547,236.0054,236.4214,"[-0.07177765957323445,-0.12490342080246049]","[-1,-1,-1]","[0.1570932042282011,0.08333894065832276]","[-1,-1,-1]","[-0.17022854461307033,0.02950424755283853]","[1,1,1]","[0.10347807794786383,0.0691424026644173]","[-1,-1,-1]","[-0.15032399197379018,-0.106687851007698]","[-1,-1,-1]","[-0.02483519598392352,0.04945967194590931]","[-1,-1,-1]","[0.044018595054653206,0.16695852023057522]","[-1,-1,-1]","[0.17244422183850633,-0.05128396107760548]","[-1,-1,-1]","[-0.15805349140615763,0.11046860390617921]","[1,1,1]","[0.045715605492187984,-0.19085415494554805]","[-1,-1,-1]","[-0.021845901072613874,-0.1936137190504003]","[-1,-1,-1]","[0.16036181563738447,0.0076286422662655215]","[-1,-1,-1]","[0.08929991025789805,-0.0946214388716541]","[1,1,1]","[0.07753809096689661,-0.16559052018975362]","[-1,-1,-1]","[-0.00004359006918560968,0.006632237840813552]","[-1,-1,-1]","[-0.1488245999002008,-0.05401763118355908]","[-1,-1,-1]","[0.06275201795116485,-0.0029365121240247363]","[-1,-1,-1]","[-0.01479654492208398,0.13978993367833964]","[-1,-1,-1]","[0.05772236887079617,0.10940702231260266]","[-1,-1,-1]","[0.00037053481891261036,-0.04095217602105655]","[-1,-1,-1]","[0.06284392596107956,0.06036046465711022]","[-1,-1,-1]","[-0.13209463504742328,-0.14283337280940842]","[-1,-1,-1]","[-0.10189798008487443,0.09467071272229839]","[-1,-1,-1]","[-0.06831364628866111,0.0089052077367705]","[-1,-1,-1]","[-0.032096527020357715,-0.14519921313567402]","[-1,-1,-1]","[0.11079932678451831,-0.03514250120454692]","[-1,-1,-1]","[-0.08054653019383921,0.17514331743754719]","[-1,-1,-1]","[0.1381800906415892,-0.14091748351127703]","[-1,-1,-1]","[-0.03139637241438326,-0.06838863821151824]","[-1,-1,-1]","[0.0022119814526146094,-0.1077554559736555]","[-1,-1,-1]","[0.11311818415148853,0.1562475967486803]","[-1,-1,-1]","[-0.06377877590554172,-0.17972789544221723]","[-1,-1,-1]","[0.02,0.02]",237.5213,0,37,37,17,1,,,,,,,
,,,,,,,60d1e0cc196b3af97639e61a,682f0fca7f8fc3438384ae8c,2025-05-22_13h52.11.002,cuing_paradigm_dot,2024.1.5,Win32,59.52380952,682d573fa47f1360d1451895,,,,,,,,,,,237.5219,238.0218,,,238.2721,238.6051,right,,,,,,,,0.1,0.3172,,,,,,,238.0218,238.2721,238.6052,"[0.12944474365434425,-0.029233086415912633]","[-1,-1,-1]","[0.1587542603313604,0.0699843103242971]","[-1,-1,-1]","[0.0019445305671157748,0.10595396239444207]","[-1,-1,-1]","[0.051568541945648624,-0.0672736979378834]","[-1,-1,-1]","[-0.02324540331869618,0.17155689184292244]","[-1,-1,-1]","[0.08744206839192015,-0.11513220222966748]","[-1,-1,-1]","[-0.023825058946261298,-0.09127547977667574]","[-1,-1,-1]","[0.04176742818595057,-0.019511654039174823]","[-1,-1,-1]","[0.09219479396657064,-0.011054107058777508]","[-1,-1,-1]","[0.014852256330112624,0.05518908303904824]","[-1,-1,-1]","[-0.14747050130913103,0.09287900944414607]","[-1,-1,-1]","[-0.025746819153549327,-0.02850615045875353]","[1,1,1]","[-0.09931985497399379,-0.14072001820122032]","[-1,-1,-1]","[0.11246732772774831,-0.16246162661440558]","[-1,-1,-1]","[-0.12303653697439486,-0.04961298262615138]","[1,1,1]","[0.06422858945122684,0.10099252421097837]","[-1,-1,-1]","[-0.04787128957507848,0.12372957119142265]","[-1,-1,-1]","[0.05619129904010819,0.17965451551755504]","[-1,-1,-1]","[-0.18078893425605,0.047305735110292804]","[-1,-1,-1]","[-0.1508960353984046,0.012387758333441324]","[-1,-1,-1]","[-0.09813488935036174,0.15266711419843715]","[-1,-1,-1]","[0.16921440234143365,-0.08282565496006059]","[-1,-1,-1]","[-0.08300464363650342,-0.009059761200277619]","[-1,-1,-1]","[0.032226227183112625,-0.11228657718248714]","[-1,-1,-1]","[0.13528446805403618,0.13072866789118676]","[-1,-1,-1]","[-0.10587483055685266,0.03047949288704252]","[-1,-1,-1]","[-0.09009048555360456,0.10124556763675216]","[-1,-1,-1]","[-0.16490640658659372,-0.07529363578678526]","[-1,-1,-1]","[0.17806407334559107,0.0032238795088597827]","[-1,-1,-1]","[0.09653813059586953,0.03666459534587491]","[-1,-1,-1]","[-0.06289340982613022,0.053674310424773976]","[-1,-1,-1]","[0.018752895288064602,-0.16669058354364738]","[1,1,1]","[0.02,0.02]",239.7049,0,38,38,18,1,,,,,,,
,,,,,,,60d1e0cc196b3af97639e61a,682f0fca7f8fc3438384ae8c,2025-05-22_13h52.11.002,cuing_paradigm_dot,2024.1.5,Win32,59.52380952,682d573fa47f1360d1451895,,,,,,,,,,,239.7055,240.2041,,,240.455,241.3385,left,,,,,,,,0.5,0.8769,,,,,,,240.2042,240.4549,241.3386,"[-0.029463246217432393,-0.043492203281429]","[-1,-1,-1]","[-0.04981312428230738,0.060390711504961614]","[1,1,1]","[0.11642976001610174,-0.01981533603976724]","[-1,-1,-1]","[0.051843422177508036,-0.12254215053804697]","[1,1,1]","[0.1497257136117034,-0.10057029877232519]","[-1,-1,-1]","[0.026921272824448377,0.07492325343071761]","[1,1,1]","[-0.1602099904342986,0.0794356339626394]","[-1,-1,-1]","[0.08153579735570556,0.1746420387000674]","[-1,-1,-1]","[-0.07151093898810222,-0.12946587876377208]","[1,1,1]","[-0.011710575573925843,-0.1604901713294306]","[1,1,1]","[-0.09953444180614146,-0.02117189041454959]","[-1,-1,-1]","[-0.07332551968189298,-0.17831094950188087]","[-1,-1,-1]","[-0.019479495938066044,-0.10829064249143071]","[1,1,1]","[-0.1383740263830812,-0.13689275632475953]","[1,1,1]","[0.1608053016189684,-0.0007773537206891566]","[1,1,1]","[-0.033594754908391034,0.16083581641482225]","[1,1,1]","[-0.10833537600319727,0.1614533149239034]","[-1,-1,-1]","[0.0883011761851311,0.10976162685417518]","[-1,-1,-1]","[0.03522859329322446,0.14271226955646493]","[1,1,1]","[-0.16472018804098446,-0.0576912551365334]","[-1,-1,-1]","[0.014749825361202512,0.1974790559261251]","[-1,-1,-1]","[0.1040015519681146,-0.08125693706108482]","[1,1,1]","[-0.04514470043189764,0.0012751462895827276]","[1,1,1]","[0.02589948250427264,-0.03228355225064108]","[-1,-1,-1]","[-0.029328591028286367,0.10283460422542247]","[-1,-1,-1]","[-0.11160938930386465,0.09023486795791112]","[-1,-1,-1]","[0.11627359585530632,0.07505096121921304]","[1,1,1]","[-0.11516709967717187,-0.09261341447313556]","[-1,-1,-1]","[0.09905502505103712,-0.1254671057940435]","[1,1,1]","[-0.09616617310306742,0.04398916636263948]","[-1,-1,-1]","[-0.0665562084083434,-0.05981563768566173]","[1,1,1]","[0.09901291945363778,0.020192261253588178]","[1,1,1]","[0.02,0.02]",242.4376,0,39,39,91,1,,,,,,,
,,,,,,,60d1e0cc196b3af97639e61a,682f0fca7f8fc3438384ae8c,2025-05-22_13h52.11.002,cuing_paradigm_dot,2024.1.5,Win32,59.52380952,682d573fa47f1360d1451895,,,,,,,,,,,242.438,242.9381,,,243.1886,243.6548,left,,,,,,,,0.55,0.4543,,,,,,,242.9383,243.1882,243.6549,"[0.013302077627813417,0.0865927137575181]","[1,1,1]","[0.02688973263250694,-0.17987103799487023]","[1,1,1]","[-0.10464720426186286,0.06113457940097703]","[1,1,1]","[-0.008655232695302236,0.1237349432492157]","[1,1,1]","[0.10646401588154897,-0.04126772994362798]","[1,1,1]","[0.026849308890755028,0.04014824422712998]","[1,1,1]","[0.045923902920874726,-0.03343795241982988]","[1,1,1]","[0.061904516233030775,0.012041218482452317]","[1,1,1]","[0.13608089493748762,0.05405824449209676]","[-1,-1,-1]","[-0.06826108251397213,-0.0649010815437567]","[-1,-1,-1]","[0.061393485535256406,0.11089637093841125]","[-1,-1,-1]","[0.14921592360257363,0.11408741610647025]","[1,1,1]","[0.14860480899901946,-0.1276421002822316]","[1,1,1]","[-0.13459272165749286,0.017094162517424905]","[-1,-1,-1]","[-0.06672131408555355,0.001884573042066394]","[-1,-1,-1]","[0.07066446483991683,-0.17823039755602352]","[1,1,1]","[-0.02454778737454531,0.008021209277807072]","[1,1,1]","[-0.14384706493500635,-0.08468622654982502]","[-1,-1,-1]","[-0.1246804488774392,-0.036552185427037164]","[-1,-1,-1]","[0.17126088134257614,-0.014552510628150475]","[-1,-1,-1]","[0.06241712726202441,-0.09284489605661689]","[1,1,1]","[-0.04289231965088451,0.08243844771622408]","[-1,-1,-1]","[-0.0929761003722375,-0.15496753166387917]","[1,1,1]","[0.1067882823539579,0.15237763808975904]","[-1,-1,-1]","[0.07884223758085822,0.1836810519787065]","[-1,-1,-1]","[-0.1810102543479741,-0.038417219764798075]","[1,1,1]","[-0.15095256895528444,-0.1271466578916653]","[-1,-1,-1]","[0.18629631856645773,-0.05991515177297305]","[1,1,1]","[0.18207450238542391,0.07905191374294401]","[-1,-1,-1]","[-0.03619460823826163,-0.17303266045835144]","[-1,-1,-1]","[-0.0010118181572232544,-0.06600978520489006]","[1,1,1]","[0.002152523709889329,-0.1170598113041404]","[1,1,1]","[0.02,0.02]",244.7548,0,40,40,120,1,,,,,,,
,,,,,,,60d1e0cc196b3af97639e61a,682f0fca7f8fc3438384ae8c,2025-05-22_13h52.11.002,cuing_paradigm_dot,2024.1.5,Win32,59.52380952,682d573fa47f1360d1451895,,,,,,,,,,,244.7554,245.2544,,,245.505,246.2046,left,,,,,,,,0.6,0.691,,,,,,,245.2544,245.505,246.2046,"[-0.08899565422786782,0.13022908219702112]","[1,1,1]","[-0.019993247437571807,0.0914979610417721]","[-1,-1,-1]","[0.15745654014774108,0.07994903165340395]","[1,1,1]","[0.03243924008624557,-0.15261856885872047]","[1,1,1]","[-0.04306575730796158,-0.07166502498713738]","[-1,-1,-1]","[-0.13528752362930793,-0.05938507368605003]","[-1,-1,-1]","[-0.10094161441795993,-0.09640014645515814]","[-1,-1,-1]","[-0.1887290687573148,0.0006894544706896581]","[1,1,1]","[-0.12821261919478266,-0.13281109206258773]","[1,1,1]","[-0.09282789351356512,-0.17024786781326415]","[-1,-1,-1]","[0.13347532408515186,0.0034937952145591192]","[1,1,1]","[0.0968178158901102,-0.027616873238059524]","[1,1,1]","[0.10576829280599923,0.11551916258470828]","[-1,-1,-1]","[-0.12149282981987808,0.0802548713623503]","[-1,-1,-1]","[0.015694860532277664,-0.012598035199023952]","[1,1,1]","[-0.03165549635938315,0.17655998850301358]","[1,1,1]","[0.12126331708409864,-0.1549819929425883]","[1,1,1]","[-0.06962607208078726,-0.0156170509436139]","[1,1,1]","[0.05255109281987854,0.05027968721403453]","[1,1,1]","[0.10902627115779212,0.05835383308275537]","[1,1,1]","[0.06948234706437748,-0.13469302437153793]","[-1,-1,-1]","[0.1793311878701046,-0.05263970642528306]","[-1,-1,-1]","[0.026313941658465876,-0.09426975748873226]","[-1,-1,-1]","[-0.04127830394251428,-0.17993228041282844]","[1,1,1]","[-0.00046049119405023464,-0.06332346580763355]","[1,1,1]","[0.18055924100891643,-0.010719713724844277]","[-1,-1,-1]","[0.10549912637828698,-0.10498366370497682]","[1,1,1]","[0.053192971349652965,-0.05778982257119326]","[1,1,1]","[0.008923355574732205,0.1569607076810085]","[1,1,1]","[-0.06258859357372919,-0.14174594260990653]","[-1,-1,-1]","[-0.15252547556818793,0.1250164427596096]","[-1,-1,-1]","[-0.016286906483091286,-0.10377631473915333]","[1,1,1]","[0.02,0.02]",247.3041,0,41,41,154,1,,,,,,,
,,,,,,,60d1e0cc196b3af97639e61a,682f0fca7f8fc3438384ae8c,2025-05-22_13h52.11.002,cuing_paradigm_dot,2024.1.5,Win32,59.52380952,682d573fa47f1360d1451895,,,,,,,,,,,247.3044,247.8041,,,248.0546,248.6372,left,,,,,,,,0.6,0.5671,,,,,,,247.8041,248.0546,248.6372,"[0.0658131913702002,-0.08288283252174418]","[1,1,1]","[-0.10381068500397882,-0.16548338329700052]","[1,1,1]","[0.028498137877840012,0.17284964090997415]","[1,1,1]","[-0.09916139344399609,-0.04310010452966493]","[1,1,1]","[0.12203525260693494,0.015321070250805565]","[1,1,1]","[-0.16097162518484084,0.09836516997753636]","[1,1,1]","[0.012887540502793431,0.11793937312547152]","[1,1,1]","[-0.060234640350534496,0.09403521061767582]","[-1,-1,-1]","[-0.04079564462938776,0.04928924012831021]","[-1,-1,-1]","[-0.19558859695504455,-0.01094654877218495]","[-1,-1,-1]","[0.06650713111185012,0.1332849795520162]","[1,1,1]","[0.05679231887742381,-0.041994523836471474]","[1,1,1]","[0.10679290320461904,0.15707211864796275]","[-1,-1,-1]","[-0.08744106628340731,0.13057034166770026]","[1,1,1]","[-0.02690900994350139,0.19396486380635636]","[1,1,1]","[-0.1455363294091279,-0.12106048650369555]","[-1,-1,-1]","[-0.013467760526647997,-0.008356708904554767]","[1,1,1]","[-0.03882586257144155,-0.14296985590372488]","[-1,-1,-1]","[0.006310209204735924,-0.1549830746882054]","[1,1,1]","[-0.021299801225260616,-0.09693529013702248]","[-1,-1,-1]","[-0.1525498598650635,0.02062562520378262]","[1,1,1]","[0.12120312707434498,0.11167500183988531]","[-1,-1,-1]","[0.07329598647708276,-0.15437156279835704]","[-1,-1,-1]","[-0.07023455239468601,-0.07966259203558466]","[1,1,1]","[0.0674724286609165,0.049143904241932684]","[-1,-1,-1]","[-0.17096994471232183,-0.04666913439661804]","[-1,-1,-1]","[0.034497714902932214,-0.11624141956499728]","[-1,-1,-1]","[0.1730714320881368,-0.018368288800493588]","[1,1,1]","[-0.18843674048069034,0.04297589985593768]","[-1,-1,-1]","[-0.03991024389388202,0.1382398577942472]","[1,1,1]","[0.11801543687366942,-0.14186800361106744]","[1,1,1]","[0.17325970980348865,0.039452562270904795]","[1,1,1]","[0.02,0.02]",249.7372,0,42,42,178,1,,,,,,,
,,,,,,,60d1e0cc196b3af97639e61a,682f0fca7f8fc3438384ae8c,2025-05-22_13h52.11.002,cuing_paradigm_dot,2024.1.5,Win32,59.52380952,682d573fa47f1360d1451895,,,,,,,,,,,249.7375,250.2373,,,250.4879,250.9372,left,,,,,,,,0.55,0.4329,,,,,,,250.2373,250.4879,250.9372,"[-0.18117737391942726,-0.05152121778578229]","[1,1,1]","[0.0017077370660201793,-0.07470513842446844]","[-1,-1,-1]","[0.15831980051841432,0.05954418960887556]","[-1,-1,-1]","[0.03670924638090014,0.07818899764078627]","[1,1,1]","[-0.09578038955904551,0.08683235234343904]","[-1,-1,-1]","[-0.14728586171748137,0.027585553477606998]","[1,1,1]","[0.1261535759125734,-0.06122143519048949]","[1,1,1]","[0.1014434739676309,0.1297676957911766]","[1,1,1]","[-0.14869645107701587,0.07621627655093846]","[-1,-1,-1]","[0.0019389827564960825,0.15977881690538495]","[1,1,1]","[0.0810097752303005,-0.11114674241869299]","[-1,-1,-1]","[-0.049087887462148566,-0.15288040049750853]","[-1,-1,-1]","[-0.06198383254879359,-0.07514111637552123]","[1,1,1]","[-0.19937009878029574,0.006078003628134366]","[-1,-1,-1]","[0.07581879994853916,-0.15294720055820413]","[1,1,1]","[-0.07183849799544584,0.12302592833681215]","[-1,-1,-1]","[0.06403394976874122,0.11136922574059625]","[1,1,1]","[-0.09763907765790819,-0.1379652994663452]","[1,1,1]","[-0.12139052247204542,0.14875737020825452]","[1,1,1]","[-0.13637693660503625,-0.04514331928423457]","[-1,-1,-1]","[0.0734187796745664,0.005424854922009459]","[1,1,1]","[-0.0016596488877322613,-0.008590550080213706]","[1,1,1]","[-0.0036758177343601374,-0.16040351746147546]","[-1,-1,-1]","[-0.07121287861121979,0.00646524723813914]","[1,1,1]","[-0.13825060701528957,-0.10364693927311737]","[1,1,1]","[0.12092317536362396,-0.012094150595385258]","[-1,-1,-1]","[0.16812156695122937,-0.0032749370659269235]","[-1,-1,-1]","[-0.029662386090196315,0.11343143016304946]","[1,1,1]","[0.18957175517509925,-0.04901450367601994]","[1,1,1]","[-0.06936036427510056,0.16474441967730066]","[-1,-1,-1]","[0.058108588030755734,0.16926028563599654]","[1,1,1]","[0.15195410891658448,-0.10163903217237874]","[-1,-1,-1]","[0.02,0.02]",252.0371,0,43,43,131,1,,,,,,,
,,,,,,,60d1e0cc196b3af97639e61a,682f0fca7f8fc3438384ae8c,2025-05-22_13h52.11.002,cuing_paradigm_dot,2024.1.5,Win32,59.52380952,682d573fa47f1360d1451895,,,,,,,,,,,252.0374,252.5372,,,252.7878,253.788,right,,,,,,,,0.4,0.9844,,,,,,,252.5373,252.7877,253.7881,"[-0.16073617776593618,-0.11459215182251245]","[-1,-1,-1]","[-0.06501586500860422,-0.1846506454736287]","[-1,-1,-1]","[-0.14627868564107108,0.12362481615485428]","[1,1,1]","[0.08913389180428914,-0.1387221418042312]","[1,1,1]","[-0.119585574633412,-0.008462901315342178]","[1,1,1]","[0.1480681398093021,0.1098165799330263]","[-1,-1,-1]","[-0.020257491326365167,-0.14248407145609573]","[-1,-1,-1]","[0.012419848525091207,-0.05566685408854946]","[1,1,1]","[0.1240743523069727,-0.020970259507541278]","[-1,-1,-1]","[0.05565151897731628,0.017267265586604477]","[-1,-1,-1]","[-0.006896319309473502,0.12690048494356296]","[1,1,1]","[-0.016037199243338806,0.07175491949247592]","[-1,-1,-1]","[-0.05356188723996769,0.12235079573409625]","[-1,-1,-1]","[0.05341678200280847,0.15225628101622385]","[-1,-1,-1]","[-0.08705145130194582,-0.08846543509135506]","[-1,-1,-1]","[0.18335708842121065,-0.0693202991385495]","[-1,-1,-1]","[0.13554724050218553,0.059038809247567645]","[-1,-1,-1]","[0.07326639229184385,-0.09397482458464326]","[-1,-1,-1]","[0.006149316525723697,-0.11063813404401261]","[-1,-1,-1]","[-0.04124974034671383,-0.08386758047812529]","[-1,-1,-1]","[0.1067631484305839,0.12444916840699272]","[-1,-1,-1]","[0.06771916936757252,0.09382631059139108]","[1,1,1]","[0.1210900928677777,-0.106279248225407]","[1,1,1]","[-0.17100265372248935,-0.027632457894022064]","[1,1,1]","[-0.09477548874009052,0.10185597996249104]","[1,1,1]","[-0.06081272132904842,-0.038797015721807354]","[1,1,1]","[-0.0639789354803799,0.04137080646768294]","[1,1,1]","[0.17700163795219484,0.008565634303390052]","[-1,-1,-1]","[0.015657114512066802,0.19127906872272407]","[1,1,1]","[0.04801471733797908,-0.1455036846302131]","[-1,-1,-1]","[0.07223495331310745,-0.02754100473032521]","[1,1,1]","[-0.02693210124582524,0.18287178286708125]","[-1,-1,-1]","[0.02,0.02]",254.8881,0,44,44,58,1,,,,,,,
