right,left,explain.started,explain.stopped,key_resp_3.keys,key_resp_3.rt,key_resp_3.duration,participant,session,date,expName,psychopyVersion,OS,frameRate,study_id,explain_2.started,explain_2.stopped,key_resp_4.keys,key_resp_4.rt,key_resp_4.duration,explain_3.started,explain_3.stopped,key_resp_5.keys,key_resp_5.rt,key_resp_5.duration,fixation.started,fixation.stopped,practice.started,practice.stopped,response.started,response.stopped,key_resp.keys,key_resp.rt,key_resp.duration,feedback.started,feedback.stopped,trials_2.thisRepN,trials_2.thisTrialN,trials_2.thisN,trials_2.thisIndex,trials_2.ran,white_ratio,explain_4.started,explain_4.stopped,key_resp_6.keys,key_resp_6.rt,key_resp_6.duration,dotDisplay.started,dotDisplay.stopped,ITI.started,polygon_1.pos,polygon_1.color,polygon_2.pos,polygon_2.color,polygon_3.pos,polygon_3.color,polygon_4.pos,polygon_4.color,polygon_5.pos,polygon_5.color,polygon_6.pos,polygon_6.color,polygon_7.pos,polygon_7.color,polygon_8.pos,polygon_8.color,polygon_9.pos,polygon_9.color,polygon_10.pos,polygon_10.color,polygon_11.pos,polygon_11.color,polygon_12.pos,polygon_12.color,polygon_13.pos,polygon_13.color,polygon_14.pos,polygon_14.color,polygon_15.pos,polygon_15.color,polygon_16.pos,polygon_16.color,polygon_17.pos,polygon_17.color,polygon_18.pos,polygon_18.color,polygon_19.pos,polygon_19.color,polygon_20.pos,polygon_20.color,polygon_21.pos,polygon_21.color,polygon_22.pos,polygon_22.color,polygon_23.pos,polygon_23.color,polygon_24.pos,polygon_24.color,polygon_25.pos,polygon_25.color,polygon_26.pos,polygon_26.color,polygon_27.pos,polygon_27.color,polygon_28.pos,polygon_28.color,polygon_29.pos,polygon_29.color,polygon_30.pos,polygon_30.color,polygon_31.pos,polygon_31.color,polygon_32.pos,polygon_32.color,dot_size,ITI.stopped,trials.thisRepN,trials.thisTrialN,trials.thisN,trials.thisIndex,trials.ran,break_2.started,break_2.stopped,trials_3.thisRepN,trials_3.thisTrialN,trials_3.thisN,trials_3.thisIndex,trials_3.ran
subject chose black,subject chose white,0.0003,356.4966,space,341.4709,,60e858204e148e07ef3ef257,682f0fbe5366b8c193d3c329,2025-05-22_14h51.45.560,cuing_paradigm_dot,2024.1.5,Win32,59.88023952,682d573fa47f1360d1451895,,,,,,,,,,,,,,,,,,,,,,,,,,,,,,,,,,,,,,,,,,,,,,,,,,,,,,,,,,,,,,,,,,,,,,,,,,,,,,,,,,,,,,,,,,,,,,,,,,,,,,,,,,,,,,,,,
,,,,,,,60e858204e148e07ef3ef257,682f0fbe5366b8c193d3c329,2025-05-22_14h51.45.560,cuing_paradigm_dot,2024.1.5,Win32,59.88023952,682d573fa47f1360d1451895,356.4983,390.1119,space,3.5907,,,,,,,,,,,,,,,,,,,,,,,,,,,,,,,,,,,,,,,,,,,,,,,,,,,,,,,,,,,,,,,,,,,,,,,,,,,,,,,,,,,,,,,,,,,,,,,,,,,,,,,,,,,,,
,,,,,,,60e858204e148e07ef3ef257,682f0fbe5366b8c193d3c329,2025-05-22_14h51.45.560,cuing_paradigm_dot,2024.1.5,Win32,59.88023952,682d573fa47f1360d1451895,,,,,,390.1127,401.5351,space,8.4075,,,,,,,,,,,,,,,,,,,,,,,,,,,,,,,,,,,,,,,,,,,,,,,,,,,,,,,,,,,,,,,,,,,,,,,,,,,,,,,,,,,,,,,,,,,,,,,,,,,,,,,,
,,,,,,,60e858204e148e07ef3ef257,682f0fbe5366b8c193d3c329,2025-05-22_14h51.45.560,cuing_paradigm_dot,2024.1.5,Win32,59.88023952,682d573fa47f1360d1451895,,,,,,,,,,,401.5976,402.0408,402.041,402.2921,402.2925,402.8611,right,0.5246,,402.8618,403.959,0,0,0,1,1,0.2,,,,,,,,,,,,,,,,,,,,,,,,,,,,,,,,,,,,,,,,,,,,,,,,,,,,,,,,,,,,,,,,,,,,,,,,,,,,,,,,,,,,,,
,,,,,,,60e858204e148e07ef3ef257,682f0fbe5366b8c193d3c329,2025-05-22_14h51.45.560,cuing_paradigm_dot,2024.1.5,Win32,59.88023952,682d573fa47f1360d1451895,,,,,,,,,,,403.9617,404.4574,404.4577,404.6985,404.6986,405.0107,left,0.2926,,405.0115,406.1093,0,1,1,0,1,0.8,,,,,,,,,,,,,,,,,,,,,,,,,,,,,,,,,,,,,,,,,,,,,,,,,,,,,,,,,,,,,,,,,,,,,,,,,,,,,,,,,,,,,,
,,,,,,,60e858204e148e07ef3ef257,682f0fbe5366b8c193d3c329,2025-05-22_14h51.45.560,cuing_paradigm_dot,2024.1.5,Win32,59.88023952,682d573fa47f1360d1451895,,,,,,,,,,,,,,,,,,,,,,,,,,,,406.1113,422.1117,space,12.9747,,,,,,,,,,,,,,,,,,,,,,,,,,,,,,,,,,,,,,,,,,,,,,,,,,,,,,,,,,,,,,,,,,,,,,,,,,,,,,,,,,
,,,,,,,60e858204e148e07ef3ef257,682f0fbe5366b8c193d3c329,2025-05-22_14h51.45.560,cuing_paradigm_dot,2024.1.5,Win32,59.88023952,682d573fa47f1360d1451895,,,,,,,,,,,422.1511,422.6252,,,422.8761,423.1587,left,0.2688,,,,,,,,,0.1,,,,,,422.6273,422.8759,423.1608,"[0.0137796471054531,0.07213342270833303]","[-1,-1,-1]","[0.11491108261265424,-0.03520213094945595]","[-1,-1,-1]","[0.13335725555734385,0.12045272403713224]","[-1,-1,-1]","[-0.07449403159363527,-0.11038418902985928]","[-1,-1,-1]","[0.0991301012117308,-0.07696397425357775]","[-1,-1,-1]","[0.18673734328535538,-0.049188233629180504]","[1,1,1]","[-0.13334736236839076,-0.1429986659639899]","[-1,-1,-1]","[-0.08617375077642779,0.16366281768969573]","[-1,-1,-1]","[0.004744809111660047,0.02254386619686275]","[-1,-1,-1]","[-0.1180473514180012,-0.06283547231570194]","[-1,-1,-1]","[0.08613295953740822,-0.15629102325857333]","[1,1,1]","[-0.16455993506699876,0.007104419039250996]","[-1,-1,-1]","[-0.02766181329038477,0.18992275524119545]","[-1,-1,-1]","[0.005204648944440531,-0.1386474586256745]","[-1,-1,-1]","[0.03261754953328874,0.16409144677805576]","[-1,-1,-1]","[0.1300967479035101,0.010035288316452666]","[-1,-1,-1]","[0.0021013596443462076,0.12662672122764088]","[-1,-1,-1]","[0.025637906258362014,-0.17566296641083912]","[-1,-1,-1]","[-0.12683454839036096,0.10557908434841173]","[-1,-1,-1]","[-0.03795682416980119,-0.0168440056545817]","[-1,-1,-1]","[-0.04412261223554267,0.13067684017884093]","[-1,-1,-1]","[-0.10603334536385757,-0.019910336664318493]","[-1,-1,-1]","[0.07004450839403618,0.11489736278333702]","[-1,-1,-1]","[0.1680236045867917,-0.08858010942018367]","[-1,-1,-1]","[-0.07986164427446421,0.06750927410918167]","[-1,-1,-1]","[0.04507682510719925,-0.08374900710250244]","[-1,-1,-1]","[-0.050408060501655895,-0.06561302702785299]","[-1,-1,-1]","[0.12488307535356333,-0.12665840152875688]","[-1,-1,-1]","[0.12415485974622961,0.06779997372308529]","[-1,-1,-1]","[0.10966590450084884,0.15756775335636827]","[-1,-1,-1]","[-0.006829248156033063,-0.05418366660403123]","[-1,-1,-1]","[-0.03945870362134538,-0.17046219564130544]","[1,1,1]","[0.02,0.02]",424.2582,0,0,0,7,1,,,,,,,
,,,,,,,60e858204e148e07ef3ef257,682f0fbe5366b8c193d3c329,2025-05-22_14h51.45.560,cuing_paradigm_dot,2024.1.5,Win32,59.88023952,682d573fa47f1360d1451895,,,,,,,,,,,424.2594,424.7574,,,424.9966,425.2761,right,0.254,,,,,,,,,0.1,,,,,,424.7574,424.9965,425.2764,"[-0.1443116370504862,-0.07159533813001133]","[-1,-1,-1]","[-0.1452794141465537,-0.01316713396136969]","[1,1,1]","[0.18641456388065375,-0.04905071282321479]","[-1,-1,-1]","[-0.02493726069088909,0.12292991348759744]","[-1,-1,-1]","[-0.10281334044168854,-0.04581356265092269]","[-1,-1,-1]","[0.1604897952250673,-0.10916660969202208]","[-1,-1,-1]","[0.08419735413383642,-0.11744021302814434]","[-1,-1,-1]","[0.14931659700641625,0.06799712169718757]","[-1,-1,-1]","[-0.08214676206614131,-0.11524403854795395]","[1,1,1]","[-0.018171334037799733,-0.08117680334268428]","[-1,-1,-1]","[0.009866582149230458,0.1797170023779344]","[-1,-1,-1]","[0.0636939693360798,-0.04728401786282809]","[-1,-1,-1]","[-0.12944127404636538,0.08096840690177508]","[-1,-1,-1]","[0.1751396105080374,0.008525138469969894]","[-1,-1,-1]","[-0.07678067073734895,-0.006565820415841568]","[-1,-1,-1]","[0.09936861638114351,0.053516582994800145]","[-1,-1,-1]","[-0.030742785027104088,0.02763796297789025]","[1,1,1]","[-0.01013898257953815,-0.012382496904444788]","[-1,-1,-1]","[-0.08196483634540368,0.13254380590577178]","[-1,-1,-1]","[-0.1957556432256648,-0.009300601282748606]","[-1,-1,-1]","[0.03450341274122932,-0.10496464551470544]","[-1,-1,-1]","[-0.030634647739998945,-0.17088706965942013]","[-1,-1,-1]","[-0.11894560647943342,-0.14157659010234783]","[-1,-1,-1]","[0.02950323003460842,0.005866205460805598]","[-1,-1,-1]","[0.048038851184572,0.09746027682176525]","[-1,-1,-1]","[-0.13743177861065894,0.02770577333595183]","[-1,-1,-1]","[0.00992571984727356,-0.1384884387764405]","[-1,-1,-1]","[0.1089268283748412,-0.1521459521549561]","[-1,-1,-1]","[0.06987650869098079,0.1754308183928609]","[-1,-1,-1]","[0.022149824756857776,0.05118923717699755]","[-1,-1,-1]","[0.028807710235586557,-0.17890408384839215]","[-1,-1,-1]","[-0.1141713477539383,0.15660859636983812]","[-1,-1,-1]","[0.02,0.02]",426.3748,0,1,1,14,1,,,,,,,
,,,,,,,60e858204e148e07ef3ef257,682f0fbe5366b8c193d3c329,2025-05-22_14h51.45.560,cuing_paradigm_dot,2024.1.5,Win32,59.88023952,682d573fa47f1360d1451895,,,,,,,,,,,426.3767,426.8745,,,427.1149,427.3783,left,0.2465,,,,,,,,,0.6,,,,,,426.8747,427.1148,427.3785,"[-0.032396074518509795,-0.14159254273379343]","[1,1,1]","[-0.09071846502109063,-0.15533818231077126]","[1,1,1]","[0.09255870135585767,-0.10496471168972155]","[1,1,1]","[-0.17896945887799812,0.0031322206680041045]","[-1,-1,-1]","[0.15277012650115337,-0.09342454845544232]","[-1,-1,-1]","[0.1483601244788603,-0.025100783530295333]","[1,1,1]","[-0.11816864450453551,-0.041002248801979106]","[1,1,1]","[-0.11029018673369435,0.1028872539768983]","[1,1,1]","[-0.04723543717824355,0.07680505560940146]","[1,1,1]","[0.051320750448054994,0.05446029500665495]","[-1,-1,-1]","[-0.1271561397183169,0.1535248532372837]","[-1,-1,-1]","[0.12594158660083493,0.07976217285131627]","[-1,-1,-1]","[-0.07553601926009615,0.15118911565533255]","[1,1,1]","[0.11955413566639513,0.13505799302397148]","[1,1,1]","[-0.03891894327172193,0.19259474778847355]","[1,1,1]","[-0.14382708101151898,-0.13540109708209846]","[-1,-1,-1]","[0.058081005822046575,0.13123686794040845]","[1,1,1]","[0.10216061746616238,-0.04468704026862549]","[1,1,1]","[-0.07501962828548953,-0.012548161006597806]","[1,1,1]","[-0.03496924863854644,0.14892854000695446]","[1,1,1]","[-0.013999608067824574,-0.007153907990694303]","[-1,-1,-1]","[-0.014789557988440132,-0.06965418355742359]","[-1,-1,-1]","[0.16943434078262784,0.05680670930565167]","[1,1,1]","[-0.16806599102288952,0.07967195187873291]","[-1,-1,-1]","[-0.015906780218008457,-0.1790574562004187]","[-1,-1,-1]","[0.18605228961457432,-0.06707919655224587]","[1,1,1]","[-0.17536853530460061,-0.05016142441589657]","[1,1,1]","[0.002034223622094722,0.09953603076513168]","[1,1,1]","[-0.005582808661860168,0.043230560712043495]","[-1,-1,-1]","[0.06002221027283352,0.17344418970688266]","[-1,-1,-1]","[-0.13099217218327888,0.023090705184281062]","[1,1,1]","[-0.06626497490401895,0.03418694574211693]","[-1,-1,-1]","[0.02,0.02]",428.4751,0,2,2,153,1,,,,,,,
,,,,,,,60e858204e148e07ef3ef257,682f0fbe5366b8c193d3c329,2025-05-22_14h51.45.560,cuing_paradigm_dot,2024.1.5,Win32,59.88023952,682d573fa47f1360d1451895,,,,,,,,,,,428.4772,428.9745,,,429.2255,429.5907,left,0.3488,,,,,,,,,0.5,,,,,,428.9746,429.2255,429.5907,"[-0.024570048668643315,0.10103439128081182]","[-1,-1,-1]","[0.016555418161079836,0.10052650070808208]","[1,1,1]","[-0.13992897022076028,-0.11156641548766773]","[-1,-1,-1]","[0.021066031132207372,0.16779806227866007]","[1,1,1]","[0.03652284828339647,-0.001904029245904308]","[-1,-1,-1]","[-0.10825492248914498,0.0340949933852059]","[-1,-1,-1]","[-0.051504132189949786,0.017256967219141953]","[1,1,1]","[-0.08869303622837664,0.08221601115964526]","[-1,-1,-1]","[0.038736691522649525,-0.16854360176681296]","[1,1,1]","[0.06422355271421987,0.07767007221676389]","[1,1,1]","[0.14330173166083676,0.024831226215070706]","[1,1,1]","[0.15063132986025057,-0.06762275049958755]","[1,1,1]","[0.16048738778858554,0.10556931017625132]","[-1,-1,-1]","[0.08370040082812236,0.005329690910660857]","[-1,-1,-1]","[0.051886111381445575,0.14228078075664682]","[1,1,1]","[-0.0017636328649445186,0.026859709538921053]","[1,1,1]","[-0.14469635188882468,0.05384824047656598]","[1,1,1]","[-0.07886169053414045,-0.07170574506800721]","[-1,-1,-1]","[0.11010110464977786,-0.12557586298239937]","[1,1,1]","[-0.06827944890342856,0.15744293711304105]","[-1,-1,-1]","[-0.0016253118677866248,-0.07943992547113947]","[1,1,1]","[-0.1385334137033386,-0.03496393629111146]","[1,1,1]","[-0.04715444342614203,0.06574128783116884]","[-1,-1,-1]","[0.1048060428748819,0.15653773707054586]","[1,1,1]","[0.014285912799547277,-0.12590520067344024]","[1,1,1]","[-0.0675220324225533,-0.1466967229705863]","[-1,-1,-1]","[-0.07307312934782922,-0.020900792801276828]","[-1,-1,-1]","[0.09342375830482849,-0.03777576396369127]","[-1,-1,-1]","[0.0777178493490987,-0.09911825505396275]","[-1,-1,-1]","[-0.021883209427799095,0.1919110624970101]","[-1,-1,-1]","[0.04480100673537981,-0.06379236215888663]","[1,1,1]","[-0.16322500585985109,-0.07632337623308837]","[-1,-1,-1]","[0.02,0.02]",430.6912,0,3,3,104,1,,,,,,,
,,,,,,,60e858204e148e07ef3ef257,682f0fbe5366b8c193d3c329,2025-05-22_14h51.45.560,cuing_paradigm_dot,2024.1.5,Win32,59.88023952,682d573fa47f1360d1451895,,,,,,,,,,,430.692,431.1909,,,431.4417,431.8258,left,0.3727,,,,,,,,,0.5,,,,,,431.191,431.4417,431.826,"[-0.018743006092105538,-0.1388895899724249]","[1,1,1]","[0.06253663493041187,0.13649934783759562]","[1,1,1]","[0.0355093790267838,-0.0719701596324889]","[-1,-1,-1]","[-0.07289649855219661,0.12317840762041372]","[-1,-1,-1]","[0.026665958421708776,0.10260871610799525]","[1,1,1]","[-0.04738868456082773,0.1788091653884985]","[-1,-1,-1]","[-0.045999893928300166,-0.07032783926350185]","[1,1,1]","[0.11565422701041056,0.158875942226169]","[-1,-1,-1]","[0.04855563702088746,0.18578465966198668]","[-1,-1,-1]","[0.10780507122065991,0.08981475476971947]","[1,1,1]","[-0.1990185527516775,0.018849063813827498]","[1,1,1]","[-0.012637013303188395,-0.18373712759443034]","[-1,-1,-1]","[0.19679435450800775,0.0096129613307282]","[1,1,1]","[-0.09696634049961962,0.056596769399161036]","[-1,-1,-1]","[0.11521154249884778,0.02529021985214093]","[1,1,1]","[-0.09299793916647993,-0.13876643862662583]","[-1,-1,-1]","[-0.1290728810654713,-0.006186506416381794]","[-1,-1,-1]","[-0.17274385516946075,-0.07822763379706903]","[1,1,1]","[0.03190759241336064,0.044110827329982054]","[-1,-1,-1]","[-0.15317932038513365,0.06190014917397868]","[-1,-1,-1]","[-0.03226550960860874,-0.0021938171173630856]","[1,1,1]","[0.05469492136091452,0.002827271709822541]","[1,1,1]","[-0.023244827023537522,0.07215628068544033]","[1,1,1]","[0.11764858131821979,-0.054030406461999046]","[-1,-1,-1]","[0.07711870533286841,-0.0865898354692924]","[1,1,1]","[0.1468915920942506,0.11500751000611235]","[-1,-1,-1]","[-0.14172823932288617,0.13365498525316022]","[-1,-1,-1]","[-0.11925676219882905,-0.06360408462560528]","[1,1,1]","[0.1945525949674865,-0.032344614184812215]","[1,1,1]","[0.006001106377947307,0.18217352330297348]","[-1,-1,-1]","[0.010965097280822093,-0.004321082057763549]","[1,1,1]","[-0.16219178939957699,-0.037094556974359504]","[-1,-1,-1]","[0.02,0.02]",432.9247,0,4,4,118,1,,,,,,,
,,,,,,,60e858204e148e07ef3ef257,682f0fbe5366b8c193d3c329,2025-05-22_14h51.45.560,cuing_paradigm_dot,2024.1.5,Win32,59.88023952,682d573fa47f1360d1451895,,,,,,,,,,,432.9258,433.4246,,,433.6757,433.9426,right,0.2515,,,,,,,,,0.4,,,,,,433.4247,433.6756,433.943,"[-0.018909414962770436,0.12843173410779066]","[1,1,1]","[-0.15396973418546414,0.07421273117929035]","[1,1,1]","[0.06860505014228926,0.08304037614197964]","[1,1,1]","[0.009839105333281532,0.18317805380808402]","[-1,-1,-1]","[0.1351137526784319,-0.025157177700015205]","[-1,-1,-1]","[-0.00819081163949438,-0.12511908056069168]","[-1,-1,-1]","[-0.10687403806284668,0.013268494370516372]","[1,1,1]","[-0.07151897093829643,-0.04701580955458374]","[-1,-1,-1]","[-0.1085496639115912,-0.027901290896752112]","[-1,-1,-1]","[0.12358374878590385,0.13286535376541517]","[1,1,1]","[-0.05245147094196092,0.06241348893503096]","[-1,-1,-1]","[-0.005190725712374164,0.07373282406345616]","[1,1,1]","[-0.16287467471661654,-0.09798370923832972]","[1,1,1]","[-0.14279965240138687,0.12431398197368818]","[1,1,1]","[0.03215563011897682,0.04732678699354416]","[-1,-1,-1]","[0.08830995508550611,-0.09186184200646619]","[-1,-1,-1]","[0.037049272040783086,-0.12987470845616841]","[1,1,1]","[0.011242800235906387,-0.08536488798370423]","[1,1,1]","[-0.08630780320283413,-0.08677168219506558]","[-1,-1,-1]","[-0.03877383846043473,-0.0017948797611161988]","[-1,-1,-1]","[0.1766269338182739,0.012890951681148819]","[1,1,1]","[0.08515861060647528,0.16677471938103852]","[-1,-1,-1]","[0.058157624075388485,-0.17968860092109698]","[-1,-1,-1]","[0.02876997626049932,0.11894096985146357]","[-1,-1,-1]","[0.138483967782295,0.06441008519701828]","[1,1,1]","[-0.027276929788196826,-0.1637737497576791]","[-1,-1,-1]","[-0.028173952819634397,-0.0694302823778103]","[-1,-1,-1]","[0.18646189793212822,-0.036215206807649586]","[-1,-1,-1]","[-0.03253087325630182,0.18603172129357112]","[1,1,1]","[0.1365264356822791,-0.10071603053460479]","[-1,-1,-1]","[-0.08078996069671024,0.09334793047394732]","[-1,-1,-1]","[0.10732129424290687,-0.14217266028581294]","[-1,-1,-1]","[0.02,0.02]",435.041,0,5,5,33,1,,,,,,,
,,,,,,,60e858204e148e07ef3ef257,682f0fbe5366b8c193d3c329,2025-05-22_14h51.45.560,cuing_paradigm_dot,2024.1.5,Win32,59.88023952,682d573fa47f1360d1451895,,,,,,,,,,,435.0418,435.541,,,435.781,436.043,left,0.2374,,,,,,,,,0.9,,,,,,435.5411,435.7808,436.0433,"[0.015564680901445787,-0.00929360141348354]","[1,1,1]","[-0.18141534964951028,-0.007351292783884463]","[1,1,1]","[-0.04732139855696546,-0.15575732012379603]","[1,1,1]","[-0.004206977462090401,0.04608683984858903]","[1,1,1]","[-0.10938262737212487,-0.06096430442593712]","[1,1,1]","[0.03786988765183624,-0.19239436861816245]","[1,1,1]","[0.07197195729669179,0.16574819104929292]","[-1,-1,-1]","[0.13587386816301805,0.01847132987308226]","[1,1,1]","[-0.10032324294609743,0.06345298735974032]","[1,1,1]","[-0.04687549633015808,0.11763915013918934]","[1,1,1]","[-0.055823821533347355,0.158082347454383]","[1,1,1]","[-0.11856249094104704,0.1491052318679374]","[-1,-1,-1]","[-0.05583335686729028,-0.07127320727890839]","[1,1,1]","[0.05756039847607859,-0.1512559023761928]","[-1,-1,-1]","[-0.035258768158436156,-0.010003090998023613]","[1,1,1]","[0.12866988859088987,-0.13590784901772052]","[1,1,1]","[0.08218675304013055,0.12586006589848575]","[1,1,1]","[-0.18373365367485564,-0.06971989613450941]","[1,1,1]","[0.034972631900278155,-0.09253613170771384]","[1,1,1]","[0.051423264450441895,0.060306118459767036]","[1,1,1]","[-0.10537573266566065,-0.1650402755213296]","[1,1,1]","[0.16498771135693654,0.08232953616821055]","[1,1,1]","[0.11574287948902685,-0.02909983305555283]","[1,1,1]","[0.08018460205615564,-0.05536170309696109]","[1,1,1]","[-0.1424123348703958,-0.03804103083287083]","[1,1,1]","[-0.07437550123351065,0.011311211708972908]","[1,1,1]","[-0.112997436553,-0.10996854841097842]","[1,1,1]","[-0.16929077993597635,0.0419272208470073]","[1,1,1]","[0.11701119587350378,0.05712288692309107]","[1,1,1]","[0.01464696878693497,0.11625019319807987]","[1,1,1]","[0.001193067774492923,-0.15382170252462568]","[1,1,1]","[0.12257862128712405,0.11474607904458381]","[1,1,1]","[0.02,0.02]",437.1406,0,6,6,198,1,,,,,,,
,,,,,,,60e858204e148e07ef3ef257,682f0fbe5366b8c193d3c329,2025-05-22_14h51.45.560,cuing_paradigm_dot,2024.1.5,Win32,59.88023952,682d573fa47f1360d1451895,,,,,,,,,,,437.1415,437.6416,,,437.8914,438.1253,right,0.2196,,,,,,,,,0.45,,,,,,437.6418,437.8913,438.1254,"[0.06694457741718192,-0.17881872533264523]","[-1,-1,-1]","[-0.12306835871581409,-0.034813833195618725]","[-1,-1,-1]","[-0.1396644893129365,-0.12373202927437846]","[-1,-1,-1]","[0.1870435748155148,0.008503018116330663]","[1,1,1]","[-0.13025439511814105,0.017837438808857648]","[-1,-1,-1]","[-0.06499124160565464,0.043488086147667]","[1,1,1]","[-0.001219730050007296,-0.07033861721081087]","[1,1,1]","[-0.027007012352693968,-0.014499544165454988]","[1,1,1]","[0.00716531945119298,-0.14755403634598224]","[-1,-1,-1]","[0.07912069766733958,-0.06591308943251016]","[-1,-1,-1]","[0.10356475118662654,0.005193643191996229]","[1,1,1]","[0.116899931608746,0.05412899368111599]","[-1,-1,-1]","[-0.0911024121787241,0.14247684227249627]","[-1,-1,-1]","[0.14150902633897064,0.12423934576694151]","[-1,-1,-1]","[-0.12764353098529016,0.061653461779398726]","[-1,-1,-1]","[0.18069480981233893,-0.05079276516919186]","[-1,-1,-1]","[-0.08673537586908911,-0.14620631260014766]","[1,1,1]","[0.06373674817145841,0.030366246627998986]","[-1,-1,-1]","[-0.04492184729339492,0.12614292285554554]","[-1,-1,-1]","[0.09608921336143968,0.1460314095252621]","[1,1,1]","[-0.19527591034646938,0.03848686156280373]","[-1,-1,-1]","[-0.03478540574142477,-0.11221060822987068]","[1,1,1]","[0.019755357690084838,0.002185810914293049]","[-1,-1,-1]","[-0.07960040621931404,0.10204287670030956]","[1,1,1]","[0.16494579567687886,-0.1010344690645007]","[1,1,1]","[-0.15962315073513939,-0.07003534360625123]","[-1,-1,-1]","[0.05006429510557702,-0.031990064500961216]","[-1,-1,-1]","[0.028030605046520336,0.09604197270281298]","[1,1,1]","[0.048299728431779335,-0.1427034383470952]","[1,1,1]","[-0.16087471982962442,-0.008492379347481835]","[-1,-1,-1]","[-0.031277108510059604,-0.17403741750526544]","[1,1,1]","[0.012528159874511715,0.05514241541948923]","[1,1,1]","[0.02,0.02]",439.2246,0,7,7,78,1,,,,,,,
,,,,,,,60e858204e148e07ef3ef257,682f0fbe5366b8c193d3c329,2025-05-22_14h51.45.560,cuing_paradigm_dot,2024.1.5,Win32,59.88023952,682d573fa47f1360d1451895,,,,,,,,,,,439.2253,439.7245,,,439.979,440.3074,right,0.3043,,,,,,,,,0.45,,,,,,439.7246,439.9789,440.3077,"[-0.03536193804540792,-0.10055956165811773]","[-1,-1,-1]","[-0.09255760851681016,-0.10497701890882197]","[-1,-1,-1]","[0.05296153754102616,-0.13850588092777305]","[1,1,1]","[0.1805683943949343,-0.015283435746082269]","[-1,-1,-1]","[0.0904235645664969,0.10196027063893288]","[1,1,1]","[-0.09363225946651266,-0.16580993945076908]","[1,1,1]","[0.09559725612021416,-0.0078989321392074]","[1,1,1]","[0.00497335455347137,0.1352911224399932]","[1,1,1]","[-0.10483688294617051,-0.01625486171772884]","[-1,-1,-1]","[-0.13994155244272863,-0.052860529572527445]","[-1,-1,-1]","[-0.1158103214563352,0.0689067579140925]","[1,1,1]","[0.008497225560823413,-0.11040091789173438]","[-1,-1,-1]","[-0.17694894384000595,-0.024710849809549105]","[-1,-1,-1]","[0.06641876209662109,0.14502483137467614]","[-1,-1,-1]","[-0.05825605461474085,-0.038569388920103725]","[1,1,1]","[0.042647297072805096,0.18187895092538675]","[-1,-1,-1]","[-0.11338218332165233,0.13536932354840223]","[-1,-1,-1]","[0.0410943225734997,0.012104294431380763]","[1,1,1]","[0.09949692717882591,-0.051161963453827154]","[1,1,1]","[0.02675233657319504,0.060782017142377145]","[1,1,1]","[0.108367454663998,-0.13969921416076778]","[1,1,1]","[-0.06734196294084689,0.1513090929022268]","[-1,-1,-1]","[0.12181185578375904,0.07405049867732802]","[1,1,1]","[0.04576570048581461,-0.047768641495291767]","[-1,-1,-1]","[0.0021831858469381557,0.0021162323072043627]","[-1,-1,-1]","[0.09769814948350161,0.17177958112732866]","[-1,-1,-1]","[-0.00044492795911963773,-0.18756569601046075]","[1,1,1]","[-0.06902878567719999,0.0690347911021657]","[-1,-1,-1]","[-0.006488678494358142,0.175608667277915]","[-1,-1,-1]","[0.14273331771636089,0.036433826429586]","[-1,-1,-1]","[-0.03321196065193308,0.048209435707512155]","[-1,-1,-1]","[0.13354972285504085,-0.07868687320200562]","[1,1,1]","[0.02,0.02]",441.4084,0,8,8,62,1,,,,,,,
,,,,,,,60e858204e148e07ef3ef257,682f0fbe5366b8c193d3c329,2025-05-22_14h51.45.560,cuing_paradigm_dot,2024.1.5,Win32,59.88023952,682d573fa47f1360d1451895,,,,,,,,,,,441.4101,441.9077,,,442.1487,442.2937,right,0.1199,,,,,,,,,0.55,,,,,,441.9078,442.1486,442.2938,"[-0.08042421093414134,-0.09985014081729902]","[-1,-1,-1]","[0.08901842245330235,-0.019467192586835116]","[1,1,1]","[-0.01003667580531113,-0.1961687356533713]","[1,1,1]","[-0.13289060943136044,-0.11493078853766485]","[-1,-1,-1]","[-0.12238081321665119,0.0737873266390567]","[-1,-1,-1]","[0.16125234333358845,-0.05162631585504139]","[-1,-1,-1]","[-0.09101707988911252,-0.012458140911453626]","[1,1,1]","[0.11029805202477544,0.16215442288290535]","[1,1,1]","[-0.0541028136650265,0.02878688078410064]","[-1,-1,-1]","[-0.12028320962483793,0.1457409431826752]","[1,1,1]","[-0.012479728170758578,-0.14330130208059616]","[-1,-1,-1]","[-0.047273324634615234,0.1889315965364857]","[1,1,1]","[0.1290269929270165,-0.013036016738162131]","[1,1,1]","[0.02411491816618605,-0.0496129129923472]","[1,1,1]","[-0.1280405529775208,0.018780912120242164]","[-1,-1,-1]","[-0.1248894832847306,-0.05863689701183941]","[-1,-1,-1]","[-0.17766241856206802,-0.02270315762693112]","[1,1,1]","[-0.04165705113811116,-0.0800554548955261]","[-1,-1,-1]","[-0.020331378332964434,-0.035040612420210525]","[1,1,1]","[0.1838836942497566,0.07178663112981046]","[1,1,1]","[-0.054611122174257516,-0.13852140934123383]","[-1,-1,-1]","[-0.047710141113489576,0.09520374157821766]","[1,1,1]","[-0.1612594726935463,0.1105689566721359]","[1,1,1]","[-0.06554365943328841,0.13938139862851512]","[1,1,1]","[0.09246332567768495,-0.10663442352948692]","[-1,-1,-1]","[0.07278254992267762,0.023219884002538778]","[1,1,1]","[0.1349928637593597,0.04907205245416779]","[-1,-1,-1]","[0.03233246947255442,0.14660550090233865]","[1,1,1]","[0.03416936303756711,-0.009708848824805787]","[1,1,1]","[0.033946593012715055,-0.1450677406180204]","[-1,-1,-1]","[0.08202420950314869,-0.16852367335962537]","[-1,-1,-1]","[0.1282901210749394,-0.14687739450087917]","[1,1,1]","[0.02,0.02]",443.3909,0,9,9,128,1,,,,,,,
,,,,,,,60e858204e148e07ef3ef257,682f0fbe5366b8c193d3c329,2025-05-22_14h51.45.560,cuing_paradigm_dot,2024.1.5,Win32,59.88023952,682d573fa47f1360d1451895,,,,,,,,,,,443.3922,443.8909,,,444.1321,444.5577,left,0.4018,,,,,,,,,0.55,,,,,,443.8911,444.132,444.5579,"[-0.11246283396141057,-0.04947190453680205]","[-1,-1,-1]","[0.020872816680088363,0.1265965175984351]","[1,1,1]","[0.05972331977129397,-0.12762844900596504]","[-1,-1,-1]","[-0.17162562894148448,0.01975000636494923]","[-1,-1,-1]","[0.16579258156072504,-0.05361695218641507]","[1,1,1]","[-0.02036299159441159,-0.16686694087537898]","[1,1,1]","[0.17105866848776607,0.10086877167315221]","[-1,-1,-1]","[0.0025863175457734736,0.18998954407148091]","[1,1,1]","[0.03464201046218527,-0.18140275137389814]","[1,1,1]","[-0.09452634222512585,0.047444253531477534]","[1,1,1]","[-0.03505391056301012,0.018318181702226318]","[-1,-1,-1]","[-0.059841100490019096,0.13573341815684062]","[1,1,1]","[-0.03464831022045172,-0.10399481271491604]","[-1,-1,-1]","[0.12196820763928304,-0.0477321912601785]","[-1,-1,-1]","[-0.08926343261550794,-0.09617565456113097]","[1,1,1]","[0.031909912694517574,0.08505825869531937]","[-1,-1,-1]","[0.07314108471511578,-0.06603869755421168]","[-1,-1,-1]","[-0.0624793224375197,-0.14010270935497215]","[1,1,1]","[0.182794440228427,0.062192332875325114]","[-1,-1,-1]","[0.15326596433951464,-0.008471278559741245]","[-1,-1,-1]","[-0.11585278248732178,-0.1594112880491104]","[1,1,1]","[-0.000991406380719154,-0.042821295283290435]","[1,1,1]","[0.12707051294838898,-0.09190290294503918]","[1,1,1]","[-0.06481195664839244,0.07798375035143298]","[1,1,1]","[0.07567893092163193,0.1583233717940991]","[1,1,1]","[-0.16119636170920376,0.08511016670906241]","[1,1,1]","[0.12115619482559511,0.054153246553960976]","[1,1,1]","[-0.16889174242170799,-0.03242986628425633]","[1,1,1]","[0.08036364741879191,0.10038018460874279]","[-1,-1,-1]","[-0.011400666298539626,0.07017303077149442]","[1,1,1]","[-0.15623184263971515,-0.07686845132584497]","[-1,-1,-1]","[-0.13577340658839954,0.12087136599320493]","[-1,-1,-1]","[0.02,0.02]",445.658,0,10,10,142,1,,,,,,,
,,,,,,,60e858204e148e07ef3ef257,682f0fbe5366b8c193d3c329,2025-05-22_14h51.45.560,cuing_paradigm_dot,2024.1.5,Win32,59.88023952,682d573fa47f1360d1451895,,,,,,,,,,,445.6601,446.1578,,,446.3975,446.7948,right,0.3808,,,,,,,,,0.45,,,,,,446.1579,446.3975,446.7949,"[-0.0883384496626826,0.028014273502784872]","[-1,-1,-1]","[-0.09860530821236219,-0.11800616359476902]","[-1,-1,-1]","[0.09172457303574098,-0.007281029534806494]","[1,1,1]","[0.14386042139265862,0.1118974311207968]","[1,1,1]","[-0.15704824724780792,0.0808801442307407]","[1,1,1]","[0.047018702808483456,-0.03600173495362104]","[1,1,1]","[0.04995793045679662,0.010302567897583118]","[1,1,1]","[-0.07216455634036438,0.15772840520951822]","[-1,-1,-1]","[-0.03236468278289871,0.19150529355589146]","[1,1,1]","[0.05286471709301244,0.09409506472192321]","[1,1,1]","[-0.0842136103744748,0.09455740207178194]","[-1,-1,-1]","[-0.0019279067848533148,-0.05998175733424185]","[-1,-1,-1]","[0.00773772865586483,-0.13461161704157587]","[1,1,1]","[-0.0336642693792214,-0.19529205977376843]","[-1,-1,-1]","[-0.0007721674209297067,0.09865576675413812]","[-1,-1,-1]","[0.16405015816277152,-0.08739891082057716]","[-1,-1,-1]","[-0.03767535305969225,-0.07877179353326111]","[-1,-1,-1]","[-0.04088727559184876,0.09732366262064543]","[1,1,1]","[-0.04595632212739025,-0.025630879558965203]","[1,1,1]","[-0.11635614809629553,-0.06247613762270933]","[-1,-1,-1]","[0.08789958409430136,-0.12775225684777566]","[1,1,1]","[0.05346013398302897,0.19013013087592662]","[-1,-1,-1]","[-0.12053275031420985,0.12038132218324149]","[1,1,1]","[0.0559861437978991,-0.1735082753338327]","[-1,-1,-1]","[-0.1828829830499012,0.029742532935800942]","[-1,-1,-1]","[0.10777226688819502,0.144636762792848]","[1,1,1]","[0.11403194223803179,-0.07442541129748942]","[-1,-1,-1]","[0.056174845283670366,-0.10291803979490993]","[-1,-1,-1]","[0.16870284708946773,-0.018768072614344492]","[-1,-1,-1]","[-0.028810903204551944,-0.1530644971759246]","[-1,-1,-1]","[0.01322072720125516,0.18527169185759926]","[1,1,1]","[-0.18845815780890735,-0.020569800419165035]","[-1,-1,-1]","[0.02,0.02]",447.8911,0,11,11,75,1,,,,,,,
,,,,,,,60e858204e148e07ef3ef257,682f0fbe5366b8c193d3c329,2025-05-22_14h51.45.560,cuing_paradigm_dot,2024.1.5,Win32,59.88023952,682d573fa47f1360d1451895,,,,,,,,,,,447.8927,448.3912,,,448.6324,448.7772,right,0.1204,,,,,,,,,0.4,,,,,,448.3914,448.6323,448.7773,"[0.03829399577086221,0.16333981028430214]","[-1,-1,-1]","[0.0999192092227044,0.13791708496865362]","[-1,-1,-1]","[0.05611720994221911,-0.05306954301021174]","[-1,-1,-1]","[0.06720829298608078,0.07851081084927704]","[1,1,1]","[-0.005086786651971471,0.19068150038453777]","[1,1,1]","[0.1854200007323806,-0.057510736327832504]","[-1,-1,-1]","[-0.17560642857347494,0.09056004284955917]","[-1,-1,-1]","[-0.08773866730997477,-0.1469187749362761]","[1,1,1]","[-0.050222776246330515,-0.03594688436041104]","[1,1,1]","[0.09253397632987227,0.027340460194464865]","[-1,-1,-1]","[0.024513999925896725,-0.16007885134227243]","[-1,-1,-1]","[0.12391424991562655,-0.04148030403342825]","[-1,-1,-1]","[-0.18467902112185486,0.047413863061943534]","[-1,-1,-1]","[-0.007955259964669139,-0.09612851841484364]","[-1,-1,-1]","[-0.04728368445600619,0.1864903420636845]","[-1,-1,-1]","[-0.14385463762095937,-0.12894514152737946]","[-1,-1,-1]","[0.1501103194462756,-0.12436588703540284]","[1,1,1]","[-0.015554095141274229,-0.13577433873497108]","[-1,-1,-1]","[0.14924581379945945,-0.0817012429480123]","[-1,-1,-1]","[-0.09376366271380232,0.0802264644897373]","[1,1,1]","[0.1847490343440967,0.0016977890158964182]","[-1,-1,-1]","[-0.17016799450490763,-0.08507514727900799]","[1,1,1]","[-0.1932619583415167,-0.02289866420514127]","[1,1,1]","[0.004251728092987734,0.0474126381943289]","[-1,-1,-1]","[0.12706983446500372,0.09596409849100608]","[1,1,1]","[0.1419384018220593,0.039100191921318896]","[-1,-1,-1]","[0.09416556318651399,-0.16238752696988745]","[1,1,1]","[0.01739154167807018,0.11379869270986175]","[1,1,1]","[0.09442846065621736,-0.11764494468768404]","[-1,-1,-1]","[-0.11790014143876106,-0.05366451644695691]","[1,1,1]","[-0.09309955516563066,0.007572768763280175]","[1,1,1]","[0.014758147364053849,-0.0018566939230401632]","[-1,-1,-1]","[0.02,0.02]",449.874,0,12,12,49,1,,,,,,,
,,,,,,,60e858204e148e07ef3ef257,682f0fbe5366b8c193d3c329,2025-05-22_14h51.45.560,cuing_paradigm_dot,2024.1.5,Win32,59.88023952,682d573fa47f1360d1451895,,,,,,,,,,,449.8748,450.3747,,,450.6308,450.9407,left,0.2855,,,,,,,,,0.45,,,,,,450.3749,450.6307,450.9408,"[0.06801840254309463,0.13733448221678365]","[-1,-1,-1]","[-0.06453266555908972,0.08473502755582868]","[-1,-1,-1]","[-0.017203633787712516,0.10450425631345564]","[1,1,1]","[-0.16146988580608687,-0.036652596492494804]","[1,1,1]","[0.13807091728379164,0.09420820707314412]","[-1,-1,-1]","[-0.018560703693287113,-0.10966960073122085]","[-1,-1,-1]","[0.1796256694351552,0.08735951130962323]","[-1,-1,-1]","[0.058378681656983844,0.008492950584621328]","[1,1,1]","[-0.056687654412656927,-0.0792382371089804]","[1,1,1]","[-0.11513427741301306,0.02253893807290785]","[1,1,1]","[0.10739376981894162,-0.1004573569274267]","[-1,-1,-1]","[0.1059849913282622,0.06686688032707891]","[1,1,1]","[-0.118313113557277,0.15715582336864867]","[-1,-1,-1]","[0.12258512218712596,0.022705232522680245]","[-1,-1,-1]","[-0.18581555633921434,-0.0045678324213010045]","[-1,-1,-1]","[-0.15668537943141583,0.03285505088010927]","[1,1,1]","[0.18242274942075254,-0.0691335631849936]","[-1,-1,-1]","[0.16734074897218842,-0.1064203983473757]","[-1,-1,-1]","[0.03055165454596218,-0.176053626796999]","[-1,-1,-1]","[0.10970797356652032,0.14882941199404112]","[1,1,1]","[-0.12623713951718163,0.061654733499852274]","[-1,-1,-1]","[0.1973494107579006,-0.0019301001609467196]","[1,1,1]","[0.04785298362862157,-0.12475712686840078]","[-1,-1,-1]","[0.052700854054559244,-0.04804990790211771]","[-1,-1,-1]","[-0.020106059311714528,-0.040845808974795755]","[1,1,1]","[-0.061623863276657594,0.14350807153142062]","[1,1,1]","[-0.14127204485681585,-0.1140343652425937]","[-1,-1,-1]","[0.03135780014486382,0.04309745030570743]","[1,1,1]","[-0.058320986087998294,-0.12758493224455153]","[1,1,1]","[-0.037062465401032904,0.02887444838758831]","[-1,-1,-1]","[0.011124003838433039,-0.01561835308308729]","[1,1,1]","[-0.020535624938135013,-0.1593293023568119]","[-1,-1,-1]","[0.02,0.02]",452.041,0,13,13,89,1,,,,,,,
,,,,,,,60e858204e148e07ef3ef257,682f0fbe5366b8c193d3c329,2025-05-22_14h51.45.560,cuing_paradigm_dot,2024.1.5,Win32,59.88023952,682d573fa47f1360d1451895,,,,,,,,,,,452.0423,452.5416,,,452.7809,453.093,right,0.2878,,,,,,,,,0.45,,,,,,452.5417,452.7808,453.0933,"[0.13988691511205423,-0.10332449215025324]","[-1,-1,-1]","[0.16650019900497048,-0.003195530505766415]","[-1,-1,-1]","[-0.0543293780996628,0.15553105243698895]","[1,1,1]","[-0.07297616779392639,0.09836475811609187]","[1,1,1]","[-0.009303009401419229,0.02975209702436275]","[1,1,1]","[0.06742123552743598,-0.03197717905945157]","[1,1,1]","[0.1237857992795106,-0.15406423846767967]","[1,1,1]","[-0.1444242679949748,0.08552361496277901]","[1,1,1]","[0.15789495722688363,-0.06546469630888782]","[-1,-1,-1]","[0.0612458177711934,-0.12672413861405876]","[1,1,1]","[-0.11394877478997524,0.05013927415109947]","[1,1,1]","[-0.11033763068695891,-0.1584619569319892]","[-1,-1,-1]","[-0.09202002895102998,0.1756719941728979]","[1,1,1]","[0.09422775652380257,0.08427998011278502]","[-1,-1,-1]","[0.054716551536666796,0.16045668169239038]","[1,1,1]","[-0.11838166931040545,-0.02373975936292947]","[1,1,1]","[0.009712117783340824,-0.053773105869637225]","[1,1,1]","[-0.15988688090284128,0.046150036538977784]","[-1,-1,-1]","[0.1446778366944571,0.12691617067846947]","[-1,-1,-1]","[-0.17781798982695513,-0.040833603389674324]","[1,1,1]","[-0.04880184935941412,-0.0008062744399908597]","[-1,-1,-1]","[-0.004548692541910362,0.1038792773988735]","[-1,-1,-1]","[0.10979316672436307,0.00963468410071464]","[-1,-1,-1]","[-0.08058904080581236,-0.05530850885375353]","[1,1,1]","[-0.130960771850735,-0.11692187251141806]","[-1,-1,-1]","[0.06295218662697993,0.11814276350573158]","[-1,-1,-1]","[0.14024595833271494,0.0633495143166838]","[-1,-1,-1]","[0.03647510159756776,0.02343746613359818]","[-1,-1,-1]","[-0.05900017070229195,-0.12631573045954686]","[-1,-1,-1]","[-0.05921406770618556,0.040902660533375726]","[-1,-1,-1]","[-0.011532614963538457,-0.11588710828067436]","[-1,-1,-1]","[-0.011468813802628285,0.14891936593466704]","[-1,-1,-1]","[0.02,0.02]",454.1915,0,14,14,85,1,,,,,,,
,,,,,,,60e858204e148e07ef3ef257,682f0fbe5366b8c193d3c329,2025-05-22_14h51.45.560,cuing_paradigm_dot,2024.1.5,Win32,59.88023952,682d573fa47f1360d1451895,,,,,,,,,,,454.1929,454.6916,,,454.9331,455.1103,right,0.1557,,,,,,,,,0.4,,,,,,454.6918,454.933,455.1106,"[0.10880670072295498,-0.12950220910645374]","[-1,-1,-1]","[0.043807496561187535,-0.01249287196553769]","[-1,-1,-1]","[0.08817051347818491,-0.011928973076662245]","[1,1,1]","[-0.11361605621386597,0.13112319409685608]","[1,1,1]","[0.03751445166304352,-0.18964630155275589]","[-1,-1,-1]","[-0.0158265076592187,-0.10141095647458845]","[-1,-1,-1]","[-0.03995473862597408,-0.06572154913467239]","[-1,-1,-1]","[0.1451800154021225,-0.007421988593974078]","[-1,-1,-1]","[-0.00752662797659341,0.018475932017876475]","[-1,-1,-1]","[-0.10484054377335059,0.07443953633379626]","[1,1,1]","[-0.0463517708548509,0.12036681643137538]","[-1,-1,-1]","[-0.050600228879882234,-0.18500967401544008]","[1,1,1]","[-0.03182066976775331,0.17505211441176657]","[-1,-1,-1]","[0.018982323025751542,-0.07074011760696168]","[-1,-1,-1]","[-0.01595523928222631,-0.025914741045947345]","[-1,-1,-1]","[0.02778671743961748,0.10792724215582603]","[1,1,1]","[0.05360438636119349,0.06229542394152103]","[-1,-1,-1]","[-0.051961015691185004,-0.00793968228727289]","[1,1,1]","[-0.18618661055103622,0.025992972725387142]","[1,1,1]","[0.1103713590138372,0.08488571259723846]","[1,1,1]","[-0.09089997420935975,-0.0955890008865227]","[1,1,1]","[-0.14198633687394985,0.02498488835586152]","[1,1,1]","[0.08185535259792835,0.17113005532046935]","[1,1,1]","[-0.09789176799620825,0.16984853946658293]","[-1,-1,-1]","[0.03429302942848721,0.19238447026402267]","[-1,-1,-1]","[-0.14273713439215377,-0.13194143481113427]","[-1,-1,-1]","[0.11257666469129826,0.12617325673787436]","[-1,-1,-1]","[0.14488254272853868,-0.07518866948469538]","[-1,-1,-1]","[0.09284339991322343,-0.07764110095470814]","[1,1,1]","[-0.137618456791811,-0.06809885535881269]","[-1,-1,-1]","[-0.17165947032924347,0.08207017766781412]","[1,1,1]","[-0.058815136769779966,-0.1242297065173733]","[-1,-1,-1]","[0.02,0.02]",456.2084,0,15,15,53,1,,,,,,,
,,,,,,,60e858204e148e07ef3ef257,682f0fbe5366b8c193d3c329,2025-05-22_14h51.45.560,cuing_paradigm_dot,2024.1.5,Win32,59.88023952,682d573fa47f1360d1451895,,,,,,,,,,,456.2103,456.7083,,,456.9591,457.3086,right,0.3321,,,,,,,,,0.5,,,,,,456.7085,456.959,457.3087,"[-0.06422466251460332,0.10898084112089926]","[-1,-1,-1]","[-0.18942722519955912,0.05629557604875076]","[1,1,1]","[0.05379703832792383,-0.07949829022280346]","[1,1,1]","[-0.010353915722125724,0.04059621499806135]","[-1,-1,-1]","[-0.04622689605872965,0.0054194446545945815]","[-1,-1,-1]","[0.07091701599720263,0.10746784289843007]","[1,1,1]","[0.0835944775212965,-0.11770275810262663]","[1,1,1]","[0.12671696394410767,0.13402665720019644]","[1,1,1]","[-0.12025416147488843,0.15924587975390608]","[-1,-1,-1]","[-0.12266015516810176,-0.09138810158070206]","[1,1,1]","[0.0005057887008492717,-0.07901697197240116]","[-1,-1,-1]","[0.09930137269862628,0.012578378622821879]","[-1,-1,-1]","[0.016412181508914932,-0.0324525602940177]","[-1,-1,-1]","[0.05912823097108159,0.05411984950902905]","[1,1,1]","[-0.03767054124764203,-0.10993471849813548]","[1,1,1]","[0.17124387105034222,0.03282212057263068]","[-1,-1,-1]","[-0.08189072617123758,0.1780981611680746]","[1,1,1]","[0.0766377336423887,-0.0399614050366172]","[-1,-1,-1]","[0.03739803506546705,-0.16972983428487765]","[1,1,1]","[0.17383402429142264,-0.06485329864113314]","[-1,-1,-1]","[0.12633430230378873,-0.15028360073717384]","[-1,-1,-1]","[0.06793693900931222,0.1523304792698254]","[1,1,1]","[-0.15390134323977891,-0.04256678132145507]","[1,1,1]","[0.031284153171445006,0.19338023412638683]","[-1,-1,-1]","[-0.010157407036732404,0.1393114107042321]","[-1,-1,-1]","[-0.06130830730012337,-0.17980175195164347]","[1,1,1]","[0.16449437176325363,0.09234852229707309]","[1,1,1]","[0.09926890459765703,0.06348828544600299]","[-1,-1,-1]","[-0.1975003092292982,-0.00045583859940972885]","[-1,-1,-1]","[0.025152934408532668,0.08363365991714278]","[-1,-1,-1]","[-0.07713095166869956,-0.12472326627920709]","[1,1,1]","[0.027706644706645387,-0.11071378403160204]","[1,1,1]","[0.02,0.02]",458.408,0,16,16,105,1,,,,,,,
,,,,,,,60e858204e148e07ef3ef257,682f0fbe5366b8c193d3c329,2025-05-22_14h51.45.560,cuing_paradigm_dot,2024.1.5,Win32,59.88023952,682d573fa47f1360d1451895,,,,,,,,,,,458.4088,458.9078,,,459.1589,459.5246,left,0.3496,,,,,,,,,0.5,,,,,,458.9079,459.1588,459.5247,"[-0.05361723371715221,-0.11303227175739469]","[-1,-1,-1]","[-0.01613438167938082,-0.06593262033668422]","[1,1,1]","[0.08582967543416577,-0.17191456224026408]","[1,1,1]","[-0.07006950059334456,0.11771883200618678]","[-1,-1,-1]","[0.17635506415903887,0.02200395816811459]","[1,1,1]","[0.08586679127003707,-0.029009094726937867]","[1,1,1]","[0.01919623016503144,-0.011878933617565722]","[-1,-1,-1]","[0.059165276307600524,-0.06539311181354365]","[-1,-1,-1]","[0.0580329519361937,0.17933461281266092]","[1,1,1]","[-0.02930739240999787,-0.00141108094708169]","[-1,-1,-1]","[0.12782997718465583,-0.11806562684763167]","[1,1,1]","[0.1567447940908649,-0.0433436661704363]","[1,1,1]","[0.009571584136742046,0.07755506149941449]","[-1,-1,-1]","[0.07330233386490088,0.10465130247465136]","[-1,-1,-1]","[-0.15631153310837556,-0.0870704924056424]","[1,1,1]","[-0.01926605780959492,0.15214076699303]","[1,1,1]","[0.1091884621329251,-0.07047895795667297]","[1,1,1]","[0.003202102559095167,-0.18808392696320522]","[-1,-1,-1]","[-0.16961204687311002,0.10574892050028205]","[1,1,1]","[0.111942312794204,0.14166900827507609]","[-1,-1,-1]","[-0.10193992683827706,-0.1417878866006102]","[-1,-1,-1]","[-0.06665804314939602,-0.17444961767727418]","[-1,-1,-1]","[-0.0959372750239171,-0.007580418710242612]","[-1,-1,-1]","[0.10672021223247337,0.07725081184515367]","[1,1,1]","[-0.1302274729909332,0.06524099300924754]","[-1,-1,-1]","[0.030754920175421967,0.11561232452274907]","[-1,-1,-1]","[-0.08707821542684897,0.050446114330265655]","[-1,-1,-1]","[0.04133350029559997,-0.13809659897966983]","[1,1,1]","[-0.025165515580200012,0.09831399720805001]","[1,1,1]","[-0.08660071677025712,0.16408466894954768]","[1,1,1]","[0.0650087028351698,0.03755856395805445]","[-1,-1,-1]","[-0.1358739409454988,-0.04483861768661908]","[1,1,1]","[0.02,0.02]",460.624,0,17,17,109,1,,,,,,,
,,,,,,,60e858204e148e07ef3ef257,682f0fbe5366b8c193d3c329,2025-05-22_14h51.45.560,cuing_paradigm_dot,2024.1.5,Win32,59.88023952,682d573fa47f1360d1451895,,,,,,,,,,,460.6243,461.1245,,,461.3653,461.691,left,0.3014,,,,,,,,,0.4,,,,,,461.1246,461.3652,461.6911,"[0.024692548053575857,-0.0001161026462198675]","[-1,-1,-1]","[-0.13563435115837189,-0.09676848583112374]","[1,1,1]","[0.10778328966304142,0.10031025777195567]","[1,1,1]","[-0.003955213082805901,-0.12988992646868186]","[-1,-1,-1]","[-0.09326669552598443,-0.07017180867499669]","[-1,-1,-1]","[0.19377469286862556,-0.030275520229431294]","[-1,-1,-1]","[0.12507732362022161,0.02292833134968226]","[-1,-1,-1]","[0.058614111950196765,-0.11071511160119102]","[-1,-1,-1]","[0.10769245416627311,-0.16623252409854092]","[1,1,1]","[-0.013270472979363304,0.03599360034599973]","[-1,-1,-1]","[0.09442280269420983,-0.03579414074140385]","[1,1,1]","[-0.17588392058734825,-0.09377434472701723]","[-1,-1,-1]","[-0.11247812192674614,-0.020713772186249244]","[1,1,1]","[-0.1458434812832569,0.07836045006641812]","[-1,-1,-1]","[-0.04108244042396691,-0.04044799060254408]","[-1,-1,-1]","[-0.07102888193336244,0.12085969416382938]","[-1,-1,-1]","[-0.020189008832110143,-0.18026293803028512]","[-1,-1,-1]","[0.031216856433998415,0.05399828279461923]","[-1,-1,-1]","[-0.10760917107320925,0.16498227372002114]","[1,1,1]","[-0.18201578372710658,0.010569613521972028]","[-1,-1,-1]","[0.154361225121658,0.08985913259227643]","[-1,-1,-1]","[0.15278983802958182,-0.12731382122828644]","[1,1,1]","[-0.061211072590831174,-0.18854642626451432]","[1,1,1]","[0.06067435397154204,0.15863713319309186]","[1,1,1]","[-0.020575564269469687,0.10747945531199464]","[1,1,1]","[0.07594015690551127,0.07486156147354331]","[1,1,1]","[0.10344471907937071,-0.08323497367757186]","[-1,-1,-1]","[0.03734004934671205,-0.047463157003682636]","[-1,-1,-1]","[0.07183070412114399,0.03268279689594898]","[-1,-1,-1]","[-0.06564737516929878,0.18464682097740953]","[1,1,1]","[-0.10602805353337047,0.02714976900320288]","[-1,-1,-1]","[-0.11054642912104054,0.11329720091650673]","[1,1,1]","[0.02,0.02]",462.7915,0,18,18,48,1,,,,,,,
,,,,,,,60e858204e148e07ef3ef257,682f0fbe5366b8c193d3c329,2025-05-22_14h51.45.560,cuing_paradigm_dot,2024.1.5,Win32,59.88023952,682d573fa47f1360d1451895,,,,,,,,,,,462.7933,463.2916,,,463.5418,463.9929,left,0.4411,,,,,,,,,0.55,,,,,,463.2917,463.5418,463.9931,"[-0.07406064764817016,-0.14909426447955118]","[-1,-1,-1]","[0.06984537873534306,0.04405365465765608]","[1,1,1]","[-0.09808098668712005,0.16221217265636903]","[1,1,1]","[0.07464605751167123,0.12785573520480756]","[-1,-1,-1]","[-0.1469818421822993,0.10625619697990658]","[1,1,1]","[0.16937922991221246,-0.0415118467386192]","[-1,-1,-1]","[0.0757526641746004,-0.026858180276495072]","[1,1,1]","[0.15187032680765847,0.07580635173629319]","[1,1,1]","[0.17562134518331382,0.03379375437611226]","[-1,-1,-1]","[0.09795428575834159,-0.06541756696301797]","[1,1,1]","[0.07649680390932134,-0.1672041580403416]","[1,1,1]","[-0.08412941890284836,-0.08108150116654668]","[1,1,1]","[0.00728982458359188,-0.053662954973766705]","[1,1,1]","[-0.08272297222205403,0.0021383939973422875]","[-1,-1,-1]","[-0.14395918081279205,-0.08787088936193553]","[1,1,1]","[-0.04847073883536203,0.11225992616949604]","[-1,-1,-1]","[0.01864462877979234,-0.1626639704400165]","[-1,-1,-1]","[0.11782144004706228,-0.12143220213638466]","[1,1,1]","[-0.13522567295367674,0.044716774943038495]","[1,1,1]","[-0.025606033546810868,0.0751534749672891]","[-1,-1,-1]","[0.05367124222622107,-0.10789100222847216]","[1,1,1]","[-0.07777610347752544,0.0425026550528519]","[-1,-1,-1]","[-0.010051580279605765,0.1495931737456926]","[-1,-1,-1]","[0.016004609823093586,0.018310668910620793]","[-1,-1,-1]","[0.015379518717824572,0.07800411707959555]","[-1,-1,-1]","[-0.0955472773852561,0.08611787015475127]","[1,1,1]","[0.1256298801595927,0.11623661301099686]","[1,1,1]","[-0.1295934524013996,-0.040047864614436414]","[1,1,1]","[-0.18788589113181678,-0.0019553860065213433]","[-1,-1,-1]","[0.11877182306491059,0.005424260209905208]","[1,1,1]","[0.0528329089143884,0.16368601540686395]","[1,1,1]","[-0.18301376585232854,0.07047125783017537]","[-1,-1,-1]","[0.02,0.02]",465.0911,0,19,19,132,1,,,,,,,
,,,,,,,60e858204e148e07ef3ef257,682f0fbe5366b8c193d3c329,2025-05-22_14h51.45.560,cuing_paradigm_dot,2024.1.5,Win32,59.88023952,682d573fa47f1360d1451895,,,,,,,,,,,465.0919,465.5913,,,465.8418,466.1758,left,0.3253,,,,,,,,,0.55,,,,,,465.5914,465.8417,466.1759,"[0.07777721544066246,0.01385768609509338]","[-1,-1,-1]","[0.1260870418727902,-0.10405445132359707]","[-1,-1,-1]","[0.03987444687883871,0.18537207135583078]","[1,1,1]","[-0.06849116916809292,-0.18484151906712726]","[1,1,1]","[-0.05944464281730461,-0.09101289096605905]","[-1,-1,-1]","[-0.1307816497895816,-0.12510855704579515]","[1,1,1]","[0.11711759068035381,0.0765707513394983]","[1,1,1]","[-0.03646135260884623,0.05479406450333222]","[-1,-1,-1]","[-0.09160789453215576,0.007994433334691688]","[-1,-1,-1]","[0.08051695016611475,0.15547644502324695]","[-1,-1,-1]","[-0.02894336596316187,0.18506249348994494]","[1,1,1]","[0.024693136036012194,0.08822042127346852]","[1,1,1]","[0.16477629413875808,0.07530956674958955]","[1,1,1]","[-0.07272849366173262,0.1597382686809565]","[1,1,1]","[-0.007128071399417946,-0.05552197966695653]","[-1,-1,-1]","[0.18289360624954165,0.00190511042049416]","[1,1,1]","[0.07260161736850375,-0.06286627697265018]","[1,1,1]","[0.044181933824949005,-0.11146397654785527]","[-1,-1,-1]","[0.014032560975217932,0.031813690890834]","[-1,-1,-1]","[0.060576818939698684,0.06442872420996178]","[1,1,1]","[-0.1920654604397334,0.02062543731037673]","[-1,-1,-1]","[-0.04797715866710411,0.09699720979640725]","[1,1,1]","[0.10120870708897128,-0.02011135903917631]","[1,1,1]","[-0.10731381220578443,-0.16626767532375947]","[1,1,1]","[0.046528217881777016,-0.19187736069420963]","[-1,-1,-1]","[0.0036890109163443957,-0.1919204066780279]","[-1,-1,-1]","[0.029124376371379733,0.14057516138084453]","[1,1,1]","[-0.1481538707751293,0.07639189976924132]","[1,1,1]","[0.11080300879801169,-0.1593622700746957]","[-1,-1,-1]","[-0.13422982328540953,-0.08110022976751075]","[1,1,1]","[0.18098787514531064,-0.06744277156222156]","[-1,-1,-1]","[0.1280162983967973,0.14756105464888872]","[1,1,1]","[0.02,0.02]",467.2744,0,20,20,146,1,,,,,,,
,,,,,,,60e858204e148e07ef3ef257,682f0fbe5366b8c193d3c329,2025-05-22_14h51.45.560,cuing_paradigm_dot,2024.1.5,Win32,59.88023952,682d573fa47f1360d1451895,,,,,,,,,,,467.2752,467.7745,,,468.0144,468.3335,left,0.3016,,,,,,,,,0.9,,,,,,467.7746,468.0143,468.3336,"[0.02125378112831329,0.1751191178026055]","[1,1,1]","[-0.08452602382140069,0.1286502768336845]","[1,1,1]","[-0.15206335010116034,0.12342298592698141]","[-1,-1,-1]","[0.07598432031754355,0.09889801570921501]","[1,1,1]","[0.17763494421501283,0.08493305570826865]","[-1,-1,-1]","[-0.045686694891798836,0.054488993397524395]","[1,1,1]","[0.15308530317256294,0.008282126578120452]","[1,1,1]","[-0.08531971213331109,-0.0993105480473594]","[1,1,1]","[0.04810427029654649,-0.03375821847291229]","[1,1,1]","[0.09560888105337355,0.011455846963674857]","[1,1,1]","[0.19149367528057584,-0.006974235887563758]","[1,1,1]","[0.014802209291156608,0.13337086911309606]","[1,1,1]","[-0.12670247245389135,-0.10105731496093967]","[1,1,1]","[0.06469145192293214,-0.13115807570068044]","[1,1,1]","[-0.09402053782343063,-0.05370134420456075]","[1,1,1]","[-0.14356705878131407,0.06394804695986332]","[1,1,1]","[-0.048045702052126195,-0.13056259308853457]","[1,1,1]","[-0.11432184785223637,-0.008464004291559636]","[1,1,1]","[-0.16823624608975082,-0.050492535338375194]","[1,1,1]","[-0.05299948257441127,0.1694861794236412]","[1,1,1]","[0.1381156850644621,0.13616574069682993]","[1,1,1]","[0.02144482547661011,0.0650801011152578]","[1,1,1]","[0.12119634707176323,0.09505715622936127]","[-1,-1,-1]","[-0.09621204847132121,0.054946226313281867]","[1,1,1]","[0.13520835814497192,-0.09521934684784636]","[1,1,1]","[0.08775022173802345,-0.08774893622919662]","[1,1,1]","[-0.046117552628497906,-0.010085638537078945]","[1,1,1]","[0.028542961581168296,-0.11030520072705072]","[1,1,1]","[0.13616670364473923,-0.13739592455476493]","[1,1,1]","[0.16757214603444645,-0.061115403181376]","[1,1,1]","[0.04609528896540973,0.028180250907973714]","[1,1,1]","[0.04976928126026493,-0.17793227902041708]","[1,1,1]","[0.02,0.02]",469.4259,0,21,21,180,1,,,,,,,
,,,,,,,60e858204e148e07ef3ef257,682f0fbe5366b8c193d3c329,2025-05-22_14h51.45.560,cuing_paradigm_dot,2024.1.5,Win32,59.88023952,682d573fa47f1360d1451895,,,,,,,,,,,469.428,469.9258,,,470.1665,470.5439,right,0.3542,,,,,,,,,0.4,,,,,,469.926,470.1664,470.5441,"[0.04222289235548227,-0.10817360980324786]","[1,1,1]","[0.10582239790219573,0.10289386139961358]","[-1,-1,-1]","[-0.06563323140858478,-0.16232981541991745]","[-1,-1,-1]","[-0.11675176351395293,-0.15962563825978335]","[-1,-1,-1]","[0.15825543005718773,0.012562728462463575]","[1,1,1]","[0.08224350512086973,-0.11249706445310921]","[-1,-1,-1]","[-0.059014874361880694,-0.022775584792319923]","[1,1,1]","[-0.12254182165114978,0.05469225200817583]","[1,1,1]","[-0.11260712139907346,0.01128106381188016]","[-1,-1,-1]","[-0.13296262152177055,-0.0780429977497921]","[1,1,1]","[0.05281443436015169,0.14361091961054803]","[1,1,1]","[0.05279941063629036,0.06416822543350108]","[1,1,1]","[0.17867881840313338,-0.03117179184248733]","[-1,-1,-1]","[0.0007593591194220082,-0.1946382494567836]","[-1,-1,-1]","[-0.023171880995772012,-0.14574984409046465]","[-1,-1,-1]","[-0.0052149498137124845,-0.05522217368592478]","[-1,-1,-1]","[0.15013115221345716,0.09734396841180253]","[-1,-1,-1]","[-0.02847767854813633,0.07426551695660635]","[1,1,1]","[-0.06689389561736786,-0.10351954383228747]","[-1,-1,-1]","[0.021098903850422315,0.015387321967073049]","[-1,-1,-1]","[-0.04219686255605067,0.14859602924927476]","[1,1,1]","[0.12378008620797641,0.03875960125920458]","[-1,-1,-1]","[0.0628358216742973,-0.051836143046103546]","[1,1,1]","[-0.015545399426990925,0.17960138463597156]","[-1,-1,-1]","[-0.17094917797830442,-0.09057847763982366]","[-1,-1,-1]","[-0.1171791709388616,0.11195807327061967]","[-1,-1,-1]","[-0.08262508975865951,0.1692841151924727]","[1,1,1]","[-0.05616028931813073,0.045075919314204564]","[-1,-1,-1]","[0.17820178046778665,-0.08228098254501232]","[-1,-1,-1]","[0.14104623295893257,-0.04485809505499616]","[-1,-1,-1]","[0.0688399938068259,0.016526864192279896]","[1,1,1]","[-0.18742557774633808,0.06586824525520839]","[1,1,1]","[0.02,0.02]",471.6409,0,22,22,34,1,,,,,,,
,,,,,,,60e858204e148e07ef3ef257,682f0fbe5366b8c193d3c329,2025-05-22_14h51.45.560,cuing_paradigm_dot,2024.1.5,Win32,59.88023952,682d573fa47f1360d1451895,,,,,,,,,,,471.6421,472.1415,,,472.392,472.7074,right,0.3007,,,,,,,,,0.4,,,,,,472.1415,472.3919,472.7074,"[0.030055056662972614,0.054324692113140303]","[1,1,1]","[0.09300206441661073,-0.018246665849161372]","[1,1,1]","[-0.04223024970620045,0.14566457602300945]","[-1,-1,-1]","[-0.16152835424085196,0.08201779024980815]","[-1,-1,-1]","[0.0009238907257753472,-0.042435247845855055]","[-1,-1,-1]","[0.16909148330865267,0.10536360290334892]","[-1,-1,-1]","[-0.10741149218422795,0.09838139955285083]","[-1,-1,-1]","[-0.0011653324287042104,0.136795940243523]","[-1,-1,-1]","[-0.07160118356280631,-0.12517230906138221]","[1,1,1]","[0.05102823877634016,-0.0434857010534162]","[1,1,1]","[-0.15284746655388806,-0.09986540979526409]","[-1,-1,-1]","[-0.011681311027846055,-0.13074371966261572]","[1,1,1]","[0.08987395307163763,-0.06609914328185691]","[-1,-1,-1]","[0.11877057157737406,0.0381309169025985]","[-1,-1,-1]","[0.13209715138063535,-0.04881812156200807]","[-1,-1,-1]","[-0.060012463679368445,0.10470186681574675]","[1,1,1]","[-0.08085391111038698,0.18242305472633036]","[1,1,1]","[0.046390886101150344,0.1089267382869196]","[1,1,1]","[0.03168897313786265,0.16520054804204293]","[-1,-1,-1]","[0.12255017415333717,-0.11245213716682749]","[-1,-1,-1]","[0.11362292452743607,-0.1604193037044038]","[-1,-1,-1]","[-0.13340503617170738,0.03826734314067981]","[1,1,1]","[-0.042901825056783326,-0.06978360980823267]","[-1,-1,-1]","[0.11452061391367072,0.11340943588139331]","[-1,-1,-1]","[-0.10820692729111292,-0.16353527905267243]","[-1,-1,-1]","[0.0019290806380903556,0.007868435164754257]","[1,1,1]","[-0.030071508092764345,-0.016706387192138204]","[-1,-1,-1]","[0.16667195486391875,-0.0918957650957861]","[1,1,1]","[-0.054368853236027435,0.06369399462020589]","[1,1,1]","[0.18794631345985305,-0.04423181273398379]","[-1,-1,-1]","[-0.108509304214679,-0.04256390585667738]","[1,1,1]","[-0.1404469156707969,0.1310431057879682]","[-1,-1,-1]","[0.02,0.02]",473.8075,0,23,23,37,1,,,,,,,
,,,,,,,60e858204e148e07ef3ef257,682f0fbe5366b8c193d3c329,2025-05-22_14h51.45.560,cuing_paradigm_dot,2024.1.5,Win32,59.88023952,682d573fa47f1360d1451895,,,,,,,,,,,473.808,474.3079,,,474.5491,474.9258,right,0.3541,,,,,,,,,0.45,,,,,,474.308,474.5491,474.9263,"[-0.05162166563573862,0.10850611295691577]","[-1,-1,-1]","[-0.06481681483861258,0.06953627776577005]","[-1,-1,-1]","[-0.12794241434132672,0.07725899376564709]","[1,1,1]","[-0.03077420345629002,-0.06938380864494349]","[-1,-1,-1]","[0.0634625036034452,0.06921172574790546]","[-1,-1,-1]","[-0.10385458365169391,-0.10670621680055915]","[-1,-1,-1]","[0.15703538965876954,-0.0576550773431778]","[1,1,1]","[0.13977262318619585,-0.11131716855595256]","[-1,-1,-1]","[0.09439983735728233,0.11044316324688362]","[1,1,1]","[0.022819295614402064,0.06076776558998165]","[-1,-1,-1]","[-0.0837842543245529,-0.14713524969714858]","[1,1,1]","[0.04081275637502784,-0.03285463010976705]","[-1,-1,-1]","[-0.13069348523117522,0.026478675510944148]","[1,1,1]","[0.04161119047511949,-0.15988163386713117]","[-1,-1,-1]","[0.0767407947629363,-0.11412364282283134]","[1,1,1]","[0.010760746512130654,0.1586495935196869]","[-1,-1,-1]","[0.17422056224357965,0.012237585851146343]","[1,1,1]","[-0.15735318628471645,0.1173338384573359]","[1,1,1]","[0.0783369226995479,0.02532948851635919]","[-1,-1,-1]","[-0.18436386609578712,0.03393460263632696]","[1,1,1]","[-0.09945288142281465,-0.004073970877399507]","[1,1,1]","[0.01019085183900797,-0.09045827292310091]","[-1,-1,-1]","[0.15459771086497787,0.11483521937973486]","[-1,-1,-1]","[-0.055542008102779185,0.15473825970152744]","[-1,-1,-1]","[-0.0452202899875149,-0.13339656654615553]","[-1,-1,-1]","[0.041528976561315434,0.008813991976363296]","[-1,-1,-1]","[-0.032031564028955385,0.025317284795794523]","[1,1,1]","[0.12149533068010974,0.022334085658317498]","[-1,-1,-1]","[-0.007090856297422539,-0.02245549992142688]","[-1,-1,-1]","[0.04091309700382559,0.12422797001738331]","[1,1,1]","[-0.11905369096662238,-0.06691202062085015]","[1,1,1]","[0.104865525002038,0.16083750730830323]","[1,1,1]","[0.02,0.02]",476.025,0,24,24,77,1,,,,,,,
,,,,,,,60e858204e148e07ef3ef257,682f0fbe5366b8c193d3c329,2025-05-22_14h51.45.560,cuing_paradigm_dot,2024.1.5,Win32,59.88023952,682d573fa47f1360d1451895,,,,,,,,,,,476.0268,476.5242,,,476.7754,477.1753,left,0.3849,,,,,,,,,0.1,,,,,,476.5244,476.7752,477.1753,"[0.18717560450306286,-0.0013263781613558822]","[-1,-1,-1]","[0.11360916646496276,0.07832074955950852]","[-1,-1,-1]","[0.1395234842244629,0.12630183570362408]","[-1,-1,-1]","[0.010618730569814407,0.1646768800007344]","[-1,-1,-1]","[-0.012388785239418616,-0.13259556503706338]","[-1,-1,-1]","[0.09230187949702093,0.13760344366630495]","[-1,-1,-1]","[0.07733362724336638,-0.14929596028608438]","[-1,-1,-1]","[0.06884303610183,-0.07500364161573865]","[-1,-1,-1]","[-0.049604911624503624,0.07875446905824533]","[-1,-1,-1]","[0.12438884854688659,-0.0062791595797403316]","[-1,-1,-1]","[-0.03892566228930841,-0.02251199970609643]","[-1,-1,-1]","[-0.07166022343452788,-0.0629096430967977]","[-1,-1,-1]","[0.06358744937188297,0.05445414645484831]","[-1,-1,-1]","[0.0211802152062353,-0.1095078656805103]","[-1,-1,-1]","[0.07523878457150973,0.0161732737070945]","[-1,-1,-1]","[-0.12871646364539877,0.027496379737808378]","[-1,-1,-1]","[-0.03607820662475242,0.13736184781286098]","[-1,-1,-1]","[-0.09914327070607834,0.15155694327227162]","[-1,-1,-1]","[-0.06958965713941384,0.011382193172829487]","[-1,-1,-1]","[-0.18102730621667865,-0.051273721219671435]","[-1,-1,-1]","[0.018531492665793264,-0.006650989377160738]","[1,1,1]","[-0.04054554000213114,-0.17134684254053867]","[-1,-1,-1]","[-0.16113274492128873,-0.10822234487779453]","[-1,-1,-1]","[-0.00711348661315708,-0.05368667511437584]","[-1,-1,-1]","[0.1284783339858033,-0.06871443472521857]","[-1,-1,-1]","[-0.10812553090387146,-0.13863033004101138]","[-1,-1,-1]","[0.13356200358507078,0.035428895250360956]","[-1,-1,-1]","[-0.027181436557517695,0.187433688474158]","[1,1,1]","[0.12299216762265708,-0.1318820684475907]","[-1,-1,-1]","[-0.13600252634774704,0.07628316693028087]","[1,1,1]","[0.1589840033054817,-0.11333456531159349]","[-1,-1,-1]","[-0.14923915216506542,0.1143517517917546]","[-1,-1,-1]","[0.02,0.02]",478.2745,0,25,25,11,1,,,,,,,
,,,,,,,60e858204e148e07ef3ef257,682f0fbe5366b8c193d3c329,2025-05-22_14h51.45.560,cuing_paradigm_dot,2024.1.5,Win32,59.88023952,682d573fa47f1360d1451895,,,,,,,,,,,478.2755,478.7747,,,479.026,479.4592,left,0.4041,,,,,,,,,0.5,,,,,,478.7747,479.0259,479.4594,"[-0.09106192714216316,0.005231727420756193]","[-1,-1,-1]","[-0.09130192489452381,-0.15099895282451356]","[1,1,1]","[-0.05699560969209719,-0.09849971461200883]","[-1,-1,-1]","[-0.15099191706157403,-0.025921900763344545]","[1,1,1]","[0.0011009818730571565,0.0727895513415996]","[-1,-1,-1]","[0.029345908798620892,-0.18043208241369532]","[1,1,1]","[0.016060431067180598,0.010711217788466383]","[-1,-1,-1]","[0.07964891080651898,-0.012653496225651956]","[-1,-1,-1]","[0.08434701996488203,-0.1385538880253447]","[-1,-1,-1]","[0.11382519595716159,0.14629042770759107]","[-1,-1,-1]","[-0.16800017865989894,-0.06254144463085305]","[1,1,1]","[-0.08009804401404659,0.09028218669168478]","[1,1,1]","[-0.054372746773900915,-0.16821778316168917]","[-1,-1,-1]","[0.12853407151909219,0.08413414829673925]","[-1,-1,-1]","[-0.12264987806992082,0.0976796842225669]","[-1,-1,-1]","[0.18483909507736343,0.042322751005193955]","[-1,-1,-1]","[-0.1431041978121825,0.021558885478691694]","[1,1,1]","[-0.005213566211079887,0.16199661954196884]","[1,1,1]","[-0.1669251258551741,0.08879029595130727]","[-1,-1,-1]","[0.136744441342781,-0.00318216662728089]","[1,1,1]","[-0.04820217070495513,0.13458185313365117]","[1,1,1]","[0.061153942996494,-0.05724279148325957]","[1,1,1]","[0.13172765059451222,0.04154194777094358]","[1,1,1]","[0.01478596701881079,-0.055908914140838026]","[1,1,1]","[-0.006437290481058181,-0.13249709841829813]","[-1,-1,-1]","[-0.10086034556704046,0.17030782510892076]","[1,1,1]","[0.02913537605663953,0.10815721828303294]","[-1,-1,-1]","[0.17037848053447702,0.08480046057580878]","[1,1,1]","[-0.07143737236583124,-0.037925698687810615]","[1,1,1]","[-0.04768819252446924,0.19260141633286446]","[-1,-1,-1]","[0.08203783733239817,0.09721980497234]","[1,1,1]","[-0.12729260439793885,-0.12311758382493093]","[-1,-1,-1]","[0.02,0.02]",480.5584,0,26,26,112,1,,,,,,,
,,,,,,,60e858204e148e07ef3ef257,682f0fbe5366b8c193d3c329,2025-05-22_14h51.45.560,cuing_paradigm_dot,2024.1.5,Win32,59.88023952,682d573fa47f1360d1451895,,,,,,,,,,,480.5607,481.0584,,,481.3141,481.7138,right,0.3815,,,,,,,,,0.4,,,,,,481.0585,481.3141,481.7139,"[-0.03403775540314326,-0.08686553693666547]","[-1,-1,-1]","[-0.15704061431230615,0.0022622946401875156]","[1,1,1]","[-0.03564653668771959,0.1330502457943949]","[-1,-1,-1]","[0.0716484271440969,0.09053050480093687]","[1,1,1]","[0.1652578746869839,-0.07112017129889744]","[-1,-1,-1]","[0.08892128359390375,-0.09949088073943496]","[-1,-1,-1]","[0.08583120600447586,-0.03905974224630957]","[1,1,1]","[0.1579754803523766,0.10517563910596103]","[-1,-1,-1]","[0.017463800590510073,0.025928526603983208]","[-1,-1,-1]","[-0.018340359477465096,0.09546927318236749]","[-1,-1,-1]","[0.10108866073253704,-0.16748443001474314]","[1,1,1]","[-0.09971326017672197,-0.03355421220223853]","[1,1,1]","[0.04196553573841483,-0.06718229603271843]","[-1,-1,-1]","[-0.02808195467898437,0.1826642919043441]","[1,1,1]","[0.15370925393678903,-0.021890328880637765]","[-1,-1,-1]","[-0.19150300913488966,0.03378781189557855]","[-1,-1,-1]","[-0.08881010064534119,0.16660265472021266]","[1,1,1]","[-0.11365229149122104,-0.12749451986889448]","[-1,-1,-1]","[0.00770815769631559,-0.1506340693889368]","[-1,-1,-1]","[0.025936522995953927,0.08274750366221831]","[-1,-1,-1]","[0.11603873279297727,0.08872515379692764]","[-1,-1,-1]","[-0.01957349613908535,-0.032769763337463134]","[1,1,1]","[-0.14490376899868632,0.06407599008371764]","[-1,-1,-1]","[-0.1255577379509179,0.13437693185174576]","[1,1,1]","[0.11303336978863156,0.1534573730550475]","[1,1,1]","[-0.05984182249658556,-0.05128306566361975]","[1,1,1]","[-0.1599936558726759,-0.05617953953896855]","[-1,-1,-1]","[0.02187397373951892,0.12329390147011135]","[-1,-1,-1]","[-0.03894598528716023,0.004849299415108507]","[1,1,1]","[0.11866629974976727,-0.06940833263931506]","[1,1,1]","[-0.08711407658158439,0.06665556264039223]","[-1,-1,-1]","[0.18122242455900964,0.017262715927191006]","[-1,-1,-1]","[0.02,0.02]",482.8083,0,27,27,45,1,,,,,,,
,,,,,,,60e858204e148e07ef3ef257,682f0fbe5366b8c193d3c329,2025-05-22_14h51.45.560,cuing_paradigm_dot,2024.1.5,Win32,59.88023952,682d573fa47f1360d1451895,,,,,,,,,,,482.8101,483.3084,,,483.5641,483.9272,right,0.3378,,,,,,,,,0.6,,,,,,483.3085,483.564,483.9273,"[-0.05254288757219646,0.15729866148809796]","[1,1,1]","[-0.09292153284595114,0.06869047986186774]","[-1,-1,-1]","[0.08778543541045264,0.09258465952749458]","[-1,-1,-1]","[-0.13192173550969608,0.04367245845759112]","[1,1,1]","[0.13694736330028404,0.07733655978222816]","[1,1,1]","[-0.13008193598939097,-0.12586406431388958]","[-1,-1,-1]","[0.025697844931021525,0.04051032021087188]","[-1,-1,-1]","[0.12925870973606865,0.011539510461700368]","[-1,-1,-1]","[0.13583234321419374,0.12465444752579094]","[1,1,1]","[-0.14468801060521044,-0.01501220331213684]","[-1,-1,-1]","[0.1755211181374429,-0.03780215361545498]","[1,1,1]","[0.02710201066267211,0.1221547670533787]","[1,1,1]","[-0.028506759993347074,-0.16152112529792373]","[1,1,1]","[0.03497410927258276,-0.05392455188887861]","[1,1,1]","[-0.028085208733976613,0.08356613899946215]","[1,1,1]","[-0.02969487674413816,-0.04262018843637223]","[1,1,1]","[0.07810883962962019,-0.005104375386563161]","[-1,-1,-1]","[-0.030478208747904995,-0.11307768651728986]","[1,1,1]","[0.04984873210090982,0.1633655073516908]","[1,1,1]","[-0.18331251829957268,-0.029917174960290997]","[1,1,1]","[-0.07213932785800663,-0.1407491947767924]","[-1,-1,-1]","[0.12856319443439906,-0.09697131400964103]","[-1,-1,-1]","[0.0842264860728113,-0.061756068709801305]","[1,1,1]","[-0.05515330602293892,0.01364961743283995]","[1,1,1]","[0.06774551077567018,0.03705928687201349]","[-1,-1,-1]","[0.02905692173634798,-0.1619247627221114]","[1,1,1]","[-0.07532864379522958,-0.0472578287799982]","[1,1,1]","[0.11451506927841987,-0.15763159112863853]","[-1,-1,-1]","[-0.12751868140309372,0.13454484075160858]","[1,1,1]","[-0.1757892272762808,0.010362631055686446]","[-1,-1,-1]","[0.0014992049016391421,0.18178430762639788]","[-1,-1,-1]","[-0.09285136596543489,0.1616585879925563]","[1,1,1]","[0.02,0.02]",485.0249,0,28,28,151,1,,,,,,,
,,,,,,,60e858204e148e07ef3ef257,682f0fbe5366b8c193d3c329,2025-05-22_14h51.45.560,cuing_paradigm_dot,2024.1.5,Win32,59.88023952,682d573fa47f1360d1451895,,,,,,,,,,,485.0276,485.5242,,,485.7649,486.0782,right,0.2898,,,,,,,,,0.5,,,,,,485.5242,485.7649,486.0783,"[-0.04147913123637146,-0.12797113518619022]","[1,1,1]","[0.15408097100051144,-0.1244921299257334]","[-1,-1,-1]","[-0.022375690862718838,0.13323009565496607]","[-1,-1,-1]","[-0.07733371891707322,-0.016937165701345368]","[-1,-1,-1]","[0.11120611075377618,0.16406139000298384]","[-1,-1,-1]","[-0.17294593518405785,0.00786286708585363]","[-1,-1,-1]","[-0.0031518797977364834,0.17599660748381482]","[1,1,1]","[0.07206213830315604,-0.03872127279949063]","[-1,-1,-1]","[0.06529189841233494,-0.09140207557340535]","[-1,-1,-1]","[-0.10788424282913732,0.09341106863823137]","[1,1,1]","[-0.12724120345283552,-0.04852354126878465]","[-1,-1,-1]","[0.12913636940956252,-0.06893110866748717]","[-1,-1,-1]","[0.0015131870150602808,0.02775653288784599]","[1,1,1]","[0.05861069589966797,0.14196649081235918]","[1,1,1]","[0.09563372011453966,-0.0014797176888171175]","[1,1,1]","[0.12972855287741153,0.022935734822158254]","[1,1,1]","[-0.09210609607474836,-0.13147995185773936]","[1,1,1]","[-0.15174079079166153,0.07768694722556228]","[1,1,1]","[0.10744175747590218,0.09670748615274403]","[1,1,1]","[-0.14577418708883266,-0.12266050029396701]","[1,1,1]","[-0.1705444659399208,-0.033316393578503585]","[1,1,1]","[-0.01963575195650684,-0.05261240116792405]","[1,1,1]","[0.15311005051068532,0.09683178695707507]","[-1,-1,-1]","[0.03715671479079457,-0.13256953686773099]","[-1,-1,-1]","[0.10534421306212156,-0.12563498702257916]","[-1,-1,-1]","[-0.05421265988880853,0.17988150532338443]","[1,1,1]","[0.05720496293801856,0.07104407846748582]","[1,1,1]","[0.09345797551546368,-0.17191757064623236]","[-1,-1,-1]","[0.16623948668600372,-0.0074034521851518]","[-1,-1,-1]","[0.019893850621829783,-0.09029396546337815]","[-1,-1,-1]","[-0.023088429642036574,-0.01075370588104825]","[-1,-1,-1]","[-0.08111967121664693,0.14929030458863504]","[1,1,1]","[0.02,0.02]",487.1742,0,29,29,90,1,,,,,,,
,,,,,,,60e858204e148e07ef3ef257,682f0fbe5366b8c193d3c329,2025-05-22_14h51.45.560,cuing_paradigm_dot,2024.1.5,Win32,59.88023952,682d573fa47f1360d1451895,,,,,,,,,,,487.1752,487.6751,,,487.9317,488.6755,right,0.7206,,,,,,,,,0.4,,,,,,487.6752,487.9317,488.6758,"[0.18490897830040587,-0.023445883178379933]","[-1,-1,-1]","[-0.07187961700939209,0.12780840738396934]","[-1,-1,-1]","[0.1133477267985428,-0.14530151550893242]","[1,1,1]","[-0.023796351501654583,-0.14201381039875746]","[1,1,1]","[-0.11458642889303156,-0.14656999254353292]","[-1,-1,-1]","[0.04980786665964637,0.013703749521867205]","[-1,-1,-1]","[0.14524220326297418,0.011958017272440273]","[1,1,1]","[-0.01462513692148479,-0.08366737934642561]","[-1,-1,-1]","[-0.13580958071251378,-0.07983953134904012]","[1,1,1]","[-0.044304898796501596,-0.0029709173352427567]","[-1,-1,-1]","[0.0643368117235024,-0.17854826231081564]","[-1,-1,-1]","[0.14091480416042476,0.05646287167258911]","[-1,-1,-1]","[-0.10717215228737201,0.029491427634698843]","[1,1,1]","[-0.012068174703540999,0.19844914850118234]","[1,1,1]","[0.08010403850295705,-0.057696086097397466]","[-1,-1,-1]","[-0.011526139913244176,0.04801444982974763]","[-1,-1,-1]","[0.10518681290475802,0.0016943070437092198]","[-1,-1,-1]","[-0.10710532155324662,0.15920440364137067]","[1,1,1]","[0.015657867262225268,0.08949079461277976]","[1,1,1]","[0.07557547237193911,0.054907003489871924]","[-1,-1,-1]","[0.07458725781676528,0.13624225916223537]","[-1,-1,-1]","[-0.07078004083380357,-0.09077133236464907]","[-1,-1,-1]","[-0.1849954975654507,-0.010443323593268907]","[-1,-1,-1]","[-0.032930680790449175,0.10988764171519981]","[1,1,1]","[-0.16475032499419662,-0.05030843400643399]","[-1,-1,-1]","[0.1317905828198541,-0.08390826458338053]","[-1,-1,-1]","[0.019971568562640176,0.16849714441252533]","[1,1,1]","[-0.13046688576467808,-0.008207177139521118]","[1,1,1]","[0.033480642488406286,-0.05812204245402102]","[1,1,1]","[-0.07268848810187589,-0.14480959685776845]","[1,1,1]","[0.12198288376414189,-0.03791439055368768]","[-1,-1,-1]","[0.186782380640908,0.04842792443384742]","[-1,-1,-1]","[0.02,0.02]",489.7753,0,30,30,42,1,,,,,,,
,,,,,,,60e858204e148e07ef3ef257,682f0fbe5366b8c193d3c329,2025-05-22_14h51.45.560,cuing_paradigm_dot,2024.1.5,Win32,59.88023952,682d573fa47f1360d1451895,,,,,,,,,,,489.7771,490.2749,,,490.5251,490.8581,right,0.3212,,,,,,,,,0.4,,,,,,490.2751,490.5251,490.8583,"[0.029342318108154748,-0.002091818245526799]","[1,1,1]","[0.13300429243965076,-0.06864501013989573]","[-1,-1,-1]","[-0.05858387847995093,0.005632845400710298]","[-1,-1,-1]","[0.13165450300867876,0.10829396811466563]","[-1,-1,-1]","[0.03331662757395922,0.04903269244331275]","[-1,-1,-1]","[-0.07937211800586837,-0.11226282661198592]","[1,1,1]","[-0.042076987305286966,0.1446853592920257]","[1,1,1]","[-0.14603970803344438,0.08211738628117778]","[1,1,1]","[-0.049223886610747336,-0.17584159675595962]","[1,1,1]","[0.1706891797478089,-0.09069195525851192]","[1,1,1]","[0.08036271481483807,0.1569311358113583]","[1,1,1]","[-0.0026657066423941083,-0.05359534502486266]","[1,1,1]","[-0.08712450285272186,0.10901677046596701]","[1,1,1]","[0.1666272429130943,0.07918462810286817]","[-1,-1,-1]","[-0.04668454316374859,-0.06567042678922592]","[-1,-1,-1]","[-0.1316564151625887,0.1377767121359028]","[-1,-1,-1]","[-0.09999461321514297,-0.15802528376116845]","[-1,-1,-1]","[0.03883676635360681,-0.15234316958800853]","[-1,-1,-1]","[-0.11712315008818694,0.008134275019818941]","[-1,-1,-1]","[-0.0740885798018779,0.043051468685381046]","[-1,-1,-1]","[0.16558260930095922,0.030606890285795316]","[-1,-1,-1]","[0.09200845658477448,-0.050764049038253496]","[-1,-1,-1]","[-0.13496808067736382,-0.09994615988434133]","[1,1,1]","[0.18084120675352736,-0.014869127824504521]","[1,1,1]","[-0.17135547234811724,0.03471663301623813]","[-1,-1,-1]","[-0.03150644428653083,0.10607353091254561]","[1,1,1]","[0.11038058533137744,-0.13823778328699346]","[1,1,1]","[0.09460177681278491,0.007878985297115304]","[-1,-1,-1]","[-0.002923997241164352,-0.15176370015130458]","[-1,-1,-1]","[0.08198273669230767,0.10277279607305252]","[-1,-1,-1]","[0.09337119003820922,0.05282801210766695]","[-1,-1,-1]","[-0.13850162927327087,-0.03264458119541476]","[-1,-1,-1]","[0.02,0.02]",491.958,0,31,31,30,1,,,,,,,
,,,,,,,60e858204e148e07ef3ef257,682f0fbe5366b8c193d3c329,2025-05-22_14h51.45.560,cuing_paradigm_dot,2024.1.5,Win32,59.88023952,682d573fa47f1360d1451895,,,,,,,,,,,491.9587,492.4579,,,492.709,493.1916,left,0.4683,,,,,,,,,0.55,,,,,,492.458,492.7089,493.1918,"[-0.05474245641282855,-0.10774089789436711]","[-1,-1,-1]","[-0.12834504728732757,-0.10168179972698646]","[1,1,1]","[-0.12264176027227956,0.04284171681668524]","[-1,-1,-1]","[0.15253849580715162,-0.0946439987047436]","[-1,-1,-1]","[-0.10626091007507069,0.1223970691716634]","[-1,-1,-1]","[0.11020031345704223,-0.11190669423388983]","[-1,-1,-1]","[-0.08779899663024698,-0.13796448609593004]","[1,1,1]","[0.05426642284327136,0.18792199370024393]","[1,1,1]","[-0.06618719128188125,0.054310773540360895]","[1,1,1]","[-0.052556745115766794,-0.17827506006059898]","[1,1,1]","[-0.0254135343467205,-0.03234274920572905]","[1,1,1]","[0.0919570764822914,-0.06284399189290084]","[-1,-1,-1]","[-0.19267374784215915,0.003942457766059942]","[1,1,1]","[0.1964695488336328,0.015374802103037797]","[1,1,1]","[0.02370947836103469,-0.006869615917727285]","[1,1,1]","[-0.002573700934575702,-0.16486671915457402]","[1,1,1]","[0.05986217569082121,0.1261510908499157]","[1,1,1]","[-0.11129411303078324,-0.004929002438476462]","[-1,-1,-1]","[0.05781564911858754,0.05776518670835653]","[-1,-1,-1]","[0.12665507755343286,-0.03201540273919161]","[1,1,1]","[-0.1732632630286139,-0.04091130446812141]","[1,1,1]","[0.10120054379062568,0.00907600589861303]","[1,1,1]","[-0.057678290553491704,0.12362105880248163]","[-1,-1,-1]","[0.03795121659589208,-0.15367418489932233]","[1,1,1]","[0.1558342399777706,0.07519600479670764]","[-1,-1,-1]","[-0.033115195563279645,0.16422338613587578]","[1,1,1]","[-0.07445788440364869,-0.04976584808997839]","[-1,-1,-1]","[0.009722759114173056,0.14920451846240299]","[1,1,1]","[-0.1813315082093521,0.05132244877461978]","[-1,-1,-1]","[0.11060756306598411,-0.1532052251177222]","[-1,-1,-1]","[-0.15136286037646057,0.013435177949882693]","[-1,-1,-1]","[-0.024642387586028613,0.07815290068386029]","[1,1,1]","[0.02,0.02]",494.2908,0,32,32,144,1,,,,,,,
,,,,,,,60e858204e148e07ef3ef257,682f0fbe5366b8c193d3c329,2025-05-22_14h51.45.560,cuing_paradigm_dot,2024.1.5,Win32,59.88023952,682d573fa47f1360d1451895,,,,,,,,,,,494.2912,494.7911,,,495.0412,495.5604,right,0.503,,,,,,,,,0.4,,,,,,494.7912,495.041,495.5606,"[-0.0026243724394372976,0.03967282217158847]","[-1,-1,-1]","[-0.12815621209861866,0.008428080175098374]","[1,1,1]","[0.10231092698285695,-0.06142151347537785]","[1,1,1]","[-0.010307180603160026,0.16536854588700245]","[1,1,1]","[-0.04151167309506856,-0.08974532734336527]","[-1,-1,-1]","[-0.13581224192927133,-0.08637209973643356]","[-1,-1,-1]","[-0.000804648305541855,-0.040238963561846454]","[-1,-1,-1]","[0.07288565800139717,0.043008489085188534]","[1,1,1]","[0.12971675999578566,-0.12921771084176872]","[1,1,1]","[0.015516884992853282,-0.13261007449312462]","[-1,-1,-1]","[0.048840636882106166,0.14452402223394548]","[1,1,1]","[0.16724036407404,0.08393611991060723]","[-1,-1,-1]","[-0.0767152303749851,-0.16568381850711555]","[-1,-1,-1]","[0.04249214770858943,-0.05123586524922468]","[-1,-1,-1]","[-0.18839718722472207,0.06254582641128811]","[1,1,1]","[-0.08335089410838929,0.09621976090302349]","[1,1,1]","[0.16091319046976324,-0.0607202953230206]","[-1,-1,-1]","[0.04017428822878106,-0.0005880216803008205]","[-1,-1,-1]","[-0.09524924725669776,-0.06240463887839568]","[-1,-1,-1]","[0.13788687030137373,-0.020642447226495258]","[-1,-1,-1]","[0.11848149289154691,0.07534632176830505]","[-1,-1,-1]","[-0.06988542864308586,0.003221220245919252]","[1,1,1]","[0.04078697292193751,-0.18604364163970025]","[1,1,1]","[0.09065343696663006,-0.1430028734098355]","[-1,-1,-1]","[-0.08277325704563843,0.14606446109841326]","[1,1,1]","[-0.129196006879273,-0.12793967326576883]","[-1,-1,-1]","[-0.06183875127949561,0.059196388809386664]","[-1,-1,-1]","[0.05455331768066045,0.10004771312564212]","[1,1,1]","[-0.1847995504416578,-0.01305203770373171]","[-1,-1,-1]","[-0.13034156760615473,-0.03559690877016802]","[1,1,1]","[-0.12635704718850646,0.14602472647863968]","[-1,-1,-1]","[-0.03527387884170086,0.12734277846304118]","[-1,-1,-1]","[0.02,0.02]",496.6583,0,33,33,31,1,,,,,,,
,,,,,,,60e858204e148e07ef3ef257,682f0fbe5366b8c193d3c329,2025-05-22_14h51.45.560,cuing_paradigm_dot,2024.1.5,Win32,59.88023952,682d573fa47f1360d1451895,,,,,,,,,,,496.6592,497.1584,,,497.4087,497.8414,right,0.4213,,,,,,,,,0.9,,,,,,497.1584,497.4087,497.8416,"[-0.0035356514538235446,0.12669114788204233]","[1,1,1]","[-0.17625927937599983,0.06153687928005053]","[1,1,1]","[-0.11125933423345215,-0.10449664516863198]","[1,1,1]","[0.1798140899394687,0.014866038497695848]","[-1,-1,-1]","[0.13967093935534927,-0.03215199198192261]","[1,1,1]","[-0.11216414461536321,-0.022729493738549524]","[1,1,1]","[-0.0960698789778145,0.059722427326827844]","[1,1,1]","[0.10209774468907397,-0.09844750419404735]","[1,1,1]","[-0.05517071840012304,-0.012900168175394239]","[-1,-1,-1]","[-0.05493885626431312,0.028342088442501072]","[1,1,1]","[-0.08078590049908439,0.17123371904429172]","[1,1,1]","[0.04282907051349313,0.002477290478306608]","[1,1,1]","[0.11835052090485865,-0.13992790280210507]","[1,1,1]","[0.05590275691201058,-0.05454087935421782]","[1,1,1]","[-0.042849328657515465,-0.10901523455480176]","[1,1,1]","[0.040479196179791406,0.1817673017371553]","[1,1,1]","[0.18664543560786714,-0.04952352966824748]","[1,1,1]","[0.17517638398653995,0.08136696221926672]","[1,1,1]","[-0.18812506471075818,-0.04929935312215621]","[1,1,1]","[0.05003122224310581,0.0985734329148053]","[1,1,1]","[0.08597699209862751,-0.02529209830185674]","[1,1,1]","[-0.07257209322814835,0.09538078341462153]","[-1,-1,-1]","[-0.03848098749556832,-0.17849941989125725]","[1,1,1]","[0.1032176066262237,0.10112987124255098]","[1,1,1]","[-0.03483349365484798,0.08095308159202369]","[1,1,1]","[0.11320984048387679,0.16242941856255916]","[1,1,1]","[-0.008476374212556174,-0.04475258952072756]","[1,1,1]","[-0.013651050974962359,0.023067867299257874]","[1,1,1]","[0.038933900857322574,-0.13996990002522264]","[1,1,1]","[0.16085521740292966,-0.09797624600056076]","[1,1,1]","[0.09849182423796742,0.06138496257065506]","[1,1,1]","[0.02330972303099926,-0.0849285814083153]","[1,1,1]","[0.02,0.02]",498.9416,0,34,34,192,1,,,,,,,
,,,,,,,60e858204e148e07ef3ef257,682f0fbe5366b8c193d3c329,2025-05-22_14h51.45.560,cuing_paradigm_dot,2024.1.5,Win32,59.88023952,682d573fa47f1360d1451895,,,,,,,,,,,498.9425,499.4415,,,499.6919,500.109,right,0.4033,,,,,,,,,0.4,,,,,,499.4415,499.6919,500.1092,"[0.15353371598073484,-0.020440608184158576]","[-1,-1,-1]","[0.11147538238809318,-0.13284525739394012]","[1,1,1]","[-0.023621313526064988,0.027665348053868114]","[1,1,1]","[0.01717428712459101,-0.1716285574470779]","[1,1,1]","[0.11744820276816474,0.08342341040010061]","[1,1,1]","[0.04584124667001786,-0.06590042490453854]","[-1,-1,-1]","[-0.0352255136770492,-0.01674254966301322]","[1,1,1]","[-0.13414160283078563,0.0240831075768765]","[-1,-1,-1]","[-0.08704389234398952,-0.030759146801436044]","[1,1,1]","[-0.14786804260760716,-0.01714426862192153]","[1,1,1]","[0.10359918320618693,-0.06610920798869034]","[1,1,1]","[0.03499803167770002,0.13960566375035077]","[-1,-1,-1]","[-0.0397072947200139,0.11690589757468992]","[-1,-1,-1]","[-0.015922153644604826,-0.08228190744377227]","[-1,-1,-1]","[-0.13418959215657933,-0.0713166678689669]","[-1,-1,-1]","[0.18198220173410387,-0.07467193421471127]","[-1,-1,-1]","[-0.038331615442843144,0.16621681516527478]","[-1,-1,-1]","[-0.16093763416461485,0.10062179870794093]","[-1,-1,-1]","[0.07233306788841574,0.17405436899792698]","[1,1,1]","[-0.06565308772154997,-0.08839178720474565]","[-1,-1,-1]","[0.18440797430291264,0.06510592303226898]","[1,1,1]","[-0.056628653111979614,0.07405788118812905]","[-1,-1,-1]","[0.03320082486183736,0.07211509056746032]","[-1,-1,-1]","[-0.0794124173815985,-0.17608520305750297]","[1,1,1]","[0.04145999079281807,0.025373648461948593]","[-1,-1,-1]","[-0.00955397356714589,0.0725821083864719]","[-1,-1,-1]","[-0.1268631181430522,-0.1245223876081779]","[-1,-1,-1]","[-0.08191421451638904,0.15392548773365614]","[1,1,1]","[0.05422568812904343,-0.01332989256051626]","[1,1,1]","[-0.11050020998445546,0.1256414470385685]","[-1,-1,-1]","[0.06492861543720868,-0.13520635213977442]","[-1,-1,-1]","[-0.10329061240470751,0.07576548553325513]","[-1,-1,-1]","[0.02,0.02]",501.2076,0,35,35,57,1,,,,,,,
,,,,,,,60e858204e148e07ef3ef257,682f0fbe5366b8c193d3c329,2025-05-22_14h51.45.560,cuing_paradigm_dot,2024.1.5,Win32,59.88023952,682d573fa47f1360d1451895,,,,,,,,,,,501.208,501.7084,,,501.9493,502.2001,right,0.2355,,,,,,,,,0.1,,,,,,501.7086,501.9491,502.2002,"[0.08215128389629137,-0.11070920792701343]","[-1,-1,-1]","[0.016333361290814738,0.19607125302392803]","[-1,-1,-1]","[-0.15667580727034863,-0.10653313224855762]","[-1,-1,-1]","[0.15049009530937338,0.010476658827543624]","[-1,-1,-1]","[-0.054791493690992996,0.08098668336867407]","[-1,-1,-1]","[-0.1054566903885276,-0.07633244056209486]","[-1,-1,-1]","[-0.15638358355545276,-0.05643724411946791]","[-1,-1,-1]","[-0.09248719809929018,0.14166101094842898]","[-1,-1,-1]","[-0.04562312248156877,0.13820088441856854]","[-1,-1,-1]","[0.1713615705629962,-0.07376178726497158]","[-1,-1,-1]","[0.0017219814044998106,-0.14712181890286358]","[-1,-1,-1]","[0.02656163659159324,0.10118256548141162]","[1,1,1]","[-0.041724886711293936,0.012352855558420651]","[1,1,1]","[-0.07441702418680789,-0.18511265466469168]","[-1,-1,-1]","[0.001829897994443534,0.14968165184862703]","[-1,-1,-1]","[0.1708251704484175,0.04892724982036708]","[-1,-1,-1]","[-0.06461028556774567,-0.1397042047290882]","[-1,-1,-1]","[0.048830349560068084,-0.0640622210397427]","[-1,-1,-1]","[-0.1174127879748059,-0.021814318978298358]","[-1,-1,-1]","[0.08468021497845239,0.1239550242691034]","[-1,-1,-1]","[0.12818250112344645,-0.10868827121619394]","[-1,-1,-1]","[0.059441388056174486,0.1697465695506384]","[-1,-1,-1]","[-0.12639675852452992,0.055610111881856036]","[-1,-1,-1]","[-0.01801376665091406,-0.08473658206328119]","[-1,-1,-1]","[-0.07261356094769693,-0.05180166402643309]","[-1,-1,-1]","[-0.14388493342385703,0.10452864266064174]","[1,1,1]","[0.016558266838230758,0.02458577528390538]","[-1,-1,-1]","[-0.16894713816903598,-0.005667024782732227]","[-1,-1,-1]","[0.04735568231844242,-0.14578253562573112]","[-1,-1,-1]","[0.08453277957028248,0.014266277835349938]","[-1,-1,-1]","[0.13855712196908662,0.07312875102763737]","[-1,-1,-1]","[0.12953260915754167,-0.14900438651437065]","[-1,-1,-1]","[0.02,0.02]",503.2982,0,36,36,8,1,,,,,,,
,,,,,,,60e858204e148e07ef3ef257,682f0fbe5366b8c193d3c329,2025-05-22_14h51.45.560,cuing_paradigm_dot,2024.1.5,Win32,59.88023952,682d573fa47f1360d1451895,,,,,,,,,,,503.2992,503.799,,,504.0494,504.3316,right,0.267,,,,,,,,,0.1,,,,,,503.7991,504.0493,504.3317,"[-0.11805260127809063,0.06582097133710818]","[-1,-1,-1]","[0.17602775582601657,0.06459371761988657]","[-1,-1,-1]","[-0.0822043567291487,0.14019677997521754]","[-1,-1,-1]","[-0.1630405004790539,0.032672102376440235]","[-1,-1,-1]","[-0.04812387613007125,0.1050376746637439]","[-1,-1,-1]","[0.13478186213379492,0.06179556310167888]","[-1,-1,-1]","[-0.0865436360767184,-0.06943818539341833]","[-1,-1,-1]","[0.08972454691790582,-0.040025348971138096]","[-1,-1,-1]","[0.03999725050711415,-0.1685407242575096]","[1,1,1]","[0.1429483052326653,-0.10254496127802226]","[-1,-1,-1]","[-0.09451808917529332,-0.12780663147742402]","[-1,-1,-1]","[-0.025923776603219657,0.145743030997206]","[-1,-1,-1]","[0.06213611150278236,0.06787272924065262]","[-1,-1,-1]","[-0.007172175458855004,-0.08608316931627162]","[-1,-1,-1]","[-0.1568409514533167,-0.03199128113284646]","[1,1,1]","[-0.0004593631296395139,-0.18267903022869014]","[-1,-1,-1]","[0.08880149458416478,-0.12521503441011386]","[-1,-1,-1]","[-0.02497786697816975,-0.04794580479567016]","[-1,-1,-1]","[0.005570813966292934,0.038869495192400336]","[-1,-1,-1]","[-0.1292936289928466,0.11228903337466827]","[-1,-1,-1]","[0.1376410829754323,-0.025534726164529405]","[-1,-1,-1]","[0.18128403937087534,-0.06463904688943219]","[-1,-1,-1]","[0.01821410196586009,0.16764731755597972]","[-1,-1,-1]","[0.05590518248250628,-0.07110166079590008]","[-1,-1,-1]","[0.10159727256881308,-0.1665236154776045]","[-1,-1,-1]","[-0.051431397619640606,0.010311736950764894]","[1,1,1]","[0.10139434594307689,0.08835897568467806]","[-1,-1,-1]","[-0.016970467278443622,0.0767524453321154]","[-1,-1,-1]","[0.10062612570706496,0.13602728699175776]","[-1,-1,-1]","[0.10108712015484748,-0.084212366206632]","[-1,-1,-1]","[0.05907053811617812,0.15455983883252097]","[-1,-1,-1]","[-0.12729094907366073,-0.10127093972192969]","[-1,-1,-1]","[0.02,0.02]",505.4319,0,37,37,24,1,,,,,,,
,,,,,,,60e858204e148e07ef3ef257,682f0fbe5366b8c193d3c329,2025-05-22_14h51.45.560,cuing_paradigm_dot,2024.1.5,Win32,59.88023952,682d573fa47f1360d1451895,,,,,,,,,,,505.4327,505.9317,,,506.182,506.7079,left,0.5026,,,,,,,,,0.45,,,,,,505.9317,506.182,506.708,"[0.11182713548909186,0.14169845417543545]","[-1,-1,-1]","[0.025203892117261158,0.19336341123848474]","[-1,-1,-1]","[-0.09985846249301138,-0.14354534262946458]","[1,1,1]","[0.07177342559232623,0.02000967181601569]","[-1,-1,-1]","[0.09898987823321986,-0.07270138483862974]","[-1,-1,-1]","[0.000990809546259318,-0.011178888925132352]","[-1,-1,-1]","[-0.028197015633944878,0.14870078656747468]","[1,1,1]","[0.04607936750412203,-0.1392744078778561]","[-1,-1,-1]","[-0.0434678587819795,-0.09469488503461908]","[-1,-1,-1]","[0.13578488428490998,-0.04432895229358028]","[-1,-1,-1]","[0.18796433220960107,0.04822423036632554]","[-1,-1,-1]","[-0.09188878703610838,-0.08261150227961837]","[1,1,1]","[-0.050175749390929586,0.008859729321405057]","[1,1,1]","[-0.11301106959079725,0.014007999138155671]","[1,1,1]","[-0.0857978142094816,0.1077661203912752]","[-1,-1,-1]","[0.09400721691857737,-0.16318787014255615]","[1,1,1]","[-0.18344605510441664,0.07538153047443934]","[-1,-1,-1]","[-0.036341489867169105,-0.04308841503475693]","[-1,-1,-1]","[-0.04616860104352977,0.07995037382043155]","[-1,-1,-1]","[0.12016389076671936,0.004403648682419435]","[-1,-1,-1]","[0.08147036373617074,0.0632676928448188]","[-1,-1,-1]","[0.16713344420165174,-0.07444175559048606]","[1,1,1]","[-0.012566315166786206,-0.16580400827280492]","[1,1,1]","[0.037618336417987924,-0.08930578491914716]","[1,1,1]","[-0.07823852205210301,0.1562086287985671]","[-1,-1,-1]","[-0.14334021926127416,-0.06618665245110106]","[-1,-1,-1]","[0.061198336874008885,0.17430013574146458]","[1,1,1]","[-0.0766224404706837,-0.0427958136565486]","[1,1,1]","[0.18199370676201823,-0.025888582079511953]","[-1,-1,-1]","[0.1496843310507286,0.12288239144023701]","[1,1,1]","[-0.18631185967890715,-0.02880569915324329]","[1,1,1]","[0.11290384790291592,0.1004695793455454]","[1,1,1]","[0.02,0.02]",507.8076,0,38,38,76,1,,,,,,,
,,,,,,,60e858204e148e07ef3ef257,682f0fbe5366b8c193d3c329,2025-05-22_14h51.45.560,cuing_paradigm_dot,2024.1.5,Win32,59.88023952,682d573fa47f1360d1451895,,,,,,,,,,,507.8087,508.3082,,,508.5586,508.8589,right,0.2888,,,,,,,,,0.6,,,,,,508.3082,508.5586,508.8591,"[-0.09607717437913423,-0.07843562797069875]","[1,1,1]","[0.01048428595619079,-0.18435352254068327]","[-1,-1,-1]","[0.04808542095348853,-0.018274499850921527]","[-1,-1,-1]","[-0.07638098644922513,0.037833434111054685]","[-1,-1,-1]","[0.06438458244592084,0.1638336109109149]","[1,1,1]","[-0.18263280220729294,-0.00001906882656773767]","[1,1,1]","[-0.029954285141038484,-0.012564954760770361]","[1,1,1]","[0.06879213384941694,0.11728412742135952]","[1,1,1]","[-0.01931238442934568,0.15334728486428878]","[1,1,1]","[-0.07372851538220793,0.12183175479082807]","[1,1,1]","[0.15284727363752731,-0.11248037530333803]","[-1,-1,-1]","[-0.02478082129181864,-0.05290733814251477]","[-1,-1,-1]","[0.10719514909227365,0.16142722685422914]","[1,1,1]","[-0.08493655932858202,0.1775744080400963]","[1,1,1]","[0.10485260460988605,0.07427852380349957]","[1,1,1]","[-0.15825052593713493,0.11603530388200667]","[1,1,1]","[0.13032388874274356,0.018663048706646302]","[1,1,1]","[0.08629747207384757,-0.14538800243494318]","[-1,-1,-1]","[0.08103046315824754,-0.05242607241745807]","[-1,-1,-1]","[-0.13876189892470142,-0.031883348158719335]","[-1,-1,-1]","[0.18115786427884611,0.058285679880392995]","[-1,-1,-1]","[-0.011698615870887255,0.10367487909523969]","[-1,-1,-1]","[-0.11635767019006446,0.06095535749642997]","[1,1,1]","[0.04529482355984159,0.07196590005475566]","[1,1,1]","[-0.14381335630470338,-0.1249484716214406]","[-1,-1,-1]","[-0.1813465276361746,-0.07389685268405753]","[1,1,1]","[-0.07646694598332524,-0.03631681882993687]","[1,1,1]","[0.028894973187207355,-0.10990052069361653]","[1,1,1]","[-0.07480960534196611,-0.15092328547963396]","[-1,-1,-1]","[0.07888921253864345,0.0342034670650174]","[1,1,1]","[-0.044294227264994296,0.07501367671064675]","[1,1,1]","[0.1211530216354307,-0.025028652958101777]","[-1,-1,-1]","[0.02,0.02]",509.9582,0,39,39,178,1,,,,,,,
,,,,,,,60e858204e148e07ef3ef257,682f0fbe5366b8c193d3c329,2025-05-22_14h51.45.560,cuing_paradigm_dot,2024.1.5,Win32,59.88023952,682d573fa47f1360d1451895,,,,,,,,,,,509.9591,510.4575,,,510.7087,511.0133,right,0.2905,,,,,,,,,0.45,,,,,,510.4575,510.7087,511.0134,"[-0.004134634730944558,0.015654669834579117]","[-1,-1,-1]","[0.00028902839022537793,0.06725406717066855]","[1,1,1]","[0.1454181539022457,-0.04745224246452757]","[1,1,1]","[-0.09971698413284263,-0.1297280754955601]","[-1,-1,-1]","[-0.1822043167170548,-0.053362241718322226]","[-1,-1,-1]","[0.18354149354635743,0.015683845338796448]","[-1,-1,-1]","[-0.04595980224638669,0.139795990883614]","[1,1,1]","[0.08871782391155332,-0.13245475615754565]","[-1,-1,-1]","[0.13224894145724822,-0.09297849979059976]","[1,1,1]","[0.17255606493129932,0.06341491970466719]","[-1,-1,-1]","[0.1076741791480198,-0.02346794109792011]","[1,1,1]","[0.05338528361955692,-0.05300578981643584]","[-1,-1,-1]","[-0.1099007174109604,0.07524678769675482]","[1,1,1]","[0.020913152311680904,-0.13265023349617613]","[-1,-1,-1]","[-0.020227632004355914,-0.15233947129776923]","[-1,-1,-1]","[0.044972656811102525,0.12118735213503254]","[-1,-1,-1]","[0.08140452173739596,0.16265971203457683]","[1,1,1]","[-0.16965301804056385,0.09711479347134003]","[-1,-1,-1]","[-0.14512064424175805,-0.01894149756422884]","[-1,-1,-1]","[-0.024805962058787316,-0.026656556988680077]","[-1,-1,-1]","[0.08895233971614841,0.015564770244425388]","[1,1,1]","[-0.14406937277673307,0.044610737644314113]","[-1,-1,-1]","[0.12973387555874716,0.12759739522253533]","[-1,-1,-1]","[0.02084701873799641,-0.022304544865622958]","[1,1,1]","[-0.06803578848939695,-0.05261339951006395]","[-1,-1,-1]","[-0.053367872536025686,0.02587554538384421]","[1,1,1]","[0.13961680477879246,-0.13938413453743603]","[1,1,1]","[0.1439126332602829,0.030167930787884753]","[-1,-1,-1]","[-0.10294046099106371,0.13189381426220875]","[1,1,1]","[-0.08511658331689369,-0.002508439185933348]","[1,1,1]","[-0.1547222794877218,-0.10685373511091317]","[-1,-1,-1]","[0.0033899299897721166,0.12371177374389579]","[1,1,1]","[0.02,0.02]",512.1081,0,40,40,63,1,,,,,,,
,,,,,,,60e858204e148e07ef3ef257,682f0fbe5366b8c193d3c329,2025-05-22_14h51.45.560,cuing_paradigm_dot,2024.1.5,Win32,59.88023952,682d573fa47f1360d1451895,,,,,,,,,,,512.109,512.6083,,,512.8643,513.2767,left,0.3878,,,,,,,,,0.9,,,,,,512.6084,512.8643,513.2769,"[-0.11012525341295194,-0.09256830299701584]","[1,1,1]","[-0.14717423849129282,-0.045211392041289405]","[1,1,1]","[-0.14582775795540606,-0.13666024879688016]","[1,1,1]","[-0.16583109952002706,0.06635206507202145]","[1,1,1]","[-0.024602238467222225,0.13966702663076733]","[1,1,1]","[-0.119008530781798,0.15738021248543196]","[1,1,1]","[-0.001510664309886293,0.05201211220132104]","[-1,-1,-1]","[0.1091244892621568,-0.007943982353388368]","[1,1,1]","[0.007437400542081684,-0.0789267098182581]","[1,1,1]","[0.11973904474934047,0.1208388538947365]","[1,1,1]","[0.09405830453168482,-0.10923718706507513]","[1,1,1]","[-0.073518452283192,0.16837854189267407]","[1,1,1]","[-0.022753846952734285,-0.03436704755506431]","[1,1,1]","[0.13045397901968706,0.026421184286284923]","[1,1,1]","[0.047118709265230645,-0.03833959115447799]","[-1,-1,-1]","[-0.04847531335529267,-0.07700287415965618]","[-1,-1,-1]","[0.11351840476011367,-0.059170947983421915]","[1,1,1]","[-0.16822076094412763,-0.09922121266729517]","[1,1,1]","[0.044765127074282464,0.042752624876898404]","[1,1,1]","[-0.03731683459281165,0.18955133978400057]","[1,1,1]","[0.07951154754209067,0.167497761416491]","[1,1,1]","[0.03934320991081247,0.11345517482423075]","[1,1,1]","[-0.0744826076988608,-0.15171549453648991]","[1,1,1]","[-0.07344021446569139,0.07710072918244282]","[1,1,1]","[-0.12137259401511251,0.09944074341850068]","[1,1,1]","[0.13198476697208777,-0.13237080140310484]","[1,1,1]","[0.04698054986670094,-0.18997408763457116]","[1,1,1]","[-0.07571698960341003,-0.02401213859852377]","[1,1,1]","[0.1097426145958595,0.07228148371568878]","[1,1,1]","[0.17240616752597793,0.08796006173350068]","[1,1,1]","[0.0218994344615725,-0.11656205791039234]","[1,1,1]","[0.18924890537849998,-0.04637415322601174]","[1,1,1]","[0.02,0.02]",514.3751,0,41,41,207,1,,,,,,,
,,,,,,,60e858204e148e07ef3ef257,682f0fbe5366b8c193d3c329,2025-05-22_14h51.45.560,cuing_paradigm_dot,2024.1.5,Win32,59.88023952,682d573fa47f1360d1451895,,,,,,,,,,,514.3766,514.8751,,,515.1146,515.5934,left,0.4604,,,,,,,,,0.4,,,,,,514.8752,515.1145,515.5939,"[-0.01674027619716092,-0.14400901379903625]","[1,1,1]","[0.10276889781771895,0.1396715889184641]","[-1,-1,-1]","[-0.004054696557098717,-0.0426018657160824]","[1,1,1]","[0.14037755143655267,-0.12405639420246993]","[1,1,1]","[0.04380677956395891,-0.03281711230196955]","[-1,-1,-1]","[-0.1770432783626018,0.029218431655115774]","[1,1,1]","[0.039745755927803786,-0.19366842132669004]","[-1,-1,-1]","[0.026160420546560075,0.11418330344149258]","[-1,-1,-1]","[0.10993941439623206,-0.15403220485041483]","[1,1,1]","[0.18370296978952178,-0.036557556435464024]","[-1,-1,-1]","[-0.11924060993400659,-0.1283129799186839]","[-1,-1,-1]","[-0.07809767478706646,-0.0014509340813681818]","[-1,-1,-1]","[-0.09595191820281895,0.10920934551863003]","[1,1,1]","[0.010221708576312829,0.17671889743815966]","[1,1,1]","[-0.10822954501685549,-0.028664601487442643]","[-1,-1,-1]","[-0.0438870510747693,0.06913417985931468]","[-1,-1,-1]","[-0.16803530690889132,-0.09468775972346087]","[-1,-1,-1]","[0.017713957610602078,0.03555680725174506]","[1,1,1]","[0.05241244124472528,0.0733851737878728]","[1,1,1]","[-0.17065372588644623,0.10296950542414154]","[1,1,1]","[-0.12785077922085528,0.03128267673613876]","[-1,-1,-1]","[0.02363109163053608,-0.1120346772044592]","[1,1,1]","[-0.050202524370423884,-0.11536518805314958]","[-1,-1,-1]","[0.19029300300326718,0.018997882229552756]","[1,1,1]","[0.0658743022488004,-0.15231545617160647]","[-1,-1,-1]","[0.05480895440268066,0.16390812334608057]","[-1,-1,-1]","[0.1289801648628344,0.03535543904824252]","[-1,-1,-1]","[-0.11775908960085787,0.15156658917574242]","[-1,-1,-1]","[-0.17187888939741985,-0.033409005913343566]","[1,1,1]","[0.156469486644245,0.12241791412109528]","[-1,-1,-1]","[0.11240748454213503,-0.08558189831384401]","[-1,-1,-1]","[0.12746348370515065,-0.009076974369740153]","[-1,-1,-1]","[0.02,0.02]",516.6918,0,42,42,38,1,,,,,,,
,,,,,,,60e858204e148e07ef3ef257,682f0fbe5366b8c193d3c329,2025-05-22_14h51.45.560,cuing_paradigm_dot,2024.1.5,Win32,59.88023952,682d573fa47f1360d1451895,,,,,,,,,,,516.6935,517.1917,,,517.443,517.8265,right,0.3579,,,,,,,,,0.55,,,,,,517.1919,517.4429,517.8266,"[0.10824997063906079,0.04517629594525148]","[-1,-1,-1]","[-0.11632488892779841,-0.017542427314638332]","[1,1,1]","[-0.011467626308866611,-0.14709925366156698]","[-1,-1,-1]","[-0.09865696715460223,0.1639613317507557]","[1,1,1]","[-0.04107829651251697,-0.04678237249264519]","[1,1,1]","[0.002673906272959906,-0.09349026970615588]","[-1,-1,-1]","[-0.1684986587477299,-0.06832345954318433]","[1,1,1]","[0.11116579055788234,-0.08874901410654942]","[-1,-1,-1]","[-0.07505618384241271,-0.18037674466979634]","[1,1,1]","[0.06220003104436116,0.015311162950898185]","[-1,-1,-1]","[-0.07145513918727465,0.058747541325576164]","[-1,-1,-1]","[0.04730058587823317,0.07788678503804773]","[-1,-1,-1]","[-0.1508489468863086,-0.11856831561398916]","[1,1,1]","[0.10019681826981144,0.16227920372767288]","[-1,-1,-1]","[-0.048886398437873395,0.16357936863789924]","[1,1,1]","[0.08318029007576892,0.09853821757211587]","[-1,-1,-1]","[0.06757363831623729,-0.15216609831491917]","[1,1,1]","[0.013638232713964542,-0.008497514404045746]","[-1,-1,-1]","[-0.12770656517958784,0.05255845138746675]","[1,1,1]","[0.13244906069949952,-0.13175951280337825]","[1,1,1]","[-0.02751159399517803,0.0706584044915592]","[-1,-1,-1]","[0.012521026308752794,0.1691065071200113]","[-1,-1,-1]","[0.17722977661517741,-0.028858525869790607]","[1,1,1]","[0.057349679490740366,-0.04437245525748377]","[1,1,1]","[-0.1711910578854269,0.04660472422339047]","[1,1,1]","[0.13779692535245505,0.0024118979745782906]","[-1,-1,-1]","[0.19665941429271266,0.006395327440852824]","[1,1,1]","[0.030418896151500226,0.11733833947152071]","[1,1,1]","[0.15707562103266492,0.08655282584229462]","[-1,-1,-1]","[-0.05447147616548417,-0.11097861834737954]","[1,1,1]","[-0.10531952952516613,-0.08158975303564837]","[1,1,1]","[0.16588502527777774,0.04214569042413504]","[1,1,1]","[0.02,0.02]",518.9257,0,43,43,135,1,,,,,,,
,,,,,,,60e858204e148e07ef3ef257,682f0fbe5366b8c193d3c329,2025-05-22_14h51.45.560,cuing_paradigm_dot,2024.1.5,Win32,59.88023952,682d573fa47f1360d1451895,,,,,,,,,,,518.9274,519.4252,,,519.6763,519.9597,right,0.254,,,,,,,,,0.55,,,,,,519.4254,519.6761,519.96,"[-0.0044830212012722664,0.0024123143573887376]","[-1,-1,-1]","[0.07148669701025616,0.09260298935374642]","[1,1,1]","[-0.14142012821053349,0.013525794848293285]","[-1,-1,-1]","[0.0038588509122285,0.12339500691216644]","[-1,-1,-1]","[-0.11519652761322657,0.1321275092024569]","[-1,-1,-1]","[-0.12837496180245336,-0.05121774540590613]","[-1,-1,-1]","[-0.0946228483011944,0.045103928744563065]","[1,1,1]","[-0.0809115722115054,0.1089119955409739]","[1,1,1]","[-0.1160036596818243,-0.13101184497211033]","[1,1,1]","[0.11199918973564743,-0.03576338146957537]","[-1,-1,-1]","[0.1425361059195092,-0.12764834979529688]","[-1,-1,-1]","[-0.004500999427153164,-0.04495754791330371]","[-1,-1,-1]","[0.033674047951015945,0.16255309273883026]","[-1,-1,-1]","[0.1804956487992574,-0.042211553224322615]","[-1,-1,-1]","[-0.053733891486725395,0.013224947348158931]","[1,1,1]","[-0.16528986084453642,0.09267180932480723]","[1,1,1]","[0.16959243012921937,0.06785849084081585]","[-1,-1,-1]","[0.04557178029191333,0.022685915118779293]","[-1,-1,-1]","[0.1682829062812391,-0.0001603068908990211]","[1,1,1]","[-0.18142695239899892,-0.07857226376595358]","[1,1,1]","[0.03106825822080933,-0.07298939536721871]","[1,1,1]","[-0.04630989000328948,-0.1339604196572394]","[1,1,1]","[-0.10461440907244218,-0.08555699725699248]","[1,1,1]","[0.016542681504679357,0.08479235978899616]","[1,1,1]","[-0.07039253235915624,0.17642947304966303]","[1,1,1]","[0.11200522747904496,-0.09671926252149086]","[1,1,1]","[-0.18832129058358643,0.018134485216877407]","[1,1,1]","[0.02858461419570805,-0.13299441822603603]","[1,1,1]","[0.06953985296536183,-0.04594047921053016]","[-1,-1,-1]","[-0.06475096859852945,-0.04902392040055243]","[1,1,1]","[0.1815007593977478,-0.08240998378337902]","[-1,-1,-1]","[0.06463561477397337,-0.18595018371842467]","[1,1,1]","[0.02,0.02]",521.0585,0,44,44,140,1,,,,,,,
