right,left,explain.started,explain.stopped,key_resp_3.keys,key_resp_3.rt,key_resp_3.duration,participant,session,date,expName,psychopyVersion,OS,frameRate,study_id,explain_2.started,explain_2.stopped,key_resp_4.keys,key_resp_4.rt,key_resp_4.duration,explain_3.started,explain_3.stopped,key_resp_5.keys,key_resp_5.rt,key_resp_5.duration,fixation.started,fixation.stopped,practice.started,practice.stopped,response.started,response.stopped,key_resp.keys,feedback.started,feedback.stopped,trials_2.thisRepN,trials_2.thisTrialN,trials_2.thisN,trials_2.thisIndex,trials_2.ran,white_ratio,key_resp.rt,key_resp.duration,explain_4.started,explain_4.stopped,key_resp_6.keys,key_resp_6.rt,key_resp_6.duration,dotDisplay.started,dotDisplay.stopped,ITI.started,polygon_1.pos,polygon_1.color,polygon_2.pos,polygon_2.color,polygon_3.pos,polygon_3.color,polygon_4.pos,polygon_4.color,polygon_5.pos,polygon_5.color,polygon_6.pos,polygon_6.color,polygon_7.pos,polygon_7.color,polygon_8.pos,polygon_8.color,polygon_9.pos,polygon_9.color,polygon_10.pos,polygon_10.color,polygon_11.pos,polygon_11.color,polygon_12.pos,polygon_12.color,polygon_13.pos,polygon_13.color,polygon_14.pos,polygon_14.color,polygon_15.pos,polygon_15.color,polygon_16.pos,polygon_16.color,polygon_17.pos,polygon_17.color,polygon_18.pos,polygon_18.color,polygon_19.pos,polygon_19.color,polygon_20.pos,polygon_20.color,polygon_21.pos,polygon_21.color,polygon_22.pos,polygon_22.color,polygon_23.pos,polygon_23.color,polygon_24.pos,polygon_24.color,polygon_25.pos,polygon_25.color,polygon_26.pos,polygon_26.color,polygon_27.pos,polygon_27.color,polygon_28.pos,polygon_28.color,polygon_29.pos,polygon_29.color,polygon_30.pos,polygon_30.color,polygon_31.pos,polygon_31.color,polygon_32.pos,polygon_32.color,dot_size,ITI.stopped,trials.thisRepN,trials.thisTrialN,trials.thisN,trials.thisIndex,trials.ran,break_2.started,break_2.stopped,trials_3.thisRepN,trials_3.thisTrialN,trials_3.thisN,trials_3.thisIndex,trials_3.ran
subject chose white,subject chose black,0.0005,69.9559,space,54.9381,,610299d092eb1df29a1c88b6,682db41bde37fdf647aea495,2025-05-21_13h08.58.420,cuing_paradigm_dot,2024.1.5,Win32,60.60606061,682d556593cb38ad0a074487,,,,,,,,,,,,,,,,,,,,,,,,,,,,,,,,,,,,,,,,,,,,,,,,,,,,,,,,,,,,,,,,,,,,,,,,,,,,,,,,,,,,,,,,,,,,,,,,,,,,,,,,,,,,,,,,,
,,,,,,,610299d092eb1df29a1c88b6,682db41bde37fdf647aea495,2025-05-21_13h08.58.420,cuing_paradigm_dot,2024.1.5,Win32,60.60606061,682d556593cb38ad0a074487,69.9561,159.2776,space,59.3112,,,,,,,,,,,,,,,,,,,,,,,,,,,,,,,,,,,,,,,,,,,,,,,,,,,,,,,,,,,,,,,,,,,,,,,,,,,,,,,,,,,,,,,,,,,,,,,,,,,,,,,,,,,,,
,,,,,,,610299d092eb1df29a1c88b6,682db41bde37fdf647aea495,2025-05-21_13h08.58.420,cuing_paradigm_dot,2024.1.5,Win32,60.60606061,682d556593cb38ad0a074487,,,,,,159.2778,166.9949,space,4.6869,,,,,,,,,,,,,,,,,,,,,,,,,,,,,,,,,,,,,,,,,,,,,,,,,,,,,,,,,,,,,,,,,,,,,,,,,,,,,,,,,,,,,,,,,,,,,,,,,,,,,,,,
,,,,,,,610299d092eb1df29a1c88b6,682db41bde37fdf647aea495,2025-05-21_13h08.58.420,cuing_paradigm_dot,2024.1.5,Win32,60.60606061,682d556593cb38ad0a074487,,,,,,,,,,,167.0075,167.5115,167.5118,167.7615,167.7616,169.2617,,169.2618,170.3615,0,0,0,0,1,0.8,,,,,,,,,,,,,,,,,,,,,,,,,,,,,,,,,,,,,,,,,,,,,,,,,,,,,,,,,,,,,,,,,,,,,,,,,,,,,,,,,,,,,,,,
,,,,,,,610299d092eb1df29a1c88b6,682db41bde37fdf647aea495,2025-05-21_13h08.58.420,cuing_paradigm_dot,2024.1.5,Win32,60.60606061,682d556593cb38ad0a074487,,,,,,,,,,,170.3618,170.8449,170.845,171.0951,171.0951,171.7116,left,171.7117,172.8116,0,1,1,1,1,0.2,0.6111,,,,,,,,,,,,,,,,,,,,,,,,,,,,,,,,,,,,,,,,,,,,,,,,,,,,,,,,,,,,,,,,,,,,,,,,,,,,,,,,,,,,,,,
,,,,,,,610299d092eb1df29a1c88b6,682db41bde37fdf647aea495,2025-05-21_13h08.58.420,cuing_paradigm_dot,2024.1.5,Win32,60.60606061,682d556593cb38ad0a074487,,,,,,,,,,,,,,,,,,,,,,,,,,,,172.8118,180.8956,space,5.0733,,,,,,,,,,,,,,,,,,,,,,,,,,,,,,,,,,,,,,,,,,,,,,,,,,,,,,,,,,,,,,,,,,,,,,,,,,,,,,,,,,
,,,,,,,610299d092eb1df29a1c88b6,682db41bde37fdf647aea495,2025-05-21_13h08.58.420,cuing_paradigm_dot,2024.1.5,Win32,60.60606061,682d556593cb38ad0a074487,,,,,,,,,,,180.9035,181.3955,,,181.6457,182.229,left,,,,,,,,0.55,0.5733,,,,,,,181.3956,181.6457,182.2292,"[-0.08674349008253815,-0.08362086714198526]","[1,1,1]","[0.029177707123640793,0.15798994241006045]","[1,1,1]","[0.1765491871909885,-0.017599025005151446]","[1,1,1]","[-0.11099792590384923,0.10823578054475577]","[-1,-1,-1]","[0.11351222139901891,0.09752874954452274]","[-1,-1,-1]","[0.05886613295085082,-0.1819614050566138]","[1,1,1]","[0.0641082951826994,0.10735108007539693]","[-1,-1,-1]","[-0.04611247551115923,-0.16392741201740857]","[-1,-1,-1]","[-0.12808990180338617,-0.04873454708012646]","[1,1,1]","[0.06254434064314397,-0.038427521638871476]","[-1,-1,-1]","[-0.12736524560385976,-0.13802911991889166]","[1,1,1]","[0.19380028652671763,0.0333082697211077]","[1,1,1]","[-0.17954916727177359,0.038635778168984815]","[-1,-1,-1]","[-0.06127843013769326,0.05921071402206461]","[1,1,1]","[-0.029221549797665544,-0.09241400468314659]","[1,1,1]","[0.0006790757103070491,-0.007488029069362158]","[1,1,1]","[0.07980010637867975,0.03123100389559896]","[-1,-1,-1]","[0.07564874385226919,-0.10182486625191825]","[1,1,1]","[-0.036055449827678714,0.19308950872079372]","[-1,-1,-1]","[-0.1685542430356274,-0.06536354655500161]","[-1,-1,-1]","[0.16039364081191512,0.11070064516955692]","[1,1,1]","[-0.09573456450663377,-0.025020576127667896]","[-1,-1,-1]","[-0.122346558983063,0.045262171749967973]","[1,1,1]","[0.11124384889401341,-0.16204220252167092]","[-1,-1,-1]","[0.005815259248351351,0.06002162494445018]","[1,1,1]","[0.10723655590084714,-0.037984349277616646]","[1,1,1]","[-0.07173019373147876,0.1496842061720906]","[-1,-1,-1]","[-0.021949498937660645,0.1449705946177931]","[1,1,1]","[0.11415259657785512,0.010668021140600257]","[1,1,1]","[0.14247918062658063,-0.060494172088267746]","[-1,-1,-1]","[0.013520997074576652,0.10133589317664854]","[1,1,1]","[-0.14135369698391576,0.009320011573445447]","[-1,-1,-1]","[0.02,0.02]",183.329,0,0,0,139,1,,,,,,,
,,,,,,,610299d092eb1df29a1c88b6,682db41bde37fdf647aea495,2025-05-21_13h08.58.420,cuing_paradigm_dot,2024.1.5,Win32,60.60606061,682d556593cb38ad0a074487,,,,,,,,,,,183.3293,183.829,,,184.0791,184.5124,right,,,,,,,,0.6,0.4218,,,,,,,183.829,184.0791,184.5124,"[0.0536588673642517,0.050645283000054886]","[-1,-1,-1]","[0.1643176927112171,-0.04941084510634289]","[-1,-1,-1]","[0.007915608605031406,0.003749405849124181]","[1,1,1]","[-0.016209229583373983,-0.15006445654750417]","[1,1,1]","[0.10740176217706374,0.06590926703380762]","[1,1,1]","[-0.11566552206856233,-0.07371145873681949]","[1,1,1]","[-0.02570991133738553,0.03011260558513793]","[1,1,1]","[-0.08166178711038918,0.03921701891794814]","[1,1,1]","[0.04726309318536018,-0.17128466076185048]","[1,1,1]","[-0.07509318107758564,0.11382386641317907]","[-1,-1,-1]","[0.1600685076583114,0.017437861879299896]","[1,1,1]","[-0.0766397169307041,-0.12417195280947071]","[-1,-1,-1]","[0.014667235408103461,0.11024748249159087]","[-1,-1,-1]","[-0.13127046183798635,0.043202905573533575]","[-1,-1,-1]","[-0.12491995959485605,0.14644354851305358]","[1,1,1]","[-0.13331390338645838,-0.13189696966210235]","[1,1,1]","[0.12969359958993532,-0.0700237930606468]","[-1,-1,-1]","[0.01975622857780286,0.18529429408484774]","[1,1,1]","[-0.03978884793821008,0.13711249642214185]","[1,1,1]","[-0.06134770914547041,0.002069274651016999]","[-1,-1,-1]","[0.09045932747695731,0.011151199692256168]","[-1,-1,-1]","[0.06940965094192418,0.09201862770590927]","[-1,-1,-1]","[-0.0884389694306214,-0.03921881562593478]","[-1,-1,-1]","[0.0035280565665015353,-0.19027764918206383]","[-1,-1,-1]","[0.16768656972095938,0.07598118283382219]","[1,1,1]","[-0.18845586466363973,-0.0473772784426003]","[1,1,1]","[-0.144741688582097,-0.0021194507003116964]","[1,1,1]","[0.014956809595499167,-0.0818152296090156]","[-1,-1,-1]","[0.06215241206595537,0.18178520968268727]","[1,1,1]","[0.057291177920742634,-0.04401281642495224]","[1,1,1]","[0.13206697130659337,0.12808285783830975]","[1,1,1]","[-0.04000701925770027,0.09196737289437878]","[1,1,1]","[0.02,0.02]",185.6124,0,1,1,155,1,,,,,,,
,,,,,,,610299d092eb1df29a1c88b6,682db41bde37fdf647aea495,2025-05-21_13h08.58.420,cuing_paradigm_dot,2024.1.5,Win32,60.60606061,682d556593cb38ad0a074487,,,,,,,,,,,185.6125,186.1124,,,186.3626,186.7124,left,,,,,,,,0.1,0.3441,,,,,,,186.1124,186.3626,186.7125,"[-0.09709969999932158,0.02532603497664547]","[-1,-1,-1]","[0.10001202506856276,-0.13519926951662412]","[-1,-1,-1]","[-0.10224403913085031,-0.1391840361151109]","[-1,-1,-1]","[-0.060735865648147785,-0.1533815495334201]","[-1,-1,-1]","[0.017641083416632765,-0.007065786098605269]","[-1,-1,-1]","[0.10002449976962685,0.1559629359747055]","[-1,-1,-1]","[0.09657824259090964,0.06277899947422431]","[-1,-1,-1]","[-0.018040825762767953,0.057259051130925345]","[-1,-1,-1]","[-0.1321434609060318,-0.04556061803725509]","[-1,-1,-1]","[0.1377921327186314,0.029671556284423622]","[-1,-1,-1]","[0.08880878824201709,-0.09277778688700497]","[-1,-1,-1]","[-0.049195391874185763,0.1835292544498746]","[-1,-1,-1]","[-0.04122699284288428,0.13051329951929724]","[-1,-1,-1]","[-0.11310641466947825,0.13779491678768643]","[1,1,1]","[0.01550385556109742,-0.07440882566038672]","[-1,-1,-1]","[0.10904050649446177,-0.037766923551213145]","[-1,-1,-1]","[0.18105698798494577,-0.020650470730655516]","[-1,-1,-1]","[-0.08709287692631919,-0.04531354069088986]","[-1,-1,-1]","[0.1660387093807319,-0.07344688077192561]","[-1,-1,-1]","[0.024887130731076464,0.10289554676377519]","[-1,-1,-1]","[0.05747142904162975,-0.019000478403068122]","[1,1,1]","[-0.04351816392522566,0.01791511188942949]","[-1,-1,-1]","[0.1346441908483868,0.09869423379603327]","[-1,-1,-1]","[-0.09745066741830095,0.07313335981880002]","[-1,-1,-1]","[0.08057359487678319,0.019238050516046216]","[-1,-1,-1]","[-0.18690956864799152,0.010474962253240365]","[-1,-1,-1]","[-0.028853401743073905,-0.039492813404809556]","[-1,-1,-1]","[-0.023781263834121193,-0.09993703771414292]","[-1,-1,-1]","[0.04396925550020201,-0.1430522085110487]","[-1,-1,-1]","[0.052744967086678654,-0.18548396825382987]","[-1,-1,-1]","[-0.17115860193562604,-0.05593199364346437]","[-1,-1,-1]","[0.03776830263278779,0.033288302371945966]","[1,1,1]","[0.02,0.02]",187.8126,0,2,2,21,1,,,,,,,
,,,,,,,610299d092eb1df29a1c88b6,682db41bde37fdf647aea495,2025-05-21_13h08.58.420,cuing_paradigm_dot,2024.1.5,Win32,60.60606061,682d556593cb38ad0a074487,,,,,,,,,,,187.8128,188.3126,,,188.5628,189.2293,left,,,,,,,,0.45,0.65,,,,,,,188.3126,188.5628,189.2294,"[-0.1283677031928785,0.09146541706156232]","[-1,-1,-1]","[-0.04362674799167091,0.16455823934198072]","[-1,-1,-1]","[-0.024063144286124757,-0.06211902906294584]","[-1,-1,-1]","[-0.11145465631931159,-0.0797192997244959]","[-1,-1,-1]","[-0.12547326966229755,-0.005488190155930611]","[1,1,1]","[0.11967325188335036,-0.025592481055823835]","[1,1,1]","[0.12999815793988906,0.05893094409315352]","[1,1,1]","[0.0421455520691503,-0.035729565887315774]","[-1,-1,-1]","[-0.05839018445682825,-0.12561820084788136]","[-1,-1,-1]","[0.01689253617949902,0.14095700327935193]","[1,1,1]","[0.08601674006834299,-0.06838540429502356]","[1,1,1]","[-0.05304194382969266,0.015635823779009777]","[-1,-1,-1]","[0.0578664691376351,-0.12006893896589403]","[1,1,1]","[0.06325502226512182,0.04950832552222805]","[1,1,1]","[0.18350340425670264,-0.05313245845997612]","[1,1,1]","[0.17931824106594466,0.027540095553007855]","[1,1,1]","[0.11189472858548155,-0.16230863352815572]","[-1,-1,-1]","[-0.001008151071307119,0.0827093352274538]","[-1,-1,-1]","[-0.09165718452609352,-0.032613412013981345]","[-1,-1,-1]","[-0.0028505660378383355,-0.16907267293120912]","[-1,-1,-1]","[-0.16962442402195424,0.06676397211013513]","[-1,-1,-1]","[-0.175847987049697,0.022498387532544538]","[-1,-1,-1]","[-0.0677681974283623,-0.08137928617367246]","[-1,-1,-1]","[0.0958049144575091,0.09228127945841767]","[-1,-1,-1]","[-0.033804909883838656,0.11753777708130939]","[1,1,1]","[-0.05866125973672245,-0.17439291043243432]","[1,1,1]","[0.16654834543456662,-0.11057905801551486]","[1,1,1]","[-0.175088048235461,-0.06992690634114722]","[-1,-1,-1]","[-0.10964654008194775,0.16629889022117228]","[-1,-1,-1]","[0.043130484089807235,-0.1706280237272697]","[1,1,1]","[0.07624626606200517,0.1575772083931882]","[-1,-1,-1]","[-0.011104144471152627,0.04041787407580247]","[1,1,1]","[0.02,0.02]",190.3293,0,3,3,60,1,,,,,,,
,,,,,,,610299d092eb1df29a1c88b6,682db41bde37fdf647aea495,2025-05-21_13h08.58.420,cuing_paradigm_dot,2024.1.5,Win32,60.60606061,682d556593cb38ad0a074487,,,,,,,,,,,190.3295,190.8293,,,191.0795,191.6461,right,,,,,,,,0.45,0.5633,,,,,,,190.8293,191.0795,191.6462,"[-0.10546685281837247,-0.04248196844734783]","[1,1,1]","[0.011503703501299369,-0.09167946224713222]","[-1,-1,-1]","[0.14612801303526518,-0.005524951458998187]","[1,1,1]","[0.09034508817682928,-0.17230897779436247]","[-1,-1,-1]","[0.037401183263736995,0.12416693831013133]","[1,1,1]","[0.07362539849978265,-0.059293605329587315]","[-1,-1,-1]","[0.12533476007773703,-0.07111644272680355]","[-1,-1,-1]","[-0.05051031858470319,0.03275859232628661]","[-1,-1,-1]","[0.10552875365366242,0.13624613247841477]","[-1,-1,-1]","[-0.02254827534403274,0.09577987207393084]","[1,1,1]","[0.026214270818524885,0.03945328887547571]","[1,1,1]","[0.15861831641983515,0.04749690638940767]","[1,1,1]","[-0.09921915761851863,0.00008856352003033714]","[-1,-1,-1]","[0.006332154579614843,-0.1815121931158261]","[-1,-1,-1]","[-0.18425112431317184,0.06217522246880691]","[-1,-1,-1]","[-0.12473317381844154,-0.09108133953623364]","[-1,-1,-1]","[-0.004355712431993431,0.1834119319808089]","[1,1,1]","[0.021442744914768004,-0.03854821257244053]","[1,1,1]","[0.05889215638147107,-0.1385493931072424]","[-1,-1,-1]","[0.0744197999013876,0.17631918540962704]","[-1,-1,-1]","[0.11095708467789023,0.06803938771765855]","[-1,-1,-1]","[-0.03689471460992235,-0.08545052373122361]","[1,1,1]","[0.1467090619627275,0.10219062767218791]","[-1,-1,-1]","[0.018254258615930885,0.07979230158388104]","[-1,-1,-1]","[-0.12245903802583585,0.059191006277039576]","[1,1,1]","[0.06506105652444072,0.02401122093811478]","[-1,-1,-1]","[0.17396332296383601,-0.0800038391955089]","[1,1,1]","[-0.1749504051584075,-0.005068137758920934]","[-1,-1,-1]","[-0.10772113111000113,0.12078375854211532]","[1,1,1]","[-0.02488621335354726,0.14554565011387385]","[1,1,1]","[-0.07333416258560968,-0.17964118386139385]","[-1,-1,-1]","[-0.08169399167393804,-0.11458678970461522]","[1,1,1]","[0.02,0.02]",192.7462,0,4,4,66,1,,,,,,,
,,,,,,,610299d092eb1df29a1c88b6,682db41bde37fdf647aea495,2025-05-21_13h08.58.420,cuing_paradigm_dot,2024.1.5,Win32,60.60606061,682d556593cb38ad0a074487,,,,,,,,,,,192.7464,193.2461,,,193.4964,193.8629,left,,,,,,,,0.55,0.3545,,,,,,,193.2461,193.4964,193.8629,"[0.13666690674709944,-0.0649151193400923]","[1,1,1]","[0.13050065100795966,-0.12234375201689021]","[-1,-1,-1]","[-0.01549114754426083,0.06011837511072142]","[1,1,1]","[0.030383428538760436,0.12413231235637492]","[-1,-1,-1]","[0.10914847346288728,0.12034210759143008]","[1,1,1]","[-0.1757689119581373,-0.07294199745712548]","[1,1,1]","[-0.029010858044533575,-0.1810508166191828]","[-1,-1,-1]","[0.19012311281833552,0.015902016299054567]","[-1,-1,-1]","[0.053558408557005374,-0.19209769001462776]","[1,1,1]","[-0.10654691953910128,-0.07952060693199786]","[1,1,1]","[0.07393392221389221,-0.15588522324183382]","[-1,-1,-1]","[0.12943961146619756,0.06748700032699517]","[-1,-1,-1]","[0.010603764687137356,-0.1939663334588557]","[-1,-1,-1]","[-0.030776994329894662,0.12712021811755797]","[1,1,1]","[0.06720100050105557,0.026717578910971627]","[1,1,1]","[-0.07181405557388419,-0.14178154036257445]","[-1,-1,-1]","[-0.13018467093321023,-0.13539836623088475]","[1,1,1]","[0.11141570925995982,-0.008067507169767583]","[-1,-1,-1]","[-0.13560543437337527,0.06014397125573953]","[-1,-1,-1]","[0.018020561097465485,-0.06110173032039269]","[-1,-1,-1]","[-0.04905898722820667,-0.036789039017140146]","[-1,-1,-1]","[0.054641406884185326,-0.10801747119005059]","[1,1,1]","[-0.14520081707186216,0.015845548645492542]","[1,1,1]","[-0.002688057691013611,0.016829053041789055]","[1,1,1]","[-0.10036806352512614,0.08697768318049083]","[1,1,1]","[-0.15660525230860986,-0.03094750522859388]","[1,1,1]","[0.07398775683039636,0.1849387640617775]","[-1,-1,-1]","[0.005984673218116314,-0.11286700736726293]","[-1,-1,-1]","[-0.08454169545441684,0.026089168891869047]","[1,1,1]","[-0.04892744686339058,0.17908234676426038]","[1,1,1]","[0.0663312616353146,0.07728478640397184]","[1,1,1]","[0.15181721164108286,0.10405162584651617]","[1,1,1]","[0.02,0.02]",194.9629,0,5,5,129,1,,,,,,,
,,,,,,,610299d092eb1df29a1c88b6,682db41bde37fdf647aea495,2025-05-21_13h08.58.420,cuing_paradigm_dot,2024.1.5,Win32,60.60606061,682d556593cb38ad0a074487,,,,,,,,,,,194.9631,195.4628,,,195.7131,196.0298,left,,,,,,,,0.1,0.2991,,,,,,,195.4628,195.713,196.0298,"[-0.03595953667116011,-0.15515797105055446]","[-1,-1,-1]","[0.06117519840562094,0.007171539276346881]","[-1,-1,-1]","[-0.08577708229467591,0.11170078398749829]","[-1,-1,-1]","[-0.011485706902294399,-0.0008291628060855992]","[-1,-1,-1]","[0.023585028674688886,0.1599009092918587]","[-1,-1,-1]","[0.09238001785172717,-0.03384552850519254]","[-1,-1,-1]","[0.047632576519646544,-0.047741717489506307]","[-1,-1,-1]","[-0.07648605009958757,-0.14783206921628358]","[-1,-1,-1]","[0.08825894441489956,0.06202840903503081]","[1,1,1]","[0.05360955391315561,-0.1379670219936872]","[-1,-1,-1]","[0.12183672692662259,-0.11378924173649765]","[-1,-1,-1]","[0.18239043489497603,-0.02248797287961093]","[-1,-1,-1]","[-0.013569291595337882,0.07639578185956397]","[-1,-1,-1]","[0.020119090600759625,-0.17220177639964918]","[-1,-1,-1]","[0.13490943574073155,0.08340525364523622]","[-1,-1,-1]","[0.01660510202343047,0.10370282888112904]","[-1,-1,-1]","[-0.1071794159715048,-0.028093382909265947]","[-1,-1,-1]","[0.0797515752728863,-0.1820670364154778]","[-1,-1,-1]","[0.14678910389735378,-0.04867477010734058]","[1,1,1]","[-0.0746890859889652,-0.08399174056624618]","[-1,-1,-1]","[0.11105691142887049,-0.15675942116008437]","[-1,-1,-1]","[0.015319695559645144,-0.08252096367204875]","[-1,-1,-1]","[-0.07553132600623197,0.022895624929331452]","[-1,-1,-1]","[-0.05755165081577307,0.07902319571502438]","[-1,-1,-1]","[-0.11368004142091633,0.039329037624024565]","[-1,-1,-1]","[-0.02527322805705373,0.11936152631193557]","[-1,-1,-1]","[-0.04032298407260409,0.19052934267634772]","[-1,-1,-1]","[-0.12751383727518498,0.14836586466176924]","[-1,-1,-1]","[-0.18709571808747966,-0.017704312550453623]","[-1,-1,-1]","[0.08814801352655799,0.1773165268398724]","[-1,-1,-1]","[-0.14991007884174978,0.10204938416890323]","[1,1,1]","[-0.16458559065814019,0.017398999633273397]","[-1,-1,-1]","[0.02,0.02]",197.1296,0,6,6,10,1,,,,,,,
,,,,,,,610299d092eb1df29a1c88b6,682db41bde37fdf647aea495,2025-05-21_13h08.58.420,cuing_paradigm_dot,2024.1.5,Win32,60.60606061,682d556593cb38ad0a074487,,,,,,,,,,,197.1298,197.6298,,,197.8801,198.4632,left,,,,,,,,0.1,0.5792,,,,,,,197.6298,197.8801,198.4632,"[0.10603666812899366,0.13391408300135757]","[-1,-1,-1]","[0.10109364261452124,0.006735926952793457]","[-1,-1,-1]","[-0.011674848258964633,0.18985814200343062]","[1,1,1]","[0.13519455195839028,0.06735027455109815]","[-1,-1,-1]","[-0.19251326977600824,0.022262746124100116]","[-1,-1,-1]","[-0.05079782916594386,0.02762709278703843]","[1,1,1]","[0.15453015723008023,0.1150097328976202]","[-1,-1,-1]","[0.11508683539979955,-0.0990399247927428]","[-1,-1,-1]","[0.13448266846454401,-0.059646837352727015]","[1,1,1]","[-0.07607128400475688,-0.17953923260067225]","[-1,-1,-1]","[-0.1619412159987329,-0.10411883874159757]","[-1,-1,-1]","[-0.0582651004715327,0.17215064261710308]","[-1,-1,-1]","[0.0996735177843566,-0.15429273957350195]","[-1,-1,-1]","[0.19522127744229328,0.026359492023614206]","[-1,-1,-1]","[0.003081730326664252,0.11277586688998083]","[-1,-1,-1]","[-0.052474098795768406,-0.08278684427973781]","[-1,-1,-1]","[-0.128822314339488,-0.033103926248965077]","[-1,-1,-1]","[-0.020956535152952194,-0.13187605321792445]","[-1,-1,-1]","[-0.07731930836653057,0.1034165460417458]","[-1,-1,-1]","[0.04064716705161339,-0.06305937368057597]","[-1,-1,-1]","[0.14717421973099762,0.0069557209300746565]","[-1,-1,-1]","[0.0018854553523849076,-0.1850567644556015]","[-1,-1,-1]","[-0.10978001096514468,-0.07205185395355104]","[-1,-1,-1]","[0.075036764825168,0.10571411595902055]","[-1,-1,-1]","[-0.011751364456729184,0.05369957013956205]","[-1,-1,-1]","[-0.13817162268297856,0.06442621224096848]","[-1,-1,-1]","[0.053111960367057634,-0.18504070036111378]","[-1,-1,-1]","[-0.13411646395630533,0.010270379553034609]","[-1,-1,-1]","[-0.09981491699849585,-0.13933680855158465]","[-1,-1,-1]","[0.16897857381684714,-0.09506230467028297]","[-1,-1,-1]","[0.07068346684119578,0.05138851809721965]","[-1,-1,-1]","[0.05771641367395288,-0.13690449016281372]","[-1,-1,-1]","[0.02,0.02]",199.5631,0,7,7,18,1,,,,,,,
,,,,,,,610299d092eb1df29a1c88b6,682db41bde37fdf647aea495,2025-05-21_13h08.58.420,cuing_paradigm_dot,2024.1.5,Win32,60.60606061,682d556593cb38ad0a074487,,,,,,,,,,,199.5633,200.0632,,,200.3133,200.73,right,,,,,,,,0.55,0.4018,,,,,,,200.0632,200.3133,200.7301,"[-0.10424576899921734,-0.1026266569525159]","[1,1,1]","[0.030816295154966918,-0.1314413691764382]","[-1,-1,-1]","[0.019367090310696517,-0.08536010125936937]","[1,1,1]","[-0.10548803899454305,0.033697233349354205]","[1,1,1]","[0.08230566013107268,0.07884800864612944]","[1,1,1]","[0.021341980045655354,0.010106875526780716]","[-1,-1,-1]","[-0.12539410955151123,0.10424833050285316]","[1,1,1]","[0.12533707926978155,0.039848067876558355]","[-1,-1,-1]","[-0.02421931237510586,0.1524709873678753]","[-1,-1,-1]","[0.13627288367098087,-0.04557238655245002]","[1,1,1]","[-0.01763838841251485,-0.022361402743095827]","[1,1,1]","[-0.15605182424827924,0.03145084379581886]","[1,1,1]","[0.09569566728991763,-0.14298695180336085]","[-1,-1,-1]","[0.10778910551013758,-0.012622149910187265]","[-1,-1,-1]","[-0.04617139906490419,-0.13676888199492973]","[1,1,1]","[-0.12442106780899521,-0.0522591294514563]","[1,1,1]","[0.07359188013980343,0.017316100994781744]","[-1,-1,-1]","[-0.08459263426411374,-0.03201438920469974]","[1,1,1]","[0.13862284000016928,0.12805409914010676]","[-1,-1,-1]","[-0.05002238554833072,0.017985788184726192]","[1,1,1]","[-0.036033944938335755,0.06780094400729939]","[-1,-1,-1]","[-0.08785229424474089,0.13136843238664428]","[1,1,1]","[0.10560999063326491,-0.09778399398230521]","[-1,-1,-1]","[-0.10335162789007786,-0.1627806665489451]","[1,1,1]","[0.02844061941570981,0.12304099317454324]","[-1,-1,-1]","[-0.1864541975443137,-0.03954205558929153]","[-1,-1,-1]","[0.01631410730604575,0.1740089701482154]","[1,1,1]","[0.14774944195827502,0.0828003952034499]","[-1,-1,-1]","[0.19023114752783438,0.043030742927629095]","[1,1,1]","[0.18903888335638933,-0.03867506396506031]","[-1,-1,-1]","[0.03151774743053046,0.05203462937043875]","[1,1,1]","[-0.19304357655079948,0.05006122557753411]","[1,1,1]","[0.02,0.02]",201.8298,0,8,8,144,1,,,,,,,
,,,,,,,610299d092eb1df29a1c88b6,682db41bde37fdf647aea495,2025-05-21_13h08.58.420,cuing_paradigm_dot,2024.1.5,Win32,60.60606061,682d556593cb38ad0a074487,,,,,,,,,,,201.8301,202.3301,,,202.5801,203.38,right,,,,,,,,0.4,0.793,,,,,,,202.3301,202.5801,203.38,"[0.13468789229934686,-0.12259000542953882]","[-1,-1,-1]","[0.07272615512734111,-0.05945323903656344]","[-1,-1,-1]","[-0.06479444715309833,0.012837838191676906]","[-1,-1,-1]","[0.13552367015713057,0.08051133472779325]","[-1,-1,-1]","[-0.13896967254504108,-0.011281200647961943]","[-1,-1,-1]","[-0.0180032740384513,0.12040087315462507]","[1,1,1]","[-0.12924949538906572,-0.09412385039562832]","[-1,-1,-1]","[0.08622063641401896,0.06460645645584731]","[-1,-1,-1]","[0.14561040644743647,0.1318165150237869]","[1,1,1]","[-0.04266102885812557,0.06979586441207666]","[-1,-1,-1]","[-0.16522431128927473,0.10174283654157622]","[1,1,1]","[0.1077214516962939,0.016934461727641008]","[-1,-1,-1]","[0.05950591432201349,0.12601373392680054]","[-1,-1,-1]","[-0.1433365689966811,0.13682392917499392]","[1,1,1]","[-0.13026003834848962,0.08000261886629469]","[-1,-1,-1]","[-0.013899293711987821,-0.07341946911993903]","[-1,-1,-1]","[0.1390973481589168,-0.047448941204120985]","[-1,-1,-1]","[0.014280042616343365,0.06099452734539412]","[1,1,1]","[-0.06484146990798875,-0.1434346195995134]","[-1,-1,-1]","[0.06231600262957461,-0.16523571784939567]","[-1,-1,-1]","[-0.004640062822178614,-0.15599999392682834]","[1,1,1]","[-0.1739188510630451,-0.0421398011238515]","[1,1,1]","[-0.062709038492941,0.18144800223107688]","[-1,-1,-1]","[0.14905278927297924,-0.004800870648636649]","[1,1,1]","[-0.087771854311185,0.10267409775956353]","[1,1,1]","[0.013961994411826915,-0.0327354751216157]","[1,1,1]","[-0.08998886830496813,-0.07520205631806427]","[-1,-1,-1]","[-0.007677100683696805,0.026100067783378207]","[-1,-1,-1]","[0.0899924716338371,-0.12856265459893298]","[1,1,1]","[-0.1520305059372004,-0.1280959771259697]","[-1,-1,-1]","[0.19259112758962094,0.0074564590945207145]","[1,1,1]","[-0.09075281736576765,-0.02570490174090443]","[1,1,1]","[0.02,0.02]",204.4802,0,9,9,53,1,,,,,,,
,,,,,,,610299d092eb1df29a1c88b6,682db41bde37fdf647aea495,2025-05-21_13h08.58.420,cuing_paradigm_dot,2024.1.5,Win32,60.60606061,682d556593cb38ad0a074487,,,,,,,,,,,204.4803,204.9801,,,205.2305,206.2803,right,,,,,,,,0.5,1.0436,,,,,,,204.9801,205.2305,206.2803,"[-0.023533643801359597,-0.05544934864225766]","[-1,-1,-1]","[-0.14763406613931676,-0.11602341597934958]","[-1,-1,-1]","[0.17719953465605087,-0.05623285308881963]","[1,1,1]","[-0.07746345009901182,0.07124963106232607]","[-1,-1,-1]","[0.08645945095255088,0.12671744092713375]","[1,1,1]","[0.10728253852105986,-0.06830793652069664]","[1,1,1]","[0.016074889249902195,0.05857449052891463]","[-1,-1,-1]","[-0.09010504809311855,-0.1742299641097252]","[1,1,1]","[-0.15521592173949292,-0.06752476097076673]","[1,1,1]","[-0.11820174469766566,0.011106728024177696]","[1,1,1]","[-0.050437554050553834,-0.12674255328659753]","[1,1,1]","[0.01883029727617507,-0.051011721499135534]","[1,1,1]","[0.027703000646765116,0.12300010123759565]","[-1,-1,-1]","[0.1511123428228713,0.08055965418444892]","[-1,-1,-1]","[0.029847572726151995,-0.10477990734106214]","[-1,-1,-1]","[0.020360927890623198,-0.14546255145453926]","[-1,-1,-1]","[0.05752851666471208,-0.008682055205660962]","[1,1,1]","[0.13516188313299188,-0.1181546671301835]","[1,1,1]","[-0.17409689996606265,0.006511133105981934]","[1,1,1]","[0.11715907782846574,-0.16188298761463857]","[-1,-1,-1]","[-0.10176109259058373,-0.04058598733219108]","[-1,-1,-1]","[0.07910364867207394,0.0474852950060508]","[1,1,1]","[-0.16921539297463725,0.04936255140423454]","[1,1,1]","[-0.04246203529987964,0.04945320818969361]","[-1,-1,-1]","[0.04822954216547538,0.19151168707080735]","[-1,-1,-1]","[-0.11905752143445315,0.0613878125023897]","[1,1,1]","[-0.12052295109380409,0.14939644079897374]","[-1,-1,-1]","[-0.07780301039246214,0.15995825965691843]","[-1,-1,-1]","[0.04787218162690062,-0.1773689732958211]","[1,1,1]","[0.13267634891908628,0.1361199840178142]","[1,1,1]","[-0.10125724432068843,-0.11725193437971444]","[-1,-1,-1]","[-0.039589193654564835,0.00418960664759163]","[-1,-1,-1]","[0.02,0.02]",207.3803,0,10,10,111,1,,,,,,,
,,,,,,,610299d092eb1df29a1c88b6,682db41bde37fdf647aea495,2025-05-21_13h08.58.420,cuing_paradigm_dot,2024.1.5,Win32,60.60606061,682d556593cb38ad0a074487,,,,,,,,,,,207.3805,207.8804,,,208.1306,208.5636,left,,,,,,,,0.4,0.416,,,,,,,207.8804,208.1306,208.5637,"[-0.05435224676034042,0.11763712558929985]","[-1,-1,-1]","[-0.05416242068049079,0.16845999186965294]","[1,1,1]","[0.0022980336367732852,-0.193713436487401]","[-1,-1,-1]","[0.16374344603988802,-0.04570809009353845]","[1,1,1]","[-0.08260629391153619,-0.16986425532331337]","[1,1,1]","[0.08053895571147905,-0.027175635580423785]","[1,1,1]","[-0.053434776923528986,0.0419786043560325]","[1,1,1]","[0.05701878619382181,0.14793026576924848]","[-1,-1,-1]","[0.13425071637085595,-0.11179296714468481]","[-1,-1,-1]","[0.07282984642756135,-0.08153746838867618]","[1,1,1]","[0.05172629196028858,0.01926082492763692]","[1,1,1]","[0.013688362468155834,-0.08421736503799193]","[-1,-1,-1]","[0.12020256845420313,-0.15760274748612946]","[1,1,1]","[-0.10461060959727561,-0.019631222952446542]","[1,1,1]","[0.0016765176148783737,0.11898024744848534]","[1,1,1]","[0.16004071775684442,0.0015046406944210968]","[1,1,1]","[-0.13100545604407798,0.07569849809195736]","[-1,-1,-1]","[-0.12873177718386225,0.021697216268114064]","[-1,-1,-1]","[0.10238377182452991,0.12729051287632592]","[-1,-1,-1]","[-0.037059269859031296,-0.10115693605343988]","[-1,-1,-1]","[0.10596967672681785,0.06571030564841815]","[-1,-1,-1]","[0.04384957478075251,-0.18477057099552838]","[-1,-1,-1]","[0.002695221965377721,0.18070084528755703]","[-1,-1,-1]","[-0.11997263880267514,-0.07315017887782593]","[1,1,1]","[0.011384299307667278,-0.011553089140887667]","[-1,-1,-1]","[0.01731302470682604,0.04113227551737897]","[-1,-1,-1]","[0.1421296812458403,0.13472266044740755]","[-1,-1,-1]","[0.03151289439112952,0.08784524534953335]","[-1,-1,-1]","[-0.15430035835740283,-0.014374421256825712]","[-1,-1,-1]","[-0.060093775109049424,-0.008021498301535089]","[1,1,1]","[-0.03858296627311615,-0.04435000351131534]","[-1,-1,-1]","[-0.1014735833824063,0.14119591904192097]","[-1,-1,-1]","[0.02,0.02]",209.6638,0,11,11,49,1,,,,,,,
,,,,,,,610299d092eb1df29a1c88b6,682db41bde37fdf647aea495,2025-05-21_13h08.58.420,cuing_paradigm_dot,2024.1.5,Win32,60.60606061,682d556593cb38ad0a074487,,,,,,,,,,,209.664,210.1639,,,210.4141,210.9307,right,,,,,,,,0.9,0.5086,,,,,,,210.1639,210.4141,210.9307,"[-0.05040540693068124,0.08069651185901448]","[1,1,1]","[-0.10375880027334375,-0.026870260806174575]","[1,1,1]","[0.13065465559352266,-0.03911698035297838]","[1,1,1]","[-0.009400108454258501,0.056135988496150986]","[1,1,1]","[-0.05525322314571259,0.027252991889173298]","[-1,-1,-1]","[0.12310416050981096,-0.1463303951616026]","[1,1,1]","[-0.0325617852735107,-0.17549356999910629]","[1,1,1]","[0.12517452814469715,-0.08992768005876457]","[1,1,1]","[0.027499878856155586,0.02921103421648235]","[-1,-1,-1]","[0.06868402903538973,0.033755068245988146]","[1,1,1]","[-0.00859583394775925,0.1702654780228593]","[-1,-1,-1]","[-0.08834601040796224,-0.1534850480426376]","[1,1,1]","[0.027863172570320473,-0.05373369209423492]","[1,1,1]","[-0.13618253927705273,-0.06000988314013025]","[1,1,1]","[0.11456419258546106,0.11147052094618749]","[1,1,1]","[0.043728286949905854,-0.11143362208633772]","[1,1,1]","[0.05544398506836676,0.13722826603681834]","[1,1,1]","[0.011133139473962224,-0.14879306440440798]","[1,1,1]","[-0.05192343362878591,0.158433997934922]","[1,1,1]","[0.1706777283687742,0.06404323297871124]","[1,1,1]","[-0.08387644947901658,-0.08014323533110523]","[1,1,1]","[-0.00723569299667601,0.12008467176202513]","[1,1,1]","[-0.14094404295451546,0.09644466620405179]","[1,1,1]","[0.08456750379144409,-0.12284414787730301]","[1,1,1]","[-0.044659295632137136,-0.024358814674154954]","[1,1,1]","[-0.12202260210917383,-0.1305984015402035]","[1,1,1]","[0.0024674747036038894,-0.10419698375034077]","[1,1,1]","[-0.1725426006789223,0.033799106460172944]","[1,1,1]","[-0.09834833709895227,0.1649862818626952]","[1,1,1]","[-0.0335164591169136,-0.0683024807428216]","[1,1,1]","[-0.16374088351510885,-0.022518128781480223]","[1,1,1]","[-0.12132842648262174,0.030873782054059908]","[1,1,1]","[0.02,0.02]",212.0306,0,12,12,191,1,,,,,,,
,,,,,,,610299d092eb1df29a1c88b6,682db41bde37fdf647aea495,2025-05-21_13h08.58.420,cuing_paradigm_dot,2024.1.5,Win32,60.60606061,682d556593cb38ad0a074487,,,,,,,,,,,212.0307,212.5308,,,212.7809,213.214,right,,,,,,,,0.6,0.4228,,,,,,,212.5308,212.7809,213.2141,"[-0.03506575032439297,0.07344616693014523]","[1,1,1]","[0.017843773223539534,0.017645556808508513]","[-1,-1,-1]","[0.06501898368455294,0.10847675730695094]","[1,1,1]","[-0.09883209727625089,0.03496587306774745]","[-1,-1,-1]","[0.048012059789609506,-0.06400003744874877]","[1,1,1]","[-0.1673569119066916,0.027760110814706362]","[-1,-1,-1]","[0.10134682990086259,-0.13797981342046542]","[-1,-1,-1]","[0.1626970786333263,-0.0473896605929229]","[1,1,1]","[0.14291438947269575,0.05775340330494511]","[1,1,1]","[-0.04537438088281198,-0.009722984795752882]","[1,1,1]","[-0.010012986829415487,0.19669328161283467]","[-1,-1,-1]","[0.05667607806559831,-0.021041126089951512]","[1,1,1]","[0.06319444261885823,0.1685548520091421]","[1,1,1]","[0.1378678936763247,0.10522853625653608]","[1,1,1]","[-0.08898308952735295,0.1083465300290896]","[1,1,1]","[-0.13664085718564842,0.11584451558458207]","[1,1,1]","[-0.0922281875038407,-0.00487377583467288]","[1,1,1]","[-0.12364001285427306,-0.04629763059605955]","[-1,-1,-1]","[-0.1834037793039873,0.06696410761419178]","[-1,-1,-1]","[0.07224772574908589,0.040469834535126537]","[-1,-1,-1]","[0.019959964201973438,0.0778004585963972]","[-1,-1,-1]","[-0.03263565562440676,-0.05189087270168674]","[-1,-1,-1]","[-0.1359178553805225,0.0012899634075585842]","[-1,-1,-1]","[0.04632972719795262,-0.16694292285571463]","[1,1,1]","[-0.07994923795285314,0.1481092049382459]","[1,1,1]","[0.12919069289047577,-0.08537029219491014]","[1,1,1]","[-0.02368220973624676,-0.09286342456328228]","[1,1,1]","[-0.07310800018034154,-0.12655547115814375]","[1,1,1]","[-0.09744827731326698,-0.16079886467763124]","[1,1,1]","[-0.1722798454090461,-0.08038102169398192]","[1,1,1]","[0.052721136580713646,-0.11625027111921697]","[-1,-1,-1]","[0.16778670418816977,-0.10197183961653729]","[-1,-1,-1]","[0.02,0.02]",214.3142,0,13,13,153,1,,,,,,,
,,,,,,,610299d092eb1df29a1c88b6,682db41bde37fdf647aea495,2025-05-21_13h08.58.420,cuing_paradigm_dot,2024.1.5,Win32,60.60606061,682d556593cb38ad0a074487,,,,,,,,,,,214.3144,214.8141,,,215.0645,215.5642,right,,,,,,,,0.6,0.4906,,,,,,,214.8141,215.0645,215.5642,"[0.033354064360381144,0.045749466684504164]","[1,1,1]","[-0.02990277483992898,-0.038095323535954045]","[-1,-1,-1]","[-0.098826426036809,-0.08185368337038972]","[1,1,1]","[0.12229487349444355,0.13031614824425508]","[-1,-1,-1]","[0.1466952254907221,-0.08364935850217696]","[1,1,1]","[-0.06668777140145737,-0.12376446173471455]","[1,1,1]","[-0.09356300594830219,0.08830175402184676]","[-1,-1,-1]","[-0.06169461397044977,0.028636499676867933]","[-1,-1,-1]","[0.025904930102854454,-0.14135976380740098]","[-1,-1,-1]","[-0.12010001730718943,0.057114931493534256]","[-1,-1,-1]","[-0.005416614830692992,0.03392512080624073]","[1,1,1]","[-0.1185498845259202,0.01175591938083254]","[-1,-1,-1]","[-0.04027970266760337,0.14889065872838456]","[1,1,1]","[0.1371582576558427,-0.035654006886902984]","[1,1,1]","[0.07804821985159761,0.02255764961572942]","[1,1,1]","[0.03408485634780656,0.182296070485038]","[1,1,1]","[-0.14274469527211903,-0.07577731325472412]","[-1,-1,-1]","[0.10698890535316222,0.07887463348179329]","[-1,-1,-1]","[0.06731319380650894,-0.056541034899308465]","[1,1,1]","[0.05374084100189817,-0.18403555929702992]","[1,1,1]","[0.16906541907918593,0.05269936581504173]","[1,1,1]","[0.12322090926540344,0.019646688048463114]","[-1,-1,-1]","[-0.050196059888538466,-0.1686166434806254]","[1,1,1]","[0.132189793652264,-0.12185698290378394]","[1,1,1]","[0.07467134555125203,-0.14951761648925002]","[1,1,1]","[-0.16304823871837656,-0.005132237223257262]","[-1,-1,-1]","[0.10401023393048897,-0.08674093798727787]","[1,1,1]","[0.022983458832301674,-0.020753259445975444]","[-1,-1,-1]","[-0.022603171928803074,-0.12272149562337824]","[-1,-1,-1]","[0.005487055644017939,-0.06471212172686687]","[1,1,1]","[-0.0010869320395370224,0.12835025411600354]","[1,1,1]","[0.1819720065752984,0.0002764622661865148]","[1,1,1]","[0.02,0.02]",216.6642,0,14,14,165,1,,,,,,,
,,,,,,,610299d092eb1df29a1c88b6,682db41bde37fdf647aea495,2025-05-21_13h08.58.420,cuing_paradigm_dot,2024.1.5,Win32,60.60606061,682d556593cb38ad0a074487,,,,,,,,,,,216.6644,217.1641,,,217.4144,217.7643,right,,,,,,,,0.9,0.3323,,,,,,,217.1641,217.4144,217.7643,"[-0.14498665703246574,0.1305736969759816]","[1,1,1]","[0.04960861684055357,0.05243042406078283]","[1,1,1]","[-0.08452358138503283,-0.03261202397450541]","[1,1,1]","[0.1357571240822772,0.11680000787520262]","[1,1,1]","[0.09535213529693141,-0.06504874083857425]","[1,1,1]","[-0.14356273348753937,0.02526464911979812]","[1,1,1]","[-0.17512607754209983,0.09496462880832365]","[1,1,1]","[0.06783747043966804,-0.16775264879581275]","[1,1,1]","[0.11010716213616356,0.05113402094505419]","[1,1,1]","[0.12487449687228017,-0.09522483314381643]","[1,1,1]","[-0.048542802866019724,0.06456121981956073]","[1,1,1]","[-0.012827672568425224,-0.06944836831439252]","[1,1,1]","[-0.1028801752914087,0.12014036965507055]","[1,1,1]","[0.1402306857475525,0.005653156142720612]","[1,1,1]","[0.013414125624034387,0.18325001795527296]","[-1,-1,-1]","[0.0780555059137718,-0.11088022995694698]","[1,1,1]","[0.17354480906563644,-0.03798625363745536]","[1,1,1]","[-0.08276490374118067,0.16658332015930044]","[1,1,1]","[0.003464396971961786,-0.14232374669243755]","[1,1,1]","[-0.08207926788576199,0.027235992946388846]","[1,1,1]","[-0.11727810893395177,-0.06554011277779409]","[-1,-1,-1]","[-0.18749307507998475,-0.018964803260696324]","[1,1,1]","[0.16448532113376252,0.038311495375966384]","[1,1,1]","[0.16402452775952758,-0.08200699308684245]","[-1,-1,-1]","[-0.16621709757853068,-0.053343479524971635]","[1,1,1]","[-0.04086337115837591,0.023372473240482146]","[1,1,1]","[-0.11926920387658758,0.07520157113675369]","[1,1,1]","[-0.016976491454700808,0.10008189085705721]","[1,1,1]","[-0.006284275625722753,0.14350614038867054]","[1,1,1]","[0.09655446606149706,0.17149178286764102]","[1,1,1]","[0.004246032541155503,-0.026969743808260595]","[1,1,1]","[0.08518151235438731,0.08940800008580377]","[1,1,1]","[0.02,0.02]",218.8642,0,15,15,186,1,,,,,,,
,,,,,,,610299d092eb1df29a1c88b6,682db41bde37fdf647aea495,2025-05-21_13h08.58.420,cuing_paradigm_dot,2024.1.5,Win32,60.60606061,682d556593cb38ad0a074487,,,,,,,,,,,218.8644,219.3645,,,219.6145,219.9645,right,,,,,,,,0.4,0.3413,,,,,,,219.3645,219.6145,219.9645,"[-0.013050550600584925,-0.18292727482115423]","[1,1,1]","[-0.03522760264299424,-0.004764669136551535]","[1,1,1]","[-0.08077497548853167,0.04504661895681843]","[1,1,1]","[-0.06899024497246226,-0.14623142563508618]","[-1,-1,-1]","[-0.1196886229489372,-0.017992084357374993]","[1,1,1]","[-0.1835206187761257,-0.0045556313081864825]","[-1,-1,-1]","[0.023706197812899985,-0.117680714474287]","[-1,-1,-1]","[0.14494681180703026,-0.015945535008545654]","[-1,-1,-1]","[-0.12124837165219225,-0.08766166157990687]","[1,1,1]","[0.18376554769536632,0.060026173657655696]","[-1,-1,-1]","[-0.09840689540356526,0.12603962703488025]","[1,1,1]","[-0.14952627179218225,0.1063093698233487]","[1,1,1]","[0.1494503529071595,-0.07561698354677612]","[1,1,1]","[0.19705396185145393,-0.01860384779859957]","[-1,-1,-1]","[-0.1373497677360919,0.05223230885583585]","[1,1,1]","[0.0687446166949699,0.10299197371755613]","[1,1,1]","[0.02441221511680674,0.13069090329735614]","[-1,-1,-1]","[0.06150576853808345,-0.09386698682162398]","[-1,-1,-1]","[0.00547812224481569,0.011678603105198113]","[-1,-1,-1]","[-0.05220738593854585,0.16216667178132899]","[1,1,1]","[0.11916980254027552,0.060968582568502704]","[-1,-1,-1]","[0.16146241663827485,0.09639774776691987]","[-1,-1,-1]","[0.08645493068906498,-0.024688429532040042]","[-1,-1,-1]","[-0.08110431903508517,-0.03436148177855625]","[-1,-1,-1]","[0.10499794981540286,-0.0603583070315595]","[-1,-1,-1]","[0.06483591472256396,0.14741676366876097]","[-1,-1,-1]","[0.043203646675550024,0.028178589658012166]","[-1,-1,-1]","[0.03778959215949956,-0.0332228080566693]","[-1,-1,-1]","[-0.038902924723644816,-0.0569923890303848]","[1,1,1]","[-0.003910276858143759,0.18468650326105787]","[-1,-1,-1]","[0.08721743215622961,-0.1775507712623412]","[-1,-1,-1]","[-0.04621194457587929,0.09640958415227786]","[1,1,1]","[0.02,0.02]",221.0644,0,16,16,35,1,,,,,,,
,,,,,,,610299d092eb1df29a1c88b6,682db41bde37fdf647aea495,2025-05-21_13h08.58.420,cuing_paradigm_dot,2024.1.5,Win32,60.60606061,682d556593cb38ad0a074487,,,,,,,,,,,221.0646,221.5645,,,221.8147,222.2646,right,,,,,,,,0.5,0.4443,,,,,,,221.5645,221.8146,222.2646,"[-0.01895435580052225,0.10125039560590995]","[-1,-1,-1]","[-0.16200339930224564,-0.00022853442199143186]","[-1,-1,-1]","[0.16130638784431467,-0.007150034950689213]","[-1,-1,-1]","[0.12103442168563514,-0.008466182269590804]","[-1,-1,-1]","[0.08894250346706903,-0.0834704050098727]","[1,1,1]","[-0.13291013496992765,-0.05721166243301755]","[-1,-1,-1]","[-0.09313222597365017,0.0010510916148950109]","[1,1,1]","[-0.09852579967867671,0.08802704341215725]","[1,1,1]","[0.05302522508072107,-0.18466654958520148]","[-1,-1,-1]","[-0.1035300046958915,-0.1000518965797749]","[1,1,1]","[0.030140558143079484,0.1291849531082657]","[-1,-1,-1]","[0.06551394964302046,0.1549004068406223]","[-1,-1,-1]","[-0.17853976818579367,0.0690552618950141]","[1,1,1]","[0.013698324789716151,-0.17487782055326814]","[-1,-1,-1]","[-0.001759090392140189,0.16229291520880598]","[1,1,1]","[0.12806374972740242,0.05023976743261444]","[1,1,1]","[0.08273690265466858,0.11535248618911897]","[-1,-1,-1]","[-0.06634590207756753,0.13748970506319455]","[1,1,1]","[-0.05966872312257548,-0.1201230392880655]","[1,1,1]","[0.13469158951038782,0.14721300062909856]","[1,1,1]","[0.0385246851359877,-0.1261840547759729]","[-1,-1,-1]","[0.04174185299322298,0.08503785630729031]","[1,1,1]","[0.041708323615632426,0.016536226923890087]","[1,1,1]","[-0.03135007919378375,-0.06865363902496115]","[-1,-1,-1]","[-0.03765738180076144,-0.0008256560859614022]","[1,1,1]","[0.006130857653831768,-0.013396487766600547]","[-1,-1,-1]","[-0.006354405034716363,0.05994898233779846]","[-1,-1,-1]","[0.1351100725318791,-0.08833984092400639]","[1,1,1]","[-0.1200511079621282,-0.15772174324745272]","[-1,-1,-1]","[0.0399619500069538,0.18634276096982316]","[1,1,1]","[-0.14321804949842165,0.13086018584384831]","[-1,-1,-1]","[0.06455107066354517,0.050981592298469804]","[1,1,1]","[0.02,0.02]",223.3647,0,17,17,100,1,,,,,,,
,,,,,,,610299d092eb1df29a1c88b6,682db41bde37fdf647aea495,2025-05-21_13h08.58.420,cuing_paradigm_dot,2024.1.5,Win32,60.60606061,682d556593cb38ad0a074487,,,,,,,,,,,223.3648,223.8646,,,224.1148,224.5646,left,,,,,,,,0.5,0.4398,,,,,,,223.8647,224.1148,224.5647,"[0.11427071038878059,0.12655177779857785]","[-1,-1,-1]","[0.15958439179561112,-0.08478792480336812]","[1,1,1]","[0.11010196281717445,-0.07842161367898502]","[1,1,1]","[0.09383978990300246,-0.13582835553896908]","[-1,-1,-1]","[0.029696873156759965,-0.08811174238352454]","[1,1,1]","[-0.06217312973564795,-0.0016935231514638692]","[1,1,1]","[0.02341793254300913,-0.17877502378303112]","[-1,-1,-1]","[0.1117621329699827,-0.006490605814139867]","[-1,-1,-1]","[-0.14145300370671665,0.05085362324451413]","[1,1,1]","[0.033371802031610054,0.05596401617743855]","[1,1,1]","[0.11742434350927039,0.03899372726177927]","[1,1,1]","[0.048733882565132974,-0.01847618868342383]","[1,1,1]","[0.07019999830391134,-0.08531063362276714]","[1,1,1]","[0.17991042474052737,0.08053677721757489]","[1,1,1]","[-0.1802678099408329,0.02286163377713565]","[-1,-1,-1]","[-0.07909283453644936,0.09370979323728623]","[-1,-1,-1]","[0.019991497001714605,0.12003416142222971]","[1,1,1]","[-0.018817444791855605,-0.004007413239637228]","[-1,-1,-1]","[-0.09662847432989882,0.05516279481843048]","[-1,-1,-1]","[0.08554247649634052,-0.17967460656709933]","[-1,-1,-1]","[0.06764202527034996,0.08020626610897892]","[-1,-1,-1]","[-0.019128153070221147,0.04017979345221215]","[1,1,1]","[-0.16155900230084524,-0.11787151702482285]","[-1,-1,-1]","[-0.05907952742519308,-0.04237849903326156]","[-1,-1,-1]","[-0.12539714748148212,0.012764202429937073]","[-1,-1,-1]","[-0.07690155981984659,-0.15210661506364356]","[1,1,1]","[0.0760180151293311,0.16166470455066448]","[-1,-1,-1]","[-0.09967797111904989,-0.0841821678517879]","[-1,-1,-1]","[-0.03425864748102639,0.1372678385323771]","[-1,-1,-1]","[-0.03837563523195892,-0.1725769748026114]","[1,1,1]","[-0.012410876840581819,-0.12009624102277977]","[1,1,1]","[0.18992038611038228,0.03390574912681471]","[1,1,1]","[0.02,0.02]",225.6648,0,18,18,110,1,,,,,,,
,,,,,,,610299d092eb1df29a1c88b6,682db41bde37fdf647aea495,2025-05-21_13h08.58.420,cuing_paradigm_dot,2024.1.5,Win32,60.60606061,682d556593cb38ad0a074487,,,,,,,,,,,225.6649,226.1647,,,226.4149,226.6149,left,,,,,,,,0.1,0.1962,,,,,,,226.1648,226.4149,226.6149,"[0.15396362633021612,-0.025337815883960762]","[-1,-1,-1]","[0.09975732015882735,0.08934659501422923]","[-1,-1,-1]","[-0.14496648116699706,-0.11728846778533884]","[-1,-1,-1]","[0.17850781237824845,0.07185249372679414]","[-1,-1,-1]","[0.11269239086385442,-0.006057756826297581]","[-1,-1,-1]","[0.02933874519820887,0.09266336768026004]","[-1,-1,-1]","[0.10390595541300174,-0.1663979658332177]","[-1,-1,-1]","[0.00005466437690506247,-0.033251343208230116]","[-1,-1,-1]","[-0.007424461199065166,0.15116285796576967]","[-1,-1,-1]","[0.09830137294791559,-0.051621240588958145]","[-1,-1,-1]","[0.12098446631659836,-0.09871275053654553]","[1,1,1]","[0.028340750188897427,-0.08142406347998751]","[-1,-1,-1]","[-0.08927921660670467,-0.14934106642453762]","[-1,-1,-1]","[-0.051315035051495796,0.015204693500417766]","[-1,-1,-1]","[-0.12798883356474536,0.14267899267548173]","[-1,-1,-1]","[-0.06679633146045713,-0.04449395876355796]","[1,1,1]","[0.037895284067617836,-0.1664534945468356]","[-1,-1,-1]","[-0.1596252600151944,0.0898687563474069]","[-1,-1,-1]","[0.04923932874662878,-0.011121405912056685]","[-1,-1,-1]","[-0.18734912515187688,-0.013253852201294363]","[-1,-1,-1]","[-0.09608782982133095,0.0519611347202118]","[-1,-1,-1]","[-0.14239910681834875,-0.05083857017200342]","[-1,-1,-1]","[-0.01014259898557993,-0.12045781938066198]","[-1,-1,-1]","[-0.18038068308291522,-0.07103671251119574]","[1,1,1]","[-0.09192176657480958,-0.1011258228542104]","[-1,-1,-1]","[0.06728152666999301,-0.12095076662656241]","[-1,-1,-1]","[-0.022583181990137122,0.19812764330055188]","[-1,-1,-1]","[0.18717362808591576,0.010748120111535015]","[-1,-1,-1]","[0.012537882693694671,0.04340200593019103]","[-1,-1,-1]","[0.08477329798930244,0.028787620802016425]","[-1,-1,-1]","[-0.1496157447195862,0.049360769914499475]","[-1,-1,-1]","[-0.02238615700635181,-0.19401037731680496]","[-1,-1,-1]","[0.02,0.02]",227.7149,0,19,19,11,1,,,,,,,
,,,,,,,610299d092eb1df29a1c88b6,682db41bde37fdf647aea495,2025-05-21_13h08.58.420,cuing_paradigm_dot,2024.1.5,Win32,60.60606061,682d556593cb38ad0a074487,,,,,,,,,,,227.7151,228.215,,,228.4651,228.765,right,,,,,,,,0.6,0.291,,,,,,,228.215,228.4651,228.765,"[0.07974408600768516,0.0794177972848997]","[-1,-1,-1]","[-0.10518384530257169,0.030385162599177284]","[1,1,1]","[-0.05205531009477864,-0.16479616827034438]","[1,1,1]","[0.10567773366149473,0.043658324879397165]","[-1,-1,-1]","[0.04616737256335094,0.18595290205809842]","[-1,-1,-1]","[-0.03802653766314054,-0.043899149392879866]","[-1,-1,-1]","[-0.15469092556129954,0.12083198069046511]","[1,1,1]","[0.032611326335677315,-0.011902803228070575]","[-1,-1,-1]","[-0.08641995673650896,-0.12948451976994502]","[-1,-1,-1]","[0.10369440111318641,-0.08466173192777096]","[-1,-1,-1]","[0.06516890892297411,-0.1730952504575914]","[-1,-1,-1]","[0.09088467447288458,0.1222173454898018]","[1,1,1]","[0.004406373258361475,-0.0506479706124311]","[1,1,1]","[-0.17427171634604002,0.010334754658805656]","[1,1,1]","[-0.01676665647988481,0.1797888313454585]","[1,1,1]","[-0.13843557140375415,-0.11389237000467617]","[1,1,1]","[-0.09018687065726604,-0.0789341829318468]","[-1,-1,-1]","[-0.09476679024331335,0.11127928312057717]","[-1,-1,-1]","[-0.12317313013235025,0.06945795815457088]","[1,1,1]","[-0.04842053457046535,0.014698584381962372]","[1,1,1]","[0.12999311725849672,-0.14102213775911426]","[1,1,1]","[-0.18276690737427564,-0.054113659912649825]","[1,1,1]","[0.044541858564794035,-0.08838174410575482]","[1,1,1]","[-0.03144524105566478,-0.12660580552598405]","[1,1,1]","[0.16968372981508886,0.103845874966462]","[-1,-1,-1]","[0.03784554429303738,0.14257954820871838]","[-1,-1,-1]","[0.17934815273425445,-0.04467742377885875]","[1,1,1]","[-0.031157475672502943,0.12174872145786769]","[1,1,1]","[0.05213751528548841,0.026813592473819096]","[1,1,1]","[-0.003970055615689017,-0.16091188019838876]","[1,1,1]","[0.16504923337220026,0.04391209637790162]","[1,1,1]","[0.08422670391769606,-0.005790865937894267]","[-1,-1,-1]","[0.02,0.02]",229.8649,0,20,20,166,1,,,,,,,
,,,,,,,610299d092eb1df29a1c88b6,682db41bde37fdf647aea495,2025-05-21_13h08.58.420,cuing_paradigm_dot,2024.1.5,Win32,60.60606061,682d556593cb38ad0a074487,,,,,,,,,,,229.865,230.365,,,230.6153,231.1151,left,,,,,,,,0.4,0.4929,,,,,,,230.365,230.6152,231.1151,"[0.0990141301562361,0.04473692094014266]","[-1,-1,-1]","[-0.019489909534455563,-0.120181189255757]","[-1,-1,-1]","[-0.09654701711997266,-0.07123977849958138]","[1,1,1]","[-0.024950072729275123,-0.031698202901964054]","[1,1,1]","[0.15448724411712464,-0.0942974083923427]","[1,1,1]","[-0.11715935375868908,0.05212880174592566]","[-1,-1,-1]","[0.021998723921099663,0.1713595111128204]","[-1,-1,-1]","[-0.05250007281896466,0.1465184194929622]","[-1,-1,-1]","[0.10338619200257648,-0.04225767510978787]","[-1,-1,-1]","[-0.16237900481924228,0.01024809138752894]","[-1,-1,-1]","[-0.1669053159289483,-0.09479010011776434]","[-1,-1,-1]","[0.020848223636505556,0.12291393143514594]","[-1,-1,-1]","[0.11913001403662833,0.09808118860411615]","[-1,-1,-1]","[0.05699144114939991,-0.18830529666316]","[-1,-1,-1]","[-0.03166193717813572,0.18462002823908047]","[1,1,1]","[-0.04180355898064183,-0.16908695458426257]","[-1,-1,-1]","[-0.10161041167205641,-0.011011315459187165]","[-1,-1,-1]","[0.15558631369968415,-0.032336266650004795]","[-1,-1,-1]","[-0.038351309572140634,0.08078395895370143]","[1,1,1]","[0.00853780133505392,-0.07083502896287244]","[-1,-1,-1]","[0.0213816332372846,-0.1613249748846673]","[-1,-1,-1]","[-0.09842039048294322,0.1684566629141761]","[1,1,1]","[-0.029181210775973947,0.03766060960327936]","[1,1,1]","[0.05115992630006585,0.0817255925971781]","[1,1,1]","[0.1465901313136127,-0.13377894930318915]","[1,1,1]","[0.0934810396934531,0.16484441309065773]","[-1,-1,-1]","[0.19275728945914788,-0.006358363435137916]","[1,1,1]","[0.10300715217754883,-0.1603326205645524]","[-1,-1,-1]","[-0.1314106230274323,-0.13875079382554892]","[1,1,1]","[-0.16488376726480575,0.05928191518051795]","[1,1,1]","[-0.08768784377895204,0.09921352148833847]","[-1,-1,-1]","[-0.07110215648634152,0.03480117827893465]","[1,1,1]","[0.02,0.02]",232.2152,0,21,21,30,1,,,,,,,
,,,,,,,610299d092eb1df29a1c88b6,682db41bde37fdf647aea495,2025-05-21_13h08.58.420,cuing_paradigm_dot,2024.1.5,Win32,60.60606061,682d556593cb38ad0a074487,,,,,,,,,,,232.2154,232.7151,,,232.9653,233.3485,left,,,,,,,,0.1,0.3659,,,,,,,232.7152,232.9653,233.3485,"[0.0677813463517819,0.18290452042871888]","[-1,-1,-1]","[-0.17018817328208827,-0.06878380473890296]","[-1,-1,-1]","[0.04231821473743079,0.016084519272578205]","[-1,-1,-1]","[-0.10724908717960703,-0.11752513817409209]","[-1,-1,-1]","[0.04449599977344566,-0.0935998964542627]","[1,1,1]","[0.034149645611650285,-0.16292082724684678]","[-1,-1,-1]","[0.04461866134652173,-0.04473504409869235]","[1,1,1]","[-0.05334971360743598,0.07584006729547647]","[-1,-1,-1]","[0.09061175092394136,0.10210221347941989]","[-1,-1,-1]","[-0.10210273024212128,0.17036271378486847]","[-1,-1,-1]","[-0.06481552598214747,-0.010884730175368958]","[-1,-1,-1]","[-0.06087287476074532,-0.0720813218013942]","[-1,-1,-1]","[-0.030955712097995806,0.11531646193156997]","[-1,-1,-1]","[0.08789849855959594,-0.13720696968049623]","[-1,-1,-1]","[-0.027343542410100216,-0.154023585864592]","[-1,-1,-1]","[0.12954624419352465,-0.11815279756431812]","[-1,-1,-1]","[-0.09382911051976042,0.09286084539709201]","[-1,-1,-1]","[-0.1281227650246147,-0.013624918034843263]","[-1,-1,-1]","[-0.14887509052537912,0.061406298096581186]","[-1,-1,-1]","[0.038750795218891416,0.09719557291275066]","[-1,-1,-1]","[0.0050361318654507615,0.0726344714214532]","[-1,-1,-1]","[-0.11919776209737484,-0.05759113284727024]","[-1,-1,-1]","[-0.04834829555215139,0.17312157685909943]","[-1,-1,-1]","[-0.01370593274090826,-0.07807257716348497]","[-1,-1,-1]","[0.13548787445089308,-0.04163221407750078]","[-1,-1,-1]","[0.1407236222965413,0.059417503778670645]","[-1,-1,-1]","[-0.06340138882366994,-0.18328992386455042]","[-1,-1,-1]","[0.09606996969596224,0.015188388387695047]","[-1,-1,-1]","[0.08924440380356392,-0.07696226569018304]","[1,1,1]","[0.004283112015512003,0.13671715545247712]","[-1,-1,-1]","[-0.02221875472312663,-0.0014744373900625004]","[-1,-1,-1]","[-0.1910802192522538,-0.01776524516941237]","[-1,-1,-1]","[0.02,0.02]",234.4486,0,22,22,1,1,,,,,,,
,,,,,,,610299d092eb1df29a1c88b6,682db41bde37fdf647aea495,2025-05-21_13h08.58.420,cuing_paradigm_dot,2024.1.5,Win32,60.60606061,682d556593cb38ad0a074487,,,,,,,,,,,234.4487,234.9485,,,235.1987,235.7321,left,,,,,,,,0.45,0.5171,,,,,,,234.9486,235.1987,235.7321,"[-0.0328002098496078,0.12507280756083552]","[1,1,1]","[0.008565668740626461,0.18532553927070566]","[1,1,1]","[0.08848708511061713,0.05521561324084607]","[1,1,1]","[-0.0070205420672864996,0.03503654687848415]","[-1,-1,-1]","[-0.005228955265169532,-0.1469847210545232]","[-1,-1,-1]","[-0.05534757472268911,0.0265203049103674]","[1,1,1]","[-0.17909392312331368,0.05246479358955982]","[-1,-1,-1]","[-0.12396939113107101,-0.146799442635287]","[1,1,1]","[0.04251563722577211,-0.13504890073450587]","[-1,-1,-1]","[0.09449705332681958,-0.10748654007487544]","[-1,-1,-1]","[-0.01579861112125143,-0.06739513002310213]","[-1,-1,-1]","[-0.0617050291750875,-0.01754932597543605]","[-1,-1,-1]","[-0.07884797904509185,0.10838866472669316]","[-1,-1,-1]","[0.14817601632954758,0.06833969894124071]","[1,1,1]","[-0.00301642198193564,-0.0066372215830135944]","[1,1,1]","[0.03722558967519741,-0.058151365395409216]","[-1,-1,-1]","[-0.1065351054887024,-0.07653492216611016]","[-1,-1,-1]","[0.038259706490009496,0.07217671159251816]","[1,1,1]","[-0.08742655483091813,0.16082893340610183]","[-1,-1,-1]","[0.027227952736748474,0.12900195036127723]","[-1,-1,-1]","[-0.1381801958781113,0.05828387080316315]","[-1,-1,-1]","[0.1436710913248371,-0.03937958388262273]","[-1,-1,-1]","[0.11399488236836837,0.11126719748416938]","[1,1,1]","[-0.062386975217971374,-0.06342600159798936]","[1,1,1]","[-0.0425567030994823,-0.1798663998630432]","[1,1,1]","[-0.1339041714817507,-0.00572862012767958]","[-1,-1,-1]","[-0.08942678192181737,-0.11815826611593407]","[1,1,1]","[-0.16495469879641692,-0.04676087528480178]","[1,1,1]","[0.12177110885624762,-0.14718385629754374]","[-1,-1,-1]","[-0.055104268772383544,-0.1411032535492626]","[1,1,1]","[0.16311601690361213,0.007891470285965181]","[-1,-1,-1]","[0.19070750383023535,-0.021538010828434234]","[-1,-1,-1]","[0.02,0.02]",236.8321,0,23,23,74,1,,,,,,,
,,,,,,,610299d092eb1df29a1c88b6,682db41bde37fdf647aea495,2025-05-21_13h08.58.420,cuing_paradigm_dot,2024.1.5,Win32,60.60606061,682d556593cb38ad0a074487,,,,,,,,,,,236.8323,237.3321,,,237.5822,238.1322,right,,,,,,,,0.45,0.5324,,,,,,,237.3322,237.5822,238.1322,"[0.041839021828223695,0.01148304623965332]","[-1,-1,-1]","[0.042484444038475344,-0.034142994544113445]","[-1,-1,-1]","[-0.09831112047700363,-0.07958703187065697]","[1,1,1]","[-0.08609113841348541,-0.014475210277882188]","[1,1,1]","[0.17346450071761807,0.03298282011644]","[-1,-1,-1]","[-0.05135655883497068,0.04444775031956994]","[1,1,1]","[-0.014318224588674341,-0.12379417690991812]","[-1,-1,-1]","[-0.1394711719282252,0.1053615049911796]","[-1,-1,-1]","[0.061451162148656334,0.08196428308690794]","[1,1,1]","[-0.0016123838621563316,0.0865539543441201]","[1,1,1]","[0.04297287123885019,-0.18031431819550747]","[-1,-1,-1]","[-0.16656680182933575,-0.039316702477633324]","[-1,-1,-1]","[-0.14885824318170066,-0.09984461489397153]","[1,1,1]","[0.15056345479868194,-0.0591782716940903]","[-1,-1,-1]","[-0.15325472550419358,0.057548852965234626]","[-1,-1,-1]","[-0.056514450012852685,-0.16234801001439814]","[1,1,1]","[0.083486383084481,0.17738463233574447]","[1,1,1]","[0.01571771961766565,0.04457541885141846]","[-1,-1,-1]","[0.10169547099525854,-0.1696196254824276]","[-1,-1,-1]","[-0.0480225960941475,-0.07525462643401166]","[-1,-1,-1]","[-0.07394950696740224,0.16533294499313891]","[-1,-1,-1]","[0.13212042472945765,-0.11267134591701697]","[1,1,1]","[-0.06915912188762516,0.12292901702109943]","[-1,-1,-1]","[0.02687109086407348,0.13046575747197725]","[1,1,1]","[0.10244357127719822,0.08888493215345879]","[-1,-1,-1]","[-0.19142193793530168,0.00878996963936179]","[1,1,1]","[0.06885571193796221,-0.14285643218054003]","[-1,-1,-1]","[0.10470072655000014,-0.05940327731644642]","[1,1,1]","[-0.011562082852609998,0.15264322177563625]","[-1,-1,-1]","[0.008399304099155553,-0.06449951124340644]","[1,1,1]","[0.025883045952509242,0.17144077124137275]","[1,1,1]","[-0.09869251837469152,0.07065886350772287]","[-1,-1,-1]","[0.02,0.02]",239.2321,0,24,24,76,1,,,,,,,
,,,,,,,610299d092eb1df29a1c88b6,682db41bde37fdf647aea495,2025-05-21_13h08.58.420,cuing_paradigm_dot,2024.1.5,Win32,60.60606061,682d556593cb38ad0a074487,,,,,,,,,,,239.2323,239.7322,,,239.9823,240.4824,left,,,,,,,,0.45,0.4934,,,,,,,239.7323,239.9823,240.4824,"[0.09630968787717081,-0.04674062167537045]","[-1,-1,-1]","[-0.02465279814689097,-0.005784854312739749]","[-1,-1,-1]","[0.07843807130780169,-0.11584235071528239]","[1,1,1]","[-0.11546090890591297,-0.07758588064012757]","[1,1,1]","[0.0682359455510196,0.12232074687052345]","[1,1,1]","[0.16481443059548187,-0.07865777367114658]","[-1,-1,-1]","[0.10034744282540982,0.14686457534714784]","[1,1,1]","[-0.025128183044092194,0.083877064005352]","[-1,-1,-1]","[0.004171295495162254,-0.15690797620314867]","[1,1,1]","[0.03180816545149005,-0.11793377474362784]","[1,1,1]","[-0.10973361193822709,-0.01912797657033915]","[-1,-1,-1]","[-0.05155916785162527,-0.06618014117352107]","[-1,-1,-1]","[0.05870058069765231,0.04718787027189144]","[-1,-1,-1]","[0.05249048694000682,-0.06733338513179585]","[-1,-1,-1]","[0.1618368450828431,0.018635217845134933]","[-1,-1,-1]","[0.1098420233416601,0.0502551491378563]","[-1,-1,-1]","[-0.10124888722149263,0.02209542312806682]","[1,1,1]","[-0.10148118240717004,-0.17050627789816347]","[1,1,1]","[-0.136426458651322,0.11306313157541219]","[1,1,1]","[-0.16298868766795077,0.07217039997899515]","[-1,-1,-1]","[0.11338723225968925,0.10142042737435988]","[1,1,1]","[0.1499040846629063,-0.032490680811013944]","[1,1,1]","[-0.1956150885376934,-0.026573038609216525]","[-1,-1,-1]","[0.1294469112585224,-0.09996240624405105]","[1,1,1]","[0.05396862406755412,-0.01739996887585659]","[1,1,1]","[-0.1470459345855358,0.0250828506654559]","[1,1,1]","[-0.10100535827419517,0.14629120789063804]","[-1,-1,-1]","[-0.05864459322412781,-0.16809517689688716]","[-1,-1,-1]","[0.0583242033439835,-0.16731146137805905]","[-1,-1,-1]","[-0.09600126849504545,0.10164048027692633]","[-1,-1,-1]","[-0.07359485998661962,-0.10289758030005257]","[-1,-1,-1]","[-0.0673850105452496,-0.008373629564953551]","[-1,-1,-1]","[0.02,0.02]",241.5823,0,25,25,61,1,,,,,,,
,,,,,,,610299d092eb1df29a1c88b6,682db41bde37fdf647aea495,2025-05-21_13h08.58.420,cuing_paradigm_dot,2024.1.5,Win32,60.60606061,682d556593cb38ad0a074487,,,,,,,,,,,241.5825,242.0824,,,242.3324,242.7325,left,,,,,,,,0.1,0.3905,,,,,,,242.0824,242.3324,242.7325,"[-0.03694159597269632,-0.10190577897742671]","[-1,-1,-1]","[0.061834308254308676,-0.0951983016983589]","[-1,-1,-1]","[0.020759703401897363,0.18011489288041352]","[-1,-1,-1]","[-0.10876682625168607,0.047533231631318305]","[1,1,1]","[-0.048696669866995536,-0.1697247718175332]","[-1,-1,-1]","[-0.007257428579305372,-0.16731219047361082]","[-1,-1,-1]","[-0.032089917008114456,0.05437998496953844]","[1,1,1]","[0.03287688074302884,0.058990047958823934]","[-1,-1,-1]","[-0.0856147959780241,0.14616070148370072]","[-1,-1,-1]","[0.0165483211608645,0.009011020598835467]","[-1,-1,-1]","[-0.11964125552175504,-0.023389499212196574]","[-1,-1,-1]","[0.03326395472582106,-0.18248936798444082]","[-1,-1,-1]","[0.0645360541362894,0.01061284480778089]","[-1,-1,-1]","[-0.057900423760838475,0.09009453777515838]","[-1,-1,-1]","[-0.028771214058103824,0.18332374718420433]","[-1,-1,-1]","[0.1086761592940862,0.12397545300099555]","[1,1,1]","[-0.11480880244643765,-0.14778449031684665]","[-1,-1,-1]","[0.06535914035030806,0.1845396655953207]","[-1,-1,-1]","[0.08777867716380151,-0.134188761794622]","[-1,-1,-1]","[-0.17267479948622402,-0.04779649295772622]","[-1,-1,-1]","[0.11166250122331395,0.028816464496998408]","[-1,-1,-1]","[-0.16987805696049724,0.04614734451005979]","[-1,-1,-1]","[-0.0762522680753598,-0.13140413789559446]","[-1,-1,-1]","[0.1503137543327225,0.12034404116237285]","[-1,-1,-1]","[0.034601683919614414,-0.12957476418612832]","[-1,-1,-1]","[0.15967098216388212,-0.02290449765054182]","[-1,-1,-1]","[-0.1331951905859878,0.08658874969853872]","[-1,-1,-1]","[0.14506692068031804,-0.06297080475718451]","[-1,-1,-1]","[-0.006978964048161732,0.1317651261064883]","[-1,-1,-1]","[-0.01241470224841403,-0.06643030892996314]","[-1,-1,-1]","[0.11083737580059964,0.0803231948458432]","[-1,-1,-1]","[0.026749142268117247,-0.03170761128540773]","[-1,-1,-1]","[0.02,0.02]",243.8326,0,26,26,5,1,,,,,,,
,,,,,,,610299d092eb1df29a1c88b6,682db41bde37fdf647aea495,2025-05-21_13h08.58.420,cuing_paradigm_dot,2024.1.5,Win32,60.60606061,682d556593cb38ad0a074487,,,,,,,,,,,243.8328,244.3325,,,244.5827,244.7992,left,,,,,,,,0.1,0.212,,,,,,,244.3325,244.5827,244.7992,"[-0.006617789450283271,0.17730777610260276]","[-1,-1,-1]","[0.038893490720695006,0.09954865200410863]","[-1,-1,-1]","[0.03301665736195576,0.024004571898678367]","[-1,-1,-1]","[-0.011983263772768394,-0.13876758331200226]","[-1,-1,-1]","[0.08319402324902264,0.07629063460371913]","[-1,-1,-1]","[0.06741078431963801,0.1366870279378915]","[-1,-1,-1]","[-0.11515066862216514,0.06142415593578568]","[-1,-1,-1]","[0.13643279011755324,-0.1286041199410775]","[-1,-1,-1]","[-0.18106498479386432,-0.024750112282673143]","[-1,-1,-1]","[-0.0737530350699998,0.17026273427848437]","[-1,-1,-1]","[0.09607132538962036,-0.12597204607733384]","[-1,-1,-1]","[0.06601844196267424,-0.042725545351176814]","[-1,-1,-1]","[0.02531076436045599,-0.06931286324405385]","[-1,-1,-1]","[0.1290634974904512,0.11223533949272102]","[-1,-1,-1]","[-0.0335574894238549,0.08864547893360915]","[-1,-1,-1]","[0.17413846170311728,0.017933318475578813]","[1,1,1]","[0.15344548448867126,0.06964713146361791]","[-1,-1,-1]","[0.05792068579076775,0.18699256007186138]","[-1,-1,-1]","[-0.07967543719803458,-0.12099450558525547]","[1,1,1]","[-0.11194971291139552,-0.008396759762851161]","[-1,-1,-1]","[-0.045572655545636144,0.132589482680442]","[-1,-1,-1]","[0.04398967604350908,-0.1367575858379869]","[-1,-1,-1]","[-0.04898516782924521,-0.022738797764970384]","[-1,-1,-1]","[-0.09620591234778768,-0.06284983349999447]","[1,1,1]","[0.05943118830964628,-0.1826434826337041]","[-1,-1,-1]","[0.1352525759402454,-0.017295610453544403]","[-1,-1,-1]","[-0.1855641135298476,0.0321094845983811]","[-1,-1,-1]","[-0.17583578835366045,-0.09513585371798046]","[-1,-1,-1]","[-0.12273827944619736,0.14992288460529854]","[-1,-1,-1]","[-0.0621557031852686,0.04204501237427905]","[-1,-1,-1]","[0.19406972340563372,-0.04500173103803265]","[-1,-1,-1]","[-0.02379152438134616,-0.09966952576065581]","[-1,-1,-1]","[0.02,0.02]",245.8993,0,27,27,0,1,,,,,,,
,,,,,,,610299d092eb1df29a1c88b6,682db41bde37fdf647aea495,2025-05-21_13h08.58.420,cuing_paradigm_dot,2024.1.5,Win32,60.60606061,682d556593cb38ad0a074487,,,,,,,,,,,245.8995,246.3991,,,246.6497,247.016,right,,,,,,,,0.9,0.361,,,,,,,246.3992,246.6497,247.016,"[-0.058500709393639876,-0.11868619610828011]","[1,1,1]","[0.1783285489965168,0.03668561964034862]","[1,1,1]","[-0.1128316727351911,-0.11071384958042864]","[1,1,1]","[-0.08919090074758365,0.15474712058247503]","[1,1,1]","[0.037088191551127594,-0.0027440175972507767]","[1,1,1]","[0.09602842389070156,0.037358383341037756]","[1,1,1]","[0.09072834648949774,-0.1442252955355122]","[1,1,1]","[-0.03883250017515281,0.048323451038206115]","[1,1,1]","[-0.05162499372997963,-0.1781592922812516]","[1,1,1]","[0.15780830255548994,0.11009884354505194]","[1,1,1]","[-0.15519125775823628,0.06274826080412266]","[1,1,1]","[-0.03392206775757491,0.14357093938030277]","[-1,-1,-1]","[0.14285290280019747,0.0069875940844733135]","[1,1,1]","[0.03787825610362777,0.17177741293568963]","[-1,-1,-1]","[0.1382527937549909,-0.1360414529634215]","[1,1,1]","[0.07202270615468259,-0.024694560654218455]","[1,1,1]","[0.13823344254727574,-0.041854142812898336]","[1,1,1]","[0.029638374749777405,0.08551784261014389]","[1,1,1]","[0.004314375664829546,-0.19080937494649858]","[1,1,1]","[0.17673515784872365,-0.06374205429904509]","[1,1,1]","[-0.034007118722199074,-0.039774010758890886]","[1,1,1]","[-0.12493141898617798,0.10412086163032677]","[1,1,1]","[0.037199561491160035,-0.12120473092269943]","[1,1,1]","[-0.1612570094692671,-0.06069098821777338]","[1,1,1]","[-0.07834789427062733,-0.011094211316866895]","[1,1,1]","[-0.09783970147049321,-0.060441280415249966]","[1,1,1]","[0.1075351627523969,0.16639914052891483]","[1,1,1]","[0.1004341435634499,-0.06420215951674305]","[1,1,1]","[-0.004801300832362407,-0.10973398770604394]","[1,1,1]","[0.07643444227816716,0.09429045985356099]","[1,1,1]","[0.19551654287139938,-0.0022070650783749843]","[1,1,1]","[-0.10066431941407514,-0.1653364305098895]","[-1,-1,-1]","[0.02,0.02]",248.1161,0,28,28,184,1,,,,,,,
,,,,,,,610299d092eb1df29a1c88b6,682db41bde37fdf647aea495,2025-05-21_13h08.58.420,cuing_paradigm_dot,2024.1.5,Win32,60.60606061,682d556593cb38ad0a074487,,,,,,,,,,,248.1162,248.6162,,,248.8664,249.3495,left,,,,,,,,0.6,0.4656,,,,,,,248.6162,248.8664,249.3496,"[-0.07864926426167564,-0.1797048316582687]","[1,1,1]","[0.0742004973134303,-0.18101994359708787]","[1,1,1]","[0.18294890029380576,-0.0493952822651601]","[1,1,1]","[0.006543875620428597,-0.053070692344036774]","[-1,-1,-1]","[0.16407904948096097,0.0569453271702056]","[1,1,1]","[-0.03348823296246405,0.10231709493994057]","[-1,-1,-1]","[0.03481457232277941,0.16414759957281233]","[-1,-1,-1]","[0.1511252530054324,-0.12173955422333553]","[-1,-1,-1]","[0.1202592487266208,0.05459203135406739]","[1,1,1]","[-0.10624904477672878,0.0945835904370131]","[-1,-1,-1]","[-0.15553624972440938,-0.09975529114518732]","[1,1,1]","[0.11130713297202963,-0.13057570156718118]","[1,1,1]","[-0.07360101539528108,-0.08944528906140405]","[1,1,1]","[0.1354610854458599,0.1105182702292566]","[-1,-1,-1]","[-0.0450128745348528,0.010466578217643595]","[1,1,1]","[-0.14983241492054383,0.07489740997687568]","[1,1,1]","[0.046837266154367535,-0.05758418059290318]","[1,1,1]","[-0.00998064626501973,0.05232883041580238]","[1,1,1]","[-0.11529039265654945,0.04794572468318646]","[1,1,1]","[-0.09329122295459336,-0.011046915956442247]","[-1,-1,-1]","[0.11625217012758812,-0.022760008086195264]","[-1,-1,-1]","[0.11586445191537956,-0.06761133126525555]","[-1,-1,-1]","[0.04973997427929143,0.05650955055436922]","[1,1,1]","[-0.0076033807410332875,0.1873236497570781]","[1,1,1]","[0.07639535873831287,0.09436152291649842]","[1,1,1]","[-0.16293899889293487,-0.028507628710269784]","[1,1,1]","[0.09145545898615298,0.13589007380772766]","[-1,-1,-1]","[-0.07875535433800424,0.13388496123561935]","[-1,-1,-1]","[0.0396585531712186,0.007895131555901522]","[-1,-1,-1]","[-0.1250843912205008,-0.058894878915603854]","[1,1,1]","[-0.1136071068774842,-0.15442686499313443]","[1,1,1]","[-0.17830390745186567,0.03931011831762034]","[-1,-1,-1]","[0.02,0.02]",250.4494,0,29,29,156,1,,,,,,,
,,,,,,,610299d092eb1df29a1c88b6,682db41bde37fdf647aea495,2025-05-21_13h08.58.420,cuing_paradigm_dot,2024.1.5,Win32,60.60606061,682d556593cb38ad0a074487,,,,,,,,,,,250.4497,250.9496,,,251.1995,251.5497,left,,,,,,,,0.1,0.3326,,,,,,,250.9497,251.1995,251.5497,"[-0.08342579406968609,-0.15135396019235967]","[1,1,1]","[-0.010103443401457277,-0.02847382552922273]","[-1,-1,-1]","[0.0326426675903275,0.18849593649179142]","[-1,-1,-1]","[0.08550983672008826,0.10377956632083755]","[1,1,1]","[0.06748299776265469,0.061574988266742924]","[-1,-1,-1]","[-0.005448859280600267,0.014832455620183016]","[-1,-1,-1]","[-0.02575734598103004,0.0662294363332421]","[-1,-1,-1]","[0.005980731830323118,0.10192040033150371]","[-1,-1,-1]","[-0.16442749928908207,-0.055846629611785804]","[-1,-1,-1]","[-0.19153053680323265,0.05133376721100325]","[-1,-1,-1]","[-0.01652762402724779,-0.144812541955414]","[-1,-1,-1]","[-0.058611338362592476,0.02848767207222909]","[-1,-1,-1]","[-0.042346538356437945,0.13839881333380855]","[-1,-1,-1]","[0.09119860753048806,-0.13845233690095718]","[-1,-1,-1]","[0.14345301043868894,-0.11642145446497955]","[-1,-1,-1]","[-0.11355034016689038,-0.08511015645455046]","[-1,-1,-1]","[-0.13890081305737584,0.08907065677466199]","[-1,-1,-1]","[0.07062539498870742,-0.07682603138641343]","[-1,-1,-1]","[-0.04535402234246034,0.18373977351331042]","[-1,-1,-1]","[-0.08505070091029188,0.12571205937849092]","[-1,-1,-1]","[0.1663833562504412,0.09547630134692997]","[1,1,1]","[0.1577055856052869,0.007435457599169796]","[-1,-1,-1]","[0.13733800915183503,-0.07128840714595075]","[-1,-1,-1]","[0.015105775440804567,0.14147106057326367]","[-1,-1,-1]","[-0.0011109638802101734,-0.19437764366036128]","[-1,-1,-1]","[-0.04675165519217137,-0.09966516435102082]","[-1,-1,-1]","[0.19486825669390798,0.031771476681898836]","[-1,-1,-1]","[-0.0700123573125067,-0.04938657660614839]","[-1,-1,-1]","[-0.12237402514201494,-0.12422195591396613]","[-1,-1,-1]","[-0.09755876867295345,0.04813033660640306]","[-1,-1,-1]","[0.11592127533762034,0.052776973076177874]","[-1,-1,-1]","[-0.10284847414236932,0.1714814186314805]","[-1,-1,-1]","[0.02,0.02]",252.6496,0,30,30,27,1,,,,,,,
,,,,,,,610299d092eb1df29a1c88b6,682db41bde37fdf647aea495,2025-05-21_13h08.58.420,cuing_paradigm_dot,2024.1.5,Win32,60.60606061,682d556593cb38ad0a074487,,,,,,,,,,,252.6498,253.1497,,,253.3999,253.9331,right,,,,,,,,0.6,0.5149,,,,,,,253.1497,253.3999,253.9331,"[0.0010382675592969402,-0.186231752408205]","[1,1,1]","[0.04630649564765856,0.03921694998821082]","[1,1,1]","[-0.021806490756694108,-0.020627909640803365]","[1,1,1]","[0.07914871922126857,-0.07007463184501217]","[1,1,1]","[-0.14048978030579798,-0.011235690555761516]","[1,1,1]","[-0.12069405890405722,0.08307621334897203]","[-1,-1,-1]","[-0.15696856632340345,-0.06637687831249958]","[-1,-1,-1]","[-0.050420949425411477,-0.14200317864341463]","[-1,-1,-1]","[0.13552567058892245,0.12795315672521632]","[1,1,1]","[0.13230921638059728,-0.0018474398913874478]","[1,1,1]","[-0.17684690332135047,0.07379481450490005]","[1,1,1]","[-0.003495828889302529,-0.11640596180994978]","[-1,-1,-1]","[0.13047386336565264,0.08805531532479641]","[-1,-1,-1]","[-0.05023939922781994,-0.09764390083681568]","[1,1,1]","[0.03942235140550559,0.17701902855153456]","[1,1,1]","[-0.07562145426936911,0.09752387314886539]","[-1,-1,-1]","[0.029293529819700383,-0.03415929737492177]","[1,1,1]","[-0.18252505925474036,-0.03450948944366112]","[-1,-1,-1]","[-0.11531356125002437,-0.14780740619955796]","[1,1,1]","[-0.03160983312352034,0.09642210107700884]","[-1,-1,-1]","[0.12494636165221135,-0.07301061998209005]","[1,1,1]","[-0.08738676171072117,0.010202751226495407]","[1,1,1]","[0.1611165996274092,0.052440022180156844]","[-1,-1,-1]","[0.09131524161624383,0.01805676219820621]","[1,1,1]","[0.17259571193600137,-0.0011656905894321615]","[-1,-1,-1]","[-0.04788015182076066,0.04464071213770804]","[1,1,1]","[-0.15110152881237424,0.11517222551791688]","[-1,-1,-1]","[0.045041618706363314,-0.18719804400033738]","[-1,-1,-1]","[0.06835652430816018,-0.14219463642025515]","[-1,-1,-1]","[-0.10496639524126572,-0.061826350306854384]","[1,1,1]","[0.09403660520274366,0.1329957095855395]","[1,1,1]","[0.1249927532942837,-0.1424113253688423]","[1,1,1]","[0.02,0.02]",255.0332,0,31,31,170,1,,,,,,,
,,,,,,,610299d092eb1df29a1c88b6,682db41bde37fdf647aea495,2025-05-21_13h08.58.420,cuing_paradigm_dot,2024.1.5,Win32,60.60606061,682d556593cb38ad0a074487,,,,,,,,,,,255.0334,255.5332,,,255.7833,256.0832,right,,,,,,,,0.9,0.2912,,,,,,,255.5332,255.7832,256.0833,"[-0.010064793655747636,-0.006389650827251836]","[1,1,1]","[-0.13595475437431215,-0.012041858101715356]","[-1,-1,-1]","[0.11684386416785275,0.025371867232711755]","[-1,-1,-1]","[0.14858290318543646,0.12483170655114546]","[1,1,1]","[-0.01698987453379659,0.15153743616037002]","[1,1,1]","[0.14920973656051495,-0.12707564295722656]","[1,1,1]","[-0.03476620607920557,0.07539548727176397]","[-1,-1,-1]","[-0.09052192644131514,0.14567390448437958]","[1,1,1]","[0.013462999673775821,0.04362461816138616]","[1,1,1]","[-0.17885766432572128,0.06933941535778132]","[1,1,1]","[-0.044467939770010186,0.026980991519012086]","[1,1,1]","[0.15175785276427478,-0.012900860495601884]","[1,1,1]","[0.03928784213595242,-0.06161036136754431]","[1,1,1]","[0.18628892935303532,-0.033761958717009585]","[1,1,1]","[0.18713340998618713,0.035571655298414225]","[1,1,1]","[-0.0019574566788646457,-0.055783538926556964]","[1,1,1]","[0.008356098609090945,0.09739169068803323]","[1,1,1]","[0.1288308897708008,-0.07731991472841175]","[1,1,1]","[-0.07941251973605634,-0.06857528398208532]","[1,1,1]","[-0.10100495605109897,0.06914334245769178]","[1,1,1]","[0.04610982950769387,0.14800375294053983]","[1,1,1]","[0.007048986048953155,-0.17406048264791785]","[1,1,1]","[-0.17183890605852667,-0.031468728780542424]","[1,1,1]","[-0.11623206846313655,-0.10651183209711663]","[1,1,1]","[-0.1438206289364784,-0.07450321483795105]","[1,1,1]","[-0.08315899673744437,-0.16050532805522424]","[1,1,1]","[0.07972292853028384,-0.0027217869433765344]","[1,1,1]","[0.07207519665196022,0.08847711895258185]","[1,1,1]","[-0.12499676764182319,0.031279273170255785]","[1,1,1]","[0.10969884408229502,0.14826773897807435]","[1,1,1]","[0.06919230546396729,-0.15599768367063932]","[1,1,1]","[0.13454239780990426,0.0639925809941829]","[1,1,1]","[0.02,0.02]",257.1832,0,32,32,183,1,,,,,,,
,,,,,,,610299d092eb1df29a1c88b6,682db41bde37fdf647aea495,2025-05-21_13h08.58.420,cuing_paradigm_dot,2024.1.5,Win32,60.60606061,682d556593cb38ad0a074487,,,,,,,,,,,257.1834,257.6832,,,257.9335,258.3,left,,,,,,,,0.1,0.35,,,,,,,257.6833,257.9335,258.3,"[-0.03517860124632002,-0.04167076666545629]","[-1,-1,-1]","[-0.10623933906417998,0.08628767917079937]","[-1,-1,-1]","[0.06584452515847268,0.08989393869954575]","[-1,-1,-1]","[-0.1555367656606073,0.0591160675000712]","[-1,-1,-1]","[0.06853180236222658,-0.1268872312002684]","[-1,-1,-1]","[-0.1063511388809013,-0.15401366451690487]","[-1,-1,-1]","[0.014667072743168386,-0.039713672194158146]","[-1,-1,-1]","[-0.07274552341410075,0.01865639121898592]","[1,1,1]","[-0.15901587591770247,-0.04555212472193562]","[-1,-1,-1]","[-0.12141749206844157,0.032728081576499014]","[-1,-1,-1]","[0.19699551557254755,-0.007443507965719315]","[-1,-1,-1]","[-0.16492322402348852,0.017197027529734427]","[-1,-1,-1]","[0.07706501523746602,-0.171002621128869]","[-1,-1,-1]","[0.08149011564782252,0.0028514787996666673]","[-1,-1,-1]","[-0.013007141614109007,-0.08545494103990388]","[-1,-1,-1]","[-0.00742448814215089,0.12282852657555032]","[1,1,1]","[-0.0054225674777555926,0.042884029921532174]","[-1,-1,-1]","[0.08942345429191817,-0.05380952802455338]","[-1,-1,-1]","[0.12058304141408692,0.05388056320420917]","[-1,-1,-1]","[-0.07270165529112194,0.0606927173618961]","[-1,-1,-1]","[0.02513749214049567,-0.1687013199414681]","[-1,-1,-1]","[-0.15698375590177854,0.12049810165713046]","[-1,-1,-1]","[0.0786269912744461,0.13219000732608754]","[-1,-1,-1]","[0.04584048598829255,0.04741026924054707]","[-1,-1,-1]","[-0.047861756667460245,0.11805470195499529]","[-1,-1,-1]","[-0.0755763767536466,-0.06701529844532829]","[1,1,1]","[0.02860346620091072,-0.091246256997876]","[-1,-1,-1]","[-0.04580529175649951,-0.15267847622868302]","[-1,-1,-1]","[0.09483494907123172,0.16895652053717106]","[-1,-1,-1]","[-0.07944959010398302,0.15421076802645858]","[-1,-1,-1]","[0.03544961230789682,0.1814141212462611]","[-1,-1,-1]","[-0.12851834704141035,-0.013831776622299825]","[-1,-1,-1]","[0.02,0.02]",259.4,0,33,33,4,1,,,,,,,
,,,,,,,610299d092eb1df29a1c88b6,682db41bde37fdf647aea495,2025-05-21_13h08.58.420,cuing_paradigm_dot,2024.1.5,Win32,60.60606061,682d556593cb38ad0a074487,,,,,,,,,,,259.4001,259.9001,,,260.1503,260.6835,right,,,,,,,,0.6,0.5257,,,,,,,259.9001,260.1503,260.6835,"[-0.015874255638529355,-0.019252576397319213]","[-1,-1,-1]","[0.12320762887876087,-0.01710544756307181]","[1,1,1]","[-0.16094287464199858,0.027257239447189704]","[-1,-1,-1]","[-0.016092890115229175,0.08221344749091798]","[1,1,1]","[-0.13540111923689105,-0.04190213638337912]","[-1,-1,-1]","[0.14428475287883388,0.11584622539892139]","[-1,-1,-1]","[-0.06453421886880854,-0.04389292888704736]","[1,1,1]","[-0.1072478269467043,0.10239235114327513]","[-1,-1,-1]","[0.08297584694420124,0.007520340712956508]","[1,1,1]","[0.08051998674933664,0.12623504443777575]","[1,1,1]","[0.09614085272853501,-0.11191950018094476]","[1,1,1]","[-0.04592233861991897,-0.1595271959948571]","[-1,-1,-1]","[-0.07155175608741896,-0.11956375161246423]","[1,1,1]","[0.13137194218711307,-0.14084574291922605]","[1,1,1]","[0.1537604370251277,-0.09271964763131409]","[1,1,1]","[0.16441397374032735,-0.026616451797322617]","[1,1,1]","[0.05500182468493432,0.05850570402974775]","[1,1,1]","[-0.030590646697590068,0.143075093688324]","[1,1,1]","[-0.015118290220551535,0.0246083767583625]","[-1,-1,-1]","[-0.137153985442695,-0.10070852682454909]","[-1,-1,-1]","[0.012749694632019077,-0.05360521861025799]","[1,1,1]","[0.19819610854205227,0.011471296344777176]","[-1,-1,-1]","[-0.17764514839289264,-0.01591109760484798]","[1,1,1]","[-0.05473952813272754,0.04440607919231151]","[1,1,1]","[0.14318117050655288,0.023827704870485914]","[-1,-1,-1]","[-0.1786653853667375,0.06416150428733679]","[-1,-1,-1]","[0.0316153668109404,-0.12999537985229626]","[1,1,1]","[-0.096168211810424,-0.018244928984085067]","[1,1,1]","[0.010528806384098179,0.17885187418540313]","[1,1,1]","[0.05639724978953247,0.17311828569224433]","[1,1,1]","[0.07334825402981593,-0.15609441019384973]","[-1,-1,-1]","[0.06951294241110206,-0.05005088310797027]","[-1,-1,-1]","[0.02,0.02]",261.7835,0,34,34,169,1,,,,,,,
,,,,,,,610299d092eb1df29a1c88b6,682db41bde37fdf647aea495,2025-05-21_13h08.58.420,cuing_paradigm_dot,2024.1.5,Win32,60.60606061,682d556593cb38ad0a074487,,,,,,,,,,,261.7836,262.2836,,,262.5338,262.917,right,,,,,,,,0.5,0.3731,,,,,,,262.2836,262.5337,262.917,"[-0.08651755202644813,0.09400052315277761]","[1,1,1]","[0.088304763585704,0.024215721751521032]","[1,1,1]","[-0.015933823457773496,-0.19475389951791958]","[-1,-1,-1]","[0.1244168025998553,0.14228833320859113]","[-1,-1,-1]","[-0.07214448386020403,-0.09171212134568989]","[-1,-1,-1]","[0.07170384444055833,0.06120409940032538]","[1,1,1]","[0.024476493761051092,-0.15118000621894565]","[1,1,1]","[0.09268173203021385,-0.10188472030957106]","[1,1,1]","[-0.10322018978071948,0.03400111413936244]","[1,1,1]","[-0.11272092442661055,-0.11580466720706867]","[-1,-1,-1]","[-0.12943783739620182,0.14055902957016683]","[-1,-1,-1]","[0.062265460204168954,-0.17768028179167453]","[1,1,1]","[-0.1756203236291141,-0.07011113963362323]","[-1,-1,-1]","[0.09517214931727568,-0.05969922267448033]","[-1,-1,-1]","[-0.0594566081289132,-0.18825420660871847]","[1,1,1]","[0.004067218566962694,-0.06832191269450633]","[1,1,1]","[-0.0408425698166179,0.015664924822243652]","[-1,-1,-1]","[-0.008199659856934003,0.13093012085047287]","[1,1,1]","[0.04415424139163948,0.01466106952736189]","[-1,-1,-1]","[0.17957936590491547,-0.021415911391867347]","[-1,-1,-1]","[0.028372326646603083,0.07233815900491959]","[-1,-1,-1]","[-0.16345754245799962,0.01263035699860115]","[1,1,1]","[-0.1944485925298634,0.03988745251454501]","[-1,-1,-1]","[-0.08960260010857583,-0.15867025815586092]","[1,1,1]","[0.16801296993509746,0.04396771275003658]","[-1,-1,-1]","[-0.013420429593904196,-0.10564947358880489]","[1,1,1]","[0.02613337501210731,0.18755175105361827]","[1,1,1]","[0.1828707554497672,-0.07050323373257095]","[-1,-1,-1]","[-0.15296579012273415,0.09135816031185233]","[-1,-1,-1]","[0.10784423349303586,0.09580289124790682]","[-1,-1,-1]","[-0.0639477351923575,0.04968599961539594]","[1,1,1]","[0.06820568588839655,0.18045970939162903]","[1,1,1]","[0.02,0.02]",264.0171,0,35,35,103,1,,,,,,,
,,,,,,,610299d092eb1df29a1c88b6,682db41bde37fdf647aea495,2025-05-21_13h08.58.420,cuing_paradigm_dot,2024.1.5,Win32,60.60606061,682d556593cb38ad0a074487,,,,,,,,,,,264.0173,264.5171,,,264.7672,265.0504,right,,,,,,,,0.55,0.2756,,,,,,,264.5171,264.7672,265.0505,"[-0.12546374974306757,0.04590286999765126]","[-1,-1,-1]","[0.03843180015069739,-0.07033762611347923]","[-1,-1,-1]","[-0.11200954026665545,0.005156408680991042]","[1,1,1]","[-0.12287965616075612,-0.07971325285618082]","[-1,-1,-1]","[-0.13240217704228988,0.12451205920528263]","[1,1,1]","[0.11800336034284614,-0.14080071619125958]","[1,1,1]","[-0.08876197083994629,0.06707554738994138]","[-1,-1,-1]","[0.0542078978697412,-0.17601150873212343]","[1,1,1]","[-0.05555404564593353,-0.13857197163347948]","[1,1,1]","[-0.09860597644197533,-0.14934363794998615]","[-1,-1,-1]","[-0.05433355649271732,-0.0718507409877238]","[-1,-1,-1]","[0.04492445717359445,0.10281515386406917]","[1,1,1]","[-0.004370350422800457,-0.15933825965658294]","[-1,-1,-1]","[0.17451496122927918,-0.08225588920882645]","[1,1,1]","[0.07136827516369901,0.022956956137255152]","[1,1,1]","[0.11065353786779772,0.1561395062922391]","[-1,-1,-1]","[-0.1646548690498024,-0.10497731057430386]","[1,1,1]","[-0.17427374025703637,-0.022836480154897927]","[1,1,1]","[0.11588271196267155,0.05018725592532232]","[-1,-1,-1]","[0.005044702496452858,0.06810057671689154]","[1,1,1]","[-0.02345758318723903,-0.02185870150423652]","[-1,-1,-1]","[0.005836363080179387,0.19551591057481071]","[-1,-1,-1]","[0.01548947467410229,-0.03692046903002495]","[1,1,1]","[0.1378009951561255,-0.053767113761312275]","[1,1,1]","[0.19883771650086918,-0.008963203312206269]","[1,1,1]","[0.18836280459721072,0.06578507472129153]","[1,1,1]","[-0.04036611567804681,0.18471036586216702]","[-1,-1,-1]","[0.1378504030367517,-0.012729980581733512]","[1,1,1]","[0.12677834024833531,0.10683698486628274]","[-1,-1,-1]","[0.10871574020142091,-0.09888964828911401]","[1,1,1]","[0.055333108139840145,0.15431272228121423]","[1,1,1]","[-0.057074320302180376,0.1122127867138001]","[-1,-1,-1]","[0.02,0.02]",266.1505,0,36,36,121,1,,,,,,,
,,,,,,,610299d092eb1df29a1c88b6,682db41bde37fdf647aea495,2025-05-21_13h08.58.420,cuing_paradigm_dot,2024.1.5,Win32,60.60606061,682d556593cb38ad0a074487,,,,,,,,,,,266.1506,266.6506,,,266.9006,267.2172,right,,,,,,,,0.5,0.3033,,,,,,,266.6506,266.9006,267.2172,"[0.05045008509359907,0.06489302425499391]","[-1,-1,-1]","[-0.10894131861764937,0.08089708597095074]","[-1,-1,-1]","[-0.05001126198689947,0.07266491006987735]","[1,1,1]","[0.04752994863721242,-0.010250098536686438]","[1,1,1]","[-0.19581856794056726,-0.03022664373739527]","[-1,-1,-1]","[0.13093479314514025,0.14237793876573315]","[1,1,1]","[0.12528806052919758,-0.049261682075980175]","[1,1,1]","[0.04060067323000778,-0.06364955549998788]","[1,1,1]","[0.03450588368082747,0.17935554008144786]","[1,1,1]","[-0.171880177804414,0.08006772667520874]","[-1,-1,-1]","[-0.03796074636092078,0.11927620519733577]","[-1,-1,-1]","[-0.014145372453174007,-0.07918283357827556]","[1,1,1]","[-0.046090656524377216,-0.12350888815932753]","[-1,-1,-1]","[0.14861437905333655,0.09379454367292536]","[-1,-1,-1]","[-0.0743231955600598,-0.15245161099166205]","[1,1,1]","[-0.1194116523398518,-0.12633677768482482]","[1,1,1]","[0.1861328441351315,0.05715840852333079]","[1,1,1]","[-0.02211565313536386,0.03115652731056195]","[-1,-1,-1]","[-0.1858595768861505,0.017905126535250733]","[-1,-1,-1]","[-0.06352036388308208,-0.03594367998375756]","[-1,-1,-1]","[-0.13895070319555458,0.13433663574028862]","[1,1,1]","[0.10052898046972755,-0.14404135969325]","[-1,-1,-1]","[-0.10085472198284098,-0.053803983481417884]","[1,1,1]","[-0.042584341851156185,0.1659628909932492]","[-1,-1,-1]","[-0.05463328249007627,-0.07750315172988131]","[1,1,1]","[0.17956013745959606,0.0037982460665690514]","[1,1,1]","[0.11691422286612134,0.021324741969604058]","[-1,-1,-1]","[-0.051872749848542545,-0.1903619392357011]","[-1,-1,-1]","[0.18252224258239352,-0.06696458435415117]","[1,1,1]","[0.002645414472275077,-0.02247837925925077]","[-1,-1,-1]","[-0.09880655115745653,-0.011434629270846828]","[-1,-1,-1]","[-0.13847855265886225,0.008607101173189287]","[1,1,1]","[0.02,0.02]",268.3172,0,37,37,98,1,,,,,,,
,,,,,,,610299d092eb1df29a1c88b6,682db41bde37fdf647aea495,2025-05-21_13h08.58.420,cuing_paradigm_dot,2024.1.5,Win32,60.60606061,682d556593cb38ad0a074487,,,,,,,,,,,268.3175,268.8173,,,269.0674,269.5173,left,,,,,,,,0.45,0.4325,,,,,,,268.8173,269.0674,269.5174,"[0.12828891905204956,0.14658061932877864]","[1,1,1]","[0.18636009634727302,-0.06268205158516564]","[1,1,1]","[-0.001816145388179449,-0.08385362084417068]","[-1,-1,-1]","[0.015239732672373298,-0.004560837529886274]","[1,1,1]","[-0.12407221264477755,0.04525463007927809]","[1,1,1]","[-0.09636365912800653,0.14919129724136806]","[1,1,1]","[-0.09247613322827909,-0.09163034771522335]","[-1,-1,-1]","[-0.05550423229588373,-0.021684319673989018]","[-1,-1,-1]","[0.10404570309319507,0.004169143116753743]","[1,1,1]","[-0.03552401038347284,-0.1572301968775202]","[-1,-1,-1]","[0.00990365781338585,0.04317763348542603]","[1,1,1]","[-0.09223856947272975,-0.13165566397471354]","[-1,-1,-1]","[0.07739847521710583,-0.1280464848997901]","[-1,-1,-1]","[0.14437833323126442,-0.004455360208630628]","[1,1,1]","[-0.0007512022314473066,0.1554508434198586]","[-1,-1,-1]","[-0.0025106454104997884,0.09661132797765842]","[-1,-1,-1]","[0.07188016565664568,-0.04764339392703037]","[-1,-1,-1]","[0.15073288081830616,-0.12645853734217785]","[-1,-1,-1]","[-0.1520666097898412,0.08947094059859474]","[-1,-1,-1]","[0.06539086391695631,0.08356320380506317]","[1,1,1]","[-0.1598187068289518,-0.11497857712752943]","[-1,-1,-1]","[0.09949665719090128,-0.08790070552085864]","[-1,-1,-1]","[0.15759992139378456,0.08098999961084277]","[-1,-1,-1]","[0.0018765693063440506,-0.12633714168681692]","[-1,-1,-1]","[-0.08162929540483697,0.04656221785271243]","[1,1,1]","[0.195774551159685,0.009910554364545545]","[1,1,1]","[-0.10871028275461538,0.10043095512527646]","[1,1,1]","[0.040802291102633476,0.1621452498079898]","[-1,-1,-1]","[0.07845158808168959,0.17776288427947332]","[1,1,1]","[-0.1965206243561447,-0.03628234258375061]","[-1,-1,-1]","[-0.16604455604842722,0.03439421039549041]","[1,1,1]","[-0.05219566008398847,0.10288723449233501]","[-1,-1,-1]","[0.02,0.02]",270.6173,0,38,38,65,1,,,,,,,
,,,,,,,610299d092eb1df29a1c88b6,682db41bde37fdf647aea495,2025-05-21_13h08.58.420,cuing_paradigm_dot,2024.1.5,Win32,60.60606061,682d556593cb38ad0a074487,,,,,,,,,,,270.6175,271.1174,,,271.3676,271.6675,left,,,,,,,,0.1,0.2827,,,,,,,271.1175,271.3676,271.6676,"[0.028794983632593148,0.07232971617420425]","[-1,-1,-1]","[0.08939829868792723,-0.1548939303959275]","[1,1,1]","[0.11368661089664155,0.09445814554010194]","[-1,-1,-1]","[-0.07998822145341092,0.1695808496788763]","[-1,-1,-1]","[-0.08797267643534529,-0.04255305351396162]","[-1,-1,-1]","[0.11608073412072938,-0.07615023413230185]","[-1,-1,-1]","[0.037234779960132865,-0.12437497363845865]","[-1,-1,-1]","[-0.09464170242530995,0.04651718828314611]","[-1,-1,-1]","[0.043042323762039585,-0.17480951274412118]","[-1,-1,-1]","[0.07353695728188506,-0.031525853929216856]","[-1,-1,-1]","[0.04610905201750278,0.008755606556396385]","[-1,-1,-1]","[-0.0026458237440275035,0.19094240362211556]","[-1,-1,-1]","[-0.019594610915048574,-0.1342305651942503]","[-1,-1,-1]","[0.10702439242035498,0.017610154147830525]","[-1,-1,-1]","[0.14314381692276532,-0.10686363103281683]","[-1,-1,-1]","[-0.1255688823168655,-0.128838123631073]","[-1,-1,-1]","[-0.1457472395038481,-0.013075946022474765]","[-1,-1,-1]","[-0.17777998373629728,0.025328888376942]","[-1,-1,-1]","[-0.12429216184649755,0.10035271715637398]","[1,1,1]","[-0.03569372121634278,-0.06164666548717394]","[-1,-1,-1]","[0.0040893728143386555,0.02459000231353735]","[-1,-1,-1]","[0.029971593202740957,0.14099217541026118]","[-1,-1,-1]","[-0.052018543182877165,0.03048722998188353]","[-1,-1,-1]","[-0.003922345211468092,0.09831546495304239]","[-1,-1,-1]","[-0.12554886648599575,0.14781488785856756]","[-1,-1,-1]","[-0.16549942682935706,0.07430617473341031]","[-1,-1,-1]","[0.06712189932379634,0.16510113561679435]","[-1,-1,-1]","[0.1482867372529877,0.054688531261805534]","[1,1,1]","[0.16670999819178894,-0.03353816555049044]","[-1,-1,-1]","[-0.16500544484249302,-0.056572368418480685]","[-1,-1,-1]","[0.18775353312011975,0.033223405289945815]","[-1,-1,-1]","[0.03658473709714947,-0.07886226138625818]","[-1,-1,-1]","[0.02,0.02]",272.7675,0,39,39,20,1,,,,,,,
,,,,,,,610299d092eb1df29a1c88b6,682db41bde37fdf647aea495,2025-05-21_13h08.58.420,cuing_paradigm_dot,2024.1.5,Win32,60.60606061,682d556593cb38ad0a074487,,,,,,,,,,,272.7676,273.2675,,,273.5176,274.0343,left,,,,,,,,0.45,0.5101,,,,,,,273.2675,273.5176,274.0343,"[0.12780809710420027,-0.07844632197769877]","[-1,-1,-1]","[-0.09007682185701087,0.0028253291621037502]","[-1,-1,-1]","[-0.07115062900305094,-0.11826700987179346]","[-1,-1,-1]","[-0.16270126775714577,-0.05664971804898845]","[1,1,1]","[0.037050736001232,0.18189317315259565]","[1,1,1]","[-0.061013217769888266,0.09359910054955402]","[-1,-1,-1]","[-0.14072881427324208,0.026932872673102952]","[-1,-1,-1]","[0.10600708820833454,-0.14372573149866427]","[1,1,1]","[-0.01822256155948394,0.1704586314454464]","[1,1,1]","[-0.013371283948580155,-0.17083859937029555]","[1,1,1]","[0.09208494012300394,0.028563369742902318]","[1,1,1]","[0.04769061708976762,0.024344525237977206]","[1,1,1]","[-0.18284239100428962,0.019295497054429015]","[-1,-1,-1]","[0.18869886525889143,0.0215358327152414]","[-1,-1,-1]","[0.051238756089583296,-0.19281986936790593]","[-1,-1,-1]","[0.17931754078367038,-0.06954563765067279]","[1,1,1]","[0.06765108592204537,0.07880330552154276]","[-1,-1,-1]","[-0.13766039789583842,-0.015146213785715797]","[-1,-1,-1]","[0.02338570688649695,-0.14831214989460215]","[-1,-1,-1]","[-0.1660929619113614,0.07758979577578853]","[-1,-1,-1]","[0.14555443080888378,-0.007645595719315307]","[-1,-1,-1]","[-0.11237864519054844,-0.15379859095422643]","[1,1,1]","[-0.09050655543811834,-0.0374652214162355]","[1,1,1]","[-0.020241360329711196,0.0026119298712581314]","[-1,-1,-1]","[0.0433122439961691,-0.017766792666320315]","[1,1,1]","[0.04638997246732062,0.11723487929098146]","[1,1,1]","[0.18435698861040442,0.07528735480666607]","[-1,-1,-1]","[-0.013178242561417893,-0.04057212082475182]","[-1,-1,-1]","[-0.0468434850303625,-0.06488118647218313]","[-1,-1,-1]","[0.12544005458155336,0.07214907619110425]","[1,1,1]","[0.08205173138386966,-0.04888416450385597]","[1,1,1]","[-0.007847912603902826,0.05618371803373256]","[-1,-1,-1]","[0.02,0.02]",275.1343,0,40,40,67,1,,,,,,,
,,,,,,,610299d092eb1df29a1c88b6,682db41bde37fdf647aea495,2025-05-21_13h08.58.420,cuing_paradigm_dot,2024.1.5,Win32,60.60606061,682d556593cb38ad0a074487,,,,,,,,,,,275.1345,275.6344,,,275.8845,276.2677,right,,,,,,,,0.45,0.3747,,,,,,,275.6344,275.8845,276.2678,"[0.08868134922226946,0.0452076866409566]","[-1,-1,-1]","[0.1765106598639181,-0.03240373415669995]","[-1,-1,-1]","[0.08237483853538198,-0.1102972096686626]","[-1,-1,-1]","[-0.12550791732997044,0.09645947374553437]","[-1,-1,-1]","[0.15593428936561984,-0.09001486421332495]","[1,1,1]","[-0.10249929307747505,-0.09887011002423424]","[-1,-1,-1]","[0.022969396089864327,-0.14992009655868876]","[-1,-1,-1]","[-0.002860975838319879,-0.045204254568621344]","[1,1,1]","[0.04123194736267992,0.173788021103231]","[1,1,1]","[-0.13728310526306378,0.0504349513122586]","[-1,-1,-1]","[0.0948489168958339,0.09048317050016094]","[-1,-1,-1]","[0.06292921803664484,-0.1752832484874422]","[1,1,1]","[0.06143474538501131,0.1312708995457663]","[1,1,1]","[-0.06720555337937366,-0.04571604420445346]","[1,1,1]","[-0.023954456159244256,0.13766501634081568]","[-1,-1,-1]","[0.10388140718255551,0.13289962177055806]","[-1,-1,-1]","[-0.19645302869691572,0.033633790429055795]","[-1,-1,-1]","[-0.08213038831180289,0.03477780633564037]","[-1,-1,-1]","[0.14321029725714898,0.08192367701145277]","[-1,-1,-1]","[-0.035149198549275826,0.005544375766702579]","[1,1,1]","[0.021849460104400163,-0.0777718433161881]","[-1,-1,-1]","[0.00880434970098085,0.06253724241327335]","[-1,-1,-1]","[0.049018919360170936,-0.01822847361529968]","[1,1,1]","[-0.03181355781459105,-0.16679209916868315]","[-1,-1,-1]","[-0.019581185062943356,0.09456929199167702]","[1,1,1]","[0.08924604995596545,-0.06314875628156716]","[-1,-1,-1]","[-0.08011019992101923,0.1186672266086674]","[1,1,1]","[-0.13964050695113742,-0.04649509207646395]","[1,1,1]","[-0.09188221039618814,-0.16947462717930178]","[1,1,1]","[0.12006104538443284,0.009924525062136867]","[-1,-1,-1]","[0.15977578031220446,0.035369525992643806]","[1,1,1]","[-0.19823917581361808,-0.009695626632901947]","[1,1,1]","[0.02,0.02]",277.3678,0,41,41,86,1,,,,,,,
,,,,,,,610299d092eb1df29a1c88b6,682db41bde37fdf647aea495,2025-05-21_13h08.58.420,cuing_paradigm_dot,2024.1.5,Win32,60.60606061,682d556593cb38ad0a074487,,,,,,,,,,,277.368,277.8679,,,278.1179,278.3013,right,,,,,,,,0.9,0.1809,,,,,,,277.8679,278.1179,278.3014,"[0.07592092884065849,-0.09703349645015492]","[1,1,1]","[-0.021031418409868604,-0.10762849933494036]","[-1,-1,-1]","[0.069601095196378,0.13505388825187398]","[1,1,1]","[0.008441845582781687,0.1655320214392945]","[1,1,1]","[-0.07585417312364211,0.12144166432841048]","[1,1,1]","[0.18750075123507542,0.06346582335323749]","[1,1,1]","[-0.19712267458637714,0.020488314703852258]","[1,1,1]","[-0.12049592834484218,-0.10197301853838368]","[1,1,1]","[0.02711818690723401,-0.11445582520156725]","[1,1,1]","[-0.1051135186019464,0.03959660440559639]","[1,1,1]","[0.17556219072946136,-0.05343303711274476]","[1,1,1]","[-0.06415715928551133,-0.013704950648100404]","[1,1,1]","[0.010286036558935455,-0.046279646811319804]","[1,1,1]","[-0.03105848087251666,-0.03986608897206118]","[1,1,1]","[0.056240099509436835,0.18668843302500496]","[1,1,1]","[0.11914133365450026,0.06456467790386083]","[1,1,1]","[0.0811070501326223,-0.0057105618348728664]","[1,1,1]","[0.009544657320757256,-0.15650831817380723]","[1,1,1]","[0.025553325717509734,0.05309249674451651]","[-1,-1,-1]","[0.1703059924867029,0.016712341498085502]","[1,1,1]","[-0.007323717555495803,0.1262093675051658]","[1,1,1]","[0.055398686982205035,-0.18007310422003697]","[1,1,1]","[-0.08136473033431725,-0.08983124536148875]","[1,1,1]","[0.13807520093828743,0.1388023917868414]","[1,1,1]","[0.06677047512122086,0.08207481889129147]","[1,1,1]","[0.07985037753051955,-0.05389837100237507]","[1,1,1]","[0.009382994142313918,0.015068772562332008]","[1,1,1]","[-0.008382649323210567,-0.19899034040485328]","[1,1,1]","[-0.050318691500661615,0.0337923186922595]","[1,1,1]","[-0.18801286450917098,-0.04410170703811825]","[1,1,1]","[-0.13518312586214823,0.1452251196601428]","[-1,-1,-1]","[-0.14299400112474875,-0.03163426582388581]","[1,1,1]","[0.02,0.02]",279.4011,0,42,42,203,1,,,,,,,
,,,,,,,610299d092eb1df29a1c88b6,682db41bde37fdf647aea495,2025-05-21_13h08.58.420,cuing_paradigm_dot,2024.1.5,Win32,60.60606061,682d556593cb38ad0a074487,,,,,,,,,,,279.4013,279.9012,,,280.1514,280.3179,right,,,,,,,,0.55,0.1641,,,,,,,279.9013,280.1514,280.3179,"[0.1160303996251653,0.1455998060125584]","[-1,-1,-1]","[0.03417706291724164,0.07840566852967112]","[1,1,1]","[-0.05132186119701767,0.0784246678216864]","[-1,-1,-1]","[0.09463841922883943,0.018467715743282553]","[-1,-1,-1]","[0.0017321841861772662,-0.1895682715515265]","[-1,-1,-1]","[-0.0028845583428360718,0.16648448909945562]","[1,1,1]","[0.023234322689929136,-0.06264633534418909]","[-1,-1,-1]","[-0.06200167429736142,0.1531958235774058]","[1,1,1]","[-0.03184304435669937,-0.012248754983802509]","[1,1,1]","[-0.1097760708461884,-0.10466711875912844]","[1,1,1]","[0.019387002263504968,-0.006663819373128275]","[1,1,1]","[0.0786238951125728,0.10478976647882772]","[-1,-1,-1]","[-0.12531230848897448,-0.14588342271523447]","[-1,-1,-1]","[0.18108083036965267,0.0021674293054724865]","[1,1,1]","[0.1084062962808401,-0.08291378906041458]","[1,1,1]","[-0.09719180287274563,0.1161887933225773]","[-1,-1,-1]","[0.04743339002757562,-0.10338383939316069]","[1,1,1]","[-0.09478997734671908,-0.03506343564430288]","[1,1,1]","[-0.09769901776566459,0.027381587218664516]","[1,1,1]","[0.05796987144022882,0.18408278862607927]","[1,1,1]","[-0.14175420156874702,-0.026026616116557242]","[1,1,1]","[0.03890840600940036,0.14749628278520813]","[1,1,1]","[0.1709695976122654,-0.04972157081893228]","[-1,-1,-1]","[-0.02098130110631728,-0.14469079256875864]","[-1,-1,-1]","[-0.15779637075726488,0.0714376944215208]","[1,1,1]","[0.13262829457837388,0.09715918722015743]","[-1,-1,-1]","[0.06143925558918237,-0.14231777157996406]","[-1,-1,-1]","[-0.03467563376781252,-0.0678281631598896]","[-1,-1,-1]","[-0.06112232001387314,-0.16447792785079568]","[1,1,1]","[0.17076865807618544,-0.09723811462293365]","[-1,-1,-1]","[0.12970159859933,0.056301028119551816]","[1,1,1]","[-0.1554067811566727,-0.11236596028494922]","[1,1,1]","[0.02,0.02]",281.418,0,43,43,120,1,,,,,,,
,,,,,,,610299d092eb1df29a1c88b6,682db41bde37fdf647aea495,2025-05-21_13h08.58.420,cuing_paradigm_dot,2024.1.5,Win32,60.60606061,682d556593cb38ad0a074487,,,,,,,,,,,281.4182,281.9182,,,282.1681,282.5514,right,,,,,,,,0.5,0.3708,,,,,,,281.9182,282.1681,282.5515,"[-0.021694774426030534,0.15181976453724344]","[1,1,1]","[0.019607777863724325,-0.13624556297621607]","[-1,-1,-1]","[-0.16875803877165033,0.04344279230671388]","[1,1,1]","[0.10501306029749416,-0.09759257961020736]","[1,1,1]","[0.1301505645785591,-0.14920333515757994]","[1,1,1]","[0.14916433161768175,0.07431839024928125]","[-1,-1,-1]","[-0.08417674237226545,0.1730443124444577]","[-1,-1,-1]","[0.012943711325973974,0.09353381129558574]","[-1,-1,-1]","[0.034091869372134764,-0.07158038294982184]","[-1,-1,-1]","[0.044170399158670555,0.002250908892645717]","[1,1,1]","[0.08067734449900545,0.16441542632226755]","[-1,-1,-1]","[0.08849473046575516,0.12341970710282898]","[-1,-1,-1]","[-0.1378302012750429,0.12886938710142654]","[-1,-1,-1]","[0.1550484886986237,0.12428671433451156]","[1,1,1]","[0.03097895939029422,-0.1788597371818179]","[1,1,1]","[0.035086856619003196,0.15615220565821086]","[-1,-1,-1]","[-0.13143408488239725,-0.030952090877123584]","[1,1,1]","[0.06889771706211704,-0.16174583660599812]","[1,1,1]","[-0.05855177089238617,-0.141500937835214]","[1,1,1]","[-0.1022571837998656,-0.16074981385341366]","[1,1,1]","[0.19547122913912934,-0.0007518572945220838]","[1,1,1]","[-0.1685932291302014,-0.00042937772744756713]","[-1,-1,-1]","[0.10488910487841129,-0.04335308340143233]","[-1,-1,-1]","[-0.048151101736898384,-0.030880313592880612]","[-1,-1,-1]","[0.15537239075485948,-0.117010176144797]","[-1,-1,-1]","[0.11323691581923959,0.05241687359066755]","[-1,-1,-1]","[0.0014949727995972404,-0.0021847212152737707]","[1,1,1]","[-0.08218347523722828,0.13205308159753515]","[-1,-1,-1]","[0.045598696914162955,0.11744177627186132]","[1,1,1]","[-0.027175014577923585,0.028108865039572856]","[1,1,1]","[0.14175703961450292,-0.07926744808637139]","[-1,-1,-1]","[-0.10760636076561789,-0.07285203481479754]","[1,1,1]","[0.02,0.02]",283.6514,0,44,44,101,1,,,,,,,
