right,left,explain.started,explain.stopped,key_resp_3.keys,key_resp_3.rt,key_resp_3.duration,participant,session,date,expName,psychopyVersion,OS,frameRate,study_id,explain_2.started,explain_2.stopped,key_resp_4.keys,key_resp_4.rt,key_resp_4.duration,explain_3.started,explain_3.stopped,key_resp_5.keys,key_resp_5.rt,key_resp_5.duration,fixation.started,fixation.stopped,practice.started,practice.stopped,response.started,response.stopped,key_resp.keys,key_resp.rt,key_resp.duration,feedback.started,feedback.stopped,trials_2.thisRepN,trials_2.thisTrialN,trials_2.thisN,trials_2.thisIndex,trials_2.ran,white_ratio,explain_4.started,explain_4.stopped,key_resp_6.keys,key_resp_6.rt,key_resp_6.duration,dotDisplay.started,dotDisplay.stopped,ITI.started,polygon_1.pos,polygon_1.color,polygon_2.pos,polygon_2.color,polygon_3.pos,polygon_3.color,polygon_4.pos,polygon_4.color,polygon_5.pos,polygon_5.color,polygon_6.pos,polygon_6.color,polygon_7.pos,polygon_7.color,polygon_8.pos,polygon_8.color,polygon_9.pos,polygon_9.color,polygon_10.pos,polygon_10.color,polygon_11.pos,polygon_11.color,polygon_12.pos,polygon_12.color,polygon_13.pos,polygon_13.color,polygon_14.pos,polygon_14.color,polygon_15.pos,polygon_15.color,polygon_16.pos,polygon_16.color,polygon_17.pos,polygon_17.color,polygon_18.pos,polygon_18.color,polygon_19.pos,polygon_19.color,polygon_20.pos,polygon_20.color,polygon_21.pos,polygon_21.color,polygon_22.pos,polygon_22.color,polygon_23.pos,polygon_23.color,polygon_24.pos,polygon_24.color,polygon_25.pos,polygon_25.color,polygon_26.pos,polygon_26.color,polygon_27.pos,polygon_27.color,polygon_28.pos,polygon_28.color,polygon_29.pos,polygon_29.color,polygon_30.pos,polygon_30.color,polygon_31.pos,polygon_31.color,polygon_32.pos,polygon_32.color,dot_size,ITI.stopped,trials.thisRepN,trials.thisTrialN,trials.thisN,trials.thisIndex,trials.ran,break_2.started,break_2.stopped,trials_3.thisRepN,trials_3.thisTrialN,trials_3.thisN,trials_3.thisIndex,trials_3.ran
subject chose white,subject chose black,0.0002,18.3614,space,3.3418,,611902d49efe216a416d97dc,682db412dc2de648f9f7acaf,2025-05-21_13h25.25.726,cuing_paradigm_dot,2024.1.5,Win32,30.48780488,682d556593cb38ad0a074487,,,,,,,,,,,,,,,,,,,,,,,,,,,,,,,,,,,,,,,,,,,,,,,,,,,,,,,,,,,,,,,,,,,,,,,,,,,,,,,,,,,,,,,,,,,,,,,,,,,,,,,,,,,,,,,,,
,,,,,,,611902d49efe216a416d97dc,682db412dc2de648f9f7acaf,2025-05-21_13h25.25.726,cuing_paradigm_dot,2024.1.5,Win32,30.48780488,682d556593cb38ad0a074487,18.3616,50.1325,space,1.7628,,,,,,,,,,,,,,,,,,,,,,,,,,,,,,,,,,,,,,,,,,,,,,,,,,,,,,,,,,,,,,,,,,,,,,,,,,,,,,,,,,,,,,,,,,,,,,,,,,,,,,,,,,,,,
,,,,,,,611902d49efe216a416d97dc,682db412dc2de648f9f7acaf,2025-05-21_13h25.25.726,cuing_paradigm_dot,2024.1.5,Win32,30.48780488,682d556593cb38ad0a074487,,,,,,50.1331,53.5685,space,0.4261,,,,,,,,,,,,,,,,,,,,,,,,,,,,,,,,,,,,,,,,,,,,,,,,,,,,,,,,,,,,,,,,,,,,,,,,,,,,,,,,,,,,,,,,,,,,,,,,,,,,,,,,
,,,,,,,611902d49efe216a416d97dc,682db412dc2de648f9f7acaf,2025-05-21_13h25.25.726,cuing_paradigm_dot,2024.1.5,Win32,30.48780488,682d556593cb38ad0a074487,,,,,,,,,,,53.5818,54.071,54.0716,54.3124,54.3126,55.7837,right,1.4271,,55.7844,56.882,0,0,0,0,1,0.8,,,,,,,,,,,,,,,,,,,,,,,,,,,,,,,,,,,,,,,,,,,,,,,,,,,,,,,,,,,,,,,,,,,,,,,,,,,,,,,,,,,,,,
,,,,,,,611902d49efe216a416d97dc,682db412dc2de648f9f7acaf,2025-05-21_13h25.25.726,cuing_paradigm_dot,2024.1.5,Win32,30.48780488,682d556593cb38ad0a074487,,,,,,,,,,,56.8841,57.373,57.3733,57.6131,57.6131,57.8763,left,0.2455,,57.8763,58.9701,0,1,1,1,1,0.2,,,,,,,,,,,,,,,,,,,,,,,,,,,,,,,,,,,,,,,,,,,,,,,,,,,,,,,,,,,,,,,,,,,,,,,,,,,,,,,,,,,,,,
,,,,,,,611902d49efe216a416d97dc,682db412dc2de648f9f7acaf,2025-05-21_13h25.25.726,cuing_paradigm_dot,2024.1.5,Win32,30.48780488,682d556593cb38ad0a074487,,,,,,,,,,,,,,,,,,,,,,,,,,,,58.9712,63.1843,space,1.2063,,,,,,,,,,,,,,,,,,,,,,,,,,,,,,,,,,,,,,,,,,,,,,,,,,,,,,,,,,,,,,,,,,,,,,,,,,,,,,,,,,
,,,,,,,611902d49efe216a416d97dc,682db412dc2de648f9f7acaf,2025-05-21_13h25.25.726,cuing_paradigm_dot,2024.1.5,Win32,30.48780488,682d556593cb38ad0a074487,,,,,,,,,,,63.1935,63.6881,,,63.9292,64.7189,right,0.7552,,,,,,,,,0.55,,,,,,63.6894,63.9288,64.7204,"[-0.1323431194233591,0.12318797184166617]","[1,1,1]","[0.1319015451856286,0.010782728461034603]","[1,1,1]","[-0.005783210224552553,0.16007293480602403]","[1,1,1]","[0.1152045088013574,-0.14908336304871797]","[1,1,1]","[0.13955643864008124,-0.055965659325159116]","[-1,-1,-1]","[0.02414156052603982,-0.112261562988235]","[1,1,1]","[-0.11852890051065385,-0.046097583231592736]","[-1,-1,-1]","[0.18774672357057,-0.043132463222124974]","[1,1,1]","[-0.12049944156263986,0.08093475532233924]","[-1,-1,-1]","[-0.05549415862268767,-0.09758330819883085]","[1,1,1]","[0.10758771812651757,0.04950905301745705]","[-1,-1,-1]","[-0.0583552974105893,-0.01058378630287491]","[-1,-1,-1]","[-0.1265547444367599,-0.0033706626100834347]","[-1,-1,-1]","[-0.040788900885805446,-0.19367575563166842]","[-1,-1,-1]","[-0.023777245702692955,-0.15530896084889498]","[-1,-1,-1]","[-0.08014750909425027,0.030566142334664335]","[-1,-1,-1]","[0.16266417483112325,0.0816065452407604]","[1,1,1]","[-0.06339576915430915,-0.13967711281971892]","[-1,-1,-1]","[0.013223183895720242,-0.05390292938860852]","[1,1,1]","[-0.006127377976504629,0.0090282511593981]","[1,1,1]","[0.06558063080069126,-0.03765014141023323]","[1,1,1]","[-0.005048089689349865,0.09462731136637563]","[1,1,1]","[-0.07809686835388456,0.13436167683397324]","[-1,-1,-1]","[0.05357258079357545,0.027454421125944265]","[1,1,1]","[0.07895577002100916,-0.09861354346122216]","[1,1,1]","[0.017443178260828023,-0.16576030361055297]","[-1,-1,-1]","[0.19979362603869916,0.0012798439798314008]","[-1,-1,-1]","[0.04215625406665175,0.1696750641658905]","[1,1,1]","[-0.06942696308332179,0.07447072276209205]","[1,1,1]","[0.03417502647089608,-0.010621814860695076]","[1,1,1]","[0.06815976505417162,0.10462900394567518]","[1,1,1]","[-0.1790413995175631,-0.07012156724948802]","[-1,-1,-1]","[0.02,0.02]",65.8141,0,0,0,148,1,,,,,,,
,,,,,,,611902d49efe216a416d97dc,682db412dc2de648f9f7acaf,2025-05-21_13h25.25.726,cuing_paradigm_dot,2024.1.5,Win32,30.48780488,682d556593cb38ad0a074487,,,,,,,,,,,65.8155,66.3181,,,66.556,66.9487,right,0.3688,,,,,,,,,0.9,,,,,,66.3182,66.556,66.9491,"[0.016331031312677102,-0.04728962220334717]","[1,1,1]","[0.18959156248236927,0.054844507710960284]","[1,1,1]","[-0.07089748108320866,0.04374538448419437]","[1,1,1]","[0.14493921495984605,-0.008980048144660456]","[1,1,1]","[0.08927995422952385,0.10065048761867501]","[1,1,1]","[0.047066912244637604,0.19145698702917677]","[1,1,1]","[-0.04763926082097735,-0.13121452259069158]","[1,1,1]","[-0.13572632630387746,0.07348732827295275]","[1,1,1]","[-0.0970699866850669,-0.15337667834363253]","[1,1,1]","[-0.0263924725328503,-0.07809467638693159]","[1,1,1]","[-0.0014060586184267937,0.18916742447498136]","[1,1,1]","[-0.017309011441632452,0.13551974512145554]","[1,1,1]","[-0.024208761849646872,-0.17988810615870832]","[1,1,1]","[-0.1937172149432143,0.011418721650688328]","[1,1,1]","[0.09864886409900327,0.15037335338977778]","[1,1,1]","[-0.10004810107584974,-0.06227685203209614]","[1,1,1]","[-0.16699607497567312,-0.08803552176202774]","[-1,-1,-1]","[-0.025098801746495328,0.07628120005614668]","[1,1,1]","[0.0859568212888485,-0.12252044249144202]","[1,1,1]","[0.017534482795427273,-0.09719459945802189]","[1,1,1]","[0.1493117824460527,0.07569127560455743]","[1,1,1]","[-0.05365845687417663,-0.02676247422705347]","[1,1,1]","[-0.10074649872683869,0.12212242698642745]","[1,1,1]","[-0.0025534667915726125,-0.1372687238851789]","[1,1,1]","[0.15072626694897678,-0.0787011654553572]","[1,1,1]","[0.10792718104708811,-0.08217230886849727]","[1,1,1]","[0.08019780911250159,0.059981982631654884]","[1,1,1]","[0.04787846625618187,-0.17820862563843642]","[1,1,1]","[0.07769745802340385,0.00769671761673236]","[1,1,1]","[-0.005559685799553687,0.01883185097578628]","[1,1,1]","[-0.146715170144153,0.015602043442696622]","[-1,-1,-1]","[0.05411880387510699,-0.060525462772740735]","[-1,-1,-1]","[0.02,0.02]",68.0423,0,1,1,194,1,,,,,,,
,,,,,,,611902d49efe216a416d97dc,682db412dc2de648f9f7acaf,2025-05-21_13h25.25.726,cuing_paradigm_dot,2024.1.5,Win32,30.48780488,682d556593cb38ad0a074487,,,,,,,,,,,68.0427,68.539,,,68.7955,69.1445,right,0.3309,,,,,,,,,0.9,,,,,,68.539,68.7954,69.1445,"[-0.15943975063936686,0.10503321639729812]","[1,1,1]","[0.1323469097924712,0.05426949170098266]","[-1,-1,-1]","[0.10671422606190256,-0.11750475821730857]","[1,1,1]","[-0.09522821343964834,0.005186503176891579]","[1,1,1]","[0.1635029800666236,-0.04664880091257906]","[1,1,1]","[0.188770954238045,0.012330210244067077]","[1,1,1]","[0.17854019786082753,0.05775873976203062]","[1,1,1]","[-0.02680676890404288,-0.06532615566896087]","[-1,-1,-1]","[-0.14474717395730563,-0.10314379751803797]","[1,1,1]","[0.07307842194925253,0.10926269200872048]","[1,1,1]","[-0.07984991604732078,0.06170607850258937]","[-1,-1,-1]","[-0.012404418073037209,-0.13034220508126604]","[1,1,1]","[0.0071259893939884635,0.10198490733780688]","[1,1,1]","[0.035608052721690535,0.17897248055473736]","[1,1,1]","[-0.12838274161626698,0.07029145937290031]","[1,1,1]","[-0.1033088303683077,-0.11691584382506687]","[1,1,1]","[0.07532734130400277,0.015205308107197616]","[1,1,1]","[-0.06870834198782004,-0.04104633371196393]","[1,1,1]","[-0.06484533584283195,-0.09943009993751549]","[1,1,1]","[-0.014884941976453417,0.05091274628501536]","[1,1,1]","[0.10439197860322984,-0.034613379353074715]","[1,1,1]","[-0.024827116659098022,-0.18541946594082998]","[1,1,1]","[-0.18185842120972306,-0.025921509647213375]","[1,1,1]","[-0.08751850610138365,0.11930235330622176]","[1,1,1]","[0.14079676940451025,-0.007804493257126369]","[1,1,1]","[0.08176357675325537,-0.1604580806231793]","[1,1,1]","[-0.1736114315459654,0.06304831462187463]","[1,1,1]","[-0.12810899569884787,0.14539554300938656]","[1,1,1]","[0.018270053412976016,0.017457995365034965]","[1,1,1]","[-0.042977849610582465,0.18674987708025687]","[1,1,1]","[-0.14486549577463223,0.03212748686312956]","[1,1,1]","[0.12626674359470982,0.15105476282597935]","[1,1,1]","[0.02,0.02]",70.2493,0,2,2,184,1,,,,,,,
,,,,,,,611902d49efe216a416d97dc,682db412dc2de648f9f7acaf,2025-05-21_13h25.25.726,cuing_paradigm_dot,2024.1.5,Win32,30.48780488,682d556593cb38ad0a074487,,,,,,,,,,,70.2495,70.7628,,,70.9986,71.3553,right,0.338,,,,,,,,,0.9,,,,,,70.7628,70.9986,71.3555,"[-0.07174542183878607,0.17575011166217533]","[1,1,1]","[0.04026557005654918,-0.04235665213911877]","[1,1,1]","[-0.02628608449832799,-0.0038381304241855044]","[1,1,1]","[0.12662493184944146,-0.11731550808496066]","[1,1,1]","[0.11352101941245178,0.15545817325026584]","[1,1,1]","[0.0648924367918111,0.06974407722217603]","[1,1,1]","[0.09989937043910857,-0.03301394810822382]","[1,1,1]","[-0.1053099957224565,0.10126625243917696]","[1,1,1]","[0.1412010932089367,-0.05312762603771583]","[1,1,1]","[-0.0763855444479179,-0.16223011522231323]","[-1,-1,-1]","[-0.04501258938007237,0.07423198405078155]","[1,1,1]","[0.001949383967796489,-0.09537010132948139]","[1,1,1]","[-0.013457185508289957,-0.17710984567684304]","[1,1,1]","[0.08268338017780011,-0.12468457171985005]","[1,1,1]","[0.11782897099127493,0.06969589480815234]","[1,1,1]","[0.021106925991915486,0.048747020730492904]","[1,1,1]","[0.1536871690714369,0.02227400797217986]","[1,1,1]","[-0.12779442462210946,0.018509273472364113]","[1,1,1]","[-0.09831006120489973,-0.07682292259238878]","[1,1,1]","[0.08289614816211352,0.004354155726313501]","[1,1,1]","[-0.057548259748368594,-0.08489944030276268]","[1,1,1]","[0.09132556238822483,-0.1748846055939513]","[1,1,1]","[-0.14707635069195307,0.1311683830722538]","[1,1,1]","[0.16840910315312346,0.06580561173843263]","[1,1,1]","[-0.1712738908541867,0.024848893547231726]","[1,1,1]","[0.02985354962883315,-0.1758663292258338]","[1,1,1]","[0.15225869353938237,0.113836850165069]","[1,1,1]","[0.04190633894059474,0.008545865732313336]","[1,1,1]","[0.014874513911183924,0.14483501569005322]","[-1,-1,-1]","[0.18927247492683977,-0.0016449405651122058]","[-1,-1,-1]","[-0.0059996355232173155,0.09835210531049428]","[1,1,1]","[0.17897958731533214,-0.0778840674107599]","[1,1,1]","[0.02,0.02]",72.4319,0,3,3,206,1,,,,,,,
,,,,,,,611902d49efe216a416d97dc,682db412dc2de648f9f7acaf,2025-05-21_13h25.25.726,cuing_paradigm_dot,2024.1.5,Win32,30.48780488,682d556593cb38ad0a074487,,,,,,,,,,,72.4322,72.9248,,,73.1742,73.4931,left,0.297,,,,,,,,,0.45,,,,,,72.9249,73.1739,73.4934,"[-0.15344028788517616,-0.03697778221169089]","[-1,-1,-1]","[-0.011784996828304002,0.10616107559966056]","[-1,-1,-1]","[0.03335276968450139,-0.06840830595735697]","[1,1,1]","[-0.18009092242714803,0.047729662485263134]","[-1,-1,-1]","[0.011127136495072503,-0.13883188973257948]","[-1,-1,-1]","[-0.058862167822670654,-0.03921514831147686]","[-1,-1,-1]","[0.025460818605899795,0.18353652199656753]","[1,1,1]","[-0.008053114458303118,0.028534984249710273]","[1,1,1]","[0.02506638560639237,-0.01685636639516261]","[1,1,1]","[-0.025871104931332614,0.1978262753845085]","[-1,-1,-1]","[0.18256830224095613,-0.029002529733472063]","[-1,-1,-1]","[0.04870161790139194,0.024870630898895008]","[-1,-1,-1]","[0.13638590177129484,0.05316565140821467]","[-1,-1,-1]","[0.11087260527836622,-0.1082001260938365]","[-1,-1,-1]","[-0.08988461971065792,0.10554733309186]","[1,1,1]","[-0.10346006954774045,-0.13749055035211405]","[-1,-1,-1]","[-0.05800229276326259,0.0548639329973044]","[-1,-1,-1]","[-0.15181357121722974,0.09069087204385913]","[-1,-1,-1]","[0.00662940395119718,0.0690955741568196]","[1,1,1]","[-0.08883482400916862,-0.17731755880644653]","[-1,-1,-1]","[-0.0437049906713199,0.14586360514479127]","[-1,-1,-1]","[-0.11981489625314246,-0.0986593932425422]","[-1,-1,-1]","[0.10104474485169326,0.11173630708608062]","[1,1,1]","[-0.0421496839169272,-0.14126745218244355]","[1,1,1]","[0.0675937158710573,-0.1433073114787768]","[1,1,1]","[-0.13247409529080195,0.002852995906375671]","[1,1,1]","[0.06436092597492918,0.06533898255054756]","[1,1,1]","[0.0688861115715428,0.16136347323920278]","[-1,-1,-1]","[-0.0844622946372667,0.020011544219270625]","[-1,-1,-1]","[-0.10863660907339605,-0.057927180316885894]","[1,1,1]","[0.09169938517382807,0.017045334642972722]","[1,1,1]","[0.13842189064073154,0.12881367870303723]","[1,1,1]","[0.02,0.02]",74.5938,0,4,4,80,1,,,,,,,
,,,,,,,611902d49efe216a416d97dc,682db412dc2de648f9f7acaf,2025-05-21_13h25.25.726,cuing_paradigm_dot,2024.1.5,Win32,30.48780488,682d556593cb38ad0a074487,,,,,,,,,,,74.5941,75.0857,,,75.3398,75.902,right,0.5368,,,,,,,,,0.5,,,,,,75.0858,75.3397,75.9023,"[-0.15680836188931013,-0.043975717301262846]","[1,1,1]","[-0.10174583284869887,-0.037815589409757745]","[1,1,1]","[-0.12173020306057286,0.13165475793856124]","[1,1,1]","[0.1836397958258551,-0.06987747228866382]","[-1,-1,-1]","[0.03825480120913576,-0.16493270738904495]","[-1,-1,-1]","[0.034901627199842696,-0.11390943554117296]","[1,1,1]","[0.06999039738764966,-0.0708017610809667]","[-1,-1,-1]","[0.14523343977302833,0.10176196775347936]","[1,1,1]","[-0.11602024338607023,-0.08559024762797501]","[1,1,1]","[0.05739259852042063,0.011660410746592584]","[1,1,1]","[0.10683592064530045,0.06685838959174631]","[-1,-1,-1]","[-0.03510874213834549,0.11001587076830498]","[-1,-1,-1]","[0.06856353048596875,0.15305854314638118]","[1,1,1]","[-0.04363800458490605,0.19056515520574177]","[-1,-1,-1]","[-0.09059480704417769,0.09057916733431241]","[1,1,1]","[0.10307269838452755,-0.03314030174059986]","[1,1,1]","[0.08037987929310761,-0.1326657542131044]","[1,1,1]","[0.040586400089430964,0.07469582866585477]","[-1,-1,-1]","[-0.01883610491485834,0.06400688877310748]","[-1,-1,-1]","[0.1325220966936048,-0.08168203153316786]","[1,1,1]","[-0.06923485981943922,0.012877076805690115]","[-1,-1,-1]","[-0.04046841455212559,-0.09168757764410834]","[1,1,1]","[-0.14236400955745837,0.049255824575514896]","[1,1,1]","[0.01948968103413966,0.16534958636550082]","[1,1,1]","[0.12958992108646006,0.021991227522073126]","[-1,-1,-1]","[-0.12608246999025635,0.01044671291131942]","[-1,-1,-1]","[-0.1853248045494772,0.03489309473170945]","[-1,-1,-1]","[0.16891370387171634,0.03564692291319698]","[-1,-1,-1]","[0.022033094861193855,0.11127845324772179]","[-1,-1,-1]","[0.1537875811056184,-0.12032547684958635]","[-1,-1,-1]","[-0.007963817089969153,0.014316212063860334]","[-1,-1,-1]","[-0.024695031755767722,-0.18033793413666846]","[1,1,1]","[0.02,0.02]",76.9903,0,5,5,93,1,,,,,,,
,,,,,,,611902d49efe216a416d97dc,682db412dc2de648f9f7acaf,2025-05-21_13h25.25.726,cuing_paradigm_dot,2024.1.5,Win32,30.48780488,682d556593cb38ad0a074487,,,,,,,,,,,76.991,77.4854,,,77.7312,78.5426,right,0.798,,,,,,,,,0.55,,,,,,77.4856,77.7312,78.5427,"[-0.1446008606647137,-0.008017481696786457]","[1,1,1]","[0.03855973497345322,-0.10332106429608201]","[-1,-1,-1]","[0.045652689790597153,-0.1492377043633206]","[1,1,1]","[-0.04034784357850441,0.07434168016232835]","[-1,-1,-1]","[-0.19866395658281183,-0.02099673278787695]","[1,1,1]","[-0.07938226788504989,0.11210651161803484]","[-1,-1,-1]","[-0.12358973285460888,-0.1564721533984217]","[-1,-1,-1]","[0.16774242452223148,-0.10281865266239999]","[1,1,1]","[0.1260544519858639,-0.1387700151895821]","[1,1,1]","[0.13119863854351044,0.0664919856302024]","[-1,-1,-1]","[-0.09721449568944865,-0.05009775936875183]","[1,1,1]","[-0.0700542422503338,0.03213464340067801]","[-1,-1,-1]","[-0.028776665631314133,0.1296816868411698]","[-1,-1,-1]","[0.18452863422449847,0.037527836310076806]","[1,1,1]","[-0.15363322666942997,0.04165355341844912]","[-1,-1,-1]","[0.1593444068363012,0.11529082352527917]","[-1,-1,-1]","[0.1818751878652584,-0.044256127628015396]","[-1,-1,-1]","[0.02695586823804857,-0.0369872623542636]","[1,1,1]","[0.0446427340467387,0.07700605623678856]","[1,1,1]","[-0.06414210965455495,-0.024238588432969502]","[1,1,1]","[-0.1404312444270076,-0.07652175121335823]","[1,1,1]","[-0.021971355198019935,-0.0430679127617513]","[-1,-1,-1]","[0.0680146297620554,-0.01676723267807318]","[-1,-1,-1]","[-0.08635754434379432,-0.11150129468100464]","[1,1,1]","[0.03499084464499009,0.13179391944277943]","[-1,-1,-1]","[0.09326003933190996,0.035767834214638895]","[1,1,1]","[-0.04095865285964239,-0.13994851942560077]","[1,1,1]","[0.12713219411774104,-0.06593554271574957]","[1,1,1]","[-0.03720635597945098,0.007737337444923591]","[1,1,1]","[-0.0567308791614205,0.17319321096141865]","[1,1,1]","[0.11458587355215555,0.1293474652677547]","[1,1,1]","[-0.13560654394117097,0.12385779604197165]","[-1,-1,-1]","[0.02,0.02]",79.6401,0,6,6,136,1,,,,,,,
,,,,,,,611902d49efe216a416d97dc,682db412dc2de648f9f7acaf,2025-05-21_13h25.25.726,cuing_paradigm_dot,2024.1.5,Win32,30.48780488,682d556593cb38ad0a074487,,,,,,,,,,,79.6413,80.1307,,,80.3954,80.7326,left,0.3215,,,,,,,,,0.9,,,,,,80.1308,80.3954,80.7329,"[0.10243821625695568,-0.015012666452713524]","[1,1,1]","[0.14551360717032652,0.09579236484912504]","[1,1,1]","[-0.09580101238355833,-0.029136384737895437]","[1,1,1]","[0.10493697326296685,0.14156323292363468]","[1,1,1]","[0.006779628814334028,0.009343754847430533]","[1,1,1]","[-0.011851610205430333,0.17562118556689219]","[1,1,1]","[0.056534817411767725,0.152645765600177]","[1,1,1]","[0.08858108728364825,-0.14820837661390193]","[1,1,1]","[-0.14080001743943765,0.013344923343816359]","[1,1,1]","[0.08725016673681416,0.026896419245094214]","[1,1,1]","[0.03195011276934962,-0.03843042705026551]","[1,1,1]","[-0.08594644316311739,0.156418671698856]","[1,1,1]","[0.029576331899682142,0.04835707844980351]","[1,1,1]","[0.10457689195278992,0.09110690695478024]","[1,1,1]","[-0.10665694072970917,-0.1099678778768378]","[1,1,1]","[-0.0896926034501605,-0.1769993635587503]","[1,1,1]","[-0.03829674524612067,-0.010155309429324222]","[1,1,1]","[-0.05136341582463742,-0.19218889502692701]","[1,1,1]","[0.15943005377287325,-0.05678407370510287]","[1,1,1]","[0.011537795809905787,0.08676462457121777]","[-1,-1,-1]","[-0.007389972846075724,-0.15850900567633738]","[1,1,1]","[0.028612807006167296,-0.10336712312759457]","[1,1,1]","[-0.04262013376150791,-0.07724121014148047]","[-1,-1,-1]","[-0.16823495176725956,-0.058795154552649116]","[1,1,1]","[-0.09038072067390814,0.09414559607261484]","[1,1,1]","[-0.043320880250375976,0.06575465272511896]","[-1,-1,-1]","[-0.15208131373181802,-0.11123394856257933]","[1,1,1]","[0.10594511342399052,-0.09639203416051442]","[1,1,1]","[-0.09173213181160556,0.013525334920079237]","[1,1,1]","[0.06972169579554639,0.0630539455242851]","[1,1,1]","[-0.03969994912103659,0.14305246540138805]","[1,1,1]","[-0.17799026534217421,-0.0034898187336580514]","[1,1,1]","[0.02,0.02]",81.8337,0,7,7,202,1,,,,,,,
,,,,,,,611902d49efe216a416d97dc,682db412dc2de648f9f7acaf,2025-05-21_13h25.25.726,cuing_paradigm_dot,2024.1.5,Win32,30.48780488,682d556593cb38ad0a074487,,,,,,,,,,,81.835,82.3303,,,82.5756,83.3747,right,0.7813,,,,,,,,,0.5,,,,,,82.3303,82.5755,83.375,"[-0.14614378596693284,-0.09576972932680441]","[-1,-1,-1]","[0.10240448602877118,-0.10861688643871088]","[1,1,1]","[-0.014617230201316082,-0.0187879637515013]","[-1,-1,-1]","[0.03825648665957179,-0.05520088995101185]","[-1,-1,-1]","[0.16983736919387085,-0.005174284829551607]","[1,1,1]","[0.013211574785989957,-0.1536056064037598]","[1,1,1]","[-0.13707649264640845,0.14287745824153872]","[-1,-1,-1]","[0.18175340186572483,-0.07289140198916136]","[1,1,1]","[-0.0028795656574639493,0.1480551136991853]","[-1,-1,-1]","[0.06061182399823884,0.14888908578038063]","[1,1,1]","[-0.07522598258973383,0.1357309205969531]","[-1,-1,-1]","[-0.08927556706708445,0.07828711906331702]","[1,1,1]","[-0.08144992222424272,-0.0877557774858564]","[-1,-1,-1]","[-0.10263991397786781,-0.16153626662634307]","[-1,-1,-1]","[-0.13016878011916108,0.06274381866577491]","[1,1,1]","[0.11887166448530952,0.03265383517891104]","[1,1,1]","[-0.12113144422144365,-0.05552354046967508]","[1,1,1]","[-0.00792338954721136,0.1987972321764682]","[1,1,1]","[0.13221499652793672,0.09770712418963703]","[-1,-1,-1]","[-0.04545230434885571,-0.15193580106423035]","[1,1,1]","[-0.17358570894819406,0.0364720145766818]","[-1,-1,-1]","[0.18423371139991684,0.05355256055115954]","[-1,-1,-1]","[-0.003037955630824925,0.04414053998216857]","[-1,-1,-1]","[-0.12532208890417754,0.00993166401992555]","[1,1,1]","[0.04246551094024124,0.018531603566062628]","[1,1,1]","[0.09093189186514201,-0.057659970693195395]","[1,1,1]","[0.09462902520026115,-0.01580028553955326]","[-1,-1,-1]","[0.07934584537082827,-0.16037131305734048]","[1,1,1]","[0.0807435188063543,0.080642043553781]","[-1,-1,-1]","[-0.07181749505852293,-0.012234853280587855]","[-1,-1,-1]","[0.10262054942251182,0.1467255448373788]","[1,1,1]","[0.04117705938895508,0.10722491068411823]","[-1,-1,-1]","[0.02,0.02]",84.4761,0,8,8,112,1,,,,,,,
,,,,,,,611902d49efe216a416d97dc,682db412dc2de648f9f7acaf,2025-05-21_13h25.25.726,cuing_paradigm_dot,2024.1.5,Win32,30.48780488,682d556593cb38ad0a074487,,,,,,,,,,,84.4763,84.9744,,,85.2274,86.0585,left,0.8171,,,,,,,,,0.55,,,,,,84.9745,85.2273,86.0586,"[0.011782543120881495,-0.11439011205099571]","[-1,-1,-1]","[0.08038402936918801,0.05674965016524069]","[1,1,1]","[-0.12417825746830251,-0.013409102913802467]","[1,1,1]","[0.12159395470345695,0.03669006743059538]","[1,1,1]","[0.06279989314324431,0.13284194659650433]","[1,1,1]","[-0.06888151102589427,0.1364996350858595]","[-1,-1,-1]","[-0.06516304103122098,0.00649711850996411]","[1,1,1]","[-0.14854788229112412,0.09980968709778544]","[1,1,1]","[-0.17958367866752004,0.011007200439628257]","[-1,-1,-1]","[0.017633433470281804,-0.05738599951846007]","[-1,-1,-1]","[-0.1442704859324136,-0.12529716026657953]","[1,1,1]","[0.08827971522756066,-0.1234506175143976]","[1,1,1]","[0.14247903205394546,-0.10162786669589073]","[1,1,1]","[0.07559671227296284,-0.08146339596858809]","[1,1,1]","[-0.11028341031512738,0.14100081004351217]","[-1,-1,-1]","[0.06378187686824612,-0.026428295382813004]","[1,1,1]","[0.09814685892686471,0.1612446815864755]","[-1,-1,-1]","[-0.03459861671708971,0.10618750888145238]","[-1,-1,-1]","[0.015821142461744916,0.01132449678715277]","[-1,-1,-1]","[0.0076342574028876,0.11887843886191775]","[1,1,1]","[0.05302886723243279,-0.1711691602946361]","[1,1,1]","[-0.023373345187917793,0.18962236989902628]","[-1,-1,-1]","[0.17505635162602592,-0.07778920715482125]","[1,1,1]","[-0.08183061965819964,-0.031846493717443095]","[1,1,1]","[-0.10064801807366353,-0.09653413281191561]","[1,1,1]","[0.0007515251381122221,-0.18755055174354565]","[-1,-1,-1]","[-0.04837201893178578,-0.14521917443825766]","[1,1,1]","[0.12889354135758518,0.08504804405770883]","[-1,-1,-1]","[-0.027996501175094266,-0.10710803154179697]","[-1,-1,-1]","[-0.09883562998013193,-0.15442064183668966]","[-1,-1,-1]","[0.15203489477089288,-0.019549627651786087]","[-1,-1,-1]","[0.1774807796096934,0.014209561480571311]","[1,1,1]","[0.02,0.02]",87.1543,0,9,9,132,1,,,,,,,
,,,,,,,611902d49efe216a416d97dc,682db412dc2de648f9f7acaf,2025-05-21_13h25.25.726,cuing_paradigm_dot,2024.1.5,Win32,30.48780488,682d556593cb38ad0a074487,,,,,,,,,,,87.1556,87.6547,,,87.9082,88.8399,left,0.9071,,,,,,,,,0.55,,,,,,87.6549,87.908,88.84,"[-0.07733872342344883,-0.04084288873013959]","[1,1,1]","[-0.15564860327309402,0.03415786784551076]","[1,1,1]","[0.02659532907029749,-0.044927224016894925]","[-1,-1,-1]","[0.06611342412678303,0.11547546827929261]","[1,1,1]","[0.15926090386229746,-0.07395689192462881]","[1,1,1]","[-0.08799804173711287,-0.15595885697339848]","[-1,-1,-1]","[-0.1530412919840097,-0.01021235107388065]","[1,1,1]","[-0.11784373392702259,-0.09962012200591361]","[1,1,1]","[0.16542462791877086,0.05635556752705434]","[1,1,1]","[0.014516611231162492,0.12755536149301647]","[-1,-1,-1]","[0.19166249891639417,-0.0007138900559199729]","[-1,-1,-1]","[-0.03927455062459884,0.15925721030733844]","[1,1,1]","[0.15878395472750903,0.10557553525192899]","[-1,-1,-1]","[0.039765621160689844,-0.10001142181376506]","[-1,-1,-1]","[0.19411671143876855,-0.04802973267937086]","[-1,-1,-1]","[0.07408685365661229,-0.1354989121714474]","[-1,-1,-1]","[-0.09102969398528851,0.13031273942915525]","[1,1,1]","[-0.05613738095157133,-0.10205923922134641]","[1,1,1]","[0.03370293563745881,0.030396376255625926]","[-1,-1,-1]","[0.050733275645906795,0.17433374951043581]","[1,1,1]","[0.06679937906820772,0.06315341760817061]","[1,1,1]","[-0.044995967146253334,0.0900461386133232]","[1,1,1]","[0.09486325067150614,0.017006316510398738]","[-1,-1,-1]","[-0.045633747266839664,-0.0018258108089523745]","[1,1,1]","[-0.13580431803052193,0.10838429687475329]","[-1,-1,-1]","[-0.1786932737216003,-0.07278359855983453]","[-1,-1,-1]","[-0.03012170737564662,-0.04801803801122405]","[1,1,1]","[-0.19419082108883803,-0.009013205987962285]","[1,1,1]","[0.0769359707320072,-0.07774722060397221]","[-1,-1,-1]","[-0.013712184655301283,-0.10336298007691787]","[-1,-1,-1]","[-0.07002570615395105,0.05851468643622158]","[1,1,1]","[0.12684865684826854,-0.008321504300533833]","[1,1,1]","[0.02,0.02]",89.9413,0,10,10,147,1,,,,,,,
,,,,,,,611902d49efe216a416d97dc,682db412dc2de648f9f7acaf,2025-05-21_13h25.25.726,cuing_paradigm_dot,2024.1.5,Win32,30.48780488,682d556593cb38ad0a074487,,,,,,,,,,,89.9425,90.4421,,,90.681,91.1816,left,0.4684,,,,,,,,,0.45,,,,,,90.4421,90.6808,91.1818,"[-0.059753333963271725,-0.03210980925481818]","[-1,-1,-1]","[-0.09144406103978933,-0.12670511234517945]","[-1,-1,-1]","[-0.02126802998668689,0.05281099278871923]","[-1,-1,-1]","[-0.06514983053551683,0.16932433948145834]","[-1,-1,-1]","[0.11121694462358374,0.09156242300057886]","[1,1,1]","[-0.04136393707342873,0.1360277875760434]","[-1,-1,-1]","[0.06634608168288161,0.05927883579081381]","[-1,-1,-1]","[-0.09140927223302608,0.047570672863033674]","[-1,-1,-1]","[0.04237043945154145,0.17909754072319065]","[1,1,1]","[0.14933266852074722,-0.10449667556316343]","[-1,-1,-1]","[-0.0012068490099828235,-0.04296834900494847]","[-1,-1,-1]","[0.16228792193235994,0.07372324188558806]","[1,1,1]","[0.06863715291015905,-0.17088988910002306]","[-1,-1,-1]","[0.1493103893148412,-0.00002692087770888491]","[-1,-1,-1]","[0.14933905155302504,0.12360265134335087]","[-1,-1,-1]","[-0.1398722940932906,0.07844207528542463]","[1,1,1]","[0.00701395017080855,-0.0012615597348577406]","[-1,-1,-1]","[-0.17470859402410743,-0.08961219575182149]","[-1,-1,-1]","[-0.0980425539269262,-0.053505779495730744]","[1,1,1]","[0.18653735764223126,0.01881201992923798]","[-1,-1,-1]","[0.04721973864084615,-0.08718975352912849]","[1,1,1]","[-0.056218234705252584,-0.15254275023021271]","[1,1,1]","[0.08308077560853952,0.002314152059819768]","[1,1,1]","[-0.09280964258845963,0.09330673144715584]","[1,1,1]","[0.10253018761547933,-0.09187696383436991]","[1,1,1]","[0.09670084120727213,0.1294252240934454]","[1,1,1]","[-0.14088249598351987,-0.02154945933008122]","[-1,-1,-1]","[-0.05018335807297219,0.09220091918182782]","[-1,-1,-1]","[-0.042969285306872024,-0.11404823645150446]","[-1,-1,-1]","[-0.008720139401553344,0.16224117732866872]","[1,1,1]","[-0.14090315760976893,0.024992584523363847]","[1,1,1]","[-0.13193572954661004,-0.13171972883235308]","[1,1,1]","[0.02,0.02]",92.2801,0,11,11,67,1,,,,,,,
,,,,,,,611902d49efe216a416d97dc,682db412dc2de648f9f7acaf,2025-05-21_13h25.25.726,cuing_paradigm_dot,2024.1.5,Win32,30.48780488,682d556593cb38ad0a074487,,,,,,,,,,,92.2817,92.7836,,,93.0145,93.7047,right,0.6597,,,,,,,,,0.55,,,,,,92.7837,93.0143,93.7048,"[0.1825875208073485,-0.0459772789832062]","[1,1,1]","[0.06954427258667328,0.08712728755532467]","[-1,-1,-1]","[-0.15713437682324638,0.1123253203712401]","[1,1,1]","[-0.10784291950726695,-0.07978692595452937]","[1,1,1]","[-0.18928015080846786,0.02809791717094127]","[-1,-1,-1]","[-0.06059109052818694,0.1678359825858522]","[-1,-1,-1]","[0.06519022902682518,-0.013436534981504905]","[1,1,1]","[-0.06540282232115951,-0.1773073964177252]","[-1,-1,-1]","[0.17143012197990973,0.08849130951611421]","[1,1,1]","[0.15846140214631635,0.038876730543024623]","[-1,-1,-1]","[-0.07703275596092607,0.04347629788993325]","[1,1,1]","[0.08538890549792123,-0.1720475952738653]","[1,1,1]","[-0.09632142623462134,-0.118625689941632]","[1,1,1]","[-0.1913534197245695,-0.0516902152747504]","[-1,-1,-1]","[0.033817238205956675,-0.038907400891713614]","[1,1,1]","[-0.1611440784440453,-0.0021439832442551963]","[1,1,1]","[-0.030707047209501005,-0.07860569313870674]","[1,1,1]","[0.01902501766443507,0.08464297618267921]","[-1,-1,-1]","[0.12713644428513593,0.011746535163301592]","[1,1,1]","[-0.03700785428310519,0.10317943617393593]","[1,1,1]","[0.09536829093593507,-0.07625050280457171]","[-1,-1,-1]","[-0.01032621672824845,-0.19917124985135687]","[1,1,1]","[-0.16126957238903925,-0.1072794687762798]","[1,1,1]","[0.026550441116527664,0.044003422092658354]","[1,1,1]","[-0.03365441350206851,-0.14818165676519185]","[-1,-1,-1]","[-0.141042672081827,-0.05506859362492627]","[-1,-1,-1]","[0.04949384587464403,0.13871410247398158]","[-1,-1,-1]","[0.12195934905242309,0.14194918090396189]","[-1,-1,-1]","[-0.002917029374542439,0.19327385026919655]","[-1,-1,-1]","[-0.13782941091954712,0.04504665065624462]","[1,1,1]","[-0.1110137810087732,0.16327819683395028]","[-1,-1,-1]","[0.14240154477959696,-0.13250935418738302]","[1,1,1]","[0.02,0.02]",94.7853,0,12,12,123,1,,,,,,,
,,,,,,,611902d49efe216a416d97dc,682db412dc2de648f9f7acaf,2025-05-21_13h25.25.726,cuing_paradigm_dot,2024.1.5,Win32,30.48780488,682d556593cb38ad0a074487,,,,,,,,,,,94.7857,95.2844,,,95.5242,96.3374,left,0.7968,,,,,,,,,0.1,,,,,,95.2844,95.5242,96.3376,"[-0.16761111350101499,0.02220793231596738]","[-1,-1,-1]","[-0.1042051801436678,0.12200671902942532]","[-1,-1,-1]","[0.07305609429293738,0.09087986340698652]","[-1,-1,-1]","[0.060253535288079946,-0.16915142370801653]","[-1,-1,-1]","[-0.03729300862712708,0.07320613911140508]","[-1,-1,-1]","[-0.08758644893349297,-0.13333797125313956]","[-1,-1,-1]","[-0.08479346284483102,0.08290651637555688]","[-1,-1,-1]","[0.11449580222882322,0.07084448969725793]","[-1,-1,-1]","[0.10631793940398973,-0.13215115674739095]","[1,1,1]","[-0.16177464681524223,-0.10705716347857182]","[-1,-1,-1]","[0.008104689496059782,0.01578577015145026]","[-1,-1,-1]","[0.015614123734340235,0.16286982162076455]","[-1,-1,-1]","[0.19167452389457915,0.0022576712656305698]","[-1,-1,-1]","[0.15293457266396362,0.04094190605942194]","[-1,-1,-1]","[-0.0716761124966918,0.1603209589547123]","[-1,-1,-1]","[0.01005365061825125,-0.14973930175431904]","[-1,-1,-1]","[-0.028084021181489335,0.18402707668725457]","[-1,-1,-1]","[0.02997952180578343,0.09329159866729855]","[-1,-1,-1]","[0.11909891566871782,0.1510808119367713]","[1,1,1]","[-0.027575945448037653,-0.06774696399753895]","[-1,-1,-1]","[0.056437774625086,-0.06672371706327118]","[-1,-1,-1]","[0.07152444827822713,0.16798958871003897]","[-1,-1,-1]","[-0.04499080417603424,0.12734728309107554]","[-1,-1,-1]","[-0.17234921491423025,0.07697604046879376]","[-1,-1,-1]","[-0.03605576873543223,-0.12076942494742675]","[-1,-1,-1]","[-0.05634088888688091,0.03159736901004936]","[-1,-1,-1]","[0.06468137959624973,-0.017446681652311054]","[-1,-1,-1]","[0.05895424851352976,-0.12478358984812943]","[-1,-1,-1]","[0.016482014372776282,-0.06361394355657078]","[-1,-1,-1]","[0.11235077879891993,-0.07046232073860385]","[1,1,1]","[-0.09965846660325765,0.005145413324000219]","[-1,-1,-1]","[0.12608345324793374,-0.007260031092254121]","[-1,-1,-1]","[0.02,0.02]",97.4374,0,13,13,28,1,,,,,,,
,,,,,,,611902d49efe216a416d97dc,682db412dc2de648f9f7acaf,2025-05-21_13h25.25.726,cuing_paradigm_dot,2024.1.5,Win32,30.48780488,682d556593cb38ad0a074487,,,,,,,,,,,97.439,97.9364,,,98.1758,98.7426,left,0.5473,,,,,,,,,0.45,,,,,,97.9365,98.1756,98.7426,"[0.05928369020955679,0.1788845798167755]","[1,1,1]","[0.08045580872813968,0.028818419139959937]","[1,1,1]","[-0.1353196373956515,-0.025227989478008174]","[-1,-1,-1]","[-0.15380259689196674,-0.08596485277809743]","[-1,-1,-1]","[0.15037454568127734,-0.009011128621303167]","[-1,-1,-1]","[-0.004179349468005226,0.05862960295507511]","[1,1,1]","[0.09538919919282715,-0.09559892714746716]","[1,1,1]","[0.02210091275132845,-0.13689766390919664]","[-1,-1,-1]","[-0.0924813739585388,-0.17564357054390065]","[-1,-1,-1]","[0.01601456917936915,0.16459101885023739]","[1,1,1]","[-0.07792098156213925,0.041283139680509326]","[-1,-1,-1]","[0.14059797344565583,0.1088659650409556]","[1,1,1]","[-0.02421560717254195,0.016546028771241197]","[1,1,1]","[-0.14132337349949442,0.06312346355392516]","[-1,-1,-1]","[-0.07436117299976996,-0.04385359793119049]","[1,1,1]","[0.06836193821453426,-0.15641293244489313]","[-1,-1,-1]","[-0.032174617599271635,0.10384114897126008]","[-1,-1,-1]","[-0.026304874490384364,-0.051036298620026774]","[1,1,1]","[-0.18104687985655377,0.07128047239710153]","[-1,-1,-1]","[-0.1184783916392695,0.1540328393045492]","[1,1,1]","[-0.07989502285312744,-0.10900342182556148]","[-1,-1,-1]","[0.18446411333253285,-0.07385628770244326]","[-1,-1,-1]","[-0.14543107749987835,-0.13436550541116354]","[1,1,1]","[-0.012739559478465062,-0.18376800350083342]","[1,1,1]","[-0.13490309486081867,0.10304748492013024]","[-1,-1,-1]","[0.12464793849811015,0.05907187090778002]","[1,1,1]","[0.08499138621869355,0.12442325216149247]","[-1,-1,-1]","[-0.16708080071358916,0.019516322017278823]","[1,1,1]","[0.06320376327950876,0.0689040235927255]","[-1,-1,-1]","[0.048110961085799105,-0.01569450138989973]","[-1,-1,-1]","[-0.08676321731562123,0.1147755428864229]","[-1,-1,-1]","[0.03420346528908035,-0.08423953276130543]","[-1,-1,-1]","[0.02,0.02]",99.8458,0,14,14,79,1,,,,,,,
,,,,,,,611902d49efe216a416d97dc,682db412dc2de648f9f7acaf,2025-05-21_13h25.25.726,cuing_paradigm_dot,2024.1.5,Win32,30.48780488,682d556593cb38ad0a074487,,,,,,,,,,,99.8471,100.3359,,,100.5878,101.0011,left,0.3939,,,,,,,,,0.45,,,,,,100.3361,100.5877,101.0011,"[0.09742879117449577,0.0159601673328059]","[1,1,1]","[0.015554279807234495,0.13596515123637656]","[-1,-1,-1]","[0.10851424785818835,0.13299320075028384]","[-1,-1,-1]","[-0.11774380928626561,0.10019915264211274]","[-1,-1,-1]","[-0.004616058071915764,0.1986974365394785]","[1,1,1]","[-0.04431456984325752,0.17056027834085752]","[-1,-1,-1]","[0.12826234101362557,0.04170181302112535]","[-1,-1,-1]","[0.058475994368873865,0.11393440078762172]","[-1,-1,-1]","[-0.07384398097854532,0.13706564925481302]","[-1,-1,-1]","[-0.09194339194040214,0.06100486574763953]","[1,1,1]","[-0.04834094043239642,-0.19123192928380706]","[1,1,1]","[0.004167332937781073,-0.08519603482450677]","[1,1,1]","[-0.05374160587041789,-0.0466743736312121]","[-1,-1,-1]","[-0.11722244722441112,-0.1051966831584078]","[-1,-1,-1]","[0.027285785169168086,-0.17135481538856623]","[1,1,1]","[-0.09731590167521272,-0.14312341135325146]","[1,1,1]","[0.044305151788269,0.17770740395112355]","[1,1,1]","[0.11893607261444879,-0.10423563134686174]","[-1,-1,-1]","[0.06641432063086665,-0.13054235505797526]","[-1,-1,-1]","[-0.004809187252427855,0.021190413439883114]","[-1,-1,-1]","[0.06882896039311338,-0.17743974237036061]","[-1,-1,-1]","[-0.17609336166385042,-0.012856759034435252]","[-1,-1,-1]","[0.0851335478620263,-0.05327579976550177]","[1,1,1]","[-0.13309974038786346,0.03426459317057123]","[-1,-1,-1]","[-0.19229267690179214,0.03281677177399974]","[1,1,1]","[-0.024400439160948775,0.10960370428210796]","[-1,-1,-1]","[0.14004122702892982,0.08817687671983897]","[1,1,1]","[0.17023676939248872,0.012792142737952572]","[-1,-1,-1]","[-0.051928574740084735,-0.13466262722021735]","[-1,-1,-1]","[0.01559795522180592,-0.02380500006842943]","[1,1,1]","[0.07345956675663956,0.048370612127967665]","[1,1,1]","[0.1366761473749435,-0.04787886624048818]","[1,1,1]","[0.02,0.02]",102.1034,0,15,15,87,1,,,,,,,
,,,,,,,611902d49efe216a416d97dc,682db412dc2de648f9f7acaf,2025-05-21_13h25.25.726,cuing_paradigm_dot,2024.1.5,Win32,30.48780488,682d556593cb38ad0a074487,,,,,,,,,,,102.1045,102.6041,,,102.8534,103.1566,right,0.2777,,,,,,,,,0.9,,,,,,102.6041,102.8532,103.1567,"[0.10547639821837759,-0.011817041328742806]","[1,1,1]","[-0.0666749890992772,-0.015649759925466848]","[1,1,1]","[-0.08332852285920796,-0.12268621354920357]","[1,1,1]","[0.03278963403750161,-0.08723053167215677]","[1,1,1]","[-0.09118648618767326,-0.06235345885023461]","[1,1,1]","[0.16456791838590654,-0.0054875561447690095]","[1,1,1]","[-0.1301475393269374,-0.0382497773591349]","[-1,-1,-1]","[0.17498064421371223,0.04514581795810924]","[1,1,1]","[-0.16855118103276354,-0.07037360869309148]","[1,1,1]","[0.1253785882197186,0.10002969398707118]","[-1,-1,-1]","[0.09042976365635269,-0.05437993706039928]","[1,1,1]","[-0.11427619904263445,0.045389128697469715]","[1,1,1]","[-0.14210657898576104,0.08549594707789412]","[1,1,1]","[0.04303116470250504,0.07684359359331754]","[1,1,1]","[0.10270720006212122,-0.1505097884750476]","[1,1,1]","[-0.14531188809669057,-0.11095787497140476]","[1,1,1]","[0.025822497963279793,0.03237750936674533]","[1,1,1]","[0.0861749002437783,0.1303820504834461]","[1,1,1]","[-0.08244548137703496,0.13993069385272483]","[-1,-1,-1]","[0.06442096234956866,-0.13570001810530444]","[1,1,1]","[0.09012949472542757,0.06113129687663456]","[1,1,1]","[0.18972417600384073,-0.05093908751139484]","[1,1,1]","[0.004197780024896793,-0.15324522736495286]","[1,1,1]","[-0.036893293189585986,0.1467809701017703]","[1,1,1]","[-0.014609368003842334,0.011375083020968658]","[1,1,1]","[0.02222361361709096,-0.1939377711688655]","[1,1,1]","[-0.005052970973672735,-0.043351751118393136]","[1,1,1]","[0.015843205899965625,0.1764429746283223]","[1,1,1]","[-0.06655386763849551,-0.1601187621709474]","[1,1,1]","[-0.16679879651775634,0.012722157185808975]","[1,1,1]","[-0.1267146077735361,0.14293487394212212]","[1,1,1]","[-0.07508137334170768,0.09017915562516496]","[1,1,1]","[0.02,0.02]",104.255,0,16,16,192,1,,,,,,,
,,,,,,,611902d49efe216a416d97dc,682db412dc2de648f9f7acaf,2025-05-21_13h25.25.726,cuing_paradigm_dot,2024.1.5,Win32,30.48780488,682d556593cb38ad0a074487,,,,,,,,,,,104.2565,104.7534,,,104.9962,105.3983,right,0.3707,,,,,,,,,0.1,,,,,,104.7536,104.996,105.3983,"[0.11350624206554366,0.13873571972404022]","[-1,-1,-1]","[0.1434827464510331,-0.04052410669243271]","[-1,-1,-1]","[-0.05943128004269088,0.18185571314255053]","[1,1,1]","[0.1486401636866937,-0.10169748855247775]","[-1,-1,-1]","[-0.012756082428017172,0.16624128012802644]","[-1,-1,-1]","[-0.07703216603709916,-0.10423294274554748]","[-1,-1,-1]","[0.03714286904728835,-0.012138715779741094]","[-1,-1,-1]","[-0.11726761234397241,-0.1218821064090697]","[-1,-1,-1]","[-0.08293543813219972,-0.04380073439224473]","[-1,-1,-1]","[-0.06962262818474331,0.13026112858599323]","[-1,-1,-1]","[0.007442769221229865,-0.1285209282908148]","[-1,-1,-1]","[0.08038817580769671,-0.15100056684051547]","[-1,-1,-1]","[-0.09717848493876166,0.019043379716003325]","[-1,-1,-1]","[-0.03474967214536046,-0.04914348371191059]","[1,1,1]","[0.020356338626272556,-0.08227893214264632]","[-1,-1,-1]","[0.1625342572865532,0.0795519964879013]","[-1,-1,-1]","[0.03522711407911367,-0.16239573561993442]","[-1,-1,-1]","[0.03111385341614543,0.18158132587445688]","[-1,-1,-1]","[-0.027652767644397076,-0.10654684572844048]","[-1,-1,-1]","[0.15797896005324918,-0.0009144720377022391]","[1,1,1]","[-0.13543362348835733,0.07188256334957042]","[-1,-1,-1]","[-0.07940031960896711,0.08013612925792642]","[-1,-1,-1]","[-0.04849193860299235,-0.1775497817060281]","[-1,-1,-1]","[-0.1392632309497443,0.14149890333223758]","[-1,-1,-1]","[0.10854096515481959,-0.11065626640867854]","[-1,-1,-1]","[-0.040858862366492193,0.04780779829815295]","[-1,-1,-1]","[0.08636265568148946,0.0341157435258808]","[-1,-1,-1]","[-0.18365315064378085,-0.033961358265713115]","[-1,-1,-1]","[0.009990467972941636,0.06879111810586742]","[-1,-1,-1]","[-0.16955411663973363,0.03271765306788855]","[-1,-1,-1]","[-0.01262739825917001,-0.006430018803959345]","[-1,-1,-1]","[0.033281016727589624,0.12189627084914058]","[-1,-1,-1]","[0.02,0.02]",106.4874,0,17,17,25,1,,,,,,,
,,,,,,,611902d49efe216a416d97dc,682db412dc2de648f9f7acaf,2025-05-21_13h25.25.726,cuing_paradigm_dot,2024.1.5,Win32,30.48780488,682d556593cb38ad0a074487,,,,,,,,,,,106.4878,106.9939,,,107.24,108.0803,right,0.8152,,,,,,,,,0.45,,,,,,106.9939,107.2396,108.0805,"[0.08697166583583829,0.1531842111912048]","[1,1,1]","[-0.046831398533880235,-0.1493084268664698]","[-1,-1,-1]","[-0.06809080047739502,0.11586058671967829]","[-1,-1,-1]","[0.07558621537435084,-0.06377973193127888]","[-1,-1,-1]","[-0.03230333671058576,0.06631689973648183]","[-1,-1,-1]","[0.16085234846076082,-0.029809261684300894]","[1,1,1]","[-0.12874700643123604,0.05226724954661071]","[-1,-1,-1]","[0.022797147386263553,-0.006231264913352083]","[1,1,1]","[-0.08879969232995492,-0.11431512469625216]","[-1,-1,-1]","[-0.11016536014827003,0.106935533291483]","[1,1,1]","[0.09750467902629206,-0.15016219597712827]","[-1,-1,-1]","[0.1646207801105488,0.041140798156518416]","[-1,-1,-1]","[0.021227207393954808,0.164178163617484]","[-1,-1,-1]","[0.09521047887124348,0.057789597138541156]","[1,1,1]","[-0.022561074440447356,0.026914875441050232]","[1,1,1]","[-0.04656664065709142,-0.01740335321241193]","[1,1,1]","[0.05399302170823271,0.05941588989303328]","[-1,-1,-1]","[0.012923233131601701,-0.11763865498206734]","[-1,-1,-1]","[0.10037575866573253,-0.019100235174104446]","[1,1,1]","[0.15006732646588955,0.13001561788382351]","[1,1,1]","[0.03522269695944651,-0.07307908987524687]","[-1,-1,-1]","[-0.16593265136365923,-0.06965209717011446]","[-1,-1,-1]","[0.13919376569909211,-0.06534260721362388]","[-1,-1,-1]","[-0.18997299172051083,0.01608895188353283]","[1,1,1]","[-0.09583508173245471,-0.15947544394003738]","[-1,-1,-1]","[-0.07826010509043939,0.06554467302022682]","[1,1,1]","[-0.05495014966160355,0.18410203520166132]","[-1,-1,-1]","[-0.062313818471408704,-0.056162099283397784]","[-1,-1,-1]","[0.0401511971237475,-0.1574798890989286]","[1,1,1]","[0.06828037858901324,-0.1123421576325944]","[1,1,1]","[-0.15509062102344287,0.09902623425095572]","[-1,-1,-1]","[-0.09992846283690439,-0.07072431102234916]","[1,1,1]","[0.02,0.02]",109.1691,0,18,18,77,1,,,,,,,
,,,,,,,611902d49efe216a416d97dc,682db412dc2de648f9f7acaf,2025-05-21_13h25.25.726,cuing_paradigm_dot,2024.1.5,Win32,30.48780488,682d556593cb38ad0a074487,,,,,,,,,,,109.1702,109.6657,,,109.9081,110.4819,left,0.5503,,,,,,,,,0.4,,,,,,109.6659,109.9081,110.4822,"[0.039697613435460494,0.16777978434213114]","[1,1,1]","[0.12645784667716223,-0.06514009244693716]","[-1,-1,-1]","[0.08324702830753254,-0.016865537483821042]","[-1,-1,-1]","[0.10200413096302305,0.06641945572771184]","[-1,-1,-1]","[-0.06068129697250963,-0.10830691671985368]","[-1,-1,-1]","[0.01697923991235049,0.1304509845713547]","[-1,-1,-1]","[-0.0763767115401267,0.0496905859561119]","[-1,-1,-1]","[-0.02205938399514194,-0.022371639924815737]","[1,1,1]","[-0.11921002549354252,-0.11313357507355078]","[-1,-1,-1]","[-0.017765092235321047,-0.09156213778828672]","[-1,-1,-1]","[-0.12585927510202263,0.0513728358430682]","[1,1,1]","[-0.07284271513605738,-0.00012880696662862084]","[1,1,1]","[0.16561378627884163,0.04610047799258593]","[1,1,1]","[-0.04354076141828032,0.16289029389237766]","[-1,-1,-1]","[0.07513000847903704,-0.1688145621906146]","[-1,-1,-1]","[0.13516674709432774,-0.11968079979767549]","[-1,-1,-1]","[-0.006781548624403853,0.06053586677741202]","[1,1,1]","[0.05816546373674587,0.03721685671436228]","[-1,-1,-1]","[0.009394567013895991,-0.14015139104854757]","[1,1,1]","[-0.1340968574170374,0.09377650798941255]","[-1,-1,-1]","[-0.11770299787847727,-0.06729026723905755]","[1,1,1]","[0.12697711504842074,0.11482665915757197]","[1,1,1]","[-0.04884641746131326,-0.15780364327549373]","[-1,-1,-1]","[0.0203938932541749,-0.19510838267725347]","[-1,-1,-1]","[0.05418452412295877,0.08319197909091074]","[1,1,1]","[0.03605361352823301,-0.03966025672180288]","[-1,-1,-1]","[0.052818911359237664,-0.0952798811824633]","[-1,-1,-1]","[-0.09952245137250237,0.11511570400155602]","[1,1,1]","[-0.14086258486520822,-0.018068401320014804]","[1,1,1]","[-0.15992495707102658,-0.08153589206083572]","[-1,-1,-1]","[0.1674212204419637,-0.017659563548400443]","[1,1,1]","[0.07635707686068953,0.12197036181352545]","[-1,-1,-1]","[0.02,0.02]",111.5724,0,19,19,46,1,,,,,,,
,,,,,,,611902d49efe216a416d97dc,682db412dc2de648f9f7acaf,2025-05-21_13h25.25.726,cuing_paradigm_dot,2024.1.5,Win32,30.48780488,682d556593cb38ad0a074487,,,,,,,,,,,111.5732,112.0739,,,112.3253,112.8367,left,0.4904,,,,,,,,,0.1,,,,,,112.0739,112.3253,112.8368,"[0.035974145246078455,-0.08838706744497447]","[-1,-1,-1]","[-0.08871957766042869,0.16766768271882415]","[-1,-1,-1]","[0.13032806409936507,-0.12426877759774983]","[-1,-1,-1]","[0.024884942568531052,0.12465299066660585]","[-1,-1,-1]","[0.006403787027522546,-0.19730382037379368]","[1,1,1]","[-0.17938857137538317,0.035958084460430244]","[-1,-1,-1]","[-0.11354537093517054,0.08229907374100887]","[-1,-1,-1]","[-0.05720459357239132,0.1276657360827446]","[1,1,1]","[-0.03222394448809906,-0.12637910414123596]","[-1,-1,-1]","[0.1854588608070185,0.010892506322488062]","[-1,-1,-1]","[-0.16182752406818635,0.09553426080444309]","[-1,-1,-1]","[-0.1697342818950112,-0.08711190236208227]","[-1,-1,-1]","[-0.07638566708000008,0.0067624331319053625]","[-1,-1,-1]","[-0.1061064849355323,-0.11913260682938073]","[-1,-1,-1]","[-0.0015232017541001394,0.16554242405513686]","[-1,-1,-1]","[0.01344013270631599,0.03310601197587142]","[-1,-1,-1]","[0.10602823184650804,0.051883273407646785]","[-1,-1,-1]","[-0.021055310342874178,-0.0879082703164945]","[-1,-1,-1]","[-0.11144775435549292,-0.06043583019916478]","[-1,-1,-1]","[-0.17311402009004184,-0.03695019033466346]","[-1,-1,-1]","[-0.14490617528551852,0.007695048090279099]","[1,1,1]","[0.1458546968183888,-0.030271053799176457]","[-1,-1,-1]","[-0.06685357500091757,0.07145247832668475]","[-1,-1,-1]","[0.003625792817006803,0.07943633118653248]","[-1,-1,-1]","[0.055036457384480646,0.017404227417087293]","[-1,-1,-1]","[0.09230754985181656,-0.06310550030433244]","[-1,-1,-1]","[-0.023154797502713088,-0.0350797918869927]","[-1,-1,-1]","[0.05614216605000421,0.16779318809701263]","[-1,-1,-1]","[0.05848060130102415,0.09162549966859847]","[-1,-1,-1]","[0.06468595601048538,-0.02482834585642622]","[-1,-1,-1]","[0.045928112763340065,-0.17557113575652708]","[-1,-1,-1]","[0.10899398763274928,0.15067946952615455]","[-1,-1,-1]","[0.02,0.02]",113.9291,0,20,20,11,1,,,,,,,
,,,,,,,611902d49efe216a416d97dc,682db412dc2de648f9f7acaf,2025-05-21_13h25.25.726,cuing_paradigm_dot,2024.1.5,Win32,30.48780488,682d556593cb38ad0a074487,,,,,,,,,,,113.9302,114.4322,,,114.6782,115.165,left,0.4694,,,,,,,,,0.4,,,,,,114.4322,114.6781,115.1651,"[-0.054454822140586945,0.17204435575866958]","[1,1,1]","[0.1150777247769989,0.119774352979081]","[-1,-1,-1]","[-0.08017162993201485,-0.08237443229681886]","[1,1,1]","[0.14189710474747882,-0.07942888371312128]","[1,1,1]","[-0.12158762246901171,0.15007867977116154]","[-1,-1,-1]","[0.013710087169479185,-0.023084837070005318]","[-1,-1,-1]","[-0.0547642744262605,0.06312318005720265]","[-1,-1,-1]","[-0.12269138558215885,0.10887993142910822]","[-1,-1,-1]","[-0.19131623126960373,0.02982245677771828]","[1,1,1]","[0.02500028104612315,0.19793500706397316]","[1,1,1]","[0.0037427603570541557,-0.11610588546973992]","[-1,-1,-1]","[0.04541733276353648,0.05358413815237337]","[-1,-1,-1]","[0.07002645227963941,-0.03514803224427475]","[1,1,1]","[0.06897718217859486,-0.14751188350123906]","[1,1,1]","[-0.11378579619852573,-0.11991210589956845]","[-1,-1,-1]","[-0.12447834592117572,-0.03975491150921397]","[-1,-1,-1]","[-0.023018292226933027,-0.19839605187767917]","[-1,-1,-1]","[-0.016489222138240132,0.19509266552062354]","[1,1,1]","[-0.10796203149300249,-0.0031233369120878753]","[-1,-1,-1]","[-0.07014440557731598,0.10279017427300163]","[-1,-1,-1]","[0.18068396799002903,0.029438056362605203]","[-1,-1,-1]","[-0.061991526089974644,-0.17028345116606045]","[1,1,1]","[-0.03350014517644259,0.024571698752826644]","[-1,-1,-1]","[-0.04866758127988332,-0.055501915795120746]","[-1,-1,-1]","[0.06082806700617945,-0.09555163710911628]","[-1,-1,-1]","[0.07316069633690317,0.1387645627522398]","[-1,-1,-1]","[0.040111305999278715,-0.1809256761262013]","[-1,-1,-1]","[0.04260003470864655,0.011116516542940432]","[-1,-1,-1]","[0.1379770508657072,0.07258563551480332]","[1,1,1]","[-0.008662943530107357,0.11003579940476998]","[1,1,1]","[0.18005598270081768,-0.05091049879953299]","[1,1,1]","[-0.10145768927370184,0.04029737169931703]","[1,1,1]","[0.02,0.02]",116.2626,0,21,21,40,1,,,,,,,
,,,,,,,611902d49efe216a416d97dc,682db412dc2de648f9f7acaf,2025-05-21_13h25.25.726,cuing_paradigm_dot,2024.1.5,Win32,30.48780488,682d556593cb38ad0a074487,,,,,,,,,,,116.2633,116.7557,,,116.9986,117.4762,right,0.4605,,,,,,,,,0.45,,,,,,116.7557,116.9986,117.4763,"[-0.03656686153109667,0.1076078130434303]","[1,1,1]","[0.14729885074757632,-0.004874540328743738]","[1,1,1]","[0.08556455525630398,-0.10678612833048177]","[1,1,1]","[-0.07797064764581957,0.16675539277122495]","[1,1,1]","[0.01862857672690466,0.03886475402559239]","[-1,-1,-1]","[-0.09930323165492938,-0.004476578885859134]","[-1,-1,-1]","[-0.12444066027879265,-0.05049907996504363]","[-1,-1,-1]","[0.05141009668798708,-0.053143980557021395]","[1,1,1]","[0.06269228065812311,0.0712722161066976]","[1,1,1]","[0.18637025630963133,0.033985075794072936]","[-1,-1,-1]","[0.07425957907408452,-0.0024738835632213516]","[-1,-1,-1]","[-0.1524402403553595,-0.0815542239914568]","[-1,-1,-1]","[-0.03765335663217136,-0.1686091584936095]","[1,1,1]","[0.17946952980446326,-0.04708532803124571]","[1,1,1]","[-0.11123886114865263,0.10977511931087858]","[1,1,1]","[-0.14218436648660873,0.03634945159968701]","[-1,-1,-1]","[-0.16797546383504647,-0.008330964882660722]","[-1,-1,-1]","[0.005107493427656368,0.07862864647558176]","[-1,-1,-1]","[0.03788713569721787,-0.1057673935914958]","[1,1,1]","[-0.06250434899502812,-0.11929409275568273]","[1,1,1]","[-0.08654098843442802,-0.16275618536597616]","[-1,-1,-1]","[0.15633844892406468,0.07834948476028673]","[-1,-1,-1]","[-0.15776011431454626,0.07814634711598487]","[-1,-1,-1]","[-0.08046814517638029,-0.05858029997937338]","[-1,-1,-1]","[-0.02554438799323338,0.025343556993263867]","[-1,-1,-1]","[0.09352868540903274,-0.06720046089747964]","[1,1,1]","[-0.010778491020092673,-0.05532237772062266]","[1,1,1]","[0.007085466890479756,0.1515474625724994]","[-1,-1,-1]","[-0.05111616563509448,-0.024497835357424128]","[1,1,1]","[0.15245721261112719,-0.08510641946354704]","[-1,-1,-1]","[-0.021430552292902454,0.18553114462387654]","[-1,-1,-1]","[0.1116152428978511,0.11914363684678209]","[-1,-1,-1]","[0.02,0.02]",118.5684,0,22,22,88,1,,,,,,,
,,,,,,,611902d49efe216a416d97dc,682db412dc2de648f9f7acaf,2025-05-21_13h25.25.726,cuing_paradigm_dot,2024.1.5,Win32,30.48780488,682d556593cb38ad0a074487,,,,,,,,,,,118.5688,119.0473,,,119.2866,119.9388,left,0.6236,,,,,,,,,0.5,,,,,,119.0473,119.2863,119.939,"[-0.06516997721885776,-0.02904844654563279]","[1,1,1]","[-0.14325298491816021,-0.06273496183084014]","[1,1,1]","[0.018223871443062253,-0.07323967276259882]","[1,1,1]","[0.10005485199697613,-0.16731318559489472]","[1,1,1]","[0.1579321833244514,0.02872119143596917]","[1,1,1]","[0.14477162945525132,-0.11139970110833668]","[-1,-1,-1]","[-0.08723070194091236,0.05149487845519805]","[-1,-1,-1]","[-0.11699191056887577,0.11135838447768247]","[-1,-1,-1]","[-0.01432746493518819,0.010474338032524953]","[-1,-1,-1]","[0.0037697392181078133,-0.12604187224699606]","[-1,-1,-1]","[-0.04906305349258881,0.1859994271872811]","[1,1,1]","[-0.12430303964546606,-0.01596100008721208]","[-1,-1,-1]","[0.07956770903949724,-0.10465290844677096]","[1,1,1]","[0.026595312738619724,-0.021518849423145272]","[1,1,1]","[-0.168991420245508,0.040739615724869234]","[1,1,1]","[-0.05326140080614588,-0.17237881290184684]","[-1,-1,-1]","[0.177682032506519,-0.02296387239741616]","[1,1,1]","[0.12217585486615343,0.15538893445624782]","[1,1,1]","[0.014798523171728905,-0.18183359304936966]","[-1,-1,-1]","[-0.07387339179619583,0.1006829653623906]","[1,1,1]","[0.12083586634458497,0.08609668556015923]","[1,1,1]","[0.031152942228741733,0.12546467567050634]","[-1,-1,-1]","[0.08295768990002356,-0.0509329806793141]","[-1,-1,-1]","[0.1797692729781871,0.0785310395111428]","[1,1,1]","[0.03843839461137707,0.16508405364730916]","[-1,-1,-1]","[-0.10528437485997073,-0.10854058616468913]","[-1,-1,-1]","[0.0978650219391515,0.020962712366228885]","[-1,-1,-1]","[0.06014775252925462,-0.16430839347348478]","[-1,-1,-1]","[-0.12955723527710034,-0.1503396723857988]","[-1,-1,-1]","[-0.19583339666374266,-0.03390731898792009]","[-1,-1,-1]","[0.1703781985030454,-0.06467864349804582]","[1,1,1]","[-0.1629775357532442,-0.11219087366008292]","[1,1,1]","[0.02,0.02]",121.0322,0,23,23,114,1,,,,,,,
,,,,,,,611902d49efe216a416d97dc,682db412dc2de648f9f7acaf,2025-05-21_13h25.25.726,cuing_paradigm_dot,2024.1.5,Win32,30.48780488,682d556593cb38ad0a074487,,,,,,,,,,,121.033,121.5343,,,121.7758,122.3978,left,0.6074,,,,,,,,,0.6,,,,,,121.5344,121.7757,122.398,"[0.1260906146352326,0.10431030004378655]","[1,1,1]","[0.041840370016106326,-0.11484792287839413]","[-1,-1,-1]","[0.029701908604187463,0.06585407179875698]","[-1,-1,-1]","[-0.15994550355572537,-0.043317263962707186]","[1,1,1]","[0.10833461716716132,0.04002120729232969]","[1,1,1]","[-0.04111114820415986,0.026711984506224338]","[1,1,1]","[-0.1290765232948105,0.0392918508243726]","[1,1,1]","[0.14604689793338904,0.05542278529142891]","[-1,-1,-1]","[-0.12700719766355906,-0.003659234273082691]","[-1,-1,-1]","[-0.1256193592261349,0.10454395964112054]","[-1,-1,-1]","[-0.030411064191436216,0.12106103936076855]","[1,1,1]","[-0.05648300918968147,-0.12916224313660668]","[-1,-1,-1]","[-0.19042564321109193,-0.01481822927737994]","[-1,-1,-1]","[0.0669906440800427,0.01679159997776299]","[1,1,1]","[0.03900411581702156,0.1882419126627624]","[1,1,1]","[-0.1407051269206264,-0.1383308194624578]","[1,1,1]","[0.10632984757877323,-0.029782070740190743]","[-1,-1,-1]","[-0.12209706535262153,0.15603773208457677]","[1,1,1]","[0.12215425806388558,-0.14732800628195541]","[1,1,1]","[-0.10939857118530957,-0.0737788049731707]","[1,1,1]","[-0.08203212835478682,0.1658597032065877]","[1,1,1]","[-0.07833609416751498,-0.17911637024401159]","[1,1,1]","[0.16852636219752534,-0.07563461909277651]","[-1,-1,-1]","[0.07246433858553683,0.1471398546722563]","[1,1,1]","[0.06718761393654317,-0.18552062137890574]","[-1,-1,-1]","[-0.06525620242597416,-0.03042472283218369]","[1,1,1]","[-0.0016628872763739914,-0.18014106359778506]","[1,1,1]","[0.18622973661609904,0.02470845528165236]","[1,1,1]","[0.048353311831456934,-0.05375947729075512]","[-1,-1,-1]","[0.16235621943048786,-0.11671175035922658]","[-1,-1,-1]","[-0.011000237288716963,-0.04649643929639991]","[-1,-1,-1]","[-0.021474256124852244,0.17003362009748493]","[1,1,1]","[0.02,0.02]",123.4863,0,24,24,154,1,,,,,,,
,,,,,,,611902d49efe216a416d97dc,682db412dc2de648f9f7acaf,2025-05-21_13h25.25.726,cuing_paradigm_dot,2024.1.5,Win32,30.48780488,682d556593cb38ad0a074487,,,,,,,,,,,123.4881,123.992,,,124.2299,124.9912,right,0.7402,,,,,,,,,0.9,,,,,,123.992,124.2299,124.9915,"[0.11496744183440366,0.010752523573002864]","[1,1,1]","[0.004139323694092622,-0.10953584782809553]","[1,1,1]","[0.1834015751361642,-0.07527871762280973]","[1,1,1]","[0.18094405474117842,0.06174956713979246]","[1,1,1]","[0.08809689335241576,-0.04234257495365458]","[1,1,1]","[0.04057110174584762,-0.012609883530105758]","[1,1,1]","[-0.08204069897300632,0.04775908956150169]","[-1,-1,-1]","[-0.16671215174467846,0.06236792180459682]","[-1,-1,-1]","[0.1351099626753539,0.09772655078505933]","[1,1,1]","[0.10204830630558825,-0.10609696688387057]","[1,1,1]","[-0.0995764890656807,0.11859511306949326]","[1,1,1]","[-0.1336943465801488,-0.11636014771698829]","[1,1,1]","[-0.06683532493779519,-0.1356563608467887]","[1,1,1]","[-0.009258785849275393,0.08562799948839385]","[1,1,1]","[-0.12977954155363863,0.14838306330009907]","[1,1,1]","[0.005730740929606571,0.028737094358818455]","[1,1,1]","[-0.11542026132393327,-0.02354009550055796]","[1,1,1]","[0.05567338754940922,-0.09354535653325584]","[1,1,1]","[-0.1691335316427348,-0.05625030628670533]","[1,1,1]","[0.13179490653352197,-0.04578624112642486]","[1,1,1]","[0.033171278190388946,0.155253953343562]","[1,1,1]","[0.04080584277581515,0.0763649528081328]","[1,1,1]","[-0.058765578252615636,0.12498037862677867]","[1,1,1]","[0.04399545486544005,-0.1404093604390373]","[1,1,1]","[0.03706970773947079,-0.19282778366540507]","[1,1,1]","[0.0688205911896378,0.04072567950263177]","[1,1,1]","[-0.06555734347065809,-0.08471734391267753]","[1,1,1]","[-0.18172683309588944,-0.009455938825349513]","[1,1,1]","[-0.021112637722110267,-0.07575633883874777]","[-1,-1,-1]","[0.19499265317496367,-0.03155132019346507]","[1,1,1]","[0.15037736397257004,-0.099767370697673]","[1,1,1]","[0.08694534502165595,0.11470801065532268]","[1,1,1]","[0.02,0.02]",126.0897,0,25,25,198,1,,,,,,,
,,,,,,,611902d49efe216a416d97dc,682db412dc2de648f9f7acaf,2025-05-21_13h25.25.726,cuing_paradigm_dot,2024.1.5,Win32,30.48780488,682d556593cb38ad0a074487,,,,,,,,,,,126.0912,126.5895,,,126.8342,127.4644,left,0.6112,,,,,,,,,0.45,,,,,,126.5895,126.8341,127.4645,"[-0.13462730534003467,0.006094305847259084]","[1,1,1]","[0.00795777132997764,0.12990417670661536]","[-1,-1,-1]","[-0.08261492355726689,0.07141999445834461]","[-1,-1,-1]","[-0.1391818353497326,-0.05876355898817155]","[-1,-1,-1]","[0.1001292545446999,0.08534797551364202]","[1,1,1]","[-0.09570787008744441,0.12645923211802348]","[-1,-1,-1]","[-0.12010205246326457,-0.11131769761015634]","[1,1,1]","[-0.018680257864966,-0.04416042653735846]","[1,1,1]","[-0.039125530936418296,0.08409326079983455]","[1,1,1]","[0.15335838058358342,0.08362521119695945]","[-1,-1,-1]","[-0.04976185098461305,-0.13070870665027856]","[1,1,1]","[0.008042293031921633,0.06602962743136613]","[-1,-1,-1]","[0.08036730270791523,-0.07223566942096168]","[-1,-1,-1]","[-0.09667428739245583,-0.03506110234606465]","[1,1,1]","[-0.13695729436634457,0.13962583477552065]","[1,1,1]","[0.1673537199473519,-0.05651900093747058]","[1,1,1]","[0.094452086447301,0.04296774194594492]","[-1,-1,-1]","[0.038885628249745716,0.1788006639529675]","[-1,-1,-1]","[-0.05419158809854844,0.1403466201681313]","[-1,-1,-1]","[0.048308756209616374,-0.0019247456375366167]","[-1,-1,-1]","[-0.05637499357828579,0.01641600743502905]","[1,1,1]","[0.09959869281729926,-0.15635320628049273]","[1,1,1]","[0.15323077000209312,0.033091524297049695]","[-1,-1,-1]","[-0.08974835400949469,-0.14029079901250463]","[1,1,1]","[-0.03410729046497354,0.17517331938678574]","[-1,-1,-1]","[0.14189587699311518,-0.1053516773960009]","[-1,-1,-1]","[0.09553216608255352,-0.016970203008915236]","[-1,-1,-1]","[0.03749003805051581,-0.1807399516808212]","[-1,-1,-1]","[-0.12854829849415256,0.06795294274493727]","[1,1,1]","[-0.1977375620420387,0.0038190141706996353]","[-1,-1,-1]","[0.03788838423131728,-0.0976969648078274]","[1,1,1]","[-0.007026832437012391,-0.12932696002072813]","[-1,-1,-1]","[0.02,0.02]",128.5587,0,26,26,86,1,,,,,,,
,,,,,,,611902d49efe216a416d97dc,682db412dc2de648f9f7acaf,2025-05-21_13h25.25.726,cuing_paradigm_dot,2024.1.5,Win32,30.48780488,682d556593cb38ad0a074487,,,,,,,,,,,128.559,129.0534,,,129.2946,129.9436,left,0.6354,,,,,,,,,0.1,,,,,,129.0534,129.2945,129.9437,"[-0.09841026291353366,-0.12776778467680433]","[-1,-1,-1]","[-0.0932542711054294,0.13228554625469865]","[-1,-1,-1]","[-0.04103577717543171,-0.012916343574584993]","[-1,-1,-1]","[-0.013955934621337958,0.1726138293101876]","[-1,-1,-1]","[0.07412222798188407,-0.06038475785757333]","[-1,-1,-1]","[0.1746495505695187,-0.08332556779233471]","[-1,-1,-1]","[0.07886038945674478,-0.012726545019491827]","[-1,-1,-1]","[0.07771757350550565,0.033101527427093484]","[-1,-1,-1]","[0.13900681528851339,0.11488755110158921]","[1,1,1]","[0.022368876615208318,-0.14381707232882202]","[1,1,1]","[0.1333068216824903,0.041130008666705506]","[-1,-1,-1]","[-0.04186128039754587,0.09572183867608829]","[-1,-1,-1]","[0.05053257370547673,0.09360095580881897]","[-1,-1,-1]","[0.060016137493479824,0.14174005752820937]","[-1,-1,-1]","[-0.006377309030976887,-0.04679473411408906]","[-1,-1,-1]","[-0.1502216907116048,0.05194796576836668]","[-1,-1,-1]","[-0.04501892819025064,-0.09954351297855635]","[-1,-1,-1]","[0.12556824339884273,-0.10846198972574715]","[-1,-1,-1]","[-0.02406120045323047,-0.17830102905556922]","[-1,-1,-1]","[0.001679706746584346,0.09217253925556715]","[-1,-1,-1]","[-0.1340968805482195,-0.011583810566991398]","[-1,-1,-1]","[0.001590376532444582,0.017436202951461182]","[-1,-1,-1]","[-0.1930396308022438,0.04986371706592714]","[-1,-1,-1]","[-0.15562467210560935,0.10726584278649155]","[-1,-1,-1]","[-0.14077042879116106,-0.13876582530536538]","[-1,-1,-1]","[0.1667079934768694,0.07609466447305742]","[1,1,1]","[-0.10221034803961822,-0.07894511699803575]","[-1,-1,-1]","[-0.08218560602696812,0.033263629961186494]","[-1,-1,-1]","[0.10620307116389768,-0.16004475890129458]","[-1,-1,-1]","[-0.09182298537482655,-0.16891457487873504]","[-1,-1,-1]","[0.1449331010848841,-0.04262207059101202]","[-1,-1,-1]","[0.006910783737445574,0.13261443816755825]","[-1,-1,-1]","[0.02,0.02]",131.0411,0,27,27,20,1,,,,,,,
,,,,,,,611902d49efe216a416d97dc,682db412dc2de648f9f7acaf,2025-05-21_13h25.25.726,cuing_paradigm_dot,2024.1.5,Win32,30.48780488,682d556593cb38ad0a074487,,,,,,,,,,,131.0425,131.5302,,,131.7698,132.28,right,0.4957,,,,,,,,,0.9,,,,,,131.5302,131.7698,132.2802,"[-0.10498483439888184,-0.04345043330580383]","[-1,-1,-1]","[0.0880763119659995,-0.1777768095605793]","[1,1,1]","[0.10205044026645181,0.046681019067026736]","[1,1,1]","[0.05574860412458248,-0.11668822390635039]","[1,1,1]","[0.0040947269608009405,0.0936029489837625]","[1,1,1]","[-0.1531450402960596,-0.08209655536762817]","[-1,-1,-1]","[0.0863721006468813,0.1044552501057049]","[1,1,1]","[0.032183718198073336,0.12992812438285925]","[1,1,1]","[-0.08096454138695292,-0.14528918229058158]","[1,1,1]","[-0.09148108443939565,0.0683676078680218]","[1,1,1]","[0.07500316025605086,-0.06834769189928248]","[1,1,1]","[0.07171471656206668,0.16326390786812905]","[1,1,1]","[-0.025152692709576298,-0.06728904621044439]","[1,1,1]","[-0.1646906717548687,0.015075791473602187]","[-1,-1,-1]","[0.005817565733701105,-0.00946200826356512]","[1,1,1]","[-0.028506541853419463,0.1580130040445253]","[1,1,1]","[0.16094405352725477,-0.043386141717148344]","[1,1,1]","[0.037939984524022335,0.02164923954421649]","[1,1,1]","[0.1695904423018869,-0.08530605482038259]","[1,1,1]","[-0.1182331050478634,0.1172012701620325]","[1,1,1]","[-0.07243763510064619,-0.006271341099557317]","[1,1,1]","[0.10789788051865354,-0.03395384181472929]","[1,1,1]","[-0.005713481622044652,-0.1714854521190923]","[1,1,1]","[-0.048324188056179704,-0.11005932142483316]","[1,1,1]","[0.13318094216236945,0.006096303844663486]","[1,1,1]","[0.15866377100544252,0.09873032706298601]","[1,1,1]","[-0.1175340007363998,0.16148689833007235]","[1,1,1]","[-0.007819126450370641,0.04698985639063844]","[1,1,1]","[-0.10540990049113476,-0.10481483738599014]","[1,1,1]","[0.11499240147193253,0.14676030702994075]","[1,1,1]","[-0.10538680435767862,0.02959705244869024]","[1,1,1]","[-0.07639335485277529,0.12623428407289192]","[1,1,1]","[0.02,0.02]",133.3848,0,28,28,204,1,,,,,,,
,,,,,,,611902d49efe216a416d97dc,682db412dc2de648f9f7acaf,2025-05-21_13h25.25.726,cuing_paradigm_dot,2024.1.5,Win32,30.48780488,682d556593cb38ad0a074487,,,,,,,,,,,133.3858,133.8743,,,134.1256,134.781,left,0.6183,,,,,,,,,0.1,,,,,,133.8746,134.1255,134.7812,"[-0.0928091415608395,-0.09816225809568636]","[-1,-1,-1]","[0.08059478528783474,-0.10991779210897237]","[-1,-1,-1]","[-0.03502421806479021,-0.09167292388257242]","[-1,-1,-1]","[-0.07465543476398011,0.012484702003172062]","[-1,-1,-1]","[-0.08121564802692233,0.14952894502431965]","[-1,-1,-1]","[-0.17403550105755553,0.007207939583074689]","[-1,-1,-1]","[0.19385738664389066,0.003092680682750703]","[-1,-1,-1]","[-0.12066922676992593,-0.047354799406806446]","[-1,-1,-1]","[0.13831900597774568,0.020709226506066554]","[1,1,1]","[-0.0329819655730198,-0.18209720215647288]","[-1,-1,-1]","[0.07282592892367977,0.12202405395244]","[-1,-1,-1]","[0.10137186268700321,-0.160592147881254]","[-1,-1,-1]","[-0.1577526732776309,0.07897418741228689]","[-1,-1,-1]","[0.07141043676122127,-0.053711795144959495]","[1,1,1]","[-0.019271259242227733,0.17220352342807776]","[-1,-1,-1]","[0.17354331562758202,0.05947608075034386]","[-1,-1,-1]","[0.03603316173713721,0.04197338627457763]","[-1,-1,-1]","[-0.08111944630961723,-0.16943282923920547]","[-1,-1,-1]","[-0.002019948192651451,-0.0274457158364373]","[-1,-1,-1]","[0.11852581128009552,0.11006492400527877]","[-1,-1,-1]","[-0.06577556883005638,0.09310940234322516]","[-1,-1,-1]","[0.1345017586400443,-0.04944260339876282]","[-1,-1,-1]","[-0.1252888669985864,-0.005361917920383376]","[-1,-1,-1]","[0.028486224090507863,-0.1670183062364882]","[-1,-1,-1]","[-0.022298122346753005,0.0813590756104462]","[-1,-1,-1]","[-0.04094113597679215,-0.142390139752858]","[-1,-1,-1]","[0.00816011692305882,-0.09055008612127567]","[-1,-1,-1]","[0.09636195742016626,0.15633981566530952]","[1,1,1]","[0.17094535445729087,-0.07073938016019288]","[-1,-1,-1]","[-0.09603169149748726,0.0631490384716265]","[-1,-1,-1]","[0.11393364397542413,-0.08413764141902118]","[-1,-1,-1]","[-0.13748593896884626,0.11532918804792128]","[-1,-1,-1]","[0.02,0.02]",135.8851,0,29,29,29,1,,,,,,,
,,,,,,,611902d49efe216a416d97dc,682db412dc2de648f9f7acaf,2025-05-21_13h25.25.726,cuing_paradigm_dot,2024.1.5,Win32,30.48780488,682d556593cb38ad0a074487,,,,,,,,,,,135.8865,136.3848,,,136.6301,137.1816,left,0.535,,,,,,,,,0.1,,,,,,136.3849,136.6299,137.1818,"[0.033813943649721484,0.17240481542860867]","[-1,-1,-1]","[0.11200276722063521,0.14005950352219862]","[-1,-1,-1]","[0.136344419630337,0.04787191851993935]","[-1,-1,-1]","[0.15946581193282647,-0.02013933370495004]","[1,1,1]","[0.08502077238921862,0.004636597763446197]","[-1,-1,-1]","[0.12493186661208251,-0.07205510858765585]","[-1,-1,-1]","[-0.01166824183736069,0.02255142089045866]","[-1,-1,-1]","[0.000140341778858347,-0.10388848667042172]","[-1,-1,-1]","[-0.05123560959883562,-0.07700351398619523]","[-1,-1,-1]","[0.02032268690399589,0.058277127756114495]","[-1,-1,-1]","[0.07453460496624285,-0.1389739939458608]","[-1,-1,-1]","[0.04033658786938362,-0.009004830513061331]","[-1,-1,-1]","[-0.1457979861930713,-0.03082299340235218]","[1,1,1]","[-0.06997598018463243,-0.16368548496171903]","[-1,-1,-1]","[0.17378437217836964,0.033652054921951384]","[-1,-1,-1]","[-0.1536600035925535,-0.12684444361421696]","[-1,-1,-1]","[0.1666755625057695,-0.10810459796890742]","[-1,-1,-1]","[-0.026003866977578928,0.09966992968417462]","[-1,-1,-1]","[0.06196311686233108,-0.1804231676833565]","[-1,-1,-1]","[0.19614675077495863,-0.0010047568228987325]","[-1,-1,-1]","[0.10327358308597541,0.0879048946302803]","[-1,-1,-1]","[-0.02994880828301259,0.18067060293023404]","[-1,-1,-1]","[-0.16275578386036169,0.01470016935215244]","[-1,-1,-1]","[-0.07397048333737652,0.11076478361935761]","[-1,-1,-1]","[-0.11157265022601781,-0.13478249734537132]","[-1,-1,-1]","[-0.026486265152867946,-0.1515043495385686]","[-1,-1,-1]","[-0.17584984977235915,0.07811540871720499]","[-1,-1,-1]","[-0.07557826235302759,0.010204129237859589]","[-1,-1,-1]","[-0.06234903256963848,0.06954285539534569]","[-1,-1,-1]","[0.03168419923446676,-0.1435113156012405]","[-1,-1,-1]","[0.16151949097614812,0.09423220729321771]","[1,1,1]","[-0.04727284492233605,-0.025300857417599278]","[-1,-1,-1]","[0.02,0.02]",138.283,0,30,30,21,1,,,,,,,
,,,,,,,611902d49efe216a416d97dc,682db412dc2de648f9f7acaf,2025-05-21_13h25.25.726,cuing_paradigm_dot,2024.1.5,Win32,30.48780488,682d556593cb38ad0a074487,,,,,,,,,,,138.2844,138.783,,,139.036,139.4854,right,0.4294,,,,,,,,,0.55,,,,,,138.783,139.0359,139.4857,"[0.09174779320395887,-0.03950273421579883]","[-1,-1,-1]","[0.05302535860861757,0.04464492785157992]","[-1,-1,-1]","[0.1666250096960534,-0.005146284572171601]","[1,1,1]","[0.1390682217158406,0.1290192435639999]","[1,1,1]","[-0.0026820915621617414,-0.05035092693352894]","[1,1,1]","[-0.16849184965607314,-0.03626425711613782]","[-1,-1,-1]","[0.06105953870595587,0.14333835813613752]","[1,1,1]","[-0.02720217687380314,-0.009815100324182383]","[1,1,1]","[-0.05762623720863233,0.1271823023614894]","[1,1,1]","[-0.0031602192188711037,-0.18080775225778473]","[-1,-1,-1]","[0.07782756512434041,-0.11672473431213218]","[-1,-1,-1]","[0.046108638004235196,-0.05324360932954082]","[1,1,1]","[-0.10783620926695896,0.058686060995629445]","[-1,-1,-1]","[-0.07117141143926912,-0.12966882737925267]","[1,1,1]","[-0.19131325180354108,0.011486172684165418]","[1,1,1]","[-0.10508222617690377,-0.06006569271135595]","[-1,-1,-1]","[-0.032657117956056046,0.09189946313310027]","[1,1,1]","[0.09981711143683152,-0.15445953795894887]","[1,1,1]","[-0.16750089005627597,0.04508223179257559]","[1,1,1]","[-0.029512677493340047,0.166193636131576]","[-1,-1,-1]","[-0.08032800377207887,-0.023310987349170975]","[1,1,1]","[-0.10581716512615504,0.15639194692685557]","[-1,-1,-1]","[0.11105491623150962,0.05236304267691401]","[1,1,1]","[0.12671430145606494,-0.012357085808177336]","[-1,-1,-1]","[-0.0001534148586017794,-0.10159871355039408]","[-1,-1,-1]","[0.0018101681114602811,0.1253611905384422]","[1,1,1]","[0.16467421657101308,-0.05397731169701221]","[1,1,1]","[-0.017758532048404024,0.05013210958904075]","[-1,-1,-1]","[-0.1373098534353298,-0.08456161416401957]","[-1,-1,-1]","[-0.09442955650230694,-0.1669543025555097]","[1,1,1]","[-0.04559845510408758,-0.07813528430237758]","[-1,-1,-1]","[0.06866261686387864,-0.18373840570049257]","[1,1,1]","[0.02,0.02]",140.5865,0,31,31,135,1,,,,,,,
,,,,,,,611902d49efe216a416d97dc,682db412dc2de648f9f7acaf,2025-05-21_13h25.25.726,cuing_paradigm_dot,2024.1.5,Win32,30.48780488,682d556593cb38ad0a074487,,,,,,,,,,,140.5876,141.0877,,,141.3389,141.9592,right,0.6016,,,,,,,,,0.55,,,,,,141.0877,141.3389,141.9594,"[-0.09646103608836117,-0.14081189160123117]","[1,1,1]","[-0.11038605838637576,0.08061721677774518]","[1,1,1]","[0.0001885166697401686,0.18834981337064458]","[1,1,1]","[-0.14891258355345846,-0.07319330300122881]","[-1,-1,-1]","[0.14507752551469336,0.04871992282441601]","[-1,-1,-1]","[0.03440565452046499,-0.18284757779818206]","[-1,-1,-1]","[-0.014433415211527204,-0.07698266168840857]","[1,1,1]","[-0.09230455135602993,-0.005873945585490153]","[1,1,1]","[-0.026953023851155417,0.021606400052943498]","[1,1,1]","[0.0730428344819038,0.0489771219495522]","[1,1,1]","[0.04958478787618919,-0.10043167753157076]","[1,1,1]","[-0.07650174347350522,0.0394362585459329]","[1,1,1]","[-0.03197037066039321,-0.02659850555276316]","[1,1,1]","[0.13774985179836918,0.13185266522466688]","[1,1,1]","[0.18685553246047246,0.03332489691995371]","[-1,-1,-1]","[-0.1636914617115506,0.11090820110420709]","[1,1,1]","[-0.09723967349302992,-0.08031918005641651]","[1,1,1]","[-0.04886771383482603,-0.17922286007948193]","[1,1,1]","[0.07365311348020236,-0.06383997809699074]","[-1,-1,-1]","[-0.02017150181505654,0.06232497053787947]","[-1,-1,-1]","[0.02460652402401872,0.008152200482588834]","[-1,-1,-1]","[-0.059496065107007896,0.09918103323886841]","[1,1,1]","[0.049158289861417424,0.10030045036374045]","[-1,-1,-1]","[-0.012588785901772958,-0.13711913461052366]","[-1,-1,-1]","[0.09634216939780336,-0.029270011156702996]","[-1,-1,-1]","[0.08834847597493553,0.1274293948525702]","[1,1,1]","[-0.12895728525869496,-0.029908934407138286]","[-1,-1,-1]","[0.15358011586194675,-0.11348115045356028]","[1,1,1]","[-0.05580346111159799,-0.08592615988888824]","[-1,-1,-1]","[0.10972169855088934,-0.08907719638514489]","[-1,-1,-1]","[-0.16297707735894948,-0.11519750824450407]","[1,1,1]","[-0.1896368354236276,-0.05115427379023213]","[-1,-1,-1]","[0.02,0.02]",143.0513,0,32,32,139,1,,,,,,,
,,,,,,,611902d49efe216a416d97dc,682db412dc2de648f9f7acaf,2025-05-21_13h25.25.726,cuing_paradigm_dot,2024.1.5,Win32,30.48780488,682d556593cb38ad0a074487,,,,,,,,,,,143.0527,143.5323,,,143.7807,144.343,left,0.5292,,,,,,,,,0.1,,,,,,143.5323,143.7807,144.3431,"[-0.1827673460819165,0.025867359933620947]","[-1,-1,-1]","[-0.11896868382331469,-0.02817995483329492]","[1,1,1]","[0.026229672893690843,0.07020706047213651]","[-1,-1,-1]","[0.05062817148982911,-0.0778345027218065]","[-1,-1,-1]","[-0.1274113974734104,0.024043219665656326]","[-1,-1,-1]","[0.17374304313947928,-0.08569014541000113]","[-1,-1,-1]","[0.16659842875618439,-0.0009658885874127511]","[1,1,1]","[0.08214991283325722,-0.1741838068148102]","[-1,-1,-1]","[-0.04361028966751747,0.09606077258125931]","[-1,-1,-1]","[0.027820084300836295,-0.17584245484314598]","[-1,-1,-1]","[0.010463656086984118,0.11553848814868581]","[1,1,1]","[0.05453681945463838,-0.03607819792325964]","[-1,-1,-1]","[-0.03556732475934282,-0.06667450918380032]","[-1,-1,-1]","[-0.07188943738860934,0.008710143463187214]","[-1,-1,-1]","[0.11281459002446327,-0.05267399477905074]","[-1,-1,-1]","[-0.054453445319529774,0.1845689244689951]","[-1,-1,-1]","[-0.012084394969931762,-0.1343483932920266]","[-1,-1,-1]","[0.012097858718903776,0.021822977615399895]","[-1,-1,-1]","[0.19602811604158357,0.0331004067525903]","[-1,-1,-1]","[0.09473617501629131,0.02613492173360355]","[-1,-1,-1]","[0.07653579558841052,0.07654190546168341]","[-1,-1,-1]","[0.05137694051022987,0.16954803362890108]","[-1,-1,-1]","[-0.11995173921235341,-0.14359648632569538]","[-1,-1,-1]","[0.09928217119865641,0.12004797487508552]","[-1,-1,-1]","[0.16569759349007632,0.08072103830807187]","[-1,-1,-1]","[-0.0785470609949626,0.15032875634735876]","[-1,-1,-1]","[-0.06857150078598237,0.05763051779757152]","[-1,-1,-1]","[0.0050340391791740815,-0.09401842217317953]","[-1,-1,-1]","[-0.14195698173607815,-0.10866423852234793]","[-1,-1,-1]","[-0.18534473780992625,-0.019921221405638376]","[-1,-1,-1]","[0.12400808758482565,-0.1287390352020979]","[-1,-1,-1]","[0.06902494750080425,-0.12113962158805151]","[-1,-1,-1]","[0.02,0.02]",145.4439,0,33,33,16,1,,,,,,,
,,,,,,,611902d49efe216a416d97dc,682db412dc2de648f9f7acaf,2025-05-21_13h25.25.726,cuing_paradigm_dot,2024.1.5,Win32,30.48780488,682d556593cb38ad0a074487,,,,,,,,,,,145.4443,145.9429,,,146.196,146.7428,right,0.53,,,,,,,,,0.45,,,,,,145.9429,146.196,146.7428,"[0.005447884832977962,0.14721002880508838]","[1,1,1]","[-0.13637243787609427,0.11086051769411416]","[-1,-1,-1]","[-0.07825333595450681,0.14133731255326756]","[-1,-1,-1]","[0.055147355266468155,-0.021667980329728165]","[-1,-1,-1]","[0.09725936865668944,0.0019112696476837575]","[1,1,1]","[0.1378583173745503,0.11109810106048926]","[-1,-1,-1]","[-0.03473744546977367,-0.045714001238806486]","[1,1,1]","[-0.16038363853437826,-0.09699541500404528]","[-1,-1,-1]","[-0.08813749067681417,-0.011357688783727813]","[-1,-1,-1]","[0.10219624770749995,-0.1401146131013828]","[-1,-1,-1]","[0.1267066250919992,-0.08797596200484095]","[1,1,1]","[-0.12665950939717335,-0.14722770255859294]","[1,1,1]","[-0.1842430305704583,0.005055262293422066]","[1,1,1]","[0.03853636301792356,0.17447905790630744]","[1,1,1]","[-0.1269841258696282,0.06643663614702176]","[-1,-1,-1]","[0.08417340481505829,0.17518108996345202]","[-1,-1,-1]","[0.023897883453966602,-0.19753974703919125]","[1,1,1]","[-0.07656705943505354,-0.07005623023849346]","[-1,-1,-1]","[-0.13528561159137256,-0.022588250921463993]","[1,1,1]","[-0.05612818679227025,0.05138932788606495]","[-1,-1,-1]","[0.18732992247253633,0.00034538093217645344]","[1,1,1]","[-0.026585044288970468,-0.18534012340131434]","[-1,-1,-1]","[-0.16961153477262025,0.08547177526429563]","[-1,-1,-1]","[0.0678146792711214,0.08773798749703686]","[1,1,1]","[0.16697050843913194,-0.08872181558606802]","[1,1,1]","[0.027379185689492064,-0.06757330901635748]","[-1,-1,-1]","[0.09252303789725946,-0.06666053625300981]","[-1,-1,-1]","[-0.029955265653313613,0.01740128525809337]","[-1,-1,-1]","[0.004852802912469164,-0.008775527118845113]","[-1,-1,-1]","[-0.03384556430973515,0.18039017690110024]","[1,1,1]","[0.12793324419043428,-0.02659864938461797]","[-1,-1,-1]","[0.14997525296611122,0.053316382604964734]","[1,1,1]","[0.02,0.02]",147.8364,0,34,34,64,1,,,,,,,
,,,,,,,611902d49efe216a416d97dc,682db412dc2de648f9f7acaf,2025-05-21_13h25.25.726,cuing_paradigm_dot,2024.1.5,Win32,30.48780488,682d556593cb38ad0a074487,,,,,,,,,,,147.8374,148.3336,,,148.5846,149.7207,right,1.1068,,,,,,,,,0.5,,,,,,148.3336,148.5844,149.7208,"[-0.13902056792773512,0.09779627295335742]","[-1,-1,-1]","[0.06154474413103799,-0.13172210866082837]","[-1,-1,-1]","[-0.060583287030499984,0.13422910873135965]","[1,1,1]","[-0.13071874476330753,-0.11729151187987244]","[1,1,1]","[0.05228966467315382,0.02067132836153071]","[-1,-1,-1]","[-0.04048033653499227,0.1703370418468707]","[-1,-1,-1]","[0.17566253484814132,0.037383785721599956]","[-1,-1,-1]","[-0.019975298543902318,-0.18396927912044558]","[-1,-1,-1]","[0.11092783924132543,0.01889852761819672]","[1,1,1]","[-0.11428487986521993,0.018831799442610316]","[-1,-1,-1]","[-0.04637874151576929,0.05173940141578952]","[-1,-1,-1]","[0.09412481202831907,0.1567486385376346]","[1,1,1]","[-0.04669646907846171,-0.04327022010899173]","[1,1,1]","[0.05623439672383579,-0.17433217536228807]","[1,1,1]","[0.08163020182985942,-0.047609651925186486]","[1,1,1]","[0.026009102988960992,0.1961468155550371]","[-1,-1,-1]","[0.0034964619609651857,-0.006678576838666515]","[-1,-1,-1]","[-0.13434671744464532,-0.03259821554454999]","[1,1,1]","[0.05192618876599508,0.08163690954837825]","[-1,-1,-1]","[-0.10029513590658852,0.11340002406956018]","[-1,-1,-1]","[0.16971026963867933,0.10439512505670469]","[1,1,1]","[-0.01276300811709446,-0.13470490009363417]","[-1,-1,-1]","[-0.15170083803563755,0.039135197081285523]","[1,1,1]","[0.1123048801203542,0.08617490515553289]","[1,1,1]","[-0.07299265886137965,-0.1009121643439626]","[1,1,1]","[-0.013152360632004142,0.12747204968704534]","[1,1,1]","[0.08568405482596991,0.11686548706319243]","[-1,-1,-1]","[-0.08825144540167001,-0.14848489961798048]","[-1,-1,-1]","[-0.17098286018356745,-0.0672819965294999]","[1,1,1]","[0.16429070083556163,-0.10481823902485318]","[1,1,1]","[0.18082456804872685,-0.04157669034258313]","[1,1,1]","[0.12216737629036292,-0.11785216257927535]","[-1,-1,-1]","[0.02,0.02]",150.8133,0,35,35,107,1,,,,,,,
,,,,,,,611902d49efe216a416d97dc,682db412dc2de648f9f7acaf,2025-05-21_13h25.25.726,cuing_paradigm_dot,2024.1.5,Win32,30.48780488,682d556593cb38ad0a074487,,,,,,,,,,,150.8142,151.3203,,,151.564,152.3503,left,0.7653,,,,,,,,,0.4,,,,,,151.3203,151.564,152.3505,"[-0.048618118002378,-0.019824128958932086]","[1,1,1]","[0.07686399799448884,-0.04147228359498524]","[1,1,1]","[-0.18174487623967375,0.028430379680716905]","[-1,-1,-1]","[-0.030485503128526593,-0.1519146480115862]","[-1,-1,-1]","[-0.07557548214564544,-0.1800770300254352]","[-1,-1,-1]","[-0.14423809444476138,-0.06534625110725838]","[1,1,1]","[-0.1297547778540394,0.028775862837845292]","[-1,-1,-1]","[0.02208646108789673,-0.05413255756204801]","[1,1,1]","[0.11400345629623264,0.10678261648875369]","[-1,-1,-1]","[0.0784131745261838,-0.1380439877096081]","[-1,-1,-1]","[0.12214092611860398,-0.045034549568767936]","[-1,-1,-1]","[-0.10335622830898232,0.11395499683840811]","[-1,-1,-1]","[0.08230774844745727,0.14801683986346417]","[-1,-1,-1]","[0.02220395532302533,0.005324562849310579]","[-1,-1,-1]","[-0.12105025196286656,-0.1018206983741934]","[-1,-1,-1]","[-0.03527773652220082,0.17994103410057458]","[-1,-1,-1]","[-0.1806985278311219,-0.01589570857843588]","[1,1,1]","[-0.073225713544771,0.15381363043818505]","[-1,-1,-1]","[0.06367083975958668,0.08142772701252367]","[-1,-1,-1]","[-0.09236448679901664,0.07116599078913752]","[-1,-1,-1]","[-0.027310415030877742,-0.09425923051546704]","[1,1,1]","[-0.15234859853042634,0.11223310093446878]","[1,1,1]","[0.1372440461354675,0.02870929634191849]","[1,1,1]","[-0.03898960889428928,0.06157286243086217]","[1,1,1]","[0.10101468135581826,0.05626819379597573]","[-1,-1,-1]","[-0.01791590757748945,0.10959563157150705]","[-1,-1,-1]","[0.010661220837867622,0.16577731685958]","[1,1,1]","[0.013955581588137547,-0.1298590591402342]","[1,1,1]","[0.1823747568363516,-0.04035727455407153]","[-1,-1,-1]","[0.11384178855421628,-0.004008110526359083]","[-1,-1,-1]","[-0.12393471892350065,0.15111519425528164]","[1,1,1]","[-0.07366508236081189,-0.0828355019093292]","[1,1,1]","[0.02,0.02]",153.4403,0,36,36,59,1,,,,,,,
,,,,,,,611902d49efe216a416d97dc,682db412dc2de648f9f7acaf,2025-05-21_13h25.25.726,cuing_paradigm_dot,2024.1.5,Win32,30.48780488,682d556593cb38ad0a074487,,,,,,,,,,,153.4417,153.9394,,,154.179,154.712,left,0.5064,,,,,,,,,0.45,,,,,,153.9395,154.179,154.7121,"[-0.16317056445751663,-0.040522014609799845]","[-1,-1,-1]","[0.08215666226823301,0.027874981276596385]","[1,1,1]","[-0.02676704838137796,0.16733005712278273]","[-1,-1,-1]","[0.008855548369389704,-0.02838917182116105]","[1,1,1]","[0.11425137427085899,-0.04698601302383371]","[1,1,1]","[-0.0801235529356418,-0.04179735519760392]","[1,1,1]","[-0.026248548978638986,0.07363247570293992]","[-1,-1,-1]","[-0.12512197027106833,0.016134749041475313]","[-1,-1,-1]","[0.10439725460454409,-0.09493399976005831]","[-1,-1,-1]","[0.04921588525187508,-0.1423739340947968]","[1,1,1]","[-0.08760034645962995,0.050289663225594826]","[-1,-1,-1]","[-0.029434435234668113,-0.07601112644249586]","[-1,-1,-1]","[-0.14569926023166008,0.06282657888077504]","[-1,-1,-1]","[0.02855756642625351,-0.08362311777243615]","[1,1,1]","[0.0702807126058316,0.11155609875303775]","[1,1,1]","[0.10901100727127104,0.1602505761078311]","[1,1,1]","[-0.03766787947573676,-0.01408019571679742]","[1,1,1]","[-0.18179140826764983,0.04217135995037598]","[-1,-1,-1]","[0.1574841641801181,0.10655770781722224]","[-1,-1,-1]","[0.18419201832170345,-0.06966548124210926]","[-1,-1,-1]","[0.19071198662290573,0.01357307978112162]","[1,1,1]","[-0.16954401962042018,-0.10540733345007348]","[-1,-1,-1]","[-0.073311358460123,-0.11863516252607162]","[-1,-1,-1]","[-0.04960762599603716,-0.18918215654873277]","[1,1,1]","[0.17046106439304856,0.0533565887534103]","[1,1,1]","[0.05126898638062016,-0.013184803890499785]","[1,1,1]","[0.013179765573489918,0.023843633132373268]","[-1,-1,-1]","[-0.11484024397469288,0.10379058006584815]","[-1,-1,-1]","[-0.19896365568682473,-0.004611427978052804]","[-1,-1,-1]","[0.1301285385889649,0.009592873415696597]","[-1,-1,-1]","[0.1149498863274374,-0.1487591949694937]","[-1,-1,-1]","[-0.07862138208244844,0.12563763809850806]","[1,1,1]","[0.02,0.02]",155.8071,0,37,37,82,1,,,,,,,
,,,,,,,611902d49efe216a416d97dc,682db412dc2de648f9f7acaf,2025-05-21_13h25.25.726,cuing_paradigm_dot,2024.1.5,Win32,30.48780488,682d556593cb38ad0a074487,,,,,,,,,,,155.8082,156.2985,,,156.5538,157.0727,right,0.5032,,,,,,,,,0.6,,,,,,156.2986,156.5538,157.073,"[0.1481949735361068,-0.023074065668150415]","[1,1,1]","[-0.14258180754320326,0.026858816953534512]","[-1,-1,-1]","[0.000984004871799423,0.06156073865609481]","[1,1,1]","[-0.08589209745564534,0.16459151994016377]","[-1,-1,-1]","[-0.14693718838606032,0.13454626103064096]","[1,1,1]","[0.05875622133988254,0.1547488121261548]","[-1,-1,-1]","[-0.176739266052713,0.04832258810995399]","[1,1,1]","[0.0011192104266887384,-0.11558848174087663]","[1,1,1]","[0.18346037866417475,0.03679735986966829]","[1,1,1]","[-0.0774282867296174,-0.10732953001100776]","[-1,-1,-1]","[0.09857708639072485,0.029240314843196502]","[1,1,1]","[0.009341151836334669,0.13437587100151321]","[-1,-1,-1]","[-0.18526033300796066,-0.003333353763960761]","[-1,-1,-1]","[-0.12765116114169456,0.07581618372830812]","[-1,-1,-1]","[0.045486921732196504,0.1098619226789955]","[-1,-1,-1]","[0.14093852228041662,-0.07255207303641897]","[-1,-1,-1]","[0.09265708376457582,0.11586292663052987]","[1,1,1]","[0.0831352280897848,-0.1297266599375785]","[1,1,1]","[-0.13558852433863358,-0.06810484122244553]","[1,1,1]","[-0.07513288199050094,0.06632477575155697]","[1,1,1]","[-0.10783800322821822,-0.15962092353320284]","[-1,-1,-1]","[-0.03451406511175666,-0.19058828336575875]","[-1,-1,-1]","[0.10666737485608116,-0.03622958282434112]","[1,1,1]","[-0.10284208628262423,0.001405550226820458]","[1,1,1]","[0.1639223472977017,0.11050936236784582]","[1,1,1]","[-0.02985280552942604,0.1523294981099936]","[-1,-1,-1]","[-0.07871995679978357,-0.06441224978787768]","[1,1,1]","[0.003840573162722035,-0.0606443829352714]","[1,1,1]","[0.05012537614659851,-0.02987120976401614]","[1,1,1]","[-0.05521554626647624,0.1118480121610952]","[-1,-1,-1]","[-0.00408374547237862,-0.008981801324086559]","[1,1,1]","[0.10025722946556477,-0.09021493848104668]","[1,1,1]","[0.02,0.02]",158.1669,0,38,38,152,1,,,,,,,
,,,,,,,611902d49efe216a416d97dc,682db412dc2de648f9f7acaf,2025-05-21_13h25.25.726,cuing_paradigm_dot,2024.1.5,Win32,30.48780488,682d556593cb38ad0a074487,,,,,,,,,,,158.1678,158.6564,,,158.9053,159.6426,right,0.711,,,,,,,,,0.6,,,,,,158.6564,158.905,159.6428,"[-0.03185852650402181,0.12148704246362473]","[1,1,1]","[0.03707639031762832,-0.05757758840760093]","[-1,-1,-1]","[-0.18025934521889408,0.05497516375774578]","[1,1,1]","[0.03370569565791928,0.05282140569779383]","[1,1,1]","[-0.14203563482700532,0.01491101942292674]","[1,1,1]","[0.05996038385068263,-0.09521949059914589]","[1,1,1]","[0.07921212070418192,-0.17087848341736547]","[-1,-1,-1]","[-0.07207645745742078,0.09971615467939857]","[1,1,1]","[0.1686016734079148,0.015904103610876956]","[-1,-1,-1]","[-0.09192492421468107,0.05205161990058575]","[1,1,1]","[0.09090117210428184,0.08510326760870968]","[1,1,1]","[-0.09274848138581339,-0.03721992306711408]","[-1,-1,-1]","[0.07600294663518366,0.009699887817794751]","[-1,-1,-1]","[0.055871155203433394,0.15918287117217386]","[1,1,1]","[-0.1817389644962861,-0.04813518070277409]","[1,1,1]","[0.1536821455290943,-0.09398381336218208]","[1,1,1]","[-0.019791824639695026,0.06427788742469302]","[-1,-1,-1]","[-0.02961463740607953,-0.018098775571182616]","[1,1,1]","[0.013975759128769758,0.01297629221528102]","[-1,-1,-1]","[0.15161646605362927,-0.02414552650650106]","[-1,-1,-1]","[0.09688918797787563,-0.05835352903289691]","[1,1,1]","[0.18115316351603072,-0.05373534960784107]","[1,1,1]","[0.007827603481461791,-0.08800297768732708]","[-1,-1,-1]","[0.09910562033591748,0.14835646935002783]","[1,1,1]","[-0.13178843489584371,-0.08640082124598501]","[-1,-1,-1]","[-0.02061185779020771,-0.1453782135352951]","[1,1,1]","[-0.03466429720955121,-0.06894477907749012]","[1,1,1]","[-0.03632627952591097,0.17748199548542748]","[1,1,1]","[-0.1390447864223973,0.13169286164986388]","[-1,-1,-1]","[-0.13446002532844714,-0.03983596471433234]","[-1,-1,-1]","[-0.04788891562030318,0.033538055669322914]","[1,1,1]","[-0.022755747396165656,-0.1855833139698132]","[-1,-1,-1]","[0.02,0.02]",160.737,0,39,39,169,1,,,,,,,
,,,,,,,611902d49efe216a416d97dc,682db412dc2de648f9f7acaf,2025-05-21_13h25.25.726,cuing_paradigm_dot,2024.1.5,Win32,30.48780488,682d556593cb38ad0a074487,,,,,,,,,,,160.7379,161.2358,,,161.487,162.0221,left,0.5171,,,,,,,,,0.5,,,,,,161.2359,161.4869,162.0222,"[0.012942864058379945,0.04762844582751159]","[1,1,1]","[0.037590486031662575,0.1737069039499924]","[-1,-1,-1]","[0.006936183822483452,-0.16427389103911516]","[-1,-1,-1]","[-0.09447625079814187,0.04824234504660437]","[-1,-1,-1]","[-0.17894288563043695,0.050524941090429674]","[1,1,1]","[-0.17457621933412162,0.008535119358438393]","[-1,-1,-1]","[-0.12572029568614357,0.15073281334049915]","[-1,-1,-1]","[0.005452638431680926,0.12065478328990366]","[-1,-1,-1]","[0.12798297959390267,-0.10142833750143593]","[1,1,1]","[-0.06305256844019273,0.1393791891926574]","[-1,-1,-1]","[0.12386594879101788,0.03566906517651615]","[-1,-1,-1]","[0.003178788941614579,-0.03311739044262287]","[-1,-1,-1]","[-0.13676262480483659,-0.05618082448591225]","[1,1,1]","[0.08328720736683369,0.025200651092763572]","[-1,-1,-1]","[-0.0998828139151957,-0.14246446420103015]","[1,1,1]","[0.05464438251811736,-0.02184934587379146]","[1,1,1]","[-0.15585500288270246,0.09085356795042152]","[1,1,1]","[-0.030076804787336466,-0.07006519878615636]","[1,1,1]","[0.12823095145400376,-0.14742265189624795]","[-1,-1,-1]","[0.07198068401371542,-0.0675429282018569]","[1,1,1]","[0.15522644832659566,-0.009659210243770647]","[1,1,1]","[0.15680159069208885,0.06173041155501576]","[-1,-1,-1]","[0.0870231795507888,0.07967689649293558]","[-1,-1,-1]","[0.1477840052518955,0.1302687078859527]","[-1,-1,-1]","[0.12101377014273741,-0.040167823500927874]","[1,1,1]","[0.17015528777540967,-0.08010457784972164]","[-1,-1,-1]","[-0.02986572779540987,0.17894446986030557]","[1,1,1]","[0.044542133745816816,0.10163256244944077]","[1,1,1]","[-0.04247018137389641,0.0544866081723484]","[1,1,1]","[-0.04519297070169218,0.0019118914880854395]","[1,1,1]","[0.11181784241106633,0.16310934189766915]","[1,1,1]","[-0.08207837616464114,-0.06651841317030448]","[-1,-1,-1]","[0.02,0.02]",163.1227,0,40,40,119,1,,,,,,,
,,,,,,,611902d49efe216a416d97dc,682db412dc2de648f9f7acaf,2025-05-21_13h25.25.726,cuing_paradigm_dot,2024.1.5,Win32,30.48780488,682d556593cb38ad0a074487,,,,,,,,,,,163.1234,163.6166,,,163.8565,165.0499,left,1.1696,,,,,,,,,0.4,,,,,,163.6166,163.8563,165.05,"[0.066276535678738,-0.02863654724881974]","[-1,-1,-1]","[-0.04735914445606466,0.17362796782041903]","[-1,-1,-1]","[0.06265739947029365,0.04337000258666226]","[1,1,1]","[-0.024875808678009845,-0.008189153253117124]","[1,1,1]","[-0.07622052036721884,0.05385439739633342]","[1,1,1]","[-0.023558035012986738,0.03934822298344205]","[1,1,1]","[-0.0016821678655564304,-0.08409575506811452]","[1,1,1]","[0.050292847939006007,-0.1839329094423422]","[-1,-1,-1]","[-0.1615182839204395,0.024629377918862574]","[-1,-1,-1]","[0.02336670633054326,0.18005467613020096]","[-1,-1,-1]","[0.02334517377646671,0.027989948624405098]","[-1,-1,-1]","[-0.03551811975319633,-0.18962314577680556]","[-1,-1,-1]","[0.026376812665429895,-0.13077694346496582]","[1,1,1]","[-0.15329067550660125,0.11584996248640383]","[-1,-1,-1]","[-0.14811980671668568,0.07165931144785745]","[-1,-1,-1]","[0.1660033459638771,-0.08316406947210579]","[1,1,1]","[-0.08588671775762169,-0.13634168649785555]","[1,1,1]","[0.10615902613489885,-0.10262635520474811]","[-1,-1,-1]","[-0.014177298409101032,-0.1482214072230548]","[-1,-1,-1]","[-0.11882600845053098,-0.08791429135950496]","[-1,-1,-1]","[0.12975692842792552,-0.049563763616302804]","[1,1,1]","[0.10965755702716853,0.028608170978696917]","[1,1,1]","[-0.06882689329466679,-0.09063474718758861]","[-1,-1,-1]","[-0.04070938148424472,0.1256510390166969]","[-1,-1,-1]","[-0.11437022822113944,0.003656877030110499]","[1,1,1]","[0.12164781708182336,-0.15090992542101597]","[-1,-1,-1]","[0.18071265111170873,-0.004010864440096333]","[1,1,1]","[0.19468479697209984,-0.04306806954645143]","[-1,-1,-1]","[0.007960948462320136,-0.19827242883812574]","[1,1,1]","[0.138011056108611,0.06789515413843691]","[-1,-1,-1]","[0.06012079165901552,-0.07345779250699797]","[-1,-1,-1]","[-0.06631046153035586,-0.03256047459145323]","[-1,-1,-1]","[0.02,0.02]",166.1395,0,41,41,50,1,,,,,,,
,,,,,,,611902d49efe216a416d97dc,682db412dc2de648f9f7acaf,2025-05-21_13h25.25.726,cuing_paradigm_dot,2024.1.5,Win32,30.48780488,682d556593cb38ad0a074487,,,,,,,,,,,166.1401,166.6401,,,166.89,167.5038,right,0.5906,,,,,,,,,0.9,,,,,,166.6402,166.8899,167.504,"[0.06150077579957912,0.06018876484017224]","[1,1,1]","[-0.05552612226691185,-0.008548875142036932]","[1,1,1]","[-0.007834252231046546,0.05783283405690154]","[1,1,1]","[0.025157790326454734,-0.19619821016279737]","[1,1,1]","[-0.021928158420146213,-0.14442354706654795]","[1,1,1]","[0.1357027801288477,-0.02930042286310866]","[1,1,1]","[-0.11223015471402516,-0.01660723367008743]","[-1,-1,-1]","[0.021059958804502104,0.16045638323233558]","[1,1,1]","[-0.025101085491178687,0.13654761888464353]","[-1,-1,-1]","[0.16871431372371562,0.021937155446155383]","[1,1,1]","[-0.05646156979324918,-0.17575744438944466]","[1,1,1]","[0.12393572847708852,0.032515714317786236]","[1,1,1]","[-0.18203939210664855,0.02591598951830797]","[1,1,1]","[0.1199617476559889,-0.13016077176250399]","[1,1,1]","[0.002203979127849581,-0.081640104681468]","[1,1,1]","[-0.1298322505178816,-0.14849811972612215]","[1,1,1]","[0.17686303324274888,0.0727362587382338]","[1,1,1]","[0.059851150839378496,0.016088335260395884]","[1,1,1]","[0.1036203010876537,0.0875484536540286]","[1,1,1]","[-0.13750796192200038,0.026480310412600416]","[1,1,1]","[-0.08524248857218568,-0.10598535001605541]","[1,1,1]","[0.03027240461913921,0.08753428041246575]","[1,1,1]","[-0.07032965374743896,0.13349687796096832]","[1,1,1]","[-0.1650822541334231,0.06550801066035772]","[1,1,1]","[-0.06340455727197362,-0.06787215390808259]","[1,1,1]","[-0.1360258371369547,-0.06230251197626674]","[1,1,1]","[-0.11604999537326678,0.1284407486050754]","[1,1,1]","[-0.08905271989380323,0.02651873880687179]","[1,1,1]","[-0.06415106399567579,0.07204821524254221]","[1,1,1]","[-0.023084540583624302,0.18039406469222383]","[-1,-1,-1]","[0.14914366003920712,-0.07388528278445781]","[1,1,1]","[0.09583406456232114,0.1580955419886413]","[1,1,1]","[0.02,0.02]",168.6093,0,42,42,182,1,,,,,,,
,,,,,,,611902d49efe216a416d97dc,682db412dc2de648f9f7acaf,2025-05-21_13h25.25.726,cuing_paradigm_dot,2024.1.5,Win32,30.48780488,682d556593cb38ad0a074487,,,,,,,,,,,168.6109,169.1018,,,169.3435,169.8567,right,0.4932,,,,,,,,,0.5,,,,,,169.1019,169.3435,169.857,"[-0.04298747994488536,0.01208490068601686]","[-1,-1,-1]","[-0.01899820119345954,-0.12584043773343775]","[-1,-1,-1]","[0.04953356220188623,0.09243662847955296]","[-1,-1,-1]","[0.0654386300608052,-0.13621364160092428]","[-1,-1,-1]","[-0.0769914703592103,-0.12957637312410714]","[-1,-1,-1]","[-0.15261175205557645,-0.09731201944693432]","[-1,-1,-1]","[0.004377931650035038,0.14774999868206784]","[-1,-1,-1]","[0.11287995593700768,-0.015398915548204436]","[1,1,1]","[-0.011309289050516386,-0.028008290627658465]","[-1,-1,-1]","[0.04897803387470747,0.1832813800959548]","[-1,-1,-1]","[0.14618274898312836,0.10590851737668552]","[-1,-1,-1]","[-0.11386053465116748,0.046414673432962184]","[1,1,1]","[-0.18350799848500465,-0.022843477905827497]","[1,1,1]","[0.1508885479602775,0.030346245978696146]","[1,1,1]","[0.11224159219799547,0.14395186304489394]","[1,1,1]","[-0.15350040879841684,0.10372640434465029]","[1,1,1]","[0.0991638932366391,-0.09216380804041174]","[1,1,1]","[-0.10060475443396025,-0.09576403771176531]","[-1,-1,-1]","[-0.05516701225144976,0.16258009598316425]","[-1,-1,-1]","[-0.025177181584628523,-0.1779520738672045]","[1,1,1]","[0.16393966966731313,-0.07583282214824603]","[-1,-1,-1]","[-0.0523946500025075,0.06679780392931513]","[1,1,1]","[-0.0266058051031815,-0.07986896802698285]","[1,1,1]","[0.01565325795556435,0.04745885833517976]","[1,1,1]","[0.02460580350882352,-0.0873820938229357]","[1,1,1]","[-0.10435849714836716,-0.1648122735305105]","[-1,-1,-1]","[0.18482761000969444,0.06316043357351109]","[1,1,1]","[-0.0445540380319073,0.10997954390206378]","[1,1,1]","[0.07479692910532568,0.1237749402301792]","[-1,-1,-1]","[0.010473911511704482,0.19593451915042134]","[1,1,1]","[0.08760054820713911,0.020775922570292746]","[1,1,1]","[-0.14540916575400759,-0.051203503249310896]","[-1,-1,-1]","[0.02,0.02]",170.9618,0,43,43,110,1,,,,,,,
,,,,,,,611902d49efe216a416d97dc,682db412dc2de648f9f7acaf,2025-05-21_13h25.25.726,cuing_paradigm_dot,2024.1.5,Win32,30.48780488,682d556593cb38ad0a074487,,,,,,,,,,,170.962,171.4562,,,171.6969,172.2817,left,0.5496,,,,,,,,,0.1,,,,,,171.4562,171.6965,172.2822,"[0.10612302656965777,0.079880139321773]","[-1,-1,-1]","[-0.014781405106037124,-0.05395177865336241]","[-1,-1,-1]","[0.023877011463208055,0.12097470575203242]","[-1,-1,-1]","[-0.12657503500497058,-0.03828048832221078]","[-1,-1,-1]","[0.18692081147089726,0.00033914186658040997]","[-1,-1,-1]","[0.048868941934611096,0.18913237348381273]","[1,1,1]","[0.06142304621256135,-0.17012644454471904]","[-1,-1,-1]","[0.054045397223917,-0.01251808420942062]","[1,1,1]","[-0.10223477059226617,0.0111455356931894]","[-1,-1,-1]","[0.13012295068379526,-0.06024237790197086]","[-1,-1,-1]","[0.1715535536667887,0.08135812533732954]","[1,1,1]","[-0.02892163948239724,-0.005118020514765114]","[-1,-1,-1]","[-0.1292659999322786,0.14072850153710337]","[-1,-1,-1]","[-0.17729562283633743,-0.08972169412890771]","[-1,-1,-1]","[0.06408478755065969,0.10288911852000353]","[-1,-1,-1]","[-0.10707482276691492,-0.10200354285102688]","[-1,-1,-1]","[-0.049574132247211446,0.09748814622671312]","[-1,-1,-1]","[-0.040401266570408434,-0.13015543818579142]","[-1,-1,-1]","[-0.0012798282088810776,-0.19287701398137264]","[-1,-1,-1]","[0.1681049501061558,-0.10428922600110199]","[-1,-1,-1]","[-0.16821654431915048,-0.0065870447949858985]","[-1,-1,-1]","[0.1129193999553966,-0.10665198993583204]","[-1,-1,-1]","[-0.10730397023403011,0.05590986854723743]","[-1,-1,-1]","[-0.15009641587932593,0.08524541548001882]","[-1,-1,-1]","[-0.19373441004491043,0.04692547932456224]","[-1,-1,-1]","[-0.06809120002691305,0.03214017004061256]","[-1,-1,-1]","[0.05420548346725169,-0.10529679641937392]","[-1,-1,-1]","[0.09105815402907497,0.020167616611632622]","[-1,-1,-1]","[-0.05097850972859363,-0.08951469473623436]","[-1,-1,-1]","[0.0072640677113596525,-0.1001125838618991]","[-1,-1,-1]","[-0.08387290993323336,0.15078155126763784]","[-1,-1,-1]","[0.1708895747808403,-0.05572658540409658]","[-1,-1,-1]","[0.02,0.02]",173.3858,0,44,44,19,1,,,,,,,
