right,left,explain.started,explain.stopped,key_resp_3.keys,key_resp_3.rt,key_resp_3.duration,participant,session,date,expName,psychopyVersion,OS,frameRate,study_id,explain_2.started,explain_2.stopped,key_resp_4.keys,key_resp_4.rt,key_resp_4.duration,explain_3.started,explain_3.stopped,key_resp_5.keys,key_resp_5.rt,key_resp_5.duration,fixation.started,fixation.stopped,practice.started,practice.stopped,response.started,response.stopped,key_resp.keys,key_resp.rt,key_resp.duration,feedback.started,feedback.stopped,trials_2.thisRepN,trials_2.thisTrialN,trials_2.thisN,trials_2.thisIndex,trials_2.ran,white_ratio,explain_4.started,explain_4.stopped,key_resp_6.keys,key_resp_6.rt,key_resp_6.duration,dotDisplay.started,dotDisplay.stopped,ITI.started,polygon_1.pos,polygon_1.color,polygon_2.pos,polygon_2.color,polygon_3.pos,polygon_3.color,polygon_4.pos,polygon_4.color,polygon_5.pos,polygon_5.color,polygon_6.pos,polygon_6.color,polygon_7.pos,polygon_7.color,polygon_8.pos,polygon_8.color,polygon_9.pos,polygon_9.color,polygon_10.pos,polygon_10.color,polygon_11.pos,polygon_11.color,polygon_12.pos,polygon_12.color,polygon_13.pos,polygon_13.color,polygon_14.pos,polygon_14.color,polygon_15.pos,polygon_15.color,polygon_16.pos,polygon_16.color,polygon_17.pos,polygon_17.color,polygon_18.pos,polygon_18.color,polygon_19.pos,polygon_19.color,polygon_20.pos,polygon_20.color,polygon_21.pos,polygon_21.color,polygon_22.pos,polygon_22.color,polygon_23.pos,polygon_23.color,polygon_24.pos,polygon_24.color,polygon_25.pos,polygon_25.color,polygon_26.pos,polygon_26.color,polygon_27.pos,polygon_27.color,polygon_28.pos,polygon_28.color,polygon_29.pos,polygon_29.color,polygon_30.pos,polygon_30.color,polygon_31.pos,polygon_31.color,polygon_32.pos,polygon_32.color,dot_size,ITI.stopped,trials.thisRepN,trials.thisTrialN,trials.thisN,trials.thisIndex,trials.ran,break_2.started,break_2.stopped,trials_3.thisRepN,trials_3.thisTrialN,trials_3.thisN,trials_3.thisIndex,trials_3.ran
subject chose black,subject chose white,0.0006,46.5453,space,31.5304,,6153fe02f96d83a510c3c92b,682f0fcd0f2dbc15cc257951,2025-05-22_13h52.18.053,cuing_paradigm_dot,2024.1.5,Win32,59.88023952,682d573fa47f1360d1451895,,,,,,,,,,,,,,,,,,,,,,,,,,,,,,,,,,,,,,,,,,,,,,,,,,,,,,,,,,,,,,,,,,,,,,,,,,,,,,,,,,,,,,,,,,,,,,,,,,,,,,,,,,,,,,,,,
,,,,,,,6153fe02f96d83a510c3c92b,682f0fcd0f2dbc15cc257951,2025-05-22_13h52.18.053,cuing_paradigm_dot,2024.1.5,Win32,59.88023952,682d573fa47f1360d1451895,46.546,87.4302,space,10.8717,,,,,,,,,,,,,,,,,,,,,,,,,,,,,,,,,,,,,,,,,,,,,,,,,,,,,,,,,,,,,,,,,,,,,,,,,,,,,,,,,,,,,,,,,,,,,,,,,,,,,,,,,,,,,
,,,,,,,6153fe02f96d83a510c3c92b,682f0fcd0f2dbc15cc257951,2025-05-22_13h52.18.053,cuing_paradigm_dot,2024.1.5,Win32,59.88023952,682d573fa47f1360d1451895,,,,,,87.4304,94.7896,space,4.3534,,,,,,,,,,,,,,,,,,,,,,,,,,,,,,,,,,,,,,,,,,,,,,,,,,,,,,,,,,,,,,,,,,,,,,,,,,,,,,,,,,,,,,,,,,,,,,,,,,,,,,,,
,,,,,,,6153fe02f96d83a510c3c92b,682f0fcd0f2dbc15cc257951,2025-05-22_13h52.18.053,cuing_paradigm_dot,2024.1.5,Win32,59.88023952,682d573fa47f1360d1451895,,,,,,,,,,,94.8372,95.3036,95.3039,95.5558,95.5561,96.3392,left,0.7279,,96.3395,97.4395,0,0,0,0,1,0.8,,,,,,,,,,,,,,,,,,,,,,,,,,,,,,,,,,,,,,,,,,,,,,,,,,,,,,,,,,,,,,,,,,,,,,,,,,,,,,,,,,,,,,
,,,,,,,6153fe02f96d83a510c3c92b,682f0fcd0f2dbc15cc257951,2025-05-22_13h52.18.053,cuing_paradigm_dot,2024.1.5,Win32,59.88023952,682d573fa47f1360d1451895,,,,,,,,,,,97.44,97.9402,97.9403,98.1839,98.1839,98.7246,right,0.5173,,98.7248,99.8249,0,1,1,1,1,0.2,,,,,,,,,,,,,,,,,,,,,,,,,,,,,,,,,,,,,,,,,,,,,,,,,,,,,,,,,,,,,,,,,,,,,,,,,,,,,,,,,,,,,,
,,,,,,,6153fe02f96d83a510c3c92b,682f0fcd0f2dbc15cc257951,2025-05-22_13h52.18.053,cuing_paradigm_dot,2024.1.5,Win32,59.88023952,682d573fa47f1360d1451895,,,,,,,,,,,,,,,,,,,,,,,,,,,,99.8255,104.8138,space,1.976,,,,,,,,,,,,,,,,,,,,,,,,,,,,,,,,,,,,,,,,,,,,,,,,,,,,,,,,,,,,,,,,,,,,,,,,,,,,,,,,,,
,,,,,,,6153fe02f96d83a510c3c92b,682f0fcd0f2dbc15cc257951,2025-05-22_13h52.18.053,cuing_paradigm_dot,2024.1.5,Win32,59.88023952,682d573fa47f1360d1451895,,,,,,,,,,,104.8346,105.3186,,,105.5587,106.1825,left,0.6015,,,,,,,,,0.55,,,,,,105.3202,105.5587,106.1842,"[-0.011669169481775897,0.04596382416327189]","[1,1,1]","[0.16361128060069574,-0.03059150652345488]","[1,1,1]","[-0.07914285532285112,0.1431274901740685]","[1,1,1]","[0.14083992439323342,-0.08130851679740059]","[1,1,1]","[-0.17209169387675144,0.06281818877437438]","[-1,-1,-1]","[-0.1350811386805583,-0.06189661362705895]","[-1,-1,-1]","[0.07273045526307886,-0.13706520039275344]","[-1,-1,-1]","[-0.00415065166983222,-0.1935966955052337]","[-1,-1,-1]","[0.1417313088589675,0.10787984539518383]","[1,1,1]","[-0.1343991456132171,-0.0025574392144067943]","[1,1,1]","[-0.15062771397534072,0.12915863395361799]","[1,1,1]","[0.03521686925758425,0.04526212055500137]","[1,1,1]","[-0.18616692540884996,-0.05714506857430279]","[1,1,1]","[0.054018352434244264,-0.07278706336383912]","[-1,-1,-1]","[-0.10569283698632394,-0.11038183214808883]","[1,1,1]","[0.10448638436708423,0.083982566364522]","[-1,-1,-1]","[0.053322771087321905,-0.024334587872379937]","[1,1,1]","[0.046691242742757266,0.10080914825297858]","[-1,-1,-1]","[0.04218552705058776,0.15757610460688948]","[1,1,1]","[-0.02737714599324941,-0.050502307784986565]","[-1,-1,-1]","[0.18385650480971263,0.050065497343351986]","[-1,-1,-1]","[-0.02044404255236224,0.1779465703606841]","[1,1,1]","[-0.08319080936013505,-0.17247559167530938]","[1,1,1]","[-0.10844403650285189,0.09553357042296871]","[-1,-1,-1]","[-0.064908211496071,0.016066625506518467]","[1,1,1]","[-0.009467844951562878,0.09851106190404724]","[-1,-1,-1]","[-0.16794131610494387,-0.0931072046436181]","[1,1,1]","[-0.11770020197823079,0.04961859058463572]","[1,1,1]","[0.004951760727266891,-0.011011566433960871]","[-1,-1,-1]","[0.11561134723338065,-0.16226384940648775]","[-1,-1,-1]","[0.11886786455612242,-0.03225782975202881]","[-1,-1,-1]","[-0.026064884908622077,-0.10532204821172948]","[1,1,1]","[0.02,0.02]",107.2826,0,0,0,143,1,,,,,,,
,,,,,,,6153fe02f96d83a510c3c92b,682f0fcd0f2dbc15cc257951,2025-05-22_13h52.18.053,cuing_paradigm_dot,2024.1.5,Win32,59.88023952,682d573fa47f1360d1451895,,,,,,,,,,,107.2832,107.7713,,,108.0109,108.4186,right,0.3884,,,,,,,,,0.4,,,,,,107.7714,108.0109,108.4186,"[0.14732033414770002,-0.04307215431249099]","[1,1,1]","[-0.005082059470924852,0.1735710008378958]","[-1,-1,-1]","[-0.0901098431906999,0.14846657174833824]","[1,1,1]","[0.0954863934204208,-0.17173504357842548]","[1,1,1]","[-0.02583643065248763,-0.004776372430261322]","[-1,-1,-1]","[-0.19518773172437923,0.0143155892547557]","[1,1,1]","[0.06439624699302066,0.1741621843428191]","[-1,-1,-1]","[0.010214868288539335,0.09037096462951545]","[-1,-1,-1]","[-0.02304048633901312,0.06705941465209776]","[1,1,1]","[-0.0005689164033837337,-0.06386327116436745]","[1,1,1]","[0.008212816266921285,-0.12868241634246186]","[-1,-1,-1]","[-0.08911112560340573,0.00021474992968014255]","[1,1,1]","[0.09534301666671569,-0.08829480553272981]","[-1,-1,-1]","[0.04496518679920838,-0.047093663741741544]","[1,1,1]","[0.12600421117381078,0.01691351079812209]","[-1,-1,-1]","[-0.03949324204961612,-0.135077515084067]","[1,1,1]","[0.02172497715656002,0.14257416297548484]","[-1,-1,-1]","[0.05983856414796053,0.038452447955968985]","[-1,-1,-1]","[-0.09032417404027604,-0.05251474344290237]","[-1,-1,-1]","[0.1773374848126689,0.05378244804116294]","[1,1,1]","[0.006091931242835121,0.030170945549003472]","[-1,-1,-1]","[-0.019970459376201486,-0.09933758751116002]","[-1,-1,-1]","[-0.17102494332956417,-0.017987950689642415]","[1,1,1]","[0.07258225195851786,-0.0040416770035229905]","[1,1,1]","[-0.09464562546411506,-0.14240507133960553]","[-1,-1,-1]","[-0.15519300254542456,-0.07568298768225515]","[-1,-1,-1]","[0.07139960510953003,0.10647954876621618]","[1,1,1]","[-0.06392962959859151,0.09598917914849645]","[-1,-1,-1]","[-0.07010161415209636,-0.10490675448889616]","[-1,-1,-1]","[-0.1469217626912847,0.07806366404049211]","[-1,-1,-1]","[0.12752673418464397,0.08077267412632001]","[-1,-1,-1]","[0.12996669644412331,-0.12355540890959234]","[-1,-1,-1]","[0.02,0.02]",109.5177,0,1,1,36,1,,,,,,,
,,,,,,,6153fe02f96d83a510c3c92b,682f0fcd0f2dbc15cc257951,2025-05-22_13h52.18.053,cuing_paradigm_dot,2024.1.5,Win32,59.88023952,682d573fa47f1360d1451895,,,,,,,,,,,109.5181,110.0182,,,110.2602,110.7376,left,0.4576,,,,,,,,,0.45,,,,,,110.0182,110.2602,110.7378,"[0.16552397896017212,-0.07612265173428558]","[1,1,1]","[0.01371484483799401,-0.13566130731153767]","[1,1,1]","[-0.13011261399590585,0.06383310624266944]","[-1,-1,-1]","[0.056938899481977445,-0.03090957149064534]","[-1,-1,-1]","[-0.08408554152398867,0.16318666708377638]","[1,1,1]","[-0.16867938291913256,-0.06168851257847136]","[1,1,1]","[0.05359515514441985,-0.1715236900716273]","[-1,-1,-1]","[0.17120582896491998,0.07677151710826806]","[-1,-1,-1]","[-0.10070179797318246,-0.06371143584557461]","[-1,-1,-1]","[-0.17043659529441627,0.021157013948712146]","[1,1,1]","[-0.028011258236702526,0.12249999316956788]","[-1,-1,-1]","[-0.1452182090071134,-0.11512814548365496]","[1,1,1]","[0.16464267337033356,0.009400230662807037]","[-1,-1,-1]","[-0.011324120409665347,0.026480972743620507]","[-1,-1,-1]","[0.05923180602964325,0.15888630689893274]","[-1,-1,-1]","[-0.05383543965131774,0.0855319539213144]","[1,1,1]","[-0.08511137375233235,-0.13726280075846958]","[-1,-1,-1]","[0.12092665483367879,0.0035161591146620815]","[-1,-1,-1]","[-0.006635465548469556,-0.07682784125676662]","[1,1,1]","[-0.08267267085857977,0.018022335064101776]","[1,1,1]","[0.12857187674150836,0.07794874430891649]","[-1,-1,-1]","[0.11613514863416453,-0.0672764848090214]","[-1,-1,-1]","[-0.04462497669401712,-0.1328377056817376]","[-1,-1,-1]","[0.12292660085117398,-0.14701965175402448]","[-1,-1,-1]","[0.09270507231139861,-0.11695089175471728]","[-1,-1,-1]","[0.03702764875550153,0.12037747608855717]","[1,1,1]","[0.19401964890654702,-0.04191416325438335]","[1,1,1]","[-0.030639226540775274,-0.18915989375492637]","[-1,-1,-1]","[0.10987852482654464,0.16479038368544507]","[1,1,1]","[0.01592821762470463,-0.014027171941904547]","[1,1,1]","[0.042179061636478735,0.05163070757040504]","[1,1,1]","[-0.134307416075215,-0.041062241679590966]","[-1,-1,-1]","[0.02,0.02]",111.8369,0,2,2,81,1,,,,,,,
,,,,,,,6153fe02f96d83a510c3c92b,682f0fcd0f2dbc15cc257951,2025-05-22_13h52.18.053,cuing_paradigm_dot,2024.1.5,Win32,59.88023952,682d573fa47f1360d1451895,,,,,,,,,,,111.8374,112.3375,,,112.5821,112.8391,right,0.237,,,,,,,,,0.4,,,,,,112.3375,112.582,112.8392,"[0.09009139133361986,-0.09715557095082075]","[-1,-1,-1]","[-0.08267785254912838,0.051856922852589096]","[-1,-1,-1]","[0.0895858250768762,0.07999333122421828]","[1,1,1]","[-0.12763394558026736,-0.14550981377650493]","[1,1,1]","[0.005479104380085449,-0.1250754774748549]","[1,1,1]","[-0.030028701869169415,-0.15635133164331802]","[-1,-1,-1]","[-0.14128491776635552,0.040676126625392196]","[-1,-1,-1]","[0.05667458848293303,0.04267297467777788]","[-1,-1,-1]","[-0.0025511732311961624,0.05036658846340876]","[-1,-1,-1]","[-0.07702063441748418,-0.0993723554490578]","[1,1,1]","[-0.056098478739815036,0.11461265641969597]","[-1,-1,-1]","[0.09562048738905198,0.14563838848571928]","[-1,-1,-1]","[-0.04235890654688664,0.007485760686376123]","[-1,-1,-1]","[0.10304981366058438,-0.14761298042744417]","[1,1,1]","[0.021119948904898943,0.11479431137095251]","[-1,-1,-1]","[0.000664983327739112,0.14917432745503695]","[-1,-1,-1]","[0.13730210282037672,0.00961768631368475]","[1,1,1]","[-0.03971320000310622,0.17866754475135818]","[-1,-1,-1]","[0.17810801390531278,0.0662190208683522]","[1,1,1]","[-0.11097117481002985,-0.01754357874939488]","[-1,-1,-1]","[0.1798140507152658,-0.055164005173331504]","[-1,-1,-1]","[0.07921668620626289,-0.01834626129176187]","[-1,-1,-1]","[-0.09778747785329421,0.1486556858965108]","[1,1,1]","[-0.16595869534408395,0.07481086873718647]","[1,1,1]","[-0.09893864579896726,0.09012443051869345]","[-1,-1,-1]","[0.05658966047509784,0.18833277094128323]","[1,1,1]","[0.03904311208382983,-0.057801002365878026]","[-1,-1,-1]","[0.05301546624734475,-0.11232814782063753]","[1,1,1]","[0.13579748515716764,-0.05211942540858598]","[-1,-1,-1]","[0.010205219723124574,-0.006908105464228423]","[1,1,1]","[-0.05248730428993935,-0.049100644838153344]","[-1,-1,-1]","[-0.17241182587730314,-0.05545961558713067]","[1,1,1]","[0.02,0.02]",113.939,0,3,3,49,1,,,,,,,
,,,,,,,6153fe02f96d83a510c3c92b,682f0fcd0f2dbc15cc257951,2025-05-22_13h52.18.053,cuing_paradigm_dot,2024.1.5,Win32,59.88023952,682d573fa47f1360d1451895,,,,,,,,,,,113.9397,114.4394,,,114.6848,115.0092,left,0.3025,,,,,,,,,0.6,,,,,,114.4394,114.6848,115.0098,"[0.08257676319308861,0.002666538523966672]","[-1,-1,-1]","[-0.0889000342662393,-0.12992858834699328]","[1,1,1]","[-0.12758975846999385,0.06987338082506357]","[1,1,1]","[0.07340070115264617,-0.049943083814895]","[1,1,1]","[0.005859408222187339,-0.19359520993733528]","[-1,-1,-1]","[0.06927445464777726,0.12009720831999023]","[-1,-1,-1]","[-0.05710601094346226,-0.17479046179542904]","[1,1,1]","[0.15398208420174153,-0.11372948039331435]","[1,1,1]","[-0.018753066045065075,-0.1239470767869926]","[1,1,1]","[0.053386268276876626,0.06252692610859738]","[1,1,1]","[-0.11265734213652327,-0.09093653388384401]","[-1,-1,-1]","[0.07810264795259172,0.17258765186318328]","[1,1,1]","[0.057607251140439165,-0.12816150078050326]","[-1,-1,-1]","[-0.08908380375002882,0.05679468703218374]","[1,1,1]","[0.0302746867127817,0.003313342297782711]","[-1,-1,-1]","[0.1544492294322349,0.037594570679884226]","[1,1,1]","[0.09571527058399189,0.07776645698880336]","[1,1,1]","[-0.050130284433296146,0.0385411242660152]","[1,1,1]","[-0.049295188997363085,-0.08500414317864245]","[1,1,1]","[0.014317654686824485,0.09682036969377475]","[-1,-1,-1]","[-0.039105087865354334,0.1358045841289488]","[-1,-1,-1]","[0.029479748766611594,0.1557927080732766]","[-1,-1,-1]","[0.18626633503768383,-0.046897018596542744]","[1,1,1]","[0.08266968350631478,-0.16114180998976677]","[-1,-1,-1]","[-0.1991421742737998,-0.009019743852666474]","[1,1,1]","[0.14394485064061727,0.12005515757689243]","[1,1,1]","[0.005718064436704022,-0.0905194565342209]","[-1,-1,-1]","[-0.027033524793936753,0.0904056534774755]","[1,1,1]","[-0.155790655300379,-0.023315037946367526]","[-1,-1,-1]","[0.013764480869181988,0.03975612994176923]","[1,1,1]","[0.11393573973169738,0.028519099700767547]","[-1,-1,-1]","[-0.06758050761449684,-0.006385659761583782]","[1,1,1]","[0.02,0.02]",116.1079,0,4,4,170,1,,,,,,,
,,,,,,,6153fe02f96d83a510c3c92b,682f0fcd0f2dbc15cc257951,2025-05-22_13h52.18.053,cuing_paradigm_dot,2024.1.5,Win32,59.88023952,682d573fa47f1360d1451895,,,,,,,,,,,116.1088,116.6084,,,116.8482,117.0823,right,0.2121,,,,,,,,,0.1,,,,,,116.6084,116.8481,117.0825,"[-0.03479126432609612,0.17117919789486613]","[-1,-1,-1]","[0.0771920020746682,-0.010071524669058718]","[-1,-1,-1]","[-0.13180799471327004,0.0556881429847285]","[-1,-1,-1]","[-0.0233944054863915,0.1320144167796324]","[-1,-1,-1]","[-0.005276806436167423,0.06692737368459752]","[-1,-1,-1]","[0.1570634994299074,-0.1227702850591517]","[1,1,1]","[-0.09406148181741275,0.09098138531521974]","[1,1,1]","[0.051635832358493006,0.07183799577386112]","[-1,-1,-1]","[-0.019136947013143196,-0.02866269989708642]","[-1,-1,-1]","[-0.13108625966728876,-0.026471076155818934]","[-1,-1,-1]","[0.1753873211806665,0.07855479091018977]","[-1,-1,-1]","[0.02310332007932536,-0.08459138321376442]","[-1,-1,-1]","[0.11576937707636567,-0.15933080083400192]","[-1,-1,-1]","[-0.143452102361358,0.10247546090352574]","[-1,-1,-1]","[0.13193559309999123,-0.059630349562215926]","[-1,-1,-1]","[0.08934465695126154,0.05734610455835485]","[-1,-1,-1]","[0.13190383267397024,-0.0187850332333525]","[-1,-1,-1]","[0.010821889343816032,-0.1986753228444337]","[-1,-1,-1]","[-0.13803072708572964,-0.06877737923214128]","[-1,-1,-1]","[0.171770029683503,-0.08408969725453135]","[1,1,1]","[-0.03539209948463069,0.02624016673459976]","[-1,-1,-1]","[-0.1708192493029382,-0.011515194413850847]","[-1,-1,-1]","[0.06114247320874234,-0.14650583356152855]","[-1,-1,-1]","[0.09050773599369595,-0.05217648969419127]","[-1,-1,-1]","[0.08793514323991479,0.16024903114885378]","[-1,-1,-1]","[0.0313704512570337,-0.010298432686414644]","[-1,-1,-1]","[0.0019419994870664872,-0.13967623984664004]","[-1,-1,-1]","[-0.08194039163913226,-0.047843257038977315]","[-1,-1,-1]","[0.07352578664319245,-0.09066529724622961]","[-1,-1,-1]","[0.012532608019192147,0.17938171163060435]","[-1,-1,-1]","[-0.11268752120716481,-0.15261984211101215]","[-1,-1,-1]","[-0.04137511652610683,-0.12168149146646362]","[-1,-1,-1]","[0.02,0.02]",118.1813,0,5,5,10,1,,,,,,,
,,,,,,,6153fe02f96d83a510c3c92b,682f0fcd0f2dbc15cc257951,2025-05-22_13h52.18.053,cuing_paradigm_dot,2024.1.5,Win32,59.88023952,682d573fa47f1360d1451895,,,,,,,,,,,118.1819,118.6769,,,118.9361,119.4123,right,0.4523,,,,,,,,,0.4,,,,,,118.677,118.936,119.4125,"[-0.019328392143375384,-0.11712013937267625]","[1,1,1]","[-0.12699080679401367,-0.028278675389998863]","[-1,-1,-1]","[-0.08957882893487579,0.08680948224000568]","[-1,-1,-1]","[-0.016658954908838525,-0.18833031891913157]","[-1,-1,-1]","[-0.18340710298291618,0.055456546224026876]","[-1,-1,-1]","[-0.02882149451940212,0.09406863980063256]","[-1,-1,-1]","[-0.050726237362287825,0.13387161784181056]","[1,1,1]","[0.01941539438554323,0.13766627205609627]","[1,1,1]","[-0.1291841879722209,0.12927116854452128]","[1,1,1]","[-0.09832765322755604,0.04371273843602796]","[-1,-1,-1]","[0.05671138211318127,-0.12170774320878511]","[1,1,1]","[-0.17893991661197756,-0.031927912120211815]","[-1,-1,-1]","[-0.001878923550975413,-0.07464084779181476]","[1,1,1]","[-0.08100622923311208,-0.15516157284888177]","[-1,-1,-1]","[0.02211006553246257,0.03959687420351107]","[-1,-1,-1]","[0.12514206624051075,0.057105354455891]","[1,1,1]","[0.15979620439551226,-0.0436763291274866]","[1,1,1]","[-0.021221532322319187,-0.01183100294660517]","[-1,-1,-1]","[0.09722297770330947,-0.08529965847194616]","[-1,-1,-1]","[0.06447806770185205,0.058021193734992246]","[1,1,1]","[-0.15655286864908236,-0.09133302294175365]","[1,1,1]","[-0.033318717895349216,0.17934148284991613]","[-1,-1,-1]","[0.04599166872684692,-0.18165381847580592]","[1,1,1]","[0.09446642026339094,0.09879632342134616]","[-1,-1,-1]","[0.05675805657320667,-0.07352512207088435]","[-1,-1,-1]","[0.06938913877822778,0.18597979667285605]","[-1,-1,-1]","[0.030171836986695344,0.19404744697709708]","[-1,-1,-1]","[0.0185870982273087,-0.028999579555120458]","[-1,-1,-1]","[0.0890619638344581,0.01698572076237419]","[-1,-1,-1]","[-0.019496717786783243,0.03108524709296153]","[1,1,1]","[0.13945582032716816,-0.11126421038524814]","[1,1,1]","[-0.1548778910409299,0.011389160573758576]","[-1,-1,-1]","[0.02,0.02]",120.5043,0,6,6,56,1,,,,,,,
,,,,,,,6153fe02f96d83a510c3c92b,682f0fcd0f2dbc15cc257951,2025-05-22_13h52.18.053,cuing_paradigm_dot,2024.1.5,Win32,59.88023952,682d573fa47f1360d1451895,,,,,,,,,,,120.5048,120.9962,,,121.2351,121.5978,left,0.3381,,,,,,,,,0.5,,,,,,120.9962,121.235,121.5979,"[0.1652117599771562,0.009258256823438808]","[1,1,1]","[-0.0017975380740564686,-0.17165847247987176]","[-1,-1,-1]","[0.05030349976317932,0.11985710985876663]","[-1,-1,-1]","[0.053599211529252774,0.044790308538303264]","[-1,-1,-1]","[-0.15089437071238881,0.08987211579985543]","[1,1,1]","[-0.14157203587315692,-0.11861732276386966]","[-1,-1,-1]","[-0.11160973801367746,0.03416773536816345]","[1,1,1]","[0.04621967283649971,-0.0031586589753441943]","[1,1,1]","[-0.1104063289962705,0.13594764971415577]","[-1,-1,-1]","[-0.009575832829873867,-0.0123833847163645]","[1,1,1]","[-0.04973873453821836,0.10908710528412428]","[-1,-1,-1]","[-0.06526418784605507,0.1771069667993454]","[1,1,1]","[0.18383982395096118,0.07310115559978896]","[1,1,1]","[0.008515914570973913,-0.09258382637155917]","[1,1,1]","[0.049874738186476114,-0.04740099761936009]","[1,1,1]","[0.10403563443347699,0.05642264178145335]","[-1,-1,-1]","[-0.06889841103649498,-0.1610291794990052]","[1,1,1]","[-0.10254857666181252,-0.10242356206116238]","[-1,-1,-1]","[-0.05525466476017105,0.0647107466615782]","[-1,-1,-1]","[0.12449133548474826,-0.05961186008049574]","[1,1,1]","[0.06310161114725957,0.18658829653411196]","[1,1,1]","[0.09407261592560093,0.007413405723257087]","[-1,-1,-1]","[-0.10661427373628879,-0.04650875914376954]","[1,1,1]","[0.06147305483987017,-0.09592744580084465]","[-1,-1,-1]","[0.13351220486201884,-0.1312853534976964]","[-1,-1,-1]","[-0.1728618689827484,-0.01747876563437888]","[-1,-1,-1]","[0.1613594323726357,-0.09785677697809776]","[-1,-1,-1]","[0.045399028752050145,-0.1524748773007562]","[1,1,1]","[-0.05558228391758063,-0.11268234979035899]","[1,1,1]","[0.0829288375010378,-0.1734827908701953]","[1,1,1]","[0.13080062321583477,0.10093199260497679]","[-1,-1,-1]","[0.028964103787230494,0.15666877407114815]","[-1,-1,-1]","[0.02,0.02]",122.6979,0,7,7,96,1,,,,,,,
,,,,,,,6153fe02f96d83a510c3c92b,682f0fcd0f2dbc15cc257951,2025-05-22_13h52.18.053,cuing_paradigm_dot,2024.1.5,Win32,59.88023952,682d573fa47f1360d1451895,,,,,,,,,,,122.6985,123.1987,,,123.4497,123.826,right,0.3639,,,,,,,,,0.4,,,,,,123.1988,123.4496,123.826,"[-0.0021083804996651885,0.07450866600892393]","[-1,-1,-1]","[0.1663881686450479,-0.07711343537234176]","[1,1,1]","[0.09912964349290788,-0.020386780874150225]","[-1,-1,-1]","[-0.10720866803400898,0.011484828748919788]","[-1,-1,-1]","[-0.037264223919250994,0.1280412917659484]","[1,1,1]","[-0.11970084974789669,-0.12354372518065679]","[-1,-1,-1]","[0.04376279211572246,-0.16566324157099763]","[-1,-1,-1]","[0.12001314108150457,0.06847352758346027]","[-1,-1,-1]","[-0.08998617461484325,0.15312450770674743]","[1,1,1]","[0.010134592643655954,0.03573353132183741]","[-1,-1,-1]","[-0.06931200444138946,-0.17706048537337862]","[-1,-1,-1]","[-0.09575101749332085,-0.08296177197601387]","[1,1,1]","[-0.1778510290881956,-0.025661223109552447]","[1,1,1]","[0.057107077399954076,-0.0943908754715482]","[1,1,1]","[0.023718611706603897,-0.04501555446078319]","[-1,-1,-1]","[-0.057268216960101995,-0.12850541307162888]","[1,1,1]","[-0.011227431524292517,-0.12832249601530518]","[-1,-1,-1]","[0.17235675975864848,0.028355427620366472]","[1,1,1]","[0.020152539303947406,0.18553233590045512]","[-1,-1,-1]","[-0.18108960145343547,0.042454595718044434]","[1,1,1]","[0.058476982917433744,0.11942420199252561]","[-1,-1,-1]","[-0.15119397571604892,-0.0846341110210812]","[1,1,1]","[0.0702266472476119,0.05452456991505985]","[-1,-1,-1]","[-0.12821227762487558,0.08059758730774798]","[-1,-1,-1]","[-0.029582056520042185,0.008076415340900273]","[-1,-1,-1]","[0.10180049002732226,0.1440647631608959]","[1,1,1]","[0.09856608445928437,-0.12641261649747665]","[1,1,1]","[-0.04252417196529539,0.17292379503099015]","[-1,-1,-1]","[0.1782946640977328,0.08486120680301219]","[1,1,1]","[0.06620390264127461,0.1670286689773389]","[-1,-1,-1]","[-0.023367213607325358,-0.05762015341974101]","[-1,-1,-1]","[0.13997073938531096,-0.12101144596632259]","[-1,-1,-1]","[0.02,0.02]",124.9164,0,8,8,46,1,,,,,,,
,,,,,,,6153fe02f96d83a510c3c92b,682f0fcd0f2dbc15cc257951,2025-05-22_13h52.18.053,cuing_paradigm_dot,2024.1.5,Win32,59.88023952,682d573fa47f1360d1451895,,,,,,,,,,,124.9168,125.4176,,,125.6777,126.085,left,0.3843,,,,,,,,,0.6,,,,,,125.4178,125.6776,126.085,"[0.02727818414309795,-0.03564689837107235]","[1,1,1]","[-0.10828956809538187,-0.05108788883019133]","[1,1,1]","[-0.11357086525332054,0.16014012672416242]","[1,1,1]","[0.12287816219435906,-0.021036143640531992]","[-1,-1,-1]","[0.029150309345204618,0.14445969840459458]","[1,1,1]","[0.15629637809535793,0.004408746869716465]","[-1,-1,-1]","[0.07546003080681837,-0.03097530440730368]","[1,1,1]","[0.09935209858200926,-0.17021892048621864]","[1,1,1]","[0.09316980459774131,-0.08159535332471188]","[1,1,1]","[-0.11454035348761002,0.08027094203360256]","[1,1,1]","[0.06932041661582698,0.17288108260886045]","[-1,-1,-1]","[-0.17914444590834624,0.031157274159955083]","[1,1,1]","[-0.06650909193015943,0.11821328828508687]","[1,1,1]","[0.032562520256970234,-0.09613749762883779]","[-1,-1,-1]","[0.11422581690093254,0.04607294253067096]","[1,1,1]","[-0.11038806948209444,-0.09325811206642466]","[1,1,1]","[-0.042168503915267115,0.15905876201517097]","[-1,-1,-1]","[-0.005067189025476836,0.030759547844052357]","[-1,-1,-1]","[0.12936019552597683,0.12210379932557584]","[-1,-1,-1]","[-0.1232563227799595,-0.14856357257960146]","[1,1,1]","[-0.03658192530043258,-0.1680507782141759]","[-1,-1,-1]","[-0.06940479702259246,-0.10059049527017346]","[1,1,1]","[0.042191923787388334,0.08815793194149942]","[1,1,1]","[-0.05743340578570282,0.0021217123062192743]","[-1,-1,-1]","[0.12334966260770257,-0.13512193128612612]","[1,1,1]","[-0.11350460383925354,0.032795841706598085]","[1,1,1]","[0.1902939602953985,-0.04008425811673266]","[-1,-1,-1]","[-0.01286532047386682,-0.09114511512801667]","[1,1,1]","[0.0058171921078421715,-0.17363203802668817]","[-1,-1,-1]","[-0.1503304827944642,0.12210329712561765]","[-1,-1,-1]","[-0.1515010510014581,-0.06592468660760667]","[1,1,1]","[-0.04603951972132712,-0.06741188695546942]","[-1,-1,-1]","[0.02,0.02]",127.1898,0,9,9,168,1,,,,,,,
,,,,,,,6153fe02f96d83a510c3c92b,682f0fcd0f2dbc15cc257951,2025-05-22_13h52.18.053,cuing_paradigm_dot,2024.1.5,Win32,59.88023952,682d573fa47f1360d1451895,,,,,,,,,,,127.1904,127.6866,,,127.9412,128.0873,right,0.1234,,,,,,,,,0.45,,,,,,127.6871,127.9411,128.0873,"[0.006224795636448645,-0.05378300368561813]","[1,1,1]","[-0.05844331077401799,0.10673003827284104]","[-1,-1,-1]","[0.12628148091132022,-0.14189574666897492]","[-1,-1,-1]","[0.10835396335604022,-0.07529904692753348]","[-1,-1,-1]","[0.0947046749418729,0.17527096043892476]","[1,1,1]","[-0.05981909011475949,0.14926845823385906]","[-1,-1,-1]","[0.0695119111424763,0.09054166050600097]","[-1,-1,-1]","[0.04106909079922988,0.16085453883791342]","[1,1,1]","[-0.07178537012241404,-0.07537092360511745]","[-1,-1,-1]","[-0.031111995135492804,-0.0027210475573740955]","[-1,-1,-1]","[0.01811490655691502,0.06452059610006168]","[-1,-1,-1]","[-0.1258133029208754,0.1475630600427325]","[1,1,1]","[0.04751732762767212,-0.1739646518413558]","[1,1,1]","[0.008753546344133728,-0.1389442913705313]","[1,1,1]","[0.06223155145416194,-0.014049109531266295]","[1,1,1]","[-0.10039463024112816,0.06403577518626703]","[-1,-1,-1]","[0.1861940993069714,-0.03680768513144865]","[-1,-1,-1]","[0.008861780119788052,0.198047704974734]","[1,1,1]","[-0.13153432908480545,-0.04489855518185338]","[-1,-1,-1]","[0.11352858961262866,-0.029736597361975915]","[-1,-1,-1]","[-0.17834776308648048,0.08998606295300758]","[1,1,1]","[-0.07615939075765969,-0.02387245697067885]","[-1,-1,-1]","[-0.1934294278027584,0.04478643708536354]","[1,1,1]","[0.15020398603994495,0.11691680889201736]","[-1,-1,-1]","[0.06009432540856119,0.039232509934367735]","[1,1,1]","[0.06316510337514361,-0.062204845218714166]","[-1,-1,-1]","[-0.037789502687265664,-0.051539316298817875]","[-1,-1,-1]","[-0.07207948177072648,-0.16845848843352507]","[1,1,1]","[-0.03532498000003775,0.053570807071465755]","[1,1,1]","[0.031243392185301755,0.10385619594473121]","[-1,-1,-1]","[0.16361212293599625,0.01575405756509551]","[1,1,1]","[-0.14928330946460333,-0.12448696228275632]","[-1,-1,-1]","[0.02,0.02]",129.1874,0,10,10,61,1,,,,,,,
,,,,,,,6153fe02f96d83a510c3c92b,682f0fcd0f2dbc15cc257951,2025-05-22_13h52.18.053,cuing_paradigm_dot,2024.1.5,Win32,59.88023952,682d573fa47f1360d1451895,,,,,,,,,,,129.1879,129.6882,,,129.9387,130.3727,left,0.4159,,,,,,,,,0.55,,,,,,129.6883,129.9387,130.3728,"[0.03211651681840303,-0.007971859032767897]","[-1,-1,-1]","[-0.06802403000871207,0.13777908830978483]","[-1,-1,-1]","[0.11518559505011416,-0.045316805285626136]","[1,1,1]","[0.08821957396699832,0.10110308251496793]","[1,1,1]","[0.1714789373044013,0.02882288017915541]","[-1,-1,-1]","[0.08186560842819561,-0.018998632796568382]","[-1,-1,-1]","[0.0025310566685358823,0.07268807419878885]","[1,1,1]","[0.03720100199675575,-0.09175981050385953]","[1,1,1]","[0.011189989029201469,-0.18055990265604377]","[-1,-1,-1]","[0.12838793596790835,0.1472731423201323]","[-1,-1,-1]","[-0.10267246332289226,0.06491494923978738]","[-1,-1,-1]","[-0.10370431051304857,0.11725221870832844]","[1,1,1]","[0.04813140839001975,0.07045585071476793]","[1,1,1]","[-0.18265053154504557,-0.01470296616619577]","[1,1,1]","[-0.06059292059165865,-0.11973326063173982]","[1,1,1]","[-0.09996578069286549,-0.05942965413416973]","[-1,-1,-1]","[-0.1503483451970352,0.10792947947361557]","[-1,-1,-1]","[-0.07088787217683742,-0.012378268170095897]","[1,1,1]","[-0.05877838612807374,0.09114564242834548]","[1,1,1]","[0.054794964158582864,-0.178255583882792]","[1,1,1]","[-0.14853604012966165,0.010079434130744915]","[-1,-1,-1]","[-0.017802166771600493,-0.08706886937770854]","[-1,-1,-1]","[0.17087814954551023,-0.038564782474853225]","[-1,-1,-1]","[0.003044860494660808,0.02178181961193659]","[1,1,1]","[0.108554385054199,0.04415364479416599]","[1,1,1]","[-0.04573307910930493,0.05204133952537224]","[1,1,1]","[-0.10839334284793088,0.021107791545844367]","[1,1,1]","[-0.11213381713484884,-0.123972785506113]","[-1,-1,-1]","[0.006813763555343863,0.1413414463691212]","[1,1,1]","[0.07703725379548315,-0.06343670825912485]","[1,1,1]","[-0.16989460014943533,-0.08154421847204153]","[1,1,1]","[0.1442727785107354,-0.07802016249523389]","[-1,-1,-1]","[0.02,0.02]",131.4729,0,11,11,129,1,,,,,,,
,,,,,,,6153fe02f96d83a510c3c92b,682f0fcd0f2dbc15cc257951,2025-05-22_13h52.18.053,cuing_paradigm_dot,2024.1.5,Win32,59.88023952,682d573fa47f1360d1451895,,,,,,,,,,,131.4733,131.9735,,,132.2248,132.3575,left,0.1128,,,,,,,,,0.9,,,,,,131.9735,132.2247,132.3576,"[0.0871333507480999,-0.06254965718960089]","[1,1,1]","[0.02034345258947041,0.15287330819590156]","[1,1,1]","[0.022887693806232207,-0.06764209092094164]","[-1,-1,-1]","[0.11411579052217562,0.0947782029793491]","[1,1,1]","[0.00033112510789954605,0.06835102338152108]","[1,1,1]","[-0.1019451856082427,0.10705371895910015]","[1,1,1]","[0.07491479514306885,-0.10720072458807779]","[-1,-1,-1]","[-0.1729880412499264,-0.06728029827117767]","[1,1,1]","[0.000587945472263519,-0.19610570317885317]","[1,1,1]","[-0.022989318357024353,0.0070353782788650015]","[1,1,1]","[-0.03483968539383258,-0.12197859620266775]","[1,1,1]","[-0.13037590625209083,0.003556961061320623]","[1,1,1]","[-0.12614461962104848,-0.12922992122817809]","[1,1,1]","[-0.0753257460170986,0.07070296763373209]","[1,1,1]","[-0.13191223549014328,0.1415600635097333]","[1,1,1]","[0.11397630889182621,-0.017142442656564172]","[1,1,1]","[-0.06489297138472994,-0.07799371866856661]","[1,1,1]","[0.07741552978612574,0.06830907065593783]","[1,1,1]","[0.1697338729496628,0.02711737180164544]","[1,1,1]","[0.17269138290113625,-0.025683976562850645]","[1,1,1]","[0.16033413373525487,0.09397888428641156]","[1,1,1]","[-0.1634586190157209,0.03842657116667451]","[1,1,1]","[-0.024305834165514798,0.19504030119335825]","[1,1,1]","[-0.10759889316765854,-0.04844801347426158]","[1,1,1]","[0.17953586020115225,-0.06898224092158874]","[1,1,1]","[0.03954523910628266,0.016103595239580448]","[1,1,1]","[-0.16543679897803146,-0.025403980302299657]","[1,1,1]","[-0.04390922879400381,-0.03813685687215397]","[1,1,1]","[0.06732300513409782,0.17965522931855266]","[1,1,1]","[0.08112828524041432,-0.15427009249168305]","[1,1,1]","[-0.04282476251965695,0.15528428163055566]","[1,1,1]","[-0.06526824894258813,-0.1875942899666923]","[-1,-1,-1]","[0.02,0.02]",133.4584,0,12,12,209,1,,,,,,,
,,,,,,,6153fe02f96d83a510c3c92b,682f0fcd0f2dbc15cc257951,2025-05-22_13h52.18.053,cuing_paradigm_dot,2024.1.5,Win32,59.88023952,682d573fa47f1360d1451895,,,,,,,,,,,133.4588,133.9589,,,134.2036,134.6271,right,0.4027,,,,,,,,,0.5,,,,,,133.9589,134.2036,134.6272,"[0.1582557907299337,0.09126011670503846]","[1,1,1]","[0.014080719530390362,0.1418060337075501]","[1,1,1]","[0.029434926547165976,-0.0003612885548561819]","[-1,-1,-1]","[-0.018603746485064583,-0.06367541720382376]","[1,1,1]","[0.0878437425903549,0.056140400443405146]","[-1,-1,-1]","[-0.16569684774538093,0.044598964655336124]","[-1,-1,-1]","[-0.045158181274473276,0.0556144333414392]","[1,1,1]","[0.05620540104762939,-0.14697288717637738]","[1,1,1]","[-0.12593219229910066,-0.10807008605985535]","[1,1,1]","[0.11368114667893035,0.01610756924809716]","[1,1,1]","[-0.04089577318696845,-0.013464203813180222]","[1,1,1]","[0.1567027640803304,-0.027618493435601896]","[-1,-1,-1]","[-0.15550578847332247,-0.013553169457366392]","[-1,-1,-1]","[0.038306316958150954,0.062090006762738785]","[1,1,1]","[0.09154695082368824,0.10194951432625239]","[1,1,1]","[0.04899581691777804,-0.08679564050405661]","[-1,-1,-1]","[-0.051276037902025284,0.1116018506442042]","[-1,-1,-1]","[-0.10744530364963237,-0.07243076885764103]","[-1,-1,-1]","[-0.1250814484235162,-0.1539729235736339]","[1,1,1]","[-0.04402450819918097,-0.11790004643831782]","[-1,-1,-1]","[-0.04648823434559911,-0.1941638454639958]","[-1,-1,-1]","[-0.016211775690432174,-0.16386112049622983]","[-1,-1,-1]","[0.01207502295202628,-0.13322873635954322]","[1,1,1]","[0.1024586558836498,-0.05305456710272472]","[-1,-1,-1]","[0.010010717012816854,0.09093475408303456]","[1,1,1]","[0.12512570274638246,-0.15278637527569733]","[1,1,1]","[0.09018215803479342,-0.10949005901208403]","[1,1,1]","[0.19038966344220068,-0.04956499612573145]","[-1,-1,-1]","[0.139683282312796,0.13910320871042087]","[-1,-1,-1]","[-0.11654910977682524,0.06957121296942523]","[-1,-1,-1]","[-0.1179939616421825,0.0203872092243385]","[1,1,1]","[-0.06487256450434385,-0.06956163065783458]","[-1,-1,-1]","[0.02,0.02]",135.7274,0,13,13,112,1,,,,,,,
,,,,,,,6153fe02f96d83a510c3c92b,682f0fcd0f2dbc15cc257951,2025-05-22_13h52.18.053,cuing_paradigm_dot,2024.1.5,Win32,59.88023952,682d573fa47f1360d1451895,,,,,,,,,,,135.7278,136.228,,,136.4798,136.6956,left,0.1956,,,,,,,,,0.4,,,,,,136.228,136.4798,136.6956,"[-0.14530235713623446,-0.05843937342887137]","[1,1,1]","[-0.14894674943203043,0.06663004690784542]","[-1,-1,-1]","[0.09135278402678355,-0.13240798541365867]","[-1,-1,-1]","[0.09981613330646606,0.16097073161046901]","[1,1,1]","[0.13571255136874788,-0.048989110556501306]","[-1,-1,-1]","[-0.13779145676876792,-0.14311865640259974]","[-1,-1,-1]","[-0.011943034084822371,0.046900951693088604]","[-1,-1,-1]","[0.11375541434593614,0.12139767718911178]","[1,1,1]","[-0.0077699920122101885,-0.056749044523291714]","[-1,-1,-1]","[0.14954077841983876,0.015860402335253286]","[1,1,1]","[-0.08009521604607771,0.1150130249929766]","[-1,-1,-1]","[-0.03504598995861023,0.17424545063998212]","[-1,-1,-1]","[0.05218495247191758,0.03876534597841098]","[-1,-1,-1]","[-0.1366765139366091,0.11648068542120674]","[1,1,1]","[0.17447276254513963,-0.017574188798526267]","[-1,-1,-1]","[0.08317599672487155,-0.05807992497634659]","[1,1,1]","[0.1468431981602896,-0.1223951242711831]","[-1,-1,-1]","[0.16323261923507892,0.11091238731767383]","[-1,-1,-1]","[-0.10386487514151009,-0.04924003631854848]","[1,1,1]","[-0.14530862392400473,-0.012254670088854338]","[1,1,1]","[-0.060885655831359964,0.03738490962483128]","[-1,-1,-1]","[0.027672816105168124,0.15022737688167379]","[1,1,1]","[-0.029252940477131728,-0.11019075181022271]","[1,1,1]","[-0.11923458930556335,-0.09787178684129957]","[1,1,1]","[0.1136785046157568,-0.0880047655093181]","[1,1,1]","[0.021874757996102976,-0.1210552539210421]","[-1,-1,-1]","[-0.11542096914517162,0.15141611292117155]","[1,1,1]","[0.05189449893704189,-0.022848300519782615]","[-1,-1,-1]","[0.18041733344328248,0.042710321347090935]","[-1,-1,-1]","[0.010188227634307663,0.08360892571722393]","[-1,-1,-1]","[-0.038040577359493906,-0.023683815190927368]","[-1,-1,-1]","[-0.08450981173425301,0.0038799901743177033]","[-1,-1,-1]","[0.02,0.02]",137.7958,0,14,14,51,1,,,,,,,
,,,,,,,6153fe02f96d83a510c3c92b,682f0fcd0f2dbc15cc257951,2025-05-22_13h52.18.053,cuing_paradigm_dot,2024.1.5,Win32,59.88023952,682d573fa47f1360d1451895,,,,,,,,,,,137.7961,138.2974,,,138.5485,138.8648,left,0.303,,,,,,,,,0.55,,,,,,138.2975,138.5484,138.8648,"[-0.11908321042810757,-0.09889500270206623]","[-1,-1,-1]","[-0.014216758255279491,-0.08460329954332985]","[1,1,1]","[-0.04951063124963723,0.011251913174894565]","[1,1,1]","[0.06914141871601305,-0.15408635007408522]","[-1,-1,-1]","[0.019268857436104063,0.03414273340603849]","[-1,-1,-1]","[-0.17672546169415929,0.024213935944883937]","[-1,-1,-1]","[0.03605779157565034,0.10904129727700318]","[-1,-1,-1]","[0.15470830118919235,0.07575885157636847]","[-1,-1,-1]","[-0.10328146180203804,-0.02137299008403664]","[1,1,1]","[0.08134122089689964,0.10028073492311283]","[-1,-1,-1]","[0.05003860120962008,-0.06593603475414431]","[-1,-1,-1]","[0.1038104367997431,0.04417053330611536]","[-1,-1,-1]","[0.1540433165364081,-0.07007842425458548]","[1,1,1]","[-0.044832741167760926,0.18500809595999582]","[1,1,1]","[-0.04529428887982866,0.11815966028059902]","[1,1,1]","[-0.1474209483245395,0.0841367833062131]","[1,1,1]","[0.05630066282405304,0.055222089534679226]","[-1,-1,-1]","[-0.17342937849738818,-0.041431447230705055]","[1,1,1]","[-0.07180373649976461,-0.12661410123364214]","[1,1,1]","[0.09885443239213394,-0.1230110676061975]","[-1,-1,-1]","[-0.09832863731955231,0.15229228604824036]","[1,1,1]","[0.02888055512606479,-0.10173800685755634]","[-1,-1,-1]","[0.1949321309760564,-0.03527810623346684]","[1,1,1]","[0.06138665145474856,0.004559801397481232]","[1,1,1]","[-0.02585297154857631,0.05496598018494852]","[-1,-1,-1]","[-0.13378247419026498,0.024156550295191367]","[1,1,1]","[-0.06555976928977397,-0.05789722042034013]","[1,1,1]","[0.015331807576367014,-0.14994037556899295]","[1,1,1]","[0.032959464513664126,0.16030014011111293]","[1,1,1]","[-0.03701641925842116,-0.18820127142472523]","[1,1,1]","[0.13025070512245268,0.007157318593329207]","[1,1,1]","[0.08026420823998835,0.1524814077902706]","[-1,-1,-1]","[0.02,0.02]",139.9648,0,15,15,141,1,,,,,,,
,,,,,,,6153fe02f96d83a510c3c92b,682f0fcd0f2dbc15cc257951,2025-05-22_13h52.18.053,cuing_paradigm_dot,2024.1.5,Win32,59.88023952,682d573fa47f1360d1451895,,,,,,,,,,,139.9651,140.4665,,,140.7107,141.1441,right,0.4176,,,,,,,,,0.1,,,,,,140.4665,140.7106,141.1441,"[0.05498952849037348,0.0815991626667635]","[-1,-1,-1]","[0.0246461149260265,0.12758289096131253]","[-1,-1,-1]","[0.11002674925182933,-0.08273072049040374]","[-1,-1,-1]","[-0.06828063386976346,0.17231390165894914]","[-1,-1,-1]","[0.16449637688822247,0.014740185426327495]","[-1,-1,-1]","[0.08928625698699527,-0.1729946678132067]","[-1,-1,-1]","[0.031020844725646587,-0.12126601916442753]","[-1,-1,-1]","[-0.031341542346767,-0.09682978655362977]","[-1,-1,-1]","[-0.020194800135068223,-0.1359903061491889]","[-1,-1,-1]","[-0.054199968730464926,-0.00045689114679631855]","[1,1,1]","[-0.11407002855614631,0.11367116247404904]","[-1,-1,-1]","[-0.17402323409718304,0.07054546545418172]","[-1,-1,-1]","[0.17878810259147512,-0.0821332345357008]","[-1,-1,-1]","[0.12485000324191704,0.11787543279115055]","[-1,-1,-1]","[-0.12210112003382106,-0.06553921815305241]","[-1,-1,-1]","[-0.0423032231642002,-0.04942436083399759]","[-1,-1,-1]","[0.11623064513622772,-0.03458701347712163]","[-1,-1,-1]","[-0.027704162390657445,0.12854313478512444]","[-1,-1,-1]","[-0.11641828972172939,0.04047546733190636]","[-1,-1,-1]","[-0.10026438262156147,-0.15407105308256053]","[-1,-1,-1]","[0.007996851826011194,0.02433883239971435]","[1,1,1]","[-0.08851100119014217,-0.09757191388290314]","[-1,-1,-1]","[-0.0037557447045272374,0.18370486986217796]","[-1,-1,-1]","[-0.009193160464188803,0.08591393640734235]","[-1,-1,-1]","[0.027240459884012167,-0.028046049155440633]","[-1,-1,-1]","[-0.12581546675385427,-0.02004788999705612]","[1,1,1]","[-0.07308919014194332,0.06429413303169715]","[-1,-1,-1]","[-0.059570401207829284,-0.15816540972178877]","[-1,-1,-1]","[0.06435133174341519,0.1542488211577122]","[-1,-1,-1]","[0.07532778996151354,-0.04021325354386164]","[-1,-1,-1]","[0.13811759271038535,-0.11445442611873723]","[-1,-1,-1]","[0.12567453810755627,-0.15485218512502844]","[-1,-1,-1]","[0.02,0.02]",142.2458,0,16,16,17,1,,,,,,,
,,,,,,,6153fe02f96d83a510c3c92b,682f0fcd0f2dbc15cc257951,2025-05-22_13h52.18.053,cuing_paradigm_dot,2024.1.5,Win32,59.88023952,682d573fa47f1360d1451895,,,,,,,,,,,142.2466,142.746,,,142.9847,143.4696,right,0.4523,,,,,,,,,0.4,,,,,,142.7461,142.9846,143.4697,"[0.011215384212811442,0.10133195474094923]","[-1,-1,-1]","[-0.12376132056835605,0.15544691423867119]","[-1,-1,-1]","[-0.1549392771895421,-0.12533259188816312]","[-1,-1,-1]","[-0.17090447786588953,0.031810364600728926]","[-1,-1,-1]","[-0.013160449491992536,-0.005825335599101711]","[1,1,1]","[-0.06627379765027071,-0.13651813721505424]","[1,1,1]","[0.0366702495983259,-0.027514298409703604]","[-1,-1,-1]","[-0.0288503164530438,-0.07522549890038265]","[1,1,1]","[0.1870460803595041,0.02997529696272339]","[1,1,1]","[0.003950560064798651,-0.12577308990633002]","[-1,-1,-1]","[0.11630276731837348,-0.0762772864715302]","[1,1,1]","[0.1504461851705496,-0.040004971873897094]","[1,1,1]","[0.1280183607307176,0.11648952039539885]","[-1,-1,-1]","[-0.14239710359835409,-0.0006460943638388866]","[-1,-1,-1]","[-0.07186459857451855,0.022567754200745797]","[-1,-1,-1]","[0.0836677124035136,0.08564104164347405]","[-1,-1,-1]","[0.031688768578723714,0.04927515238818998]","[-1,-1,-1]","[0.056269025803621475,-0.08412417213891749]","[-1,-1,-1]","[-0.018097090848089473,0.16703578441405956]","[1,1,1]","[0.054661972570562586,0.17793445916783499]","[-1,-1,-1]","[-0.09460141430596407,0.11728401242450938]","[1,1,1]","[-0.05336526653326425,-0.03422296312608885]","[-1,-1,-1]","[-0.05014245143886873,0.06990001327302388]","[1,1,1]","[0.12412695765278271,0.039816623304977795]","[-1,-1,-1]","[0.05623287480706621,-0.17432492274511344]","[-1,-1,-1]","[0.15005100721027828,-0.1161547567619621]","[1,1,1]","[0.08269353506482413,-0.029823806546433285]","[1,1,1]","[-0.07929505567749873,-0.07331898225166852]","[-1,-1,-1]","[-0.029046330465194434,-0.17642614036295975]","[-1,-1,-1]","[-0.1274921638912235,-0.07935111306298288]","[1,1,1]","[-0.15018564084831562,0.11158642917902542]","[1,1,1]","[-0.1856542454224965,-0.06512286375873896]","[-1,-1,-1]","[0.02,0.02]",144.5703,0,17,17,53,1,,,,,,,
,,,,,,,6153fe02f96d83a510c3c92b,682f0fcd0f2dbc15cc257951,2025-05-22_13h52.18.053,cuing_paradigm_dot,2024.1.5,Win32,59.88023952,682d573fa47f1360d1451895,,,,,,,,,,,144.571,145.0707,,,145.3306,145.8051,left,0.4515,,,,,,,,,0.5,,,,,,145.0707,145.3306,145.8051,"[-0.08693186754337717,-0.12043486690007078]","[1,1,1]","[0.005287626756913056,-0.06643499462563589]","[1,1,1]","[0.0370869542027132,0.13587145902390382]","[1,1,1]","[0.05575173137555423,0.17758289165176835]","[1,1,1]","[-0.10698890551732129,0.1498390888111075]","[1,1,1]","[-0.028946352908209943,-0.17286060676065015]","[-1,-1,-1]","[-0.12985289461640623,-0.06211005123742056]","[1,1,1]","[0.10158163219960101,-0.1444501781683063]","[1,1,1]","[0.14527224358092827,-0.13114798337436873]","[-1,-1,-1]","[-0.14746005291088907,-0.10678436258114878]","[-1,-1,-1]","[0.16606162617580192,-0.024441525459470554]","[1,1,1]","[-0.009435358248597522,0.1310919686179858]","[-1,-1,-1]","[-0.067011367980574,0.15701416178341435]","[1,1,1]","[0.02327628030723223,0.08864251612677565]","[-1,-1,-1]","[-0.050585485144018255,0.026225138299726097]","[-1,-1,-1]","[-0.036183806568780334,-0.05321786349421689]","[-1,-1,-1]","[0.05508535097601349,-0.14395887600377252]","[-1,-1,-1]","[0.06885956701724201,0.10527508236508981]","[-1,-1,-1]","[0.06678597039411972,-0.08654590573708762]","[-1,-1,-1]","[0.057087461761984835,0.06521278497898306]","[1,1,1]","[-0.08312348212231314,-0.1694231452256661]","[1,1,1]","[-0.11442473409587242,0.10422149081462447]","[-1,-1,-1]","[0.01949824464144039,-0.18658973331592227]","[-1,-1,-1]","[-0.006219759285202163,0.19706473442450412]","[-1,-1,-1]","[0.10651485255580571,-0.012781448103245262]","[-1,-1,-1]","[-0.1264565442869289,0.06326267367772757]","[1,1,1]","[0.12592347402101975,0.04820673378999105]","[-1,-1,-1]","[0.045777073130503235,-0.01764969981349009]","[1,1,1]","[-0.1313910129696633,0.020258873912208764]","[1,1,1]","[-0.08953304755883963,0.04722733911416191]","[1,1,1]","[-0.08990906025122847,-0.005927375732833482]","[1,1,1]","[0.12303036126151139,0.11988518741587852]","[-1,-1,-1]","[0.02,0.02]",146.9052,0,18,18,92,1,,,,,,,
,,,,,,,6153fe02f96d83a510c3c92b,682f0fcd0f2dbc15cc257951,2025-05-22_13h52.18.053,cuing_paradigm_dot,2024.1.5,Win32,59.88023952,682d573fa47f1360d1451895,,,,,,,,,,,146.9056,147.4059,,,147.6476,148.2074,left,0.5359,,,,,,,,,0.55,,,,,,147.406,147.6475,148.2075,"[0.09429444210884572,-0.14338293849748865]","[-1,-1,-1]","[-0.04878195306186054,-0.1673176170628853]","[1,1,1]","[0.11504618381260942,-0.007656373476703571]","[-1,-1,-1]","[-0.011921517067491451,0.004030930654173112]","[-1,-1,-1]","[-0.1281172773105102,0.14726938910181905]","[-1,-1,-1]","[-0.06758760404178847,0.10140594739660334]","[1,1,1]","[0.02991955154456751,0.19651167744330747]","[1,1,1]","[0.06208661504726875,0.0014338867229305653]","[1,1,1]","[0.056246456296617606,-0.17586880474083602]","[1,1,1]","[-0.188393457333172,-0.046230057623062044]","[-1,-1,-1]","[0.11242663523161696,0.08546329543741397]","[-1,-1,-1]","[0.015113185032351453,-0.112048362496735]","[1,1,1]","[-0.11461343339822486,-0.014806567255469973]","[1,1,1]","[0.13150403971614474,-0.07682822020910894]","[1,1,1]","[-0.04499981923384558,0.1773038816119417]","[-1,-1,-1]","[0.00592062434363923,0.15781230279497532]","[-1,-1,-1]","[-0.15166400062752436,0.06150733349744263]","[1,1,1]","[-0.11161968470599967,0.061618791256349136]","[1,1,1]","[0.04740397389126319,0.07198737759717423]","[-1,-1,-1]","[-0.131527237576386,0.10568726069616695]","[1,1,1]","[0.17866445861178673,-0.059064082357256825]","[1,1,1]","[0.12808646132968995,0.04494862574120291]","[1,1,1]","[-0.03794107113183175,-0.07439059916674304]","[1,1,1]","[-0.08750113591344262,-0.05768618442474075]","[-1,-1,-1]","[0.11606167491792213,0.15080807398882873]","[1,1,1]","[0.15539147292029645,-0.1223494138999748]","[-1,-1,-1]","[-0.16652394348109015,-0.0028687062591858416]","[-1,-1,-1]","[-0.11008397396697508,-0.13279071069504453]","[-1,-1,-1]","[-0.08827230496681825,-0.09850736639927982]","[1,1,1]","[0.15359581665014183,0.10643220103142044]","[1,1,1]","[-0.051155524996793246,-0.020347559616822754]","[-1,-1,-1]","[-0.06932712607752008,0.045869490463279275]","[1,1,1]","[0.02,0.02]",149.3076,0,19,19,135,1,,,,,,,
,,,,,,,6153fe02f96d83a510c3c92b,682f0fcd0f2dbc15cc257951,2025-05-22_13h52.18.053,cuing_paradigm_dot,2024.1.5,Win32,59.88023952,682d573fa47f1360d1451895,,,,,,,,,,,149.3083,149.8084,,,150.0585,150.4424,left,0.365,,,,,,,,,0.6,,,,,,149.8085,150.0585,150.4424,"[-0.16727380338978423,-0.008086031590341275]","[1,1,1]","[-0.12300116800908265,0.08876518316719278]","[1,1,1]","[0.16597821096028126,0.04472252202651546]","[1,1,1]","[-0.1064678510254657,-0.15698383426446585]","[-1,-1,-1]","[-0.10130184964935122,-0.08435937872051415]","[1,1,1]","[0.16721863366379186,-0.10793231243470625]","[1,1,1]","[0.02485473414272138,-0.14282808939477146]","[1,1,1]","[-0.015954141595518178,0.15614385552343132]","[1,1,1]","[0.06631212837043808,0.09720613889642582]","[-1,-1,-1]","[0.09881024888770942,-0.05666101455164578]","[-1,-1,-1]","[0.1221107754926912,0.026709754092353547]","[1,1,1]","[-0.12254434628960988,-0.006737357594064465]","[-1,-1,-1]","[-0.04982489039822062,-0.15541273519715795]","[1,1,1]","[0.034032656395989486,0.055372239402289025]","[-1,-1,-1]","[-0.0318401781095484,0.11866997868257625]","[1,1,1]","[0.19319832494644715,-0.04728169764952785]","[-1,-1,-1]","[0.14076738829362895,0.13629142727188476]","[-1,-1,-1]","[-0.02746680309328017,-0.10492699820883018]","[1,1,1]","[0.028839455387018244,-0.011368434467792643]","[1,1,1]","[-0.07239060584853901,0.055233382817631134]","[1,1,1]","[0.10224226043933668,-0.155079246358861]","[1,1,1]","[0.1273913531504265,-0.09792199838862325]","[1,1,1]","[0.16892564540886934,-0.013731407323864275]","[1,1,1]","[0.03895051581906353,0.13634031251027245]","[1,1,1]","[-0.020607573448698915,-0.0210577200848306]","[-1,-1,-1]","[-0.16366908295160898,0.07134403804818118]","[-1,-1,-1]","[0.030404015689319944,-0.19152401728821905]","[-1,-1,-1]","[-0.07316512436958143,0.10340563908063939]","[-1,-1,-1]","[0.12637990721214354,-0.016346579560994286]","[-1,-1,-1]","[0.1007770498773635,0.12424147823507874]","[1,1,1]","[-0.1381348046961747,-0.05305388203578296]","[1,1,1]","[-0.015264866773479692,-0.18643086097685857]","[-1,-1,-1]","[0.02,0.02]",151.5431,0,20,20,174,1,,,,,,,
,,,,,,,6153fe02f96d83a510c3c92b,682f0fcd0f2dbc15cc257951,2025-05-22_13h52.18.053,cuing_paradigm_dot,2024.1.5,Win32,59.88023952,682d573fa47f1360d1451895,,,,,,,,,,,151.5434,152.0435,,,152.2949,152.4404,right,0.1324,,,,,,,,,0.45,,,,,,152.0435,152.2949,152.4405,"[-0.06413106092835405,-0.10390104573498933]","[-1,-1,-1]","[0.030527744822431736,0.09119170080608129]","[-1,-1,-1]","[0.0719393460678154,-0.1603953459671172]","[1,1,1]","[-0.15329886510303786,-0.1275296786664415]","[1,1,1]","[-0.031482467612120195,0.0662245805483558]","[1,1,1]","[0.16226013431669692,-0.08375323644479295]","[-1,-1,-1]","[0.19558432717789292,-0.01852732745166898]","[-1,-1,-1]","[-0.14560986396846576,-0.009555125678306853]","[-1,-1,-1]","[0.010369591569474498,0.0502672565985575]","[1,1,1]","[0.16861433765183764,0.04432453926909398]","[-1,-1,-1]","[-0.034820811647306445,-0.03497773837213008]","[-1,-1,-1]","[-0.06785257390291664,0.1511063960662616]","[1,1,1]","[-0.09365882344294924,-0.1743967350611352]","[-1,-1,-1]","[-0.12440063305665378,0.08891413914030966]","[-1,-1,-1]","[0.07283827156681195,-0.09279060017069445]","[-1,-1,-1]","[-0.08879096950134896,-0.006896640141317531]","[-1,-1,-1]","[0.003440556668192413,-0.08158494772010065]","[-1,-1,-1]","[0.03936882618704712,0.007251842222840904]","[1,1,1]","[-0.010403532150596428,0.1275638294350767]","[1,1,1]","[-0.16437341785917528,0.053336992079361566]","[-1,-1,-1]","[0.005972029487691739,0.19609012319506114]","[-1,-1,-1]","[0.00233781319840604,-0.17398601747189674]","[1,1,1]","[0.08123058653368848,0.05402137392196117]","[1,1,1]","[-0.029081365752574615,-0.13715223548084987]","[1,1,1]","[0.12742361523744072,-0.1120799699143049]","[-1,-1,-1]","[-0.07834080637165976,0.04204182002199501]","[1,1,1]","[0.08303701042575336,0.1526678194320414]","[1,1,1]","[0.14806186629672957,0.11307831855284635]","[-1,-1,-1]","[0.0982210722846307,0.010666912573989055]","[-1,-1,-1]","[-0.12220217222919187,-0.04519371903024111]","[1,1,1]","[-0.196695798063088,-0.012451871065897704]","[1,1,1]","[-0.14770977137689728,-0.08417221790134918]","[-1,-1,-1]","[0.02,0.02]",153.5283,0,21,21,83,1,,,,,,,
,,,,,,,6153fe02f96d83a510c3c92b,682f0fcd0f2dbc15cc257951,2025-05-22_13h52.18.053,cuing_paradigm_dot,2024.1.5,Win32,59.88023952,682d573fa47f1360d1451895,,,,,,,,,,,153.529,154.0231,,,154.2642,154.6738,right,0.3839,,,,,,,,,0.55,,,,,,154.0232,154.2641,154.6739,"[-0.08297930871954082,0.08411606051899127]","[1,1,1]","[-0.0824419000921797,-0.12212091120856645]","[-1,-1,-1]","[-0.11415066999796063,0.12691658869915837]","[-1,-1,-1]","[0.15144839769432542,0.12570703452193557]","[-1,-1,-1]","[-0.020336029305637195,0.15191929163002532]","[1,1,1]","[-0.0669295397736919,-0.17642299142166823]","[-1,-1,-1]","[0.06470352845868878,-0.03162095169903159]","[-1,-1,-1]","[0.06288902406913735,0.07736680988839977]","[1,1,1]","[-0.034527802007468925,0.06706585736504116]","[-1,-1,-1]","[-0.033535115891439246,-0.06289198179667473]","[1,1,1]","[-0.0822709950762171,0.1727140522474372]","[1,1,1]","[0.022278805300034166,-0.12299103421089254]","[1,1,1]","[-0.13222032440644838,-0.07919904392773204]","[-1,-1,-1]","[0.07961250237912373,-0.13440797533437335]","[1,1,1]","[0.03860917812274057,-0.19004145930487168]","[-1,-1,-1]","[-0.028774429184435273,0.006895945891103243]","[1,1,1]","[-0.07489641107037112,-0.035510023648133396]","[1,1,1]","[0.13160223823734357,-0.09539601770479457]","[-1,-1,-1]","[-0.015402316409839,-0.16549399580116017]","[1,1,1]","[-0.19757709162652892,-0.014165900664595782]","[-1,-1,-1]","[0.1711386520351747,0.03968486489007441]","[-1,-1,-1]","[0.18625636722703842,-0.007273084052645136]","[1,1,1]","[0.12012393778740776,-0.0468299749150528]","[1,1,1]","[0.14497242448249126,0.004822117793635419]","[1,1,1]","[-0.17602883549383716,-0.09008310435935836]","[-1,-1,-1]","[-0.16583030187368578,0.10792314478745406]","[1,1,1]","[0.02888641243619622,-0.05589993869093117]","[1,1,1]","[0.074937023045686,0.03144630791369755]","[1,1,1]","[-0.08217420328601928,0.00625450021320814]","[-1,-1,-1]","[-0.000008615627348018223,-0.023913015504172654]","[-1,-1,-1]","[-0.03686670714653255,-0.11223093871212411]","[1,1,1]","[-0.15106405500706,0.005278928911235494]","[1,1,1]","[0.02,0.02]",155.7645,0,22,22,139,1,,,,,,,
,,,,,,,6153fe02f96d83a510c3c92b,682f0fcd0f2dbc15cc257951,2025-05-22_13h52.18.053,cuing_paradigm_dot,2024.1.5,Win32,59.88023952,682d573fa47f1360d1451895,,,,,,,,,,,155.7649,156.2648,,,156.5069,156.849,right,0.3208,,,,,,,,,0.1,,,,,,156.2649,156.5068,156.849,"[0.02635393929907494,0.04810606491344868]","[-1,-1,-1]","[0.10468451611799269,-0.1460208646529641]","[-1,-1,-1]","[-0.18765757958284912,-0.0508447867624148]","[-1,-1,-1]","[0.042418634055432655,-0.06298341029429766]","[-1,-1,-1]","[-0.16859144019048178,0.0039024060890986453]","[-1,-1,-1]","[-0.04404646508423686,0.053772436964199664]","[-1,-1,-1]","[-0.0761389734253271,-0.11923643585553974]","[-1,-1,-1]","[-0.09948975045261071,-0.0481659306027941]","[1,1,1]","[-0.11392177716580654,0.08100847474723932]","[-1,-1,-1]","[0.1126125015816984,0.11294276904058916]","[-1,-1,-1]","[-0.01243386814089747,0.13917099733608587]","[-1,-1,-1]","[-0.05178809407398231,-0.058066128783981756]","[-1,-1,-1]","[0.038257237016266946,-0.15879944668931414]","[-1,-1,-1]","[0.07053619613309582,0.07948642733824747]","[-1,-1,-1]","[-0.07390567157754001,0.12173052761754732]","[-1,-1,-1]","[0.08297958405011745,0.02577829070360348]","[-1,-1,-1]","[0.19160488829657438,0.04910468690635302]","[1,1,1]","[0.03585608929898931,-0.10894490397240125]","[-1,-1,-1]","[-0.16885565780690853,0.10562788000560872]","[-1,-1,-1]","[0.1636806804631527,-0.04456645193498928]","[-1,-1,-1]","[0.14499198905436902,0.009529952211837722]","[-1,-1,-1]","[-0.11603734374317301,0.031049207412567854]","[-1,-1,-1]","[-0.005681695059049838,0.014300924047404146]","[-1,-1,-1]","[0.03419656035267694,0.19344454368989042]","[-1,-1,-1]","[-0.12309417980986409,0.13720012395167042]","[-1,-1,-1]","[0.15261164920447998,0.0990129831105985]","[-1,-1,-1]","[0.15225378081610746,-0.12527293099209877]","[-1,-1,-1]","[0.09707415791327112,-0.07155485489353107]","[-1,-1,-1]","[-0.08508345597133873,-0.16497091129302982]","[1,1,1]","[0.03527359175488612,-0.013835648866116611]","[-1,-1,-1]","[-0.022600165762566737,-0.18741663580876958]","[-1,-1,-1]","[-0.009168436087276601,-0.11848254852778839]","[-1,-1,-1]","[0.02,0.02]",157.9494,0,23,23,2,1,,,,,,,
,,,,,,,6153fe02f96d83a510c3c92b,682f0fcd0f2dbc15cc257951,2025-05-22_13h52.18.053,cuing_paradigm_dot,2024.1.5,Win32,59.88023952,682d573fa47f1360d1451895,,,,,,,,,,,157.9498,158.4501,,,158.6953,159.1853,left,0.4734,,,,,,,,,0.55,,,,,,158.4501,158.6953,159.1854,"[0.12569203483478913,0.13382654440344324]","[-1,-1,-1]","[0.12319915866466241,0.0311051947927579]","[-1,-1,-1]","[-0.18680301532992216,-0.0494101899797061]","[-1,-1,-1]","[0.008231114131675156,-0.004531432359159043]","[1,1,1]","[-0.13172168450525654,0.14992012564828486]","[1,1,1]","[-0.13483734754236223,0.09841739240211164]","[1,1,1]","[-0.03933255316847588,0.01603095507135631]","[1,1,1]","[-0.016914908896088883,0.18630859985498788]","[-1,-1,-1]","[-0.10708859050729647,-0.0011799929391181107]","[1,1,1]","[-0.02723044050610217,-0.07125315990068691]","[1,1,1]","[0.05107658359989993,0.14564116666382448]","[-1,-1,-1]","[0.0023172430910361076,0.14958430633115474]","[1,1,1]","[0.1489425567495039,-0.06927240393424487]","[-1,-1,-1]","[0.171511472648063,-0.008858724610017712]","[-1,-1,-1]","[0.175279942502685,0.0413918000902197]","[1,1,1]","[-0.001921476992021654,-0.19262093010800732]","[1,1,1]","[-0.11036503541356,0.06413799024553016]","[1,1,1]","[0.11165739994126853,0.09181089859663086]","[1,1,1]","[0.0760390946283576,-0.07042123449409132]","[-1,-1,-1]","[-0.0644632209663042,-0.08727548895889341]","[-1,-1,-1]","[0.007337423222856684,-0.09558791200444473]","[-1,-1,-1]","[-0.05858731630028082,0.07200817612702524]","[-1,-1,-1]","[-0.11838992796698655,-0.11858581408981012]","[1,1,1]","[0.02904826862270651,0.1818140435535382]","[1,1,1]","[-0.007733865877896125,0.10104377969243929]","[1,1,1]","[-0.138100863659031,-0.02878814161009078]","[1,1,1]","[-0.18002860554197242,0.05451374400713642]","[-1,-1,-1]","[0.08157582273344449,-0.13666097938930233]","[1,1,1]","[0.04388961209140452,-0.18756873616750872]","[-1,-1,-1]","[0.04920112659680233,-0.10970063605060264]","[1,1,1]","[-0.16945096690116151,0.009177223361829578]","[-1,-1,-1]","[0.09550284118279505,-0.03242133616112175]","[1,1,1]","[0.02,0.02]",160.2851,0,24,24,125,1,,,,,,,
,,,,,,,6153fe02f96d83a510c3c92b,682f0fcd0f2dbc15cc257951,2025-05-22_13h52.18.053,cuing_paradigm_dot,2024.1.5,Win32,59.88023952,682d573fa47f1360d1451895,,,,,,,,,,,160.2854,160.7856,,,161.0243,161.5542,right,0.5048,,,,,,,,,0.4,,,,,,160.7857,161.0241,161.5542,"[-0.026459136565716527,-0.008087611527316175]","[-1,-1,-1]","[-0.004782495229425299,-0.19458410095643672]","[-1,-1,-1]","[-0.16538128511834352,-0.04048119108294923]","[-1,-1,-1]","[0.09102361643491944,-0.15095980460011504]","[-1,-1,-1]","[0.02182021600175029,0.03421783019114533]","[-1,-1,-1]","[-0.09712466469619727,-0.002969168418265599]","[-1,-1,-1]","[-0.11104741389463267,-0.14931269362851787]","[1,1,1]","[0.05955039299601056,0.1321941159346903]","[1,1,1]","[0.11052199653639144,0.008817041207827525]","[-1,-1,-1]","[-0.06419830772708264,0.16006220766021428]","[-1,-1,-1]","[-0.0018476893416834485,0.15291156193121658]","[1,1,1]","[-0.057018361360348276,-0.17538496499364042]","[-1,-1,-1]","[0.02159144723735589,-0.03845283192415967]","[-1,-1,-1]","[-0.11071887901463351,0.09103002080772625]","[-1,-1,-1]","[-0.1321801072348132,-0.06572510966988489]","[-1,-1,-1]","[0.07088236516863006,0.08298093033633426]","[1,1,1]","[0.17562649579003317,0.07083740011229535]","[1,1,1]","[-0.16353677323425014,0.03673115744423665]","[1,1,1]","[0.13182089157538204,-0.02882676417575344]","[-1,-1,-1]","[-0.01398341315057161,-0.06158434429658526]","[1,1,1]","[-0.056146462574563086,0.11762994826853458]","[1,1,1]","[0.10675440218163502,0.15466900469693418]","[1,1,1]","[0.16859535135996945,-0.05134271451492681]","[-1,-1,-1]","[0.01417499314534447,-0.15783333162777616]","[-1,-1,-1]","[-0.022055314998408047,0.19087162448719408]","[-1,-1,-1]","[0.10222631351759427,0.0555010244351124]","[1,1,1]","[0.054659212960215954,-0.011033536893447752]","[1,1,1]","[-0.020268191696857372,0.0966555087786394]","[-1,-1,-1]","[-0.11549226750727042,0.1320744780225938]","[-1,-1,-1]","[-0.09404072948235163,0.05231671636231685]","[1,1,1]","[0.12944965302018452,-0.11588486355185555]","[-1,-1,-1]","[-0.16383164550428425,-0.11131928983796181]","[1,1,1]","[0.02,0.02]",162.6541,0,25,25,38,1,,,,,,,
,,,,,,,6153fe02f96d83a510c3c92b,682f0fcd0f2dbc15cc257951,2025-05-22_13h52.18.053,cuing_paradigm_dot,2024.1.5,Win32,59.88023952,682d573fa47f1360d1451895,,,,,,,,,,,162.6545,163.1551,,,163.3941,163.8067,left,0.3851,,,,,,,,,0.6,,,,,,163.1552,163.3941,163.8068,"[-0.025737549917538422,0.11703803373102405]","[-1,-1,-1]","[0.13428167331926766,0.10363216701635622]","[1,1,1]","[0.029192683002916962,0.046856264949649624]","[1,1,1]","[0.06441233849081031,-0.012876632482779975]","[1,1,1]","[-0.15165079915600035,-0.0667452592798021]","[1,1,1]","[0.13897435199316718,-0.022888470875545075]","[1,1,1]","[0.10007516331422149,-0.12167896912021757]","[-1,-1,-1]","[-0.06365398726371824,-0.09048824357895585]","[1,1,1]","[0.03132612111904221,-0.09526753125723399]","[-1,-1,-1]","[0.11672766259698186,0.14268249076818998]","[-1,-1,-1]","[-0.090155026299763,0.048259989453961656]","[-1,-1,-1]","[-0.15700598047984074,0.10780581530511538]","[-1,-1,-1]","[0.12785011355927947,0.03238027736332298]","[1,1,1]","[-0.13203376675589729,0.07306552857946344]","[1,1,1]","[-0.06302330371185472,-0.019453011790526234]","[1,1,1]","[-0.11760734026231554,0.15663464968606458]","[1,1,1]","[0.07978588684691837,0.1817470546374932]","[-1,-1,-1]","[-0.07624072772603832,0.12903505502124554]","[1,1,1]","[-0.1681254238919219,0.03336518275541504]","[1,1,1]","[0.013968329053105459,0.14189121871018323]","[1,1,1]","[-0.039235266196984725,0.189900741729246]","[1,1,1]","[0.18260898539430756,0.04533011060563793]","[1,1,1]","[-0.10928564543076416,0.0015117455355905514]","[-1,-1,-1]","[0.01702338157573118,0.10073426685791763]","[-1,-1,-1]","[-0.05214581904993806,0.03489662324391288]","[-1,-1,-1]","[-0.035858598131785074,-0.056207730244874445]","[-1,-1,-1]","[0.01712770610379956,-0.14889317502104596]","[1,1,1]","[0.08561535839884472,-0.1708888862099362]","[-1,-1,-1]","[0.0964206278598296,0.07249032344740633]","[1,1,1]","[0.016705941066495995,-0.006192236469458939]","[1,1,1]","[0.0015359753142728662,0.19615801516249146]","[-1,-1,-1]","[0.17077709365583651,-0.05751574457642501]","[1,1,1]","[0.02,0.02]",164.9063,0,26,26,167,1,,,,,,,
,,,,,,,6153fe02f96d83a510c3c92b,682f0fcd0f2dbc15cc257951,2025-05-22_13h52.18.053,cuing_paradigm_dot,2024.1.5,Win32,59.88023952,682d573fa47f1360d1451895,,,,,,,,,,,164.9068,165.4071,,,165.6515,166.1082,left,0.4349,,,,,,,,,0.55,,,,,,165.4072,165.6515,166.1083,"[-0.18308605347749224,-0.02980305508119353]","[1,1,1]","[-0.027235617956168898,0.18721546762173538]","[1,1,1]","[-0.12700500610961005,-0.11439259402962101]","[1,1,1]","[0.15757831180945608,0.027002637550352558]","[-1,-1,-1]","[0.08897244298791301,-0.10025783362409527]","[-1,-1,-1]","[-0.07402412091174292,-0.06040180625692129]","[-1,-1,-1]","[0.12274010439627814,-0.021893121438925918]","[-1,-1,-1]","[0.00829221775270716,-0.10015234441201272]","[-1,-1,-1]","[-0.04481107821597583,-0.1771092779579747]","[1,1,1]","[-0.002955195701190781,0.009046245212066553]","[-1,-1,-1]","[0.15363799814868934,0.10259019526561876]","[1,1,1]","[-0.16909064309096344,0.049047147146387166]","[1,1,1]","[0.01486228558777857,0.17029678751958086]","[1,1,1]","[-0.11983579920592118,-0.05173744247380293]","[-1,-1,-1]","[-0.09249751863245417,0.15059799967926665]","[1,1,1]","[-0.16127872349671085,0.09254540196327143]","[1,1,1]","[0.11153627422846638,0.06653653354722112]","[1,1,1]","[-0.03965715726089907,-0.13487672163380385]","[-1,-1,-1]","[-0.02549931873867466,0.1278835464721058]","[-1,-1,-1]","[-0.09399421138512369,0.03262410508601872]","[-1,-1,-1]","[-0.15913471463019352,0.008900491844539804]","[1,1,1]","[-0.06415739553933926,0.08903056526864292]","[1,1,1]","[0.14137117582851155,-0.10250023365448062]","[-1,-1,-1]","[-0.1812084058615871,-0.07649618191926343]","[1,1,1]","[0.050988239512406566,-0.019841376430727982]","[-1,-1,-1]","[0.11146879709168354,-0.16191803010680003]","[1,1,1]","[0.032292962699388715,-0.19335090460236812]","[-1,-1,-1]","[-0.048703798562230234,-0.015058249266204912]","[1,1,1]","[0.03874903648950462,0.023438468763986593]","[1,1,1]","[0.048697897445505095,-0.0902036833772001]","[-1,-1,-1]","[0.08550545757711875,-0.0533196681460636]","[1,1,1]","[0.05055095703244963,0.0832669204563196]","[1,1,1]","[0.02,0.02]",167.2088,0,27,27,137,1,,,,,,,
,,,,,,,6153fe02f96d83a510c3c92b,682f0fcd0f2dbc15cc257951,2025-05-22_13h52.18.053,cuing_paradigm_dot,2024.1.5,Win32,59.88023952,682d573fa47f1360d1451895,,,,,,,,,,,167.2093,167.7092,,,167.9532,168.4457,right,0.4699,,,,,,,,,0.45,,,,,,167.7092,167.9531,168.4459,"[-0.07157539915114339,-0.05970963907919904]","[-1,-1,-1]","[0.1328555369689305,-0.13397824452611296]","[-1,-1,-1]","[-0.13816945404714823,-0.05893278161070983]","[1,1,1]","[-0.09689707152464863,-0.022511018376908897]","[-1,-1,-1]","[0.05335595149284405,0.18690850073159662]","[-1,-1,-1]","[-0.1309742785760509,0.030342057874855076]","[-1,-1,-1]","[0.10948856146295079,0.11942162121705853]","[-1,-1,-1]","[-0.007137181096423134,-0.08794166165712894]","[1,1,1]","[0.022670837395927897,0.033300198660466525]","[-1,-1,-1]","[-0.14602434433831102,-0.007839602066759965]","[-1,-1,-1]","[-0.10395571627511989,0.09104731888493943]","[1,1,1]","[-0.05093047968295755,0.18777631518175156]","[-1,-1,-1]","[0.01661553674851551,-0.027944781029554545]","[1,1,1]","[0.10681032015837645,-0.0671495744743169]","[1,1,1]","[0.052648262165463595,0.0781365905344824]","[1,1,1]","[-0.056185858479681064,-0.13359248247430158]","[-1,-1,-1]","[-0.09377004329042295,0.13682654305737735]","[-1,-1,-1]","[0.08968111270371508,0.03530434199770876]","[1,1,1]","[0.05330975851630085,-0.009490703544107701]","[-1,-1,-1]","[-0.00505941907409304,0.13700113833325608]","[1,1,1]","[-0.04435055790351119,0.01960779561125427]","[1,1,1]","[0.027740298835745327,-0.13338381137244273]","[-1,-1,-1]","[-0.017165843761633427,0.05172828419796698]","[1,1,1]","[-0.1323555772068582,-0.12423141558606088]","[-1,-1,-1]","[0.1611368134014996,0.045702269413862524]","[-1,-1,-1]","[0.1582129925436151,-0.0373861037107778]","[-1,-1,-1]","[0.06667535204589248,0.13651822691275983]","[1,1,1]","[-0.014854135618855074,-0.16115223711678942]","[-1,-1,-1]","[-0.05083446960631956,0.1262656862172774]","[1,1,1]","[-0.08817343967561582,-0.09889313483941747]","[1,1,1]","[0.14286461155450766,0.09682088790146186]","[1,1,1]","[-0.16540819047780494,0.09443716737056913]","[-1,-1,-1]","[0.02,0.02]",169.5448,0,28,28,78,1,,,,,,,
,,,,,,,6153fe02f96d83a510c3c92b,682f0fcd0f2dbc15cc257951,2025-05-22_13h52.18.053,cuing_paradigm_dot,2024.1.5,Win32,59.88023952,682d573fa47f1360d1451895,,,,,,,,,,,169.5456,170.0553,,,170.3062,170.7463,left,0.418,,,,,,,,,0.6,,,,,,170.0553,170.3061,170.7463,"[-0.18641034021307606,-0.0062590167513862155]","[1,1,1]","[-0.11496922530908417,0.0040322259495134275]","[1,1,1]","[-0.13506396381332655,-0.1166247407727045]","[1,1,1]","[0.018437411059530864,0.16356071817625484]","[1,1,1]","[0.05058913094709987,0.1230793214206369]","[1,1,1]","[-0.0010678068431223423,-0.11436495365846913]","[1,1,1]","[0.0677504354154069,-0.17219328061372716]","[1,1,1]","[-0.13138633894722496,0.09525525854877455]","[-1,-1,-1]","[0.06824868032458956,-0.0908552435886094]","[-1,-1,-1]","[0.06578105099828593,0.18812016014200078]","[1,1,1]","[0.04850877685497836,0.025638507368292842]","[-1,-1,-1]","[-0.02443747979131605,-0.06457952695644756]","[1,1,1]","[0.08534177898462396,0.007209263926056117]","[1,1,1]","[-0.0726820929181631,-0.1308521226069916]","[-1,-1,-1]","[0.03344945033283029,-0.01447752255823605]","[1,1,1]","[0.17767656096772627,0.01700513971140951]","[-1,-1,-1]","[-0.065766903952359,-0.17593577734271923]","[-1,-1,-1]","[-0.028711159558776563,-0.1939055973809758]","[-1,-1,-1]","[0.11831027989459719,-0.08394925529130966]","[1,1,1]","[-0.08372660488017768,-0.07842713394422725]","[1,1,1]","[-0.026021981609017305,0.022398972752146615]","[-1,-1,-1]","[0.1248733561386379,-0.03507066600854286]","[1,1,1]","[-0.08438124415364456,0.17376321617469578]","[1,1,1]","[0.025483700492615294,0.08901764188318785]","[1,1,1]","[-0.17536258359202425,-0.05430831296400099]","[-1,-1,-1]","[-0.060233877980637,0.10878798162058163]","[1,1,1]","[-0.010914162430183273,-0.017585203879482442]","[-1,-1,-1]","[0.020976119426313063,-0.06877067813401422]","[1,1,1]","[-0.14506181726136463,0.13499431672948034]","[-1,-1,-1]","[0.12685806763825302,-0.12601246746865774]","[1,1,1]","[0.16159412507088441,-0.060104926449415834]","[-1,-1,-1]","[0.030753348933259997,-0.14756240247100466]","[-1,-1,-1]","[0.02,0.02]",171.847,0,29,29,177,1,,,,,,,
,,,,,,,6153fe02f96d83a510c3c92b,682f0fcd0f2dbc15cc257951,2025-05-22_13h52.18.053,cuing_paradigm_dot,2024.1.5,Win32,59.88023952,682d573fa47f1360d1451895,,,,,,,,,,,171.8477,172.3476,,,172.5984,173.0316,left,0.4125,,,,,,,,,0.55,,,,,,172.3477,172.5983,173.0317,"[-0.08434862951642139,0.07409434177776908]","[1,1,1]","[0.0014093416895468091,-0.040998977992019264]","[1,1,1]","[-0.17623027735555127,0.029458607796546795]","[1,1,1]","[-0.12138723623282946,0.12346729344665194]","[1,1,1]","[0.05808743752500908,-0.1467507585561255]","[1,1,1]","[0.12517536988064346,-0.13624126058805183]","[1,1,1]","[0.009056204680404788,-0.19905971054875132]","[-1,-1,-1]","[-0.006315439215905767,-0.0956149091342399]","[-1,-1,-1]","[0.012373502433384557,0.09065803031668994]","[1,1,1]","[-0.03492744677250373,-0.1667054769579426]","[1,1,1]","[-0.028695402730802004,0.10446716106729674]","[-1,-1,-1]","[0.18423949213202775,-0.024281689156789063]","[1,1,1]","[-0.16078073491613334,-0.09232250094528525]","[-1,-1,-1]","[-0.10633641086145099,-0.05435426858621276]","[1,1,1]","[0.1267725873387803,-0.029634087419098423]","[1,1,1]","[-0.13560700957395602,0.06790998635213698]","[-1,-1,-1]","[0.12578277871915647,0.04816695376859397]","[-1,-1,-1]","[0.0026541970592468033,0.19782806766697594]","[-1,-1,-1]","[0.05449558303711344,-0.014199211834815423]","[-1,-1,-1]","[0.10989618469030013,-0.08739178568000704]","[1,1,1]","[0.020685654785865086,0.14466371327954147]","[1,1,1]","[-0.027484929250210018,0.15485517836400065]","[-1,-1,-1]","[0.034720778525950104,-0.09522386064601115]","[-1,-1,-1]","[-0.11395733556484638,0.027951755305939064]","[-1,-1,-1]","[-0.16555318331042287,0.10929502909291064]","[1,1,1]","[-0.07429440506156426,0.18317123448535952]","[1,1,1]","[0.05994978026381651,0.07406031675760788]","[-1,-1,-1]","[-0.047313891628993264,-0.058638486730086994]","[1,1,1]","[-0.09722627310034596,-0.10256550337196416]","[-1,-1,-1]","[-0.0286348336422418,0.024845224963622795]","[1,1,1]","[0.07119102350103573,0.11397024009864892]","[-1,-1,-1]","[0.06181847417270914,0.15646765327684822]","[1,1,1]","[0.02,0.02]",174.1322,0,30,30,130,1,,,,,,,
,,,,,,,6153fe02f96d83a510c3c92b,682f0fcd0f2dbc15cc257951,2025-05-22_13h52.18.053,cuing_paradigm_dot,2024.1.5,Win32,59.88023952,682d573fa47f1360d1451895,,,,,,,,,,,174.1325,174.6327,,,174.8842,175.2843,left,0.3831,,,,,,,,,0.9,,,,,,174.6327,174.8841,175.2844,"[-0.16865235060935488,0.056005542547057044]","[1,1,1]","[0.18729989067559225,-0.03164915426446159]","[1,1,1]","[-0.07750092858232434,0.003754447338353073]","[1,1,1]","[-0.11382418151120056,-0.05031352846567941]","[1,1,1]","[0.03481539532509253,0.022709720399692546]","[-1,-1,-1]","[-0.03514823276375283,-0.03562467451712523]","[1,1,1]","[0.009275512901664186,0.1838430396458404]","[1,1,1]","[0.007966572885132932,0.1305384409612554]","[1,1,1]","[-0.07762450224002253,0.13485439866619264]","[1,1,1]","[0.07136532378151733,0.0803932511726752]","[1,1,1]","[-0.19826683135683418,-0.009422780201046138]","[1,1,1]","[-0.06985908761664608,-0.14042750480588284]","[-1,-1,-1]","[0.046145910983196474,-0.021705419537186348]","[1,1,1]","[-0.016669093836877192,0.055164997377840475]","[1,1,1]","[0.09788818467113908,-0.034967400643550355]","[1,1,1]","[-0.10054278021983011,0.06105677599330497]","[1,1,1]","[-0.17098534241299998,-0.0668490696507356]","[1,1,1]","[0.11343402408134039,-0.08160181613476991]","[1,1,1]","[0.15063816413781983,-0.0012970669483453722]","[1,1,1]","[0.16961203893270718,0.07797484502559805]","[-1,-1,-1]","[0.1735149237224748,-0.08824437310603157]","[1,1,1]","[0.08802509228623322,0.042510634636817674]","[1,1,1]","[-0.011721440713559702,0.007690432594534752]","[1,1,1]","[-0.11983144557190395,0.11924313620178925]","[1,1,1]","[0.10673478959422425,0.14209506925500848]","[1,1,1]","[0.01589666734503135,-0.09334599128176017]","[1,1,1]","[0.0547989552246435,0.17042933398598287]","[1,1,1]","[-0.00793088298183296,-0.15943184393511195]","[1,1,1]","[-0.13347663833601428,-0.007645303790293127]","[1,1,1]","[-0.11824767409553985,-0.12941545775206256]","[1,1,1]","[-0.030777284658164768,0.09512251809774677]","[1,1,1]","[0.06797449243873634,-0.10778571675657952]","[1,1,1]","[0.02,0.02]",176.3843,0,31,31,199,1,,,,,,,
,,,,,,,6153fe02f96d83a510c3c92b,682f0fcd0f2dbc15cc257951,2025-05-22_13h52.18.053,cuing_paradigm_dot,2024.1.5,Win32,59.88023952,682d573fa47f1360d1451895,,,,,,,,,,,176.3846,176.8849,,,177.1309,177.5537,right,0.4055,,,,,,,,,0.45,,,,,,176.8849,177.1309,177.5538,"[0.0721679451203123,0.1741559644868122]","[1,1,1]","[-0.11258587925447411,-0.15080010548447673]","[-1,-1,-1]","[-0.011782769034420956,-0.1387054953876049]","[-1,-1,-1]","[0.02788770730089642,-0.16681403939197448]","[1,1,1]","[-0.04182974212306783,-0.18681334572343783]","[-1,-1,-1]","[0.09146923595458832,-0.015846331852046754]","[-1,-1,-1]","[0.16763121679937892,0.057782583137537806]","[1,1,1]","[-0.08214178165316796,0.05677212200363141]","[-1,-1,-1]","[-0.150984519917167,0.06649834871151779]","[-1,-1,-1]","[-0.1600423403979166,-0.08038486422322796]","[1,1,1]","[0.013718538245480739,-0.05376055302122039]","[-1,-1,-1]","[-0.08819810503489196,-0.11729229230015141]","[1,1,1]","[0.10998442725843062,-0.13240750816820565]","[-1,-1,-1]","[0.08883931335496303,-0.09547979611067269]","[-1,-1,-1]","[-0.11323952930177131,0.10513149379495196]","[1,1,1]","[-0.06013878525769942,-0.044216257317477914]","[-1,-1,-1]","[-0.09935911484678023,-0.03545048262915589]","[1,1,1]","[0.06762477412477502,-0.14863608616705337]","[1,1,1]","[-0.16607679857724,0.025312754733135743]","[1,1,1]","[0.15188471548362298,-0.10825240064719446]","[-1,-1,-1]","[-0.08620287100567504,0.17249069086063804]","[1,1,1]","[0.08879235037230676,0.1266621534647318]","[-1,-1,-1]","[0.14028757358818625,-0.02078066835590212]","[1,1,1]","[0.031347776214113686,0.16875063612110833]","[-1,-1,-1]","[-0.014409085818925511,0.0977889306423943]","[1,1,1]","[-0.05945146453941038,0.13817402528477962]","[1,1,1]","[0.12638390214049092,0.10598878439597911]","[-1,-1,-1]","[0.042645237609739074,-0.11258057602033043]","[-1,-1,-1]","[0.030670836171046465,0.0034821075187445915]","[-1,-1,-1]","[0.041103742846469955,0.0852776227569605]","[1,1,1]","[0.08538582255700168,0.03711352403803522]","[-1,-1,-1]","[0.13020630199468877,0.020493934438061405]","[-1,-1,-1]","[0.02,0.02]",178.6541,0,32,32,64,1,,,,,,,
,,,,,,,6153fe02f96d83a510c3c92b,682f0fcd0f2dbc15cc257951,2025-05-22_13h52.18.053,cuing_paradigm_dot,2024.1.5,Win32,59.88023952,682d573fa47f1360d1451895,,,,,,,,,,,178.655,179.1543,,,179.4043,179.8217,right,0.3988,,,,,,,,,0.1,,,,,,179.1544,179.4043,179.8217,"[0.008110138420914105,-0.05020378335005345]","[1,1,1]","[-0.1619778323580561,-0.03178233866353608]","[1,1,1]","[-0.05736248253827183,0.13596198785104222]","[-1,-1,-1]","[0.0314347581803264,0.06156144002879382]","[-1,-1,-1]","[-0.04095174825132636,-0.006419459468665166]","[-1,-1,-1]","[0.15478626354904595,-0.04950046192800519]","[-1,-1,-1]","[0.17154298154235295,-0.08784967247484865]","[-1,-1,-1]","[0.08313930862789227,0.17460937481142202]","[-1,-1,-1]","[0.07155501759868323,-0.03222610336057745]","[-1,-1,-1]","[0.1163801778352381,0.06915240174686982]","[1,1,1]","[0.014598451680221915,0.16222761324001966]","[-1,-1,-1]","[0.058929120313912356,-0.1593206402192087]","[-1,-1,-1]","[-0.12397186534374317,0.0657109864347746]","[-1,-1,-1]","[-0.022760467567366185,0.0739763628527757]","[-1,-1,-1]","[-0.0886316664828072,0.09274056509693673]","[-1,-1,-1]","[0.01169048334252296,-0.15888036219685928]","[-1,-1,-1]","[-0.1285990255968958,0.13558416281457736]","[-1,-1,-1]","[0.08989227091671602,0.11949068958809675]","[-1,-1,-1]","[-0.10689467580184059,-0.14160423268318656]","[-1,-1,-1]","[-0.12143830201875123,-0.07698583774913151]","[-1,-1,-1]","[-0.06173152344330505,-0.0949579255719253]","[-1,-1,-1]","[-0.04205554245484484,-0.16438679295719352]","[-1,-1,-1]","[-0.09558858525419632,0.15957389511244374]","[-1,-1,-1]","[-0.03152589758701423,-0.06468602511760096]","[-1,-1,-1]","[0.10383210134400037,-0.10562019717550755]","[-1,-1,-1]","[0.0607543201682983,-0.10177347090062325]","[-1,-1,-1]","[-0.12245914263681816,0.014666999569964232]","[-1,-1,-1]","[0.10604951799187137,0.0018063937019418286]","[-1,-1,-1]","[0.11840299528116696,-0.15071917316659916]","[-1,-1,-1]","[0.017402722713023587,-0.10968022411093173]","[-1,-1,-1]","[0.12410162238008937,0.1561954743733732]","[-1,-1,-1]","[-0.16683262481902406,0.017109658717510624]","[-1,-1,-1]","[0.02,0.02]",180.9223,0,33,33,1,1,,,,,,,
,,,,,,,6153fe02f96d83a510c3c92b,682f0fcd0f2dbc15cc257951,2025-05-22_13h52.18.053,cuing_paradigm_dot,2024.1.5,Win32,59.88023952,682d573fa47f1360d1451895,,,,,,,,,,,180.9227,181.4229,,,181.6745,182.092,left,0.4024,,,,,,,,,0.5,,,,,,181.423,181.6744,182.0921,"[-0.13187687591696573,0.10957615294435132]","[1,1,1]","[0.12622487610279035,0.08608648713563041]","[-1,-1,-1]","[0.0846278055962113,0.06951923756375918]","[-1,-1,-1]","[0.1610013616275615,-0.08485647832199646]","[1,1,1]","[0.1798586383456856,0.0068449775092667385]","[-1,-1,-1]","[0.12917261379920364,-0.13747162531870963]","[-1,-1,-1]","[0.024228559833249837,0.08924315689211285]","[1,1,1]","[-0.0008031927265391532,-0.14717579731713712]","[1,1,1]","[0.05684802784579971,0.11320817531282193]","[1,1,1]","[-0.08100738249431932,0.03146647688725147]","[1,1,1]","[0.10499421065796113,-0.036007948649413896]","[1,1,1]","[0.004132570759180795,-0.022786488585526902]","[1,1,1]","[-0.12443103763762316,0.0669231754361162]","[-1,-1,-1]","[0.11034175803053597,0.006121703179569211]","[1,1,1]","[0.06619623742544964,-0.08480750147929528]","[-1,-1,-1]","[-0.02872391236888056,0.010903690528238636]","[-1,-1,-1]","[-0.053988307384989026,0.08057207514927826]","[-1,-1,-1]","[-0.17076156837613515,0.045782946810037625]","[-1,-1,-1]","[-0.09374751609595286,-0.029591730108074775]","[-1,-1,-1]","[0.027908611406967012,0.01674011949216823]","[1,1,1]","[-0.1769335362374554,0.08683258802710905]","[1,1,1]","[-0.019783229353045093,0.1932805688788145]","[1,1,1]","[-0.059842043646557506,-0.14241889863122723]","[-1,-1,-1]","[-0.13423611804867502,-0.06589974413620951]","[-1,-1,-1]","[-0.0052137233422057125,0.12087369711369524]","[1,1,1]","[0.014692612320748677,-0.1962958898270364]","[1,1,1]","[-0.19700267204837682,-0.004732457972928333]","[-1,-1,-1]","[-0.020679109782286584,-0.08911518931623362]","[-1,-1,-1]","[0.05352978074659452,-0.1227977809381268]","[-1,-1,-1]","[0.042439257542801076,0.1807565446998414]","[-1,-1,-1]","[-0.1009544434914651,-0.14161219114164353]","[1,1,1]","[-0.1254518350070102,0.010005589458227994]","[1,1,1]","[0.02,0.02]",183.192,0,34,34,118,1,,,,,,,
,,,,,,,6153fe02f96d83a510c3c92b,682f0fcd0f2dbc15cc257951,2025-05-22_13h52.18.053,cuing_paradigm_dot,2024.1.5,Win32,59.88023952,682d573fa47f1360d1451895,,,,,,,,,,,183.1925,183.6919,,,183.9318,184.2943,left,0.336,,,,,,,,,0.9,,,,,,183.6919,183.9316,184.2944,"[-0.17760048736840112,0.07925980462176259]","[1,1,1]","[0.09527556051870988,0.04056934282940399]","[1,1,1]","[-0.09737613915052368,-0.09695256869966862]","[1,1,1]","[-0.1365676974839631,-0.126131456780486]","[1,1,1]","[0.06023425652871762,0.1732419685609105]","[1,1,1]","[-0.03665064893888594,-0.15224691834763157]","[1,1,1]","[0.07216508693179702,0.10828143993971202]","[1,1,1]","[-0.0006701624565904976,0.08582923958531759]","[-1,-1,-1]","[-0.07497021428070731,0.022166030097052116]","[1,1,1]","[0.020198680359416275,0.17045563340152345]","[1,1,1]","[0.03734341799116061,-0.004719114349638384]","[1,1,1]","[0.01620128276132173,-0.13589723322877617]","[1,1,1]","[0.022859887535426993,-0.06647435426459639]","[1,1,1]","[-0.079192214648283,0.08861386652506861]","[1,1,1]","[-0.01486938555424286,-0.08138054644015602]","[1,1,1]","[-0.12029854121729731,0.0807920732856211]","[1,1,1]","[0.03416188921386295,-0.19107751479654414]","[1,1,1]","[-0.03068371283479434,0.12176584121893934]","[1,1,1]","[0.11102990489282068,-0.15147854956538084]","[1,1,1]","[0.04818193401192015,0.05526587188874909]","[-1,-1,-1]","[-0.14253353264568802,-0.03739449074539219]","[1,1,1]","[0.06284844493064125,-0.1523838861306879]","[1,1,1]","[0.16913366716474143,0.026252309548857294]","[1,1,1]","[-0.12121219968867104,0.1583903065116221]","[1,1,1]","[0.17321496444768716,-0.017412763627483382]","[-1,-1,-1]","[0.12736553442641718,0.10187340545927841]","[1,1,1]","[-0.11257159932588126,0.03663764956240887]","[1,1,1]","[0.10456555039486388,-0.08187964734550958]","[1,1,1]","[-0.1652820057703681,0.008378709116817174]","[1,1,1]","[0.13477196910489825,0.056354969527199296]","[1,1,1]","[0.10014017210380337,-0.03704301986520918]","[1,1,1]","[0.1636005799996658,-0.06223485248343664]","[1,1,1]","[0.02,0.02]",185.3938,0,35,35,185,1,,,,,,,
,,,,,,,6153fe02f96d83a510c3c92b,682f0fcd0f2dbc15cc257951,2025-05-22_13h52.18.053,cuing_paradigm_dot,2024.1.5,Win32,59.88023952,682d573fa47f1360d1451895,,,,,,,,,,,185.3946,185.8939,,,186.1562,186.7296,right,0.5516,,,,,,,,,0.4,,,,,,185.8939,186.1561,186.7297,"[0.05657801004425463,0.16666817541604442]","[-1,-1,-1]","[-0.11906221539411835,0.056357071662145396]","[1,1,1]","[0.16775462874997193,-0.02312940327141394]","[-1,-1,-1]","[0.08199366383406818,0.06739876500215577]","[-1,-1,-1]","[0.1141410533418511,-0.08187539774492553]","[1,1,1]","[0.020966249271940362,0.08519622979546454]","[-1,-1,-1]","[0.10172696765550436,-0.007402750108773668]","[-1,-1,-1]","[-0.04736221506161814,0.16066468794787034]","[1,1,1]","[0.04965702173623559,-0.1794591929849389]","[1,1,1]","[0.03289991832247311,-0.02105929554992785]","[1,1,1]","[0.13339425735084515,0.13189773769569355]","[-1,-1,-1]","[0.13747502383678561,0.0724746639726951]","[-1,-1,-1]","[-0.055215104776864386,-0.1617242346920006]","[-1,-1,-1]","[0.028557697058366957,0.022690198068924073]","[-1,-1,-1]","[-0.09798949900813096,0.16827040034516727]","[-1,-1,-1]","[-0.02748051317175511,-0.10552275204197235]","[1,1,1]","[-0.120064392971576,-0.003588049154762964]","[1,1,1]","[-0.049156303743659764,-0.034213904457708486]","[-1,-1,-1]","[-0.15552910166889475,0.10045397087218093]","[1,1,1]","[-0.07589511225830532,0.1007400249135184]","[1,1,1]","[0.011722709879190671,0.17783823598710527]","[-1,-1,-1]","[-0.1157659706280364,0.12010175397144962]","[-1,-1,-1]","[-0.06729706938399993,-0.09347845873702175]","[-1,-1,-1]","[-0.058001002457630305,0.04924868227383311]","[1,1,1]","[0.08873692841889921,-0.14393487082816983]","[-1,-1,-1]","[-0.11482204777878786,-0.1013429425154525]","[1,1,1]","[0.06263618939765869,-0.10275712907655417]","[1,1,1]","[-0.18118184535031903,0.033562732368260434]","[1,1,1]","[-0.18381955885772255,-0.04027628196541437]","[-1,-1,-1]","[0.06674937682470532,0.1222487933441476]","[-1,-1,-1]","[0.004780163852317316,0.13097701422684538]","[-1,-1,-1]","[0.06958767696447403,0.02907505790909524]","[-1,-1,-1]","[0.02,0.02]",187.8302,0,36,36,48,1,,,,,,,
,,,,,,,6153fe02f96d83a510c3c92b,682f0fcd0f2dbc15cc257951,2025-05-22_13h52.18.053,cuing_paradigm_dot,2024.1.5,Win32,59.88023952,682d573fa47f1360d1451895,,,,,,,,,,,187.8317,188.3296,,,188.5844,189.1145,left,0.503,,,,,,,,,0.6,,,,,,188.3296,188.5843,189.1146,"[0.07543356894810462,0.018747104398657895]","[-1,-1,-1]","[-0.02074127337211652,0.15632293710281575]","[-1,-1,-1]","[0.108558911893559,-0.08194771157775492]","[-1,-1,-1]","[-0.1299243710962996,0.013829768479606036]","[-1,-1,-1]","[0.030708784992174533,0.0003993825310425754]","[1,1,1]","[-0.08456836941107547,-0.05834395781795682]","[1,1,1]","[-0.02809132618973699,-0.14742421948351211]","[-1,-1,-1]","[0.031059479796178548,0.17096871442232833]","[-1,-1,-1]","[0.18576349216770174,0.06463623668767665]","[1,1,1]","[-0.12826966748926882,-0.02862684579126611]","[-1,-1,-1]","[-0.03146936933376536,-0.07880309882388371]","[1,1,1]","[-0.15474693948018392,0.1030304921154079]","[-1,-1,-1]","[-0.09279135707716243,0.14218995107583574]","[1,1,1]","[0.05697842574490986,-0.1355061705912423]","[1,1,1]","[-0.10437829851956681,0.10062552737889047]","[1,1,1]","[0.06659977303855792,-0.07429461445958478]","[1,1,1]","[0.07167929834700276,0.12320869655077828]","[1,1,1]","[0.11064859544166018,-0.13172458897975825]","[1,1,1]","[-0.06557900364206681,-0.11318109469618966]","[1,1,1]","[-0.12788955557543083,-0.07470480809832665]","[-1,-1,-1]","[0.1359177345799923,0.1234125363308831]","[1,1,1]","[0.10406317464943822,-0.024195226901798428]","[-1,-1,-1]","[-0.0022209939109650795,0.0457153936365631]","[-1,-1,-1]","[0.10799734370551348,0.15351377547139317]","[1,1,1]","[0.15139707048561937,0.036345051186180005]","[-1,-1,-1]","[0.16954197005569965,-0.03885154278199267]","[-1,-1,-1]","[-0.05094020079590107,-0.1810862168550595]","[1,1,1]","[-0.05690983842323109,-0.023071250014232318]","[1,1,1]","[-0.03836031434630276,0.07776033211193971]","[1,1,1]","[-0.19379719212669647,-0.02386177513513051]","[1,1,1]","[0.15092176531547313,-0.11951784489822495]","[1,1,1]","[0.0016825266426754306,-0.047190518994496874]","[1,1,1]","[0.02,0.02]",190.2148,0,37,37,179,1,,,,,,,
,,,,,,,6153fe02f96d83a510c3c92b,682f0fcd0f2dbc15cc257951,2025-05-22_13h52.18.053,cuing_paradigm_dot,2024.1.5,Win32,59.88023952,682d573fa47f1360d1451895,,,,,,,,,,,190.2153,190.7154,,,190.9583,191.3212,left,0.3445,,,,,,,,,0.9,,,,,,190.7154,190.9582,191.3212,"[0.1729258655370137,0.09209673100037587]","[1,1,1]","[-0.14989888333793583,-0.0635032950651796]","[1,1,1]","[-0.06257616065671728,0.10642032709269375]","[1,1,1]","[0.07383608957724162,-0.1743117993274902]","[1,1,1]","[0.010896712130487667,0.036618098971592315]","[1,1,1]","[0.034663303591060894,-0.13018739466178136]","[1,1,1]","[-0.01577569437193175,-0.16450989835795754]","[-1,-1,-1]","[0.19314060883940554,0.008688406337049974]","[1,1,1]","[-0.14665436224845002,0.03749474864307921]","[-1,-1,-1]","[0.07264338442914338,0.04558883157885615]","[-1,-1,-1]","[0.1309602527626247,-0.12476081771882969]","[1,1,1]","[-0.10394431600030023,0.03234125021093682]","[1,1,1]","[-0.1008082586614716,0.1465532897334722]","[1,1,1]","[-0.0032067944115105017,-0.03170011617904081]","[1,1,1]","[-0.18718793253457583,0.06454615828803205]","[1,1,1]","[-0.005031279575291351,-0.08959682514422804]","[1,1,1]","[0.08837305725090414,0.12166204424769772]","[1,1,1]","[0.08508745544109697,-0.03728459215734455]","[1,1,1]","[0.16790189586024623,0.05002270451961285]","[1,1,1]","[-0.0072194525197644115,0.1154036623638523]","[1,1,1]","[-0.13899723812322953,0.08068582902269571]","[1,1,1]","[-0.07609818309536644,-0.14682705058045525]","[1,1,1]","[-0.059123071035910045,0.1847694909305545]","[1,1,1]","[-0.11082244202694402,-0.09601967766133566]","[1,1,1]","[-0.02517961583172355,0.07533165894467024]","[1,1,1]","[-0.18669370414744726,0.008466317299260442]","[1,1,1]","[0.051473359063710644,-0.07296873176013194]","[1,1,1]","[0.15423718174742068,-0.0747188465974397]","[1,1,1]","[-0.055054640213573515,-0.03897398368455457]","[1,1,1]","[0.05119013894840362,0.1808178495673576]","[1,1,1]","[0.020386762738178386,0.15159911794638323]","[1,1,1]","[-0.16372937791258482,-0.10711055582199068]","[1,1,1]","[0.02,0.02]",192.4172,0,38,38,181,1,,,,,,,
,,,,,,,6153fe02f96d83a510c3c92b,682f0fcd0f2dbc15cc257951,2025-05-22_13h52.18.053,cuing_paradigm_dot,2024.1.5,Win32,59.88023952,682d573fa47f1360d1451895,,,,,,,,,,,192.4178,192.9176,,,193.1623,193.4859,right,0.302,,,,,,,,,0.1,,,,,,192.9176,193.1622,193.4859,"[0.1880132440839724,0.023094787257146955]","[-1,-1,-1]","[0.02952958399175774,0.11866160387184144]","[-1,-1,-1]","[0.004304478813994607,-0.033278773826432385]","[-1,-1,-1]","[-0.09467532932301731,0.08786980722805589]","[-1,-1,-1]","[-0.08810838951035435,-0.022873944392446378]","[-1,-1,-1]","[0.06234346076989475,-0.16906290900990248]","[-1,-1,-1]","[-0.036408364327131175,0.18522860506010763]","[-1,-1,-1]","[0.027829949821553828,0.03885804490393223]","[-1,-1,-1]","[0.176684517465446,-0.06667585493474405]","[-1,-1,-1]","[0.17759919446467065,0.06832136382462689]","[-1,-1,-1]","[0.17756807830615526,-0.018665798461265766]","[-1,-1,-1]","[0.05299120705348485,-0.010179674926001197]","[-1,-1,-1]","[-0.11914963364358058,-0.08052627560038902]","[1,1,1]","[-0.18884288275312142,-0.04013221379522538]","[-1,-1,-1]","[-0.06595990524056534,-0.1359638254352951]","[-1,-1,-1]","[0.09148687241786041,0.06258112110768893]","[-1,-1,-1]","[-0.1862866535113876,0.0027409660743508584]","[-1,-1,-1]","[-0.07945057265730297,0.02918471710123644]","[-1,-1,-1]","[-0.1417216330715148,0.12474317321155294]","[-1,-1,-1]","[-0.022829917253185113,0.12921048333296617]","[-1,-1,-1]","[0.01112721401009251,-0.17034733563525034]","[-1,-1,-1]","[0.127280504919029,0.026390467188349594]","[1,1,1]","[0.06789207138292902,0.09637716957486563]","[-1,-1,-1]","[0.09565369068020742,0.17144542391732331]","[-1,-1,-1]","[-0.13783900353638454,0.012870158164409878]","[-1,-1,-1]","[0.015393509846482236,-0.125632198585547]","[-1,-1,-1]","[0.13537003350387636,-0.08770317277748854]","[-1,-1,-1]","[0.15473373847897642,0.1240744904405811]","[-1,-1,-1]","[-0.019548749657250057,-0.07975182685205971]","[-1,-1,-1]","[-0.042291213735009686,-0.000684297024145612]","[-1,-1,-1]","[-0.08530272060006239,0.17500185571926022]","[-1,-1,-1]","[-0.03461793781286006,-0.1962733608071613]","[1,1,1]","[0.02,0.02]",194.5864,0,39,39,24,1,,,,,,,
,,,,,,,6153fe02f96d83a510c3c92b,682f0fcd0f2dbc15cc257951,2025-05-22_13h52.18.053,cuing_paradigm_dot,2024.1.5,Win32,59.88023952,682d573fa47f1360d1451895,,,,,,,,,,,194.5871,195.0869,,,195.3297,195.6546,right,0.3021,,,,,,,,,0.1,,,,,,195.087,195.3297,195.6547,"[-0.10975434763816232,0.11919324904246313]","[-1,-1,-1]","[0.09642390844182934,0.03797377576603318]","[-1,-1,-1]","[0.0232703149620511,0.17904591323139002]","[-1,-1,-1]","[-0.1267230537894564,0.03383110802481176]","[-1,-1,-1]","[0.02314499913112706,-0.18466491193203483]","[-1,-1,-1]","[-0.17751619954655654,-0.04280604353032174]","[-1,-1,-1]","[0.023669403321788074,-0.13979307823145357]","[-1,-1,-1]","[-0.07707150296462242,-0.05667520348814042]","[-1,-1,-1]","[-0.11272186987419157,-0.09625742761867144]","[-1,-1,-1]","[-0.054075138748662495,-0.1559502770981442]","[-1,-1,-1]","[0.09379224640379624,-0.08275062267685582]","[-1,-1,-1]","[0.07202065092121429,0.07468929897763678]","[-1,-1,-1]","[-0.03489624859863172,-0.04744399485186049]","[-1,-1,-1]","[0.135842709315555,-0.07422380802171942]","[-1,-1,-1]","[-0.09871303410710577,-0.018361726877068843]","[-1,-1,-1]","[0.06690174507534073,-0.04151553506523963]","[-1,-1,-1]","[-0.02363317777699695,0.137954974894853]","[-1,-1,-1]","[0.1729889550841496,0.06827230400995316]","[-1,-1,-1]","[-0.08194410817794384,0.04883272569519551]","[1,1,1]","[0.01188780475826883,0.05339476947022881]","[-1,-1,-1]","[0.11875823818974719,0.15257819809338705]","[-1,-1,-1]","[0.05277743342460966,0.14160270277893436]","[-1,-1,-1]","[0.15388198828186883,-0.03315068552187915]","[-1,-1,-1]","[0.056384608622949584,0.0356121467463024]","[-1,-1,-1]","[-0.02184870360887548,0.004367955202374436]","[-1,-1,-1]","[-0.06090276262444481,0.10807776807777764]","[-1,-1,-1]","[0.028471320294675886,0.09470735338779832]","[-1,-1,-1]","[-0.020144154957562558,-0.09126061629745445]","[-1,-1,-1]","[0.1110758413398316,-0.12450283499212557]","[1,1,1]","[-0.16209064241282656,-0.0846951997366409]","[-1,-1,-1]","[-0.11103583142998419,0.07913678448709474]","[1,1,1]","[0.129757923859363,0.0005256685588289836]","[-1,-1,-1]","[0.02,0.02]",196.7552,0,40,40,5,1,,,,,,,
,,,,,,,6153fe02f96d83a510c3c92b,682f0fcd0f2dbc15cc257951,2025-05-22_13h52.18.053,cuing_paradigm_dot,2024.1.5,Win32,59.88023952,682d573fa47f1360d1451895,,,,,,,,,,,196.7558,197.2556,,,197.5159,197.9567,left,0.4185,,,,,,,,,0.5,,,,,,197.2557,197.5159,197.9568,"[0.06643070456917519,0.14184698482449287]","[-1,-1,-1]","[0.07269725946501454,-0.09422818181715205]","[-1,-1,-1]","[-0.09567581590812754,-0.10046101195843489]","[1,1,1]","[-0.011310447634785649,-0.14312927357487076]","[-1,-1,-1]","[0.06678315897749955,-0.027649336725700423]","[-1,-1,-1]","[0.019393069321550258,-0.04294692962254653]","[-1,-1,-1]","[0.05062295866099154,-0.16694776999079705]","[1,1,1]","[-0.09625255948845501,0.11410077602946839]","[1,1,1]","[0.130938972076039,0.011768005796271935]","[-1,-1,-1]","[0.19688436928455672,-0.01535688599391925]","[1,1,1]","[-0.007404543352372773,0.1854569032762505]","[-1,-1,-1]","[0.17660899945108416,0.08831063593943428]","[1,1,1]","[-0.05612895897552272,-0.12770930961844731]","[-1,-1,-1]","[-0.10419184964981841,-0.029180995577523267]","[1,1,1]","[0.016625295688656942,0.0040918863941173085]","[1,1,1]","[-0.07733203075206439,0.008291967128942257]","[1,1,1]","[-0.05488954777828438,-0.19037821816391723]","[1,1,1]","[0.14372779207181538,-0.06621820439117318]","[1,1,1]","[0.031093282159354665,-0.11966336335665159]","[1,1,1]","[0.11195163173356076,0.11788479089311472]","[1,1,1]","[-0.14216691838651083,0.14054370629691698]","[1,1,1]","[0.1437067539257595,-0.10643717521702599]","[-1,-1,-1]","[-0.08640240168210161,0.16260061955015825]","[-1,-1,-1]","[-0.0154050372367905,0.09208416202381241]","[-1,-1,-1]","[-0.11845552265113996,-0.06738985542036945]","[1,1,1]","[-0.17269527824173342,0.0019389467438803946]","[-1,-1,-1]","[0.06346232116228717,0.05809288636691945]","[-1,-1,-1]","[-0.0641034643511762,-0.042578305368930515]","[1,1,1]","[-0.03241521825075801,0.025878277550590655]","[-1,-1,-1]","[0.03587162451476576,0.18117268264715347]","[-1,-1,-1]","[-0.1802233566388777,0.05001142022027367]","[-1,-1,-1]","[-0.024353000423948685,-0.05571419037697375]","[1,1,1]","[0.02,0.02]",199.0575,0,41,41,105,1,,,,,,,
,,,,,,,6153fe02f96d83a510c3c92b,682f0fcd0f2dbc15cc257951,2025-05-22_13h52.18.053,cuing_paradigm_dot,2024.1.5,Win32,59.88023952,682d573fa47f1360d1451895,,,,,,,,,,,199.0584,199.558,,,199.8079,200.3608,right,0.521,,,,,,,,,0.1,,,,,,199.5581,199.8079,200.361,"[-0.1640221041294617,0.08642972040225765]","[-1,-1,-1]","[0.11680064132044929,-0.0073639445131877986]","[-1,-1,-1]","[-0.0655196603848343,-0.140980171926213]","[-1,-1,-1]","[-0.11260331523140664,-0.08558812493144068]","[-1,-1,-1]","[0.07788466933483047,-0.0616731348931085]","[1,1,1]","[0.17395292758310912,0.07842641211460723]","[-1,-1,-1]","[0.0021983709813951065,0.14271255565575502]","[-1,-1,-1]","[0.019532505904779632,0.050615363863915463]","[-1,-1,-1]","[0.13485806592293387,0.0908549462081503]","[-1,-1,-1]","[-0.14284289266774583,0.019336551407385497]","[-1,-1,-1]","[-0.1659240158244131,-0.04581721930671713]","[-1,-1,-1]","[0.06631031753512094,0.032082116953029136]","[-1,-1,-1]","[-0.0891557609472666,0.05989608341846501]","[-1,-1,-1]","[0.17454714158000326,0.016085271096862298]","[-1,-1,-1]","[0.0017876436562516646,-0.007731698460463097]","[-1,-1,-1]","[-0.040562190804825704,-0.0022340847640713473]","[-1,-1,-1]","[0.12927387741908428,-0.09516487124527145]","[-1,-1,-1]","[-0.0865052833920022,-0.005345745650695816]","[-1,-1,-1]","[-0.15657796207891253,-0.12093651984443336]","[-1,-1,-1]","[-0.06865068936738897,0.10982624550285558]","[-1,-1,-1]","[0.04187514879054413,-0.16933967564570093]","[-1,-1,-1]","[-0.10038575007849317,-0.16191129948499883]","[1,1,1]","[0.029832707906307956,-0.07144562880291754]","[-1,-1,-1]","[-0.039026940297710755,0.14016756987905613]","[1,1,1]","[-0.14946297858846805,0.13058760057800195]","[-1,-1,-1]","[0.08735259943391109,-0.12628787204010938]","[-1,-1,-1]","[0.12390730324497892,0.12973726502454347]","[-1,-1,-1]","[-0.025521010441058905,-0.046195407014476005]","[-1,-1,-1]","[0.035819454310855856,0.19167115231140303]","[-1,-1,-1]","[0.04498628863224992,0.11468565849965875]","[-1,-1,-1]","[0.1895824069947935,-0.0334232126351857]","[-1,-1,-1]","[-0.18704713124464398,0.021037993435313943]","[-1,-1,-1]","[0.02,0.02]",201.4602,0,42,42,14,1,,,,,,,
,,,,,,,6153fe02f96d83a510c3c92b,682f0fcd0f2dbc15cc257951,2025-05-22_13h52.18.053,cuing_paradigm_dot,2024.1.5,Win32,59.88023952,682d573fa47f1360d1451895,,,,,,,,,,,201.4608,201.96,,,202.2043,202.6785,left,0.452,,,,,,,,,0.55,,,,,,201.9602,202.2042,202.6786,"[0.020277630135014768,0.025906664523160622]","[1,1,1]","[0.15953837673062723,0.05924096040626678]","[1,1,1]","[0.12270536000195445,0.15128754939830277]","[1,1,1]","[-0.1795804012697619,0.011024854538102705]","[-1,-1,-1]","[-0.11223097197558084,0.0877738578942103]","[-1,-1,-1]","[0.046428064627757074,0.11612308999322733]","[-1,-1,-1]","[0.15890656217748989,-0.11915574518159198]","[-1,-1,-1]","[0.006516189441059267,0.136410572274414]","[1,1,1]","[0.09111052747117591,-0.16654067253533403]","[1,1,1]","[0.16265761442322216,-0.007802362128531338]","[-1,-1,-1]","[-0.16242926226693488,0.07229019557233744]","[1,1,1]","[-0.0685539793681913,-0.11483429663138645]","[1,1,1]","[0.054873122515695774,-0.08893821891199283]","[-1,-1,-1]","[-0.057957396163701484,0.08479419488895854]","[-1,-1,-1]","[0.11430881402622677,0.10064353959631218]","[-1,-1,-1]","[-0.0985835909520862,-0.009114913635121812]","[1,1,1]","[-0.07126106746717438,-0.04481553872078889]","[1,1,1]","[0.087779088529398,-0.11934211252260875]","[1,1,1]","[-0.025454356667090897,-0.08556314482189742]","[-1,-1,-1]","[-0.07311920524570362,0.16874773327993614]","[-1,-1,-1]","[-0.0672322509880303,0.12493415919772251]","[-1,-1,-1]","[-0.1453686395094225,-0.09709631496798705]","[1,1,1]","[-0.05601775796247989,0.0007839970991866602]","[1,1,1]","[-0.05293960369208153,-0.16714412592392722]","[-1,-1,-1]","[0.11899677683681555,0.04605473549855795]","[-1,-1,-1]","[-0.005812624833045313,-0.1626188465795524]","[1,1,1]","[-0.10756704063312986,0.03231100134315496]","[-1,-1,-1]","[-0.11997712631408018,-0.15823139771275815]","[1,1,1]","[0.07918589274227085,0.15661507604309957]","[1,1,1]","[0.12749924285935033,-0.07274549701982881]","[1,1,1]","[0.014593199682362853,-0.024293727516130476]","[1,1,1]","[-0.0992619208188532,-0.0838457519130443]","[1,1,1]","[0.02,0.02]",203.7785,0,43,43,142,1,,,,,,,
,,,,,,,6153fe02f96d83a510c3c92b,682f0fcd0f2dbc15cc257951,2025-05-22_13h52.18.053,cuing_paradigm_dot,2024.1.5,Win32,59.88023952,682d573fa47f1360d1451895,,,,,,,,,,,203.779,204.2841,,,204.5403,205.2143,right,0.6593,,,,,,,,,0.45,,,,,,204.2842,204.5403,205.2144,"[-0.031054969456612763,0.10446180915558716]","[1,1,1]","[-0.07042948378089915,-0.10566702997617035]","[-1,-1,-1]","[0.07581049434377711,0.07436046740483766]","[-1,-1,-1]","[-0.176143578726795,-0.0016359429940886736]","[-1,-1,-1]","[-0.1798942233487388,0.03884489322965897]","[1,1,1]","[0.17107098647886437,-0.035978003675425536]","[1,1,1]","[-0.0246636793621244,0.16658964644464105]","[1,1,1]","[-0.14546461026285945,0.06184785861658801]","[-1,-1,-1]","[0.09189065154804395,-0.0637377873242443]","[-1,-1,-1]","[-0.04061328741531576,-0.005377875833592085]","[1,1,1]","[0.05106915545003404,-0.020738917393319668]","[-1,-1,-1]","[-0.1517316365427829,0.1272137103699647]","[-1,-1,-1]","[0.0021125037303147305,-0.18334227416177798]","[-1,-1,-1]","[0.05532019521398094,-0.11509596007352045]","[1,1,1]","[0.1377563783423794,0.11109122557014191]","[1,1,1]","[-0.11140193219105589,0.10179943115599266]","[-1,-1,-1]","[-0.04512682449299436,-0.15672126866621422]","[-1,-1,-1]","[-0.12858701565108777,-0.04561932815993806]","[1,1,1]","[-0.08486919413140596,0.1511094412377843]","[1,1,1]","[-0.06929010871135778,0.04127747709267365]","[1,1,1]","[0.04051479322375292,-0.07386327606987865]","[-1,-1,-1]","[0.0983312785719478,0.04086663060539783]","[-1,-1,-1]","[0.04858778656575448,0.14731947467533255]","[-1,-1,-1]","[0.041089323442672666,0.0317247365554443]","[-1,-1,-1]","[-0.054509493362612946,-0.06654374284796531]","[-1,-1,-1]","[0.16136178860335956,0.04074587705250746]","[-1,-1,-1]","[0.024623086166838986,0.07170100898107142]","[1,1,1]","[0.04869018342949998,-0.18449447996894744]","[-1,-1,-1]","[0.13399428564377147,-0.0984984121050404]","[1,1,1]","[0.10020332262410009,-0.012798392006320632]","[1,1,1]","[0.02248735901883413,-0.14724542136913235]","[-1,-1,-1]","[-0.17795729146539668,-0.09036180258839209]","[1,1,1]","[0.02,0.02]",206.3145,0,44,44,84,1,,,,,,,
