right,left,explain.started,explain.stopped,key_resp_3.keys,key_resp_3.rt,key_resp_3.duration,participant,session,date,expName,psychopyVersion,OS,frameRate,study_id,explain_2.started,explain_2.stopped,key_resp_4.keys,key_resp_4.rt,key_resp_4.duration,explain_3.started,explain_3.stopped,key_resp_5.keys,key_resp_5.rt,key_resp_5.duration,fixation.started,fixation.stopped,practice.started,practice.stopped,response.started,response.stopped,key_resp.keys,key_resp.rt,key_resp.duration,feedback.started,feedback.stopped,trials_2.thisRepN,trials_2.thisTrialN,trials_2.thisN,trials_2.thisIndex,trials_2.ran,white_ratio,explain_4.started,explain_4.stopped,key_resp_6.keys,key_resp_6.rt,key_resp_6.duration,dotDisplay.started,dotDisplay.stopped,ITI.started,polygon_1.pos,polygon_1.color,polygon_2.pos,polygon_2.color,polygon_3.pos,polygon_3.color,polygon_4.pos,polygon_4.color,polygon_5.pos,polygon_5.color,polygon_6.pos,polygon_6.color,polygon_7.pos,polygon_7.color,polygon_8.pos,polygon_8.color,polygon_9.pos,polygon_9.color,polygon_10.pos,polygon_10.color,polygon_11.pos,polygon_11.color,polygon_12.pos,polygon_12.color,polygon_13.pos,polygon_13.color,polygon_14.pos,polygon_14.color,polygon_15.pos,polygon_15.color,polygon_16.pos,polygon_16.color,polygon_17.pos,polygon_17.color,polygon_18.pos,polygon_18.color,polygon_19.pos,polygon_19.color,polygon_20.pos,polygon_20.color,polygon_21.pos,polygon_21.color,polygon_22.pos,polygon_22.color,polygon_23.pos,polygon_23.color,polygon_24.pos,polygon_24.color,polygon_25.pos,polygon_25.color,polygon_26.pos,polygon_26.color,polygon_27.pos,polygon_27.color,polygon_28.pos,polygon_28.color,polygon_29.pos,polygon_29.color,polygon_30.pos,polygon_30.color,polygon_31.pos,polygon_31.color,polygon_32.pos,polygon_32.color,dot_size,ITI.stopped,trials.thisRepN,trials.thisTrialN,trials.thisN,trials.thisIndex,trials.ran,break_2.started,break_2.stopped,trials_3.thisRepN,trials_3.thisTrialN,trials_3.thisN,trials_3.thisIndex,trials_3.ran
subject chose white,subject chose black,0.0003,746.7735,space,731.7626,,615e9c2b293734ccc98eb126,682db417f255cfae6d4df9a9,2025-05-21_13h08.20.684,cuing_paradigm_dot,2024.1.5,Win32,60.24096386,682d556593cb38ad0a074487,,,,,,,,,,,,,,,,,,,,,,,,,,,,,,,,,,,,,,,,,,,,,,,,,,,,,,,,,,,,,,,,,,,,,,,,,,,,,,,,,,,,,,,,,,,,,,,,,,,,,,,,,,,,,,,,,
,,,,,,,615e9c2b293734ccc98eb126,682db417f255cfae6d4df9a9,2025-05-21_13h08.20.684,cuing_paradigm_dot,2024.1.5,Win32,60.24096386,682d556593cb38ad0a074487,746.7738,786.6515,space,9.8554,,,,,,,,,,,,,,,,,,,,,,,,,,,,,,,,,,,,,,,,,,,,,,,,,,,,,,,,,,,,,,,,,,,,,,,,,,,,,,,,,,,,,,,,,,,,,,,,,,,,,,,,,,,,,
,,,,,,,615e9c2b293734ccc98eb126,682db417f255cfae6d4df9a9,2025-05-21_13h08.20.684,cuing_paradigm_dot,2024.1.5,Win32,60.24096386,682d556593cb38ad0a074487,,,,,,786.6518,789.9852,space,0.3139,,,,,,,,,,,,,,,,,,,,,,,,,,,,,,,,,,,,,,,,,,,,,,,,,,,,,,,,,,,,,,,,,,,,,,,,,,,,,,,,,,,,,,,,,,,,,,,,,,,,,,,,
,,,,,,,615e9c2b293734ccc98eb126,682db417f255cfae6d4df9a9,2025-05-21_13h08.20.684,cuing_paradigm_dot,2024.1.5,Win32,60.24096386,682d556593cb38ad0a074487,,,,,,,,,,,790.0066,790.5013,790.5017,790.7506,790.7506,791.6007,right,0.8231,,791.6012,792.7012,0,0,0,0,1,0.8,,,,,,,,,,,,,,,,,,,,,,,,,,,,,,,,,,,,,,,,,,,,,,,,,,,,,,,,,,,,,,,,,,,,,,,,,,,,,,,,,,,,,,
,,,,,,,615e9c2b293734ccc98eb126,682db417f255cfae6d4df9a9,2025-05-21_13h08.20.684,cuing_paradigm_dot,2024.1.5,Win32,60.24096386,682d556593cb38ad0a074487,,,,,,,,,,,792.7019,793.2005,793.2008,793.4527,793.4527,793.9344,left,0.4515,,793.9347,795.0339,0,1,1,1,1,0.2,,,,,,,,,,,,,,,,,,,,,,,,,,,,,,,,,,,,,,,,,,,,,,,,,,,,,,,,,,,,,,,,,,,,,,,,,,,,,,,,,,,,,,
,,,,,,,615e9c2b293734ccc98eb126,682db417f255cfae6d4df9a9,2025-05-21_13h08.20.684,cuing_paradigm_dot,2024.1.5,Win32,60.24096386,682d556593cb38ad0a074487,,,,,,,,,,,,,,,,,,,,,,,,,,,,795.0347,800.0347,space,1.9754,,,,,,,,,,,,,,,,,,,,,,,,,,,,,,,,,,,,,,,,,,,,,,,,,,,,,,,,,,,,,,,,,,,,,,,,,,,,,,,,,,
,,,,,,,615e9c2b293734ccc98eb126,682db417f255cfae6d4df9a9,2025-05-21_13h08.20.684,cuing_paradigm_dot,2024.1.5,Win32,60.24096386,682d556593cb38ad0a074487,,,,,,,,,,,800.0507,800.5498,,,800.8076,801.4176,right,0.5848,,,,,,,,,0.45,,,,,,800.5507,800.8075,801.4182,"[0.01977186880920399,-0.025064494268013108]","[-1,-1,-1]","[-0.06761344311291187,0.18777135679051052]","[1,1,1]","[0.11566830469245099,-0.1015908451894128]","[1,1,1]","[-0.17602267740252597,-0.08481276146924224]","[1,1,1]","[0.009668768102107204,-0.06756599598175171]","[-1,-1,-1]","[-0.09720428555328517,0.08398676382770948]","[-1,-1,-1]","[0.08811995447893581,-0.16907953973326115]","[-1,-1,-1]","[0.08587850050758869,0.13523711534640578]","[1,1,1]","[-0.07864664067632726,-0.11574230445676778]","[-1,-1,-1]","[0.006839536987752585,0.1435867385397111]","[1,1,1]","[-0.023686718866831335,-0.10071330888822742]","[1,1,1]","[-0.0889563036047513,-0.02639921613457623]","[-1,-1,-1]","[-0.186532762861179,-0.021511190474563364]","[-1,-1,-1]","[-0.08562083716118436,-0.06745513730404712]","[1,1,1]","[-0.04452888625771361,0.041637931654456284]","[-1,-1,-1]","[0.03773245506469312,0.17942869835038106]","[1,1,1]","[-0.12536453116862475,0.05014444741646221]","[-1,-1,-1]","[-0.006162270344343022,0.19568173481896356]","[-1,-1,-1]","[0.17711979617246143,0.07909882532751834]","[1,1,1]","[-0.1248435798371633,-0.006323357391526907]","[-1,-1,-1]","[0.04795892964403076,-0.11464303466765312]","[-1,-1,-1]","[0.15335202599976297,0.1126309102752377]","[-1,-1,-1]","[0.018841780520835707,0.05533079211117195]","[1,1,1]","[0.059507464672611254,-0.033560781322661444]","[-1,-1,-1]","[0.1444896235254428,-0.13156658460199622]","[-1,-1,-1]","[0.05249365434364638,0.02412448288155471]","[-1,-1,-1]","[0.05744811850507675,0.08340703642204887]","[1,1,1]","[0.18895345832545407,-0.029366608434650745]","[1,1,1]","[-0.08091549040715718,0.13270001713824767]","[-1,-1,-1]","[-0.03515769680490026,-0.016051355424667877]","[-1,-1,-1]","[-0.1407996171501888,0.13646241840148093]","[1,1,1]","[-0.10393901254122027,-0.1666694676519819]","[1,1,1]","[0.02,0.02]",802.517,0,0,0,84,1,,,,,,,
,,,,,,,615e9c2b293734ccc98eb126,682db417f255cfae6d4df9a9,2025-05-21_13h08.20.684,cuing_paradigm_dot,2024.1.5,Win32,60.24096386,682d556593cb38ad0a074487,,,,,,,,,,,802.5179,803.0169,,,803.2659,803.5167,left,0.2174,,,,,,,,,0.1,,,,,,803.0171,803.2657,803.5168,"[-0.061455023580412306,-0.013436447926847358]","[-1,-1,-1]","[-0.09656882998241005,0.1489210918077028]","[-1,-1,-1]","[-0.061927607786870925,0.12551960899335338]","[-1,-1,-1]","[0.016628355957333033,0.0012685188099079954]","[-1,-1,-1]","[-0.038981863720365474,0.16293887744479107]","[-1,-1,-1]","[-0.19473740653872443,0.0020650661252080518]","[-1,-1,-1]","[-0.018918640157614453,-0.19342976911566886]","[1,1,1]","[0.11657658800998867,-0.014285270824977991]","[-1,-1,-1]","[0.06995424164699755,-0.11114380371814644]","[-1,-1,-1]","[-0.04427156686612223,0.07111137881886019]","[-1,-1,-1]","[-0.04233158867512389,-0.12416897176125603]","[-1,-1,-1]","[0.06921198909738696,0.07913163124282169]","[-1,-1,-1]","[0.03541072366558185,0.13595725002267953]","[-1,-1,-1]","[0.02636504314507502,0.08041620446991005]","[-1,-1,-1]","[0.08202834853198811,0.12592133616356949]","[1,1,1]","[0.14505064909000148,-0.11179984752673809]","[-1,-1,-1]","[-0.11829934742203206,-0.10997949166586]","[-1,-1,-1]","[-0.10635699200525593,0.09064064134698331]","[-1,-1,-1]","[0.12002600927951436,0.05386472425967604]","[-1,-1,-1]","[0.09199745571876145,-0.1708306367239301]","[-1,-1,-1]","[0.08146589318678188,0.029433145193163823]","[-1,-1,-1]","[-0.1507519934485108,0.010514305595032926]","[-1,-1,-1]","[-0.13118876814799119,0.1283009084231277]","[1,1,1]","[0.04600106463038574,-0.07618353708669696]","[-1,-1,-1]","[-0.14321521689789032,0.07142794605289687]","[-1,-1,-1]","[0.13415940979745172,0.09749155102471486]","[-1,-1,-1]","[0.1149139930838132,0.14897227633294294]","[-1,-1,-1]","[-0.10473297997308868,-0.007221184929281892]","[-1,-1,-1]","[-0.1592060924392411,-0.04147334202185835]","[-1,-1,-1]","[0.10093025435969896,-0.0642088191032496]","[-1,-1,-1]","[-0.01545085774228842,-0.059277757668541854]","[-1,-1,-1]","[-0.061497021648819115,0.029415186425286306]","[-1,-1,-1]","[0.02,0.02]",804.6169,0,1,1,2,1,,,,,,,
,,,,,,,615e9c2b293734ccc98eb126,682db417f255cfae6d4df9a9,2025-05-21_13h08.20.684,cuing_paradigm_dot,2024.1.5,Win32,60.24096386,682d556593cb38ad0a074487,,,,,,,,,,,804.6176,805.1169,,,805.3747,805.8504,right,0.4508,,,,,,,,,0.45,,,,,,805.117,805.3747,805.8506,"[0.07094413571233278,-0.1601987814200772]","[1,1,1]","[-0.060654766117655995,0.1862550286962425]","[1,1,1]","[-0.0130677916512414,0.1318729569105852]","[1,1,1]","[0.03024245649531666,-0.15278350536487112]","[1,1,1]","[0.18059608270960276,-0.07716814954688204]","[-1,-1,-1]","[-0.14577111230450626,0.10439037461939654]","[-1,-1,-1]","[0.042350594797750614,-0.04214114693940676]","[-1,-1,-1]","[-0.07743925589485333,0.01465147457859645]","[-1,-1,-1]","[0.04724712683023242,0.183746837333871]","[-1,-1,-1]","[0.08695168743530109,0.029759531020678954]","[1,1,1]","[0.07576549713128718,0.14894332841228664]","[-1,-1,-1]","[0.18551858259853224,0.02655039385000356]","[1,1,1]","[-0.08358211172736645,-0.17323563206749115]","[-1,-1,-1]","[-0.025973207750419135,-0.008181348042336858]","[-1,-1,-1]","[0.012136556779014736,0.0705963996454703]","[1,1,1]","[0.026894656932779717,0.024009671464365136]","[1,1,1]","[-0.15799349312268765,-0.049699868510388906]","[-1,-1,-1]","[-0.19172573016348543,-0.02074488859132758]","[-1,-1,-1]","[-0.10066976014171243,0.09001184465529603]","[1,1,1]","[0.0025321893565121,0.19789508648029003]","[1,1,1]","[0.1406204362948915,-0.050981610680397055]","[1,1,1]","[-0.017618847173591915,-0.11176992612109646]","[-1,-1,-1]","[-0.13106795151523484,-0.14724958437058325]","[-1,-1,-1]","[-0.02003051654276049,-0.05630922510401291]","[1,1,1]","[0.06687061085007619,-0.08540553694921518]","[-1,-1,-1]","[0.03130848474684997,0.1430025945738162]","[-1,-1,-1]","[-0.04616360921927664,0.046356436773597014]","[-1,-1,-1]","[-0.026927075514937174,0.08976827012539829]","[1,1,1]","[0.17251337910704925,0.07791724275688479]","[-1,-1,-1]","[0.10327818262757246,0.0769701625324323]","[1,1,1]","[-0.0637978527195219,-0.09587021826114084]","[-1,-1,-1]","[-0.05655217537179105,-0.1409413159782274]","[-1,-1,-1]","[0.02,0.02]",806.9498,0,2,2,60,1,,,,,,,
,,,,,,,615e9c2b293734ccc98eb126,682db417f255cfae6d4df9a9,2025-05-21_13h08.20.684,cuing_paradigm_dot,2024.1.5,Win32,60.24096386,682d556593cb38ad0a074487,,,,,,,,,,,806.9508,807.4497,,,807.6908,808.1005,right,0.3936,,,,,,,,,0.6,,,,,,807.4498,807.6908,808.1006,"[0.1384561466840457,-0.0998580453748098]","[-1,-1,-1]","[0.04121844415304884,-0.10066827938724515]","[1,1,1]","[0.06491159990776117,0.12740302487539482]","[1,1,1]","[0.11591633319153885,-0.16241731498805287]","[-1,-1,-1]","[0.053844911024586294,-0.05716524801784919]","[-1,-1,-1]","[0.1683526357839407,-0.02692472825253089]","[1,1,1]","[-0.06564786784449023,-0.06553225204835941]","[1,1,1]","[-0.1483248677150995,0.11809150511127242]","[-1,-1,-1]","[-0.08210841955809235,0.1409431421496165]","[1,1,1]","[0.11660550915582395,0.020251215066370086]","[-1,-1,-1]","[-0.11012263052266133,-0.09920120468576261]","[1,1,1]","[0.005853831768707656,-0.17022906404788266]","[-1,-1,-1]","[0.048799129718495995,0.023234121973000763]","[-1,-1,-1]","[-0.14386361572175727,0.0142766236192672]","[1,1,1]","[0.000010028238265875537,-0.045275386406762]","[1,1,1]","[-0.059930727569446986,0.17502195715372226]","[1,1,1]","[-0.03637727421658146,0.1324261335955629]","[1,1,1]","[-0.04809528866935448,-0.19232740379626204]","[1,1,1]","[0.16949910936584933,0.04685373920319154]","[1,1,1]","[0.10680888332972117,0.10690205129782082]","[1,1,1]","[-0.19015854955622008,0.03912281259792166]","[1,1,1]","[0.086946589068569,-0.020503018638876984]","[-1,-1,-1]","[-0.08791255131053026,-0.007260181467693997]","[-1,-1,-1]","[0.0017408003630506668,0.04824313728225078]","[1,1,1]","[0.08201686202513225,-0.12638631392567407]","[1,1,1]","[-0.04420760657431931,-0.13698327545892267]","[1,1,1]","[0.14643184798990416,0.0949713844208096]","[1,1,1]","[-0.14723530488080724,0.05914060880830644]","[-1,-1,-1]","[-0.10322622491015603,0.037012819999651496]","[-1,-1,-1]","[-0.0366849608369442,0.07861837333617834]","[1,1,1]","[-0.10963770485192012,-0.16654219804452142]","[-1,-1,-1]","[0.03964492748724204,0.07901826090720804]","[-1,-1,-1]","[0.02,0.02]",809.2001,0,3,3,174,1,,,,,,,
,,,,,,,615e9c2b293734ccc98eb126,682db417f255cfae6d4df9a9,2025-05-21_13h08.20.684,cuing_paradigm_dot,2024.1.5,Win32,60.24096386,682d556593cb38ad0a074487,,,,,,,,,,,809.2009,809.7001,,,809.9572,810.1996,left,0.2173,,,,,,,,,0.1,,,,,,809.7002,809.9571,810.1998,"[-0.025103119239704732,-0.04995444218024997]","[-1,-1,-1]","[0.003601331216713041,-0.11971357746669678]","[-1,-1,-1]","[0.07303609957547713,-0.09556238876980323]","[-1,-1,-1]","[0.13492496297333675,0.05365836081542754]","[-1,-1,-1]","[-0.18099345533354008,0.01065361837538882]","[-1,-1,-1]","[0.08460767072557289,0.15019797341475746]","[1,1,1]","[0.16838816218442657,-0.0806481092538966]","[-1,-1,-1]","[0.044587606763389694,0.14524901196959794]","[-1,-1,-1]","[-0.08647254452549295,-0.14509961490159845]","[1,1,1]","[0.14416278413038167,0.09891939663318693]","[-1,-1,-1]","[0.04887765443765925,0.01770312991952124]","[-1,-1,-1]","[0.09641063136790216,0.08507245666374144]","[-1,-1,-1]","[-0.05458203692264745,-0.17635436383236602]","[-1,-1,-1]","[-0.04019442339476306,0.08558598178731296]","[-1,-1,-1]","[0.18870857730573107,0.007551375422144147]","[-1,-1,-1]","[-0.0010119910847876086,0.008326762541119177]","[-1,-1,-1]","[-0.1143790334307231,0.0017125270783517473]","[-1,-1,-1]","[0.00470203526682988,-0.18876203878036008]","[-1,-1,-1]","[-0.18193403131918381,0.0680318408654516]","[-1,-1,-1]","[-0.08104590849465333,0.026937470053948184]","[-1,-1,-1]","[0.06198594138413442,-0.18146644869556428]","[-1,-1,-1]","[0.11214757501579625,-0.12901471144548401]","[-1,-1,-1]","[-0.09154909873453095,-0.07514891208875965]","[-1,-1,-1]","[0.026079933221138326,0.06280826554666506]","[-1,-1,-1]","[-0.057647917147284046,-0.10340261914390488]","[-1,-1,-1]","[-0.09594786824608195,0.08923983055899272]","[1,1,1]","[0.08197430380393221,0.04172026753199166]","[-1,-1,-1]","[-0.14895879171301263,-0.07555465259741329]","[-1,-1,-1]","[0.1222996582441332,-0.013044352482294276]","[-1,-1,-1]","[-0.14731932068401843,0.1117787292863371]","[-1,-1,-1]","[-0.033818882682086,0.1394477712639247]","[-1,-1,-1]","[0.032189845560192665,-0.06015356799904899]","[-1,-1,-1]","[0.02,0.02]",811.299,0,4,4,1,1,,,,,,,
,,,,,,,615e9c2b293734ccc98eb126,682db417f255cfae6d4df9a9,2025-05-21_13h08.20.684,cuing_paradigm_dot,2024.1.5,Win32,60.24096386,682d556593cb38ad0a074487,,,,,,,,,,,811.3002,811.7999,,,812.0568,812.3332,right,0.2515,,,,,,,,,0.9,,,,,,811.8001,812.0568,812.3334,"[-0.1254019526738218,-0.1415148443324028]","[1,1,1]","[-0.12560110125485852,0.07540697369698476]","[1,1,1]","[-0.013168818219800368,0.19201167939460634]","[1,1,1]","[-0.007780127028460075,-0.12865964722211176]","[1,1,1]","[0.08385953750265215,-0.18136578802817407]","[1,1,1]","[-0.16989615572717168,-0.027004510027648383]","[1,1,1]","[0.1639807176271231,0.02704567677569047]","[1,1,1]","[0.12418448918750748,-0.027439097597904624]","[1,1,1]","[-0.1805371847251757,0.026779561234828435]","[1,1,1]","[0.049050597798478514,-0.04846353484651312]","[1,1,1]","[-0.1809031283721483,0.07888856854129385]","[1,1,1]","[0.035576719137594005,-0.09589094602027534]","[1,1,1]","[0.10535584933481541,0.02620814954845397]","[1,1,1]","[0.022666249110632298,0.1356993629272405]","[1,1,1]","[0.16549360382445613,0.07528099216781292]","[1,1,1]","[-0.04432776890918908,0.035201910273315894]","[-1,-1,-1]","[-0.16986344874292614,-0.07127494783050516]","[1,1,1]","[-0.07477637838982162,0.1573554598488468]","[1,1,1]","[-0.12246023512513318,0.14392486440434046]","[1,1,1]","[0.11834766639259502,-0.0714376657569077]","[1,1,1]","[0.03570405392995972,0.004025272743236108]","[1,1,1]","[-0.007887558523391923,-0.19198011351009803]","[1,1,1]","[0.08024149951942526,0.07499493208026653]","[1,1,1]","[-0.05253645408966139,0.10765411320708533]","[1,1,1]","[0.05765809969417465,-0.1295397305978991]","[1,1,1]","[0.10572293505053788,-0.14588195879629373]","[-1,-1,-1]","[0.1773260373880543,-0.07560839479956877]","[1,1,1]","[-0.04080933897093154,-0.02618877979935662]","[-1,-1,-1]","[-0.1034024582553535,-0.03817103707109022]","[1,1,1]","[-0.04770872281244368,-0.1069435269470898]","[1,1,1]","[0.0041498910669904914,-0.025883304912122276]","[1,1,1]","[0.1116898628057673,0.15558923992977533]","[1,1,1]","[0.02,0.02]",813.4323,0,5,5,186,1,,,,,,,
,,,,,,,615e9c2b293734ccc98eb126,682db417f255cfae6d4df9a9,2025-05-21_13h08.20.684,cuing_paradigm_dot,2024.1.5,Win32,60.24096386,682d556593cb38ad0a074487,,,,,,,,,,,813.4334,813.9314,,,814.1731,814.4831,right,0.2843,,,,,,,,,0.9,,,,,,813.9315,814.1731,814.4832,"[-0.1183092037822169,-0.05193967788400909]","[-1,-1,-1]","[-0.08872947242058629,0.14409077035934312]","[1,1,1]","[-0.08334776588845962,-0.07225706709080905]","[1,1,1]","[-0.07821559930504554,0.18298594665673099]","[1,1,1]","[0.0378880751319376,-0.12132384876514303]","[1,1,1]","[0.08552301323193875,0.1501879808369358]","[1,1,1]","[0.1403133483618343,0.12246116869065096]","[1,1,1]","[-0.13729190227192598,0.04867689184363084]","[1,1,1]","[0.1035963622101925,0.028344123163080808]","[-1,-1,-1]","[0.053575837903323736,0.10553317242615659]","[1,1,1]","[-0.17244871953894156,0.012663449509898377]","[1,1,1]","[-0.033136392416545334,0.1429028275909834]","[1,1,1]","[-0.02929176186274883,0.19760979356816322]","[1,1,1]","[0.024886168130730087,0.008665483737037585]","[1,1,1]","[-0.08287552024142224,-0.16836645122686514]","[1,1,1]","[-0.11581483678645106,0.08395540821993369]","[1,1,1]","[0.17665134807397675,0.09001711199590254]","[1,1,1]","[0.008358701013418597,0.1270183539215751]","[1,1,1]","[-0.13470438294453702,0.12399585724700099]","[1,1,1]","[-0.15821865953486441,0.08734982405319155]","[1,1,1]","[0.1450156321789471,-0.09449746449160323]","[1,1,1]","[0.059088388280459245,-0.17122764028684204]","[1,1,1]","[0.14815654583825835,0.010744183720906911]","[1,1,1]","[0.023328793562115493,0.19283878761643838]","[1,1,1]","[-0.01638492790887799,-0.11520458132464398]","[1,1,1]","[0.17760960629088896,-0.026072275446369256]","[1,1,1]","[0.12010362412547172,-0.030420591768445953]","[1,1,1]","[-0.099929179689051,-0.11693628429877052]","[-1,-1,-1]","[0.13332510605852524,0.06716280295552303]","[1,1,1]","[-0.14673184188079078,-0.08324091734445478]","[1,1,1]","[-0.03487422554233781,-0.06467616276146418]","[1,1,1]","[-0.07787694700854385,0.02971189934799918]","[1,1,1]","[0.02,0.02]",815.5826,0,6,6,189,1,,,,,,,
,,,,,,,615e9c2b293734ccc98eb126,682db417f255cfae6d4df9a9,2025-05-21_13h08.20.684,cuing_paradigm_dot,2024.1.5,Win32,60.24096386,682d556593cb38ad0a074487,,,,,,,,,,,815.5835,816.0736,,,816.3154,816.8499,left,0.5015,,,,,,,,,0.45,,,,,,816.0736,816.3152,816.8499,"[-0.06688355967708465,0.12666151763619404]","[1,1,1]","[0.10445400815573773,0.10872634906260963]","[-1,-1,-1]","[-0.02722504764430411,0.15744379603123235]","[-1,-1,-1]","[-0.01192763796254878,-0.028984994647364887]","[1,1,1]","[0.06724626650672201,0.14064246830383426]","[-1,-1,-1]","[0.01680744125636917,-0.1979523000312788]","[1,1,1]","[-0.07779099533793084,-0.08579235256740474]","[1,1,1]","[-0.0974888586746299,-0.0496180090053469]","[1,1,1]","[-0.06837579944458765,0.00994125686698238]","[1,1,1]","[0.12493330126725156,0.15067539258355322]","[1,1,1]","[0.16972883499963876,0.002405651304582394]","[-1,-1,-1]","[-0.06520026023809755,0.1715883981716255]","[1,1,1]","[0.11039321761198344,-0.06310183222875212]","[-1,-1,-1]","[0.030273500072511672,0.0487266426716205]","[-1,-1,-1]","[-0.12156100971315248,0.011220123541453785]","[-1,-1,-1]","[-0.0006073878663352839,-0.10597045317850584]","[-1,-1,-1]","[-0.1730728644713962,-0.021430984927407772]","[1,1,1]","[-0.11137121287230231,-0.1223158583295771]","[1,1,1]","[-0.14412150612927604,-0.08541688931007956]","[-1,-1,-1]","[0.10443773113543317,-0.13760488107567498]","[-1,-1,-1]","[-0.010875417839150128,0.06328745458300222]","[-1,-1,-1]","[0.008053454170838007,-0.1571345055615156]","[-1,-1,-1]","[0.14763689883149084,-0.04678275335929583]","[1,1,1]","[-0.12134114651140464,0.14592215373739167]","[-1,-1,-1]","[-0.059719942828117274,-0.029800629191729388]","[-1,-1,-1]","[0.07937090621213845,0.05291086968417982]","[-1,-1,-1]","[0.1943148325468964,0.04256261157646527]","[1,1,1]","[0.02945076833956008,0.16386302126392166]","[1,1,1]","[0.07090477611040223,-0.03064696526192794]","[1,1,1]","[0.1333025693488408,0.07208603715347339]","[-1,-1,-1]","[0.15089336710597132,-0.1180481582710364]","[-1,-1,-1]","[-0.09051339536414248,0.0653948268128396]","[-1,-1,-1]","[0.02,0.02]",817.9497,0,7,7,81,1,,,,,,,
,,,,,,,615e9c2b293734ccc98eb126,682db417f255cfae6d4df9a9,2025-05-21_13h08.20.684,cuing_paradigm_dot,2024.1.5,Win32,60.24096386,682d556593cb38ad0a074487,,,,,,,,,,,817.9504,818.4489,,,818.6895,819.0976,left,0.3905,,,,,,,,,0.4,,,,,,818.4491,818.6895,819.0976,"[-0.1289359483523097,0.08177117961089202]","[1,1,1]","[0.016011279255907646,0.13301239665856593]","[-1,-1,-1]","[-0.03864741484909883,0.002541759241152222]","[-1,-1,-1]","[-0.12941999332016854,-0.1485503325785966]","[-1,-1,-1]","[0.04445302796126213,0.1803542166502178]","[1,1,1]","[0.12032579121504493,-0.05210726350513213]","[-1,-1,-1]","[0.11864315211874779,0.06813241410752388]","[1,1,1]","[-0.0566078560406449,0.18648142520938615]","[-1,-1,-1]","[-0.06527495641300952,-0.17710596554648741]","[-1,-1,-1]","[0.18026504025505058,-0.058855560152428425]","[-1,-1,-1]","[0.15698866785419957,-0.006557084391460015]","[-1,-1,-1]","[-0.19488603111694636,-0.029422078309178736]","[-1,-1,-1]","[0.047447833238870855,0.0657905363742617]","[1,1,1]","[-0.09247009959099911,0.1023020336495088]","[-1,-1,-1]","[-0.051130100387750024,-0.06577825231800741]","[-1,-1,-1]","[-0.12077096754539733,-0.09033254331309147]","[-1,-1,-1]","[0.110761694575649,-0.011337103317450676]","[1,1,1]","[-0.05256116482780643,0.04716681148293623]","[1,1,1]","[-0.031591394921524935,-0.12951052159355436]","[1,1,1]","[-0.015044669256530972,0.0769691877899993]","[-1,-1,-1]","[-0.11428108710415721,0.043961246067380944]","[-1,-1,-1]","[0.06787389152825263,-0.1665516717756519]","[1,1,1]","[0.04753312359790495,-0.04897152009967885]","[-1,-1,-1]","[0.16764355016976137,-0.09703362885043092]","[1,1,1]","[-0.11361131247970241,0.14214492803027226]","[-1,-1,-1]","[0.016700313398618036,0.005478566957278082]","[1,1,1]","[-0.11527245685433968,-0.029693453513291924]","[-1,-1,-1]","[-0.03916784766549239,0.1167042154350998]","[1,1,1]","[0.17668022047619517,0.03763956359445774]","[1,1,1]","[0.05783900006607044,0.1391420838795404]","[1,1,1]","[0.12197247708538228,0.15772362006538998]","[-1,-1,-1]","[0.0257094418015975,-0.16340830524537311]","[-1,-1,-1]","[0.02,0.02]",820.1987,0,8,8,43,1,,,,,,,
,,,,,,,615e9c2b293734ccc98eb126,682db417f255cfae6d4df9a9,2025-05-21_13h08.20.684,cuing_paradigm_dot,2024.1.5,Win32,60.24096386,682d556593cb38ad0a074487,,,,,,,,,,,820.1998,820.6976,,,820.9567,821.6657,left,0.6943,,,,,,,,,0.55,,,,,,820.6976,820.9566,821.6658,"[-0.12273598153106989,0.13809368198296681]","[1,1,1]","[-0.14374102356506732,0.08066297966324568]","[1,1,1]","[-0.1449846465587946,-0.03207617039730523]","[1,1,1]","[-0.07020838772951075,0.08523344460425229]","[1,1,1]","[0.17878528942386174,0.038328394864254045]","[1,1,1]","[0.03287644405301084,-0.1740987621825692]","[1,1,1]","[0.14016338529953187,-0.11345717958098436]","[-1,-1,-1]","[-0.06322371360962907,0.15030757936036968]","[-1,-1,-1]","[0.13939125749326275,0.017717734298334863]","[-1,-1,-1]","[-0.09605538390356758,-0.1611882811530076]","[-1,-1,-1]","[0.052811426451151534,-0.08916547263142134]","[1,1,1]","[0.12522517219418774,-0.15414687633940294]","[-1,-1,-1]","[-0.06485465762747424,-0.13612651139285745]","[1,1,1]","[0.1469857959731884,-0.028233320277068107]","[-1,-1,-1]","[-0.003485502904281076,0.1283780255886378]","[-1,-1,-1]","[0.08366335687894784,0.007505247383940291]","[1,1,1]","[-0.05934970388612861,-0.07815495155807332]","[1,1,1]","[0.052886411137638666,0.1510604343571295]","[1,1,1]","[0.025326246417863008,-0.041888233460049294]","[-1,-1,-1]","[-0.1504286413082575,-0.09768794524437967]","[1,1,1]","[-0.06739047086199158,0.026094372206242635]","[-1,-1,-1]","[-0.0026904614416695992,0.007910266815773967]","[1,1,1]","[-0.09993688113236165,-0.06175619589970599]","[-1,-1,-1]","[0.0037036303300720086,-0.10683802231058899]","[1,1,1]","[0.1298089970163961,-0.07208619909442839]","[1,1,1]","[-0.1296566281634125,-0.13432017624047968]","[1,1,1]","[-0.1806889661904669,0.013651359799502273]","[1,1,1]","[0.07937237368740242,-0.15122898426092363]","[-1,-1,-1]","[-0.09413413240762791,-0.022019288502003635]","[-1,-1,-1]","[0.041906798801975474,0.03820731696194043]","[-1,-1,-1]","[-0.03934184846729132,-0.012851167051520401]","[-1,-1,-1]","[0.08848012112627199,-0.06364788289202347]","[1,1,1]","[0.02,0.02]",822.767,0,9,9,124,1,,,,,,,
,,,,,,,615e9c2b293734ccc98eb126,682db417f255cfae6d4df9a9,2025-05-21_13h08.20.684,cuing_paradigm_dot,2024.1.5,Win32,60.24096386,682d556593cb38ad0a074487,,,,,,,,,,,822.7672,823.2654,,,823.5232,823.9657,right,0.4269,,,,,,,,,0.5,,,,,,823.2655,823.5232,823.9658,"[-0.11919114509867212,-0.05608930456263381]","[-1,-1,-1]","[0.09239347175081322,0.07220682923278096]","[-1,-1,-1]","[-0.18403103947117658,0.0249829361354615]","[1,1,1]","[0.06000282056541456,-0.13498491617299563]","[1,1,1]","[-0.04970805879657258,-0.012283911713728954]","[1,1,1]","[0.03890482770184282,-0.06322063103775077]","[1,1,1]","[-0.04536277837822561,0.14023939075723874]","[-1,-1,-1]","[0.14152501858371622,0.048632211276521474]","[1,1,1]","[-0.10590040797443932,-0.10556297768623771]","[1,1,1]","[0.17984708180970355,0.08025293616223453]","[-1,-1,-1]","[0.1288039602365616,-0.0012560105397415619]","[-1,-1,-1]","[0.1308394689328648,0.08832448466407555]","[-1,-1,-1]","[0.11195781867462416,-0.15487693183356424]","[1,1,1]","[-0.06250479189700835,0.06916787423956715]","[1,1,1]","[-0.0064158625017116735,0.021108646808299287]","[1,1,1]","[-0.0693505707944597,0.02822350120558908]","[-1,-1,-1]","[-0.1422641791324033,0.0439644957866757]","[-1,-1,-1]","[0.018860237931099928,-0.19527775006085454]","[1,1,1]","[0.02194924835207734,0.08552766012731176]","[1,1,1]","[-0.05024622987559614,0.18770934519738908]","[1,1,1]","[-0.00036054414272133705,-0.038721253366909215]","[-1,-1,-1]","[-0.09411426934442305,0.1565681222002989]","[1,1,1]","[-0.11549499093333322,-0.15538022466345755]","[1,1,1]","[-0.04054423577016832,-0.15919133548394576]","[-1,-1,-1]","[0.0874180134816105,-0.03773936217320402]","[-1,-1,-1]","[-0.022935620439986506,0.10287331369325753]","[-1,-1,-1]","[-0.002023303351662848,-0.14579956468315525]","[1,1,1]","[-0.11359703800204048,0.10327164583042216]","[-1,-1,-1]","[0.1865252018399986,0.03583784792487066]","[-1,-1,-1]","[-0.015172247702082512,-0.08979506946346417]","[1,1,1]","[0.045586964154225154,-0.011554739342252733]","[-1,-1,-1]","[-0.004386137146478394,0.14851222533446765]","[-1,-1,-1]","[0.02,0.02]",825.0651,0,10,10,109,1,,,,,,,
,,,,,,,615e9c2b293734ccc98eb126,682db417f255cfae6d4df9a9,2025-05-21_13h08.20.684,cuing_paradigm_dot,2024.1.5,Win32,60.24096386,682d556593cb38ad0a074487,,,,,,,,,,,825.066,825.5647,,,825.8229,826.4656,left,0.6266,,,,,,,,,0.6,,,,,,825.5649,825.8229,826.4658,"[0.008027745057185719,-0.17563808889379334]","[1,1,1]","[-0.05405294051296735,-0.06648590675769235]","[-1,-1,-1]","[-0.15925055800906457,0.07821343736676051]","[1,1,1]","[0.05185794297519821,-0.040807982946545474]","[-1,-1,-1]","[0.11358868478894642,0.037212700997157094]","[1,1,1]","[0.04091058714376848,0.07036318043405079]","[1,1,1]","[0.023925899340018476,-0.11903722429532261]","[-1,-1,-1]","[0.015358156396444764,0.01948510641597284]","[-1,-1,-1]","[0.1512953901371704,-0.10544894979192837]","[1,1,1]","[0.023899529308267244,0.19593628049396036]","[1,1,1]","[0.18131033251414252,0.02166986943226488]","[1,1,1]","[-0.18073099337988696,-0.07848140959951988]","[-1,-1,-1]","[0.06715020441007238,0.01449129358968295]","[1,1,1]","[0.06162913666824781,-0.08766938532863157]","[1,1,1]","[-0.15694660121174345,0.020930420810835588]","[1,1,1]","[-0.1356510241611249,-0.026394418615354475]","[1,1,1]","[-0.024864692487071547,0.07939698707674807]","[-1,-1,-1]","[0.024968334357118135,0.1404248608243732]","[-1,-1,-1]","[0.14225921042693468,-0.0481903384898101]","[1,1,1]","[-0.035248846853278115,-0.022795973649054502]","[-1,-1,-1]","[-0.07927007172566933,-0.15676249046069227]","[1,1,1]","[0.07226861744480431,-0.1272793534419222]","[-1,-1,-1]","[-0.032434970764788865,-0.11732804098319118]","[1,1,1]","[0.1514332243709212,0.13059462665382499]","[1,1,1]","[-0.05279476637551219,0.019633210519742907]","[1,1,1]","[-0.12153475999112111,0.042911405202523976]","[-1,-1,-1]","[0.07104997900110702,0.1517603222584671]","[1,1,1]","[0.10764887076859919,-0.08087064758442039]","[-1,-1,-1]","[-0.19824086193005516,-0.021861111780367523]","[1,1,1]","[-0.09906213996001997,0.16571715816887403]","[1,1,1]","[-0.04744366986858354,0.1745181240188155]","[-1,-1,-1]","[-0.049052049273197874,0.11152161909967623]","[-1,-1,-1]","[0.02,0.02]",827.5653,0,11,11,166,1,,,,,,,
,,,,,,,615e9c2b293734ccc98eb126,682db417f255cfae6d4df9a9,2025-05-21_13h08.20.684,cuing_paradigm_dot,2024.1.5,Win32,60.24096386,682d556593cb38ad0a074487,,,,,,,,,,,827.566,828.069,,,828.3148,828.9323,right,0.5914,,,,,,,,,0.5,,,,,,828.069,828.3145,828.9325,"[-0.051097410054805184,-0.054241889702030324]","[1,1,1]","[-0.06733810326200092,-0.1804077257750848]","[-1,-1,-1]","[-0.11125837067738564,-0.02189974580109817]","[1,1,1]","[-0.08311536010231269,0.03915413362843961]","[1,1,1]","[0.10067168080165259,-0.029236034597285326]","[1,1,1]","[0.046029407494275504,0.13236554294635244]","[-1,-1,-1]","[-0.10275199846734119,-0.1612692247678608]","[-1,-1,-1]","[0.03318016556478916,0.035002645880714785]","[1,1,1]","[0.11336253115325247,-0.08897834582338866]","[1,1,1]","[-0.03183355112140554,0.0036061907899050762]","[1,1,1]","[-0.11036037513283563,-0.08260091303074757]","[-1,-1,-1]","[0.10628111533644537,0.11581537733453978]","[-1,-1,-1]","[0.03449699927688608,-0.10918199843633361]","[1,1,1]","[-0.13922370562394248,0.03671764678130723]","[-1,-1,-1]","[0.19050024121961898,0.000057159220656680874]","[-1,-1,-1]","[0.132898075381812,0.06935183184789609]","[-1,-1,-1]","[0.115537257330644,0.015111875057955733]","[1,1,1]","[-0.06409107676294305,0.08943537423218377]","[1,1,1]","[-0.12228713532046273,0.15664156443519917]","[-1,-1,-1]","[-0.06968462646855708,0.1514714581052181]","[1,1,1]","[0.06308694044593072,-0.04751958626477486]","[-1,-1,-1]","[0.1616064950745577,-0.09712022371520332]","[1,1,1]","[-0.1292888796685869,-0.1284870836441484]","[1,1,1]","[-0.010911910709216516,0.10471806565619164]","[-1,-1,-1]","[-0.03292945298120675,0.05470745363585419]","[-1,-1,-1]","[-0.003375448176844342,-0.17503084333684343]","[-1,-1,-1]","[0.00677785802453305,-0.056073367248225564]","[-1,-1,-1]","[0.18561716540638803,-0.04939849489519007]","[-1,-1,-1]","[0.1394012322942231,-0.04209054373274391]","[1,1,1]","[-0.16279054955959424,-0.05828813834797905]","[1,1,1]","[0.07475940164702513,-0.14412206072481984]","[1,1,1]","[-0.075089027132477,-0.10748981053632949]","[-1,-1,-1]","[0.02,0.02]",830.0312,0,12,12,102,1,,,,,,,
,,,,,,,615e9c2b293734ccc98eb126,682db417f255cfae6d4df9a9,2025-05-21_13h08.20.684,cuing_paradigm_dot,2024.1.5,Win32,60.24096386,682d556593cb38ad0a074487,,,,,,,,,,,830.0325,830.5217,,,830.7729,831.2475,right,0.4654,,,,,,,,,0.55,,,,,,830.5217,830.7729,831.2476,"[-0.08874697958417545,0.024260805803546847]","[-1,-1,-1]","[-0.10818904817526773,-0.09603722884689633]","[-1,-1,-1]","[-0.0075007293433176836,0.1708868140977706]","[-1,-1,-1]","[0.11109723254338671,-0.07404194665523485]","[1,1,1]","[-0.057065106521223256,-0.08887890625057128]","[-1,-1,-1]","[-0.12038119049893983,0.14656578356340041]","[1,1,1]","[0.054356345660870505,-0.14553070115881925]","[1,1,1]","[0.08160580063433005,-0.03438882268230394]","[-1,-1,-1]","[0.13787136375767392,-0.03690523104052107]","[1,1,1]","[-0.12187165376073249,-0.05645836569358139]","[1,1,1]","[0.04263507017034486,-0.02125143209424642]","[1,1,1]","[0.1522412573687147,-0.09856481745012266]","[1,1,1]","[-0.17007934513715478,-0.0755373064909118]","[-1,-1,-1]","[0.02754164836208724,-0.1881599611918282]","[1,1,1]","[0.12237645207449901,0.08681972079931477]","[1,1,1]","[-0.17276038435212876,0.08029793387089632]","[1,1,1]","[-0.019193844997248757,-0.03872580656339174]","[-1,-1,-1]","[0.05479248881826804,0.1317237982353473]","[-1,-1,-1]","[0.17568471191699386,0.09054051856418852]","[1,1,1]","[0.13190628952138697,0.04452000840719309]","[-1,-1,-1]","[-0.05451905652738757,-0.011249489647307057]","[1,1,1]","[-0.006902103693557943,0.008746363543915583]","[1,1,1]","[-0.13249264453996618,0.006851823752268115]","[1,1,1]","[-0.04374107054045041,-0.18803484965315018]","[-1,-1,-1]","[-0.07194119709989026,0.16420560935238612]","[1,1,1]","[-0.19355304515189486,0.0009401048629800317]","[1,1,1]","[-0.05320216258417672,0.05270597170759089]","[-1,-1,-1]","[0.08523043622009195,-0.1163550806002171]","[-1,-1,-1]","[-0.03238417192841545,0.13931160007001356]","[-1,-1,-1]","[0.0016197100419369957,-0.11741035027415804]","[1,1,1]","[0.12884754133479676,-0.1353304190922657]","[1,1,1]","[0.1845497228005048,0.03725214487525472]","[-1,-1,-1]","[0.02,0.02]",832.3478,0,13,13,134,1,,,,,,,
,,,,,,,615e9c2b293734ccc98eb126,682db417f255cfae6d4df9a9,2025-05-21_13h08.20.684,cuing_paradigm_dot,2024.1.5,Win32,60.24096386,682d556593cb38ad0a074487,,,,,,,,,,,832.3488,832.8486,,,833.0978,833.731,left,0.6009,,,,,,,,,0.45,,,,,,832.8487,833.0977,833.7312,"[0.07454795592968826,-0.15351495226312603]","[-1,-1,-1]","[0.1348708098959679,-0.05124697472383364]","[1,1,1]","[-0.13908622928758388,0.004769153967089898]","[-1,-1,-1]","[0.03133438571342791,0.023948738929193268]","[1,1,1]","[-0.03208942296871204,0.08831443270718156]","[-1,-1,-1]","[0.10219951945219753,-0.08007026459556361]","[1,1,1]","[0.1504536853699948,0.027752982187591927]","[-1,-1,-1]","[0.1878673977736211,0.012742291924846333]","[-1,-1,-1]","[0.08251237299120617,-0.019413285020229636]","[1,1,1]","[-0.1609514925102231,0.05554395372048784]","[1,1,1]","[0.010998488088291786,-0.04015957014874124]","[1,1,1]","[0.0933927427449756,0.041757193133343806]","[1,1,1]","[-0.11115092944352116,-0.1361284347668077]","[-1,-1,-1]","[-0.01554373803997325,-0.10697078333882136]","[-1,-1,-1]","[-0.05227186705877987,0.021866711450977544]","[-1,-1,-1]","[-0.16605432306458318,0.10394213370255576]","[1,1,1]","[0.16565033463618553,0.08524264023161386]","[-1,-1,-1]","[-0.09778281356986586,0.0848189298216957]","[-1,-1,-1]","[0.032030459265927215,0.11090996461232311]","[-1,-1,-1]","[0.05073129728785839,0.19226912391300505]","[-1,-1,-1]","[-0.09373903827918043,0.15528103295353485]","[1,1,1]","[-0.12139697154044182,0.04772738202464321]","[-1,-1,-1]","[0.0475397065210234,0.06936082404204533]","[1,1,1]","[-0.015325755307460956,0.15429514633964733]","[1,1,1]","[0.015902707121724063,-0.193758220769421]","[1,1,1]","[0.03039276684226311,0.15752033955321917]","[-1,-1,-1]","[0.035525283067026604,-0.07598552172475247]","[-1,-1,-1]","[0.13846854249201768,-0.13682680674660247]","[1,1,1]","[-0.1986871859475284,-0.011551596000511938]","[-1,-1,-1]","[-0.06527837854566437,-0.11111162913449632]","[1,1,1]","[-0.040078701992686296,-0.17301143541946962]","[-1,-1,-1]","[0.0394061332631288,-0.1292365734062237]","[-1,-1,-1]","[0.02,0.02]",834.8303,0,14,14,63,1,,,,,,,
,,,,,,,615e9c2b293734ccc98eb126,682db417f255cfae6d4df9a9,2025-05-21_13h08.20.684,cuing_paradigm_dot,2024.1.5,Win32,60.24096386,682d556593cb38ad0a074487,,,,,,,,,,,834.8311,835.3305,,,835.5824,836.2314,left,0.6168,,,,,,,,,0.4,,,,,,835.3306,835.5824,836.2316,"[0.06843501114747765,-0.03702899927433889]","[1,1,1]","[-0.16509870427947684,0.039709555907144846]","[-1,-1,-1]","[-0.12124701579977823,-0.026589979975684512]","[-1,-1,-1]","[0.09986580939055001,0.08427731867236687]","[1,1,1]","[-0.05771068393353435,-0.07946977959076486]","[1,1,1]","[-0.013603896411402172,0.13408590371515147]","[-1,-1,-1]","[0.09704642327494142,0.14648335818452218]","[1,1,1]","[0.19180588300220444,-0.025837907738535327]","[-1,-1,-1]","[0.006528154698867617,-0.18557836634693733]","[-1,-1,-1]","[0.059800063681783804,0.05356699746980806]","[1,1,1]","[0.022632374335171058,0.0939883146551392]","[-1,-1,-1]","[-0.07646877275302566,-0.1674657601708408]","[-1,-1,-1]","[0.17129560975589792,0.010505943607387436]","[-1,-1,-1]","[0.0595611365312364,-0.14473077626140682]","[-1,-1,-1]","[0.11263968334215618,0.009194772443772826]","[-1,-1,-1]","[-0.00013821192022889776,0.17324518794787877]","[-1,-1,-1]","[0.12314970788855661,-0.0772697192087725]","[-1,-1,-1]","[-0.09269415702140414,0.020626612903443906]","[1,1,1]","[-0.1059807569897297,0.09778480961371502]","[1,1,1]","[0.09831641545922512,-0.10901868606228307]","[1,1,1]","[-0.06109009289860302,0.17175073591097073]","[1,1,1]","[-0.03853695350990206,-0.00484154125831331]","[-1,-1,-1]","[0.14534174677294304,0.06898790084341325]","[1,1,1]","[0.020107600746347865,-0.01179405435992966]","[1,1,1]","[-0.09679173096789646,-0.09721756590796854]","[-1,-1,-1]","[-0.17529865625038552,-0.016812899395595087]","[-1,-1,-1]","[-0.07839051436355417,-0.03965880611155848]","[-1,-1,-1]","[0.05591892752217627,-0.07796806697979283]","[1,1,1]","[-0.031377071740163215,0.059316428531727486]","[-1,-1,-1]","[0.019163640189634058,0.03896425519578873]","[-1,-1,-1]","[0.18861347385507798,0.0638772990374718]","[-1,-1,-1]","[-0.11488865382955704,0.1495247378234091]","[1,1,1]","[0.02,0.02]",837.3301,0,15,15,40,1,,,,,,,
,,,,,,,615e9c2b293734ccc98eb126,682db417f255cfae6d4df9a9,2025-05-21_13h08.20.684,cuing_paradigm_dot,2024.1.5,Win32,60.24096386,682d556593cb38ad0a074487,,,,,,,,,,,837.3316,837.8311,,,838.0884,838.5891,left,0.484,,,,,,,,,0.45,,,,,,837.8312,838.0883,838.5892,"[-0.07950629344587738,0.04787242782731132]","[-1,-1,-1]","[-0.15539739014755796,-0.07227093924919897]","[-1,-1,-1]","[-0.11091327282980201,0.021639693480952755]","[-1,-1,-1]","[0.020138041014939337,-0.13206347226986703]","[1,1,1]","[0.16458899334467042,-0.06879703943326017]","[-1,-1,-1]","[-0.09750873403469834,-0.049980200114618505]","[-1,-1,-1]","[0.0535852674458602,0.05944622182530571]","[-1,-1,-1]","[-0.017847037746824446,0.10276401812916296]","[1,1,1]","[-0.049013578076608236,0.12972198733134202]","[1,1,1]","[-0.06742949265698482,-0.14153923247372532]","[-1,-1,-1]","[-0.11234192712759629,-0.11823436204992287]","[1,1,1]","[-0.011617880083230852,-0.06611554430086304]","[-1,-1,-1]","[-0.011416248884886938,-0.02279947075520126]","[1,1,1]","[0.16991816281774344,0.03129114513223637]","[1,1,1]","[0.19497595250626568,-0.007606781376029034]","[1,1,1]","[-0.11942137088390296,0.14499743663435147]","[-1,-1,-1]","[-0.1699855877016254,0.01117904678070248]","[1,1,1]","[0.1341446646253763,0.12518401664292067]","[1,1,1]","[0.03889575092004742,0.19245880866875867]","[-1,-1,-1]","[0.07254880576881764,-0.04529522775914239]","[1,1,1]","[0.18099097166244965,0.08331526081503668]","[-1,-1,-1]","[0.11699963178527072,-0.06299828878071635]","[-1,-1,-1]","[-0.14797852028362804,0.04946014477317809]","[1,1,1]","[0.032430804037046214,-0.17232888703534974]","[1,1,1]","[0.08173704987292721,0.1173341717526112]","[-1,-1,-1]","[0.11121638841423727,-0.13655318900800828]","[1,1,1]","[-0.11296423917203109,0.07778676247871752]","[-1,-1,-1]","[-0.059743566156982925,-0.07796668168351215]","[-1,-1,-1]","[-0.07521353546135913,-0.015778294928054735]","[-1,-1,-1]","[-0.015512927152263972,0.038675613984016755]","[-1,-1,-1]","[-0.004532089942021719,0.14186894756515295]","[1,1,1]","[-0.01855969659807503,-0.1446033244453825]","[-1,-1,-1]","[0.02,0.02]",839.6816,0,16,16,86,1,,,,,,,
,,,,,,,615e9c2b293734ccc98eb126,682db417f255cfae6d4df9a9,2025-05-21_13h08.20.684,cuing_paradigm_dot,2024.1.5,Win32,60.24096386,682d556593cb38ad0a074487,,,,,,,,,,,839.6821,840.1814,,,840.4389,841.0651,right,0.6103,,,,,,,,,0.4,,,,,,840.1816,840.4389,841.0652,"[-0.03709203660300967,-0.19091050823051572]","[1,1,1]","[0.08354969519433804,-0.1114303268234949]","[1,1,1]","[0.1851627162166087,0.028832923045862647]","[-1,-1,-1]","[0.053977080226139104,0.04414723889903902]","[1,1,1]","[0.004812556767000694,-0.030517137498899588]","[-1,-1,-1]","[0.04630448518975609,0.15418250240355713]","[1,1,1]","[-0.1664848540775233,0.061766161924177054]","[-1,-1,-1]","[0.09637943628915344,0.08766932405110404]","[-1,-1,-1]","[0.002409106967217609,0.06566605023818171]","[1,1,1]","[0.12787813078191948,0.03542198200664136]","[-1,-1,-1]","[0.03460592436128495,0.1109609347350927]","[1,1,1]","[-0.054197301161630476,0.07258549115281378]","[1,1,1]","[-0.0733995787403963,0.12815995351776271]","[-1,-1,-1]","[-0.024358364349927213,-0.11916093894066608]","[-1,-1,-1]","[-0.15535326914541656,-0.012247552170057593]","[1,1,1]","[0.14432132431553205,-0.05410093635398502]","[-1,-1,-1]","[0.01922139743944703,-0.16885519629932996]","[-1,-1,-1]","[0.06912395750171481,-0.18544961499026494]","[-1,-1,-1]","[-0.1883237392391144,0.023387840497755302]","[1,1,1]","[-0.08288332389313025,-0.07054455131999103]","[-1,-1,-1]","[-0.08065132804557808,-0.11277424721208221]","[-1,-1,-1]","[-0.1801453302818117,-0.06118657930943677]","[1,1,1]","[0.11688233299962036,0.13958325182556422]","[-1,-1,-1]","[0.08566899410885932,0.180409502855532]","[-1,-1,-1]","[-0.138347282675408,-0.05625449801885654]","[-1,-1,-1]","[0.11460129133702876,-0.016824707836415882]","[-1,-1,-1]","[0.0577724732026055,-0.0806825870518161]","[1,1,1]","[0.06074932945129126,0.0006972103613560922]","[-1,-1,-1]","[0.12386527369063419,-0.11104653517101583]","[1,1,1]","[-0.13167703042744766,0.14895686521785836]","[-1,-1,-1]","[-0.018887638489148883,-0.06293885494548897]","[1,1,1]","[0.17067770263147164,-0.10284005111362873]","[-1,-1,-1]","[0.02,0.02]",842.1643,0,17,17,52,1,,,,,,,
,,,,,,,615e9c2b293734ccc98eb126,682db417f255cfae6d4df9a9,2025-05-21_13h08.20.684,cuing_paradigm_dot,2024.1.5,Win32,60.24096386,682d556593cb38ad0a074487,,,,,,,,,,,842.165,842.6632,,,842.9149,843.6385,left,0.6998,,,,,,,,,0.5,,,,,,842.6633,842.9149,843.6385,"[-0.062154564694792754,0.11122696767334898]","[-1,-1,-1]","[0.1343360449448081,-0.1353743379732663]","[1,1,1]","[-0.07481894480440626,-0.028953369271867258]","[1,1,1]","[-0.05920495660967362,-0.13220245032860364]","[-1,-1,-1]","[0.1101302219814504,0.16400027949870274]","[-1,-1,-1]","[-0.02351337600984089,-0.16550624854886428]","[1,1,1]","[-0.19148618485537378,-0.05158405717099932]","[-1,-1,-1]","[-0.16742257269920943,0.015629598701280802]","[1,1,1]","[-0.10062265002235198,-0.1662963659535766]","[1,1,1]","[-0.13786467717469159,0.09176891227438459]","[1,1,1]","[-0.12205514709138106,0.049081524227011945]","[-1,-1,-1]","[-0.008467082083109558,-0.043485511096783]","[1,1,1]","[-0.17715353352267033,0.08378215174601525]","[-1,-1,-1]","[0.09390481682269707,-0.09827757074750246]","[1,1,1]","[0.05463807912699535,0.07900742661694428]","[1,1,1]","[0.04195249835219103,-0.18876379273761654]","[1,1,1]","[-0.010566087221240288,0.11272260884147221]","[1,1,1]","[0.18342572660377304,0.017636279523216346]","[-1,-1,-1]","[-0.17083523531243291,-0.0912581996786455]","[1,1,1]","[0.020092467929717226,0.1824807993743714]","[-1,-1,-1]","[0.028494003509835133,-0.14840840898847216]","[-1,-1,-1]","[-0.14577145341776584,-0.05486131003879727]","[-1,-1,-1]","[0.031585015660686305,0.027797833168362783]","[-1,-1,-1]","[-0.08818958323052006,0.16110453824036697]","[1,1,1]","[-0.04797332714658398,0.18149670664412051]","[-1,-1,-1]","[0.05347933093171629,-0.07175381945623305]","[1,1,1]","[-0.01513259128732918,0.03790633822155448]","[1,1,1]","[0.13229969206033368,-0.07415262534980455]","[-1,-1,-1]","[0.06385127213438883,0.1588867344992758]","[-1,-1,-1]","[-0.12778318662454216,0.13482201260042057]","[1,1,1]","[0.1305022601830843,0.010349401750813099]","[-1,-1,-1]","[0.020789957104907254,-0.09720409625310802]","[-1,-1,-1]","[0.02,0.02]",844.731,0,18,18,96,1,,,,,,,
,,,,,,,615e9c2b293734ccc98eb126,682db417f255cfae6d4df9a9,2025-05-21_13h08.20.684,cuing_paradigm_dot,2024.1.5,Win32,60.24096386,682d556593cb38ad0a074487,,,,,,,,,,,844.7317,845.2304,,,845.4829,846.4977,left,0.9988,,,,,,,,,0.6,,,,,,845.2306,845.4829,846.4979,"[-0.10180249776033781,0.11548871106759716]","[-1,-1,-1]","[0.008880926424874024,-0.012395301754651186]","[1,1,1]","[-0.06098438303509683,-0.085091360227464]","[1,1,1]","[-0.10698217042276009,-0.0750622280355746]","[-1,-1,-1]","[-0.017190623873629518,0.024502809009081045]","[1,1,1]","[-0.16014252667186213,-0.03187820608478028]","[-1,-1,-1]","[0.17212468690989885,-0.01892752347076812]","[1,1,1]","[0.16337644324762368,0.10669973216512327]","[-1,-1,-1]","[-0.03990758824183735,-0.13539347754481434]","[1,1,1]","[0.005723597561716985,0.08726319015479696]","[-1,-1,-1]","[-0.10849321019059437,0.04387236625536186]","[1,1,1]","[0.011726024359943481,0.18183632017062676]","[1,1,1]","[0.19019987420868056,0.020647025524267445]","[1,1,1]","[0.11193397395339842,-0.10478178282431579]","[-1,-1,-1]","[-0.013818381966766278,-0.16837096039469274]","[1,1,1]","[-0.08787290858385127,-0.02153816412538657]","[-1,-1,-1]","[0.04756988055405539,0.10271368129269519]","[1,1,1]","[-0.14768469628688966,-0.11217034983280164]","[-1,-1,-1]","[0.018861267203225986,-0.12702112354504017]","[1,1,1]","[0.059739451009308615,0.019949832416543273]","[-1,-1,-1]","[-0.19540101319815115,0.023295234082839202]","[-1,-1,-1]","[-0.15785604017833565,0.043558818937845425]","[-1,-1,-1]","[0.12146330355603858,0.11943106969978311]","[1,1,1]","[0.0750047210262689,-0.024480379710146234]","[1,1,1]","[0.16253196862552763,0.05932102048097626]","[1,1,1]","[-0.011168339916455923,-0.07197223780563311]","[1,1,1]","[-0.12426194673888843,-0.14666114192251534]","[-1,-1,-1]","[-0.04158633486778925,0.06201598939856829]","[-1,-1,-1]","[-0.07901829196992384,-0.15970986402586781]","[1,1,1]","[-0.13591906173791585,0.08003613920337671]","[1,1,1]","[0.1105599033333661,0.08069754699130909]","[1,1,1]","[0.057762498891717154,-0.1702381971983964]","[1,1,1]","[0.02,0.02]",847.5972,0,19,19,169,1,,,,,,,
,,,,,,,615e9c2b293734ccc98eb126,682db417f255cfae6d4df9a9,2025-05-21_13h08.20.684,cuing_paradigm_dot,2024.1.5,Win32,60.24096386,682d556593cb38ad0a074487,,,,,,,,,,,847.5982,848.0963,,,848.3518,848.8311,right,0.4572,,,,,,,,,0.6,,,,,,848.0964,848.3518,848.8313,"[-0.05794418023942007,0.08532862338262634]","[1,1,1]","[-0.09824861687298611,-0.0863257638194613]","[1,1,1]","[-0.06606776026262766,-0.041729093799620004]","[1,1,1]","[-0.1656613979086566,0.011969013886688494]","[1,1,1]","[0.08888945803875989,0.11636081420766176]","[1,1,1]","[-0.00047493751049587564,-0.12791480457957988]","[1,1,1]","[-0.1443246690820682,-0.13393264236730407]","[1,1,1]","[0.08686696163645309,-0.04143019259687239]","[1,1,1]","[0.11852342661506944,-0.12132237050193138]","[-1,-1,-1]","[-0.1738974819933565,-0.08891897403865048]","[-1,-1,-1]","[-0.08730974038837827,0.04431810887887975]","[-1,-1,-1]","[0.03510912729730163,-0.16336484201219734]","[1,1,1]","[-0.10262551724986041,0.10265401147692468]","[1,1,1]","[0.19680353847473947,0.024069247176890223]","[-1,-1,-1]","[-0.17701518549398787,0.085149197896783]","[-1,-1,-1]","[0.040333573798885594,0.16600822932634177]","[1,1,1]","[-0.04401175715197674,-0.09564708552078757]","[1,1,1]","[-0.03564225428952628,0.18534163582729352]","[-1,-1,-1]","[0.004841375971184792,-0.058056817392982143]","[-1,-1,-1]","[0.08927592996185531,0.1704004447240422]","[1,1,1]","[0.17221272199620982,-0.022622533849674536]","[-1,-1,-1]","[0.04481365864188235,-0.09012531762899895]","[1,1,1]","[-0.04193050732058907,0.047328927237235086]","[-1,-1,-1]","[-0.050349162840976,-0.15486854721159082]","[1,1,1]","[-0.001964296972780559,-0.18238625819845833]","[1,1,1]","[0.13005510217092858,0.0337647160288577]","[1,1,1]","[0.16631430393743404,-0.09536272204628843]","[1,1,1]","[0.08845865816824626,-0.09305425528358596]","[1,1,1]","[0.06861578133649046,0.045265195438700466]","[-1,-1,-1]","[-0.10496679311379474,0.15182390167004914]","[-1,-1,-1]","[-0.17771295898284256,-0.043821850899969615]","[-1,-1,-1]","[-0.0506993066659433,0.13744686411802326]","[-1,-1,-1]","[0.02,0.02]",849.9306,0,20,20,172,1,,,,,,,
,,,,,,,615e9c2b293734ccc98eb126,682db417f255cfae6d4df9a9,2025-05-21_13h08.20.684,cuing_paradigm_dot,2024.1.5,Win32,60.24096386,682d556593cb38ad0a074487,,,,,,,,,,,849.9313,850.43,,,850.6878,851.3555,right,0.6599,,,,,,,,,0.6,,,,,,850.4301,850.6878,851.3556,"[0.020719004223982773,-0.18212626578250474]","[1,1,1]","[0.026216518522646955,-0.1119194611921287]","[-1,-1,-1]","[0.07890587793023313,0.012067171651120576]","[-1,-1,-1]","[0.048302099331827865,-0.035256759791470714]","[1,1,1]","[0.09195737979235936,-0.06323102767986913]","[-1,-1,-1]","[0.09659548102765726,-0.16892053637859708]","[1,1,1]","[-0.09162160192561787,-0.09587161644267082]","[-1,-1,-1]","[0.07512939886179978,-0.1309256625948461]","[-1,-1,-1]","[0.12034537708621137,-0.10104825288560274]","[1,1,1]","[-0.022821838374800996,-0.15401905570392466]","[-1,-1,-1]","[-0.10709588565376676,0.16581600382724113]","[1,1,1]","[-0.02415292812440614,0.17812355567408109]","[1,1,1]","[-0.1433065193694153,-0.027625639650633402]","[1,1,1]","[0.029667917870344278,0.1614148641830554]","[1,1,1]","[-0.018820800109980024,0.09053403126846889]","[1,1,1]","[0.1620016858436653,0.04047486604345798]","[-1,-1,-1]","[-0.1047869678634319,0.10627232132138409]","[1,1,1]","[0.09944471632470683,0.10421981079834926]","[1,1,1]","[-0.163975379715036,0.0933990388760805]","[1,1,1]","[0.181851119782695,-0.05275098571773571]","[-1,-1,-1]","[0.11098007913973713,-0.025023225838145483]","[1,1,1]","[0.1963337330442701,0.00630802240715251]","[-1,-1,-1]","[-0.07144770516020939,-0.13929209409927998]","[-1,-1,-1]","[-0.020519518837214066,0.011287008494713023]","[-1,-1,-1]","[0.12041139835020723,0.1528220229917984]","[1,1,1]","[0.0638201043087301,0.1867551482776141]","[-1,-1,-1]","[0.16989954999771814,0.09014719688166357]","[1,1,1]","[0.042964407803585736,0.0935905237089123]","[1,1,1]","[-0.09709483676186544,0.007999681448932127]","[1,1,1]","[-0.09867022517996513,-0.03339352196730549]","[1,1,1]","[-0.10644166386741176,0.053531523985878904]","[1,1,1]","[-0.15784625479509007,0.043393505727224904]","[-1,-1,-1]","[0.02,0.02]",852.454,0,21,21,164,1,,,,,,,
,,,,,,,615e9c2b293734ccc98eb126,682db417f255cfae6d4df9a9,2025-05-21_13h08.20.684,cuing_paradigm_dot,2024.1.5,Win32,60.24096386,682d556593cb38ad0a074487,,,,,,,,,,,852.4545,852.9468,,,853.1973,853.6973,left,0.4696,,,,,,,,,0.5,,,,,,852.9469,853.1972,853.6975,"[0.1405920957321359,0.01115527693287008]","[-1,-1,-1]","[0.19013919859229955,-0.02522622023743965]","[1,1,1]","[-0.06095781092793687,0.12526697668426176]","[-1,-1,-1]","[0.07207074650420356,0.17398445119752046]","[-1,-1,-1]","[0.022142015241433326,0.18518035666055035]","[-1,-1,-1]","[-0.12909048655981978,0.059094826876021515]","[-1,-1,-1]","[-0.1176177815611412,0.15334037077126694]","[-1,-1,-1]","[0.12160394529262292,0.15457965901865311]","[1,1,1]","[-0.011646192572086714,0.09079188882258644]","[-1,-1,-1]","[0.061664312436890724,-0.18083858739733408]","[1,1,1]","[0.049792303675907104,-0.0759946582513896]","[1,1,1]","[0.033669384773380245,0.0350963174175441]","[1,1,1]","[-0.026177575132345348,0.004262665161006889]","[-1,-1,-1]","[0.1688319952754178,0.10661561703788486]","[1,1,1]","[-0.039512837151560586,0.18631877206531514]","[1,1,1]","[-0.06599924236038116,-0.02096612875195078]","[1,1,1]","[-0.009054511568184412,-0.06741230636368736]","[1,1,1]","[0.08971673970776672,-0.060308407438569224]","[1,1,1]","[-0.07774392511408981,-0.09216485590374196]","[-1,-1,-1]","[-0.14495134796675369,-0.07832881743968492]","[-1,-1,-1]","[-0.03162405765629035,-0.17065355976508384]","[1,1,1]","[-0.09315161452713244,-0.1639611913992393]","[1,1,1]","[0.07697008383848736,0.005776346815129295]","[1,1,1]","[0.03849059561785463,-0.13823793482097246]","[1,1,1]","[-0.14641812337677174,-0.03279913157035032]","[-1,-1,-1]","[0.04630732055171316,0.13734062788181026]","[-1,-1,-1]","[-0.08694232514388632,0.08015200192701231]","[-1,-1,-1]","[-0.09261414309732127,0.01814066790668963]","[-1,-1,-1]","[0.1090636131303019,-0.12232296609020286]","[1,1,1]","[-0.18900960864098415,0.04731544048035997]","[-1,-1,-1]","[0.12167502203317183,0.08976868188048163]","[-1,-1,-1]","[0.06143548454695204,0.09980353414017533]","[1,1,1]","[0.02,0.02]",854.7966,0,22,22,118,1,,,,,,,
,,,,,,,615e9c2b293734ccc98eb126,682db417f255cfae6d4df9a9,2025-05-21_13h08.20.684,cuing_paradigm_dot,2024.1.5,Win32,60.24096386,682d556593cb38ad0a074487,,,,,,,,,,,854.7977,855.2963,,,855.5475,856.1629,right,0.5916,,,,,,,,,0.55,,,,,,855.2965,855.5475,856.163,"[0.013908929250346194,-0.18452635675170595]","[1,1,1]","[-0.057919966813164483,0.12755844806047878]","[-1,-1,-1]","[-0.17306255467005208,0.06086573687246496]","[-1,-1,-1]","[-0.05715005636361353,-0.059948755998331035]","[-1,-1,-1]","[0.043786068035750185,0.1784366384559707]","[-1,-1,-1]","[0.029299574271731174,-0.13042461489756652]","[1,1,1]","[0.17545564861216562,-0.008988134091841344]","[-1,-1,-1]","[0.005817678228384775,0.1069379313574548]","[1,1,1]","[0.13958243384759236,-0.060437621274592145]","[-1,-1,-1]","[-0.015908731118987433,-0.13361009090520334]","[1,1,1]","[-0.18594930441492494,-0.048908406281408266]","[1,1,1]","[0.05313200182447287,0.07286027698971508]","[1,1,1]","[-0.15063875013521236,-0.017195237272241738]","[-1,-1,-1]","[0.08800025063949928,-0.10565128326045098]","[-1,-1,-1]","[-0.04269652691377117,-0.18404035846736624]","[1,1,1]","[-0.01838217042823438,0.14165703333302285]","[-1,-1,-1]","[-0.0819104799573578,-0.14096869336983023]","[-1,-1,-1]","[0.0019088872178936625,0.009832978188125065]","[1,1,1]","[0.12427083125346647,0.07986571645132141]","[1,1,1]","[0.13374464569306768,0.017103863848266995]","[1,1,1]","[-0.08958805913609524,0.031077774336389398]","[-1,-1,-1]","[0.11688379568035492,-0.16046274100591987]","[1,1,1]","[0.06055692218580912,-0.16983636690560444]","[1,1,1]","[0.04594451305759357,-0.09067922927227864]","[-1,-1,-1]","[-0.12831460278810508,-0.1174423825846183]","[1,1,1]","[-0.020888646485106042,0.05218011577092978]","[1,1,1]","[0.10121961735550729,0.1539992856740373]","[1,1,1]","[0.18479977675766646,0.05557837821981197]","[-1,-1,-1]","[0.04143324272768834,0.02110402531802722]","[1,1,1]","[-0.1863386275348838,0.006071726961582938]","[1,1,1]","[0.15068173900608503,0.12228445165232625]","[-1,-1,-1]","[-0.09927255660927117,0.15972309799514864]","[1,1,1]","[0.02,0.02]",857.2624,0,23,23,135,1,,,,,,,
,,,,,,,615e9c2b293734ccc98eb126,682db417f255cfae6d4df9a9,2025-05-21_13h08.20.684,cuing_paradigm_dot,2024.1.5,Win32,60.24096386,682d556593cb38ad0a074487,,,,,,,,,,,857.2637,857.7631,,,858.0138,858.8121,left,0.7688,,,,,,,,,0.55,,,,,,857.7632,858.0137,858.8122,"[0.056786092331801805,-0.11252005201324793]","[-1,-1,-1]","[-0.026093730592395583,-0.05932270378234618]","[1,1,1]","[-0.06768880853930496,-0.03817933240143224]","[1,1,1]","[-0.1172418920839703,0.09806185434499369]","[-1,-1,-1]","[0.025520314725288634,0.0801041480970819]","[-1,-1,-1]","[-0.01639604973181554,-0.17773870782435777]","[-1,-1,-1]","[-0.12006455133790611,-0.033834497838783166]","[1,1,1]","[-0.03995786947260479,-0.10748506865026661]","[-1,-1,-1]","[0.04756700137717677,0.03281932330387457]","[-1,-1,-1]","[-0.09203440240635606,0.15842924030655708]","[1,1,1]","[0.06629183195213183,0.18414260417266992]","[1,1,1]","[0.17871770925737193,0.001543657555616069]","[-1,-1,-1]","[0.10952669001816481,0.09071670802216308]","[1,1,1]","[-0.13514203803056382,-0.11767424002841896]","[-1,-1,-1]","[-0.06036365822135848,0.03993371890973199]","[-1,-1,-1]","[0.13190181383418484,-0.049153244194691956]","[-1,-1,-1]","[-0.1833436285260547,-0.05059295211182723]","[1,1,1]","[-0.11257880331185574,-0.15277632636469932]","[-1,-1,-1]","[0.13995415859086813,-0.12778983139282446]","[1,1,1]","[0.07024939875392375,-0.03658048122241478]","[1,1,1]","[0.04766880659634428,-0.17097816426892287]","[-1,-1,-1]","[0.09327193582767115,0.12845166054875337]","[-1,-1,-1]","[0.15428381993058335,-0.09023636831566038]","[1,1,1]","[0.1707729461761445,0.09988670676971326]","[-1,-1,-1]","[0.12481922335306668,0.05262774589288036]","[1,1,1]","[-0.005986890704036347,0.02756860127379693]","[1,1,1]","[0.1399504679780448,0.13783474541868512]","[1,1,1]","[0.0038351767829960517,0.15800151545880467]","[1,1,1]","[-0.16401463678929373,0.0018030258306929983]","[1,1,1]","[-0.12140543692673335,0.0160358240962836]","[1,1,1]","[0.013524464155442931,-0.14878115457140545]","[1,1,1]","[0.11776525257002697,-0.0026910586627367714]","[1,1,1]","[0.02,0.02]",859.9129,0,24,24,126,1,,,,,,,
,,,,,,,615e9c2b293734ccc98eb126,682db417f255cfae6d4df9a9,2025-05-21_13h08.20.684,cuing_paradigm_dot,2024.1.5,Win32,60.24096386,682d556593cb38ad0a074487,,,,,,,,,,,859.9137,860.4124,,,860.6698,861.1483,right,0.4707,,,,,,,,,0.55,,,,,,860.4124,860.6697,861.1483,"[-0.09838858193232751,0.04168267182970201]","[-1,-1,-1]","[0.09706071117254662,0.0652382246208271]","[-1,-1,-1]","[0.07892651774369365,0.1564255557599917]","[-1,-1,-1]","[-0.051715910845854675,0.06938901073396167]","[1,1,1]","[0.018332966147285995,-0.0807967405284331]","[-1,-1,-1]","[-0.16431969517961967,-0.0939519572836413]","[-1,-1,-1]","[0.13537532569116714,0.07838241155139866]","[1,1,1]","[0.1180632274328474,-0.15324918133915041]","[1,1,1]","[-0.024207453654348916,0.19687796175419423]","[1,1,1]","[-0.03540065258677882,-0.16025547050101893]","[-1,-1,-1]","[0.10821724020983742,-0.006704466936851062]","[1,1,1]","[0.0048088771531882984,0.07555794327410505]","[1,1,1]","[0.0067381556702022566,-0.17023162293412716]","[1,1,1]","[-0.009844763742875809,0.017551165798529295]","[-1,-1,-1]","[-0.09574406030933318,0.15323662871535107]","[1,1,1]","[0.14901877017068585,-0.023684601515733403]","[1,1,1]","[-0.07775500199899726,0.006673821587527896]","[1,1,1]","[-0.12653977172354405,-0.11030056926271953]","[-1,-1,-1]","[0.010128042459450752,0.12546303418370078]","[-1,-1,-1]","[0.07800056785859895,-0.1472882333770916]","[-1,-1,-1]","[-0.022574145701448407,-0.07781225599568348]","[1,1,1]","[0.06986003614095045,0.11025652603491017]","[1,1,1]","[-0.14710411718631758,0.07491475028447998]","[-1,-1,-1]","[0.16373343613197328,0.04608807238000368]","[1,1,1]","[-0.042682879071587104,0.11753099121804052]","[-1,-1,-1]","[-0.1413999291557733,0.13954994787619718]","[1,1,1]","[-0.19247133060334354,0.012550805006158388]","[-1,-1,-1]","[0.056222669950114,0.015029906872479253]","[-1,-1,-1]","[-0.1465453128102787,-0.02748600775340609]","[1,1,1]","[0.17416882154271168,-0.09298984442896138]","[1,1,1]","[-0.022080237541768067,-0.11797189719525185]","[1,1,1]","[0.10101021485717053,-0.04643680259547162]","[1,1,1]","[0.02,0.02]",862.2461,0,25,25,139,1,,,,,,,
,,,,,,,615e9c2b293734ccc98eb126,682db417f255cfae6d4df9a9,2025-05-21_13h08.20.684,cuing_paradigm_dot,2024.1.5,Win32,60.24096386,682d556593cb38ad0a074487,,,,,,,,,,,862.2471,862.7456,,,862.9866,863.563,right,0.5597,,,,,,,,,0.45,,,,,,862.7457,862.9865,863.5632,"[-0.09353947787169348,0.11648478990550719]","[1,1,1]","[-0.02294014199573034,0.007367771406846111]","[1,1,1]","[0.04050814035507858,0.09925866891049903]","[-1,-1,-1]","[-0.14792255654407083,0.12851826593981389]","[1,1,1]","[0.0005294188323717627,-0.045950084451885156]","[1,1,1]","[-0.16286840976815878,0.03818778731962978]","[1,1,1]","[0.08921075025216062,0.07317571823656215]","[-1,-1,-1]","[-0.02102258864073101,0.12834369801823778]","[-1,-1,-1]","[0.046458954867167626,-0.12255874467693148]","[1,1,1]","[0.07718840199917429,0.02198463653578572]","[-1,-1,-1]","[0.1198555759071754,-0.019358940320689594]","[-1,-1,-1]","[0.15859176403729197,-0.005612952580003329]","[-1,-1,-1]","[-0.16672341818180617,-0.06003784714530121]","[-1,-1,-1]","[-0.08287123565995545,0.06882979173227209]","[-1,-1,-1]","[-0.1142965445234234,-0.1442902483155207]","[1,1,1]","[-0.07830966456565369,0.1697268415726719]","[-1,-1,-1]","[-0.06043492759109327,-0.14346237234675116]","[1,1,1]","[0.08359546041526969,0.1702262583654631]","[1,1,1]","[-0.19504316331140356,-0.029655442840858588]","[-1,-1,-1]","[-0.06972487480782637,-0.027827723149725127]","[-1,-1,-1]","[0.01250260081823052,-0.19266697857495738]","[-1,-1,-1]","[0.1611385399073175,-0.1040287654450302]","[-1,-1,-1]","[-0.1486833799371418,-0.11999496590719988]","[1,1,1]","[0.12608802828721186,-0.14113832348288488]","[1,1,1]","[-0.010367389170953183,-0.12359419111985348]","[-1,-1,-1]","[-0.1176360244096729,-0.006574399482677572]","[-1,-1,-1]","[-0.029658105874303436,0.06611871957027227]","[-1,-1,-1]","[0.07990508849280274,-0.07216804431099012]","[1,1,1]","[0.018925409772327012,0.15871221337986072]","[1,1,1]","[-0.0451239457846082,-0.06346817764664146]","[-1,-1,-1]","[-0.07176677919495043,0.018794871436952815]","[-1,-1,-1]","[0.060014990587082366,0.13636437899977952]","[1,1,1]","[0.02,0.02]",864.6623,0,26,26,64,1,,,,,,,
,,,,,,,615e9c2b293734ccc98eb126,682db417f255cfae6d4df9a9,2025-05-21_13h08.20.684,cuing_paradigm_dot,2024.1.5,Win32,60.24096386,682d556593cb38ad0a074487,,,,,,,,,,,864.6638,865.1536,,,865.3953,866.1959,right,0.7836,,,,,,,,,0.5,,,,,,865.1536,865.3953,866.1961,"[0.10313022445782996,-0.11399584665913445]","[-1,-1,-1]","[-0.18621753605625138,0.018290655120726414]","[-1,-1,-1]","[-0.0777528577277583,0.10805400926205252]","[-1,-1,-1]","[-0.11644239406465266,0.078022220955727]","[-1,-1,-1]","[0.027533009756044943,-0.08438757520594697]","[1,1,1]","[0.1673665951181991,0.09557308327829483]","[-1,-1,-1]","[0.034002641747285275,-0.14323788518678116]","[1,1,1]","[-0.08768880879327262,-0.13886775658049946]","[1,1,1]","[0.06455734547893212,0.021189534238993973]","[-1,-1,-1]","[-0.04719095809803559,-0.054022368991728034]","[1,1,1]","[-0.03786289968465161,-0.13890891099254823]","[1,1,1]","[-0.11746851593841749,-0.06091301057031395]","[-1,-1,-1]","[0.031024315702770148,0.06568978765599486]","[-1,-1,-1]","[-0.16023193576863778,-0.11303867310876742]","[-1,-1,-1]","[0.18995117981282114,0.015783742952592574]","[1,1,1]","[0.13661116322980274,-0.05002842662085673]","[1,1,1]","[0.09893860890339251,-0.0698611504601895]","[1,1,1]","[0.11837801410979466,0.1151537218792806]","[1,1,1]","[0.11514531736349318,0.005326804246913609]","[1,1,1]","[-0.10105317345517949,-0.009454503243886987]","[1,1,1]","[0.17521935180985826,-0.09312518678189166]","[1,1,1]","[-0.08038957888864566,0.18104101455218724]","[-1,-1,-1]","[0.06746055066305794,-0.1805770475985824]","[-1,-1,-1]","[-0.06931646601751289,0.022071210421444696]","[1,1,1]","[-0.05815914264458785,-0.1010804499933514]","[1,1,1]","[0.03989688973028557,0.16832447340094484]","[-1,-1,-1]","[-0.016614078574948392,-0.0831273153333155]","[1,1,1]","[-0.01938208528591479,0.12344440039769539]","[-1,-1,-1]","[-0.03663190917945045,0.08029845793004399]","[1,1,1]","[-0.02078015749303986,0.1755723924841022]","[-1,-1,-1]","[0.02424842655378275,0.022602813420653768]","[-1,-1,-1]","[-0.18201116440460846,-0.04086113117520662]","[-1,-1,-1]","[0.02,0.02]",867.2957,0,27,27,106,1,,,,,,,
,,,,,,,615e9c2b293734ccc98eb126,682db417f255cfae6d4df9a9,2025-05-21_13h08.20.684,cuing_paradigm_dot,2024.1.5,Win32,60.24096386,682d556593cb38ad0a074487,,,,,,,,,,,867.2967,867.795,,,868.0527,868.5125,right,0.445,,,,,,,,,0.9,,,,,,867.7952,868.0527,868.5127,"[-0.16943844003453631,-0.06978405791916348]","[1,1,1]","[-0.11769243211317149,0.14537407397797983]","[1,1,1]","[0.046678293626956996,-0.02570946869478725]","[1,1,1]","[0.013443099970871791,0.092423830326675]","[1,1,1]","[0.11220030701430261,0.0580363760150793]","[1,1,1]","[-0.042012031928355995,0.03923307351963673]","[1,1,1]","[-0.0073749352407452805,0.0034938059174337167]","[1,1,1]","[0.1478320105611882,-0.05336323854454396]","[1,1,1]","[0.05274071782321445,-0.07208903617179528]","[1,1,1]","[0.1742811050819095,0.09649405674322807]","[1,1,1]","[0.1606760906816868,-0.117151899331086]","[1,1,1]","[-0.028780879725181806,-0.08601688342469932]","[1,1,1]","[0.1773407650272693,-0.023946232654452775]","[1,1,1]","[0.08777783167580493,-0.004097552466656244]","[-1,-1,-1]","[0.13900190617328498,0.12925673833665008]","[1,1,1]","[-0.08728901123904356,-0.02984303672662619]","[1,1,1]","[-0.10254326661537004,-0.12237283373798216]","[1,1,1]","[-0.17750829506339544,0.008167793501040887]","[1,1,1]","[0.1832220091900922,0.05653625464980001]","[1,1,1]","[-0.1368970693820683,-0.01090411458116362]","[1,1,1]","[-0.13310462742111484,0.10606704674445476]","[1,1,1]","[0.09789121575348775,-0.1594382271234221]","[1,1,1]","[0.03505058928967973,-0.18092863102210469]","[1,1,1]","[0.13204151839479508,0.022174239081495458]","[1,1,1]","[-0.17347990794299045,0.08643510980421609]","[-1,-1,-1]","[-0.016127139770089324,-0.18857989843016784]","[1,1,1]","[-0.016721874937851527,0.1398312316234617]","[1,1,1]","[0.03699878599443937,0.1803236173687734]","[1,1,1]","[-0.09009183299673365,0.07770055878718897]","[1,1,1]","[0.07042043978969913,-0.12032271209667322]","[-1,-1,-1]","[-0.05227521398126159,0.09722282009549688]","[1,1,1]","[0.08527826610633707,0.12017370313051441]","[1,1,1]","[0.02,0.02]",869.6124,0,28,28,188,1,,,,,,,
,,,,,,,615e9c2b293734ccc98eb126,682db417f255cfae6d4df9a9,2025-05-21_13h08.20.684,cuing_paradigm_dot,2024.1.5,Win32,60.24096386,682d556593cb38ad0a074487,,,,,,,,,,,869.6135,870.1122,,,870.3653,870.6634,right,0.2816,,,,,,,,,0.9,,,,,,870.1124,870.3652,870.6635,"[0.02608219974066133,0.10502307761965429]","[1,1,1]","[-0.158001945791802,0.055199525184227584]","[-1,-1,-1]","[0.03908565277210882,0.002655942247903323]","[1,1,1]","[0.1344081106182638,-0.11532193004599338]","[1,1,1]","[0.11456902516793664,0.14725823162928076]","[1,1,1]","[0.09724299008153772,0.00038502233983849784]","[1,1,1]","[-0.01061592225522611,-0.04654125949891373]","[1,1,1]","[-0.1046135982651598,0.07397938350124215]","[1,1,1]","[0.00048147595320477,-0.1206025372069189]","[1,1,1]","[-0.04047880764316901,-0.17424102589162116]","[1,1,1]","[0.199704118059369,-0.0066753234339511965]","[1,1,1]","[0.03750803161543697,0.1670861393456948]","[1,1,1]","[-0.034108794983282696,0.16039773235904783]","[-1,-1,-1]","[-0.14198597110118882,-0.052577107267109256]","[1,1,1]","[-0.19651913436341112,-0.025419724824804063]","[1,1,1]","[0.037497585273975016,-0.18060373986052777]","[1,1,1]","[-0.05539844815843915,-0.08459495762520682]","[1,1,1]","[-0.024521272822756714,0.10790302744971378]","[1,1,1]","[-0.10267450663425974,-0.12031096004173719]","[1,1,1]","[0.08687819581039759,0.17969537991759202]","[-1,-1,-1]","[0.04872202613052617,-0.06559471231892382]","[1,1,1]","[-0.07136202283729479,0.10324770244849178]","[1,1,1]","[-0.012886227932536277,0.06652650484153355]","[1,1,1]","[-0.04710211149634988,-0.015142438644469649]","[1,1,1]","[-0.1077555718787102,0.0039168482626665245]","[1,1,1]","[-0.005783647836346702,-0.1987525864582501]","[1,1,1]","[-0.0438883774025022,-0.1336283574435193]","[1,1,1]","[-0.1345974034856477,0.13208958483704103]","[1,1,1]","[-0.06325222202379867,0.06407367232610223]","[1,1,1]","[0.16824190768862748,-0.08511041634722792]","[1,1,1]","[0.08177985996065135,0.0821639294260752]","[1,1,1]","[0.06418655053670336,-0.1207229930071211]","[1,1,1]","[0.02,0.02]",871.7624,0,29,29,183,1,,,,,,,
,,,,,,,615e9c2b293734ccc98eb126,682db417f255cfae6d4df9a9,2025-05-21_13h08.20.684,cuing_paradigm_dot,2024.1.5,Win32,60.24096386,682d556593cb38ad0a074487,,,,,,,,,,,871.7632,872.261,,,872.5191,872.9128,left,0.3773,,,,,,,,,0.4,,,,,,872.2611,872.5191,872.913,"[-0.1604333688403014,-0.024651048459847405]","[-1,-1,-1]","[0.005010972746480341,-0.03746057585172267]","[1,1,1]","[-0.05804668420245914,-0.1729958425001819]","[-1,-1,-1]","[0.06047603673290761,0.18787649526305492]","[-1,-1,-1]","[0.1355269666556493,0.1328350499477662]","[-1,-1,-1]","[-0.015560096611424589,-0.11669272377060677]","[-1,-1,-1]","[-0.03775211512756562,0.0950548172517271]","[-1,-1,-1]","[-0.15379510234033378,-0.0945283289183586]","[-1,-1,-1]","[0.017887727078990112,0.047987520129419814]","[1,1,1]","[0.1344330862598988,-0.1004148955163287]","[-1,-1,-1]","[-0.10958853573648789,-0.15443782546484486]","[1,1,1]","[0.17727538568460177,-0.029783454456118703]","[-1,-1,-1]","[-0.04374152483329504,-0.03279168686838482]","[-1,-1,-1]","[0.06339139056417266,0.14559864467571426]","[1,1,1]","[-0.079925464610868,0.17645519729552195]","[1,1,1]","[0.16774613626585705,0.07837239542591411]","[1,1,1]","[0.07422150789735377,-0.16640977834829906]","[1,1,1]","[0.06692650567531551,-0.07718295031246826]","[-1,-1,-1]","[-0.09760276018984028,0.058862750972357096]","[1,1,1]","[-0.07847950273102954,0.11879653635851835]","[1,1,1]","[0.0721422752099092,0.0076688112887605825]","[1,1,1]","[0.11448918827640664,0.005690589063437862]","[-1,-1,-1]","[0.08841697469064017,0.0714164223472896]","[1,1,1]","[-0.12887336561779328,0.13226309407037]","[-1,-1,-1]","[0.11813569899013818,-0.05298811954733577]","[-1,-1,-1]","[-0.14782569006064272,0.09660563997594226]","[1,1,1]","[-0.002522835475845865,0.15198105491757236]","[-1,-1,-1]","[0.01611191695390772,0.19655797216861345]","[-1,-1,-1]","[-0.05861323800666688,0.0349958358141624]","[-1,-1,-1]","[0.18945543624337527,0.025148649718521484]","[-1,-1,-1]","[0.018549787919142854,-0.16697656067916136]","[1,1,1]","[0.04170088281699812,0.10608015256121744]","[-1,-1,-1]","[0.02,0.02]",874.0029,0,30,30,41,1,,,,,,,
,,,,,,,615e9c2b293734ccc98eb126,682db417f255cfae6d4df9a9,2025-05-21_13h08.20.684,cuing_paradigm_dot,2024.1.5,Win32,60.24096386,682d556593cb38ad0a074487,,,,,,,,,,,874.0031,874.4957,,,874.7474,875.0616,left,0.2844,,,,,,,,,0.4,,,,,,874.4958,874.7474,875.0617,"[-0.12606776401328898,0.01028015096997142]","[-1,-1,-1]","[0.0653580302349119,-0.08016926257161837]","[-1,-1,-1]","[-0.06906573420629789,-0.17403250872808473]","[-1,-1,-1]","[-0.0005782111812358927,-0.0017553717631473731]","[-1,-1,-1]","[-0.0174839642677148,0.10534279210700424]","[-1,-1,-1]","[0.06250208875301239,0.05724761401057737]","[1,1,1]","[0.0007422302313283624,-0.04559886606405436]","[-1,-1,-1]","[-0.02499858216496197,-0.15165324251878173]","[1,1,1]","[0.12512873143090028,-0.12272819190119107]","[-1,-1,-1]","[-0.13303661800479538,0.13525675479705737]","[-1,-1,-1]","[-0.011307370065904918,-0.10853624501110386]","[1,1,1]","[-0.19363786144223813,-0.021848782068672332]","[-1,-1,-1]","[-0.07955736055893972,-0.07769898394446802]","[-1,-1,-1]","[-0.11415695010549191,-0.12601546622461568]","[-1,-1,-1]","[0.001801194891215187,0.17161635305517012]","[-1,-1,-1]","[0.15243016988453942,-0.06479552114175978]","[-1,-1,-1]","[0.14291040110661893,0.04314848387047954]","[1,1,1]","[0.015205327963539997,-0.16482194673693615]","[1,1,1]","[0.11494664421580468,-0.018035591848330534]","[1,1,1]","[0.11120028127732715,0.1318488457506869]","[-1,-1,-1]","[0.04355548619566209,0.11926082614188817]","[-1,-1,-1]","[-0.16890571740841426,0.02894485274426208]","[-1,-1,-1]","[0.040241132562976095,0.18564744773824043]","[1,1,1]","[0.05992171650070412,-0.14568383481264377]","[1,1,1]","[0.13509605811232875,0.08660390027737734]","[1,1,1]","[0.06680579296824193,-0.017055685827717153]","[1,1,1]","[-0.013154228322014341,0.058232577795034005]","[1,1,1]","[-0.1054680791093786,-0.04148893769584261]","[1,1,1]","[-0.05094991638829403,-0.022223863088085157]","[-1,-1,-1]","[-0.055184465777958415,0.12482244002327142]","[1,1,1]","[-0.13438936856291075,0.06870689711064652]","[-1,-1,-1]","[-0.07900086669059644,0.16069462158389886]","[-1,-1,-1]","[0.02,0.02]",876.162,0,31,31,50,1,,,,,,,
,,,,,,,615e9c2b293734ccc98eb126,682db417f255cfae6d4df9a9,2025-05-21_13h08.20.684,cuing_paradigm_dot,2024.1.5,Win32,60.24096386,682d556593cb38ad0a074487,,,,,,,,,,,876.163,876.6621,,,876.9199,877.5958,left,0.6594,,,,,,,,,0.45,,,,,,876.6622,876.9199,877.5959,"[0.1377051174723945,0.05473070412136263]","[-1,-1,-1]","[-0.006369758337993948,0.12108927899423923]","[-1,-1,-1]","[-0.1249980840588102,-0.022249764190521548]","[-1,-1,-1]","[0.07542491145497525,-0.17549915807028912]","[-1,-1,-1]","[0.03424073024859787,-0.006838153545320393]","[-1,-1,-1]","[0.0373916112613818,0.037726342009605604]","[1,1,1]","[0.12922469924667257,-0.04561510595392989]","[1,1,1]","[0.03773888306876962,0.12147494632628755]","[-1,-1,-1]","[-0.08988335197870104,-0.12680591955924184]","[1,1,1]","[-0.0672851641447384,-0.039424281750388965]","[-1,-1,-1]","[-0.025935496089579485,0.01082567050313736]","[-1,-1,-1]","[-0.19297187635913896,0.03291845625430865]","[1,1,1]","[-0.10019400364656178,-0.07718547985748754]","[1,1,1]","[0.08988986296189042,-0.07954663032290835]","[1,1,1]","[0.17232316151541843,0.001253499632060414]","[-1,-1,-1]","[0.13252505976163206,0.1469996142557788]","[-1,-1,-1]","[-0.12909211583664293,0.018427195471856322]","[-1,-1,-1]","[-0.16084837917306788,0.0824537505865187]","[-1,-1,-1]","[0.06948726870298165,0.09180605317331425]","[-1,-1,-1]","[-0.02966000579169609,-0.17069593233046054]","[1,1,1]","[-0.0057565222380667955,-0.11850855905728033]","[1,1,1]","[-0.09441593973617234,0.15795158704062529]","[-1,-1,-1]","[0.0036779956570188884,-0.19550813593453711]","[1,1,1]","[0.16624445579212735,-0.07420579832672944]","[1,1,1]","[-0.09021866141953695,0.08458943239650853]","[1,1,1]","[0.11163848437543991,0.006180617709123954]","[1,1,1]","[-0.04396201042212271,0.17517685687767146]","[-1,-1,-1]","[-0.038021220892816246,-0.08555595212995379]","[-1,-1,-1]","[-0.005823441033643439,-0.052945248764910226]","[1,1,1]","[0.16227044646311892,0.11165454707856162]","[1,1,1]","[0.07821624261644536,0.03107228120607295]","[-1,-1,-1]","[0.1890859888624575,-0.03910693569698026]","[-1,-1,-1]","[0.02,0.02]",878.6945,0,32,32,77,1,,,,,,,
,,,,,,,615e9c2b293734ccc98eb126,682db417f255cfae6d4df9a9,2025-05-21_13h08.20.684,cuing_paradigm_dot,2024.1.5,Win32,60.24096386,682d556593cb38ad0a074487,,,,,,,,,,,878.6957,879.195,,,879.4523,880.1032,left,0.6338,,,,,,,,,0.5,,,,,,879.1952,879.4523,880.1032,"[0.09713881127066464,-0.10063259075920553]","[-1,-1,-1]","[0.17698038226379192,0.0024200603950879675]","[-1,-1,-1]","[0.1754158129827331,0.06106343146539009]","[1,1,1]","[0.03643239918010654,-0.13244415254203082]","[-1,-1,-1]","[-0.10263825444000303,0.061400461570345066]","[1,1,1]","[0.1410104450526245,-0.018642634418903795]","[-1,-1,-1]","[-0.13370450408016676,0.09780026839476827]","[-1,-1,-1]","[0.012532440574683472,-0.09685104206787257]","[1,1,1]","[0.04317235683953352,0.02011147259744538]","[-1,-1,-1]","[0.006886921557791255,0.07532435872873987]","[1,1,1]","[0.0955562660345939,0.10525942029343667]","[1,1,1]","[-0.15711279016724927,0.008649145547189666]","[1,1,1]","[-0.17819226137339417,-0.03580763697080973]","[-1,-1,-1]","[-0.06655629725805351,0.11562683946244327]","[-1,-1,-1]","[0.09976203854323143,-0.16236407759796362]","[-1,-1,-1]","[0.1563187115081716,-0.06814588762392529]","[1,1,1]","[-0.044086982405732424,0.0578298019742723]","[1,1,1]","[0.08536602148740724,-0.035058387642976835]","[-1,-1,-1]","[0.13866192546615652,0.10955954141919642]","[1,1,1]","[0.06179093957082945,0.13299659964418303]","[1,1,1]","[-0.0859151387229922,-0.04028178389616933]","[1,1,1]","[0.13431042114613778,0.05261026105844402]","[-1,-1,-1]","[0.13710759353409677,-0.12657948850830245]","[-1,-1,-1]","[-0.03469166482339097,-0.17477501229146197]","[1,1,1]","[-0.09019347256138634,-0.08368449420276167]","[1,1,1]","[0.08678187835670247,0.057026836052099926]","[1,1,1]","[-0.12856046321984793,-0.1485659156689623]","[-1,-1,-1]","[-0.02368336886415726,-0.04684205995139864]","[-1,-1,-1]","[0.028841297338273363,-0.18918968805512065]","[-1,-1,-1]","[-0.06656920915919161,0.17132991429348737]","[1,1,1]","[-0.11461910129792235,-0.0034725773695257643]","[-1,-1,-1]","[0.011651533724448769,0.1770746220122519]","[1,1,1]","[0.02,0.02]",881.1953,0,33,33,95,1,,,,,,,
,,,,,,,615e9c2b293734ccc98eb126,682db417f255cfae6d4df9a9,2025-05-21_13h08.20.684,cuing_paradigm_dot,2024.1.5,Win32,60.24096386,682d556593cb38ad0a074487,,,,,,,,,,,881.1959,881.695,,,881.9527,882.3455,right,0.3776,,,,,,,,,0.6,,,,,,881.6951,881.9527,882.3456,"[-0.16639294783141245,-0.01712651969421391]","[1,1,1]","[-0.05633461006540434,-0.1881364707902891]","[-1,-1,-1]","[0.15428006855697865,-0.04611673602182623]","[-1,-1,-1]","[-0.13679229223546,0.09582067746506942]","[1,1,1]","[0.0657710843784591,-0.0959430796419033]","[1,1,1]","[0.0958331278730908,0.12163249863282208]","[1,1,1]","[0.08917279894848394,-0.017139814096592196]","[1,1,1]","[-0.04854438434026974,0.10618298284287708]","[-1,-1,-1]","[0.02825431835195797,-0.04567865589529758]","[1,1,1]","[0.15629547944725944,0.049543222371495756]","[1,1,1]","[0.1402571052038004,0.09171367222603295]","[1,1,1]","[-0.13126072199285613,-0.047922588322272384]","[-1,-1,-1]","[0.11495347772013308,-0.14534496915480904]","[-1,-1,-1]","[-0.10289869792767029,-0.11144717535354488]","[-1,-1,-1]","[-0.07585244165448403,-0.04792818713993947]","[-1,-1,-1]","[-0.02288698725069051,-0.1276532479639496]","[1,1,1]","[0.05538142519845579,0.05721906368125501]","[1,1,1]","[-0.18466819706875867,-0.07324620012345523]","[1,1,1]","[-0.0896986300595615,-0.1492995146094814]","[1,1,1]","[-0.10332009957550556,0.03694124483716159]","[-1,-1,-1]","[-0.03173656121870966,-0.022171154655291753]","[1,1,1]","[-0.0031919254802218197,0.007587163483023537]","[1,1,1]","[0.04467473519087712,0.1584161929864767]","[-1,-1,-1]","[-0.05811026697451712,0.15005569067516072]","[1,1,1]","[-0.06283958802156783,0.018054902965146835]","[-1,-1,-1]","[-0.1275636221348861,-0.004414081778740609]","[1,1,1]","[0.0014076243402458299,0.15684210637980078]","[1,1,1]","[-0.06279057562049341,-0.09870730675150456]","[1,1,1]","[-0.018326889313064976,-0.08733675772648199]","[-1,-1,-1]","[-0.09615405976267263,0.13521941981819743]","[-1,-1,-1]","[0.06117740853519845,-0.15975528810746073]","[1,1,1]","[-0.1812233145436191,0.06763940254319994]","[-1,-1,-1]","[0.02,0.02]",883.445,0,34,34,171,1,,,,,,,
,,,,,,,615e9c2b293734ccc98eb126,682db417f255cfae6d4df9a9,2025-05-21_13h08.20.684,cuing_paradigm_dot,2024.1.5,Win32,60.24096386,682d556593cb38ad0a074487,,,,,,,,,,,883.4457,883.9448,,,884.1847,884.5783,right,0.3776,,,,,,,,,0.6,,,,,,883.945,884.1847,884.5785,"[0.042778419002902746,0.1822046336680074]","[-1,-1,-1]","[-0.07886823030265593,-0.14643346103867688]","[1,1,1]","[0.1933271609295765,-0.006615563694196732]","[-1,-1,-1]","[0.0625502729872975,-0.02302810646927267]","[1,1,1]","[0.08065498176482601,0.06842466456083053]","[-1,-1,-1]","[0.01841020282005907,0.09792047938590687]","[1,1,1]","[-0.12891304833146783,0.015744151066329974]","[-1,-1,-1]","[0.11530856855047632,-0.12413161031008696]","[-1,-1,-1]","[-0.01615027331227708,0.17961239841213755]","[1,1,1]","[0.07838300275153819,-0.10176476325875433]","[1,1,1]","[0.1496751770968006,0.05609429410190194]","[1,1,1]","[-0.12254873021078197,-0.042188166222406016]","[1,1,1]","[-0.09418905233607351,-0.012867152786887659]","[1,1,1]","[0.004995290122283252,-0.18408901381076356]","[1,1,1]","[-0.18507813904579654,-0.07034561110692049]","[1,1,1]","[0.15160521936857713,-0.05888360384879633]","[1,1,1]","[-0.05702889794636153,0.12389483065808758]","[1,1,1]","[-0.12535242388329332,0.10087755363852026]","[-1,-1,-1]","[0.133625331787542,0.012541058684047306]","[1,1,1]","[0.03858547527470536,-0.13266042400424388]","[1,1,1]","[0.06802298343503049,0.12167126361890981]","[-1,-1,-1]","[0.11735474346179225,0.10703542385631405]","[1,1,1]","[-0.013993945003006759,0.0016557001602398374]","[1,1,1]","[-0.03483458659902624,0.04864153004821111]","[-1,-1,-1]","[-0.08887282386871823,-0.07903094529446644]","[1,1,1]","[0.048358315645283256,0.023649038921016188]","[-1,-1,-1]","[-0.1428209217958463,-0.08470602275357221]","[-1,-1,-1]","[-0.13366348325598537,-0.13872047857904773]","[-1,-1,-1]","[0.01954649882941271,-0.07449176148835962]","[-1,-1,-1]","[0.09523628343592098,0.1559127357453392]","[1,1,1]","[-0.0413826317453783,-0.0947340087741146]","[1,1,1]","[-0.16913503361766588,0.0016783584762549667]","[-1,-1,-1]","[0.02,0.02]",885.6784,0,35,35,165,1,,,,,,,
,,,,,,,615e9c2b293734ccc98eb126,682db417f255cfae6d4df9a9,2025-05-21_13h08.20.684,cuing_paradigm_dot,2024.1.5,Win32,60.24096386,682d556593cb38ad0a074487,,,,,,,,,,,885.6792,886.1781,,,886.4325,886.6773,left,0.237,,,,,,,,,0.1,,,,,,886.1782,886.4325,886.6774,"[-0.015490124382330448,-0.13121882591035058]","[-1,-1,-1]","[-0.15480339195790657,0.033917555994220486]","[-1,-1,-1]","[0.02683429666167061,-0.17956992121799917]","[-1,-1,-1]","[0.18708940290351164,-0.04960751483149372]","[-1,-1,-1]","[-0.16864897718549868,-0.018680798030798744]","[-1,-1,-1]","[0.09496009003070537,0.17015719612192476]","[-1,-1,-1]","[-0.02380780238126271,0.11680286676392244]","[-1,-1,-1]","[0.15464776188114734,0.00850967828697298]","[-1,-1,-1]","[-0.06189040206844716,-0.18796596726245146]","[1,1,1]","[0.12960675840635721,0.14981509987287103]","[-1,-1,-1]","[-0.06715219159790647,0.17745677683751732]","[1,1,1]","[0.0736314970899266,-0.04457599491235106]","[-1,-1,-1]","[0.169285072140009,0.058397914767785344]","[-1,-1,-1]","[0.0503471655846669,0.03311288405617234]","[-1,-1,-1]","[-0.024059053386374676,0.16225602925409344]","[-1,-1,-1]","[-0.11939703924704326,-0.07768179172624683]","[-1,-1,-1]","[-0.02928192919406281,-0.06201575703711289]","[1,1,1]","[0.03131720516138235,-0.10439207946722673]","[-1,-1,-1]","[-0.10618169709621636,0.06162403695011549]","[-1,-1,-1]","[0.1364344784405139,-0.04600401324172363]","[-1,-1,-1]","[0.028961452690657623,0.14104030780542112]","[-1,-1,-1]","[-0.10673422367483565,-0.01829598056792528]","[-1,-1,-1]","[0.009134466387417172,0.07957569461332803]","[-1,-1,-1]","[0.11366122292446872,-0.14487529449737846]","[-1,-1,-1]","[-0.1994129098026657,0.006898019612751268]","[-1,-1,-1]","[0.10035214650839636,0.07614844240303335]","[-1,-1,-1]","[-0.1168838276605738,-0.14682422362599007]","[-1,-1,-1]","[-0.06288307381282802,0.012763778102642958]","[-1,-1,-1]","[0.03236623721292152,-0.0619928682976198]","[-1,-1,-1]","[0.05064350464627878,0.17860524362511415]","[-1,-1,-1]","[-0.1069049011714124,0.14347401318701908]","[-1,-1,-1]","[-0.02838852093133831,0.06550132874450935]","[-1,-1,-1]","[0.02,0.02]",887.7771,0,36,36,7,1,,,,,,,
,,,,,,,615e9c2b293734ccc98eb126,682db417f255cfae6d4df9a9,2025-05-21_13h08.20.684,cuing_paradigm_dot,2024.1.5,Win32,60.24096386,682d556593cb38ad0a074487,,,,,,,,,,,887.7781,888.2781,,,888.5287,888.8301,right,0.2784,,,,,,,,,0.9,,,,,,888.2782,888.5286,888.8301,"[0.17498987481736047,0.002804449282601873]","[1,1,1]","[-0.12538101889053724,-0.1293170506956411]","[1,1,1]","[0.10389092370920042,0.13452134676857022]","[1,1,1]","[0.03406511168739941,-0.09754675637728773]","[1,1,1]","[-0.12654174964697637,0.1354846777856288]","[1,1,1]","[0.07484247863910264,-0.0616098225435869]","[1,1,1]","[0.17618723697403005,-0.07781692872533631]","[1,1,1]","[-0.02099373692343027,0.032477553075108495]","[1,1,1]","[-0.009641504949101563,0.08327386162365527]","[1,1,1]","[0.13779510807161335,-0.10303220608523642]","[1,1,1]","[0.045724810456674876,-0.14054049233172752]","[1,1,1]","[-0.10342010037209011,0.08365015078694515]","[1,1,1]","[-0.01084851791982572,-0.026728803708961284]","[1,1,1]","[0.1335667944917899,0.017173901426074372]","[-1,-1,-1]","[0.05567693334196153,0.011377459780241175]","[-1,-1,-1]","[-0.06903242359123549,0.15296516619897982]","[1,1,1]","[-0.1904665026038658,0.012695738399883175]","[-1,-1,-1]","[0.087191494663191,-0.10676151261717347]","[1,1,1]","[-0.06175613805340172,-0.15711571182864734]","[1,1,1]","[-0.03512208756430723,-0.07612959768877488]","[1,1,1]","[-0.059687947623940835,-0.016128295401704407]","[1,1,1]","[-0.16994362010033165,0.0944968074966487]","[1,1,1]","[-0.07757035440264708,-0.05721709373035014]","[1,1,1]","[0.09224961633688364,-0.012986511007943477]","[1,1,1]","[0.12284235702778896,0.08337006124300084]","[1,1,1]","[-0.06100299839220702,-0.11134847711281673]","[1,1,1]","[0.04122834796173087,0.18413672938817868]","[1,1,1]","[-0.007540266911637301,-0.10719430694485554]","[1,1,1]","[-0.16448922532713944,-0.03997145907833375]","[1,1,1]","[0.11375010036114538,-0.1555745206989298]","[1,1,1]","[0.04329999037504085,0.05063521058495441]","[1,1,1]","[0.009500739433400207,0.12903241160514495]","[1,1,1]","[0.02,0.02]",889.9276,0,37,37,197,1,,,,,,,
,,,,,,,615e9c2b293734ccc98eb126,682db417f255cfae6d4df9a9,2025-05-21_13h08.20.684,cuing_paradigm_dot,2024.1.5,Win32,60.24096386,682d556593cb38ad0a074487,,,,,,,,,,,889.9288,890.4275,,,890.6788,891.1118,left,0.4012,,,,,,,,,0.5,,,,,,890.4276,890.6788,891.112,"[0.036197896227833024,0.03146197206511053]","[-1,-1,-1]","[-0.13822085692204644,0.02774403745933117]","[1,1,1]","[-0.08813148128802233,0.13928060769178022]","[1,1,1]","[0.012218252636775876,0.0917309677722939]","[1,1,1]","[0.12198764827423379,-0.08478442514230022]","[-1,-1,-1]","[-0.05105406582193981,-0.02590976258531408]","[-1,-1,-1]","[0.08588609481943082,0.15787322620832622]","[1,1,1]","[0.1563364836021291,0.0033829938680092356]","[1,1,1]","[0.06863593776120144,0.08918470478088805]","[1,1,1]","[-0.16682786119936457,-0.09714354226237004]","[-1,-1,-1]","[-0.04983280876159169,-0.07428809455078358]","[1,1,1]","[-0.03776938186971029,-0.15557765442635163]","[1,1,1]","[0.03283778083008576,-0.18296274055997308]","[-1,-1,-1]","[0.10798507641606621,-0.1273411017761193]","[-1,-1,-1]","[-0.005897878336897387,-0.10897438140035545]","[-1,-1,-1]","[-0.12588408209028532,-0.03523031851491802]","[-1,-1,-1]","[0.03619500386132873,0.1517388578150046]","[1,1,1]","[0.13926555317632186,-0.0445808645382772]","[-1,-1,-1]","[-0.11336419640432423,-0.10590347187308824]","[1,1,1]","[0.16192730680900644,0.09632931272851296]","[-1,-1,-1]","[0.1944243996589763,-0.036388495896951]","[1,1,1]","[-0.08761995113435002,0.09323667046353568]","[-1,-1,-1]","[-0.0724422944650191,0.025998636706966984]","[-1,-1,-1]","[-0.018328958960154157,0.1586275110197338]","[1,1,1]","[-0.07167384375702866,-0.17915627390743888]","[1,1,1]","[0.07846640407937151,-0.09283561222277859]","[1,1,1]","[-0.09988239495352433,-0.0033835920070535304]","[-1,-1,-1]","[0.0774688825963227,-0.01644582431063261]","[-1,-1,-1]","[0.03346932614333475,-0.04223027897488404]","[-1,-1,-1]","[0.12178037107568025,0.13555502623612625]","[1,1,1]","[0.03792699242239925,-0.11260645237410229]","[-1,-1,-1]","[0.04951663936230901,0.1898023137553385]","[1,1,1]","[0.02,0.02]",892.2126,0,38,38,100,1,,,,,,,
,,,,,,,615e9c2b293734ccc98eb126,682db417f255cfae6d4df9a9,2025-05-21_13h08.20.684,cuing_paradigm_dot,2024.1.5,Win32,60.24096386,682d556593cb38ad0a074487,,,,,,,,,,,892.2129,892.7121,,,892.964,893.4109,left,0.432,,,,,,,,,0.6,,,,,,892.7121,892.964,893.411,"[-0.07361727254848428,0.08117705784028749]","[-1,-1,-1]","[-0.12203272050655387,0.1241879835028538]","[1,1,1]","[0.1040313274217446,-0.10995282209726608]","[-1,-1,-1]","[-0.13089318862014152,-0.09231875524556044]","[-1,-1,-1]","[-0.06889269650924176,0.01100822543919023]","[1,1,1]","[-0.011579834722599727,-0.07253404461458254]","[1,1,1]","[0.0583275632613694,0.06118195859107796]","[1,1,1]","[-0.09487891132634926,0.1624871924517713]","[1,1,1]","[0.0032785047910739904,0.18112723876393355]","[1,1,1]","[0.0312878534444412,0.00622724888391717]","[-1,-1,-1]","[-0.1044164367435056,-0.018500386610964765]","[-1,-1,-1]","[-0.05583410640652913,-0.1569884337589789]","[1,1,1]","[0.15990366887060578,0.06307492476825385]","[1,1,1]","[-0.10085519256390954,-0.16229557394219252]","[1,1,1]","[-0.1847333945287914,0.0017782140659070593]","[1,1,1]","[-0.07064607554499687,-0.08744433099837391]","[1,1,1]","[-0.1661044397770366,0.06349407212561203]","[1,1,1]","[-0.19047179345080664,-0.05101760117146941]","[1,1,1]","[-0.014649429342944399,0.11012540653133904]","[-1,-1,-1]","[0.04456814438519443,-0.11839081315247989]","[1,1,1]","[-0.034600033450924425,0.15361472588426558]","[-1,-1,-1]","[0.0934427101952914,0.0019824459227109985]","[1,1,1]","[0.10441504974060829,0.1467454474542214]","[-1,-1,-1]","[0.09004400890344161,-0.0471420105975687]","[-1,-1,-1]","[0.07441005399845382,-0.18368050903207958]","[1,1,1]","[0.13422319560081622,0.017727270015538903]","[-1,-1,-1]","[0.05166499321485733,0.18189340129488862]","[-1,-1,-1]","[-0.013912584744808342,-0.17003466246549598]","[1,1,1]","[-0.032155225655345517,-0.029119757598186056]","[-1,-1,-1]","[-0.03762516445127165,-0.11353409732670902]","[1,1,1]","[-0.0009813063361508475,0.03316697496226593]","[1,1,1]","[0.04605249850667736,-0.03901076994898813]","[-1,-1,-1]","[0.02,0.02]",894.5104,0,39,39,153,1,,,,,,,
,,,,,,,615e9c2b293734ccc98eb126,682db417f255cfae6d4df9a9,2025-05-21_13h08.20.684,cuing_paradigm_dot,2024.1.5,Win32,60.24096386,682d556593cb38ad0a074487,,,,,,,,,,,894.5119,895.0101,,,895.2516,895.7439,left,0.485,,,,,,,,,0.45,,,,,,895.0103,895.2516,895.744,"[0.11060598415882444,0.1559832913580747]","[-1,-1,-1]","[-0.06230744384323862,-0.03927948156493936]","[-1,-1,-1]","[-0.02892992491841438,0.05015917586902331]","[-1,-1,-1]","[0.09197608346772153,-0.07434810918018235]","[1,1,1]","[0.014579639142263876,-0.06482813398347011]","[1,1,1]","[-0.17051911019321658,0.08567139757159523]","[-1,-1,-1]","[0.1375111338646096,0.034580716829154666]","[-1,-1,-1]","[0.11345043830479115,0.10530754665427178]","[-1,-1,-1]","[-0.10314727240626809,0.10572286055411378]","[1,1,1]","[-0.06840921131764902,0.17751487202791325]","[-1,-1,-1]","[0.0934257573810345,-0.15444131649353318]","[-1,-1,-1]","[0.16040097460282063,0.0009052176851897553]","[1,1,1]","[0.08511254474675557,-0.03140779960129188]","[-1,-1,-1]","[-0.06335802026090775,-0.08795392049754745]","[-1,-1,-1]","[0.14423867973877177,-0.12205890973795984]","[-1,-1,-1]","[-0.00900395588373555,-0.1124680043576454]","[1,1,1]","[-0.13926265106509397,-0.08177629685535026]","[1,1,1]","[-0.15336317151404397,0.04785238911065412]","[-1,-1,-1]","[-0.06789679930171709,0.06527185684281454]","[-1,-1,-1]","[-0.05064228448062027,-0.1777123476793574]","[-1,-1,-1]","[0.04958291761282719,0.1373368776505398]","[1,1,1]","[0.18334662634489643,0.043835542988681676]","[1,1,1]","[0.05078948557454393,0.023094451925300234]","[1,1,1]","[0.0016855837115242467,0.19914288628396873]","[-1,-1,-1]","[-0.17721311140303547,-0.06344884491206752]","[1,1,1]","[-0.19401868992353374,-0.018148238175697908]","[1,1,1]","[0.008460588165399022,-0.1766422865584163]","[-1,-1,-1]","[0.0932908368055866,0.03652378801067757]","[1,1,1]","[0.01617308343553274,0.001682113565554664]","[-1,-1,-1]","[-0.04324948222445739,-0.0037040630571207704]","[1,1,1]","[0.1425646788582332,-0.07794349084509292]","[1,1,1]","[-0.11197977213816335,-0.00017604576957470442]","[-1,-1,-1]","[0.02,0.02]",896.8427,0,40,40,89,1,,,,,,,
,,,,,,,615e9c2b293734ccc98eb126,682db417f255cfae6d4df9a9,2025-05-21_13h08.20.684,cuing_paradigm_dot,2024.1.5,Win32,60.24096386,682d556593cb38ad0a074487,,,,,,,,,,,896.8431,897.335,,,897.5762,898.4777,right,0.8846,,,,,,,,,0.6,,,,,,897.3351,897.5761,898.4777,"[-0.08356732469989903,-0.06611343847883605]","[-1,-1,-1]","[-0.14582753836789145,0.11398454062422785]","[1,1,1]","[0.09435146240067609,-0.134152459082116]","[-1,-1,-1]","[0.021373888075470044,0.0646083547298212]","[1,1,1]","[-0.03678652958211366,-0.18708423226670157]","[1,1,1]","[0.11284163784609699,-0.01882047606713724]","[1,1,1]","[0.07668393269590507,-0.06192149270285904]","[-1,-1,-1]","[-0.041736990606119496,0.005811117602166175]","[1,1,1]","[0.12015707406820085,0.03314694100033132]","[1,1,1]","[-0.1726204654401055,0.08048216057412559]","[1,1,1]","[0.16854348581072656,0.006073164100214401]","[-1,-1,-1]","[-0.08375613522809905,-0.1391336062529579]","[1,1,1]","[0.13340673067658115,-0.14555314253615814]","[1,1,1]","[0.004118352834648649,-0.18586466938650795]","[-1,-1,-1]","[-0.017943452261626896,0.18036521599361033]","[-1,-1,-1]","[-0.14331125327187105,0.025050967013026542]","[1,1,1]","[0.013116713192087423,-0.0684139974908125]","[1,1,1]","[-0.10882410308351119,0.14637104842216944]","[1,1,1]","[-0.05771697926229631,0.09777619993297328]","[-1,-1,-1]","[-0.13774397164315913,-0.13687557665178288]","[-1,-1,-1]","[0.13374523255928586,-0.07038276899557404]","[1,1,1]","[-0.09988410384386179,0.07869607034096872]","[1,1,1]","[0.03372024522052089,-0.026196671579494797]","[1,1,1]","[-0.13422471174893374,-0.08642815325045365]","[-1,-1,-1]","[0.06048470915431988,0.18073129771339985]","[1,1,1]","[-0.01651483384013029,-0.13428135276338937]","[1,1,1]","[0.0748006221613832,0.03379481616109831]","[1,1,1]","[-0.1162227683927273,-0.03443408975874071]","[-1,-1,-1]","[0.05301888587370245,-0.138644371129687]","[-1,-1,-1]","[-0.03460626555497344,-0.07864380178156949]","[-1,-1,-1]","[-0.0033849092529885452,0.023780517932087936]","[1,1,1]","[0.1685924248335692,0.0981987797665295]","[-1,-1,-1]","[0.02,0.02]",899.5787,0,41,41,176,1,,,,,,,
,,,,,,,615e9c2b293734ccc98eb126,682db417f255cfae6d4df9a9,2025-05-21_13h08.20.684,cuing_paradigm_dot,2024.1.5,Win32,60.24096386,682d556593cb38ad0a074487,,,,,,,,,,,899.579,900.0756,,,900.317,900.7605,left,0.4298,,,,,,,,,0.1,,,,,,900.0757,900.3169,900.7606,"[0.07508184704609541,0.05724353833894301]","[1,1,1]","[0.0814148460608319,-0.0577723154538032]","[-1,-1,-1]","[0.045244772963694155,0.1468622327995008]","[-1,-1,-1]","[0.0654859665120149,0.015462654294114486]","[-1,-1,-1]","[-0.16808029784794937,-0.03786672998905092]","[-1,-1,-1]","[0.1387607737630509,-0.126987760905491]","[-1,-1,-1]","[0.03402903454152474,-0.08921792980276473]","[-1,-1,-1]","[0.03409827211097574,0.07447743037677129]","[-1,-1,-1]","[-0.015131647198961705,-0.01926369756280206]","[-1,-1,-1]","[-0.10353799560558222,-0.1549319113183081]","[-1,-1,-1]","[-0.06336919034600644,-0.09419545024425237]","[-1,-1,-1]","[-0.019371699654915746,0.0354269968079372]","[-1,-1,-1]","[0.1172998063636407,0.024906370808869923]","[-1,-1,-1]","[0.16333013651808045,0.007497770596779878]","[-1,-1,-1]","[-0.04300718305338723,-0.18189341892226807]","[-1,-1,-1]","[0.19526550690547637,-0.039682879967081496]","[-1,-1,-1]","[0.1527571375352448,-0.032639618668621334]","[-1,-1,-1]","[-0.14893076999854363,0.032595125216128965]","[-1,-1,-1]","[0.11636848900270055,0.11516954858274608]","[-1,-1,-1]","[-0.08799769581801821,-0.012967909916411287]","[-1,-1,-1]","[-0.10497683791798663,0.15310440222646476]","[-1,-1,-1]","[0.1698042100749058,-0.08216276090083728]","[1,1,1]","[-0.06296509386983276,0.08025944061298536]","[-1,-1,-1]","[0.009019522417462381,0.19509652894382487]","[-1,-1,-1]","[-0.17017623335584742,-0.08516109674460644]","[1,1,1]","[-0.027673680471975916,0.1669581223993391]","[-1,-1,-1]","[0.07120062126697596,0.1144294103997436]","[-1,-1,-1]","[-0.16049510431042172,0.10249178816099307]","[-1,-1,-1]","[-0.022824185646433213,0.08883221314661305]","[-1,-1,-1]","[0.08098252317455412,-0.1334377563338312]","[-1,-1,-1]","[-0.052659147097630754,0.0063621255248131866]","[-1,-1,-1]","[-0.13660471334836188,-0.13094406253254076]","[-1,-1,-1]","[0.02,0.02]",901.8599,0,42,42,4,1,,,,,,,
,,,,,,,615e9c2b293734ccc98eb126,682db417f255cfae6d4df9a9,2025-05-21_13h08.20.684,cuing_paradigm_dot,2024.1.5,Win32,60.24096386,682d556593cb38ad0a074487,,,,,,,,,,,901.8612,902.3602,,,902.6182,902.8774,right,0.2435,,,,,,,,,0.9,,,,,,902.3603,902.6181,902.8777,"[0.1511427232914197,0.07312445090288848]","[1,1,1]","[0.08246564190797832,0.10670549452494532]","[1,1,1]","[-0.04027103911924728,-0.09307872919579334]","[1,1,1]","[-0.022413756119048993,-0.14304194723935665]","[-1,-1,-1]","[-0.18324026612606856,0.03688768613659555]","[1,1,1]","[-0.04247632000930542,-0.019720828863677774]","[1,1,1]","[-0.0902102216493024,0.0363808950749062]","[1,1,1]","[-0.041208281274592744,0.18730433829642557]","[1,1,1]","[0.14761544130313103,0.1203289920543451]","[1,1,1]","[-0.1646375985474475,-0.008713013491007119]","[1,1,1]","[0.13623028801512402,-0.0015608865572178186]","[1,1,1]","[-0.17601922438206713,0.08104492779171618]","[-1,-1,-1]","[0.09408614642356333,-0.16564429433827685]","[1,1,1]","[0.0747126742792272,-0.06955746522290762]","[1,1,1]","[-0.15651612552483812,-0.07072371301559467]","[1,1,1]","[0.10610603331861605,0.06711967543450846]","[1,1,1]","[-0.07944061048364649,0.12783960079643664]","[-1,-1,-1]","[0.03293732417303059,-0.14927703637388878]","[1,1,1]","[0.16789906430679902,-0.09529366541475286]","[1,1,1]","[0.05257014810392822,-0.01061231142779866]","[1,1,1]","[0.021596494006535513,0.09423573094843982]","[1,1,1]","[-0.13161904010043893,0.11831740262098274]","[1,1,1]","[-0.13189066126230095,0.050154566720446526]","[1,1,1]","[-0.048862050983021904,0.02043512009535989]","[1,1,1]","[-0.1044037236927911,0.16685626772407705]","[1,1,1]","[-0.07868404443003428,-0.12910979673402034]","[1,1,1]","[-0.058942277278174415,-0.1851207057304392]","[1,1,1]","[-0.03803651790100716,0.0619092604965914]","[1,1,1]","[0.12419175030770535,-0.04809808675790953]","[1,1,1]","[-0.19277081524113124,-0.05115835645082827]","[1,1,1]","[-0.13454300172155909,-0.10907611093935217]","[1,1,1]","[-0.12373019110255007,-0.03976528007215068]","[1,1,1]","[0.02,0.02]",903.9778,0,43,43,184,1,,,,,,,
,,,,,,,615e9c2b293734ccc98eb126,682db417f255cfae6d4df9a9,2025-05-21_13h08.20.684,cuing_paradigm_dot,2024.1.5,Win32,60.24096386,682d556593cb38ad0a074487,,,,,,,,,,,903.978,904.477,,,904.7278,905.1267,right,0.3677,,,,,,,,,0.9,,,,,,904.477,904.7277,905.1269,"[0.09789464866265454,0.10350497746135645]","[1,1,1]","[-0.14042211088004636,0.08756629851721635]","[1,1,1]","[-0.07459883732017386,-0.030806071808088146]","[1,1,1]","[0.0765191127145844,-0.09755279314059308]","[1,1,1]","[0.02908556333618974,-0.06960831893259808]","[1,1,1]","[-0.09623108077331378,-0.07016391673994453]","[1,1,1]","[-0.09228822352947617,-0.15933622785221838]","[1,1,1]","[-0.07989029397190438,0.038794587222322666]","[1,1,1]","[0.1130821146104057,0.06601032350214303]","[1,1,1]","[-0.04957426298040959,-0.09972629180751963]","[1,1,1]","[-0.13361240943217723,-0.1382890421609351]","[1,1,1]","[0.06730458626009662,0.0426815958358259]","[1,1,1]","[0.054209938403465815,-0.008984895731693138]","[-1,-1,-1]","[0.014927966726897017,0.10788863036930368]","[1,1,1]","[0.16705133295556784,-0.00684792039095222]","[1,1,1]","[-0.04474909534288193,0.1027928244117844]","[-1,-1,-1]","[0.017570567141058476,0.19285675913181644]","[1,1,1]","[-0.08252497867085175,0.17565886926030636]","[1,1,1]","[0.05639795351140504,0.17541061527912646]","[1,1,1]","[0.14541940557424468,0.11038323002898111]","[1,1,1]","[0.03392275840778458,-0.17640986201687475]","[1,1,1]","[-0.031295688605419765,-0.17491791673079013]","[1,1,1]","[-0.12039465465101898,0.028222699327058846]","[1,1,1]","[0.07304464404227845,-0.05036013120757305]","[1,1,1]","[0.004779524521928773,0.0538721475140721]","[1,1,1]","[-0.18130875182063635,0.05070661462029807]","[1,1,1]","[0.17270462277528253,-0.057499722236238705]","[1,1,1]","[-0.0843490958103128,0.09394097543887368]","[1,1,1]","[0.0933190061564279,-0.14154249514632586]","[1,1,1]","[0.05576155610478786,0.12220154818526706]","[1,1,1]","[-0.16770744966441903,-0.0813121492591773]","[-1,-1,-1]","[0.011410756130260567,-0.011741636934179381]","[1,1,1]","[0.02,0.02]",906.2266,0,44,44,207,1,,,,,,,
