right,left,explain.started,explain.stopped,key_resp_3.keys,key_resp_3.rt,key_resp_3.duration,participant,session,date,expName,psychopyVersion,OS,frameRate,study_id,explain_2.started,explain_2.stopped,key_resp_4.keys,key_resp_4.rt,key_resp_4.duration,explain_3.started,explain_3.stopped,key_resp_5.keys,key_resp_5.rt,key_resp_5.duration,fixation.started,fixation.stopped,practice.started,practice.stopped,response.started,response.stopped,key_resp.keys,key_resp.rt,key_resp.duration,feedback.started,feedback.stopped,trials_2.thisRepN,trials_2.thisTrialN,trials_2.thisN,trials_2.thisIndex,trials_2.ran,white_ratio,explain_4.started,explain_4.stopped,key_resp_6.keys,key_resp_6.rt,key_resp_6.duration,dotDisplay.started,dotDisplay.stopped,ITI.started,polygon_1.pos,polygon_1.color,polygon_2.pos,polygon_2.color,polygon_3.pos,polygon_3.color,polygon_4.pos,polygon_4.color,polygon_5.pos,polygon_5.color,polygon_6.pos,polygon_6.color,polygon_7.pos,polygon_7.color,polygon_8.pos,polygon_8.color,polygon_9.pos,polygon_9.color,polygon_10.pos,polygon_10.color,polygon_11.pos,polygon_11.color,polygon_12.pos,polygon_12.color,polygon_13.pos,polygon_13.color,polygon_14.pos,polygon_14.color,polygon_15.pos,polygon_15.color,polygon_16.pos,polygon_16.color,polygon_17.pos,polygon_17.color,polygon_18.pos,polygon_18.color,polygon_19.pos,polygon_19.color,polygon_20.pos,polygon_20.color,polygon_21.pos,polygon_21.color,polygon_22.pos,polygon_22.color,polygon_23.pos,polygon_23.color,polygon_24.pos,polygon_24.color,polygon_25.pos,polygon_25.color,polygon_26.pos,polygon_26.color,polygon_27.pos,polygon_27.color,polygon_28.pos,polygon_28.color,polygon_29.pos,polygon_29.color,polygon_30.pos,polygon_30.color,polygon_31.pos,polygon_31.color,polygon_32.pos,polygon_32.color,dot_size,ITI.stopped,trials.thisRepN,trials.thisTrialN,trials.thisN,trials.thisIndex,trials.ran,break_2.started,break_2.stopped,trials_3.thisRepN,trials_3.thisTrialN,trials_3.thisN,trials_3.thisIndex,trials_3.ran
subject chose white,subject chose black,0.0003,25.8514,space,10.8323,,616891e25a026e1f7262116c,682db3c38a113f423e718947,2025-05-21_12h06.50.864,cuing_paradigm_dot,2024.1.5,Win32,75.75757576,682d556593cb38ad0a074487,,,,,,,,,,,,,,,,,,,,,,,,,,,,,,,,,,,,,,,,,,,,,,,,,,,,,,,,,,,,,,,,,,,,,,,,,,,,,,,,,,,,,,,,,,,,,,,,,,,,,,,,,,,,,,,,,
,,,,,,,616891e25a026e1f7262116c,682db3c38a113f423e718947,2025-05-21_12h06.50.864,cuing_paradigm_dot,2024.1.5,Win32,75.75757576,682d556593cb38ad0a074487,25.8527,64.0217,space,8.1602,,,,,,,,,,,,,,,,,,,,,,,,,,,,,,,,,,,,,,,,,,,,,,,,,,,,,,,,,,,,,,,,,,,,,,,,,,,,,,,,,,,,,,,,,,,,,,,,,,,,,,,,,,,,,
,,,,,,,616891e25a026e1f7262116c,682db3c38a113f423e718947,2025-05-21_12h06.50.864,cuing_paradigm_dot,2024.1.5,Win32,75.75757576,682d556593cb38ad0a074487,,,,,,64.0226,67.1391,space,0.0988,,,,,,,,,,,,,,,,,,,,,,,,,,,,,,,,,,,,,,,,,,,,,,,,,,,,,,,,,,,,,,,,,,,,,,,,,,,,,,,,,,,,,,,,,,,,,,,,,,,,,,,,
,,,,,,,616891e25a026e1f7262116c,682db3c38a113f423e718947,2025-05-21_12h06.50.864,cuing_paradigm_dot,2024.1.5,Win32,75.75757576,682d556593cb38ad0a074487,,,,,,,,,,,67.2106,67.6573,67.6587,67.8963,67.8966,68.646,left,0.6975,,68.6464,69.7435,0,0,0,1,1,0.2,,,,,,,,,,,,,,,,,,,,,,,,,,,,,,,,,,,,,,,,,,,,,,,,,,,,,,,,,,,,,,,,,,,,,,,,,,,,,,,,,,,,,,
,,,,,,,616891e25a026e1f7262116c,682db3c38a113f423e718947,2025-05-21_12h06.50.864,cuing_paradigm_dot,2024.1.5,Win32,75.75757576,682d556593cb38ad0a074487,,,,,,,,,,,69.7449,70.2373,70.2377,70.4843,70.4844,70.6791,right,0.1768,,70.6793,71.7708,0,1,1,0,1,0.8,,,,,,,,,,,,,,,,,,,,,,,,,,,,,,,,,,,,,,,,,,,,,,,,,,,,,,,,,,,,,,,,,,,,,,,,,,,,,,,,,,,,,,
,,,,,,,616891e25a026e1f7262116c,682db3c38a113f423e718947,2025-05-21_12h06.50.864,cuing_paradigm_dot,2024.1.5,Win32,75.75757576,682d556593cb38ad0a074487,,,,,,,,,,,,,,,,,,,,,,,,,,,,71.7731,76.6172,space,1.8243,,,,,,,,,,,,,,,,,,,,,,,,,,,,,,,,,,,,,,,,,,,,,,,,,,,,,,,,,,,,,,,,,,,,,,,,,,,,,,,,,,
,,,,,,,616891e25a026e1f7262116c,682db3c38a113f423e718947,2025-05-21_12h06.50.864,cuing_paradigm_dot,2024.1.5,Win32,75.75757576,682d556593cb38ad0a074487,,,,,,,,,,,76.6601,77.1193,,,77.366,77.6548,right,0.2716,,,,,,,,,0.9,,,,,,77.1212,77.3659,77.6569,"[0.03150550254079393,0.10137332591382787]","[1,1,1]","[0.09729718659141894,0.12108516699919222]","[1,1,1]","[-0.1651498553592279,0.0616225079008385]","[-1,-1,-1]","[-0.14770695213686605,-0.0012797351399109753]","[1,1,1]","[-0.1353970770542593,-0.13761807617397465]","[1,1,1]","[0.1294623978332222,-0.13930450027717978]","[1,1,1]","[-0.07696267781263226,0.14646743454397768]","[-1,-1,-1]","[-0.0548190438577721,-0.17240412674259165]","[1,1,1]","[-0.15197681504007693,-0.09548590971473632]","[1,1,1]","[-0.1373409743000699,-0.04401255481812145]","[1,1,1]","[0.09094157189868278,0.038009266361802324]","[1,1,1]","[0.0952013928925127,0.17194182028599705]","[1,1,1]","[0.1348206145077916,0.012550038603023391]","[1,1,1]","[0.07768061104452144,-0.03966981488123602]","[1,1,1]","[-0.018941494419767016,-0.02410539144433225]","[1,1,1]","[0.056008555108017916,0.14170684707629785]","[1,1,1]","[0.03227528915214731,-0.14237815812651852]","[1,1,1]","[-0.003974294563399198,-0.06393721452014994]","[1,1,1]","[0.1218254502776011,0.07077014064178952]","[1,1,1]","[-0.0586809276843744,-0.12289085625546553]","[1,1,1]","[0.06570044384916986,-0.17288351445218858]","[1,1,1]","[-0.10035685218793527,0.022342585562646063]","[1,1,1]","[0.020896389218025696,-0.00013002094611835614]","[1,1,1]","[-0.019289476671572034,0.1548847565223638]","[1,1,1]","[0.05094270423419206,-0.08553662227979884]","[1,1,1]","[0.1645712881877111,-0.028123039009426]","[1,1,1]","[0.11774650909406699,-0.09304996236771709]","[-1,-1,-1]","[-0.024483670717608444,0.11220151217466794]","[1,1,1]","[-0.007037088549642541,0.06925032499885525]","[1,1,1]","[-0.16364851878956482,0.10991615307162751]","[1,1,1]","[-0.02477790750831867,-0.09982342248553201]","[1,1,1]","[0.1667718452893128,-0.10788930853159293]","[1,1,1]","[0.02,0.02]",78.76,0,0,0,201,1,,,,,,,
,,,,,,,616891e25a026e1f7262116c,682db3c38a113f423e718947,2025-05-21_12h06.50.864,cuing_paradigm_dot,2024.1.5,Win32,75.75757576,682d556593cb38ad0a074487,,,,,,,,,,,78.7619,79.2535,,,79.5141,79.8882,left,0.3612,,,,,,,,,0.6,,,,,,79.2539,79.5141,79.8882,"[-0.05931572810741944,0.11436069318742292]","[1,1,1]","[-0.09775496670912932,0.10112114420196333]","[-1,-1,-1]","[0.012717575547954853,-0.13587079552675485]","[1,1,1]","[-0.028649839954265698,-0.16974832031022602]","[-1,-1,-1]","[-0.04428012307980945,-0.03732636834820919]","[-1,-1,-1]","[-0.021762890254973022,-0.08048753799247538]","[1,1,1]","[-0.1447372872443063,0.08224166508997]","[1,1,1]","[-0.11261451350753612,0.03028496300780911]","[-1,-1,-1]","[0.12063331790023903,0.07712490685532951]","[1,1,1]","[0.1018328688957038,-0.16629661983333338]","[-1,-1,-1]","[0.01666117473912264,0.11390938309038391]","[1,1,1]","[0.020510689592150404,0.181331638732575]","[1,1,1]","[0.0807023625588105,0.14323522367524075]","[-1,-1,-1]","[0.17355344448387644,-0.03862166456865036]","[-1,-1,-1]","[0.07159598867256263,-0.014387325903689636]","[-1,-1,-1]","[-0.1813381814837808,-0.08255388474908819]","[1,1,1]","[0.04914102404539792,-0.11465902795865707]","[-1,-1,-1]","[0.16472771693587723,0.003830110460338346]","[1,1,1]","[0.11237743983332266,0.024359720054175086]","[1,1,1]","[0.059827203721681335,-0.06482293617720726]","[1,1,1]","[-0.06194797987007531,-0.11347264382504428]","[1,1,1]","[0.0685135075127416,0.06251410106774252]","[1,1,1]","[-0.037733490205505954,0.1733610004336059]","[1,1,1]","[-0.11775188865503092,-0.011541140779898013]","[-1,-1,-1]","[-0.11569922919980714,-0.09440997019282943]","[-1,-1,-1]","[0.18120744982715722,0.05277845699471075]","[-1,-1,-1]","[-0.10286558465294074,0.14262234361706058]","[1,1,1]","[0.14277548611353183,0.1286639180916281]","[-1,-1,-1]","[0.02250322887533273,-0.04278104968377715]","[1,1,1]","[-0.022167490942742774,0.1301919238454455]","[1,1,1]","[-0.07884054832687429,-0.06066659841301998]","[1,1,1]","[0.10922627808472915,-0.09286383869212915]","[1,1,1]","[0.02,0.02]",80.9877,0,1,1,178,1,,,,,,,
,,,,,,,616891e25a026e1f7262116c,682db3c38a113f423e718947,2025-05-21_12h06.50.864,cuing_paradigm_dot,2024.1.5,Win32,75.75757576,682d556593cb38ad0a074487,,,,,,,,,,,80.9895,81.4805,,,81.7267,81.9018,left,0.1615,,,,,,,,,0.6,,,,,,81.4807,81.7266,81.9019,"[-0.12481386135175347,-0.10834938986217761]","[1,1,1]","[-0.02690412517212538,0.1975492797474021]","[1,1,1]","[-0.17291974776910388,0.06653562706535221]","[-1,-1,-1]","[0.029413124290325138,-0.04697623029218545]","[1,1,1]","[-0.07520067885013342,-0.17947956796352024]","[1,1,1]","[0.08062726576998475,0.09100471844825163]","[1,1,1]","[0.026556505126878634,-0.11677420478790147]","[1,1,1]","[-0.12988795071797304,-0.049803796312128855]","[-1,-1,-1]","[0.044361826772996424,0.11449157297970211]","[-1,-1,-1]","[-0.04418445925715402,0.12960342332666377]","[-1,-1,-1]","[0.01879177267183601,-0.15675181978066935]","[-1,-1,-1]","[0.12077744720898563,-0.09284708671252537]","[1,1,1]","[-0.032623802299529554,-0.16915730374543758]","[1,1,1]","[0.14837100527125002,0.053565747703091346]","[-1,-1,-1]","[-0.12830964652197724,0.12649009187851182]","[-1,-1,-1]","[0.05414398512091981,-0.014122847483036518]","[1,1,1]","[-0.027650460570966852,0.09015192500873613]","[1,1,1]","[-0.011058755184466631,-0.08069747163481863]","[1,1,1]","[-0.1883626499083127,0.003415064170454228]","[1,1,1]","[-0.025160855342780064,0.02327153238594494]","[-1,-1,-1]","[0.08402870882698243,0.178199692458698]","[-1,-1,-1]","[0.09441420996610732,-0.007059826776005997]","[-1,-1,-1]","[0.01953920958423348,0.028808606416649764]","[-1,-1,-1]","[-0.08253210195397558,0.15131200197363173]","[1,1,1]","[0.13065182112275242,0.12075615115739184]","[1,1,1]","[-0.07271265552851938,-0.07048857391746606]","[-1,-1,-1]","[0.11638219602569663,-0.13356236224374]","[-1,-1,-1]","[-0.16664430446440257,-0.08788825949721213]","[1,1,1]","[-0.07281086650625657,-0.016524766539612996]","[1,1,1]","[-0.11178058281789513,0.04753150385048301]","[1,1,1]","[0.1773300599424469,-0.0043010696377967245]","[1,1,1]","[-0.07699000360637744,-0.136912853835239]","[1,1,1]","[0.02,0.02]",83.0016,0,2,2,171,1,,,,,,,
,,,,,,,616891e25a026e1f7262116c,682db3c38a113f423e718947,2025-05-21_12h06.50.864,cuing_paradigm_dot,2024.1.5,Win32,75.75757576,682d556593cb38ad0a074487,,,,,,,,,,,83.0036,83.4948,,,83.7425,83.8498,right,0.0943,,,,,,,,,0.9,,,,,,83.4951,83.7424,83.8499,"[-0.1699572299038843,0.002350197774793755]","[-1,-1,-1]","[0.031397342720797576,-0.04122991103728076]","[1,1,1]","[0.022120057592137376,0.051782767223406]","[1,1,1]","[0.19138976123305187,-0.03597506173634264]","[1,1,1]","[0.17412330801867196,-0.08340070103520063]","[1,1,1]","[-0.020849674139464414,-0.1020776497216815]","[1,1,1]","[0.08980820653327024,-0.0656236146067921]","[1,1,1]","[0.10224197379790888,0.06185066583522101]","[1,1,1]","[-0.07806277034918645,0.14184279097667168]","[1,1,1]","[-0.04404057454034152,0.09650794504080769]","[1,1,1]","[-0.048548542478693196,-0.1817962628305853]","[1,1,1]","[-0.1240086184509806,-0.05710519490745592]","[1,1,1]","[-0.09908972284149088,0.01757211119337216]","[1,1,1]","[-0.0007764607932244633,0.09649513741631184]","[1,1,1]","[-0.034582701295718506,0.04393997070877299]","[1,1,1]","[0.13424997349754117,0.14091781409667542]","[1,1,1]","[0.0467950456130573,0.08724553160889331]","[-1,-1,-1]","[0.12777218913662752,-0.15004635501574168]","[1,1,1]","[0.02869336323399375,-0.16039797595804847]","[1,1,1]","[-0.170895458925209,0.10038504995107833]","[1,1,1]","[-0.092261084433719,0.09987081089930702]","[1,1,1]","[0.04664671156961251,-0.00423589979182406]","[1,1,1]","[-0.1725145306102913,0.04902932031512902]","[-1,-1,-1]","[0.13852261967412602,0.010982641418845264]","[1,1,1]","[-0.0033307536387651633,-0.012409047577403647]","[1,1,1]","[-0.02880424199657398,0.19527564202998335]","[1,1,1]","[0.08127300577225541,-0.14127101919421595]","[1,1,1]","[0.16127460270759392,0.10094193373127903]","[1,1,1]","[-0.18374043826986713,-0.04274353530414093]","[1,1,1]","[0.12958777995428092,-0.08559188628851336]","[1,1,1]","[0.0721175823897677,0.1543729506917027]","[1,1,1]","[-0.09499029220179905,-0.11528691976268314]","[1,1,1]","[0.02,0.02]",84.9499,0,3,3,203,1,,,,,,,
,,,,,,,616891e25a026e1f7262116c,682db3c38a113f423e718947,2025-05-21_12h06.50.864,cuing_paradigm_dot,2024.1.5,Win32,75.75757576,682d556593cb38ad0a074487,,,,,,,,,,,84.9521,85.4564,,,85.7168,85.9813,right,0.2516,,,,,,,,,0.6,,,,,,85.457,85.7167,85.9814,"[-0.14387223320752868,0.0006443795005196926]","[-1,-1,-1]","[0.06899792944466085,0.007228789550277399]","[1,1,1]","[-0.007857221864725194,-0.17798429745534522]","[-1,-1,-1]","[0.018991708763512485,0.024198049231959923]","[1,1,1]","[-0.07477747013172922,-0.08698223480458289]","[1,1,1]","[0.10100297600475107,0.08073578826122325]","[-1,-1,-1]","[0.14784135353624717,-0.0016872982354420886]","[1,1,1]","[0.06982355837997235,0.11308527045058947]","[1,1,1]","[0.14316845880723628,0.12592048662672872]","[1,1,1]","[-0.07669014883468397,0.18205331154771426]","[-1,-1,-1]","[0.0879800328395886,-0.06843915204414]","[-1,-1,-1]","[0.13830790581498767,-0.06305369417845094]","[1,1,1]","[0.1594965209234368,0.08812980939391145]","[-1,-1,-1]","[-0.010311824170250894,0.10746289930828305]","[1,1,1]","[0.13929051278853113,-0.14297129620729027]","[-1,-1,-1]","[-0.08358861754601776,0.0734192319816501]","[1,1,1]","[-0.11610637524962032,0.15101430158229692]","[-1,-1,-1]","[-0.07416036905538684,-0.17871293896525423]","[1,1,1]","[-0.024986658548080503,-0.06868221757451223]","[1,1,1]","[0.1808136143311578,-0.08047530601293275]","[1,1,1]","[-0.017555549559814042,0.19505855150769494]","[1,1,1]","[0.0564469583612231,0.190266280658948]","[1,1,1]","[0.11591019597146639,0.03825258136805936]","[1,1,1]","[-0.08621389069042405,-0.12997935560201918]","[-1,-1,-1]","[0.03564492464236969,-0.08755287643909984]","[-1,-1,-1]","[-0.1438391822633554,0.09320523704460248]","[1,1,1]","[-0.17166553076875046,-0.04903413019943719]","[1,1,1]","[0.004519883187860738,0.15362170096585295]","[-1,-1,-1]","[0.09264248571630615,-0.13406724973085338]","[-1,-1,-1]","[-0.10815197854854568,-0.03477475077186958]","[1,1,1]","[0.04120034094863116,-0.042690872115655976]","[-1,-1,-1]","[0.046676588928191175,0.06134729849208741]","[1,1,1]","[0.02,0.02]",87.0727,0,4,4,156,1,,,,,,,
,,,,,,,616891e25a026e1f7262116c,682db3c38a113f423e718947,2025-05-21_12h06.50.864,cuing_paradigm_dot,2024.1.5,Win32,75.75757576,682d556593cb38ad0a074487,,,,,,,,,,,87.0734,87.5772,,,87.8302,88.057,right,0.2145,,,,,,,,,0.55,,,,,,87.5778,87.8301,88.0571,"[0.06184712492392924,-0.09914974321482736]","[1,1,1]","[0.11150831706912914,-0.06146532396079572]","[1,1,1]","[-0.09006379633220402,0.1591520092193331]","[-1,-1,-1]","[0.1521988171275197,-0.012602869224693088]","[1,1,1]","[0.06309795600792892,-0.1885106700377672]","[-1,-1,-1]","[-0.11084062253621899,0.007090775618400589]","[1,1,1]","[0.06268143985497182,0.019398587029404415]","[-1,-1,-1]","[0.09305902423688737,-0.15961574171651655]","[-1,-1,-1]","[-0.01991002663873138,-0.183545302588471]","[-1,-1,-1]","[-0.16502459939455683,0.09018825379442895]","[-1,-1,-1]","[-0.06551562084066508,0.051699315194844254]","[-1,-1,-1]","[-0.11402842313948718,0.08831732263243454]","[1,1,1]","[-0.11097553799745304,-0.120630719949971]","[-1,-1,-1]","[-0.16668081298649068,0.017312354671672147]","[-1,-1,-1]","[0.04651116622029061,0.09348088837989003]","[1,1,1]","[-0.13177816296869288,0.05123697303265248]","[1,1,1]","[0.08932676775369361,0.12221034144965578]","[1,1,1]","[0.13985920012036074,0.0417843788683624]","[1,1,1]","[-0.05013793623853318,0.10582209659796124]","[1,1,1]","[-0.010758855230428362,0.039152853379799006]","[1,1,1]","[-0.009207031427943465,-0.008767048813989006]","[1,1,1]","[-0.08762343744439463,-0.06899065592470308]","[1,1,1]","[-0.15600629498316218,-0.0520805675853992]","[1,1,1]","[0.18084897499827196,-0.06200524727044825]","[1,1,1]","[-0.06213703025559165,-0.10725905497433312]","[-1,-1,-1]","[0.026677047672322905,-0.13412598915685167]","[-1,-1,-1]","[-0.1361522454788113,-0.08686927299333613]","[-1,-1,-1]","[0.08353345987321216,0.0539772416447428]","[-1,-1,-1]","[0.012386231034755968,0.1426052733898225]","[1,1,1]","[0.13136860826647334,0.10195300337626474]","[1,1,1]","[0.04290347343613324,0.19013634379416966]","[1,1,1]","[-0.019829183118847148,0.17727112252762456]","[-1,-1,-1]","[0.02,0.02]",89.1499,0,5,5,148,1,,,,,,,
,,,,,,,616891e25a026e1f7262116c,682db3c38a113f423e718947,2025-05-21_12h06.50.864,cuing_paradigm_dot,2024.1.5,Win32,75.75757576,682d556593cb38ad0a074487,,,,,,,,,,,89.1506,89.6439,,,89.8881,89.9389,left,0.0307,,,,,,,,,0.5,,,,,,89.6441,89.888,89.9391,"[-0.05864263391519398,-0.07310201770514345]","[-1,-1,-1]","[0.016438670553858156,-0.03562536068545647]","[-1,-1,-1]","[0.06212882264853461,-0.010358712197110554]","[-1,-1,-1]","[-0.10291492967286207,-0.16027028720899708]","[1,1,1]","[0.18026153390150804,0.006183496326223368]","[-1,-1,-1]","[0.07960392364107162,0.026303809170252306]","[-1,-1,-1]","[-0.10748212988809787,-0.03606926992935743]","[-1,-1,-1]","[0.1295018275710163,0.055959546115349056]","[-1,-1,-1]","[-0.03262918108962155,-0.13370644577404173]","[1,1,1]","[-0.025464430786111318,0.05040953348625591]","[1,1,1]","[0.05861473182537972,-0.1336199830385949]","[1,1,1]","[0.06623340125906815,-0.07784844132859525]","[-1,-1,-1]","[-0.15818095507875035,-0.02894303058210381]","[1,1,1]","[-0.07156060225632449,0.06657443667891635]","[-1,-1,-1]","[-0.07283680637239395,0.16617937313442038]","[-1,-1,-1]","[-0.10281904055885176,-0.10378802022153122]","[1,1,1]","[0.1275306787564975,-0.14986684509790393]","[1,1,1]","[-0.028221406010918767,-0.19778445013689522]","[1,1,1]","[0.004649941145814062,-0.10710131942950206]","[1,1,1]","[0.16481103922573803,0.09862428811500218]","[-1,-1,-1]","[0.17996600757242756,-0.08489179703347131]","[1,1,1]","[-0.006884588099510514,0.1942577955424171]","[1,1,1]","[0.10577964249510234,0.1455268073536884]","[-1,-1,-1]","[-0.1883478129079664,0.006251208096609355]","[1,1,1]","[0.02757066286175637,0.07267234427702396]","[-1,-1,-1]","[-0.01683211300523668,0.13977573038873722]","[-1,-1,-1]","[-0.153342551333001,0.10078830486643424]","[1,1,1]","[0.05589502054704938,0.11933523212968007]","[1,1,1]","[-0.022160764993940443,0.09354259299393258]","[-1,-1,-1]","[0.1197585304315671,-0.04159917683560332]","[-1,-1,-1]","[0.1301035469193795,0.010860206581266314]","[1,1,1]","[0.06291381351579728,-0.18260769796960027]","[1,1,1]","[0.02,0.02]",91.0311,0,6,6,110,1,,,,,,,
,,,,,,,616891e25a026e1f7262116c,682db3c38a113f423e718947,2025-05-21_12h06.50.864,cuing_paradigm_dot,2024.1.5,Win32,75.75757576,682d556593cb38ad0a074487,,,,,,,,,,,91.0329,91.5249,,,91.7783,91.8317,left,0.0416,,,,,,,,,0.5,,,,,,91.5252,91.7782,91.8318,"[-0.056643617780591904,0.1556791626017107]","[1,1,1]","[0.09739127081190233,0.15160153865294806]","[-1,-1,-1]","[0.09643080630103436,0.04202912582024459]","[1,1,1]","[-0.11745770511120299,-0.0008012042630528008]","[-1,-1,-1]","[0.14834364473482015,-0.021574280279576086]","[1,1,1]","[-0.1732366182189519,-0.03900951049440586]","[-1,-1,-1]","[-0.12396457260252976,-0.08644859785553342]","[-1,-1,-1]","[-0.0039850175801895696,-0.1619238149015711]","[-1,-1,-1]","[0.1651171514964864,0.03942748457081796]","[1,1,1]","[0.12996472850427387,-0.09249787266496355]","[1,1,1]","[0.030965541378793194,-0.18231038455164675]","[-1,-1,-1]","[0.007601912193265318,-0.003196556918436287]","[-1,-1,-1]","[-0.15115932641182153,0.07339465630192422]","[1,1,1]","[-0.05688929537890928,-0.1413808772524705]","[1,1,1]","[0.05908717153080054,0.13619471619428922]","[1,1,1]","[-0.08857860438578384,-0.11229439478648202]","[1,1,1]","[0.013819851059446686,0.13327709277842412]","[1,1,1]","[0.013262684246366644,-0.08408265501633762]","[1,1,1]","[-0.0007097150009449727,0.08885370456373706]","[1,1,1]","[0.023347580420941927,0.17681781199349098]","[-1,-1,-1]","[0.03803631452267782,0.06383273285287923]","[-1,-1,-1]","[-0.05985982788467205,-0.03204621384320188]","[-1,-1,-1]","[-0.19869026870051373,0.017724134700984658]","[-1,-1,-1]","[0.1820795732860567,-0.06512922496191419]","[-1,-1,-1]","[0.049102918147125675,-0.0500534498484602]","[-1,-1,-1]","[-0.02741516474955604,-0.09199938409249747]","[-1,-1,-1]","[-0.0682598420429518,-0.18531919860742765]","[1,1,1]","[-0.0826591061828879,0.03804837307425116]","[1,1,1]","[0.08676100509531864,0.08686103028712805]","[-1,-1,-1]","[0.16020360007100665,0.09849929847386597]","[1,1,1]","[-0.14277390793561773,-0.12484940561955543]","[1,1,1]","[0.0939250330489809,-0.06236543130663491]","[-1,-1,-1]","[0.02,0.02]",92.9252,0,7,7,94,1,,,,,,,
,,,,,,,616891e25a026e1f7262116c,682db3c38a113f423e718947,2025-05-21_12h06.50.864,cuing_paradigm_dot,2024.1.5,Win32,75.75757576,682d556593cb38ad0a074487,,,,,,,,,,,92.926,93.4247,,,93.6783,93.9929,right,0.302,,,,,,,,,0.5,,,,,,93.4249,93.6782,93.9932,"[0.10169657203213235,-0.15386722976074266]","[-1,-1,-1]","[0.047701974567667574,-0.09516063847177358]","[1,1,1]","[0.07949063659596015,0.10674437069128459]","[-1,-1,-1]","[-0.16090705274831832,-0.059375560892699485]","[1,1,1]","[-0.10946204580511619,0.07489548164774616]","[1,1,1]","[0.14591897142766022,-0.01951781390904866]","[1,1,1]","[0.009686789774627422,0.05089778661810365]","[-1,-1,-1]","[0.09975188056647473,0.052862819417691595]","[1,1,1]","[-0.15114211952829726,0.04428683232110724]","[-1,-1,-1]","[0.16015304547391995,0.032657767908916495]","[-1,-1,-1]","[0.10923033884258138,-0.10541489340757255]","[1,1,1]","[0.06055886920800349,-0.023803576633653036]","[-1,-1,-1]","[-0.1086306038848407,-0.023555125254501305]","[-1,-1,-1]","[-0.11106077799938327,-0.0752821413225602]","[-1,-1,-1]","[-0.04373459432512637,0.13572701229462314]","[1,1,1]","[0.16161175089345323,0.10619422432085915]","[1,1,1]","[-0.12054289076119266,0.138095404211405]","[-1,-1,-1]","[0.15298225181962397,-0.10979210320203771]","[1,1,1]","[0.08492740080369292,0.149289971124069]","[-1,-1,-1]","[0.18298399383402916,-0.05988613781645582]","[-1,-1,-1]","[-0.06912468395864939,0.012698323299542657]","[1,1,1]","[-0.027676283679669966,-0.17020240369986542]","[1,1,1]","[0.11109922669294821,0.01353549777225147]","[-1,-1,-1]","[0.08679814193489353,-0.0672157408401158]","[-1,-1,-1]","[0.04184084743950075,0.16946211002209827]","[1,1,1]","[-0.03832696897540636,0.05916894600594835]","[-1,-1,-1]","[-0.19821642339362874,-0.022924045788896563]","[1,1,1]","[-0.07979174769333831,0.1747236271614461]","[-1,-1,-1]","[0.05737961388756515,-0.1373631509200218]","[1,1,1]","[-0.05188057977470429,-0.08871146517194302]","[1,1,1]","[-0.11174078020001112,0.019260988414058426]","[-1,-1,-1]","[-0.005333804798763715,-0.02977698201722402]","[1,1,1]","[0.02,0.02]",95.0858,0,8,8,109,1,,,,,,,
,,,,,,,616891e25a026e1f7262116c,682db3c38a113f423e718947,2025-05-21_12h06.50.864,cuing_paradigm_dot,2024.1.5,Win32,75.75757576,682d556593cb38ad0a074487,,,,,,,,,,,95.0868,95.5791,,,95.8201,95.9666,left,0.1362,,,,,,,,,0.4,,,,,,95.5791,95.8199,95.9667,"[0.09674492474066289,0.039094509822405185]","[-1,-1,-1]","[0.16672686186792582,0.04111977754292738]","[1,1,1]","[-0.06868122306098813,-0.10047485545164664]","[-1,-1,-1]","[-0.05385386836430519,0.054544343511848496]","[1,1,1]","[-0.06474338781980334,-0.04808163802534261]","[1,1,1]","[0.029228514145363472,-0.04854108456613082]","[1,1,1]","[0.0944280105703626,-0.1536590326741006]","[-1,-1,-1]","[0.0003213305563089712,0.011193973457532019]","[-1,-1,-1]","[0.16116203161516773,0.09527204172817008]","[-1,-1,-1]","[0.04984491390472323,0.0003558285399102294]","[-1,-1,-1]","[-0.0806528379983128,-0.16355543836075875]","[1,1,1]","[0.14268303823717912,-0.049405551591421445]","[-1,-1,-1]","[-0.01275558606900012,-0.0650623060737755]","[-1,-1,-1]","[-0.03494004437746061,-0.15330500248793194]","[-1,-1,-1]","[0.009432507923109625,-0.1254309944820471]","[1,1,1]","[-0.09943121526272446,0.031793587443452356]","[-1,-1,-1]","[0.023498179385062885,0.15384390488132446]","[1,1,1]","[-0.016441934197117095,0.18780164368218977]","[-1,-1,-1]","[0.0018983086614187896,0.11253562406364]","[1,1,1]","[-0.12201613960279054,-0.11764223085141907]","[-1,-1,-1]","[-0.07040116759055029,0.10376598253048701]","[-1,-1,-1]","[0.08079432395885247,0.09711224615003347]","[1,1,1]","[0.14572924385720967,-0.12494334956955588]","[-1,-1,-1]","[0.10605548758602587,-0.06888487301681406]","[1,1,1]","[-0.16649948062813055,0.0135695748375592]","[1,1,1]","[0.13106744748089888,0.14695923512929224]","[-1,-1,-1]","[-0.10442791636726725,0.15104845304934444]","[1,1,1]","[0.17681846927912553,-0.07346677187751682]","[-1,-1,-1]","[-0.1559641248561983,0.08580850207885443]","[-1,-1,-1]","[0.08242837786395868,0.15280005909998892]","[1,1,1]","[-0.09806078424023076,-0.02301872035958955]","[-1,-1,-1]","[0.10838874796764175,-0.0014569181165571272]","[-1,-1,-1]","[0.02,0.02]",97.0598,0,9,9,39,1,,,,,,,
,,,,,,,616891e25a026e1f7262116c,682db3c38a113f423e718947,2025-05-21_12h06.50.864,cuing_paradigm_dot,2024.1.5,Win32,75.75757576,682d556593cb38ad0a074487,,,,,,,,,,,97.0606,97.553,,,97.7951,97.914,right,0.1065,,,,,,,,,0.45,,,,,,97.553,97.7947,97.9141,"[-0.0656682176091868,0.10316210575880799]","[-1,-1,-1]","[-0.02694841060229988,0.02257806914450616]","[-1,-1,-1]","[0.175485160613954,0.0459942487717764]","[-1,-1,-1]","[0.024358674890723395,0.02399795788373645]","[-1,-1,-1]","[-0.013795031006976412,-0.08979341548170634]","[1,1,1]","[-0.007254370599529388,-0.041215396268621154]","[-1,-1,-1]","[0.08963339020750463,0.16488224788611142]","[1,1,1]","[-0.08803755161520638,-0.1386854666080779]","[-1,-1,-1]","[0.10310007111525506,0.12108214852343496]","[-1,-1,-1]","[0.13039277221384798,-0.00865330955545164]","[1,1,1]","[-0.09013757831723525,0.05989674099937638]","[1,1,1]","[0.16569281990683224,0.08895718516963234]","[1,1,1]","[0.01140982540293306,0.09963012774472442]","[-1,-1,-1]","[0.1656156078601801,-0.029463395885408982]","[-1,-1,-1]","[-0.10807037440431656,-0.048768474006237614]","[1,1,1]","[-0.16240310917571477,-0.09311716806685588]","[-1,-1,-1]","[-0.10462309356535705,0.1251262362631296]","[1,1,1]","[0.09746802137184434,-0.07513142300677415]","[1,1,1]","[0.05764844939294107,0.07487323543442571]","[-1,-1,-1]","[-0.15734460300253078,0.017935075716837216]","[1,1,1]","[0.009733593803869818,-0.1852731200931308]","[-1,-1,-1]","[0.0870207517297237,-0.15777814377915658]","[1,1,1]","[-0.03239576832051468,-0.14438304717923373]","[-1,-1,-1]","[0.05531226947840111,-0.0957274316885398]","[-1,-1,-1]","[-0.07619413895546429,-0.09784508426945192]","[-1,-1,-1]","[0.03177250280631939,0.17717002700734905]","[1,1,1]","[-0.18468930712566187,-0.052212922437857884]","[-1,-1,-1]","[-0.15104369604695714,0.09599226821043516]","[1,1,1]","[0.11806998576750923,0.08060579507428874]","[-1,-1,-1]","[0.10646908091340693,0.04061545200210555]","[-1,-1,-1]","[-0.043306678627960934,0.15526388589916543]","[1,1,1]","[-0.012929456359153517,0.19156691379244092]","[1,1,1]","[0.02,0.02]",99.0072,0,10,10,87,1,,,,,,,
,,,,,,,616891e25a026e1f7262116c,682db3c38a113f423e718947,2025-05-21_12h06.50.864,cuing_paradigm_dot,2024.1.5,Win32,75.75757576,682d556593cb38ad0a074487,,,,,,,,,,,99.0081,99.5009,,,99.745,99.7629,left,0.0012,,,,,,,,,0.5,,,,,,99.5011,99.7448,99.7632,"[-0.019366183803695574,0.05099826561951588]","[-1,-1,-1]","[0.1392893110718465,0.1325686697568445]","[1,1,1]","[-0.04092165875504631,-0.04870539210129268]","[1,1,1]","[0.020833138697202137,-0.15195715191830456]","[1,1,1]","[-0.15172813123489645,0.03899829240378842]","[1,1,1]","[0.18394412035093585,-0.07755121166580098]","[1,1,1]","[0.091913302645415,0.11321815595952854]","[-1,-1,-1]","[0.05648292905167479,0.04102596105192216]","[-1,-1,-1]","[-0.10960323291368314,0.11980659884527049]","[1,1,1]","[0.025864865434464968,0.00798103173676836]","[1,1,1]","[-0.12394171085712266,-0.022307601551301435]","[-1,-1,-1]","[-0.022098982951782187,-0.1219579237976807]","[-1,-1,-1]","[-0.16251887589064815,-0.05851204066983884]","[-1,-1,-1]","[-0.16649749384179716,-0.012366034975245981]","[1,1,1]","[0.16078372639771507,0.08860180424628575]","[-1,-1,-1]","[0.11897164213137906,-0.04847357737433891]","[1,1,1]","[0.15136891322741292,-0.10086259790758163]","[-1,-1,-1]","[0.03804765270801283,0.10300505816508794]","[-1,-1,-1]","[-0.02252307029132606,0.18898878261168064]","[1,1,1]","[-0.09202345161914877,0.03270265594789182]","[1,1,1]","[-0.08978779399782921,-0.10575731310660784]","[-1,-1,-1]","[0.06326924874968738,0.18841234954965483]","[-1,-1,-1]","[-0.08858405216588282,0.16952972730228627]","[-1,-1,-1]","[0.15036380458779916,-0.009572915660157093]","[-1,-1,-1]","[-0.14474945773840253,-0.12005065000023493]","[-1,-1,-1]","[-0.02306845506229748,0.14223868781185742]","[1,1,1]","[-0.07069267738494223,0.10004437024659284]","[-1,-1,-1]","[0.08710528670984344,-0.004561392551916451]","[1,1,1]","[0.014107988228647434,-0.1965033492375215]","[-1,-1,-1]","[0.0795436151991141,-0.0727890943236907]","[1,1,1]","[0.12420471154574621,0.04860631022200932]","[1,1,1]","[0.09422945323491567,-0.13455000121234736]","[1,1,1]","[0.02,0.02]",100.8607,0,11,11,108,1,,,,,,,
,,,,,,,616891e25a026e1f7262116c,682db3c38a113f423e718947,2025-05-21_12h06.50.864,cuing_paradigm_dot,2024.1.5,Win32,75.75757576,682d556593cb38ad0a074487,,,,,,,,,,,100.8623,101.3547,,,101.6016,101.8281,left,0.2111,,,,,,,,,0.1,,,,,,101.3548,101.6016,101.8282,"[-0.03985977114088313,0.1279356467168358]","[-1,-1,-1]","[-0.010259664356998738,0.03536008883541383]","[-1,-1,-1]","[0.1490220257945832,-0.09148232293874263]","[-1,-1,-1]","[-0.12240821660751161,-0.14898675021803465]","[-1,-1,-1]","[0.06431060377347729,0.08400426272116597]","[-1,-1,-1]","[0.1295148531626666,0.060971506501510654]","[1,1,1]","[-0.02693605622006526,-0.13713034151689]","[-1,-1,-1]","[-0.012776788053893913,-0.09069110720061141]","[-1,-1,-1]","[-0.04986501573680287,-0.029308315448424195]","[-1,-1,-1]","[-0.08814651339981086,0.1393074315913044]","[-1,-1,-1]","[0.1665594928326461,-0.048015930374744255]","[-1,-1,-1]","[0.1772272718591411,-0.00230135347730953]","[-1,-1,-1]","[0.1305711542449816,0.015394315682268227]","[-1,-1,-1]","[-0.10076940558268153,0.012093426716432773]","[-1,-1,-1]","[-0.18046027998423714,-0.03465208495992339]","[-1,-1,-1]","[-0.06772189785931385,-0.08594938907029995]","[-1,-1,-1]","[0.12184459549396494,-0.1527955405139373]","[-1,-1,-1]","[0.07693856834800021,-0.08919573348207366]","[-1,-1,-1]","[-0.09964307117414047,-0.11479773720874736]","[1,1,1]","[0.011089225225319124,0.11074170575837933]","[-1,-1,-1]","[0.02205451594611249,-0.1328933142854013]","[-1,-1,-1]","[-0.03642903508134611,0.07062828835771381]","[-1,-1,-1]","[-0.17525798512764024,0.0064905052332560045]","[-1,-1,-1]","[0.057408727874827994,0.03899078090814223]","[-1,-1,-1]","[-0.12265598186933642,0.10292798368931522]","[-1,-1,-1]","[-0.12142824662928875,0.05428649545313407]","[-1,-1,-1]","[0.05654673523463975,-0.17544996729908863]","[-1,-1,-1]","[-0.06400750441640476,0.032181909822051435]","[-1,-1,-1]","[0.010554408567070133,-0.033481994118829655]","[-1,-1,-1]","[-0.16395594665957167,0.1005119329207556]","[-1,-1,-1]","[0.18443092995510235,0.06551329907343562]","[-1,-1,-1]","[0.035563340650331295,0.15051577655411572]","[1,1,1]","[0.02,0.02]",102.9284,0,12,12,14,1,,,,,,,
,,,,,,,616891e25a026e1f7262116c,682db3c38a113f423e718947,2025-05-21_12h06.50.864,cuing_paradigm_dot,2024.1.5,Win32,75.75757576,682d556593cb38ad0a074487,,,,,,,,,,,102.93,103.4217,,,103.6625,103.7824,right,0.1073,,,,,,,,,0.5,,,,,,103.4218,103.6625,103.7825,"[0.09897995760429823,0.005219798692988396]","[1,1,1]","[-0.026858673169766274,0.10009166269074883]","[1,1,1]","[0.06622205344688303,-0.14685876522679311]","[1,1,1]","[-0.05240083410761213,-0.021736518656413985]","[1,1,1]","[0.079876322047532,0.07863557790684358]","[1,1,1]","[-0.16301784603121774,0.06570278255050069]","[-1,-1,-1]","[0.1842660848013679,0.028692796744491735]","[1,1,1]","[-0.04833180859209754,0.18718646371540246]","[1,1,1]","[-0.15079063130735312,-0.12488206975614673]","[1,1,1]","[-0.10292963661356182,0.12053888962649852]","[-1,-1,-1]","[0.02252546045026891,0.056139824891660195]","[1,1,1]","[0.006907439642892348,-0.10041561258396633]","[1,1,1]","[0.10854952482084099,-0.0357193507584277]","[-1,-1,-1]","[-0.1537392797740361,-0.05121218934014604]","[-1,-1,-1]","[0.13919215630905252,0.1383293771822081]","[1,1,1]","[-0.09190001784393638,-0.06715060489987038]","[-1,-1,-1]","[-0.11013014462368523,0.07474802057167716]","[-1,-1,-1]","[0.09516799412763707,0.16222103062102403]","[-1,-1,-1]","[0.15652789877000278,-0.11213919504358076]","[-1,-1,-1]","[-0.1614139659584652,0.015492092739624118]","[-1,-1,-1]","[0.12118080162069807,-0.09049927840563546]","[1,1,1]","[0.06416793960705607,0.12321264898429662]","[-1,-1,-1]","[-0.121410105782467,-0.02122518358152143]","[1,1,1]","[-0.06362726814720407,-0.1335912196753877]","[1,1,1]","[0.1861149497142527,-0.07318636590280603]","[-1,-1,-1]","[-0.02688012614741443,-0.16363675408843167]","[1,1,1]","[0.16514190766095108,-0.019610149451625827]","[-1,-1,-1]","[-0.005171370440573959,0.009764126801599495]","[-1,-1,-1]","[-0.07983998054186228,0.007851008852501984]","[1,1,1]","[-0.10810586998335288,-0.10621668490931081]","[-1,-1,-1]","[-0.10730101264581955,0.1629374248736589]","[-1,-1,-1]","[-0.06530429252105092,0.06372241092997755]","[-1,-1,-1]","[0.02,0.02]",104.8764,0,13,13,90,1,,,,,,,
,,,,,,,616891e25a026e1f7262116c,682db3c38a113f423e718947,2025-05-21_12h06.50.864,cuing_paradigm_dot,2024.1.5,Win32,75.75757576,682d556593cb38ad0a074487,,,,,,,,,,,104.8776,105.3689,,,105.6096,105.9571,right,0.3324,,,,,,,,,0.6,,,,,,105.369,105.6096,105.9572,"[0.043919021049730854,0.1367870787483383]","[1,1,1]","[0.14999446530269986,0.04966597396312678]","[1,1,1]","[-0.06870668188030347,-0.16496894154733388]","[1,1,1]","[0.16078504723139364,0.11537916707848554]","[1,1,1]","[-0.15029008232934965,0.09013309769860382]","[1,1,1]","[0.03463222553970775,-0.1687545003203134]","[1,1,1]","[0.09095813900844656,0.10680560183019269]","[1,1,1]","[0.04897081477586266,0.009092725468152742]","[1,1,1]","[-0.05283141549615956,0.04704263863653905]","[-1,-1,-1]","[0.13602627782161428,-0.01610886364337781]","[-1,-1,-1]","[-0.04532152579813715,-0.045697841360785176]","[1,1,1]","[0.08893474237608848,-0.02019272812057511]","[1,1,1]","[-0.11832197613310358,0.03749681764627084]","[-1,-1,-1]","[-0.07263257260384123,0.14923460811256217]","[1,1,1]","[-0.1132029476224523,-0.07142401561457563]","[1,1,1]","[-0.14333857577786782,-0.023878894160023856]","[-1,-1,-1]","[-0.17737128288604406,-0.07855764640053307]","[1,1,1]","[0.12938841551945576,-0.07495067994088689]","[-1,-1,-1]","[-0.09042326119730425,0.10457096408610077]","[-1,-1,-1]","[0.19805769445294563,0.0032799255880390068]","[-1,-1,-1]","[-0.09170486724433384,-0.11709140301552495]","[1,1,1]","[-0.07760325077396485,-0.016112965453551783]","[-1,-1,-1]","[-0.12047856734377796,-0.1496012156356826]","[1,1,1]","[0.026292977681458666,-0.04332424920534104]","[1,1,1]","[0.16810547664924258,-0.04567725865029531]","[-1,-1,-1]","[0.10719237441289736,0.15338884407265907]","[-1,-1,-1]","[0.03141294889919925,0.18122644433874172]","[1,1,1]","[0.09395171591542019,-0.126168320235912]","[1,1,1]","[0.05470513012573761,-0.10677094255073426]","[1,1,1]","[0.08355179859429418,0.036636386143808444]","[-1,-1,-1]","[-0.0028019529019447974,-0.15143279484584993]","[-1,-1,-1]","[-0.018514845751920722,0.12818505359578378]","[-1,-1,-1]","[0.02,0.02]",107.0497,0,14,14,151,1,,,,,,,
,,,,,,,616891e25a026e1f7262116c,682db3c38a113f423e718947,2025-05-21_12h06.50.864,cuing_paradigm_dot,2024.1.5,Win32,75.75757576,682d556593cb38ad0a074487,,,,,,,,,,,107.0504,107.544,,,107.7875,107.9319,right,0.1247,,,,,,,,,0.9,,,,,,107.544,107.7873,107.9321,"[-0.028320225494462996,-0.06853422907400779]","[1,1,1]","[0.12739097388605053,0.0224520288985653]","[1,1,1]","[-0.06894456390406563,-0.002182671632981482]","[1,1,1]","[0.020249188152137373,-0.18790176954234708]","[1,1,1]","[0.12720638904564974,-0.14572616505810018]","[1,1,1]","[0.1489521448814395,0.100852133353293]","[1,1,1]","[-0.025162129153601935,-0.1612807473675859]","[1,1,1]","[-0.007297797719648665,0.185336741465457]","[1,1,1]","[0.06833059173811715,-0.1417409913023838]","[1,1,1]","[-0.05350803002137094,0.16705931981320446]","[1,1,1]","[-0.056605005681138625,-0.19102943319512014]","[-1,-1,-1]","[0.08994584553299971,0.1190844825899606]","[1,1,1]","[-0.09519295922275599,0.10977492220904911]","[1,1,1]","[-0.1795951256333175,-0.005943895036215768]","[1,1,1]","[0.042174452039681405,-0.029570770294142148]","[1,1,1]","[-0.07853580659900905,-0.13330390656622593]","[1,1,1]","[0.01711512792901545,0.13698605149988805]","[1,1,1]","[-0.0348832518167225,-0.11563537160776205]","[1,1,1]","[0.037947624801812685,0.0474211573482143]","[1,1,1]","[-0.12188958047143011,0.01918466310533371]","[1,1,1]","[0.1373804542185879,-0.06811779263193145]","[1,1,1]","[-0.017522439427717765,0.04098575787092147]","[-1,-1,-1]","[-0.16769057954233715,0.1067739745771274]","[1,1,1]","[0.024348297765647203,-0.11119901782024916]","[1,1,1]","[0.07510944774699786,0.17386614174413728]","[1,1,1]","[0.16453005988081795,0.006625691680948571]","[1,1,1]","[-0.053038752047559506,0.08489025660620912]","[-1,-1,-1]","[-0.1291791607192093,0.1415677586795147]","[1,1,1]","[-0.01758835186385759,-0.023728888060866534]","[1,1,1]","[-0.14804033655045093,-0.07063241866501983]","[1,1,1]","[0.009616329104515797,0.07989889755338513]","[1,1,1]","[-0.0841491646144581,-0.062127653875875086]","[1,1,1]","[0.02,0.02]",109.0244,0,15,15,190,1,,,,,,,
,,,,,,,616891e25a026e1f7262116c,682db3c38a113f423e718947,2025-05-21_12h06.50.864,cuing_paradigm_dot,2024.1.5,Win32,75.75757576,682d556593cb38ad0a074487,,,,,,,,,,,109.0268,109.518,,,109.7633,110.0922,right,0.3109,,,,,,,,,0.55,,,,,,109.5182,109.7632,110.0925,"[-0.054582900892094555,-0.006947587162657946]","[1,1,1]","[-0.04650226450491022,-0.1200332199713875]","[1,1,1]","[0.10065716426936157,0.01270558644225376]","[1,1,1]","[-0.03079040119707412,-0.07235109439240199]","[-1,-1,-1]","[0.13604155926609002,0.0583631067605346]","[-1,-1,-1]","[0.13879786340332684,0.14034356978424517]","[-1,-1,-1]","[-0.14712380585620635,0.02677036937920789]","[-1,-1,-1]","[0.016147898718140364,-0.041438699402121075]","[1,1,1]","[-0.13130903520833775,-0.1153354704681518]","[-1,-1,-1]","[-0.07576565626049273,-0.1588812294797174]","[-1,-1,-1]","[-0.16325151221383463,0.09797535569859875]","[1,1,1]","[-0.003259098722461757,-0.11526456367910044]","[-1,-1,-1]","[0.06367848968722346,0.1684035734202008]","[-1,-1,-1]","[0.06161327431081838,0.03553183665981831]","[1,1,1]","[0.1643402058306935,-0.08670231586829621]","[1,1,1]","[-0.09659438121487762,-0.09488536746310378]","[1,1,1]","[0.04675406244978274,-0.01448682968276946]","[1,1,1]","[0.031113989188282776,0.13141440808830093]","[-1,-1,-1]","[-0.12058156212560445,0.0743800453596932]","[1,1,1]","[-0.10644899376088005,-0.0013488393884144869]","[1,1,1]","[-0.032206651405463624,0.17466072853349668]","[1,1,1]","[0.09436946340582449,0.08727639033900891]","[1,1,1]","[-0.0018429632028685071,0.0027640060224714408]","[1,1,1]","[-0.19392647323248793,0.048780352197573755]","[-1,-1,-1]","[-0.08782676605015725,-0.045365665180469764]","[1,1,1]","[0.1934060049959534,-0.04544506451219679]","[-1,-1,-1]","[0.13990823093071175,-0.0025647394931570533]","[1,1,1]","[0.06460042078008886,-0.07882348481258328]","[1,1,1]","[-0.12948079591034808,0.1288844786051715]","[-1,-1,-1]","[0.03428805477663034,-0.15009228942650224]","[-1,-1,-1]","[0.03731277158928732,0.08251808587964858]","[1,1,1]","[0.13071225102068007,-0.1101068436679898]","[-1,-1,-1]","[0.02,0.02]",111.1847,0,16,16,123,1,,,,,,,
,,,,,,,616891e25a026e1f7262116c,682db3c38a113f423e718947,2025-05-21_12h06.50.864,cuing_paradigm_dot,2024.1.5,Win32,75.75757576,682d556593cb38ad0a074487,,,,,,,,,,,111.1872,111.6787,,,111.9326,112.0379,left,0.0937,,,,,,,,,0.4,,,,,,111.679,111.9325,112.0379,"[-0.08944264940503788,-0.05191236001569393]","[1,1,1]","[0.054749945687091225,-0.05167195979041735]","[-1,-1,-1]","[0.05343112161815461,0.1740994352150106]","[1,1,1]","[-0.18207123322832555,-0.03944739527373246]","[-1,-1,-1]","[-0.11902039396096148,0.04343739765102356]","[-1,-1,-1]","[-0.003892294512703524,0.09339593055414434]","[-1,-1,-1]","[0.13520508576754775,0.1163986881223918]","[1,1,1]","[0.11521933848028264,-0.08065949206837178]","[-1,-1,-1]","[0.12558154361813728,0.05424127259432728]","[1,1,1]","[0.09383264168152353,0.026208681874774716]","[1,1,1]","[0.04394962298255217,0.12391351814860942]","[1,1,1]","[-0.061970832713859815,0.15611050105296936]","[1,1,1]","[-0.09865439853024612,-0.11642833382434836]","[-1,-1,-1]","[-0.07447015915745196,-0.1611440777116254]","[-1,-1,-1]","[-0.010691223832170638,0.19863706968954992]","[-1,-1,-1]","[-0.07157696484236249,-0.010834758047310437]","[1,1,1]","[0.14803017134950727,-0.0021984131492266976]","[-1,-1,-1]","[0.17540230705250517,-0.09176608878338004]","[-1,-1,-1]","[-0.1258518034761873,-0.012040117415909527]","[-1,-1,-1]","[0.015982962060282335,-0.02202326056079136]","[-1,-1,-1]","[-0.010849437543850846,0.01891952548505713]","[-1,-1,-1]","[0.11389876672394945,-0.1378226761043583]","[-1,-1,-1]","[-0.011971197947498404,-0.08719879563040096]","[1,1,1]","[-0.17348828858407556,0.08274322106493828]","[1,1,1]","[0.12279104033315573,-0.0379090394729237]","[1,1,1]","[0.1778543415538174,0.05405231543921102]","[-1,-1,-1]","[0.061287944011012355,-0.0014932825927047708]","[1,1,1]","[0.03685380271775457,0.04364596320119101]","[-1,-1,-1]","[-0.1600593114182217,-0.10761441087163487]","[1,1,1]","[-0.0511361573047878,0.06146672316668868]","[-1,-1,-1]","[0.07869686846737942,-0.09711231626190941]","[-1,-1,-1]","[-0.026243528339454116,-0.042856132513267614]","[-1,-1,-1]","[0.02,0.02]",113.1326,0,17,17,53,1,,,,,,,
,,,,,,,616891e25a026e1f7262116c,682db3c38a113f423e718947,2025-05-21_12h06.50.864,cuing_paradigm_dot,2024.1.5,Win32,75.75757576,682d556593cb38ad0a074487,,,,,,,,,,,113.1335,113.626,,,113.8798,114.013,left,0.1241,,,,,,,,,0.5,,,,,,113.6261,113.8798,114.0133,"[-0.0943261502097292,0.026401134922416226]","[1,1,1]","[-0.18916189746971832,0.019899187126286154]","[-1,-1,-1]","[0.09695024830584745,-0.16629737897393293]","[-1,-1,-1]","[-0.1531167996594151,-0.11268703024089478]","[-1,-1,-1]","[-0.049401649717600256,0.13853750141519403]","[1,1,1]","[-0.07888348663080644,0.08493710470392377]","[-1,-1,-1]","[0.0779931018846907,0.09922155710708772]","[1,1,1]","[0.128598755569692,0.006642495424376989]","[1,1,1]","[-0.0861255593056502,0.16995096627669565]","[-1,-1,-1]","[0.15325578748272378,-0.07379387146766134]","[1,1,1]","[0.07706256617894332,0.15030635694322436]","[1,1,1]","[-0.05747972991214658,-0.1894328661729833]","[1,1,1]","[0.036064746247055524,-0.07262895317990951]","[1,1,1]","[-0.13775567707059228,-0.02259813753415301]","[1,1,1]","[-0.019231741071943444,-0.11883345569535857]","[1,1,1]","[0.12743186640139134,0.11803336603961347]","[-1,-1,-1]","[0.1106556818214228,-0.04025777680348217]","[1,1,1]","[0.02240483764126743,0.1356204656073257]","[-1,-1,-1]","[0.02956244858036922,0.08547961410022764]","[-1,-1,-1]","[0.138769207947183,0.06920629174561715]","[-1,-1,-1]","[-0.028973258076990638,0.03694977254313692]","[1,1,1]","[0.014796703563839822,0.17956009101242953]","[-1,-1,-1]","[-0.15221154315985594,0.08061281739278295]","[-1,-1,-1]","[-0.10373468588043447,-0.07492632623498574]","[-1,-1,-1]","[0.019639746710380313,0.02260808778564075]","[1,1,1]","[-0.07090830021569364,-0.10128218419638114]","[-1,-1,-1]","[-0.0007707376459947098,-0.1972715801981882]","[-1,-1,-1]","[-0.01851273399709268,0.08115442738523332]","[1,1,1]","[0.07051150819319375,0.028788033229186535]","[1,1,1]","[-0.06878361753923135,-0.14393411503957448]","[-1,-1,-1]","[0.16961417904415557,0.04282381404154822]","[-1,-1,-1]","[-0.03516459211080302,-0.052716958552365405]","[1,1,1]","[0.02,0.02]",115.1066,0,18,18,118,1,,,,,,,
,,,,,,,616891e25a026e1f7262116c,682db3c38a113f423e718947,2025-05-21_12h06.50.864,cuing_paradigm_dot,2024.1.5,Win32,75.75757576,682d556593cb38ad0a074487,,,,,,,,,,,115.1076,115.6,,,115.8456,115.9881,right,0.1222,,,,,,,,,0.55,,,,,,115.6001,115.8456,115.9885,"[-0.03503525253438982,0.16633946407569913]","[1,1,1]","[-0.010389322984521237,0.10240875869056869]","[1,1,1]","[0.002509829646727836,-0.09080858122768264]","[-1,-1,-1]","[-0.0602606184683271,-0.06936152018671946]","[-1,-1,-1]","[-0.16979871664278365,-0.020513572435247884]","[-1,-1,-1]","[-0.13765791868872096,0.04641503328288143]","[1,1,1]","[-0.06495796722955377,-0.003978420845918138]","[1,1,1]","[0.1575474672625602,-0.021889639973860436]","[-1,-1,-1]","[0.11060502415088415,0.005049966684158813]","[-1,-1,-1]","[0.1464823031843411,-0.09369074784850111]","[1,1,1]","[-0.09459835009276454,-0.11220697202061584]","[1,1,1]","[-0.13968579157801544,-0.10172424018574779]","[-1,-1,-1]","[0.02526979416027915,0.024732353521271074]","[1,1,1]","[-0.12943384944579597,0.10571243829226237]","[-1,-1,-1]","[-0.05401452466827506,0.0943354591552221]","[1,1,1]","[-0.02318686922068741,0.02764551808294968]","[1,1,1]","[-0.11678403972276656,-0.06342734012837853]","[1,1,1]","[0.11189045255163817,-0.1324358575762688]","[-1,-1,-1]","[0.09707045549694336,-0.04826801932440017]","[-1,-1,-1]","[0.06320379658895948,0.06437691869546729]","[-1,-1,-1]","[0.15136843058117358,0.09600237538152934]","[1,1,1]","[0.18420007889268863,0.05484366653427836]","[1,1,1]","[0.062319672553272115,-0.17250216139982505]","[1,1,1]","[-0.018043179927779707,-0.042419336433605674]","[1,1,1]","[-0.07976782682004949,0.16312791858898623]","[1,1,1]","[0.03359606397502576,0.12289321086111793]","[-1,-1,-1]","[-0.019280939175774902,-0.19197370342504877]","[-1,-1,-1]","[-0.12726200332019477,0.0006555002682139139]","[-1,-1,-1]","[0.05683341424275507,-0.12272674818077368]","[-1,-1,-1]","[0.12226446464320694,0.14763423668609812]","[1,1,1]","[0.06975260955472938,0.004555924623571573]","[1,1,1]","[0.13409391463717085,0.05171298510739489]","[1,1,1]","[0.02,0.02]",117.0837,0,19,19,141,1,,,,,,,
,,,,,,,616891e25a026e1f7262116c,682db3c38a113f423e718947,2025-05-21_12h06.50.864,cuing_paradigm_dot,2024.1.5,Win32,75.75757576,682d556593cb38ad0a074487,,,,,,,,,,,117.0863,117.5879,,,117.8361,118.1983,right,0.3481,,,,,,,,,0.55,,,,,,117.588,117.8359,118.1984,"[0.1711320667674781,-0.0012455194471343795]","[1,1,1]","[-0.007614131106742669,-0.17998122789733587]","[1,1,1]","[0.016287189706343526,0.07930314839220315]","[-1,-1,-1]","[-0.14063718721351376,0.04412078254081068]","[-1,-1,-1]","[-0.05599929368683032,-0.1862915228898602]","[-1,-1,-1]","[0.015932621306321334,-0.018832141271424168]","[1,1,1]","[-0.11694681896519846,-0.1440552301854207]","[1,1,1]","[-0.037845952178786994,0.10676163643873246]","[-1,-1,-1]","[-0.12995626451572467,-0.0464923671782394]","[1,1,1]","[-0.18228031696975466,0.0001380117779800917]","[1,1,1]","[0.0036705071108733647,0.13102600169920328]","[-1,-1,-1]","[-0.0781234005913857,0.1583560629419717]","[1,1,1]","[0.04500521152667419,0.1647079781704077]","[1,1,1]","[0.03924192185102562,-0.1231244484559671]","[-1,-1,-1]","[-0.0806027329401471,0.08683203562090305]","[-1,-1,-1]","[-0.08890782625769257,-0.04759232919651179]","[1,1,1]","[0.15393519650717535,0.06424566531620003]","[1,1,1]","[0.16634954079731687,-0.08422578239659728]","[-1,-1,-1]","[-0.05377181481463815,-0.008673216618095994]","[-1,-1,-1]","[0.02831512873684832,0.027238145752726522]","[1,1,1]","[0.09463668807690304,0.14836777409890656]","[1,1,1]","[0.08729728729393785,-0.16028354449042426]","[-1,-1,-1]","[0.10620443776176797,-0.09750087296432121]","[1,1,1]","[-0.040401361943560345,-0.08799880390331574]","[-1,-1,-1]","[-0.15801137744183036,-0.11125789612203871]","[1,1,1]","[0.0905726389194528,0.10499463644501564]","[-1,-1,-1]","[0.0935689702680357,0.02164214619300642]","[-1,-1,-1]","[-0.17469525158282856,-0.06183748787324826]","[1,1,1]","[-0.06915809668985218,0.042544466845339884]","[1,1,1]","[0.07003289602269148,0.06907837994455952]","[1,1,1]","[0.11047403379081656,-0.04809576708721997]","[-1,-1,-1]","[-0.10458748174305514,0.022384662445846287]","[1,1,1]","[0.02,0.02]",119.295,0,20,20,129,1,,,,,,,
,,,,,,,616891e25a026e1f7262116c,682db3c38a113f423e718947,2025-05-21_12h06.50.864,cuing_paradigm_dot,2024.1.5,Win32,75.75757576,682d556593cb38ad0a074487,,,,,,,,,,,119.297,119.7878,,,120.0333,120.1551,left,0.1073,,,,,,,,,0.5,,,,,,119.7879,120.0333,120.1551,"[0.050970116084654966,0.048685203518749186]","[1,1,1]","[-0.07691344903003805,-0.03947490155104683]","[1,1,1]","[-0.05517274452956681,0.11657780267493292]","[-1,-1,-1]","[0.005921112314980061,0.16043832769357563]","[-1,-1,-1]","[-0.011683587198010872,0.06723329983698026]","[-1,-1,-1]","[0.10542350425931236,0.12444841831946306]","[1,1,1]","[0.09830054823019507,0.04359261956140465]","[1,1,1]","[0.16209133181998417,0.10515302444847797]","[1,1,1]","[-0.12260832559126814,-0.037352436368791944]","[-1,-1,-1]","[0.04272987662863471,-0.11821021415212979]","[1,1,1]","[0.03469911346839378,-0.043266548852677396]","[-1,-1,-1]","[0.11165136313444608,0.08461837690088012]","[1,1,1]","[-0.10036399499980214,0.021964332189769727]","[-1,-1,-1]","[-0.042190433580679226,-0.07262448473086404]","[1,1,1]","[0.09613994130526166,-0.07328487300666493]","[1,1,1]","[0.17505539412251045,0.04498794732291218]","[1,1,1]","[0.192331554147934,-0.05460803951663052]","[-1,-1,-1]","[-0.041675917978175256,-0.1586643767308887]","[-1,-1,-1]","[0.09556393911855958,-0.0174550138239665]","[1,1,1]","[-0.0856169974220975,-0.1300751005018386]","[-1,-1,-1]","[0.1698802984727984,-0.016945041163476362]","[-1,-1,-1]","[-0.1577922971906807,0.04197879096412419]","[1,1,1]","[-0.18771889353763554,-0.027364474187588958]","[1,1,1]","[-0.11698648751969398,0.07126280100828314]","[-1,-1,-1]","[-0.027885538846396246,0.01930071469258656]","[1,1,1]","[0.11692795902593058,-0.13148866444252094]","[-1,-1,-1]","[0.05824135216421583,0.11175794601660992]","[1,1,1]","[-0.05368294307237782,0.057876755662959606]","[-1,-1,-1]","[-0.14652890345445543,-0.10300934162860965]","[1,1,1]","[-0.17481662732368936,-0.06656992633748081]","[-1,-1,-1]","[0.05450415956585826,0.17581117868674345]","[-1,-1,-1]","[0.07574181615109975,-0.1473463141295923]","[-1,-1,-1]","[0.02,0.02]",121.2555,0,21,21,103,1,,,,,,,
,,,,,,,616891e25a026e1f7262116c,682db3c38a113f423e718947,2025-05-21_12h06.50.864,cuing_paradigm_dot,2024.1.5,Win32,75.75757576,682d556593cb38ad0a074487,,,,,,,,,,,121.2591,121.7628,,,122.0109,122.1783,right,0.1481,,,,,,,,,0.45,,,,,,121.7631,122.0108,122.1784,"[-0.1359926126882227,0.0057707596082478]","[1,1,1]","[0.07342100347383017,-0.10661586058385765]","[-1,-1,-1]","[0.14276699112347435,-0.06263516800750887]","[-1,-1,-1]","[-0.11115460342907395,0.16385228416247768]","[-1,-1,-1]","[0.09940933266765785,-0.16651433791918957]","[1,1,1]","[-0.10185031167946514,-0.12407801721301885]","[-1,-1,-1]","[-0.057361755056971844,-0.09246855376125637]","[1,1,1]","[0.13758317653387395,-0.13886018455196586]","[1,1,1]","[-0.12541170062645846,0.04961811406662572]","[1,1,1]","[0.023710768367159445,-0.08333046232286268]","[-1,-1,-1]","[0.15177000615246045,0.06071369037452851]","[-1,-1,-1]","[-0.011907596305223,0.14862135045243863]","[-1,-1,-1]","[0.14645199076845045,-0.01160441151790391]","[-1,-1,-1]","[0.03924851362418942,-0.15312408146127848]","[-1,-1,-1]","[-0.07563729771208293,-0.17677471129228353]","[-1,-1,-1]","[0.06682050716823187,0.07528742087229022]","[-1,-1,-1]","[-0.07440395884593762,0.12739204432969453]","[1,1,1]","[-0.18835996086974244,-0.03444477551753633]","[-1,-1,-1]","[0.05450203365543206,0.14430973007259273]","[-1,-1,-1]","[0.1052829376777705,0.016879619913486604]","[1,1,1]","[0.12272462528694757,0.13893915575587917]","[1,1,1]","[0.030845898760735558,0.042864640822991906]","[-1,-1,-1]","[-0.11384748808354779,-0.05861020023680856]","[1,1,1]","[-0.043182743182927606,0.04762165352468281]","[1,1,1]","[0.10672008157007372,-0.04401864945773241]","[-1,-1,-1]","[-0.08181042606388854,0.07406856204098737]","[1,1,1]","[0.07198922804420585,-0.022061423011788657]","[-1,-1,-1]","[0.02142875329318048,-0.010045050539244128]","[1,1,1]","[-0.011530039446326206,-0.04663998347672416]","[1,1,1]","[0.18567183651551064,0.0012596029541221978]","[-1,-1,-1]","[-0.15485510053168264,-0.07450183741486818]","[1,1,1]","[-0.12383593410501154,0.10973213817811325]","[-1,-1,-1]","[0.02,0.02]",123.2699,0,22,22,75,1,,,,,,,
,,,,,,,616891e25a026e1f7262116c,682db3c38a113f423e718947,2025-05-21_12h06.50.864,cuing_paradigm_dot,2024.1.5,Win32,75.75757576,682d556593cb38ad0a074487,,,,,,,,,,,123.2716,123.7631,,,124.0108,124.2038,left,0.1757,,,,,,,,,0.1,,,,,,123.7632,124.0107,124.2039,"[0.05629491603291367,-0.14745335301993828]","[-1,-1,-1]","[0.05231564275991226,0.1774994215851216]","[-1,-1,-1]","[-0.1055206216593496,0.0857168631545273]","[-1,-1,-1]","[-0.045145801478191125,-0.09786466275288475]","[-1,-1,-1]","[0.0943370587826879,0.16020710737959426]","[-1,-1,-1]","[-0.1363744501888548,0.021308453327713153]","[1,1,1]","[-0.060617448826860765,-0.04076840565506097]","[1,1,1]","[-0.17181603922931862,-0.057853772131746584]","[-1,-1,-1]","[-0.17825985578799716,-0.01085886257485717]","[-1,-1,-1]","[-0.04239491908108044,-0.14570346239642404]","[-1,-1,-1]","[0.10847803430333242,-0.0017961375480515193]","[-1,-1,-1]","[0.13974434439706787,-0.1191803197698463]","[-1,-1,-1]","[0.11969773636105868,-0.06814176756534365]","[-1,-1,-1]","[0.006629846618984513,-0.13638105627691918]","[-1,-1,-1]","[-0.042988074538065656,0.13924549801367686]","[-1,-1,-1]","[0.16980499763721446,-0.01831900518741214]","[-1,-1,-1]","[0.04618537603723513,-0.0524790078698217]","[-1,-1,-1]","[0.002764000289892826,0.09988167033590589]","[-1,-1,-1]","[-0.14908678996964625,0.060930938003531616]","[-1,-1,-1]","[0.17233900149857956,0.03783439365639316]","[-1,-1,-1]","[-0.0636653674157321,0.08109248603536469]","[-1,-1,-1]","[-0.12652907036072303,-0.1394143072776777]","[-1,-1,-1]","[0.07631110884528235,0.07472059730381216]","[-1,-1,-1]","[-0.08538130888402758,-0.1800673132189037]","[-1,-1,-1]","[-0.09785772182843391,-0.059926103624155395]","[-1,-1,-1]","[-0.027094510179038273,-0.188652556390925]","[-1,-1,-1]","[-0.08332861507525027,0.014158410591211954]","[-1,-1,-1]","[0.0718360535891289,0.018115859513678435]","[1,1,1]","[-0.021635166635575544,0.03374730392203936]","[-1,-1,-1]","[-0.13472807774998918,0.11688966167334143]","[-1,-1,-1]","[0.12422791878283553,0.09540249514476387]","[-1,-1,-1]","[-0.0026638301689729557,-0.08924789411635647]","[-1,-1,-1]","[0.02,0.02]",125.2978,0,23,23,11,1,,,,,,,
,,,,,,,616891e25a026e1f7262116c,682db3c38a113f423e718947,2025-05-21_12h06.50.864,cuing_paradigm_dot,2024.1.5,Win32,75.75757576,682d556593cb38ad0a074487,,,,,,,,,,,125.2994,125.7904,,,126.0384,126.1791,left,0.1254,,,,,,,,,0.6,,,,,,125.7906,126.0384,126.1794,"[0.1337062101066733,-0.10858372002991042]","[1,1,1]","[-0.10434386272904628,0.019174241480962525]","[1,1,1]","[-0.0821411392463047,0.18156633568971917]","[1,1,1]","[-0.023384621732416747,0.07034405407051889]","[-1,-1,-1]","[0.14588542781304206,0.024677771645017707]","[1,1,1]","[0.05633524284520184,0.07759512793829984]","[1,1,1]","[-0.10983721443293687,-0.036281846746346574]","[-1,-1,-1]","[0.07532910905981534,-0.16793970329569655]","[-1,-1,-1]","[0.136422460080484,-0.06775671335112035]","[1,1,1]","[0.06753470351925707,0.11630111961060652]","[1,1,1]","[-0.18200094312758858,0.058023445708358906]","[1,1,1]","[-0.012021751964774376,0.15720597530524003]","[1,1,1]","[0.04672099146673341,0.1870672337196019]","[-1,-1,-1]","[-0.022889096694775124,-0.07485149114289906]","[-1,-1,-1]","[0.0493713074845274,-0.11058042683463944]","[1,1,1]","[0.0022008988459818447,-0.19419026515898838]","[-1,-1,-1]","[-0.11621397808496994,0.11193623121374871]","[1,1,1]","[0.04801789863206631,-0.06378546600682079]","[-1,-1,-1]","[-0.07433654226528887,-0.10309968602967204]","[1,1,1]","[0.14220604532547299,0.0942817462076782]","[-1,-1,-1]","[-0.017006463262265212,0.11091530165878341]","[-1,-1,-1]","[-0.09402908839839517,0.07850966967201661]","[-1,-1,-1]","[-0.19521229316882918,-0.03664348851768425]","[1,1,1]","[-0.01039988904434078,-0.13204814615551663]","[1,1,1]","[-0.06522270568367126,-0.021611542267323404]","[1,1,1]","[0.06431900491670807,-0.0024719903775937396]","[1,1,1]","[0.11291478900126306,-0.010411819572497732]","[-1,-1,-1]","[-0.00436012001935933,0.007977798518647964]","[1,1,1]","[-0.16340830263705577,0.009921701303744602]","[1,1,1]","[0.08677141858056668,0.030677244191199535]","[-1,-1,-1]","[-0.08782853759037887,-0.14823321424060806]","[-1,-1,-1]","[0.10379956090646042,0.15300787974709312]","[1,1,1]","[0.02,0.02]",127.2709,0,24,24,165,1,,,,,,,
,,,,,,,616891e25a026e1f7262116c,682db3c38a113f423e718947,2025-05-21_12h06.50.864,cuing_paradigm_dot,2024.1.5,Win32,75.75757576,682d556593cb38ad0a074487,,,,,,,,,,,127.2729,127.7648,,,128.0102,128.1184,left,0.0934,,,,,,,,,0.1,,,,,,127.7649,128.0101,128.1185,"[-0.12310904927668141,0.04194063900034948]","[-1,-1,-1]","[-0.1862634476272142,0.029912378522976627]","[-1,-1,-1]","[0.15261641823750746,-0.054716124944131944]","[-1,-1,-1]","[0.12701123059527886,-0.01120102281019223]","[-1,-1,-1]","[-0.020305454350072232,-0.027832253485455708]","[-1,-1,-1]","[-0.01573704243538268,0.1372586479117597]","[-1,-1,-1]","[0.032858860058125154,-0.08808113020661723]","[1,1,1]","[-0.06903540928891955,0.048925038537742]","[-1,-1,-1]","[-0.04701984513729483,0.17486333007162305]","[-1,-1,-1]","[0.04769123325149028,0.09313781103366858]","[-1,-1,-1]","[-0.17035418793575052,-0.02237532065079488]","[-1,-1,-1]","[-0.15550894473720855,0.11817083542117869]","[-1,-1,-1]","[-0.10482264778279271,-0.01820587436286763]","[-1,-1,-1]","[-0.07300739320925631,-0.10600557746498213]","[-1,-1,-1]","[-0.011521336877451079,-0.10709241649315422]","[-1,-1,-1]","[0.10584307817561968,0.08368462740245482]","[-1,-1,-1]","[0.06156679911165558,-0.02461839499200964]","[-1,-1,-1]","[-0.1299260426658922,-0.07021654049361634]","[-1,-1,-1]","[-0.03458293565367959,-0.16312618162587997]","[-1,-1,-1]","[-0.17318229123468923,-0.08833544821431015]","[-1,-1,-1]","[0.15792094195391873,-0.11527130468511305]","[-1,-1,-1]","[0.08015383565039902,0.13955524558675464]","[-1,-1,-1]","[0.04063917341104021,-0.18598429450998624]","[-1,-1,-1]","[0.008400477361086163,-0.1567094265752033]","[-1,-1,-1]","[-0.11346338276773664,-0.16351240514276827]","[-1,-1,-1]","[-0.025704261372843464,0.06376395028294715]","[-1,-1,-1]","[0.17605876731187783,0.08816444202566308]","[-1,-1,-1]","[0.09513449931282683,0.030886317366452403]","[-1,-1,-1]","[0.06642203588597625,-0.11759277043773884]","[-1,-1,-1]","[0.09775575968694017,-0.05390894531304448]","[1,1,1]","[0.16671084617944765,0.04780453833212039]","[-1,-1,-1]","[-0.06639344079732548,0.007504163145225635]","[1,1,1]","[0.02,0.02]",129.2175,0,25,25,19,1,,,,,,,
,,,,,,,616891e25a026e1f7262116c,682db3c38a113f423e718947,2025-05-21_12h06.50.864,cuing_paradigm_dot,2024.1.5,Win32,75.75757576,682d556593cb38ad0a074487,,,,,,,,,,,129.2195,129.7119,,,129.9584,130.2731,right,0.2978,,,,,,,,,0.9,,,,,,129.712,129.9583,130.2733,"[0.02609851100710615,0.19817561790863672]","[1,1,1]","[0.08742287905736248,-0.029118520740373268]","[1,1,1]","[-0.14502908469756606,-0.13485644187680657]","[1,1,1]","[-0.058275780112602454,0.017252251553166644]","[-1,-1,-1]","[0.1900432254439464,-0.030542820364518847]","[1,1,1]","[0.1345718021401179,0.08518563235075124]","[-1,-1,-1]","[0.03844559649452945,0.065484472291781]","[1,1,1]","[-0.053860886892939205,0.16511960977146692]","[1,1,1]","[-0.07653951466929024,-0.03560066831319252]","[-1,-1,-1]","[0.0004889199902178308,0.000024828821650086297]","[1,1,1]","[-0.02683030168934795,-0.13992692171731033]","[1,1,1]","[0.10866803501185474,-0.09820773383508423]","[1,1,1]","[-0.1317869463398595,-0.04689852313140662]","[1,1,1]","[-0.034119941486172346,-0.18240455351915016]","[1,1,1]","[0.09857481037580926,0.1670672117264013]","[1,1,1]","[-0.1610628558527664,-0.09369792615981963]","[1,1,1]","[0.01752920996873982,-0.13316262010969543]","[1,1,1]","[-0.1486724976594978,0.11034400833505982]","[1,1,1]","[0.05395078383673658,-0.16817266801497882]","[1,1,1]","[-0.09193158615265751,0.08628867148040426]","[1,1,1]","[0.06842823463778218,-0.11717339992050199]","[1,1,1]","[0.11811124865726606,0.12993205987991197]","[1,1,1]","[-0.1042450405136584,0.1321989228569573]","[1,1,1]","[-0.0022043324326011765,0.08956611862260663]","[1,1,1]","[-0.12084875009024541,0.05451332130802296]","[1,1,1]","[-0.1518438274307094,0.00497853496316146]","[1,1,1]","[0.15852446998822967,0.0020516380743757336]","[1,1,1]","[-0.013606422333531017,-0.056339981550257184]","[1,1,1]","[-0.009222256721196248,0.1666879881933554]","[1,1,1]","[-0.09704342923124874,-0.10036119389484693]","[1,1,1]","[0.16798950602714563,-0.08652789746912158]","[1,1,1]","[-0.09978410064504417,-0.15062812799407446]","[1,1,1]","[0.02,0.02]",131.3661,0,26,26,184,1,,,,,,,
,,,,,,,616891e25a026e1f7262116c,682db3c38a113f423e718947,2025-05-21_12h06.50.864,cuing_paradigm_dot,2024.1.5,Win32,75.75757576,682d556593cb38ad0a074487,,,,,,,,,,,131.3684,131.8721,,,132.1167,132.6612,right,0.5228,,,,,,,,,0.55,,,,,,131.8723,132.1165,132.6616,"[0.09775820924369602,-0.0059347631901064965]","[1,1,1]","[0.06568560223692438,-0.056625430953228556]","[1,1,1]","[0.0792988480573955,0.07480392250281118]","[1,1,1]","[-0.0008162118526161927,0.12146897465562222]","[-1,-1,-1]","[0.009352926968415512,-0.13967346530982447]","[1,1,1]","[0.0647169112729734,0.1712094388936058]","[-1,-1,-1]","[-0.06485622949124964,-0.0610775787232451]","[-1,-1,-1]","[-0.1353012986032216,0.11804108810996405]","[1,1,1]","[-0.0809706410947498,-0.12354523248298539]","[1,1,1]","[-0.05071467445132208,0.16721441441996635]","[1,1,1]","[-0.012376838087199317,0.017089855225510934]","[-1,-1,-1]","[0.15016944995601664,0.12572928978932238]","[1,1,1]","[-0.18926062748914974,-0.0264697572431075]","[1,1,1]","[-0.021392648235428517,-0.06217626490999585]","[1,1,1]","[0.07797216800800653,-0.10870075471032693]","[-1,-1,-1]","[0.14107750690262663,0.001525354943544305]","[-1,-1,-1]","[-0.08715727461426968,0.1378959870731659]","[1,1,1]","[-0.005910292887389704,0.1933660664530729]","[-1,-1,-1]","[-0.061215659185784095,0.07929537838377192]","[1,1,1]","[0.04279082490585261,0.05037320847184915]","[-1,-1,-1]","[-0.13261769555165373,-0.1105468660879189]","[-1,-1,-1]","[0.1949012475925621,-0.029133265487519235]","[-1,-1,-1]","[0.12716337259700566,0.08272579726653674]","[1,1,1]","[0.09900458414672485,-0.14347143523003697]","[-1,-1,-1]","[0.18001677618538262,0.04533395193490426]","[-1,-1,-1]","[-0.11483036282758763,0.05554417171672582]","[-1,-1,-1]","[-0.14281062389771743,-0.06687548466086923]","[1,1,1]","[-0.052069789513798946,-0.009867360340476534]","[1,1,1]","[-0.1698282055888788,0.010061430881231546]","[1,1,1]","[0.06559344387845738,-0.18365439907549225]","[1,1,1]","[0.11822606368304517,-0.09297524198642904]","[1,1,1]","[-0.10444795736188923,-0.0338564777804102]","[-1,-1,-1]","[0.02,0.02]",133.7538,0,27,27,120,1,,,,,,,
,,,,,,,616891e25a026e1f7262116c,682db3c38a113f423e718947,2025-05-21_12h06.50.864,cuing_paradigm_dot,2024.1.5,Win32,75.75757576,682d556593cb38ad0a074487,,,,,,,,,,,133.7566,134.2468,,,134.494,134.8572,right,0.3499,,,,,,,,,0.4,,,,,,134.2471,134.494,134.8572,"[0.03311660516523289,0.16240220950021308]","[1,1,1]","[0.02150137242402505,-0.1549656040838445]","[-1,-1,-1]","[-0.057458464224354903,0.0231298723465446]","[-1,-1,-1]","[-0.09730016849701915,-0.1557694494807061]","[-1,-1,-1]","[0.12507307961709369,0.02170974468205287]","[-1,-1,-1]","[0.04950151217419151,0.10729447256473253]","[-1,-1,-1]","[0.09425549630114763,0.060487844642772064]","[-1,-1,-1]","[0.14126596731958985,0.11618349650404246]","[-1,-1,-1]","[0.060851611300351986,-0.002515052841089726]","[-1,-1,-1]","[0.06034959461219367,-0.17044838948755414]","[1,1,1]","[0.010162238805731671,-0.05286778451295361]","[1,1,1]","[-0.11125536016057473,0.11814643955771836]","[1,1,1]","[0.18270251579379915,0.06869133505003337]","[1,1,1]","[0.16582239883083716,-0.08159337954929988]","[-1,-1,-1]","[0.09343834899549446,-0.04081836781589391]","[-1,-1,-1]","[0.09028934058131148,0.11079654099915315]","[1,1,1]","[-0.017001973099147888,0.1473703092684865]","[1,1,1]","[-0.041486262303233094,-0.10038268479336182]","[-1,-1,-1]","[0.037725552298726636,0.03327999251279934]","[1,1,1]","[-0.1615041681877203,-0.1010014550804148]","[-1,-1,-1]","[-0.1003707622650748,-0.10397480238880441]","[1,1,1]","[-0.05971231833274651,0.16231791830545808]","[-1,-1,-1]","[-0.050387739356933504,-0.15699695345420345]","[1,1,1]","[0.11902761496532162,-0.11866194433039652]","[-1,-1,-1]","[0.051034867004390576,-0.08451313138608282]","[-1,-1,-1]","[-0.10547955165472066,-0.04345590908182197]","[-1,-1,-1]","[-0.12659836399616856,-0.008038469337095573]","[-1,-1,-1]","[-0.04088850450907311,0.11303914428046903]","[1,1,1]","[-0.08148362143728469,0.08594896634700787]","[-1,-1,-1]","[-0.11504610526632579,0.05563387671316802]","[1,1,1]","[0.15049864799020585,-0.014893078642028934]","[1,1,1]","[0.11134190409095661,0.14782920824806303]","[-1,-1,-1]","[0.02,0.02]",135.9482,0,28,28,51,1,,,,,,,
,,,,,,,616891e25a026e1f7262116c,682db3c38a113f423e718947,2025-05-21_12h06.50.864,cuing_paradigm_dot,2024.1.5,Win32,75.75757576,682d556593cb38ad0a074487,,,,,,,,,,,135.9495,136.4481,,,136.6958,137.2133,right,0.5054,,,,,,,,,0.6,,,,,,136.4482,136.6957,137.2135,"[0.05668843162015357,-0.044004446110342044]","[-1,-1,-1]","[-0.03571266859399105,0.13736134587484028]","[-1,-1,-1]","[0.03925983985478368,-0.11462127951929174]","[1,1,1]","[0.16301343077692795,0.11455132263952371]","[-1,-1,-1]","[0.14678336017213325,-0.13403512788751928]","[1,1,1]","[0.008907463361094698,-0.19379225874548492]","[1,1,1]","[-0.11757206648063177,-0.13920590032572483]","[-1,-1,-1]","[0.12050652432321401,-0.05910737314581267]","[1,1,1]","[-0.025653272368123124,-0.06765697284361596]","[-1,-1,-1]","[0.110750035008517,0.1562607634409844]","[1,1,1]","[0.15933579475848286,-0.025100205448114695]","[1,1,1]","[-0.12184230526575218,0.11069748425971698]","[1,1,1]","[0.046629005408833045,-0.16557963688859278]","[-1,-1,-1]","[-0.07333400818284969,0.085937962098494]","[-1,-1,-1]","[-0.09547602372915001,-0.005582414745906295]","[1,1,1]","[-0.1925530776241753,0.020548392530286515]","[-1,-1,-1]","[-0.14255901948713934,-0.020194881983185684]","[1,1,1]","[0.0670759647622609,0.09624028711384405]","[1,1,1]","[0.016041439092542086,-0.04968793216686008]","[-1,-1,-1]","[-0.05130233930976557,-0.1044720796624934]","[-1,-1,-1]","[-0.14410666355539933,0.05388467137159343]","[1,1,1]","[0.05688720763611003,0.15763384910633635]","[1,1,1]","[-0.0823868085998559,-0.05899972067324285]","[1,1,1]","[-0.12311155907986669,-0.0925677957263474]","[1,1,1]","[-0.037261844711611355,0.025194915465614042]","[1,1,1]","[0.015294602442097982,0.05907899861732837]","[1,1,1]","[-0.05529966474413208,-0.14984384366235576]","[-1,-1,-1]","[0.0724822008730884,0.018714074281787105]","[1,1,1]","[-0.09502031284375753,0.16429534996917483]","[1,1,1]","[0.13818065333057988,0.012305356825736394]","[1,1,1]","[0.012878243525359509,0.1806203835484797]","[-1,-1,-1]","[0.07935151792116686,-0.08363359464620794]","[-1,-1,-1]","[0.02,0.02]",138.315,0,29,29,154,1,,,,,,,
,,,,,,,616891e25a026e1f7262116c,682db3c38a113f423e718947,2025-05-21_12h06.50.864,cuing_paradigm_dot,2024.1.5,Win32,75.75757576,682d556593cb38ad0a074487,,,,,,,,,,,138.3175,138.8082,,,139.0546,139.612,right,0.5422,,,,,,,,,0.55,,,,,,138.8084,139.0546,139.6121,"[-0.057368354611778034,-0.054905885204241424]","[-1,-1,-1]","[0.005218213291325833,-0.18149678634908117]","[-1,-1,-1]","[0.054112177734376675,-0.05346393451000447]","[1,1,1]","[-0.17442543919645126,-0.0034502184369063233]","[-1,-1,-1]","[-0.14578213221984143,0.10493858005987407]","[1,1,1]","[-0.164943874344816,-0.072248158796954]","[1,1,1]","[-0.1154996007113365,-0.08412276858157378]","[-1,-1,-1]","[0.17024971388159332,-0.03793346904375558]","[1,1,1]","[-0.0529858456836482,-0.12293226709427674]","[1,1,1]","[-0.0833348992384722,0.09783375996937001]","[1,1,1]","[0.005133871541666068,-0.053163167642801996]","[-1,-1,-1]","[-0.0025458519095359136,0.08149695741914217]","[1,1,1]","[-0.0759369521456076,0.0393766783921732]","[-1,-1,-1]","[0.02255033800026091,0.13095507721187624]","[1,1,1]","[0.06898119626982087,0.01412532662701754]","[1,1,1]","[0.17804173184611752,0.0688934422011199]","[1,1,1]","[0.1379630658607726,0.04664143826392066]","[1,1,1]","[0.07440797016803882,0.12615206671588153]","[-1,-1,-1]","[-0.031034980967075167,0.18690994311632864]","[1,1,1]","[0.09030561501806954,0.08748492418913235]","[-1,-1,-1]","[0.037842251494875,0.04485559540849533]","[-1,-1,-1]","[-0.05772138697746951,0.0036360398186092826]","[1,1,1]","[-0.015676228058874746,-0.009142761299217456]","[1,1,1]","[0.049247273470112395,-0.14852819043978482]","[-1,-1,-1]","[0.19553368382688666,-0.002996987641913904]","[-1,-1,-1]","[0.1126709667078472,0.010195850036267183]","[1,1,1]","[0.06817726408430069,0.1705284435717111]","[1,1,1]","[-0.19549808727451234,-0.040741185799859296]","[1,1,1]","[-0.18417195713173087,0.050876667729623334]","[-1,-1,-1]","[0.11186282862663337,-0.14965294808341842]","[-1,-1,-1]","[0.06369448821811409,-0.18750918997610652]","[1,1,1]","[-0.10431555970684397,-0.013899267385686606]","[-1,-1,-1]","[0.02,0.02]",140.703,0,30,30,128,1,,,,,,,
,,,,,,,616891e25a026e1f7262116c,682db3c38a113f423e718947,2025-05-21_12h06.50.864,cuing_paradigm_dot,2024.1.5,Win32,75.75757576,682d556593cb38ad0a074487,,,,,,,,,,,140.7047,141.2021,,,141.4497,141.9032,left,0.4425,,,,,,,,,0.4,,,,,,141.2022,141.4496,141.9033,"[-0.12336466689359721,0.10678008833835512]","[1,1,1]","[-0.1539205785151433,-0.08685188229563219]","[-1,-1,-1]","[-0.05608672892041109,0.030397909337904143]","[1,1,1]","[-0.06606223606322191,-0.13311177218055661]","[-1,-1,-1]","[-0.11897013595814473,-0.15857084359130671]","[-1,-1,-1]","[0.04688357202253445,0.07427442805736238]","[-1,-1,-1]","[0.008388512789255998,0.17329685298833544]","[1,1,1]","[0.10328540862402308,0.13017919940845274]","[-1,-1,-1]","[0.15287022960293797,0.06615884973818029]","[1,1,1]","[0.04614869155239938,0.14714250590520692]","[1,1,1]","[-0.001811418378888696,-0.09482824149682918]","[-1,-1,-1]","[0.11471206846810392,-0.022495636599396903]","[1,1,1]","[0.033382777359342954,-0.057625512815059884]","[-1,-1,-1]","[-0.14186324580169035,0.008281876416406818]","[-1,-1,-1]","[0.06612847225277944,0.030751825822001602]","[1,1,1]","[-0.04633730307544783,-0.18642027927973268]","[-1,-1,-1]","[-0.06600641810241677,0.10736539464824976]","[-1,-1,-1]","[-0.004078481881643788,0.01790238101279879]","[1,1,1]","[-0.18605142887493079,0.05033446376032905]","[-1,-1,-1]","[0.11049264565785759,-0.1285535206492372]","[1,1,1]","[-0.1853813232605106,-0.03606487846440939]","[1,1,1]","[-0.05475209419318583,0.18205105466174037]","[1,1,1]","[0.08962599053259414,0.07781242070208022]","[-1,-1,-1]","[-0.07839250560109773,0.14964626406753884]","[-1,-1,-1]","[-0.09902300745713657,0.07304986555247925]","[1,1,1]","[0.15462660405722906,-0.02937763816340909]","[-1,-1,-1]","[-0.12120895396081295,-0.03307269495917354]","[1,1,1]","[-0.03551573070124645,-0.023775941124639113]","[-1,-1,-1]","[0.09426267880699034,-0.08100491666959642]","[-1,-1,-1]","[0.0018041597350632347,0.08573907638968606]","[-1,-1,-1]","[-0.00856988625526129,-0.15727709078978877]","[-1,-1,-1]","[-0.02184263538314142,0.11857172515353755]","[-1,-1,-1]","[0.02,0.02]",142.9969,0,31,31,32,1,,,,,,,
,,,,,,,616891e25a026e1f7262116c,682db3c38a113f423e718947,2025-05-21_12h06.50.864,cuing_paradigm_dot,2024.1.5,Win32,75.75757576,682d556593cb38ad0a074487,,,,,,,,,,,142.9976,143.49,,,143.7386,144.2536,right,0.5012,,,,,,,,,0.5,,,,,,143.49,143.7385,144.2537,"[-0.1950226092617346,-0.04082830401189526]","[1,1,1]","[-0.03757177350893268,-0.13460184619370447]","[1,1,1]","[-0.1215029543652059,-0.012566546046805616]","[1,1,1]","[-0.09513371348334976,-0.11101548506439553]","[1,1,1]","[-0.14979854491957798,-0.0535081169589822]","[1,1,1]","[-0.11573858948057741,0.10980072317082379]","[1,1,1]","[0.034031017558149336,0.13715898417008102]","[-1,-1,-1]","[-0.03342797517115279,0.15598604355578444]","[1,1,1]","[0.09436526546235174,-0.10249103640553624]","[-1,-1,-1]","[0.008833161077809218,-0.12483677305820268]","[-1,-1,-1]","[-0.047236674183206276,0.08488721342884872]","[1,1,1]","[-0.00007847983349440248,-0.07470687882179756]","[1,1,1]","[-0.030133157713261714,0.036444342996849254]","[-1,-1,-1]","[0.0563723209395611,0.0419901578851574]","[-1,-1,-1]","[-0.11013314049221212,-0.14940842269281254]","[-1,-1,-1]","[0.1788387438082545,0.08369790514562614]","[1,1,1]","[-0.030944400017246375,-0.04538426377567191]","[-1,-1,-1]","[-0.08611259101892686,0.04103631409138125]","[-1,-1,-1]","[-0.1606406141612612,0.10102194562384707]","[-1,-1,-1]","[0.13827455159237742,-0.07984723061345815]","[1,1,1]","[0.18020083000622913,-0.005239040465610274]","[-1,-1,-1]","[-0.05927789637650277,0.1894995639040649]","[-1,-1,-1]","[0.028130628118025712,0.07154970783340252]","[1,1,1]","[0.11237295889114624,0.033822065220699894]","[-1,-1,-1]","[0.1891655132508176,-0.05616507468281273]","[-1,-1,-1]","[-0.005753687566351105,-0.0016607973807826676]","[1,1,1]","[0.040699203619031815,-0.09126842493028853]","[1,1,1]","[-0.16623405409234907,0.05034601300668083]","[-1,-1,-1]","[0.10975743197189722,-0.016129139513340534]","[1,1,1]","[0.06070926420075865,-0.17404253466388409]","[-1,-1,-1]","[0.07811387213567085,-0.044265397141675475]","[-1,-1,-1]","[0.12201401115031969,-0.15226146916728606]","[1,1,1]","[0.02,0.02]",145.3505,0,32,32,119,1,,,,,,,
,,,,,,,616891e25a026e1f7262116c,682db3c38a113f423e718947,2025-05-21_12h06.50.864,cuing_paradigm_dot,2024.1.5,Win32,75.75757576,682d556593cb38ad0a074487,,,,,,,,,,,145.3514,145.8452,,,146.0976,146.7064,left,0.5887,,,,,,,,,0.4,,,,,,145.8453,146.0975,146.7065,"[0.11743655226683332,-0.13372739410687148]","[-1,-1,-1]","[-0.1725104152189674,-0.05937950757281305]","[1,1,1]","[-0.04245873912686242,0.1054978067031574]","[1,1,1]","[0.03230763353641391,-0.1970533305752901]","[-1,-1,-1]","[0.014631101569683546,0.0024875241029764933]","[1,1,1]","[-0.048629952252464824,-0.10694897052492279]","[-1,-1,-1]","[0.07281567685464778,0.07143566242062904]","[-1,-1,-1]","[0.01762706684363132,0.1524561455470586]","[-1,-1,-1]","[-0.09856787627835428,0.06540114188959943]","[1,1,1]","[0.048460537426169716,-0.10587658655491274]","[-1,-1,-1]","[-0.100551087329347,-0.039595924803612376]","[1,1,1]","[0.04456300219083781,-0.06549596026793925]","[-1,-1,-1]","[0.014556952955689501,0.0945759847015368]","[1,1,1]","[0.06584060396887266,-0.002062168828063965]","[-1,-1,-1]","[-0.14937546582887892,0.05991613835593741]","[1,1,1]","[-0.05136988417535764,-0.06673084125018056]","[-1,-1,-1]","[-0.043307015451231966,0.03906013640301796]","[1,1,1]","[-0.16266720647388555,0.10146915276222035]","[-1,-1,-1]","[-0.1091158026388456,0.16569434267280075]","[-1,-1,-1]","[0.12015661004463302,0.018932406847890108]","[1,1,1]","[0.10225092780392356,-0.17108694037195513]","[-1,-1,-1]","[0.03072530353916571,0.04403864377810834]","[1,1,1]","[0.1933675270652131,-0.04273678164822107]","[1,1,1]","[0.13137916079878376,-0.08700735489320745]","[1,1,1]","[-0.03840695389407561,-0.1896939279866142]","[-1,-1,-1]","[0.14486357285759024,-0.035483671872122376]","[-1,-1,-1]","[-0.14758293407026332,0.01556148887392959]","[-1,-1,-1]","[-0.01930067252736596,-0.021058986473674036]","[-1,-1,-1]","[0.0011050652737242415,-0.13487598873519396]","[-1,-1,-1]","[-0.10555568407046882,0.001279819809168187]","[-1,-1,-1]","[-0.0912434351676716,0.12339212498951505]","[-1,-1,-1]","[0.09229887326464221,0.13085469233015826]","[1,1,1]","[0.02,0.02]",147.7993,0,33,33,47,1,,,,,,,
,,,,,,,616891e25a026e1f7262116c,682db3c38a113f423e718947,2025-05-21_12h06.50.864,cuing_paradigm_dot,2024.1.5,Win32,75.75757576,682d556593cb38ad0a074487,,,,,,,,,,,147.8018,148.2926,,,148.5393,148.8133,right,0.2564,,,,,,,,,0.9,,,,,,148.2929,148.5392,148.8135,"[0.12792603374186792,-0.06734739854005029]","[1,1,1]","[-0.1711612508021225,0.05711604186012209]","[1,1,1]","[0.07779555004318915,-0.10812974222736152]","[1,1,1]","[0.0671003447236036,-0.03284743336753613]","[1,1,1]","[-0.08970141832500121,0.04869042168854364]","[1,1,1]","[-0.039409632535703246,-0.016014202439576953]","[1,1,1]","[-0.14295469173056038,-0.0005120943081716025]","[1,1,1]","[-0.03842642731255683,0.10111532405846307]","[1,1,1]","[-0.14471408859240462,0.0880773263510237]","[-1,-1,-1]","[-0.01642061333805605,0.14618366674353714]","[1,1,1]","[0.0834824518563286,0.18070971646325004]","[1,1,1]","[0.04729529497424377,0.09106742946560192]","[1,1,1]","[-0.07050200371644692,-0.09492878029479652]","[1,1,1]","[0.046729265555713606,-0.07149096591520769]","[1,1,1]","[0.004762783423682654,0.03465027566174888]","[1,1,1]","[-0.0006662204480245305,-0.10370288797411543]","[1,1,1]","[0.12031229605305653,-0.15427782165691692]","[1,1,1]","[0.14262778321649663,0.1129929199727575]","[1,1,1]","[-0.1907333170198175,-0.012042356807513874]","[1,1,1]","[0.13478323146677007,-0.017711199647908824]","[1,1,1]","[-0.01587457134441716,0.19747992956652954]","[1,1,1]","[0.17722409322567595,0.08493398740343026]","[1,1,1]","[0.040646538448553114,0.16017264227692765]","[-1,-1,-1]","[-0.05987659492812502,-0.16978564894506837]","[1,1,1]","[-0.1061968996239596,0.13336343282649343]","[1,1,1]","[0.004114677249710072,-0.18921740731406791]","[1,1,1]","[-0.16423760509400692,-0.07595480170304159]","[1,1,1]","[-0.10414659596981152,-0.13734226103983682]","[1,1,1]","[0.09213076991098808,0.07533751248158063]","[1,1,1]","[0.06806360126012802,-0.15778388702720744]","[-1,-1,-1]","[0.13685851599502005,0.04092880070530235]","[1,1,1]","[-0.13014144919780177,-0.05400515271290747]","[1,1,1]","[0.02,0.02]",149.9061,0,34,34,206,1,,,,,,,
,,,,,,,616891e25a026e1f7262116c,682db3c38a113f423e718947,2025-05-21_12h06.50.864,cuing_paradigm_dot,2024.1.5,Win32,75.75757576,682d556593cb38ad0a074487,,,,,,,,,,,149.9079,150.399,,,150.6452,150.8127,right,0.1483,,,,,,,,,0.9,,,,,,150.3994,150.6451,150.813,"[0.014197270553092122,-0.002399528626870934]","[1,1,1]","[-0.07165071634708696,-0.06743295246295568]","[1,1,1]","[0.09347801674685494,0.0896347955958302]","[1,1,1]","[0.15022280848560915,0.020901129094530322]","[1,1,1]","[0.13098889462885183,-0.04379414864120635]","[1,1,1]","[-0.08948692334846722,0.03286879057074874]","[-1,-1,-1]","[0.04632284751911791,-0.15052090884405453]","[1,1,1]","[-0.004922323235358286,-0.05584605793996694]","[1,1,1]","[-0.005477661621379866,0.18258180371372165]","[1,1,1]","[-0.15743718977427865,0.002845011077136504]","[1,1,1]","[0.0787403771646636,0.005037433950297605]","[1,1,1]","[-0.14376392385456563,-0.05799384396269992]","[1,1,1]","[0.17255847939190977,-0.01785470036119732]","[1,1,1]","[-0.006134840142655241,-0.13035606856075432]","[1,1,1]","[-0.1672061618097869,-0.09353655394416731]","[-1,-1,-1]","[-0.017284688549208737,0.022904047097935254]","[1,1,1]","[-0.09829241558537974,-0.014838474374733455]","[1,1,1]","[-0.12473877586932158,-0.14222582436474324]","[1,1,1]","[-0.09787336665608223,0.10814173809295549]","[1,1,1]","[-0.05708715836657356,-0.0030026718552127155]","[1,1,1]","[-0.15110844448741445,0.1308001557021062]","[1,1,1]","[-0.1661238619057889,0.0574088625312582]","[1,1,1]","[-0.19501427723823683,-0.02609776825278709]","[1,1,1]","[0.04616252751143418,-0.08122504539335801]","[1,1,1]","[0.13952812127649358,-0.14004851062971774]","[-1,-1,-1]","[0.04587464564516424,0.08779683012367975]","[1,1,1]","[-0.08590657770953854,-0.12529959203290247]","[1,1,1]","[0.14569336003911595,-0.09655736909545916]","[1,1,1]","[0.0034460913092201778,0.10845747478285185]","[1,1,1]","[0.17640301991033738,0.058379417432151554]","[1,1,1]","[-0.10651549953286985,0.1637990016267775]","[1,1,1]","[0.1721049383767958,-0.05921594991975156]","[1,1,1]","[0.02,0.02]",151.9076,0,35,35,188,1,,,,,,,
,,,,,,,616891e25a026e1f7262116c,682db3c38a113f423e718947,2025-05-21_12h06.50.864,cuing_paradigm_dot,2024.1.5,Win32,75.75757576,682d556593cb38ad0a074487,,,,,,,,,,,151.9088,152.407,,,152.654,153.013,right,0.3428,,,,,,,,,0.6,,,,,,152.4071,152.6538,153.0131,"[-0.004782373782724826,-0.19312736920454943]","[-1,-1,-1]","[0.0006110922590123476,0.09646744937615503]","[-1,-1,-1]","[-0.1293432156951177,-0.1016160349919541]","[1,1,1]","[-0.08163158439281593,0.009364992641355704]","[-1,-1,-1]","[-0.09203022106380826,0.06080281219533958]","[1,1,1]","[0.03284865751112717,-0.05822893961575914]","[-1,-1,-1]","[-0.049068785304526366,0.03775940541346743]","[1,1,1]","[0.05886490725892501,0.05205980278554858]","[1,1,1]","[-0.09942275845435733,0.14806845605490845]","[-1,-1,-1]","[0.011435346673517874,-0.01856659579201548]","[-1,-1,-1]","[0.1138715719610882,0.014210092037039372]","[1,1,1]","[0.12684681565688666,-0.08844055556126776]","[1,1,1]","[-0.15766249265879417,0.02153085914390797]","[1,1,1]","[0.04234076750772378,0.17107274482766968]","[1,1,1]","[0.03381247840558245,-0.17955848132090638]","[1,1,1]","[-0.05669174213417358,0.13776270149370604]","[1,1,1]","[-0.14025379605613644,0.08431332116929653]","[1,1,1]","[0.14812713642783426,-0.12660314553316168]","[-1,-1,-1]","[0.08204389214266933,0.14084062318097842]","[-1,-1,-1]","[-0.018254162870033345,0.1747829608047472]","[-1,-1,-1]","[0.10489876503967495,-0.13202248055368665]","[1,1,1]","[-0.08590877953864298,-0.043279258823750826]","[-1,-1,-1]","[0.17536519913972978,-0.02042073912283503]","[1,1,1]","[-0.01699752547163813,-0.11488923430969149]","[-1,-1,-1]","[-0.048739324349969894,-0.14602335552254053]","[-1,-1,-1]","[-0.16965858251686464,-0.09600988800542372]","[-1,-1,-1]","[-0.13051612813966576,-0.06040807267168478]","[1,1,1]","[-0.009777834195448979,0.04895126378924162]","[1,1,1]","[-0.05554343870755397,0.08647603097558668]","[1,1,1]","[-0.11005264742490137,-0.16693635997511197]","[1,1,1]","[0.1895491772891732,0.046214605060208275]","[1,1,1]","[0.12794144774192842,0.06074293432543459]","[1,1,1]","[0.02,0.02]",154.1084,0,36,36,172,1,,,,,,,
,,,,,,,616891e25a026e1f7262116c,682db3c38a113f423e718947,2025-05-21_12h06.50.864,cuing_paradigm_dot,2024.1.5,Win32,75.75757576,682d556593cb38ad0a074487,,,,,,,,,,,154.11,154.6006,,,154.8469,154.9493,right,0.0832,,,,,,,,,0.9,,,,,,154.6008,154.8469,154.9497,"[-0.07609620084430908,-0.06672022231818596]","[1,1,1]","[0.14514016142251138,-0.07455346404582121]","[1,1,1]","[-0.13240521439806754,-0.10605532362536449]","[1,1,1]","[0.04500053963855366,0.09235217138587402]","[1,1,1]","[0.18636878307300295,0.04987714252920197]","[1,1,1]","[-0.011942504272521704,-0.007556726570228812]","[1,1,1]","[-0.1519837045826144,0.07195228037723213]","[1,1,1]","[0.03390632457061612,0.028161520502305998]","[1,1,1]","[0.1168121878181158,-0.028484932396046773]","[1,1,1]","[0.18821892752812422,-0.032190713046328624]","[1,1,1]","[-0.06902573070762821,0.008317190416470506]","[1,1,1]","[-0.026860892261191618,0.18553824537116098]","[1,1,1]","[-0.14843077338203792,0.006600270348890629]","[1,1,1]","[-0.10993914255516825,0.1419435247094825]","[1,1,1]","[0.04387149109043046,-0.07562517660773767]","[-1,-1,-1]","[-0.028303212921070707,-0.061869763377188525]","[1,1,1]","[-0.06182012173028406,0.07570171211136693]","[1,1,1]","[0.048055441682101054,0.15655859644791462]","[-1,-1,-1]","[0.03627944957967002,-0.17262405231757832]","[1,1,1]","[0.0017569541524282634,-0.14527677962610444]","[1,1,1]","[-0.16076958545237874,0.1110272019596515]","[1,1,1]","[-0.10421977857924462,-0.15513765218232464]","[1,1,1]","[-0.12076341365122881,0.04410861825014444]","[-1,-1,-1]","[0.007265595462200003,0.11792141014345875]","[1,1,1]","[0.06887603809803025,-0.1260419859856589]","[1,1,1]","[0.1384248430804454,0.0754770478344963]","[1,1,1]","[0.10808220696293866,-0.11138046755603151]","[1,1,1]","[0.105997027298691,0.023243385916480373]","[1,1,1]","[0.05963288792699541,-0.025545911055601004]","[1,1,1]","[0.17597756205511295,0.09439962224304288]","[1,1,1]","[-0.17962201130930924,-0.07726986872176436]","[1,1,1]","[-0.14563230599999574,-0.050445039355096095]","[1,1,1]","[0.02,0.02]",156.042,0,37,37,187,1,,,,,,,
,,,,,,,616891e25a026e1f7262116c,682db3c38a113f423e718947,2025-05-21_12h06.50.864,cuing_paradigm_dot,2024.1.5,Win32,75.75757576,682d556593cb38ad0a074487,,,,,,,,,,,156.0434,156.5356,,,156.7971,157.0296,left,0.2182,,,,,,,,,0.4,,,,,,156.5357,156.797,157.0299,"[0.14550759422224693,-0.0872166908040638]","[-1,-1,-1]","[-0.011111114483192422,0.06254303404900505]","[-1,-1,-1]","[0.10577245540334944,-0.09922664452684099]","[-1,-1,-1]","[0.0653374444662966,-0.18024034732598607]","[1,1,1]","[-0.1250095486574782,0.13064830208372058]","[1,1,1]","[-0.10506864169906385,0.03410417784133729]","[1,1,1]","[0.030823057801788352,0.1368513942792626]","[1,1,1]","[-0.06040824700695952,0.17512650713482836]","[-1,-1,-1]","[-0.030636572531394842,0.13102125125706218]","[1,1,1]","[-0.10875087745169781,-0.11770640913609995]","[-1,-1,-1]","[-0.003990777965454146,-0.1667576497222956]","[1,1,1]","[0.05411893132188286,0.03945056980454726]","[-1,-1,-1]","[-0.04662274195559164,-0.11479781085033806]","[-1,-1,-1]","[0.16148007248293691,0.015171558892877829]","[-1,-1,-1]","[0.009610046921314666,-0.1204347882943723]","[-1,-1,-1]","[-0.1577730549795479,0.053676737119481004]","[-1,-1,-1]","[-0.1606221322123387,-0.06198139439933886]","[-1,-1,-1]","[0.12840365801161843,0.10988778557504043]","[-1,-1,-1]","[-0.05427672564012276,0.04229620840580289]","[1,1,1]","[0.07921447108999968,0.07071553047136636]","[1,1,1]","[-0.1534404133371709,-0.122592462798478]","[1,1,1]","[-0.057356004306817365,-0.0039913952501401916]","[1,1,1]","[0.006650722918496307,-0.07666805028735758]","[-1,-1,-1]","[0.08044061781682416,0.1511978906299995]","[1,1,1]","[-0.011373290775882932,0.17214734984630722]","[-1,-1,-1]","[0.019490792741891527,0.0048792736654373475]","[-1,-1,-1]","[0.1820460611549355,-0.06060994747786452]","[-1,-1,-1]","[0.12613313638049592,0.04336217960517243]","[-1,-1,-1]","[0.12726529186930857,-0.048527037930906076]","[1,1,1]","[-0.16095367923437987,-0.007438260016119263]","[-1,-1,-1]","[-0.05579261894322383,-0.1609800039046298]","[1,1,1]","[-0.06412073151917988,0.08133355334935322]","[-1,-1,-1]","[0.02,0.02]",158.122,0,38,38,34,1,,,,,,,
,,,,,,,616891e25a026e1f7262116c,682db3c38a113f423e718947,2025-05-21_12h06.50.864,cuing_paradigm_dot,2024.1.5,Win32,75.75757576,682d556593cb38ad0a074487,,,,,,,,,,,158.1239,158.6152,,,158.858,159.0397,right,0.162,,,,,,,,,0.1,,,,,,158.6156,158.8579,159.0398,"[0.17387813126678944,0.02907542098175648]","[-1,-1,-1]","[0.09405701004443554,0.0751746280942548]","[-1,-1,-1]","[0.06802361544619026,0.12332369190048752]","[-1,-1,-1]","[-0.033440346255526845,0.15311602109857503]","[-1,-1,-1]","[-0.003386303526041387,-0.0708133939868657]","[-1,-1,-1]","[-0.12352657035838005,-0.06012353416408575]","[-1,-1,-1]","[-0.07735662805573665,0.15397417191146415]","[-1,-1,-1]","[0.0940400637964169,-0.06787574149281045]","[-1,-1,-1]","[0.03423602016914432,0.0013679972219371919]","[1,1,1]","[-0.09918885252506546,-0.1705634552189082]","[-1,-1,-1]","[-0.14522002955892246,0.09578105134205664]","[-1,-1,-1]","[0.06970341476520817,0.037761624989936314]","[1,1,1]","[0.05950211748885665,-0.1218917875421269]","[-1,-1,-1]","[-0.16527162753025143,-0.002084454981256809]","[-1,-1,-1]","[-0.06519503188724535,-0.09018409371871357]","[-1,-1,-1]","[-0.07744812809091463,0.05524609827749877]","[-1,-1,-1]","[0.05274769044957637,0.188581091976792]","[-1,-1,-1]","[-0.18724258970743216,-0.044796437042003805]","[-1,-1,-1]","[0.01570949801105645,0.06803684443050456]","[-1,-1,-1]","[-0.07426215645559149,-0.033987809178666444]","[-1,-1,-1]","[0.1529125572126855,-0.06811692453392013]","[-1,-1,-1]","[-0.02584525632787006,-0.16066247300101666]","[-1,-1,-1]","[0.043707806975295985,-0.18497538396971236]","[1,1,1]","[0.12328355578273571,0.1542509773797646]","[-1,-1,-1]","[-0.11679393581784368,0.023253752047748023]","[-1,-1,-1]","[-0.018902131486308496,0.1020137588704133]","[-1,-1,-1]","[0.08443132122264173,-0.17993825514369496]","[-1,-1,-1]","[0.13409319371777784,-0.018200851357221694]","[-1,-1,-1]","[0.038746415026115505,-0.04810621528639223]","[-1,-1,-1]","[-0.14051452327507533,-0.10566006065330134]","[-1,-1,-1]","[0.002185704026626033,0.1903537699850899]","[-1,-1,-1]","[0.14657548779487123,0.0866401387271471]","[-1,-1,-1]","[0.02,0.02]",160.1373,0,39,39,9,1,,,,,,,
,,,,,,,616891e25a026e1f7262116c,682db3c38a113f423e718947,2025-05-21_12h06.50.864,cuing_paradigm_dot,2024.1.5,Win32,75.75757576,682d556593cb38ad0a074487,,,,,,,,,,,160.1392,160.6304,,,160.8784,161.4346,left,0.5435,,,,,,,,,0.4,,,,,,160.6306,160.8783,161.4347,"[-0.12358146842415083,0.03067737996293539]","[-1,-1,-1]","[0.05843391625908703,-0.13949970962780492]","[1,1,1]","[0.016288273048799037,-0.014930099486306398]","[-1,-1,-1]","[-0.08259552637662318,0.09103416982733319]","[1,1,1]","[-0.05541706940046371,-0.012309911808948852]","[-1,-1,-1]","[-0.12721562368534875,0.08667587913077152]","[1,1,1]","[0.13683327046246227,0.09899816460430275]","[-1,-1,-1]","[-0.054380063797585726,0.14642989264973]","[-1,-1,-1]","[-0.09101275925353655,-0.07067153984182328]","[-1,-1,-1]","[-0.0555738412367696,0.050914095962913554]","[1,1,1]","[0.06912393634001954,0.13202201681104442]","[-1,-1,-1]","[0.013444800870645233,-0.1274884879710008]","[-1,-1,-1]","[0.03686973600563444,0.18903545015796083]","[1,1,1]","[0.07360745236084204,0.013007814020151618]","[1,1,1]","[0.04199901571558021,0.06581323390883241]","[-1,-1,-1]","[0.0317214225281016,-0.1899364260752487]","[-1,-1,-1]","[-0.18871098598542796,0.02715100165909551]","[-1,-1,-1]","[0.08267512122421661,-0.05180201083982534]","[-1,-1,-1]","[-0.04791139717490125,0.18752636517094087]","[1,1,1]","[0.14018372629785442,0.005866570951730735]","[-1,-1,-1]","[0.1879275230323738,0.0021725874586656117]","[-1,-1,-1]","[0.04076911938313487,-0.06272337920535466]","[-1,-1,-1]","[-0.17516121168854398,-0.08508484207679837]","[1,1,1]","[-0.09033538119145697,0.17261576396641665]","[-1,-1,-1]","[-0.11819867085118416,-0.03514324695470776]","[1,1,1]","[0.1527596092933661,-0.0441885641052884]","[1,1,1]","[-0.08528007877896739,-0.12984520078148057]","[-1,-1,-1]","[-0.13150163506818516,-0.13108440026804824]","[-1,-1,-1]","[0.004646441980149436,0.04370546103933091]","[1,1,1]","[-0.01313499384608002,0.12008472350662078]","[1,1,1]","[-0.04332750431017154,-0.055972986103498275]","[1,1,1]","[-0.1289808013419378,0.1287890520760018]","[-1,-1,-1]","[0.02,0.02]",162.5413,0,40,40,55,1,,,,,,,
,,,,,,,616891e25a026e1f7262116c,682db3c38a113f423e718947,2025-05-21_12h06.50.864,cuing_paradigm_dot,2024.1.5,Win32,75.75757576,682d556593cb38ad0a074487,,,,,,,,,,,162.5424,163.0492,,,163.2982,163.5153,left,0.2054,,,,,,,,,0.1,,,,,,163.0493,163.2981,163.5156,"[0.029663326615919385,-0.07305494526365842]","[-1,-1,-1]","[0.05491161211384068,0.1838864450166877]","[-1,-1,-1]","[0.0818708447715128,0.08795936672446364]","[-1,-1,-1]","[0.11045454409659894,0.03672527264363603]","[-1,-1,-1]","[0.008401998021851813,0.07937132616875002]","[-1,-1,-1]","[-0.11787165322766814,-0.044915389068274705]","[-1,-1,-1]","[0.1699724830839071,0.03150378619419503]","[-1,-1,-1]","[0.0438637082630942,-0.1670111913807818]","[-1,-1,-1]","[-0.04750912848899329,0.10377278990611415]","[-1,-1,-1]","[-0.04542019644878775,-0.16033794908806648]","[-1,-1,-1]","[0.1296064940726269,-0.09454682977815437]","[-1,-1,-1]","[0.12236103421752906,-0.025489352500950885]","[1,1,1]","[0.08655480511886647,-0.15336491635144753]","[-1,-1,-1]","[-0.056385364723741754,-0.07778127710083664]","[-1,-1,-1]","[0.0820111075971397,-0.08081671964886908]","[-1,-1,-1]","[0.15751734959275243,0.07542347679997313]","[-1,-1,-1]","[0.003917525608630448,-0.13801813378881325]","[1,1,1]","[-0.05877430979948007,0.00823703992201861]","[-1,-1,-1]","[0.059006973681215436,-0.03266417262625103]","[-1,-1,-1]","[0.044461417935645384,0.046079561952727534]","[-1,-1,-1]","[-0.10227842009190603,0.1044698830600822]","[-1,-1,-1]","[0.168765091573357,-0.03686204587573823]","[-1,-1,-1]","[-0.1982698946675936,-0.006286407035631729]","[-1,-1,-1]","[0.0999786138688897,0.1722006945006381]","[-1,-1,-1]","[0.17080036156657427,-0.08858036374877362]","[-1,-1,-1]","[-0.15811274286014032,0.10922086216139203]","[-1,-1,-1]","[-0.13724781152801074,0.05837950654201728]","[-1,-1,-1]","[0.008289362638487216,-0.029108658000547488]","[-1,-1,-1]","[-0.15577860571360477,0.010744488535788556]","[-1,-1,-1]","[0.0010904329151252446,0.17937806959438227]","[1,1,1]","[-0.1055367618105629,-0.14038751888011886]","[-1,-1,-1]","[-0.08131775815089472,0.041587791160690744]","[-1,-1,-1]","[0.02,0.02]",164.618,0,41,41,26,1,,,,,,,
,,,,,,,616891e25a026e1f7262116c,682db3c38a113f423e718947,2025-05-21_12h06.50.864,cuing_paradigm_dot,2024.1.5,Win32,75.75757576,682d556593cb38ad0a074487,,,,,,,,,,,164.6203,165.1113,,,165.357,165.7651,right,0.3919,,,,,,,,,0.55,,,,,,165.1114,165.3569,165.7655,"[0.04119830986805851,-0.18625730008462935]","[1,1,1]","[-0.10918104678294331,-0.11029390177113241]","[1,1,1]","[0.013457853163719965,0.007350834913821905]","[1,1,1]","[-0.017779071753031273,-0.06828707220781388]","[1,1,1]","[0.15257404481312686,0.02416886547880016]","[-1,-1,-1]","[-0.08036206526940116,-0.0718112883416865]","[1,1,1]","[0.02946405427295796,0.16169332140774204]","[-1,-1,-1]","[-0.112128834974537,0.03528524981994909]","[1,1,1]","[0.12269558888344798,0.05740789026779182]","[-1,-1,-1]","[0.08365197066944824,-0.08122819965398664]","[-1,-1,-1]","[0.041798633875154256,-0.13315416184338144]","[1,1,1]","[0.1469256450391725,0.12673948587757233]","[1,1,1]","[0.00010815575858791155,0.07977145721894636]","[1,1,1]","[-0.07074598998564209,0.1276979554048061]","[1,1,1]","[0.07370220101312822,0.06730875949659627]","[1,1,1]","[-0.14099677432809196,-0.04265999801349407]","[1,1,1]","[-0.09681052092583266,0.09571845022211964]","[-1,-1,-1]","[-0.14241004800869742,0.10534750835995413]","[-1,-1,-1]","[0.1684610511314621,0.0828192805743647]","[1,1,1]","[0.11029621580924835,-0.04149437000645929]","[-1,-1,-1]","[-0.05000924848084146,-0.009791789183601615]","[-1,-1,-1]","[-0.000635936961100247,-0.030349545267088624]","[1,1,1]","[-0.15443402035606837,0.02336219347676531]","[1,1,1]","[-0.01676966773912882,-0.12102890249068958]","[1,1,1]","[-0.1482991070036104,0.064880745866392]","[-1,-1,-1]","[0.16984952816602733,-0.09352122837074978]","[-1,-1,-1]","[-0.03958724332532545,0.08990468473005842]","[-1,-1,-1]","[-0.17912281075392072,-0.06921286281006357]","[-1,-1,-1]","[-0.009778763404987666,-0.16103035806303778]","[1,1,1]","[0.03543210094193469,-0.07551749865730352]","[-1,-1,-1]","[0.18637963291671528,-0.024664026980315064]","[1,1,1]","[0.07320003324851708,0.16336550678740047]","[-1,-1,-1]","[0.02,0.02]",166.865,0,42,42,133,1,,,,,,,
,,,,,,,616891e25a026e1f7262116c,682db3c38a113f423e718947,2025-05-21_12h06.50.864,cuing_paradigm_dot,2024.1.5,Win32,75.75757576,682d556593cb38ad0a074487,,,,,,,,,,,166.8658,167.3658,,,167.6191,167.7394,left,0.1082,,,,,,,,,0.1,,,,,,167.3662,167.6191,167.7396,"[0.10500432233084878,0.1340860873923701]","[1,1,1]","[-0.1173028986423802,-0.049790569011104714]","[-1,-1,-1]","[0.0813709545899327,0.007801450732993338]","[-1,-1,-1]","[-0.012022829883061638,-0.0024435134321277724]","[-1,-1,-1]","[0.07553917197441117,0.1741553985266074]","[-1,-1,-1]","[0.007381963011448972,-0.1886426012233006]","[-1,-1,-1]","[-0.09664484199367626,-0.09148040309433186]","[-1,-1,-1]","[-0.09766479414699109,0.02583877154194142]","[-1,-1,-1]","[0.09150091037165191,-0.12466828496810596]","[-1,-1,-1]","[0.14810748292092485,-0.12835398362676625]","[-1,-1,-1]","[0.1622081868815766,-0.051536463677751804]","[1,1,1]","[0.18586295962984503,0.0022799454985828298]","[-1,-1,-1]","[0.03229863221330524,-0.12340756091384193]","[-1,-1,-1]","[-0.06053989129029224,0.11868075650618437]","[-1,-1,-1]","[0.0007135794196300491,0.09224490419294193]","[-1,-1,-1]","[0.019074943800458537,0.1690820414789771]","[-1,-1,-1]","[-0.11895989552227612,-0.15835414721211727]","[-1,-1,-1]","[-0.06061958190312432,-0.19058842145383784]","[-1,-1,-1]","[-0.030801343351542703,-0.10446214355208291]","[-1,-1,-1]","[-0.09923105328455188,0.08107293866993474]","[-1,-1,-1]","[0.027239262479706997,-0.07082531853469656]","[-1,-1,-1]","[-0.042661181689028715,-0.05424570583708233]","[-1,-1,-1]","[0.11938216900772447,0.07161781947849573]","[-1,-1,-1]","[0.06959763684252503,-0.16976422539883765]","[-1,-1,-1]","[-0.006410634876508798,-0.14468660533573932]","[-1,-1,-1]","[-0.18313955797106107,-0.07204588024786907]","[-1,-1,-1]","[-0.16949569991634866,0.02867096280949954]","[-1,-1,-1]","[0.1305072776576334,-0.0014883368593586433]","[-1,-1,-1]","[-0.15635867480699414,0.08014318770846135]","[-1,-1,-1]","[0.09711190957556991,-0.06378256385509949]","[1,1,1]","[0.059413196692522596,-0.03638164245771245]","[-1,-1,-1]","[0.14402040993291648,0.11326165997793525]","[-1,-1,-1]","[0.02,0.02]",168.833,0,43,43,25,1,,,,,,,
,,,,,,,616891e25a026e1f7262116c,682db3c38a113f423e718947,2025-05-21_12h06.50.864,cuing_paradigm_dot,2024.1.5,Win32,75.75757576,682d556593cb38ad0a074487,,,,,,,,,,,168.8341,169.3265,,,169.5758,170.0091,right,0.4154,,,,,,,,,0.6,,,,,,169.3267,169.5756,170.0092,"[-0.048751216322375605,-0.16650978085795015]","[-1,-1,-1]","[-0.15380394339932885,0.010847742284839909]","[-1,-1,-1]","[-0.1346454414626108,0.14269334954907836]","[1,1,1]","[-0.05335962687747624,-0.09043731651665027]","[-1,-1,-1]","[0.022509078369465817,-0.047069956900200605]","[1,1,1]","[0.051775051737244254,0.12138808120034218]","[-1,-1,-1]","[0.008420307538003765,0.14048506452716503]","[1,1,1]","[0.19044046478155585,0.026772854115157778]","[-1,-1,-1]","[-0.1495653952384663,-0.11486892106929388]","[1,1,1]","[0.022658840924944076,0.035753047048523556]","[1,1,1]","[0.12720491526928845,0.11011057395139937]","[-1,-1,-1]","[0.09073412692332541,-0.032566277895268954]","[-1,-1,-1]","[0.1470968014147531,-0.08576649560144152]","[1,1,1]","[0.08856095059146024,0.09233051433566931]","[1,1,1]","[0.16096940732135387,-0.004655297682677537]","[1,1,1]","[0.08552610681668367,0.04189370442599809]","[1,1,1]","[-0.011291473081797353,0.18760986854874195]","[-1,-1,-1]","[-0.09037268002304659,0.11107744209099421]","[1,1,1]","[0.024063636994163532,-0.19156632918525265]","[1,1,1]","[0.05700207147218063,0.18400739544730527]","[1,1,1]","[-0.15968308837521622,0.054535871707057405]","[-1,-1,-1]","[-0.10372123886173712,-0.14949459068168103]","[1,1,1]","[0.16656682647309726,0.08688384432062653]","[-1,-1,-1]","[0.08559886615539426,-0.1799452824969417]","[-1,-1,-1]","[0.03899330493133781,-0.13309877000066248]","[1,1,1]","[-0.060778990754468826,0.06414488369172436]","[1,1,1]","[0.11606782547965169,-0.12083709472572589]","[1,1,1]","[-0.0735064146044476,-0.020456197845076848]","[1,1,1]","[-0.11599320841392928,-0.07439376443689699]","[-1,-1,-1]","[-0.17550285153699807,-0.08355470797043188]","[1,1,1]","[0.005187480021955565,0.10054229202928462]","[-1,-1,-1]","[0.026109903239183604,-0.090182413037422]","[1,1,1]","[0.02,0.02]",171.1002,0,44,44,179,1,,,,,,,
