right,left,explain.started,explain.stopped,key_resp_3.keys,key_resp_3.rt,key_resp_3.duration,participant,session,date,expName,psychopyVersion,OS,frameRate,study_id,explain_2.started,explain_2.stopped,key_resp_4.keys,key_resp_4.rt,key_resp_4.duration,explain_3.started,explain_3.stopped,key_resp_5.keys,key_resp_5.rt,key_resp_5.duration,fixation.started,fixation.stopped,practice.started,practice.stopped,response.started,response.stopped,key_resp.keys,key_resp.rt,key_resp.duration,feedback.started,feedback.stopped,trials_2.thisRepN,trials_2.thisTrialN,trials_2.thisN,trials_2.thisIndex,trials_2.ran,white_ratio,explain_4.started,explain_4.stopped,key_resp_6.keys,key_resp_6.rt,key_resp_6.duration,dotDisplay.started,dotDisplay.stopped,ITI.started,polygon_1.pos,polygon_1.color,polygon_2.pos,polygon_2.color,polygon_3.pos,polygon_3.color,polygon_4.pos,polygon_4.color,polygon_5.pos,polygon_5.color,polygon_6.pos,polygon_6.color,polygon_7.pos,polygon_7.color,polygon_8.pos,polygon_8.color,polygon_9.pos,polygon_9.color,polygon_10.pos,polygon_10.color,polygon_11.pos,polygon_11.color,polygon_12.pos,polygon_12.color,polygon_13.pos,polygon_13.color,polygon_14.pos,polygon_14.color,polygon_15.pos,polygon_15.color,polygon_16.pos,polygon_16.color,polygon_17.pos,polygon_17.color,polygon_18.pos,polygon_18.color,polygon_19.pos,polygon_19.color,polygon_20.pos,polygon_20.color,polygon_21.pos,polygon_21.color,polygon_22.pos,polygon_22.color,polygon_23.pos,polygon_23.color,polygon_24.pos,polygon_24.color,polygon_25.pos,polygon_25.color,polygon_26.pos,polygon_26.color,polygon_27.pos,polygon_27.color,polygon_28.pos,polygon_28.color,polygon_29.pos,polygon_29.color,polygon_30.pos,polygon_30.color,polygon_31.pos,polygon_31.color,polygon_32.pos,polygon_32.color,dot_size,ITI.stopped,trials.thisRepN,trials.thisTrialN,trials.thisN,trials.thisIndex,trials.ran,break_2.started,break_2.stopped,trials_3.thisRepN,trials_3.thisTrialN,trials_3.thisN,trials_3.thisIndex,trials_3.ran
subject chose black,subject chose white,0.0005,169.1282,space,154.1032,,616ff0dbee6ec2aa5875e5cf,682f0fda633c76280214f3ca,2025-05-22_13h52.52.793,cuing_paradigm_dot,2024.1.5,Linux x86_64,59.88023952,682d573fa47f1360d1451895,,,,,,,,,,,,,,,,,,,,,,,,,,,,,,,,,,,,,,,,,,,,,,,,,,,,,,,,,,,,,,,,,,,,,,,,,,,,,,,,,,,,,,,,,,,,,,,,,,,,,,,,,,,,,,,,,
,,,,,,,616ff0dbee6ec2aa5875e5cf,682f0fda633c76280214f3ca,2025-05-22_13h52.52.793,cuing_paradigm_dot,2024.1.5,Linux x86_64,59.88023952,682d573fa47f1360d1451895,169.1291,225.3452,space,26.2076,,,,,,,,,,,,,,,,,,,,,,,,,,,,,,,,,,,,,,,,,,,,,,,,,,,,,,,,,,,,,,,,,,,,,,,,,,,,,,,,,,,,,,,,,,,,,,,,,,,,,,,,,,,,,
,,,,,,,616ff0dbee6ec2aa5875e5cf,682f0fda633c76280214f3ca,2025-05-22_13h52.52.793,cuing_paradigm_dot,2024.1.5,Linux x86_64,59.88023952,682d573fa47f1360d1451895,,,,,,225.3459,230.2718,space,1.9121,,,,,,,,,,,,,,,,,,,,,,,,,,,,,,,,,,,,,,,,,,,,,,,,,,,,,,,,,,,,,,,,,,,,,,,,,,,,,,,,,,,,,,,,,,,,,,,,,,,,,,,,
,,,,,,,616ff0dbee6ec2aa5875e5cf,682f0fda633c76280214f3ca,2025-05-22_13h52.52.793,cuing_paradigm_dot,2024.1.5,Linux x86_64,59.88023952,682d573fa47f1360d1451895,,,,,,,,,,,230.3319,230.7874,230.7886,231.0391,231.0396,231.943,left,0.8346,,231.9432,233.0358,0,0,0,0,1,0.8,,,,,,,,,,,,,,,,,,,,,,,,,,,,,,,,,,,,,,,,,,,,,,,,,,,,,,,,,,,,,,,,,,,,,,,,,,,,,,,,,,,,,,
,,,,,,,616ff0dbee6ec2aa5875e5cf,682f0fda633c76280214f3ca,2025-05-22_13h52.52.793,cuing_paradigm_dot,2024.1.5,Linux x86_64,59.88023952,682d573fa47f1360d1451895,,,,,,,,,,,233.0371,233.536,233.5362,233.7848,233.785,234.1994,right,0.4006,,234.1996,235.2979,0,1,1,1,1,0.2,,,,,,,,,,,,,,,,,,,,,,,,,,,,,,,,,,,,,,,,,,,,,,,,,,,,,,,,,,,,,,,,,,,,,,,,,,,,,,,,,,,,,,
,,,,,,,616ff0dbee6ec2aa5875e5cf,682f0fda633c76280214f3ca,2025-05-22_13h52.52.793,cuing_paradigm_dot,2024.1.5,Linux x86_64,59.88023952,682d573fa47f1360d1451895,,,,,,,,,,,,,,,,,,,,,,,,,,,,235.2988,247.862,space,9.5416,,,,,,,,,,,,,,,,,,,,,,,,,,,,,,,,,,,,,,,,,,,,,,,,,,,,,,,,,,,,,,,,,,,,,,,,,,,,,,,,,,
,,,,,,,616ff0dbee6ec2aa5875e5cf,682f0fda633c76280214f3ca,2025-05-22_13h52.52.793,cuing_paradigm_dot,2024.1.5,Linux x86_64,59.88023952,682d573fa47f1360d1451895,,,,,,,,,,,247.916,248.3762,,,248.6266,248.8591,right,0.2179,,,,,,,,,0.4,,,,,,248.3775,248.6265,248.8606,"[-0.11661665683912319,0.0001896171480469298]","[-1,-1,-1]","[-0.1923152749210601,-0.0031504531849790938]","[1,1,1]","[0.0751100302383419,-0.005829387460138026]","[-1,-1,-1]","[0.09410424434926759,-0.1448278179001471]","[-1,-1,-1]","[-0.12250687576017315,0.056871167839810347]","[1,1,1]","[-0.1153966255050168,-0.14417755912623426]","[1,1,1]","[-0.023990208098021992,0.18916267904193182]","[-1,-1,-1]","[0.15988450294131482,0.07059221003451008]","[-1,-1,-1]","[0.06425040584981997,0.13912547338294087]","[1,1,1]","[-0.03767318400090627,0.07963854611778759]","[1,1,1]","[-0.061858199855699084,0.034233879198669555]","[-1,-1,-1]","[0.17366528873710435,-0.03861370057500611]","[-1,-1,-1]","[-0.004689241849204097,0.13382832673910752]","[-1,-1,-1]","[0.043028905720087766,0.18138965645018576]","[1,1,1]","[-0.12338972849897244,-0.09229565548153591]","[-1,-1,-1]","[0.025150826165941012,0.019656207266867617]","[-1,-1,-1]","[0.10776411258483104,0.0953945164266572]","[-1,-1,-1]","[0.18488159493438278,0.037886435144131515]","[1,1,1]","[-0.01805446285912882,0.04365711536851726]","[1,1,1]","[-0.06571340337252177,-0.009420787162725841]","[-1,-1,-1]","[0.1075735043424652,-0.05650952745320109]","[1,1,1]","[0.006736697897321987,-0.17458614316875096]","[-1,-1,-1]","[-0.054218773533648026,0.12093161794772714]","[1,1,1]","[-0.1652411738197351,0.09188172968736744]","[-1,-1,-1]","[0.11099644677339236,0.038787325040862165]","[-1,-1,-1]","[-0.1402869333104153,-0.04985224161168123]","[1,1,1]","[-0.17948535185009495,0.03711762652318349]","[1,1,1]","[-0.017508636798092517,-0.1374962291886347]","[1,1,1]","[0.000690726038636799,-0.015796737097195063]","[-1,-1,-1]","[0.013465168018663777,0.0838945147205808]","[-1,-1,-1]","[-0.009191783026510428,-0.07972874925671442]","[-1,-1,-1]","[0.04756936484947752,-0.088296397826956]","[-1,-1,-1]","[0.02,0.02]",249.9572,0,0,0,33,1,,,,,,,
,,,,,,,616ff0dbee6ec2aa5875e5cf,682f0fda633c76280214f3ca,2025-05-22_13h52.52.793,cuing_paradigm_dot,2024.1.5,Linux x86_64,59.88023952,682d573fa47f1360d1451895,,,,,,,,,,,249.958,250.4561,,,250.7068,251.0045,left,0.2856,,,,,,,,,0.45,,,,,,250.4562,250.7068,251.0046,"[-0.01634243943838493,0.06633788665313131]","[-1,-1,-1]","[-0.060466144899873814,-0.1503958053710025]","[1,1,1]","[0.05966671800135029,0.028459326451763817]","[1,1,1]","[0.10427845615048231,0.13417132459516498]","[-1,-1,-1]","[-0.10210009798635572,-0.039958901469322704]","[1,1,1]","[0.189929561318365,-0.011696912688978302]","[1,1,1]","[0.10341688991766573,0.08061321592550057]","[-1,-1,-1]","[0.04319409660961012,0.10302698031173192]","[-1,-1,-1]","[-0.042796360372237725,0.11126762749445662]","[1,1,1]","[-0.00696053722691337,0.18018462379093383]","[-1,-1,-1]","[-0.09908684048861134,0.07046787371617134]","[-1,-1,-1]","[0.10022714123715044,0.006167095603888746]","[-1,-1,-1]","[-0.016881395530007916,-0.019946007179166076]","[1,1,1]","[0.15275070609897115,0.06711346589118163]","[-1,-1,-1]","[0.045166467908539315,-0.02162084133968764]","[-1,-1,-1]","[-0.12223808952274662,-0.12728303506694832]","[-1,-1,-1]","[0.07747826744487583,-0.15954421352294004]","[-1,-1,-1]","[0.026276524831244066,-0.09102668051256534]","[1,1,1]","[-0.0713665766856213,0.14443774246897909]","[1,1,1]","[0.1311778152299526,-0.03997299159098841]","[1,1,1]","[-0.022843960018199955,-0.16714174501011977]","[-1,-1,-1]","[0.05877544047964323,0.15428939920728676]","[-1,-1,-1]","[-0.14090211756584947,-0.06475934382743934]","[1,1,1]","[0.022148814716875312,-0.15871233757153796]","[1,1,1]","[-0.1520863919644063,0.1267953077226227]","[1,1,1]","[-0.09306543012140167,-0.09532807912086744]","[1,1,1]","[0.1314039663514108,-0.10199251531779496]","[-1,-1,-1]","[0.14604135128572657,0.12293280643288836]","[-1,-1,-1]","[0.08764243404626972,-0.07953740560354912]","[-1,-1,-1]","[0.1713694245941062,-0.04928109412517695]","[1,1,1]","[-0.17569545683577803,-0.03519217136326192]","[-1,-1,-1]","[-0.19876531817851312,0.016395879996331925]","[-1,-1,-1]","[0.02,0.02]",252.1041,0,1,1,79,1,,,,,,,
,,,,,,,616ff0dbee6ec2aa5875e5cf,682f0fda633c76280214f3ca,2025-05-22_13h52.52.793,cuing_paradigm_dot,2024.1.5,Linux x86_64,59.88023952,682d573fa47f1360d1451895,,,,,,,,,,,252.1051,252.6025,,,252.8539,253.1525,right,0.2832,,,,,,,,,0.45,,,,,,252.6026,252.8538,253.1526,"[0.053247496193527345,0.18842443526750238]","[-1,-1,-1]","[-0.03665936886457896,0.025885316649292323]","[1,1,1]","[0.025918632804060524,0.11617822321187299]","[1,1,1]","[0.12611979866415607,0.07333136577616642]","[-1,-1,-1]","[-0.09778040821746768,0.022967923010837665]","[1,1,1]","[-0.049382112909736806,0.1428927461490429]","[-1,-1,-1]","[0.027765105330138335,0.06783943186037877]","[1,1,1]","[0.15623949064589082,-0.11639265989769192]","[-1,-1,-1]","[0.19912242281490433,0.010266345632795012]","[-1,-1,-1]","[0.14755218062216255,-0.07371534100103588]","[-1,-1,-1]","[0.000399847537419463,-0.14113826260730977]","[-1,-1,-1]","[-0.08239960777426951,-0.17660854572457782]","[1,1,1]","[-0.05952271437660169,-0.1274794889551582]","[-1,-1,-1]","[0.06533751906534166,-0.020927263698439922]","[-1,-1,-1]","[-0.051238756936912086,0.19104136864999552]","[1,1,1]","[-0.18803722988229166,0.011565634543912809]","[1,1,1]","[0.09713057028946316,-0.1299994791241394]","[-1,-1,-1]","[0.09116233112846461,0.04299478410964059]","[1,1,1]","[-0.03089368691860504,-0.07054563801233671]","[1,1,1]","[0.011381845810581343,-0.028631415052033683]","[-1,-1,-1]","[-0.10373023602066331,0.06822870870764]","[-1,-1,-1]","[-0.16730220037931026,-0.10605327083172421]","[1,1,1]","[-0.13955842641333252,-0.1400656547706707]","[1,1,1]","[0.13720665682074235,0.14409007112148287]","[-1,-1,-1]","[-0.08410451816594186,-0.06739338810460913]","[1,1,1]","[0.08368550880176565,0.09677881528676921]","[1,1,1]","[-0.14421575095241715,0.04128666461904887]","[-1,-1,-1]","[0.05870802790377665,-0.06185961814618512]","[-1,-1,-1]","[-0.14741739474490215,-0.0502028166961136]","[1,1,1]","[0.14984358201698902,-0.03239507787186183]","[-1,-1,-1]","[-0.10840949952041046,-0.10437760315152632]","[-1,-1,-1]","[0.14385077496819454,0.011187582816971145]","[-1,-1,-1]","[0.02,0.02]",254.2499,0,2,2,86,1,,,,,,,
,,,,,,,616ff0dbee6ec2aa5875e5cf,682f0fda633c76280214f3ca,2025-05-22_13h52.52.793,cuing_paradigm_dot,2024.1.5,Linux x86_64,59.88023952,682d573fa47f1360d1451895,,,,,,,,,,,254.251,254.7502,,,255.0002,255.4488,right,0.4339,,,,,,,,,0.4,,,,,,254.7502,255.0001,255.4489,"[0.10526647986175866,0.05328035812925722]","[1,1,1]","[0.07954573261335524,0.12491455786531137]","[1,1,1]","[0.07458409100376057,-0.1776163619082249]","[-1,-1,-1]","[0.16626991116634238,-0.04395538634337309]","[-1,-1,-1]","[-0.10004334160728755,-0.10996096997678734]","[-1,-1,-1]","[-0.15054342249723995,-0.1312234526480219]","[1,1,1]","[-0.04597691636820039,0.056714456677891774]","[-1,-1,-1]","[-0.163057593703579,-0.0458048124499071]","[-1,-1,-1]","[-0.10358517169927794,-0.06860258784445535]","[-1,-1,-1]","[0.1136035782344616,-0.15033064517736877]","[-1,-1,-1]","[-0.10497183819562504,-0.01387191471480436]","[-1,-1,-1]","[-0.1557753810221949,0.11776033785185923]","[1,1,1]","[-0.04452893517799339,-0.022725719257512017]","[-1,-1,-1]","[0.15646710387157528,0.003070351793110039]","[1,1,1]","[-0.18551426520584433,0.0264070256728141]","[-1,-1,-1]","[0.030455073734297285,-0.13484264508612867]","[-1,-1,-1]","[-0.15560970565587748,0.07517221576757534]","[-1,-1,-1]","[0.029158087426922084,0.1499518706919463]","[1,1,1]","[0.021834309339574132,-0.1860604951108345]","[-1,-1,-1]","[-0.1094877524188578,0.1557950160247127]","[1,1,1]","[0.026624534494129284,-0.05308427737496839]","[-1,-1,-1]","[-0.04170099205598714,0.10336251452298997]","[1,1,1]","[0.16835459164666972,0.05822391277037773]","[-1,-1,-1]","[0.01875813423615577,0.07746737506612002]","[-1,-1,-1]","[-0.030164184359775335,-0.1181166373805419]","[1,1,1]","[-0.0612453169660228,-0.16706559356093306]","[-1,-1,-1]","[0.04021259570876408,-0.006034766326000423]","[-1,-1,-1]","[0.04094824845385054,0.19397263031483314]","[1,1,1]","[-0.06886862139650933,0.15431540889878848]","[1,1,1]","[0.09827853462926758,0.005555541770744446]","[1,1,1]","[-0.012427014065764198,0.019594241244745146]","[1,1,1]","[0.06026541231278096,-0.08799461601575029]","[-1,-1,-1]","[0.02,0.02]",256.5477,0,3,3,59,1,,,,,,,
,,,,,,,616ff0dbee6ec2aa5875e5cf,682f0fda633c76280214f3ca,2025-05-22_13h52.52.793,cuing_paradigm_dot,2024.1.5,Linux x86_64,59.88023952,682d573fa47f1360d1451895,,,,,,,,,,,256.5484,257.0362,,,257.2755,257.6797,right,0.3867,,,,,,,,,0.4,,,,,,257.0364,257.2755,257.6798,"[-0.0015267754382076446,0.07902280421985887]","[-1,-1,-1]","[0.02861982601422346,0.04603955752978331]","[-1,-1,-1]","[-0.05586028942266882,0.08386108028476694]","[-1,-1,-1]","[0.15406045275529812,-0.018363961134223453]","[-1,-1,-1]","[0.03392220116742274,-0.16275726259233686]","[-1,-1,-1]","[-0.07183081059946782,0.16391073605603296]","[1,1,1]","[-0.012949401256454858,-0.1791333194040139]","[1,1,1]","[0.07993620246148776,0.10192388901027487]","[1,1,1]","[0.0781551148533268,0.16514551982707326]","[-1,-1,-1]","[0.04458094193808793,0.13629985757198498]","[1,1,1]","[0.10763559025808753,-0.14636970592941956]","[-1,-1,-1]","[0.0693235489641396,-0.09368054061014772]","[1,1,1]","[-0.16915168473334055,0.03896629256810797]","[-1,-1,-1]","[-0.03598584383593868,-0.03256762968289207]","[-1,-1,-1]","[-0.16388040200448012,-0.05251736235627222]","[-1,-1,-1]","[-0.1209771862452903,0.11000464863302971]","[-1,-1,-1]","[-0.13073918807321486,-0.12859201153951774]","[-1,-1,-1]","[-0.1518522719724326,0.08029479372818399]","[1,1,1]","[0.15774935670333493,-0.0940354778714549]","[1,1,1]","[0.12738943166536898,0.01757242054950936]","[-1,-1,-1]","[-0.1420118700319504,-0.006509225011899153]","[-1,-1,-1]","[-0.027108064569417577,0.04449367340761299]","[-1,-1,-1]","[-0.01568297245025694,-0.10248249100546249]","[1,1,1]","[0.013531851540642964,-0.018606050751600423]","[-1,-1,-1]","[0.09557344209237623,-0.02936057197739135]","[-1,-1,-1]","[0.05994290166220036,0.00965426441958988]","[1,1,1]","[0.11273837101158221,-0.09105946335956178]","[1,1,1]","[-0.09857222685480109,-0.030951468977750248]","[1,1,1]","[-0.05336054400147792,-0.17203860734831397]","[1,1,1]","[0.16254255513165444,0.042259660680903526]","[1,1,1]","[-0.005204694991325061,0.15190964392289888]","[-1,-1,-1]","[0.1564938972362544,0.09971836485294544]","[-1,-1,-1]","[0.02,0.02]",258.778,0,4,4,53,1,,,,,,,
,,,,,,,616ff0dbee6ec2aa5875e5cf,682f0fda633c76280214f3ca,2025-05-22_13h52.52.793,cuing_paradigm_dot,2024.1.5,Linux x86_64,59.88023952,682d573fa47f1360d1451895,,,,,,,,,,,258.7783,259.2777,,,259.5247,260.1084,right,0.57,,,,,,,,,0.5,,,,,,259.2777,259.5245,260.1086,"[0.14425012982611202,-0.022670015744215923]","[1,1,1]","[0.030965526784093415,0.04748474637408532]","[-1,-1,-1]","[0.16826823618861567,-0.10115626904510834]","[1,1,1]","[0.09953302923507207,-0.14762589524483724]","[-1,-1,-1]","[0.05904502924571211,0.17799748463892312]","[-1,-1,-1]","[0.04301430105832136,-0.021238100440996333]","[-1,-1,-1]","[0.16716856059552085,0.05010451605571223]","[1,1,1]","[0.10415136616905467,0.1653679219913566]","[1,1,1]","[-0.05727603832693751,-0.16609813892412584]","[1,1,1]","[-0.15511043448333398,0.012202568266037701]","[1,1,1]","[0.13347752914586145,0.11788991003047809]","[1,1,1]","[-0.12932464525595377,-0.1504374008052116]","[1,1,1]","[-0.16184680550883498,0.11385016119922736]","[-1,-1,-1]","[0.08871234479429688,-0.09770804657480227]","[1,1,1]","[-0.011119088179338057,-0.17882532568585663]","[-1,-1,-1]","[0.07482754846889954,0.02007150227741444]","[-1,-1,-1]","[0.0556433915012898,-0.12515490160123888]","[1,1,1]","[-0.020983230022531336,-0.0760642321323546]","[-1,-1,-1]","[-0.1051452972891358,0.054809048184388184]","[1,1,1]","[0.0058965184011822635,0.15965165768244408]","[-1,-1,-1]","[-0.10997088546396401,-0.00506393734719686]","[-1,-1,-1]","[-0.047808654118309736,0.17017373654856155]","[1,1,1]","[-0.022578817433069897,0.036788360888135814]","[-1,-1,-1]","[-0.18448361275026628,-0.026007176485595564]","[1,1,1]","[0.008765131532347783,0.007925349595818991]","[-1,-1,-1]","[-0.07489116785347182,-0.11735155871969925]","[-1,-1,-1]","[0.07530108612165516,0.08226863231452794]","[1,1,1]","[-0.03990088008475406,0.12993329289579736]","[-1,-1,-1]","[0.10673369157589467,-0.0464130191706388]","[1,1,1]","[-0.0869553632261449,-0.07655194179143539]","[1,1,1]","[0.07761643573749422,0.12332999583353416]","[-1,-1,-1]","[0.18449211548891056,-0.06290313550023253]","[-1,-1,-1]","[0.02,0.02]",261.2069,0,5,5,107,1,,,,,,,
,,,,,,,616ff0dbee6ec2aa5875e5cf,682f0fda633c76280214f3ca,2025-05-22_13h52.52.793,cuing_paradigm_dot,2024.1.5,Linux x86_64,59.88023952,682d573fa47f1360d1451895,,,,,,,,,,,261.2077,261.7057,,,261.9635,262.8213,left,0.8441,,,,,,,,,0.5,,,,,,261.7058,261.9634,262.8214,"[0.022207753676455104,-0.05101314682387013]","[1,1,1]","[-0.011305122108570338,-0.0913129057323416]","[-1,-1,-1]","[0.05986620873149304,0.08035006739881967]","[-1,-1,-1]","[0.028777249869497635,0.11617143274273004]","[-1,-1,-1]","[0.07108139157475152,0.17653003216201424]","[1,1,1]","[-0.12621085795822942,0.030694559191969343]","[1,1,1]","[-0.026799508781775595,0.15250333118149967]","[-1,-1,-1]","[-0.01160313632595615,0.07912740174657754]","[-1,-1,-1]","[0.17312843529546038,0.09108193973345861]","[-1,-1,-1]","[-0.17124542589610853,-0.0531839733796953]","[1,1,1]","[-0.1107297149436527,0.13003450013001722]","[1,1,1]","[-0.07755447387739509,0.09569446173555264]","[1,1,1]","[-0.12069178177502196,-0.03957347723083466]","[1,1,1]","[0.020929512912064022,0.04678673599918495]","[-1,-1,-1]","[0.11142322391704554,-0.0633032496240745]","[-1,-1,-1]","[-0.061943987418727434,-0.11511773068754576]","[-1,-1,-1]","[-0.05304544976112003,-0.06641034779529853]","[-1,-1,-1]","[0.1428638465157842,0.0542675630127108]","[1,1,1]","[0.004621345577718447,0.1856378665295615]","[-1,-1,-1]","[0.09145234867440344,0.12137922808716049]","[1,1,1]","[0.17751105572711706,0.004512768329114607]","[1,1,1]","[0.08192630332434538,0.014424351415469088]","[1,1,1]","[0.13097777759636656,-0.1402437506278303]","[-1,-1,-1]","[0.035454834455117976,-0.011197919575030944]","[-1,-1,-1]","[0.17461299638335748,-0.08285497736034915]","[1,1,1]","[0.07166610996159378,-0.15342775545008888]","[-1,-1,-1]","[-0.08003645392352345,0.18224710080977544]","[-1,-1,-1]","[0.08464818841352309,-0.10881759724669109]","[-1,-1,-1]","[-0.07949589766355078,-0.030191595136505933]","[1,1,1]","[-0.08074582516617464,-0.17238625672619426]","[1,1,1]","[-0.17291693377800824,0.07891969039443623]","[1,1,1]","[0.03614794656597697,-0.18461243181108428]","[1,1,1]","[0.02,0.02]",263.9186,0,6,6,95,1,,,,,,,
,,,,,,,616ff0dbee6ec2aa5875e5cf,682f0fda633c76280214f3ca,2025-05-22_13h52.52.793,cuing_paradigm_dot,2024.1.5,Linux x86_64,59.88023952,682d573fa47f1360d1451895,,,,,,,,,,,263.9198,264.421,,,264.671,265.1517,right,0.4699,,,,,,,,,0.5,,,,,,264.4211,264.671,265.1518,"[0.15215802605277812,0.024615432755491325]","[1,1,1]","[-0.07244488107242651,-0.02033920497576553]","[-1,-1,-1]","[0.011825377690025564,0.012627154213770244]","[-1,-1,-1]","[-0.11094922766758634,-0.09276312962600337]","[-1,-1,-1]","[0.11495478460919636,-0.05472051379958301]","[-1,-1,-1]","[0.13444048534836486,-0.09856981173703153]","[1,1,1]","[0.02039944166493307,-0.03600179896075932]","[1,1,1]","[0.08415587782798764,0.02667432440983943]","[-1,-1,-1]","[-0.04152332730843511,-0.13302796897449506]","[-1,-1,-1]","[0.002594262304525425,-0.09945584339666562]","[-1,-1,-1]","[-0.027965227189499158,-0.031249035664035155]","[-1,-1,-1]","[0.1827169657900061,-0.006767888904799184]","[1,1,1]","[-0.03600646203100191,0.1460828358936297]","[-1,-1,-1]","[0.05375306247312296,0.15861227924454022]","[1,1,1]","[-0.1067726779041237,-0.15740071936105154]","[1,1,1]","[0.040914527944531674,-0.17497083702197633]","[-1,-1,-1]","[0.10938512963288252,0.06211845917776601]","[1,1,1]","[0.08244486991727086,-0.1728628681897108]","[1,1,1]","[-0.09871970946927965,0.03903310703938996]","[-1,-1,-1]","[0.06814466709415924,-0.1153621957609874]","[-1,-1,-1]","[0.07491651612198102,-0.04197402899299756]","[1,1,1]","[-0.1737386790155871,-0.07525190152041225]","[-1,-1,-1]","[-0.16232538451664114,0.07663637167249093]","[1,1,1]","[0.009417154422589304,0.13706876090138426]","[1,1,1]","[-0.08100115199813032,0.12424858636681]","[1,1,1]","[-0.044610698353456164,-0.08286385164464531]","[-1,-1,-1]","[-0.03659429209839616,0.024230791626110342]","[1,1,1]","[-0.13890547071813056,0.04062761719679694]","[1,1,1]","[-0.07063425283597008,-0.18359710148272806]","[1,1,1]","[0.05471951100757233,0.06796202107045334]","[-1,-1,-1]","[0.10872901532704699,-0.14067108127922498]","[1,1,1]","[-0.1302845506970561,-0.014645708738143744]","[-1,-1,-1]","[0.02,0.02]",266.2494,0,7,7,93,1,,,,,,,
,,,,,,,616ff0dbee6ec2aa5875e5cf,682f0fda633c76280214f3ca,2025-05-22_13h52.52.793,cuing_paradigm_dot,2024.1.5,Linux x86_64,59.88023952,682d573fa47f1360d1451895,,,,,,,,,,,266.2502,266.7489,,,267.0005,267.5482,left,0.532,,,,,,,,,0.6,,,,,,266.749,267.0004,267.5483,"[0.17467982428510906,0.06901838351350174]","[1,1,1]","[-0.19453801703639959,-0.012814377197999377]","[1,1,1]","[0.013700154342468514,0.056252799925589375]","[-1,-1,-1]","[-0.040566553889507834,0.09997471440390479]","[1,1,1]","[-0.10348874862892209,0.08600098306334836]","[-1,-1,-1]","[0.07154106299629799,-0.059790385860705474]","[-1,-1,-1]","[0.14066149446861906,-0.04731465454157759]","[-1,-1,-1]","[-0.04340433738761433,0.15170287499720958]","[1,1,1]","[-0.041613187333271504,0.011671863657164933]","[1,1,1]","[0.050367155332427554,0.12814856941823957]","[1,1,1]","[0.09941726343556014,-0.12174859781029534]","[1,1,1]","[-0.15054032913920856,-0.12912359137027046]","[-1,-1,-1]","[-0.10838366920759268,-0.1383132811775756]","[-1,-1,-1]","[0.13466958256334183,0.06414870175981091]","[1,1,1]","[0.07703335683249442,0.02713910611669656]","[-1,-1,-1]","[-0.1454414102578508,0.052225171322291215]","[1,1,1]","[-0.1432826429621779,-0.0834740149288758]","[-1,-1,-1]","[0.12140318418795794,0.12974406602835645]","[1,1,1]","[-0.08477046978762623,0.001431972574583265]","[-1,-1,-1]","[0.01229464540227108,-0.15460812647934893]","[1,1,1]","[-0.056545693380179486,-0.08986071764317144]","[1,1,1]","[0.17261122306811522,-0.09543340308561123]","[1,1,1]","[0.1503646135829667,-0.0037235175940972384]","[1,1,1]","[0.02450140956456822,-0.10618677994740476]","[1,1,1]","[0.19180389638674342,0.012306733962214265]","[1,1,1]","[0.023512060879656568,-0.03583223351022014]","[-1,-1,-1]","[0.0692526719866761,-0.16454616135719122]","[-1,-1,-1]","[0.011181587691401438,0.16264886429343672]","[-1,-1,-1]","[-0.12066567433495154,0.019958343078700168]","[1,1,1]","[-0.16563777192096768,0.10168799743902666]","[1,1,1]","[0.19126931550304693,-0.03429445049997684]","[-1,-1,-1]","[0.08183584780983735,0.07679335411283152]","[1,1,1]","[0.02,0.02]",268.6459,0,8,8,179,1,,,,,,,
,,,,,,,616ff0dbee6ec2aa5875e5cf,682f0fda633c76280214f3ca,2025-05-22_13h52.52.793,cuing_paradigm_dot,2024.1.5,Linux x86_64,59.88023952,682d573fa47f1360d1451895,,,,,,,,,,,268.6467,269.1469,,,269.3967,270.0279,right,0.6136,,,,,,,,,0.5,,,,,,269.1469,269.3966,270.028,"[-0.026591737960912343,-0.047671416904246554]","[-1,-1,-1]","[0.03947876033769473,0.0054549342295446565]","[1,1,1]","[0.11092572495365761,-0.12592872083725937]","[1,1,1]","[-0.13683807693141883,-0.0791143933638239]","[1,1,1]","[0.06146096252878002,-0.14596177939449884]","[-1,-1,-1]","[0.15535782623436492,-0.015507907318448842]","[1,1,1]","[0.1589073415053045,0.04919711217050423]","[1,1,1]","[0.1249110686926757,0.09695104301810929]","[-1,-1,-1]","[-0.11715128238921403,0.03250382221006452]","[-1,-1,-1]","[0.08871707479766684,-0.016452054589117387]","[-1,-1,-1]","[0.005848278794433008,0.16521195970834723]","[1,1,1]","[-0.014254035760144916,0.09501517278317428]","[-1,-1,-1]","[-0.021676542382068887,0.021999232822511143]","[-1,-1,-1]","[-0.05163428524925775,0.1826882900525358]","[1,1,1]","[-0.17146837179486338,0.06809016617018034]","[1,1,1]","[0.07244223948898909,0.10001948496289552]","[-1,-1,-1]","[-0.10528167542771619,-0.12200256948765938]","[-1,-1,-1]","[-0.06945739981603977,-0.0019731140776279195]","[1,1,1]","[0.1109581116495325,-0.0661103391629925]","[1,1,1]","[0.039359427002817485,-0.10771882998469978]","[-1,-1,-1]","[0.020650477151852656,0.12774429571690246]","[-1,-1,-1]","[0.10198916106468162,0.14388645054387195]","[1,1,1]","[-0.17963224002746225,0.01530078983362427]","[1,1,1]","[-0.06560947975907912,-0.0798028954934425]","[-1,-1,-1]","[0.016241215475090026,-0.19250539591539848]","[-1,-1,-1]","[-0.09054608108258934,0.10221582381158066]","[1,1,1]","[0.03048463479159031,-0.06847996125553564]","[1,1,1]","[0.12090774330041401,0.02077215859027561]","[1,1,1]","[-0.05339765342962913,-0.1581918920151691]","[-1,-1,-1]","[0.06867622454579063,0.03458593173182792]","[1,1,1]","[0.16756262883422035,-0.10899302636668266]","[-1,-1,-1]","[0.09678658504860027,-0.17230763584290476]","[-1,-1,-1]","[0.02,0.02]",271.1257,0,9,9,112,1,,,,,,,
,,,,,,,616ff0dbee6ec2aa5875e5cf,682f0fda633c76280214f3ca,2025-05-22_13h52.52.793,cuing_paradigm_dot,2024.1.5,Linux x86_64,59.88023952,682d573fa47f1360d1451895,,,,,,,,,,,271.1261,271.6247,,,271.8761,272.591,left,0.6987,,,,,,,,,0.5,,,,,,271.6249,271.876,272.5911,"[-0.09945872418864284,0.13055033917855555]","[-1,-1,-1]","[-0.1648109955152768,-0.10590320424517935]","[1,1,1]","[0.042642601790208574,-0.06461544258516691]","[1,1,1]","[-0.1472007240211272,0.06753641899741948]","[1,1,1]","[-0.09293409662227588,-0.04589120200407507]","[1,1,1]","[0.18326799002065391,0.0012400178892739548]","[1,1,1]","[0.08561622936525581,-0.11696572858290956]","[1,1,1]","[0.143864509035786,-0.06982405243348917]","[-1,-1,-1]","[-0.09359930145812106,-0.17640044800556537]","[1,1,1]","[-0.15955265482623285,-0.019571029262899338]","[1,1,1]","[0.04653644617716705,-0.19224660246769734]","[-1,-1,-1]","[0.009537425650576994,-0.16438474563903976]","[-1,-1,-1]","[0.09827265966626374,0.06909096446946902]","[1,1,1]","[0.013505149433952424,0.17526676753978038]","[-1,-1,-1]","[0.028377928621322792,0.060311864004333325]","[-1,-1,-1]","[-0.09629388859746547,0.05642717056583771]","[1,1,1]","[-0.00029478426818999596,-0.02718458987133447]","[1,1,1]","[0.006418934545153849,-0.11689918323381734]","[-1,-1,-1]","[-0.18863408022836126,0.035003579892379545]","[-1,-1,-1]","[0.15067933644834305,0.1052002458951096]","[1,1,1]","[-0.05479137297496349,0.1826984969135916]","[-1,-1,-1]","[-0.0397375881841589,-0.15179619296978802]","[-1,-1,-1]","[0.1264797294542519,0.14468931315390918]","[-1,-1,-1]","[-0.07066549513994616,-0.12264587091713705]","[1,1,1]","[-0.11665768063604876,-0.009507026158903252]","[-1,-1,-1]","[0.06622748342716779,0.13629915750627533]","[-1,-1,-1]","[-0.05172706025822322,0.09401100346230552]","[1,1,1]","[0.0132571031873226,0.13020097448585005]","[1,1,1]","[0.18346705316410847,0.05366642538397394]","[1,1,1]","[0.08891526559290086,-0.018326140681690854]","[-1,-1,-1]","[0.09701283110432143,0.17251303200530674]","[-1,-1,-1]","[0.05159703695650027,0.00980037130026599]","[-1,-1,-1]","[0.02,0.02]",273.6879,0,10,10,117,1,,,,,,,
,,,,,,,616ff0dbee6ec2aa5875e5cf,682f0fda633c76280214f3ca,2025-05-22_13h52.52.793,cuing_paradigm_dot,2024.1.5,Linux x86_64,59.88023952,682d573fa47f1360d1451895,,,,,,,,,,,273.6887,274.1881,,,274.4397,275.1861,left,0.7313,,,,,,,,,0.9,,,,,,274.1882,274.4393,275.1862,"[-0.049540797683786726,0.1607680757138573]","[-1,-1,-1]","[0.10009393668310464,0.1697272109815561]","[1,1,1]","[0.13598622274433475,0.07724710666890952]","[1,1,1]","[0.12191530691928888,-0.11054860878972435]","[1,1,1]","[0.06682939481457136,0.0714909493884075]","[1,1,1]","[-0.03381889306906342,0.0074986259750712565]","[-1,-1,-1]","[0.07012202028204666,0.007143039660144476]","[1,1,1]","[-0.11433551753618117,0.04231712086334512]","[1,1,1]","[-0.0036441417640950273,0.07447062530985822]","[1,1,1]","[0.11211056131305898,-0.03743295699250881]","[1,1,1]","[-0.10400163759080656,-0.0032498386156863818]","[1,1,1]","[-0.04432492936503811,-0.17316734254900426]","[1,1,1]","[0.043326464003677734,0.1882563263978706]","[1,1,1]","[-0.09014000610066729,-0.0995784425498494]","[1,1,1]","[-0.13288510095293107,-0.08140724531433399]","[1,1,1]","[0.18458179183488935,-0.04157130402632384]","[1,1,1]","[0.07855133701136525,-0.14991857088494195]","[1,1,1]","[-0.14455644005542462,0.10082293966830823]","[1,1,1]","[0.05538748000025452,-0.07525866630918275]","[1,1,1]","[0.01174373745061378,-0.08764894326073218]","[-1,-1,-1]","[-0.18070355408995908,-0.05771917734571145]","[1,1,1]","[-0.09683567051320364,0.10806921017695247]","[1,1,1]","[0.1759015496668778,0.0697312726093667]","[1,1,1]","[0.15730234261039117,0.006984135180201846]","[1,1,1]","[-0.10254007177691717,0.1680316139287869]","[1,1,1]","[-0.052217516662995324,-0.0645150238315066]","[1,1,1]","[0.0379364603433712,-0.11956902294867569]","[1,1,1]","[-0.15814312693683488,0.04416264911767539]","[1,1,1]","[-0.15298906507041168,-0.017813202508641664]","[1,1,1]","[0.1641240680924893,-0.10475685921093622]","[1,1,1]","[0.0047171872764958656,0.17156542706160188]","[1,1,1]","[0.10351299333640455,0.10290393367546267]","[1,1,1]","[0.02,0.02]",276.2856,0,11,11,183,1,,,,,,,
,,,,,,,616ff0dbee6ec2aa5875e5cf,682f0fda633c76280214f3ca,2025-05-22_13h52.52.793,cuing_paradigm_dot,2024.1.5,Linux x86_64,59.88023952,682d573fa47f1360d1451895,,,,,,,,,,,276.2865,276.7841,,,277.0361,277.6168,left,0.5643,,,,,,,,,0.9,,,,,,276.7841,277.036,277.6169,"[0.1835035396951846,-0.029643771360791764]","[-1,-1,-1]","[0.1707887267086796,0.10316781742653088]","[1,1,1]","[0.07283600190032798,0.03530919525911951]","[1,1,1]","[0.10531321800114413,0.11353791306449151]","[1,1,1]","[-0.1763655002697293,0.045831287835130005]","[1,1,1]","[-0.09723294489631151,0.014811367859915592]","[1,1,1]","[-0.003825401718579339,0.1969248611913668]","[1,1,1]","[-0.1805265339670772,0.00035076172185649954]","[1,1,1]","[-0.09744781392629945,0.13219405652814425]","[1,1,1]","[0.1427518530522172,0.03690906399691684]","[1,1,1]","[-0.11382699714383887,-0.07442492604722646]","[1,1,1]","[-0.1186142244488146,-0.12164910180734195]","[1,1,1]","[-0.07980820582267754,0.07048451049293135]","[-1,-1,-1]","[0.07426153333290741,-0.14516819651014728]","[1,1,1]","[0.10760338372527467,-0.05878146067348633]","[1,1,1]","[-0.01732123620869782,0.06954982620752775]","[1,1,1]","[0.19084656196207417,0.04756579094034771]","[1,1,1]","[0.050046447902494,-0.005511402193623348]","[-1,-1,-1]","[-0.04722652333946681,-0.07358706927593632]","[1,1,1]","[-0.05646422094832877,-0.1640933422671225]","[1,1,1]","[-0.023879295137557155,-0.11397233774086617]","[1,1,1]","[0.1333435855214846,-0.14874047978100396]","[1,1,1]","[0.03488858196952388,-0.19125913824368426]","[1,1,1]","[0.06841246406220385,0.1566181391213528]","[1,1,1]","[-0.0513338814250918,-0.02385696951087392]","[1,1,1]","[0.04005835259550709,0.10387652047389741]","[1,1,1]","[-0.17080005053843833,-0.04041056356936318]","[1,1,1]","[0.02599891059563453,0.05591823365352165]","[1,1,1]","[0.14259069256493806,-0.038744307124434]","[1,1,1]","[0.09435864721673694,-0.10419342701552323]","[1,1,1]","[-0.007005105554521592,-0.19766556514324432]","[1,1,1]","[-0.16414189123529252,0.10289586868465095]","[1,1,1]","[0.02,0.02]",278.7157,0,12,12,195,1,,,,,,,
,,,,,,,616ff0dbee6ec2aa5875e5cf,682f0fda633c76280214f3ca,2025-05-22_13h52.52.793,cuing_paradigm_dot,2024.1.5,Linux x86_64,59.88023952,682d573fa47f1360d1451895,,,,,,,,,,,278.7166,279.215,,,279.4674,279.8472,right,0.3625,,,,,,,,,0.1,,,,,,279.2151,279.4674,279.8474,"[-0.10727980006754877,0.07000714152541837]","[-1,-1,-1]","[0.13731071931040048,-0.09676895077553194]","[-1,-1,-1]","[0.1355064238213153,0.10689966132570239]","[-1,-1,-1]","[-0.02828409558424136,-0.06300545031409731]","[-1,-1,-1]","[-0.16706758685398104,0.04798535528056165]","[-1,-1,-1]","[-0.10598982265369496,-0.005099667640286243]","[-1,-1,-1]","[0.021906982677782492,0.06329255844222853]","[-1,-1,-1]","[0.07048160046378392,-0.15374123693052097]","[1,1,1]","[0.00557145624538618,-0.16111527657036684]","[1,1,1]","[0.08753730896438928,0.06465449593355652]","[-1,-1,-1]","[0.08212226163824121,0.1043606719748227]","[-1,-1,-1]","[0.06740622447716427,-0.026286467288959493]","[-1,-1,-1]","[-0.026042912589866737,0.19245222879346977]","[-1,-1,-1]","[-0.0780156161429873,-0.1386041673350637]","[-1,-1,-1]","[-0.0218474783149946,0.0885798605260195]","[-1,-1,-1]","[0.18727500473889344,0.060257052650542355]","[-1,-1,-1]","[0.05610784108762747,-0.07373106047420686]","[-1,-1,-1]","[0.10751331252203519,-0.049002853377836574]","[-1,-1,-1]","[0.021520339579929295,-0.12077977180448668]","[-1,-1,-1]","[-0.006339506544863593,0.1466759312639008]","[-1,-1,-1]","[-0.05297350457920589,0.043928897447939534]","[-1,-1,-1]","[-0.10646682216945635,-0.047389100744518436]","[-1,-1,-1]","[0.13118225662925828,-0.14695370836534766]","[-1,-1,-1]","[-0.1437741214439743,0.09231879096568799]","[-1,-1,-1]","[0.15019222874670826,-0.0450969661839125]","[-1,-1,-1]","[-0.04671356218500383,0.13697246509819055]","[1,1,1]","[0.07556157653515727,0.1593490159835914]","[-1,-1,-1]","[-0.1810164301917961,-0.017034812511493407]","[-1,-1,-1]","[-0.16125261658466303,-0.08214680734170265]","[-1,-1,-1]","[-0.06951120794277095,0.09268150522507146]","[-1,-1,-1]","[0.09048767624357208,-0.10278243856465352]","[-1,-1,-1]","[-0.02000689346141807,-0.10717850173195086]","[-1,-1,-1]","[0.02,0.02]",280.9463,0,13,13,15,1,,,,,,,
,,,,,,,616ff0dbee6ec2aa5875e5cf,682f0fda633c76280214f3ca,2025-05-22_13h52.52.793,cuing_paradigm_dot,2024.1.5,Linux x86_64,59.88023952,682d573fa47f1360d1451895,,,,,,,,,,,280.947,281.4451,,,281.6952,282.7595,left,1.0471,,,,,,,,,0.55,,,,,,281.4452,281.6951,282.7596,"[0.14093681474249684,-0.09541258609962062]","[1,1,1]","[-0.011692953816292472,-0.02183179876489099]","[1,1,1]","[-0.03781898242121147,0.14037953781443133]","[1,1,1]","[0.01605940417188053,-0.10235870602391701]","[-1,-1,-1]","[0.08374483002613278,0.13912297759560385]","[-1,-1,-1]","[0.05314964586601226,-0.006211844770054527]","[1,1,1]","[0.18116769920454212,-0.00712738876037498]","[-1,-1,-1]","[-0.11254914615464061,0.13992239795735498]","[1,1,1]","[0.1511981108942787,0.058381029568506666]","[-1,-1,-1]","[0.004317479082064572,0.056690883509227304]","[1,1,1]","[-0.11791976275801866,-0.042306163321157046]","[-1,-1,-1]","[-0.10091955244140446,0.0817980304761302]","[-1,-1,-1]","[-0.15570193606259017,-0.08408688476345122]","[-1,-1,-1]","[-0.12356031941562229,-0.13182685158154617]","[-1,-1,-1]","[0.09903730918738933,-0.15550709126572287]","[-1,-1,-1]","[-0.06695074081476145,0.1681431010169253]","[1,1,1]","[0.05700387680552449,0.06774617913191139]","[1,1,1]","[-0.19045625918078543,0.039473268040166966]","[1,1,1]","[-0.18964332046290297,-0.048207665078550184]","[1,1,1]","[0.13947672970576083,-0.05144966478855655]","[1,1,1]","[0.09676878273617218,-0.0483249808909834]","[-1,-1,-1]","[-0.015204550379982263,-0.17985736180115247]","[-1,-1,-1]","[-0.0786694173699611,0.010016447186808095]","[1,1,1]","[-0.0266903685333968,0.030159684211291532]","[1,1,1]","[-0.036781048008481,-0.1069359300112023]","[-1,-1,-1]","[-0.15606665548525905,0.10849256488875164]","[1,1,1]","[0.03933087572202791,0.1107939244649959]","[1,1,1]","[-0.03620629469375362,0.073782838802679]","[-1,-1,-1]","[-0.016230041650942693,0.19117893903179747]","[-1,-1,-1]","[-0.07235707442937975,0.05046185766990237]","[1,1,1]","[0.05323659155002559,-0.1366997736212484]","[1,1,1]","[-0.1388251382114485,-0.003971559935452251]","[1,1,1]","[0.02,0.02]",283.8597,0,14,14,126,1,,,,,,,
,,,,,,,616ff0dbee6ec2aa5875e5cf,682f0fda633c76280214f3ca,2025-05-22_13h52.52.793,cuing_paradigm_dot,2024.1.5,Linux x86_64,59.88023952,682d573fa47f1360d1451895,,,,,,,,,,,283.8605,284.3586,,,284.6056,285.3073,left,0.6869,,,,,,,,,0.4,,,,,,284.3587,284.6055,285.3074,"[-0.04532460128815072,-0.18968338476600968]","[-1,-1,-1]","[-0.13554580056620777,0.0589033119767672]","[-1,-1,-1]","[-0.08207833496897075,0.03462883932046585]","[1,1,1]","[0.19502590939455294,0.01987299447040432]","[-1,-1,-1]","[0.16542043946070417,-0.09058686449370565]","[-1,-1,-1]","[-0.03331504588155522,0.19088944011306302]","[-1,-1,-1]","[-0.05871198542994003,-0.10151653127296549]","[1,1,1]","[-0.00857843771037862,0.13917385660072043]","[-1,-1,-1]","[0.06810492908578558,-0.009632645212746989]","[-1,-1,-1]","[-0.00020916074693815755,-0.19294010663739966]","[1,1,1]","[-0.0005830693180543718,0.07292199396247183]","[-1,-1,-1]","[0.028823467394825362,0.17394949766420734]","[1,1,1]","[-0.05289153028004603,0.0797364198433603]","[1,1,1]","[0.13966839989548813,-0.1289397447748828]","[1,1,1]","[0.057818082720814096,-0.14677447223281906]","[-1,-1,-1]","[0.07488650134355086,-0.07319229029976075]","[-1,-1,-1]","[-0.09123070111071545,0.11019217202912987]","[1,1,1]","[-0.13497438964227584,-0.03072325895080652]","[1,1,1]","[0.08464290630665855,0.1527332979650573]","[1,1,1]","[-0.19452114083954736,0.046435670151888694]","[1,1,1]","[0.19150570297574504,-0.05015127941937725]","[-1,-1,-1]","[-0.10741090250420515,-0.06420866998713089]","[-1,-1,-1]","[-0.08789283416189105,-0.15682471524869726]","[-1,-1,-1]","[0.1206304428276415,0.12884635877759248]","[-1,-1,-1]","[-0.17722288731380947,-0.02715759380623428]","[1,1,1]","[-0.019060289633977413,-0.14463087983726244]","[-1,-1,-1]","[-0.005487639578163612,-0.0037770349239921977]","[-1,-1,-1]","[0.0272765365264132,0.030347347753176896]","[-1,-1,-1]","[0.1799351963335059,0.07903140477115767]","[1,1,1]","[-0.16442078255228104,-0.0874348063640596]","[-1,-1,-1]","[-0.09254294325997973,-0.010003654551660376]","[-1,-1,-1]","[0.0058932541740708624,-0.08293050008079388]","[1,1,1]","[0.02,0.02]",286.405,0,15,15,41,1,,,,,,,
,,,,,,,616ff0dbee6ec2aa5875e5cf,682f0fda633c76280214f3ca,2025-05-22_13h52.52.793,cuing_paradigm_dot,2024.1.5,Linux x86_64,59.88023952,682d573fa47f1360d1451895,,,,,,,,,,,286.4058,286.9086,,,287.1562,287.8026,left,0.6352,,,,,,,,,0.5,,,,,,286.9086,287.1561,287.8027,"[-0.05966337868120222,0.11931079937387329]","[1,1,1]","[0.038142693095531165,-0.13181944423297393]","[1,1,1]","[-0.19793391927688622,0.026633359168231948]","[1,1,1]","[0.18082717286068406,-0.004046613227418149]","[1,1,1]","[-0.04627673721927126,0.07601861262619788]","[1,1,1]","[0.08965182783526172,0.12057692902892507]","[-1,-1,-1]","[-0.03209716480250659,0.032953207147106575]","[1,1,1]","[0.08564208278925944,-0.14579879637930596]","[1,1,1]","[-0.12207581110664048,-0.130449435675168]","[1,1,1]","[-0.143050827854144,-0.045824897708724895]","[-1,-1,-1]","[-0.16530292514762945,-0.11154588414310371]","[-1,-1,-1]","[0.0396466287635695,-0.009855180210587107]","[1,1,1]","[0.0371996918657802,0.050964732744678165]","[-1,-1,-1]","[-0.11643591396569705,0.09787609545235842]","[1,1,1]","[-0.035272616976382766,-0.04340699714631643]","[1,1,1]","[0.15604183053463141,0.08816555840130261]","[-1,-1,-1]","[0.13212121890725018,-0.03335972793957901]","[-1,-1,-1]","[0.06523959617253226,-0.07835880824555252]","[-1,-1,-1]","[-0.033027190308474334,0.18317397037796154]","[-1,-1,-1]","[0.1409613544519437,0.005750304933257002]","[-1,-1,-1]","[-0.09499951787812484,0.15337860301792508]","[1,1,1]","[-0.10169380810543872,0.03263631925732129]","[-1,-1,-1]","[0.1363171753283249,-0.10057206225900445]","[-1,-1,-1]","[0.17228260313638422,-0.08019841484801149]","[1,1,1]","[0.0199647840582956,0.19517825062193578]","[1,1,1]","[0.01135356690758391,-0.16611346020907944]","[-1,-1,-1]","[-0.05140379069664084,-0.15947374746181547]","[-1,-1,-1]","[0.039145458688015076,0.1175928206219105]","[-1,-1,-1]","[-0.08733651895563586,-0.10968894131247293]","[-1,-1,-1]","[0.10819016080094807,0.163221161049135]","[1,1,1]","[0.017952760583391677,-0.07604678287130306]","[1,1,1]","[-0.15808635369778107,0.007076287784019965]","[-1,-1,-1]","[0.02,0.02]",288.9027,0,16,16,115,1,,,,,,,
,,,,,,,616ff0dbee6ec2aa5875e5cf,682f0fda633c76280214f3ca,2025-05-22_13h52.52.793,cuing_paradigm_dot,2024.1.5,Linux x86_64,59.88023952,682d573fa47f1360d1451895,,,,,,,,,,,288.9035,289.4019,,,289.6536,290.4006,left,0.7322,,,,,,,,,0.6,,,,,,289.4019,289.6534,290.4006,"[0.1408514486012274,0.03142642408971479]","[1,1,1]","[0.1897556484211707,-0.019947823803985992]","[-1,-1,-1]","[-0.0466184516248712,0.09009318259637525]","[1,1,1]","[-0.014043943951925666,0.02357639747612646]","[1,1,1]","[-0.1709991825441308,0.016727947786521098]","[1,1,1]","[-0.0010925719920658122,-0.11294101670217606]","[-1,-1,-1]","[-0.16078071024925383,-0.07842260866399728]","[1,1,1]","[0.08934129004557953,-0.05751805737664388]","[-1,-1,-1]","[-0.10450395611895004,-0.11155382040808944]","[-1,-1,-1]","[0.13160509248509822,-0.09030835900405852]","[1,1,1]","[0.09537789953044527,-0.14391285516247443]","[1,1,1]","[-0.13803702877830534,0.07795749115298246]","[1,1,1]","[0.0998440024124368,0.04704829700001609]","[-1,-1,-1]","[-0.06621647234503353,0.017214465220704515]","[1,1,1]","[0.11473633673378596,0.11532860621094441]","[1,1,1]","[-0.02625385930396591,-0.07425890375944387]","[1,1,1]","[0.06618321499056477,0.16466527023985605]","[-1,-1,-1]","[0.021113706236668715,-0.17038280825119226]","[1,1,1]","[0.06000171071036964,0.09592302879886595]","[1,1,1]","[-0.05612307331070064,-0.15610483646896733]","[-1,-1,-1]","[0.07427871238161425,-0.09516556246196342]","[-1,-1,-1]","[0.04026113065350759,0.039109324549190166]","[1,1,1]","[-0.14464274656166545,0.12189712946933423]","[1,1,1]","[0.14375513928587327,0.08141876568563522]","[1,1,1]","[-0.038446459249751624,0.1900380756161547]","[1,1,1]","[0.11906230080471135,-0.0041510604603621345]","[-1,-1,-1]","[0.0409455458328431,-0.12038330658612288]","[-1,-1,-1]","[-0.1252759967129851,-0.03145013444894597]","[-1,-1,-1]","[-0.0872703429799201,0.06420207438050061]","[-1,-1,-1]","[0.1451306350515992,-0.1294042313665828]","[-1,-1,-1]","[0.0213148828972482,0.143995388435918]","[1,1,1]","[0.1776087289867693,-0.07147613775713127]","[1,1,1]","[0.02,0.02]",291.4983,0,17,17,171,1,,,,,,,
,,,,,,,616ff0dbee6ec2aa5875e5cf,682f0fda633c76280214f3ca,2025-05-22_13h52.52.793,cuing_paradigm_dot,2024.1.5,Linux x86_64,59.88023952,682d573fa47f1360d1451895,,,,,,,,,,,291.4991,291.9978,,,292.2491,292.9312,left,0.6662,,,,,,,,,0.6,,,,,,291.9979,292.249,292.9312,"[-0.12946007102636675,0.13743748174299425]","[1,1,1]","[-0.12223522708012971,-0.0885015076386443]","[-1,-1,-1]","[0.04218907756437513,-0.07288631741733856]","[-1,-1,-1]","[0.0952603540141132,0.11297905226042547]","[-1,-1,-1]","[-0.03785542885534397,-0.06514958865457934]","[1,1,1]","[0.17053360737164083,0.022434205339331333]","[-1,-1,-1]","[0.09024805876923621,0.16960380723599866]","[-1,-1,-1]","[-0.05868250437781554,-0.1546220822902088]","[-1,-1,-1]","[0.014734354067106764,0.12904749749781314]","[1,1,1]","[-0.02787964647324457,0.07153903317447842]","[1,1,1]","[0.057996817735508424,-0.1311614300606072]","[1,1,1]","[0.12527422265167049,-0.013578778160272888]","[1,1,1]","[-0.1906729950628758,-0.034468267968288405]","[-1,-1,-1]","[0.03546692662762107,0.08710444705074605]","[1,1,1]","[0.006806612774984483,-0.0938999778819303]","[1,1,1]","[0.06196563365869799,-0.01379515051062628]","[1,1,1]","[-0.01731994698879297,0.18783365644457303]","[-1,-1,-1]","[-0.13784237628939475,-0.02717006374856982]","[-1,-1,-1]","[0.13496672529457,0.04345521183707183]","[1,1,1]","[-0.0001234304964712883,-0.024377571754262063]","[-1,-1,-1]","[-0.16572992048808236,-0.09781727149778095]","[-1,-1,-1]","[-0.028477368433402837,0.022973068977440846]","[1,1,1]","[0.04187885732903259,-0.1899220904903552]","[1,1,1]","[0.1238629107798718,-0.09060503791521571]","[1,1,1]","[0.034791813150381844,0.02483326988901799]","[-1,-1,-1]","[0.15216011337492985,0.11556336993773979]","[1,1,1]","[-0.026009972845914935,0.12624689984167112]","[1,1,1]","[-0.01773898888960271,-0.1929719322752668]","[1,1,1]","[-0.15950853200896406,0.049233105053728306]","[1,1,1]","[-0.08959746104367852,0.0364558491853018]","[-1,-1,-1]","[-0.04946120911458678,-0.11316136808278268]","[1,1,1]","[0.16181619587626614,-0.11463086430581118]","[1,1,1]","[0.02,0.02]",294.0292,0,18,18,167,1,,,,,,,
,,,,,,,616ff0dbee6ec2aa5875e5cf,682f0fda633c76280214f3ca,2025-05-22_13h52.52.793,cuing_paradigm_dot,2024.1.5,Linux x86_64,59.88023952,682d573fa47f1360d1451895,,,,,,,,,,,294.0301,294.5283,,,294.7791,295.4938,left,0.6998,,,,,,,,,0.55,,,,,,294.5283,294.779,295.4938,"[0.020340682003469442,-0.003358745773937895]","[-1,-1,-1]","[-0.13684286882745533,0.13581246749661074]","[1,1,1]","[0.05756171483952175,0.03554154198968447]","[-1,-1,-1]","[-0.07350584357618968,0.10085939001055313]","[-1,-1,-1]","[-0.15648867423162213,0.025109961291867686]","[1,1,1]","[-0.19101674002913308,-0.01791686754837281]","[1,1,1]","[0.12369814274947737,-0.07134359866725012]","[-1,-1,-1]","[-0.012862954314218399,-0.0937966182724522]","[1,1,1]","[-0.0759555226790477,-0.15416138890981154]","[1,1,1]","[0.051712740998955196,-0.09297499093401354]","[1,1,1]","[-0.11139386348468606,0.04357768610754429]","[1,1,1]","[0.16628011297764927,0.05209676807339488]","[1,1,1]","[0.034659589562314755,-0.15757982432114268]","[-1,-1,-1]","[-0.03657842024129161,-0.046454183684387654]","[-1,-1,-1]","[-0.07250244279940711,-0.010332592182999586]","[1,1,1]","[0.09265838142543383,-0.15441967973861076]","[1,1,1]","[-0.10171859914905294,-0.06468448013425294]","[1,1,1]","[0.1521935500912772,0.012960175144453306]","[1,1,1]","[0.10993657897978246,0.07464520617191846]","[-1,-1,-1]","[0.11264185199379348,-0.0033429135018004617]","[-1,-1,-1]","[-0.014979087134382469,0.12004972652130051]","[1,1,1]","[0.03283908614845851,0.17545420128475334]","[-1,-1,-1]","[-0.12706370940776382,-0.019860494747852144]","[1,1,1]","[0.010560252322652468,0.05649773023494442]","[-1,-1,-1]","[0.16774496838618932,-0.03657892065912032]","[-1,-1,-1]","[-0.07464145546029403,0.17158676320382885]","[1,1,1]","[0.07631293905179411,-0.030135802709070045]","[-1,-1,-1]","[-0.027267409520884592,0.006174077088080856]","[1,1,1]","[-0.16867166332266673,-0.08383618479729991]","[-1,-1,-1]","[0.060453405200613215,0.12300408539380144]","[-1,-1,-1]","[-0.031444288839952185,-0.1549668143533675]","[1,1,1]","[-0.059882360617583015,-0.07952188410399062]","[1,1,1]","[0.02,0.02]",296.5927,0,19,19,146,1,,,,,,,
,,,,,,,616ff0dbee6ec2aa5875e5cf,682f0fda633c76280214f3ca,2025-05-22_13h52.52.793,cuing_paradigm_dot,2024.1.5,Linux x86_64,59.88023952,682d573fa47f1360d1451895,,,,,,,,,,,296.5934,297.0911,,,297.3435,297.8441,left,0.4857,,,,,,,,,0.9,,,,,,297.0912,297.3435,297.8443,"[0.16221971890930334,0.04329557151577212]","[1,1,1]","[0.10419593639791257,-0.016551427505192857]","[1,1,1]","[-0.011384306374785571,0.11643167125976096]","[-1,-1,-1]","[0.06866810760783262,0.02601657112362085]","[1,1,1]","[0.10479725840982525,0.05769086037723978]","[1,1,1]","[-0.0949398113405041,-0.05870955489077961]","[1,1,1]","[0.0906624328004707,-0.11354808493733391]","[1,1,1]","[-0.1799393283146232,-0.07366469881618985]","[1,1,1]","[0.02623492626912263,-0.16270093764326068]","[1,1,1]","[-0.19869297031674088,0.004895575133408378]","[1,1,1]","[-0.03404547345568479,0.16913748936954293]","[1,1,1]","[-0.0521085577171326,0.13101905268481243]","[1,1,1]","[0.05261508584047128,0.08688201677193083]","[1,1,1]","[0.10082402675510876,-0.07344621466298813]","[1,1,1]","[-0.17771473513653147,0.053280920913289315]","[1,1,1]","[-0.09116154423875163,0.038820828182742566]","[1,1,1]","[0.1845579923497421,-0.03649055036491728]","[1,1,1]","[-0.09850003568863214,-0.12559062565393142]","[1,1,1]","[-0.09526662902949108,0.08859832445026412]","[1,1,1]","[0.14342097386980376,-0.10585059091480166]","[1,1,1]","[0.1142210073064556,0.12860805541178458]","[1,1,1]","[0.0010755487003729076,-0.031889749753364005]","[1,1,1]","[0.143961068550983,0.0029968948420030467]","[1,1,1]","[-0.07691919365000374,-0.17674224431441737]","[1,1,1]","[-0.139975716808175,-0.017788738443945778]","[1,1,1]","[-0.030956690924605342,-0.11507250876888497]","[1,1,1]","[-0.01848352020738924,-0.17968422163355863]","[1,1,1]","[-0.14790846676205832,0.10155139889227432]","[-1,-1,-1]","[0.030491629152065214,-0.07318620695494266]","[-1,-1,-1]","[-0.06669616898119153,-0.03024501685542165]","[1,1,1]","[0.008946570612722816,0.18073922494717348]","[1,1,1]","[0.0547115598447418,0.1800318302781744]","[1,1,1]","[0.02,0.02]",298.9379,0,20,20,189,1,,,,,,,
,,,,,,,616ff0dbee6ec2aa5875e5cf,682f0fda633c76280214f3ca,2025-05-22_13h52.52.793,cuing_paradigm_dot,2024.1.5,Linux x86_64,59.88023952,682d573fa47f1360d1451895,,,,,,,,,,,298.9389,299.438,,,299.6901,300.3052,right,0.5986,,,,,,,,,0.5,,,,,,299.4381,299.69,300.3053,"[0.18552606682410028,-0.057633142876776865]","[1,1,1]","[-0.10703642772202833,0.16446203371370757]","[-1,-1,-1]","[0.10908356479342664,-0.08012392303589154]","[-1,-1,-1]","[0.0765795676608191,0.05880810036093335]","[1,1,1]","[-0.030728899995764336,0.16067736821987427]","[-1,-1,-1]","[0.057264803105443574,0.17620570548507838]","[1,1,1]","[0.0425910068744337,-0.006187431556577495]","[1,1,1]","[0.028729553557006605,0.10592423000626283]","[-1,-1,-1]","[0.12305847784079048,-0.14716987602539958]","[-1,-1,-1]","[-0.005347957039325832,-0.08352442705675008]","[-1,-1,-1]","[-0.08379637122538959,0.10828501845599385]","[-1,-1,-1]","[-0.09650649828463034,-0.014822479242809768]","[1,1,1]","[0.10939579096985368,-0.03179232377420771]","[1,1,1]","[0.08969067339770877,0.11942819708110483]","[-1,-1,-1]","[0.010273623478693714,-0.1859694070533386]","[1,1,1]","[0.11386571689129912,0.15588187808166865]","[-1,-1,-1]","[-0.04282002933973615,0.039903937736098155]","[-1,-1,-1]","[-0.11461161851618142,-0.10161230447820982]","[1,1,1]","[0.14712867547213165,0.11674703281207169]","[-1,-1,-1]","[-0.12802701421228965,-0.1430287849421951]","[-1,-1,-1]","[-0.17416066474217193,-0.08401568865268669]","[1,1,1]","[-0.058602649385235045,-0.02842730216991012]","[-1,-1,-1]","[0.052395862530167446,-0.09287405837697088]","[1,1,1]","[-0.08434121482617349,0.03340101138749718]","[1,1,1]","[-0.17701777165125798,0.022611634894456882]","[1,1,1]","[0.14006424549153645,0.07040605469032989]","[-1,-1,-1]","[-0.1829138563657951,0.06390818665253736]","[-1,-1,-1]","[-0.05891385053171221,-0.09510905511983565]","[1,1,1]","[0.012461504958588695,-0.14294717786443462]","[1,1,1]","[-0.011787002017156373,0.0015542787011975595]","[-1,-1,-1]","[0.04958390644600593,-0.16564364886689512]","[1,1,1]","[-0.16031279114418032,0.10798987817801867]","[1,1,1]","[0.02,0.02]",301.4026,0,21,21,110,1,,,,,,,
,,,,,,,616ff0dbee6ec2aa5875e5cf,682f0fda633c76280214f3ca,2025-05-22_13h52.52.793,cuing_paradigm_dot,2024.1.5,Linux x86_64,59.88023952,682d573fa47f1360d1451895,,,,,,,,,,,301.4033,301.9017,,,302.1541,303.4676,left,1.3032,,,,,,,,,0.55,,,,,,301.9018,302.1541,303.4676,"[-0.06232098849063697,-0.018079807282861883]","[1,1,1]","[-0.13252769754619131,0.12269553436584882]","[1,1,1]","[0.040434376647309866,-0.16077558056139787]","[1,1,1]","[0.03764501530561261,-0.08776504458551965]","[-1,-1,-1]","[0.10114309475625931,0.010981609873284942]","[1,1,1]","[-0.0021641241612925326,0.1399997807229635]","[1,1,1]","[-0.10991276471580425,-0.13036798149365128]","[-1,-1,-1]","[-0.12588764128783134,0.04134489342955778]","[1,1,1]","[0.16590519341539578,-0.07017703472484979]","[1,1,1]","[0.026862384795663854,0.024313096471943893]","[-1,-1,-1]","[-0.15764025022969338,-0.00278343052937566]","[1,1,1]","[0.016799646257727337,-0.041112258487552386]","[-1,-1,-1]","[0.1140781402861764,0.10891502790066102]","[-1,-1,-1]","[0.11194594491247783,0.1490722350740294]","[-1,-1,-1]","[-0.04243170354735968,0.02965498067502413]","[1,1,1]","[0.08445819196730302,-0.06282340853394197]","[1,1,1]","[-0.055932526341711294,-0.09167477035207534]","[-1,-1,-1]","[0.04531334950838875,0.06840025031771219]","[1,1,1]","[0.04793920137959659,0.1937807665001823]","[-1,-1,-1]","[0.1091676779324759,-0.029434290688047364]","[-1,-1,-1]","[-0.12706729238326298,-0.06646913975998624]","[-1,-1,-1]","[0.0003544006533025934,-0.15932847321714078]","[1,1,1]","[-0.19892166305933145,-0.011345732442930336]","[1,1,1]","[0.1922871544759062,0.004785859984308908]","[-1,-1,-1]","[0.15531360427394725,0.06731700741190492]","[1,1,1]","[-0.1835142966920437,-0.06315917686758413]","[1,1,1]","[-0.15529993583892207,0.08082318034218969]","[-1,-1,-1]","[0.006318201242460004,0.19621578975281093]","[-1,-1,-1]","[0.1538576925669229,-0.11371292974974542]","[1,1,1]","[-0.03915699057063965,0.18733313416473812]","[1,1,1]","[0.07064007498500273,-0.12277530228830365]","[1,1,1]","[-0.08918246821450856,0.1273816070920174]","[-1,-1,-1]","[0.02,0.02]",304.5656,0,22,22,120,1,,,,,,,
,,,,,,,616ff0dbee6ec2aa5875e5cf,682f0fda633c76280214f3ca,2025-05-22_13h52.52.793,cuing_paradigm_dot,2024.1.5,Linux x86_64,59.88023952,682d573fa47f1360d1451895,,,,,,,,,,,304.5666,305.0649,,,305.3169,306.0981,left,0.7644,,,,,,,,,0.6,,,,,,305.065,305.3168,306.0983,"[-0.1599715512793439,-0.008566725533243108]","[-1,-1,-1]","[0.07529640001249474,0.03897675837410005]","[-1,-1,-1]","[0.024804518981467617,0.07247905990511773]","[-1,-1,-1]","[0.0015593718124454834,0.1299595921956024]","[1,1,1]","[0.13522259112381782,-0.08485931834409655]","[-1,-1,-1]","[-0.015798582955669913,0.03682587394892685]","[1,1,1]","[-0.13073886713953048,-0.06631614487208035]","[1,1,1]","[0.04977329915107321,0.14424403413784473]","[1,1,1]","[0.1462357169436393,-0.006059712129519953]","[-1,-1,-1]","[-0.0388919297172374,0.08294430543155368]","[-1,-1,-1]","[0.14605668940116884,0.04695314081791826]","[-1,-1,-1]","[0.0829043814175296,-0.11189223922290323]","[-1,-1,-1]","[-0.047034986798928716,-0.1247151370118584]","[1,1,1]","[-0.1501900337774829,-0.11586173588164055]","[1,1,1]","[-0.06819528105450881,0.1818559161929032]","[1,1,1]","[0.08310377994666594,-0.05382008490276527]","[-1,-1,-1]","[0.037379120278208514,-0.08693827779689954]","[1,1,1]","[-0.104654037729344,0.016764444626514205]","[-1,-1,-1]","[0.04065057481963952,-0.01153590500240454]","[1,1,1]","[0.10763870562464431,-0.017787158080843773]","[1,1,1]","[0.07932375813801816,0.08153632344330802]","[1,1,1]","[-0.006246347525500438,-0.09961827556582947]","[1,1,1]","[-0.11708078197780862,-0.027997204100193334]","[1,1,1]","[0.04455653629118955,-0.14935984515680598]","[1,1,1]","[-0.10134421793348888,-0.11554099349377002]","[1,1,1]","[0.15413714592082234,-0.04572397558641954]","[-1,-1,-1]","[0.10214489246787656,0.12210785837200282]","[1,1,1]","[-0.05776049917625146,-0.17991979773479225]","[1,1,1]","[-0.01559543414054503,-0.18761387360571205]","[1,1,1]","[-0.01957118315123984,-0.022327614708020953]","[-1,-1,-1]","[0.12154723029714352,-0.1526450831584394]","[1,1,1]","[-0.0152073554565226,0.16954059162938223]","[-1,-1,-1]","[0.02,0.02]",307.1951,0,23,23,159,1,,,,,,,
,,,,,,,616ff0dbee6ec2aa5875e5cf,682f0fda633c76280214f3ca,2025-05-22_13h52.52.793,cuing_paradigm_dot,2024.1.5,Linux x86_64,59.88023952,682d573fa47f1360d1451895,,,,,,,,,,,307.1958,307.6971,,,307.946,308.445,right,0.4837,,,,,,,,,0.4,,,,,,307.6971,307.946,308.4451,"[-0.051276463000001805,0.05104213189905189]","[-1,-1,-1]","[0.055464250700445,-0.06603570587606737]","[1,1,1]","[-0.02905127829119566,0.1308587144881192]","[-1,-1,-1]","[0.08686793762799645,-0.016489314907078556]","[1,1,1]","[-0.03917286542747676,-0.16840167902118836]","[-1,-1,-1]","[-0.004988686741352873,0.19237735802847797]","[1,1,1]","[0.14856841120909264,-0.04868324050781489]","[-1,-1,-1]","[-0.08983019734902897,-0.017278951497530254]","[-1,-1,-1]","[0.013697377929650536,-0.14267556087417813]","[1,1,1]","[-0.15085926497978422,-0.03879850344298835]","[1,1,1]","[0.017324825083469875,0.11363039180923343]","[1,1,1]","[-0.1319108613751968,-0.10169440743908795]","[-1,-1,-1]","[-0.16341597455612597,0.021749040791628874]","[-1,-1,-1]","[0.1174505567998794,0.12298341762099535]","[-1,-1,-1]","[0.06010816256108241,-0.11854787946485011]","[1,1,1]","[-0.10145982848018067,-0.15494140296488457]","[-1,-1,-1]","[0.040860428578257044,0.06173785190320387]","[-1,-1,-1]","[0.07711701424290067,0.10238701394596869]","[1,1,1]","[-0.07485908061381209,0.1474382985624759]","[-1,-1,-1]","[-0.01648715544679278,0.006161159146036321]","[-1,-1,-1]","[-0.15684486524546976,0.11087918659611588]","[-1,-1,-1]","[0.09374522984873915,0.057309057303578055]","[-1,-1,-1]","[0.051583530124065864,0.0024832304518408316]","[1,1,1]","[0.009780817840872001,-0.19469937110405094]","[1,1,1]","[-0.08829122113819225,-0.05947491539077621]","[-1,-1,-1]","[-0.102366779440932,0.08385756771794078]","[-1,-1,-1]","[-0.009006339066016101,0.047944634918111524]","[-1,-1,-1]","[-0.047838614744051364,-0.09644142659424566]","[1,1,1]","[0.09777745511997248,-0.08099246901502971]","[1,1,1]","[-0.08813108139644635,-0.10518502217474036]","[1,1,1]","[0.0951820780760165,-0.1650462199059766]","[-1,-1,-1]","[0.16022120225511233,0.0003353556525233947]","[-1,-1,-1]","[0.02,0.02]",309.5438,0,24,24,34,1,,,,,,,
,,,,,,,616ff0dbee6ec2aa5875e5cf,682f0fda633c76280214f3ca,2025-05-22_13h52.52.793,cuing_paradigm_dot,2024.1.5,Linux x86_64,59.88023952,682d573fa47f1360d1451895,,,,,,,,,,,309.5445,310.0417,,,310.2958,310.824,right,0.5167,,,,,,,,,0.45,,,,,,310.0419,310.2958,310.8241,"[0.10130502929747422,0.1513437341957215]","[-1,-1,-1]","[0.14391184354220268,0.08736173690791926]","[-1,-1,-1]","[-0.024939364692523256,-0.13784640470780246]","[-1,-1,-1]","[0.11909006469943444,-0.07154687594298537]","[1,1,1]","[-0.039753275332905125,0.05899626592537726]","[1,1,1]","[0.1963369767895798,0.012925961233006149]","[-1,-1,-1]","[-0.048086194682558536,-0.014726709588169127]","[-1,-1,-1]","[-0.1383160838508929,-0.08067180864834998]","[1,1,1]","[0.060286749664563266,0.1013304693518044]","[-1,-1,-1]","[0.027247956153177627,-0.06330995792140315]","[-1,-1,-1]","[-0.09111396938538967,-0.1590670662484441]","[-1,-1,-1]","[-0.1688668370027121,-0.04229607180769678]","[-1,-1,-1]","[0.0936925811881298,0.005124355697498819]","[-1,-1,-1]","[-0.0856443905822183,-0.03311079307023733]","[1,1,1]","[-0.16679859086946422,0.04433265570725324]","[-1,-1,-1]","[-0.08081901236729834,0.10667664254824712]","[1,1,1]","[0.06791828076826371,-0.042978806133873976]","[1,1,1]","[-0.01057685249103019,0.003934803382917252]","[1,1,1]","[-0.004845323173678718,0.12251348367125392]","[1,1,1]","[-0.1319666998511566,-0.13651837141422057]","[1,1,1]","[0.020840926389336132,0.03343986778159359]","[-1,-1,-1]","[-0.13301038419240865,0.07359419795273694]","[1,1,1]","[-0.09288248780011382,0.009788693458953585]","[-1,-1,-1]","[-0.12852755279167313,-0.013839853410179381]","[-1,-1,-1]","[0.1062516130496632,0.044748219103729454]","[1,1,1]","[-0.04918761855983504,-0.09404769732592878]","[1,1,1]","[0.03048372165449313,0.07354398831356704]","[-1,-1,-1]","[0.0032084144383678855,-0.18889496809407302]","[1,1,1]","[0.14347065945504975,0.016125850012426977]","[1,1,1]","[0.17615769760075548,-0.028462302450745627]","[-1,-1,-1]","[0.03216269763062842,-0.12957182439963433]","[-1,-1,-1]","[0.06592035540195651,0.05096267399934833]","[-1,-1,-1]","[0.02,0.02]",311.9249,0,25,25,89,1,,,,,,,
,,,,,,,616ff0dbee6ec2aa5875e5cf,682f0fda633c76280214f3ca,2025-05-22_13h52.52.793,cuing_paradigm_dot,2024.1.5,Linux x86_64,59.88023952,682d573fa47f1360d1451895,,,,,,,,,,,311.9256,312.4236,,,312.6702,313.4743,right,0.7889,,,,,,,,,0.55,,,,,,312.4237,312.6701,313.4744,"[-0.061982862882732526,-0.050322330733120785]","[-1,-1,-1]","[-0.1493818410078663,-0.047561864485422864]","[-1,-1,-1]","[0.028482388475294065,0.10221054233911368]","[-1,-1,-1]","[-0.12379384381340484,0.12279874397720916]","[1,1,1]","[0.17392089810970834,0.07991544257981474]","[-1,-1,-1]","[-0.024238620596091366,-0.01225149464624329]","[1,1,1]","[0.1350095283542317,0.09594929740797145]","[1,1,1]","[0.10957259922950636,-0.1374287048822546]","[-1,-1,-1]","[-0.051884434843071967,-0.14838224782763468]","[-1,-1,-1]","[0.1821471261260076,-0.02150845239473006]","[1,1,1]","[-0.12905876495810278,-0.08844969822305987]","[1,1,1]","[-0.02722180711441023,0.04145392582905131]","[1,1,1]","[-0.024451076683292952,0.12715510603692592]","[1,1,1]","[0.021449252602770787,-0.1193618210627441]","[-1,-1,-1]","[-0.14781171952272945,0.08887784833089751]","[1,1,1]","[0.15746857668575975,-0.08676244508300353]","[1,1,1]","[0.04955709927754041,-0.08545684440938933]","[-1,-1,-1]","[0.11150216090000761,0.015177575320084628]","[1,1,1]","[-0.11808514915848885,0.057718850344304885]","[-1,-1,-1]","[-0.06315092479321062,-0.0936179913243459]","[-1,-1,-1]","[-0.15084093591215567,-0.00279275633529511]","[1,1,1]","[0.05894020716789456,0.15306709188019088]","[1,1,1]","[0.09520078521124582,0.11891063544841636]","[1,1,1]","[0.03345062513488296,0.009126765917085512]","[-1,-1,-1]","[0.10259126434467994,0.05768852317162635]","[-1,-1,-1]","[-0.15869015825264282,0.045923206028303507]","[1,1,1]","[0.11124739471940362,-0.08732139031172749]","[1,1,1]","[-0.008495434824987696,0.18127001791613953]","[1,1,1]","[0.11440115739876304,-0.0290118733364608]","[1,1,1]","[0.07132191841395538,-0.007889505930559072]","[-1,-1,-1]","[-0.05727555033914793,0.16440212381845232]","[1,1,1]","[-0.013660219333064856,-0.18353174396119853]","[-1,-1,-1]","[0.02,0.02]",314.5701,0,26,26,133,1,,,,,,,
,,,,,,,616ff0dbee6ec2aa5875e5cf,682f0fda633c76280214f3ca,2025-05-22_13h52.52.793,cuing_paradigm_dot,2024.1.5,Linux x86_64,59.88023952,682d573fa47f1360d1451895,,,,,,,,,,,314.571,315.0699,,,315.3188,315.7018,left,0.3692,,,,,,,,,0.9,,,,,,315.0699,315.3186,315.7019,"[0.16027530645616558,0.03589875793087728]","[1,1,1]","[0.06660080987182007,-0.18280308835471085]","[1,1,1]","[-0.17654885394219946,0.01845461218301082]","[1,1,1]","[-0.14752053643336915,-0.12498535926581768]","[1,1,1]","[0.15988688151399286,-0.08866109500357652]","[1,1,1]","[0.07474241774344167,0.062265028094385486]","[1,1,1]","[0.18533859447627715,-0.027495643757299217]","[1,1,1]","[0.07842181275620931,-0.027763739852174403]","[1,1,1]","[-0.013860779468954133,0.017200829297222622]","[1,1,1]","[-0.07173511911640879,0.1710316911015678]","[1,1,1]","[-0.17013024185214998,-0.07899104730096305]","[1,1,1]","[-0.09743070809444432,-0.1662113817337146]","[1,1,1]","[-0.07386723132732152,-0.01754238764133046]","[1,1,1]","[-0.06994586216881941,-0.13402208176000197]","[1,1,1]","[0.04843167896685145,-0.1394758269213139]","[-1,-1,-1]","[0.03223198866480724,-0.08130696908043214]","[1,1,1]","[-0.008945540463678838,-0.0688186962817936]","[1,1,1]","[-0.11885835978612887,0.017758044587632183]","[1,1,1]","[0.03407103001207661,-0.03724067683655509]","[1,1,1]","[0.10213359153611844,0.15960521559643506]","[1,1,1]","[0.001820978999931069,-0.16670185149418998]","[1,1,1]","[-0.0658495860148177,-0.08931503398961786]","[1,1,1]","[0.06001421795834059,0.132118937517331]","[1,1,1]","[0.1486779961634764,-0.004288695274667362]","[1,1,1]","[-0.11496179928706357,0.061842255284514924]","[1,1,1]","[-0.1197386804132034,0.10776023995625847]","[1,1,1]","[0.12160582298688846,0.10956105731790748]","[1,1,1]","[-0.13679111165975671,-0.043129404500726574]","[-1,-1,-1]","[0.09832213764046377,-0.15661088615031582]","[-1,-1,-1]","[0.09884050286106806,0.023515210489861185]","[1,1,1]","[0.04160516803654371,0.0936344741684037]","[1,1,1]","[-0.11163063676340079,0.15208811280183454]","[1,1,1]","[0.02,0.02]",316.8011,0,27,27,207,1,,,,,,,
,,,,,,,616ff0dbee6ec2aa5875e5cf,682f0fda633c76280214f3ca,2025-05-22_13h52.52.793,cuing_paradigm_dot,2024.1.5,Linux x86_64,59.88023952,682d573fa47f1360d1451895,,,,,,,,,,,316.8019,317.3024,,,317.5527,318.6659,left,1.099,,,,,,,,,0.6,,,,,,317.3025,317.5526,318.666,"[-0.10781337596387366,0.14740883317687636]","[-1,-1,-1]","[0.04894015313186817,-0.01878387525647417]","[-1,-1,-1]","[0.10245183123728137,0.07027490434314666]","[-1,-1,-1]","[0.14775123732673412,-0.03652251414936143]","[1,1,1]","[-0.04424814728536883,0.004465758077166528]","[-1,-1,-1]","[0.030103688506631997,0.15228541566318732]","[-1,-1,-1]","[-0.09986474047991357,0.042561170106434246]","[1,1,1]","[0.1824425501263258,0.022176421130879063]","[-1,-1,-1]","[0.014079259420534427,0.05305103244109484]","[1,1,1]","[-0.14082343149146398,-0.1032862165311427]","[1,1,1]","[0.013893907092918878,-0.09810949098209047]","[-1,-1,-1]","[0.059876216636907356,-0.06197772231543636]","[1,1,1]","[-0.01071976226398777,0.14702525066881353]","[1,1,1]","[-0.16431683135642275,0.02368534975309712]","[1,1,1]","[0.06956425486829332,-0.10503866046480548]","[1,1,1]","[0.0007108820256338165,-0.1493694232172511]","[-1,-1,-1]","[-0.05520540992952917,-0.17039267649115022]","[1,1,1]","[-0.11312632586902387,-0.06183012988109695]","[1,1,1]","[-0.14557543203370474,0.09785406133741954]","[1,1,1]","[0.1276760780020733,0.03688287999484371]","[-1,-1,-1]","[0.14463340343365216,-0.08218545387247042]","[-1,-1,-1]","[-0.14399884236435395,-0.022910700211999476]","[1,1,1]","[-0.08591488117678742,-0.10369899787382714]","[1,1,1]","[0.07440084298274803,0.04005965057952551]","[-1,-1,-1]","[-0.05961273966478534,-0.06563842832382809]","[1,1,1]","[0.031106433180259734,0.09585574719722077]","[1,1,1]","[-0.09197758359144799,-0.017731936149141415]","[-1,-1,-1]","[-0.16845340796233801,-0.07298833189803652]","[1,1,1]","[-0.021533846579986898,-0.04587268683929503]","[1,1,1]","[0.0706405321100229,-0.15898024903071842]","[1,1,1]","[0.10603355193037722,-0.05619760515139262]","[-1,-1,-1]","[-0.05547895373211583,0.099946114865355]","[1,1,1]","[0.02,0.02]",319.7642,0,28,28,151,1,,,,,,,
,,,,,,,616ff0dbee6ec2aa5875e5cf,682f0fda633c76280214f3ca,2025-05-22_13h52.52.793,cuing_paradigm_dot,2024.1.5,Linux x86_64,59.88023952,682d573fa47f1360d1451895,,,,,,,,,,,319.7649,320.264,,,320.5158,320.9977,right,0.4672,,,,,,,,,0.1,,,,,,320.264,320.5156,320.9978,"[-0.1261411206123502,-0.06278887628735395]","[-1,-1,-1]","[0.1441341613745593,-0.07039894890381665]","[-1,-1,-1]","[-0.021512005053093215,-0.13422314439352082]","[-1,-1,-1]","[-0.03441921865090703,0.13727291361240204]","[-1,-1,-1]","[-0.03483283945829233,-0.0698985438725803]","[-1,-1,-1]","[0.12979817044698186,0.04136635718579839]","[-1,-1,-1]","[-0.1700799510293447,-0.000947772111256221]","[-1,-1,-1]","[-0.09776706998860522,0.019401500506409684]","[-1,-1,-1]","[-0.1172615860935235,0.12898919214779753]","[-1,-1,-1]","[-0.0713616235081068,0.15661387068629187]","[-1,-1,-1]","[0.07612048730457421,-0.10243807006334303]","[-1,-1,-1]","[0.019656632267922896,0.19419424537975655]","[-1,-1,-1]","[-0.12261755417973363,-0.135391586801846]","[1,1,1]","[0.06890399051074332,-0.028084096162441393]","[-1,-1,-1]","[0.03679910583887437,0.14227479100473203]","[1,1,1]","[0.130362267351691,-0.019928909660933525]","[-1,-1,-1]","[-0.17248572436830084,0.05690617176317253]","[-1,-1,-1]","[0.016736535698951897,-0.1815595389657135]","[-1,-1,-1]","[0.04345479182398247,-0.1285061288313883]","[-1,-1,-1]","[-0.0835126700419852,-0.03407560241324055]","[-1,-1,-1]","[-0.05334086624213563,0.049087044079163825]","[-1,-1,-1]","[-0.07866049360374777,-0.11650049506266169]","[1,1,1]","[0.17705953817591488,0.0496434227365152]","[-1,-1,-1]","[0.017486750185778374,-0.016587303390582793]","[-1,-1,-1]","[0.18232303027490734,-0.010580763228016075]","[-1,-1,-1]","[-0.06234612496709147,0.0966115969974302]","[-1,-1,-1]","[0.009021775681119535,-0.07079179176149018]","[-1,-1,-1]","[0.07730517715319879,-0.17327223315317886]","[-1,-1,-1]","[-0.052083774356319966,0.0027980231602470085]","[-1,-1,-1]","[0.06573180501410286,0.06758945923336533]","[-1,-1,-1]","[0.12614975006774484,-0.14204893485554002]","[-1,-1,-1]","[0.1375932107786831,0.12498309104265]","[-1,-1,-1]","[0.02,0.02]",322.0952,0,29,29,25,1,,,,,,,
,,,,,,,616ff0dbee6ec2aa5875e5cf,682f0fda633c76280214f3ca,2025-05-22_13h52.52.793,cuing_paradigm_dot,2024.1.5,Linux x86_64,59.88023952,682d573fa47f1360d1451895,,,,,,,,,,,322.0963,322.5955,,,322.8455,323.6768,right,0.8181,,,,,,,,,0.45,,,,,,322.5956,322.8454,323.6769,"[-0.145839800430395,0.03058359112862906]","[-1,-1,-1]","[-0.17702995624503898,0.08498373334709375]","[1,1,1]","[0.10513153375070554,-0.009937064669844807]","[-1,-1,-1]","[-0.13211470859208654,-0.04132483965333762]","[-1,-1,-1]","[-0.009393407140307153,0.09914373337309035]","[-1,-1,-1]","[-0.04676116606293144,-0.18779310742954738]","[-1,-1,-1]","[-0.04415862225347076,-0.12760028688091904]","[1,1,1]","[0.04019067480980946,0.12788675576959133]","[-1,-1,-1]","[-0.09274920809023278,-0.169266276569018]","[-1,-1,-1]","[0.08208293921483081,0.13099417795389293]","[-1,-1,-1]","[0.04591491880017657,-0.15959397271088346]","[1,1,1]","[0.001967131135704825,-0.11400016533313174]","[-1,-1,-1]","[0.0325545225546851,-0.010057609869111174]","[-1,-1,-1]","[-0.03253178377607005,0.1708586249757791]","[1,1,1]","[-0.10777377890493117,0.10090563035027417]","[-1,-1,-1]","[0.09845078378701742,-0.1730293157944409]","[1,1,1]","[0.12042861903786471,0.09889924739887748]","[1,1,1]","[-0.08801925758137152,0.14009744102362265]","[1,1,1]","[0.04671152444834881,-0.0525074045155387]","[1,1,1]","[0.15881905247129316,0.06260104294250941]","[1,1,1]","[0.10315468741276117,-0.07388321519725716]","[1,1,1]","[-0.1751623474707826,-0.02988870259563789]","[1,1,1]","[-0.05383986501759236,0.026227420590123767]","[1,1,1]","[0.14873518070397024,-0.12656649644458215]","[-1,-1,-1]","[0.0984564117220065,0.03735363835171724]","[-1,-1,-1]","[0.019995807757547855,0.0536105438659872]","[1,1,1]","[0.08168258156606568,0.08262062561225157]","[-1,-1,-1]","[-0.18898361409135103,0.037064763743951235]","[-1,-1,-1]","[0.07481924294254715,0.17035102604771046]","[-1,-1,-1]","[0.188555571425489,0.022041931501304318]","[1,1,1]","[-0.0737037846025782,-0.07646309297348108]","[-1,-1,-1]","[0.08211476321186725,-0.12888450161715304]","[-1,-1,-1]","[0.02,0.02]",324.7764,0,30,30,62,1,,,,,,,
,,,,,,,616ff0dbee6ec2aa5875e5cf,682f0fda633c76280214f3ca,2025-05-22_13h52.52.793,cuing_paradigm_dot,2024.1.5,Linux x86_64,59.88023952,682d573fa47f1360d1451895,,,,,,,,,,,324.7771,325.2742,,,325.5274,325.8568,left,0.3163,,,,,,,,,0.9,,,,,,325.2743,325.5272,325.8569,"[0.022163538034312553,0.07408605732891639]","[1,1,1]","[-0.17433215026134954,-0.06034190838083963]","[1,1,1]","[0.040072261723019434,-0.12184589670417287]","[1,1,1]","[0.0016851464554496886,-0.1749990578986038]","[1,1,1]","[0.004087292278702361,0.17179107320064366]","[1,1,1]","[-0.07819543172865442,0.05296227983316711]","[-1,-1,-1]","[0.11501654653588333,0.10299524369366034]","[1,1,1]","[-0.1301568308226897,-0.029804774280644437]","[1,1,1]","[0.18508815263196163,-0.059226906289575845]","[-1,-1,-1]","[-0.17403321292240753,0.08627443237351264]","[1,1,1]","[0.16813790444170215,0.013744580604348187]","[1,1,1]","[0.06307757639341531,0.11750431194335023]","[1,1,1]","[0.05636283394551666,-0.040822743433771964]","[1,1,1]","[-0.10229210820710737,0.1297916142898033]","[1,1,1]","[0.06342486607390768,-0.18962010960182119]","[1,1,1]","[-0.12676564087253042,-0.12206749488063762]","[1,1,1]","[0.1341401297266452,-0.013624049157337646]","[1,1,1]","[0.040455811006504916,0.0044752423854618785]","[1,1,1]","[-0.01963379764089684,0.00319051572133323]","[1,1,1]","[0.08787516303156595,-0.007673452667123898]","[-1,-1,-1]","[0.09723725800247267,0.03920133058267185]","[1,1,1]","[-0.13515862065736498,0.04630715854052737]","[1,1,1]","[-0.07515895663388587,-0.14935271894382796]","[1,1,1]","[-0.07657473937138146,0.1737457821557288]","[1,1,1]","[-0.13636181566547773,-0.08175009542531426]","[1,1,1]","[0.15721581280548347,0.11937263844995709]","[1,1,1]","[-0.04293276592633368,-0.04025647024897668]","[1,1,1]","[0.11559975747870979,-0.08708969648377737]","[1,1,1]","[0.001149753983987549,0.12423509656419701]","[1,1,1]","[-0.08691004784417247,0.09216696848277443]","[1,1,1]","[0.007964563683243112,-0.031788561084906526]","[1,1,1]","[-0.19668260524110792,0.0022417544010387997]","[1,1,1]","[0.02,0.02]",326.9557,0,31,31,209,1,,,,,,,
,,,,,,,616ff0dbee6ec2aa5875e5cf,682f0fda633c76280214f3ca,2025-05-22_13h52.52.793,cuing_paradigm_dot,2024.1.5,Linux x86_64,59.88023952,682d573fa47f1360d1451895,,,,,,,,,,,326.9564,327.4551,,,327.7079,328.5043,right,0.7809,,,,,,,,,0.6,,,,,,327.4552,327.7079,328.5045,"[0.08947584384132522,0.13056580217325278]","[1,1,1]","[0.14586550159876407,0.12285856230250682]","[-1,-1,-1]","[0.026541860263770728,0.14171453438920795]","[1,1,1]","[-0.0078984116375767,0.0820758088697346]","[1,1,1]","[-0.005691771529061594,-0.14695917345794976]","[1,1,1]","[-0.035122182524195085,-0.004945079801486111]","[-1,-1,-1]","[0.0039397102496512675,-0.03426770778057715]","[-1,-1,-1]","[0.16782642010452922,0.08008473982480525]","[-1,-1,-1]","[0.056654883266932805,0.028292522864460108]","[1,1,1]","[-0.17408766518234364,-0.051999244322879494]","[1,1,1]","[-0.10501599389755452,0.14970641092720816]","[-1,-1,-1]","[-0.040282728758558435,-0.17110773052876874]","[-1,-1,-1]","[-0.04884585908193749,0.12524113749222254]","[1,1,1]","[-0.11489219822507518,-0.03565161812178237]","[-1,-1,-1]","[-0.08001528606068276,0.015686635901440534]","[1,1,1]","[-0.009822526899003946,-0.08577757056977073]","[1,1,1]","[0.04637539652251537,-0.035383027344461436]","[1,1,1]","[-0.1712869717742456,0.0968964149144432]","[-1,-1,-1]","[0.1366707311280862,-0.028736429147272834]","[1,1,1]","[-0.1546801988897219,-0.007283785799123875]","[1,1,1]","[-0.08910855017547267,-0.12994310826630232]","[1,1,1]","[-0.16712607000021798,0.03494823672057334]","[-1,-1,-1]","[0.10855814505593898,-0.13329160535665205]","[-1,-1,-1]","[0.08327480791916665,-0.07333602370071257]","[-1,-1,-1]","[-0.051259570972113984,-0.07257031878853815]","[1,1,1]","[-0.13445619937815773,-0.09124498300672323]","[1,1,1]","[0.011743998545755212,0.19179860940013713]","[1,1,1]","[0.11898036287518535,0.04997099206339129]","[1,1,1]","[0.07640530250071129,-0.1655564690510235]","[-1,-1,-1]","[-0.06858620218600935,0.0635026574109706]","[-1,-1,-1]","[0.17053177828893823,-0.07802531581562945]","[1,1,1]","[0.03366114025583116,-0.07440133047605729]","[1,1,1]","[0.02,0.02]",329.6022,0,32,32,178,1,,,,,,,
,,,,,,,616ff0dbee6ec2aa5875e5cf,682f0fda633c76280214f3ca,2025-05-22_13h52.52.793,cuing_paradigm_dot,2024.1.5,Linux x86_64,59.88023952,682d573fa47f1360d1451895,,,,,,,,,,,329.6029,330.1018,,,330.3522,330.9512,right,0.5832,,,,,,,,,0.5,,,,,,330.1019,330.3522,330.9513,"[0.02476886080738671,-0.03118644966105547]","[1,1,1]","[-0.04338003965868735,-0.027172652367553157]","[-1,-1,-1]","[-0.1365643328600222,-0.105697679916647]","[-1,-1,-1]","[0.10084049626310032,-0.035196666464093175]","[1,1,1]","[0.06774274786457471,0.18707547814536138]","[1,1,1]","[-0.10444329862190993,0.11415325361095678]","[1,1,1]","[-0.1420137068481123,0.03245336313084382]","[-1,-1,-1]","[0.05641123713908741,0.13603019570621197]","[1,1,1]","[-0.13137794590196442,0.07763077017170426]","[1,1,1]","[0.14359293534098627,-0.054983779941792495]","[-1,-1,-1]","[0.0948898288494099,0.06764428080105613]","[-1,-1,-1]","[-0.06524522091143252,-0.15468543774571913]","[-1,-1,-1]","[-0.11120230685039721,-0.049838330397149695]","[-1,-1,-1]","[-0.17463995248423117,-0.06590046615672362]","[-1,-1,-1]","[-0.03821329408818298,0.09482153407920235]","[1,1,1]","[-0.010084924321636025,-0.19183206673738404]","[-1,-1,-1]","[-0.11126303797323096,-0.16105443346806483]","[-1,-1,-1]","[-0.03067404589820061,0.17460785911475157]","[-1,-1,-1]","[-0.03602976677367516,-0.06713949351738423]","[1,1,1]","[0.040105411660013614,-0.13672708357281]","[1,1,1]","[0.02263526870814504,0.03921544093116876]","[1,1,1]","[-0.07492478455667657,0.14388436354674208]","[-1,-1,-1]","[-0.09457648696255658,0.017875989063725242]","[1,1,1]","[-0.047766656694189,0.05493553233871725]","[-1,-1,-1]","[0.08100073206852632,-0.11741337073469177]","[1,1,1]","[-0.18377859215869147,0.003683966560861537]","[-1,-1,-1]","[0.03247889237993206,0.08733214485638695]","[1,1,1]","[0.14713367991471973,-0.09590281818528432]","[1,1,1]","[0.08819636520958467,-0.16922664937673249]","[1,1,1]","[0.1134601568153288,0.12850641014744169]","[-1,-1,-1]","[0.11037681510974034,-0.07803671231048676]","[-1,-1,-1]","[0.1629621607047138,0.08399867546825886]","[1,1,1]","[0.02,0.02]",332.0523,0,33,33,106,1,,,,,,,
,,,,,,,616ff0dbee6ec2aa5875e5cf,682f0fda633c76280214f3ca,2025-05-22_13h52.52.793,cuing_paradigm_dot,2024.1.5,Linux x86_64,59.88023952,682d573fa47f1360d1451895,,,,,,,,,,,332.053,332.5501,,,332.801,333.2148,right,0.3989,,,,,,,,,0.5,,,,,,332.5502,332.801,333.2152,"[-0.10960787430178258,-0.07698012234332043]","[-1,-1,-1]","[0.1424975028999007,-0.12737383308505928]","[-1,-1,-1]","[0.05235299035076089,0.09360710373232586]","[1,1,1]","[0.006661954549946284,-0.14323203229317427]","[1,1,1]","[0.1319484921552991,-0.021457025960878923]","[1,1,1]","[-0.06731255924162631,-0.05203575159342001]","[1,1,1]","[-0.1043547968366878,-0.16731582120450522]","[-1,-1,-1]","[-0.14150162255853668,0.06858562041414985]","[-1,-1,-1]","[-0.04484352602728066,-0.088122543804621]","[-1,-1,-1]","[0.0624567500073307,-0.15803423944153358]","[-1,-1,-1]","[-0.1441984032022589,-0.03728916558667489]","[1,1,1]","[-0.008663985912908675,-0.03590370648087791]","[-1,-1,-1]","[-0.040159094376309726,0.02837959387743328]","[1,1,1]","[0.03884740235344193,-0.005178007043318023]","[-1,-1,-1]","[0.034358945240228256,-0.10870785202913713]","[-1,-1,-1]","[0.0879676892426699,-0.05199640291215427]","[1,1,1]","[0.19742360601888936,-0.028381624267831355]","[1,1,1]","[0.14281659476761258,0.11705915558032322]","[1,1,1]","[-0.020209933233213236,0.06727457829260956]","[-1,-1,-1]","[0.04181189889073687,-0.048871264448364204]","[1,1,1]","[0.19125968975432925,0.016415184221846214]","[1,1,1]","[-0.16044397738444477,-0.09474825423290448]","[-1,-1,-1]","[-0.1015098852249013,0.12781195960651495]","[1,1,1]","[-0.08855830420122697,0.17699277441644076]","[1,1,1]","[0.10410876183095456,0.05080574654118457]","[-1,-1,-1]","[0.029618538256523344,-0.18255042052536571]","[-1,-1,-1]","[-0.01566062467068509,-0.19495565986134705]","[1,1,1]","[-0.03160929630543076,0.12506844638937425]","[-1,-1,-1]","[0.0928791819018689,0.14316898333132266]","[1,1,1]","[-0.03643756134635354,0.19421504920932062]","[1,1,1]","[0.09768464057789739,-0.11089937145606979]","[-1,-1,-1]","[0.09930430196889371,0.09203922980371992]","[-1,-1,-1]","[0.02,0.02]",334.3141,0,34,34,118,1,,,,,,,
,,,,,,,616ff0dbee6ec2aa5875e5cf,682f0fda633c76280214f3ca,2025-05-22_13h52.52.793,cuing_paradigm_dot,2024.1.5,Linux x86_64,59.88023952,682d573fa47f1360d1451895,,,,,,,,,,,334.315,334.8135,,,335.0652,335.9118,left,0.8321,,,,,,,,,0.5,,,,,,334.8136,335.065,335.912,"[0.11869647696185334,-0.09259064473984507]","[-1,-1,-1]","[-0.13346148724441964,-0.02858005382140482]","[1,1,1]","[-0.08294194358267697,-0.056413756800057606]","[1,1,1]","[-0.013806043226990675,-0.032669822685281485]","[-1,-1,-1]","[-0.16042246994209175,-0.07278111223833529]","[1,1,1]","[-0.05847121704803474,0.13871990388807975]","[-1,-1,-1]","[-0.09057936592758428,0.10232212609512416]","[-1,-1,-1]","[0.034928698631996165,0.17381145145003724]","[-1,-1,-1]","[0.06805597904031009,-0.0038992572381238507]","[-1,-1,-1]","[0.08211160392203858,0.1600658201070047]","[1,1,1]","[-0.08166224322340589,-0.0030652453306418276]","[-1,-1,-1]","[-0.059917088869116106,-0.14998368204969284]","[-1,-1,-1]","[0.11531558003910218,0.06974957542553564]","[-1,-1,-1]","[-0.09801125712523763,-0.10864042810569693]","[-1,-1,-1]","[-0.0065969436171649685,0.17480065711587806]","[-1,-1,-1]","[-0.12032473822322133,0.05786634806507183]","[1,1,1]","[0.058369381386979495,-0.15161174865235844]","[1,1,1]","[0.19640337020299267,0.0003130084609659843]","[1,1,1]","[-0.0475040796195982,-0.08229266289644806]","[1,1,1]","[0.15342342742323717,0.10281612615547267]","[-1,-1,-1]","[0.0642554424786958,0.08121934171031021]","[-1,-1,-1]","[-0.010658790383851478,0.042006915661011036]","[1,1,1]","[-0.12369057750086267,-0.1432691328657623]","[-1,-1,-1]","[-0.019036636872970015,0.09701685164830388]","[-1,-1,-1]","[-0.1657636623663331,0.07041334229451694]","[1,1,1]","[-0.0521857169228011,0.18595899995089346]","[1,1,1]","[-0.1829692090371213,0.019553823320905307]","[1,1,1]","[0.11314563449487933,-0.015499628697216047]","[1,1,1]","[0.011654444741900312,-0.12544421521491583]","[-1,-1,-1]","[-0.1846449789322502,-0.02624291925827313]","[1,1,1]","[0.00483607720909104,-0.17895644491091348]","[1,1,1]","[0.01811828763937823,0.0077359753036950335]","[1,1,1]","[0.02,0.02]",337.0113,0,35,35,90,1,,,,,,,
,,,,,,,616ff0dbee6ec2aa5875e5cf,682f0fda633c76280214f3ca,2025-05-22_13h52.52.793,cuing_paradigm_dot,2024.1.5,Linux x86_64,59.88023952,682d573fa47f1360d1451895,,,,,,,,,,,337.0121,337.5114,,,337.7616,338.2541,left,0.4793,,,,,,,,,0.9,,,,,,337.5116,337.7615,338.2543,"[-0.16452113742002414,-0.0536571729049937]","[1,1,1]","[-0.027248583929668842,0.16571238488966766]","[1,1,1]","[0.008472608197402231,-0.026716485513690526]","[1,1,1]","[0.06976539538866419,0.07144128606408987]","[1,1,1]","[-0.03795259140439685,-0.10371437917762198]","[1,1,1]","[-0.11049521333786613,-0.13085307740730745]","[1,1,1]","[-0.1986779071994641,0.01915988155339347]","[1,1,1]","[0.03132686231479556,-0.10623555051198402]","[1,1,1]","[-0.1713856803913399,-0.10008694005722948]","[1,1,1]","[0.19471384979059791,0.0164932925740596]","[1,1,1]","[-0.004610153012889944,-0.1376643044020303]","[-1,-1,-1]","[-0.09427920180155988,0.06112816338032858]","[1,1,1]","[-0.11544554779497138,-0.016423898630787786]","[1,1,1]","[0.17036176017835222,-0.025450937029993723]","[1,1,1]","[0.12526103956203846,-0.1101589651465218]","[1,1,1]","[0.03649483857907039,0.003639889603699407]","[1,1,1]","[0.13624397523037263,0.059451002052787034]","[-1,-1,-1]","[-0.09595835428223747,0.10356454847790733]","[1,1,1]","[-0.10507615161472983,-0.061313251983495236]","[1,1,1]","[-0.06962750625560056,-0.13132354935389298]","[1,1,1]","[-0.0429610561581642,-0.043052611677469925]","[1,1,1]","[0.0020577277925722523,0.13595776939323886]","[-1,-1,-1]","[0.06821026867426182,0.1374049343357271]","[1,1,1]","[0.0577401232374752,-0.13831615449086093]","[1,1,1]","[0.08376081777976296,-0.02205592366806733]","[1,1,1]","[0.07685187381368547,-0.06888699800002447]","[1,1,1]","[0.06501189130941898,0.1887143260065706]","[1,1,1]","[0.008860233521010192,0.04497979018860153]","[1,1,1]","[0.13555950670674857,-0.06918977139976427]","[1,1,1]","[-0.06025415767065364,0.028584483955913894]","[1,1,1]","[-0.13629610869572073,0.07493350810313894]","[1,1,1]","[0.007065912835466603,0.0928247775583831]","[1,1,1]","[0.02,0.02]",339.3581,0,36,36,208,1,,,,,,,
,,,,,,,616ff0dbee6ec2aa5875e5cf,682f0fda633c76280214f3ca,2025-05-22_13h52.52.793,cuing_paradigm_dot,2024.1.5,Linux x86_64,59.88023952,682d573fa47f1360d1451895,,,,,,,,,,,339.3589,339.8589,,,340.1099,341.0392,left,0.9139,,,,,,,,,0.55,,,,,,339.859,340.1099,341.0393,"[-0.14723641550771324,0.07951419279746913]","[1,1,1]","[0.07542519722567814,-0.09944773450013354]","[1,1,1]","[-0.09402592035151834,-0.09708097662426365]","[1,1,1]","[0.045763752668217694,0.017664433356752777]","[1,1,1]","[-0.008877391233175424,0.021160755277536]","[-1,-1,-1]","[0.1127687481856051,-0.05085492847147486]","[1,1,1]","[-0.008426430792366517,0.06169571535458192]","[-1,-1,-1]","[0.0026933390775029497,-0.0495938886976836]","[1,1,1]","[-0.08037630751356473,0.003429897471206821]","[1,1,1]","[-0.07851556618865813,0.07490905289564535]","[1,1,1]","[-0.1278372605375054,-0.0612312208071644]","[1,1,1]","[-0.14006927717175446,-0.1395567609226995]","[-1,-1,-1]","[0.04701081591647671,0.12215910667387972]","[-1,-1,-1]","[-0.18847031365719347,0.05265898307889473]","[1,1,1]","[0.1633165266575495,0.08506970324579034]","[-1,-1,-1]","[0.010326305335867432,-0.13263761918804373]","[1,1,1]","[-0.11752388458444493,0.1083321875605764]","[-1,-1,-1]","[-0.029603006541864884,-0.18197514021750935]","[-1,-1,-1]","[0.0632796910217858,-0.02383396349493528]","[1,1,1]","[-0.05734175784669666,0.1545736258430282]","[-1,-1,-1]","[-0.013529928800871003,0.13981199025156582]","[1,1,1]","[0.18471977123794295,0.040604094164741825]","[1,1,1]","[-0.1528534152409235,0.01986250589100162]","[1,1,1]","[0.1863801658752155,-0.055453592961290994]","[-1,-1,-1]","[0.09762533630255482,0.14026532201061903]","[-1,-1,-1]","[0.13132417600208937,-0.09945386827089528]","[-1,-1,-1]","[0.0296565799300777,0.16670405012480596]","[-1,-1,-1]","[-0.08721358395349536,-0.16180371356772846]","[1,1,1]","[-0.16819124015495646,-0.04971310494637022]","[1,1,1]","[0.050614841017366984,-0.18767633938996858]","[-1,-1,-1]","[-0.052814134461719286,-0.09693559531806578]","[-1,-1,-1]","[0.14330517637234494,0.033356988801745216]","[1,1,1]","[0.02,0.02]",342.1395,0,37,37,123,1,,,,,,,
,,,,,,,616ff0dbee6ec2aa5875e5cf,682f0fda633c76280214f3ca,2025-05-22_13h52.52.793,cuing_paradigm_dot,2024.1.5,Linux x86_64,59.88023952,682d573fa47f1360d1451895,,,,,,,,,,,342.1402,342.6381,,,342.8889,343.2705,right,0.3633,,,,,,,,,0.4,,,,,,342.6382,342.8889,343.2706,"[0.028905587177178796,0.052522429133246375]","[-1,-1,-1]","[-0.133901367352259,0.034857510251034125]","[-1,-1,-1]","[-0.0816941228080812,0.02037878305576109]","[-1,-1,-1]","[-0.0014567074801326541,0.1006391861786351]","[-1,-1,-1]","[0.11515827427765851,-0.059934862338112654]","[-1,-1,-1]","[-0.06761707031268997,-0.13713357607814317]","[-1,-1,-1]","[-0.10151428917616821,-0.054285002092694074]","[1,1,1]","[0.13091831953004154,0.04071549537213978]","[-1,-1,-1]","[0.03959611797390221,0.14151245647605382]","[-1,-1,-1]","[0.1569800706143139,0.08111487041353613]","[1,1,1]","[-0.08499593625378023,0.14042727709836586]","[-1,-1,-1]","[0.00359531910274442,-0.016856303392122428]","[-1,-1,-1]","[-0.04738662648037864,-0.06374608486915827]","[1,1,1]","[0.10276926848308415,-0.09916558569356923]","[-1,-1,-1]","[-0.07427199325708667,0.09796822662634767]","[1,1,1]","[-0.15156553155566127,-0.11952395174691284]","[1,1,1]","[0.032501446617405096,-0.19043473560857954]","[1,1,1]","[0.04139244988350783,-0.13520240315708038]","[-1,-1,-1]","[-0.13882402233450927,0.09409021030648552]","[-1,-1,-1]","[-0.0019427389679857537,-0.10369833539933884]","[1,1,1]","[0.06548174462138905,-0.04978106405811272]","[-1,-1,-1]","[-0.13895335729543373,-0.025112866770218366]","[1,1,1]","[-0.1833332224374592,-0.01690707199105809]","[-1,-1,-1]","[-0.1897100612817784,0.053966822241662014]","[-1,-1,-1]","[0.15354302991583138,-0.008424902082873147]","[1,1,1]","[0.09378680065892293,0.06622311198704992]","[1,1,1]","[0.07875067933065037,0.028615962044587103]","[1,1,1]","[-0.18197962502909382,-0.07357738627981983]","[1,1,1]","[-0.03762235840549273,-0.18706577857956624]","[1,1,1]","[0.16659479325274545,-0.07155273449792723]","[-1,-1,-1]","[-0.07353089721154622,-0.09605179374614675]","[-1,-1,-1]","[0.038801995647074664,0.18839586003969006]","[-1,-1,-1]","[0.02,0.02]",344.3697,0,38,38,31,1,,,,,,,
,,,,,,,616ff0dbee6ec2aa5875e5cf,682f0fda633c76280214f3ca,2025-05-22_13h52.52.793,cuing_paradigm_dot,2024.1.5,Linux x86_64,59.88023952,682d573fa47f1360d1451895,,,,,,,,,,,344.3705,344.8635,,,345.1034,345.6311,right,0.5115,,,,,,,,,0.4,,,,,,344.8635,345.1033,345.6312,"[0.07876962481547302,-0.16825279258817843]","[-1,-1,-1]","[0.13022656484282116,0.1496190424015229]","[-1,-1,-1]","[0.17869560541793428,0.0648047363386159]","[1,1,1]","[0.021579396473275995,0.051808696068483526]","[1,1,1]","[0.09907587590610194,0.022679188602532926]","[1,1,1]","[-0.10485450231340857,0.0753720072174234]","[-1,-1,-1]","[-0.09753640625675612,-0.01926292594639393]","[-1,-1,-1]","[0.056679435768166864,0.18079155166969094]","[1,1,1]","[0.08423589170338334,0.12027357945251488]","[1,1,1]","[-0.15900715247837852,-0.04919732148866293]","[1,1,1]","[0.056954327151181254,-0.06972960084997855]","[-1,-1,-1]","[-0.016159663480192935,-0.17208903659331604]","[1,1,1]","[-0.06970921843960608,-0.14734484953646618]","[-1,-1,-1]","[-0.1462373821093547,0.052301557946044]","[-1,-1,-1]","[-0.12127028416365677,0.14465445998950904]","[1,1,1]","[-0.02729522783151459,-0.04329645502199165]","[-1,-1,-1]","[-0.1346527613527989,-0.09601302194723184]","[-1,-1,-1]","[-0.10851465178754709,-0.060095887837269754]","[1,1,1]","[-0.05573083768505477,0.15489120179136215]","[-1,-1,-1]","[0.16153350761078125,-0.05950945488773802]","[-1,-1,-1]","[0.1335256814548225,0.10901836261943931]","[-1,-1,-1]","[0.1325097701025962,0.06849631453029717]","[1,1,1]","[0.01706755428736159,0.1508677550004513]","[-1,-1,-1]","[-0.01904075400726942,0.1921295942669199]","[1,1,1]","[-0.014345459875082334,0.09263465710931701]","[-1,-1,-1]","[-0.03184502126922362,0.006771579245528697]","[1,1,1]","[0.03178167014938532,-0.12894025971227074]","[-1,-1,-1]","[0.1985267605308256,-0.0072045506035099014]","[-1,-1,-1]","[0.10193474326742022,-0.0740558757877678]","[-1,-1,-1]","[0.06995325929913161,-0.021726678585581746]","[-1,-1,-1]","[0.042508615778769715,0.10264311487734562]","[1,1,1]","[0.07894033148496862,0.06218202653087813]","[-1,-1,-1]","[0.02,0.02]",346.7335,0,39,39,54,1,,,,,,,
,,,,,,,616ff0dbee6ec2aa5875e5cf,682f0fda633c76280214f3ca,2025-05-22_13h52.52.793,cuing_paradigm_dot,2024.1.5,Linux x86_64,59.88023952,682d573fa47f1360d1451895,,,,,,,,,,,346.7343,347.2355,,,347.4862,347.866,right,0.3656,,,,,,,,,0.1,,,,,,347.2356,347.4861,347.8661,"[0.1850591572679567,-0.0729080605012828]","[-1,-1,-1]","[-0.06538395813770038,0.060062236746227356]","[-1,-1,-1]","[0.1012104000826124,-0.04514824969151967]","[1,1,1]","[-0.06767630249041888,0.16612448510996564]","[-1,-1,-1]","[0.1815413587378789,0.06705796005646679]","[-1,-1,-1]","[0.04477942857621068,0.10594601334291838]","[-1,-1,-1]","[0.16358317760192237,0.01816817126730882]","[-1,-1,-1]","[0.06698394961600297,-0.13436905042128922]","[-1,-1,-1]","[-0.025815599852351465,-0.17377069912808538]","[-1,-1,-1]","[0.03900808209610675,0.15472221880695192]","[-1,-1,-1]","[0.04746624584738638,-0.04102868624245928]","[-1,-1,-1]","[-0.025632099027510947,0.1846178597577537]","[-1,-1,-1]","[0.10917525464190331,0.06237070009620803]","[1,1,1]","[0.04511882469670701,-0.08271168365946911]","[-1,-1,-1]","[-0.012679409771617887,0.0014200589823581988]","[-1,-1,-1]","[-0.04030157484342282,-0.0513355910849771]","[-1,-1,-1]","[0.1084120144507567,0.11310815280602698]","[1,1,1]","[-0.17934391916289888,0.005755569266676402]","[-1,-1,-1]","[0.03700508056754679,0.05159526807412738]","[-1,-1,-1]","[0.13526707464267276,-0.06697323752074616]","[-1,-1,-1]","[0.08135709631640514,0.0006864524156720171]","[-1,-1,-1]","[-0.06355601552388446,0.12632210550408973]","[-1,-1,-1]","[-0.07549175281351095,-0.16211106909874262]","[-1,-1,-1]","[0.0007386525745023709,-0.11529198843326419]","[-1,-1,-1]","[0.014868701165801801,-0.19294186422905762]","[-1,-1,-1]","[0.18789431252654637,-0.02507617079296415]","[-1,-1,-1]","[-0.18087234497715685,-0.08441921077941505]","[-1,-1,-1]","[-0.10141075877009816,-0.0192599651184001]","[-1,-1,-1]","[0.09293141721773474,-0.16810858870255926]","[-1,-1,-1]","[-0.003579189736511603,0.1407631844064806]","[-1,-1,-1]","[-0.053544978535158515,-0.01030287853565909]","[-1,-1,-1]","[0.03229687847342589,0.194389878245648]","[-1,-1,-1]","[0.02,0.02]",348.9636,0,40,40,10,1,,,,,,,
,,,,,,,616ff0dbee6ec2aa5875e5cf,682f0fda633c76280214f3ca,2025-05-22_13h52.52.793,cuing_paradigm_dot,2024.1.5,Linux x86_64,59.88023952,682d573fa47f1360d1451895,,,,,,,,,,,348.9643,349.4647,,,349.7151,350.0807,left,0.3486,,,,,,,,,0.55,,,,,,349.4647,349.715,350.0807,"[-0.08780478034456235,0.16907540955069247]","[1,1,1]","[0.023120005467458394,0.08606032853682966]","[-1,-1,-1]","[0.16058323981153644,0.07233529470580087]","[-1,-1,-1]","[0.12714589906988896,0.1311604218034095]","[-1,-1,-1]","[0.10906046432426586,-0.09851277541984613]","[1,1,1]","[0.09607080773202685,0.04072223162313497]","[1,1,1]","[-0.07533542980788768,0.016498199282460716]","[1,1,1]","[0.13876636136671364,0.008553891662320793]","[1,1,1]","[-0.007096005225910662,0.19978593751781898]","[-1,-1,-1]","[0.08252683997906397,-0.011702788243949921]","[-1,-1,-1]","[0.03854748255516588,-0.04039016888032142]","[1,1,1]","[-0.13113807573691097,-0.03587376585163145]","[-1,-1,-1]","[-0.16080033462430254,0.04848361296941089]","[1,1,1]","[0.034794430092592615,-0.08023890989848594]","[1,1,1]","[0.06437085658826265,0.07765023657358665]","[-1,-1,-1]","[0.006321935747162517,-0.146369610413545]","[-1,-1,-1]","[0.11509250614864648,-0.13943483544784957]","[-1,-1,-1]","[-0.07440151264990685,0.06786842047109116]","[1,1,1]","[-0.12475991793993876,0.07975556042769391]","[1,1,1]","[-0.05798893639613264,-0.18769484578234402]","[1,1,1]","[-0.10492375651682843,-0.10759452818759944]","[-1,-1,-1]","[0.00244047565422449,0.1571590802358714]","[1,1,1]","[-0.17375221728100756,-0.023559611187856332]","[1,1,1]","[0.05711380904087849,0.15898998433524508]","[1,1,1]","[0.03323596796371136,0.004160369104213092]","[-1,-1,-1]","[-0.053279562435086615,-0.14021440704728855]","[-1,-1,-1]","[-0.028069995700942398,-0.0403879707791049]","[1,1,1]","[0.09555846363169207,-0.17488020842035185]","[-1,-1,-1]","[0.05739896484840768,-0.1550563303871597]","[-1,-1,-1]","[-0.003687014337935076,-0.18820088301699522]","[1,1,1]","[-0.1532656764950676,-0.07098192814627766]","[1,1,1]","[-0.030467102223499944,0.01795398561562197]","[1,1,1]","[0.02,0.02]",351.1783,0,41,41,137,1,,,,,,,
,,,,,,,616ff0dbee6ec2aa5875e5cf,682f0fda633c76280214f3ca,2025-05-22_13h52.52.793,cuing_paradigm_dot,2024.1.5,Linux x86_64,59.88023952,682d573fa47f1360d1451895,,,,,,,,,,,351.1792,351.6779,,,351.9297,352.2783,right,0.3337,,,,,,,,,0.45,,,,,,351.6781,351.9297,352.2784,"[-0.1991307123272678,-0.015027895628702673]","[-1,-1,-1]","[-0.08329285647219312,0.032744431868512794]","[1,1,1]","[0.1730448919792748,0.024191705327819328]","[1,1,1]","[-0.033498484027311856,-0.19137481597405234]","[1,1,1]","[0.04580439276220179,0.01767657609238249]","[1,1,1]","[-0.12268126836156787,-0.004713844123335206]","[-1,-1,-1]","[-0.08804989249102212,-0.14523104434507483]","[-1,-1,-1]","[0.06746048893444068,0.13139315503663443]","[1,1,1]","[0.11520216913316385,-0.06075655249068482]","[-1,-1,-1]","[-0.16549667657276276,0.09242567775271764]","[-1,-1,-1]","[-0.020901583156819847,-0.03699180500890172]","[-1,-1,-1]","[-0.01764365995866119,0.19659655149211136]","[1,1,1]","[-0.15576910600932456,-0.09440973430397823]","[-1,-1,-1]","[0.025673858954489835,-0.09505872452370157]","[1,1,1]","[0.1333113294457737,-0.13919048290193675]","[-1,-1,-1]","[0.14023169442377673,0.05996472424389376]","[-1,-1,-1]","[-0.08166771244816437,-0.06071160647332322]","[-1,-1,-1]","[0.11613556185176838,0.14964836848157323]","[-1,-1,-1]","[0.18650953274463358,-0.029495899600384443]","[1,1,1]","[0.1675603157777189,-0.06724256159784445]","[1,1,1]","[-0.09284513201618219,0.11034460087334191]","[1,1,1]","[-0.12464405236990207,0.15255490214461978]","[-1,-1,-1]","[0.08382002654652271,-0.014459527985644193]","[-1,-1,-1]","[0.053269073067089306,-0.15715388831162364]","[-1,-1,-1]","[-0.02837073214464876,0.11966234042066555]","[1,1,1]","[-0.036817961071501405,0.011832963048853187]","[1,1,1]","[0.10834340111233652,-0.10210727056080006]","[1,1,1]","[-0.003469251048724199,-0.1590705317723836]","[-1,-1,-1]","[0.006762810440115272,0.07247339207467728]","[1,1,1]","[-0.15408794542320356,0.04159143344191418]","[-1,-1,-1]","[-0.06739884460689045,0.14154093033889653]","[-1,-1,-1]","[0.06001484907904904,0.1707277322566128]","[-1,-1,-1]","[0.02,0.02]",353.3696,0,42,42,85,1,,,,,,,
,,,,,,,616ff0dbee6ec2aa5875e5cf,682f0fda633c76280214f3ca,2025-05-22_13h52.52.793,cuing_paradigm_dot,2024.1.5,Linux x86_64,59.88023952,682d573fa47f1360d1451895,,,,,,,,,,,353.3706,353.8749,,,354.1139,354.5604,right,0.4336,,,,,,,,,0.4,,,,,,353.875,354.1139,354.5605,"[-0.07968529127270654,0.07751004391989366]","[-1,-1,-1]","[-0.13098910953719275,-0.05674485661283916]","[-1,-1,-1]","[0.06782315865410715,-0.16254150044603743]","[-1,-1,-1]","[0.09804818996186875,0.06244806713834218]","[1,1,1]","[-0.08663135046954233,-0.133060196702978]","[1,1,1]","[0.02316886258918833,0.07909962783194802]","[-1,-1,-1]","[0.13074362837496215,0.03759033244043126]","[1,1,1]","[-0.09795774807336183,-0.09154484681114768]","[-1,-1,-1]","[0.16820738351001954,-0.05610201479452632]","[-1,-1,-1]","[-0.19633877577961256,0.01824400283674735]","[-1,-1,-1]","[-0.05072005024509615,-0.06153815963592013]","[1,1,1]","[-0.14727786600254045,0.08602677973991614]","[1,1,1]","[-0.003998322630610594,0.007010597792653027]","[-1,-1,-1]","[-0.041168538909802245,-0.17909590537440762]","[1,1,1]","[0.13598585396038104,0.12693669797906504]","[-1,-1,-1]","[0.17303139122332045,-0.005908511739075811]","[-1,-1,-1]","[-0.1122619077265753,-0.004450481013851459]","[1,1,1]","[0.07742167801311355,-0.10614552609058797]","[1,1,1]","[-0.10578736794396584,0.1581446317519331]","[-1,-1,-1]","[0.10945987062676545,-0.023556012244841745]","[-1,-1,-1]","[0.020908432370220845,0.19197735542015765]","[1,1,1]","[-0.04717173327355069,-0.016203074088235205]","[1,1,1]","[0.03245254636495432,-0.03662693311862798]","[-1,-1,-1]","[0.008119330942217841,-0.09099413540888582]","[-1,-1,-1]","[-0.04945481066196785,0.15132330723182144]","[-1,-1,-1]","[-0.03705664548288518,-0.1242412758562519]","[-1,-1,-1]","[-0.07416018805046436,0.026674131638801345]","[-1,-1,-1]","[-0.1519536244192349,-0.0180953849467727]","[-1,-1,-1]","[0.017080788409611886,-0.14739598394401468]","[-1,-1,-1]","[0.1345058588803765,-0.10419222222137155]","[1,1,1]","[-0.027699584516593073,0.18678196783293702]","[1,1,1]","[-0.19163605130155661,-0.043005352451238425]","[1,1,1]","[0.02,0.02]",355.6575,0,43,43,45,1,,,,,,,
,,,,,,,616ff0dbee6ec2aa5875e5cf,682f0fda633c76280214f3ca,2025-05-22_13h52.52.793,cuing_paradigm_dot,2024.1.5,Linux x86_64,59.88023952,682d573fa47f1360d1451895,,,,,,,,,,,355.6582,356.1577,,,356.4085,356.9727,left,0.5484,,,,,,,,,0.55,,,,,,356.1577,356.4084,356.9728,"[0.14629942063568768,-0.13578393542596265]","[1,1,1]","[-0.17942126108176104,0.0029816530295932626]","[1,1,1]","[-0.06129544060429921,-0.1755728600770819]","[-1,-1,-1]","[-0.003021076148200026,0.012177577726609705]","[-1,-1,-1]","[-0.022896572914334633,-0.06661428763277658]","[1,1,1]","[-0.12779947323316787,0.055440298914572944]","[1,1,1]","[-0.06291077881064268,0.15483442109651763]","[1,1,1]","[0.035794024472360866,0.07269158835993772]","[1,1,1]","[0.19466257744129767,0.03765025616682407]","[1,1,1]","[0.07930554713684447,-0.038445403827242625]","[-1,-1,-1]","[-0.032418394436677496,0.12646670471072044]","[-1,-1,-1]","[-0.15393151298585803,-0.10115038216943663]","[-1,-1,-1]","[-0.03252919780231813,-0.13829754838957103]","[-1,-1,-1]","[0.021283386942212757,-0.07243926581005422]","[1,1,1]","[0.11106514774305486,-0.08077605456746664]","[-1,-1,-1]","[-0.10078784571309693,-0.03803681912926114]","[1,1,1]","[0.05535859281461843,-0.14743971749582746]","[-1,-1,-1]","[0.08575513007459487,0.09115403942320426]","[1,1,1]","[0.14847877987151148,-0.01637128750040591]","[-1,-1,-1]","[0.006749076488803628,-0.14630394885373071]","[1,1,1]","[-0.10561643494963828,-0.15455633018350332]","[1,1,1]","[-0.17996387858091295,-0.054970232445460905]","[-1,-1,-1]","[0.09415899051283023,0.14603688310074142]","[1,1,1]","[-0.1007257649681135,0.13959748434641872]","[1,1,1]","[0.12840332915055783,0.05193982068562866]","[-1,-1,-1]","[0.0819323035365385,0.012605892979212921]","[-1,-1,-1]","[-0.190863239081663,0.049748636765875064]","[1,1,1]","[0.05371026081542461,0.1263694553917708]","[-1,-1,-1]","[-0.05372393744828662,0.039995462117478384]","[1,1,1]","[-0.10025593621186726,0.09468189010104525]","[1,1,1]","[0.14342444090342044,0.09747820267088028]","[-1,-1,-1]","[-0.09678656249577408,-0.11333760837043505]","[1,1,1]","[0.02,0.02]",358.0747,0,44,44,136,1,,,,,,,
