right,left,explain.started,explain.stopped,key_resp_3.keys,key_resp_3.rt,key_resp_3.duration,participant,session,date,expName,psychopyVersion,OS,frameRate,study_id,explain_2.started,explain_2.stopped,key_resp_4.keys,key_resp_4.rt,key_resp_4.duration,explain_3.started,explain_3.stopped,key_resp_5.keys,key_resp_5.rt,key_resp_5.duration,fixation.started,fixation.stopped,practice.started,practice.stopped,response.started,response.stopped,key_resp.keys,key_resp.rt,key_resp.duration,feedback.started,feedback.stopped,trials_2.thisRepN,trials_2.thisTrialN,trials_2.thisN,trials_2.thisIndex,trials_2.ran,white_ratio,explain_4.started,explain_4.stopped,key_resp_6.keys,key_resp_6.rt,key_resp_6.duration,dotDisplay.started,dotDisplay.stopped,ITI.started,polygon_1.pos,polygon_1.color,polygon_2.pos,polygon_2.color,polygon_3.pos,polygon_3.color,polygon_4.pos,polygon_4.color,polygon_5.pos,polygon_5.color,polygon_6.pos,polygon_6.color,polygon_7.pos,polygon_7.color,polygon_8.pos,polygon_8.color,polygon_9.pos,polygon_9.color,polygon_10.pos,polygon_10.color,polygon_11.pos,polygon_11.color,polygon_12.pos,polygon_12.color,polygon_13.pos,polygon_13.color,polygon_14.pos,polygon_14.color,polygon_15.pos,polygon_15.color,polygon_16.pos,polygon_16.color,polygon_17.pos,polygon_17.color,polygon_18.pos,polygon_18.color,polygon_19.pos,polygon_19.color,polygon_20.pos,polygon_20.color,polygon_21.pos,polygon_21.color,polygon_22.pos,polygon_22.color,polygon_23.pos,polygon_23.color,polygon_24.pos,polygon_24.color,polygon_25.pos,polygon_25.color,polygon_26.pos,polygon_26.color,polygon_27.pos,polygon_27.color,polygon_28.pos,polygon_28.color,polygon_29.pos,polygon_29.color,polygon_30.pos,polygon_30.color,polygon_31.pos,polygon_31.color,polygon_32.pos,polygon_32.color,dot_size,ITI.stopped,trials.thisRepN,trials.thisTrialN,trials.thisN,trials.thisIndex,trials.ran,break_2.started,break_2.stopped,trials_3.thisRepN,trials_3.thisTrialN,trials_3.thisN,trials_3.thisIndex,trials_3.ran
subject chose black,subject chose white,0.0002,19.9474,space,4.9194,,62fd14d7b1e0729dc8aadb79,682f0fbed7e01ca94ba20eb4,2025-05-22_12h53.49.913,cuing_paradigm_dot,2024.1.5,Win32,59.88023952,682d573fa47f1360d1451895,,,,,,,,,,,,,,,,,,,,,,,,,,,,,,,,,,,,,,,,,,,,,,,,,,,,,,,,,,,,,,,,,,,,,,,,,,,,,,,,,,,,,,,,,,,,,,,,,,,,,,,,,,,,,,,,,
,,,,,,,62fd14d7b1e0729dc8aadb79,682f0fbed7e01ca94ba20eb4,2025-05-22_12h53.49.913,cuing_paradigm_dot,2024.1.5,Win32,59.88023952,682d573fa47f1360d1451895,19.9484,51.0239,space,1.0572,,,,,,,,,,,,,,,,,,,,,,,,,,,,,,,,,,,,,,,,,,,,,,,,,,,,,,,,,,,,,,,,,,,,,,,,,,,,,,,,,,,,,,,,,,,,,,,,,,,,,,,,,,,,,
,,,,,,,62fd14d7b1e0729dc8aadb79,682f0fbed7e01ca94ba20eb4,2025-05-22_12h53.49.913,cuing_paradigm_dot,2024.1.5,Win32,59.88023952,682d573fa47f1360d1451895,,,,,,51.0246,55.8063,space,1.756,,,,,,,,,,,,,,,,,,,,,,,,,,,,,,,,,,,,,,,,,,,,,,,,,,,,,,,,,,,,,,,,,,,,,,,,,,,,,,,,,,,,,,,,,,,,,,,,,,,,,,,,
,,,,,,,62fd14d7b1e0729dc8aadb79,682f0fbed7e01ca94ba20eb4,2025-05-22_12h53.49.913,cuing_paradigm_dot,2024.1.5,Win32,59.88023952,682d573fa47f1360d1451895,,,,,,,,,,,55.8527,56.3225,56.3236,56.5744,56.5748,57.4059,right,0.781,,57.4064,58.5053,0,0,0,1,1,0.2,,,,,,,,,,,,,,,,,,,,,,,,,,,,,,,,,,,,,,,,,,,,,,,,,,,,,,,,,,,,,,,,,,,,,,,,,,,,,,,,,,,,,,
,,,,,,,62fd14d7b1e0729dc8aadb79,682f0fbed7e01ca94ba20eb4,2025-05-22_12h53.49.913,cuing_paradigm_dot,2024.1.5,Win32,59.88023952,682d573fa47f1360d1451895,,,,,,,,,,,58.5068,59.005,59.0051,59.2563,59.2564,59.6216,left,0.3561,,59.622,60.7215,0,1,1,0,1,0.8,,,,,,,,,,,,,,,,,,,,,,,,,,,,,,,,,,,,,,,,,,,,,,,,,,,,,,,,,,,,,,,,,,,,,,,,,,,,,,,,,,,,,,
,,,,,,,62fd14d7b1e0729dc8aadb79,682f0fbed7e01ca94ba20eb4,2025-05-22_12h53.49.913,cuing_paradigm_dot,2024.1.5,Win32,59.88023952,682d573fa47f1360d1451895,,,,,,,,,,,,,,,,,,,,,,,,,,,,60.7225,64.3883,space,0.6472,,,,,,,,,,,,,,,,,,,,,,,,,,,,,,,,,,,,,,,,,,,,,,,,,,,,,,,,,,,,,,,,,,,,,,,,,,,,,,,,,,
,,,,,,,62fd14d7b1e0729dc8aadb79,682f0fbed7e01ca94ba20eb4,2025-05-22_12h53.49.913,cuing_paradigm_dot,2024.1.5,Win32,59.88023952,682d573fa47f1360d1451895,,,,,,,,,,,64.4238,64.904,,,65.1566,65.6374,left,0.467,,,,,,,,,0.9,,,,,,64.9054,65.1564,65.6386,"[0.022642880092529374,0.046118611051338666]","[1,1,1]","[-0.08264696416468036,0.06915636325662886]","[1,1,1]","[-0.005905325947153619,-0.1049727255380671]","[-1,-1,-1]","[-0.0194447714626638,0.07416636120267794]","[1,1,1]","[-0.194977762318994,-0.005994862304984914]","[1,1,1]","[0.029361612104667954,0.09348169571415073]","[1,1,1]","[0.16765457313008073,0.07520663967383721]","[1,1,1]","[-0.04201373271171657,-0.01847268033152345]","[1,1,1]","[0.11661711277433857,0.011973595060363645]","[-1,-1,-1]","[-0.1460350437194749,-0.021675224203801614]","[1,1,1]","[-0.06843052979508929,-0.08389996391766281]","[1,1,1]","[-0.14211395543366326,-0.09478608653926983]","[1,1,1]","[0.07571554698390763,0.07295009734002353]","[1,1,1]","[-0.11363194349820471,0.133216120977999]","[1,1,1]","[-0.09911420806779887,0.17169570791528088]","[1,1,1]","[0.015982248704147432,-0.17491464662354422]","[1,1,1]","[-0.05187308261144645,0.1838449102307511]","[1,1,1]","[0.020291278412656707,0.13371427281639944]","[1,1,1]","[0.03712369977086648,-0.1195223199864039]","[1,1,1]","[0.020691688510110554,-0.020265148478083386]","[1,1,1]","[0.11545454543944365,-0.08090737402344293]","[1,1,1]","[-0.1321372582724312,0.039133541789998755]","[-1,-1,-1]","[0.09629174049821614,-0.14619463215550013]","[1,1,1]","[-0.0798042483468533,0.007977257939739413]","[1,1,1]","[-0.05295144478594675,0.12596360901750067]","[1,1,1]","[-0.15321958806184813,0.10872612825040555]","[1,1,1]","[0.17218340044106784,-0.013735976540933366]","[1,1,1]","[-0.18900360873500036,-0.05164432308147304]","[1,1,1]","[0.014470485047028542,0.18160191662359332]","[1,1,1]","[0.06682370857542184,-0.07304524606947568]","[1,1,1]","[0.09292846609703992,0.17210571837486963]","[1,1,1]","[0.14466126286240258,-0.12162799478073562]","[1,1,1]","[0.02,0.02]",66.7374,0,0,0,191,1,,,,,,,
,,,,,,,62fd14d7b1e0729dc8aadb79,682f0fbed7e01ca94ba20eb4,2025-05-22_12h53.49.913,cuing_paradigm_dot,2024.1.5,Win32,59.88023952,682d573fa47f1360d1451895,,,,,,,,,,,66.7384,67.2369,,,67.4881,68.0703,right,0.5673,,,,,,,,,0.5,,,,,,67.2371,67.4881,68.0704,"[0.045334857968174734,-0.020372474538443514]","[-1,-1,-1]","[0.14892859468639,-0.01564538640700223]","[1,1,1]","[-0.13405582742094957,-0.12737009335090038]","[1,1,1]","[0.15933808056320045,0.06972554191056743]","[-1,-1,-1]","[-0.02397502029173238,-0.11029500398481618]","[1,1,1]","[-0.06670381005753752,0.021417412271882916]","[-1,-1,-1]","[-0.11813527308029223,0.07750718272841989]","[-1,-1,-1]","[0.0011757013397809876,0.04358561694063969]","[1,1,1]","[0.03405783484505108,-0.059032927059839355]","[1,1,1]","[0.0670548772987346,-0.13795812843461258]","[-1,-1,-1]","[0.0909181223203504,-0.04079811575522419]","[-1,-1,-1]","[0.07481822590689803,0.14890297545120676]","[1,1,1]","[0.1197479462277489,0.08472382278228306]","[1,1,1]","[-0.07293355719350555,0.14629146528075923]","[1,1,1]","[0.02783697554098789,-0.1898542908207762]","[1,1,1]","[0.17971210640176638,-0.04389567619295505]","[-1,-1,-1]","[-0.0761483202213956,-0.08837806747200216]","[-1,-1,-1]","[-0.006102114362254902,-0.0342925062900721]","[1,1,1]","[-0.1308873083732775,-0.08638057744478884]","[-1,-1,-1]","[-0.06396751178968726,0.06830053327350295]","[1,1,1]","[0.10576719471763997,0.045213856474992396]","[-1,-1,-1]","[-0.08675759476279042,-0.1535029253033288]","[-1,-1,-1]","[0.12661302542226444,-0.11756821669603827]","[1,1,1]","[-0.022459861042003634,0.1949870341469175]","[-1,-1,-1]","[-0.031915350699663676,-0.1717849119481566]","[1,1,1]","[-0.1909667993790301,0.05002828261519374]","[1,1,1]","[-0.018764431087008066,0.1406793083018416]","[-1,-1,-1]","[0.13734456530549688,-0.06834427015069797]","[-1,-1,-1]","[0.033866652542190484,0.17401972388939435]","[-1,-1,-1]","[0.07938543017932186,0.0963557837875927]","[1,1,1]","[-0.14143429655641346,-0.04675022594179551]","[1,1,1]","[0.1495586622477583,0.12563458642570893]","[-1,-1,-1]","[0.02,0.02]",69.17,0,1,1,108,1,,,,,,,
,,,,,,,62fd14d7b1e0729dc8aadb79,682f0fbed7e01ca94ba20eb4,2025-05-22_12h53.49.913,cuing_paradigm_dot,2024.1.5,Win32,59.88023952,682d573fa47f1360d1451895,,,,,,,,,,,69.1708,69.67,,,69.9212,70.3533,right,0.4186,,,,,,,,,0.45,,,,,,69.67,69.9211,70.3535,"[0.1585026422207698,0.014198999862705931]","[1,1,1]","[-0.07252677774769464,0.08171503009880875]","[-1,-1,-1]","[-0.06157947565068276,-0.049451382252594815]","[-1,-1,-1]","[0.028913026654755966,0.07281953034010842]","[1,1,1]","[0.15189737627280206,0.1201169757079847]","[1,1,1]","[0.004921787796884606,-0.13422689845376998]","[-1,-1,-1]","[0.12153908783156092,-0.1327020704049843]","[1,1,1]","[-0.09200060467475535,0.12852929266978202]","[-1,-1,-1]","[-0.197143555167476,-0.026380211279678118]","[1,1,1]","[0.041007444090408095,-0.062409269871791795]","[-1,-1,-1]","[0.08745602016688878,0.025900953876492192]","[-1,-1,-1]","[0.03230909033675695,0.021343339760898007]","[-1,-1,-1]","[0.07998132609491108,-0.030620446088183737]","[-1,-1,-1]","[0.15074076466462216,-0.05385140210171821]","[-1,-1,-1]","[0.09386498864944559,-0.17307630650160266]","[1,1,1]","[-0.0352048726979896,-0.18965455086406724]","[-1,-1,-1]","[0.08699671747695854,0.13120283845150624]","[-1,-1,-1]","[-0.13654121666589633,0.145948743146144]","[-1,-1,-1]","[-0.184044325488641,-0.07135717992775842]","[-1,-1,-1]","[0.006507520878535599,0.11770416701262683]","[1,1,1]","[-0.06341709585419987,0.16028462430884097]","[1,1,1]","[-0.06608756252688178,-0.09410079651970872]","[-1,-1,-1]","[0.12380387744002302,-0.023354734133594422]","[1,1,1]","[-0.14906537187806018,0.07365044477235985]","[-1,-1,-1]","[-0.06002548083466992,0.042229519696348326]","[-1,-1,-1]","[0.11579552816385273,0.09559169534693199]","[1,1,1]","[-0.10236442066283852,-0.14674309164317942]","[1,1,1]","[-0.01733937381229447,-0.09349031096513295]","[-1,-1,-1]","[-0.19264091140320097,0.03009636786365328]","[-1,-1,-1]","[-0.11317135173512796,0.0010357669486819343]","[1,1,1]","[-0.035539227317364565,-0.001776770584550549]","[1,1,1]","[0.043825646278689685,0.18796777446922713]","[1,1,1]","[0.02,0.02]",71.453,0,2,2,78,1,,,,,,,
,,,,,,,62fd14d7b1e0729dc8aadb79,682f0fbed7e01ca94ba20eb4,2025-05-22_12h53.49.913,cuing_paradigm_dot,2024.1.5,Win32,59.88023952,682d573fa47f1360d1451895,,,,,,,,,,,71.4541,71.9533,,,72.2038,72.653,left,0.4395,,,,,,,,,0.6,,,,,,71.9535,72.2037,72.6531,"[0.11712471182370957,-0.07871866770865245]","[1,1,1]","[-0.18847115040719722,-0.06278029440597709]","[1,1,1]","[-0.04862409017287852,0.19362517562225975]","[1,1,1]","[-0.08386621310335117,0.09687535083108226]","[1,1,1]","[-0.033943982413679664,0.11406711619583941]","[-1,-1,-1]","[0.0034125857921224008,-0.03410313696287182]","[-1,-1,-1]","[-0.13485429808184526,0.06605225219833051]","[1,1,1]","[-0.09114836474299413,-0.07750196064538019]","[-1,-1,-1]","[-0.15955492800890347,0.11829306066415846]","[-1,-1,-1]","[-0.04082259746959615,-0.1714611544734138]","[-1,-1,-1]","[-0.09792460625145623,-0.17090714711780955]","[-1,-1,-1]","[0.18975431626328074,0.05231328008620518]","[1,1,1]","[0.17825881434835344,0.010660204611378347]","[-1,-1,-1]","[-0.022723191905468173,0.05965385246269082]","[-1,-1,-1]","[0.119121780181465,-0.15337579213848213]","[1,1,1]","[0.07448185802805979,-0.07971282075609178]","[-1,-1,-1]","[0.09170050189767445,0.024062836548338396]","[-1,-1,-1]","[-0.03465363512202105,-0.05101410045549623]","[-1,-1,-1]","[-0.0827102299084578,0.04443985699510793]","[1,1,1]","[-0.07168684548460387,0.14769746369755865]","[1,1,1]","[-0.13493182167795503,0.021720356107142926]","[1,1,1]","[-0.04406507856626027,0.017787518616844314]","[1,1,1]","[-0.15249317186456746,-0.025658751996437665]","[1,1,1]","[0.04324026854440662,-0.16204538287143982]","[1,1,1]","[0.0837080045626329,0.07117958831788997]","[-1,-1,-1]","[0.014234863785215218,0.14361982600807358]","[1,1,1]","[-0.005143237578708952,0.1983462400124257]","[-1,-1,-1]","[0.1277679773903776,0.09287963283496195]","[1,1,1]","[0.19052467200586315,-0.04937329263214285]","[1,1,1]","[0.07032976264660548,0.15241867261683345]","[1,1,1]","[-0.08293548701578532,-0.020196049869085148]","[1,1,1]","[0.030927430915228836,0.04389615858637459]","[1,1,1]","[0.02,0.02]",73.7525,0,3,3,166,1,,,,,,,
,,,,,,,62fd14d7b1e0729dc8aadb79,682f0fbed7e01ca94ba20eb4,2025-05-22_12h53.49.913,cuing_paradigm_dot,2024.1.5,Win32,59.88023952,682d573fa47f1360d1451895,,,,,,,,,,,73.7533,74.2526,,,74.5071,74.8536,right,0.3278,,,,,,,,,0.1,,,,,,74.2527,74.5069,74.8538,"[0.18858586936507504,-0.06078006661665107]","[-1,-1,-1]","[0.06053495025439946,0.11525897665626302]","[-1,-1,-1]","[0.11600065611118567,-0.09667024609971964]","[-1,-1,-1]","[0.062213930025894,-0.09677446483017209]","[-1,-1,-1]","[0.12571133822850172,0.07271671178636488]","[-1,-1,-1]","[-0.09646656683466703,0.12167719202017625]","[1,1,1]","[-0.10556672978189245,-0.04594496997100327]","[-1,-1,-1]","[-0.08784036384992015,-0.16002953492130723]","[-1,-1,-1]","[-0.018852745459023185,0.16488381673132924]","[-1,-1,-1]","[-0.105608966984007,0.03663358231750755]","[-1,-1,-1]","[-0.03507826803527731,-0.012404424262364353]","[-1,-1,-1]","[-0.17808557271605116,-0.027550329050773877]","[-1,-1,-1]","[0.06729485377903371,0.186174821495608]","[-1,-1,-1]","[0.06379651423979282,-0.03145547500747798]","[-1,-1,-1]","[0.17524501361483738,-0.021188357643103138]","[-1,-1,-1]","[0.015958353254334468,-0.0155618290617326]","[1,1,1]","[-0.009656700504515928,-0.11640816242435077]","[-1,-1,-1]","[-0.16704916721615173,-0.06790314422316923]","[-1,-1,-1]","[0.02191156999996379,0.19688234711529523]","[-1,-1,-1]","[-0.053357015185068114,0.100098255041884]","[-1,-1,-1]","[0.00040436629433915214,-0.1741878529713175]","[-1,-1,-1]","[0.13745795016528214,-0.13125595095075376]","[-1,-1,-1]","[-0.1612478445008233,0.08460815795077498]","[-1,-1,-1]","[-0.013001684785568146,-0.05037233975515451]","[-1,-1,-1]","[0.058655355334139556,0.06662488332061425]","[-1,-1,-1]","[-0.1819249732097933,0.03322097455597]","[-1,-1,-1]","[0.13491382521711223,-0.03058425545236577]","[-1,-1,-1]","[0.03483469777217164,0.1588004739550789]","[-1,-1,-1]","[0.1069326647450177,0.009926771908378427]","[-1,-1,-1]","[0.055573219872728626,-0.18852091015086286]","[-1,-1,-1]","[-0.0284994786206647,0.03772310686504394]","[-1,-1,-1]","[-0.13536434439373612,-0.018612064339827553]","[1,1,1]","[0.02,0.02]",75.9526,0,4,4,14,1,,,,,,,
,,,,,,,62fd14d7b1e0729dc8aadb79,682f0fbed7e01ca94ba20eb4,2025-05-22_12h53.49.913,cuing_paradigm_dot,2024.1.5,Win32,59.88023952,682d573fa47f1360d1451895,,,,,,,,,,,75.9539,76.4529,,,76.7072,77.2536,left,0.5288,,,,,,,,,0.45,,,,,,76.453,76.707,77.254,"[-0.07721600456908247,0.030464342656284216]","[-1,-1,-1]","[-0.04757299947754369,-0.13219009387036038]","[-1,-1,-1]","[0.014985704997451159,-0.1466278470878211]","[-1,-1,-1]","[-0.17823358261230382,-0.0892902580954807]","[1,1,1]","[0.09254801412118435,0.13788593714541478]","[-1,-1,-1]","[-0.08925089326954032,0.0749508310007983]","[-1,-1,-1]","[0.07878127814825864,-0.05523399036403432]","[-1,-1,-1]","[0.0956276665458985,0.02318556107569913]","[1,1,1]","[-0.04630184991133931,0.16991048537100156]","[1,1,1]","[0.14322003484957666,-0.10599598671528865]","[1,1,1]","[0.17714490327428312,0.0032691351648119838]","[1,1,1]","[-0.03722443661480485,-0.011775356374724969]","[-1,-1,-1]","[0.08741395601878053,-0.12165584060515248]","[-1,-1,-1]","[-0.0781851928121303,-0.164089994714571]","[1,1,1]","[-0.18684504740685517,-0.0036233212380491486]","[-1,-1,-1]","[-0.14336515744840847,0.1276432938272246]","[1,1,1]","[-0.11274991623010219,0.007382333886710919]","[-1,-1,-1]","[-0.083717939114877,-0.06075519946858838]","[-1,-1,-1]","[-0.17103152156170418,0.05881049989902327]","[1,1,1]","[0.03526696612551069,0.0846377750397067]","[-1,-1,-1]","[-0.14364844467993756,-0.13669645823292706]","[1,1,1]","[0.00034996789859789956,0.00825768102899352]","[1,1,1]","[0.005438432146398573,0.12504203396888425]","[1,1,1]","[0.02793039997808057,0.17834176268582141]","[1,1,1]","[-0.0343266869089624,0.030294099848903182]","[-1,-1,-1]","[0.07948788806658852,0.18147245774007761]","[-1,-1,-1]","[0.027253214609596083,-0.0587560586017059]","[-1,-1,-1]","[0.08327382362288463,0.069424843313581]","[-1,-1,-1]","[-0.015542425317121187,-0.09823736368207489]","[-1,-1,-1]","[0.18194631623760307,-0.06881413761994253]","[1,1,1]","[-0.14411689038878303,-0.04483914997008563]","[-1,-1,-1]","[0.13973721474443,-0.019099166301887613]","[1,1,1]","[0.02,0.02]",78.3524,0,5,5,87,1,,,,,,,
,,,,,,,62fd14d7b1e0729dc8aadb79,682f0fbed7e01ca94ba20eb4,2025-05-22_12h53.49.913,cuing_paradigm_dot,2024.1.5,Win32,59.88023952,682d573fa47f1360d1451895,,,,,,,,,,,78.3538,78.8523,,,79.1074,79.5698,left,0.4386,,,,,,,,,0.5,,,,,,78.8525,79.1073,79.57,"[-0.012701481858452114,0.09777354425833056]","[-1,-1,-1]","[0.1257477045732799,0.10622599474311871]","[1,1,1]","[0.1784304793151297,0.03277826908179491]","[-1,-1,-1]","[0.05282242978669124,-0.1300305237912789]","[-1,-1,-1]","[-0.09701337072247028,-0.01598496044864436]","[-1,-1,-1]","[0.024084339099050167,-0.08383173680264046]","[-1,-1,-1]","[0.04822905463236299,-0.031463854952965574]","[1,1,1]","[0.17059638713926734,-0.0692621741221051]","[1,1,1]","[-0.05709401075420245,0.05198926760043275]","[-1,-1,-1]","[-0.14100643429004092,-0.12475978822455779]","[1,1,1]","[-0.05491550095999248,-0.17549045295330423]","[1,1,1]","[-0.04030842688396631,-0.11724571762658698]","[1,1,1]","[-0.11376289374024733,0.14114902645006272]","[-1,-1,-1]","[0.12717547748535768,0.05054543263637254]","[1,1,1]","[0.08584494788363016,0.07155440702516337]","[-1,-1,-1]","[-0.18102547434728375,-0.045774215420137224]","[1,1,1]","[0.0018085411969039728,-0.015428587923648155]","[1,1,1]","[0.08292081074916119,-0.1649378683694066]","[-1,-1,-1]","[-0.016716281387055092,0.18197522648516884]","[1,1,1]","[0.19795479498536195,-0.013710786397552339]","[-1,-1,-1]","[-0.06345042041801537,0.16647899544624462]","[-1,-1,-1]","[-0.1763725011037533,0.0887216950861424]","[1,1,1]","[0.16753638307106677,0.07911102595142532]","[1,1,1]","[0.12472494511112961,0.14798681130669974]","[-1,-1,-1]","[0.09967489114203622,-0.12534686444512325]","[-1,-1,-1]","[-0.004549876096065455,-0.1410303473060691]","[1,1,1]","[0.15007037800496484,-0.131881202532923]","[1,1,1]","[-0.10071642198579879,-0.07380262547665661]","[-1,-1,-1]","[-0.17866196330333334,0.030997869302081458]","[1,1,1]","[-0.015600487898775819,-0.05994949592065636]","[1,1,1]","[0.11036666822421969,-0.08099017115343252]","[-1,-1,-1]","[-0.10289529645188215,-0.14168854551000573]","[-1,-1,-1]","[0.02,0.02]",80.6687,0,6,6,109,1,,,,,,,
,,,,,,,62fd14d7b1e0729dc8aadb79,682f0fbed7e01ca94ba20eb4,2025-05-22_12h53.49.913,cuing_paradigm_dot,2024.1.5,Win32,59.88023952,682d573fa47f1360d1451895,,,,,,,,,,,80.6701,81.1687,,,81.4248,81.9185,left,0.4712,,,,,,,,,0.6,,,,,,81.1694,81.4247,81.9188,"[0.19396924682290964,0.03814569887419451]","[1,1,1]","[0.1025764251771604,-0.022351395755063643]","[1,1,1]","[0.10325920849339461,0.047662607616873506]","[1,1,1]","[0.008026877418839869,0.17698582814313732]","[-1,-1,-1]","[-0.1180872954881157,-0.060671847760076884]","[1,1,1]","[0.0032796824869897874,0.0826815168608421]","[1,1,1]","[0.02976425310762717,-0.03665064929329904]","[-1,-1,-1]","[-0.12647662920560798,-0.11828264824085273]","[1,1,1]","[-0.05929586947293146,-0.04871678456122602]","[-1,-1,-1]","[-0.13469599176722086,0.12576726736309965]","[1,1,1]","[0.0986778453102408,0.1330481142923436]","[-1,-1,-1]","[0.15984080724171332,0.0909677692188489]","[1,1,1]","[0.028303805533304808,-0.18109352013001592]","[-1,-1,-1]","[-0.011752417283643618,-0.19691444109034262]","[1,1,1]","[0.08363260310391467,-0.07822052960938373]","[1,1,1]","[-0.1604401914954408,-0.036931421409520014]","[-1,-1,-1]","[0.012880786183664847,0.0019620417992415387]","[-1,-1,-1]","[-0.018720589436229635,-0.04246436675696061]","[1,1,1]","[-0.036258234625250414,-0.0018523442315932122]","[1,1,1]","[-0.07682588558333872,0.025943951192122745]","[-1,-1,-1]","[-0.08703715149225008,-0.13948365020673134]","[1,1,1]","[-0.10201441840218461,-0.014755540009185044]","[1,1,1]","[0.07805481658146364,0.08405557207875786]","[1,1,1]","[-0.08625686067870132,0.08048285360873737]","[-1,-1,-1]","[0.1615045010843134,0.006535488611371298]","[-1,-1,-1]","[-0.06565344183937787,0.13266387040427446]","[1,1,1]","[0.07754915924789386,-0.15398452080158384]","[1,1,1]","[0.07554311533485132,0.0106055515804681]","[1,1,1]","[-0.0067219984029247785,-0.08158354168338808]","[1,1,1]","[0.13560167680417332,-0.07524920464114401]","[-1,-1,-1]","[0.022491961802563163,-0.11077732168890375]","[-1,-1,-1]","[-0.024397366305037013,0.042935941745686]","[-1,-1,-1]","[0.02,0.02]",83.0187,0,7,7,167,1,,,,,,,
,,,,,,,62fd14d7b1e0729dc8aadb79,682f0fbed7e01ca94ba20eb4,2025-05-22_12h53.49.913,cuing_paradigm_dot,2024.1.5,Win32,59.88023952,682d573fa47f1360d1451895,,,,,,,,,,,83.02,83.5184,,,83.7687,84.1178,right,0.3401,,,,,,,,,0.1,,,,,,83.5185,83.7686,84.1183,"[0.17460423903740765,-0.015310583450758213]","[-1,-1,-1]","[-0.03149976314787276,0.02567676237319215]","[-1,-1,-1]","[-0.14860071516308604,-0.06974163104763274]","[-1,-1,-1]","[-0.049224215072783815,0.06211763754464266]","[-1,-1,-1]","[-0.14844714015804314,-0.006684563142073891]","[-1,-1,-1]","[0.02770924465958246,0.12081383886317264]","[-1,-1,-1]","[-0.13743022869906185,0.09822854017411665]","[-1,-1,-1]","[-0.11731882551841569,0.05198910014500244]","[-1,-1,-1]","[0.10711941697059428,-0.026884361972812746]","[-1,-1,-1]","[-0.06248982948554868,-0.0773669309591814]","[-1,-1,-1]","[0.07431404817934578,0.09986686118409722]","[-1,-1,-1]","[0.03429914590116275,-0.02434705204619735]","[-1,-1,-1]","[0.05992158532467631,0.00912245736014459]","[-1,-1,-1]","[0.09547774728361068,-0.1342777398098587]","[-1,-1,-1]","[-0.015384847873936135,-0.18276802769073067]","[-1,-1,-1]","[-0.08011098009032672,0.17216233234071918]","[1,1,1]","[-0.16823609434554693,-0.10774506148814246]","[-1,-1,-1]","[-0.07994523359835307,-0.02300756922644135]","[-1,-1,-1]","[0.0988427692287469,0.16048574202808197]","[-1,-1,-1]","[0.032482740598639835,-0.19117565287722307]","[-1,-1,-1]","[-0.08396076126932897,-0.15500986442220308]","[1,1,1]","[0.15207102692772534,-0.10256614667715601]","[-1,-1,-1]","[0.052236658848390266,0.16608317613012985]","[-1,-1,-1]","[-0.004310139047359189,-0.04707420688602399]","[-1,-1,-1]","[0.027719744698385326,-0.10626389728132855]","[-1,-1,-1]","[0.19491343658316554,0.03602413527821169]","[-1,-1,-1]","[0.14888665317355293,0.02632120429968428]","[-1,-1,-1]","[-0.1915180609151488,0.050640618462750274]","[-1,-1,-1]","[0.016099536463792443,0.06047680914567812]","[-1,-1,-1]","[-0.04516103232944066,-0.11795667985649456]","[-1,-1,-1]","[0.14784268933813946,0.09995154998429312]","[1,1,1]","[0.143960144192262,-0.04770019222202963]","[-1,-1,-1]","[0.02,0.02]",85.2173,0,8,8,16,1,,,,,,,
,,,,,,,62fd14d7b1e0729dc8aadb79,682f0fbed7e01ca94ba20eb4,2025-05-22_12h53.49.913,cuing_paradigm_dot,2024.1.5,Win32,59.88023952,682d573fa47f1360d1451895,,,,,,,,,,,85.2182,85.7175,,,85.9685,86.484,left,0.5015,,,,,,,,,0.55,,,,,,85.7175,85.9682,86.4841,"[-0.05046105996730439,-0.10573316349027269]","[1,1,1]","[0.17007487690167694,-0.08891100538807019]","[-1,-1,-1]","[-0.11223661005907533,-0.0781402324846913]","[1,1,1]","[0.13649748572570666,0.016824034851679322]","[1,1,1]","[0.12423430986978468,0.1345564027081308]","[1,1,1]","[-0.011822125297005798,-0.14618028565784857]","[1,1,1]","[-0.07989956560866873,0.14885039296557143]","[1,1,1]","[0.18044090485831307,0.0757639015138795]","[-1,-1,-1]","[0.13561228794366056,-0.1382681782465981]","[-1,-1,-1]","[-0.053389485484980174,0.0135585495269701]","[1,1,1]","[0.008377517531572445,0.00854143341335851]","[-1,-1,-1]","[-0.0949235036134269,-0.1329202856207278]","[-1,-1,-1]","[0.05683683193209187,0.187796963521348]","[-1,-1,-1]","[0.0822183654981993,-0.004156187228855213]","[-1,-1,-1]","[-0.06471725662061203,-0.03858811617220495]","[-1,-1,-1]","[-0.007550469065340146,0.10558801899755475]","[1,1,1]","[0.00819596633315789,0.14906620585855918]","[1,1,1]","[0.04685789449975802,0.06559271386660533]","[1,1,1]","[-0.07290902603675836,-0.17539598166013]","[1,1,1]","[0.06317410468228664,-0.16755797360838695]","[-1,-1,-1]","[0.039138281829925105,-0.08824552558097275]","[1,1,1]","[0.09829401470819248,0.03484218041055856]","[-1,-1,-1]","[-0.10564523206966474,0.005367372714506015]","[-1,-1,-1]","[-0.1652942008083085,-0.10050884761516611]","[1,1,1]","[0.10396387526338463,-0.06529790147898525]","[1,1,1]","[-0.1623231291028955,-0.023730111787365334]","[1,1,1]","[-0.1343168772162274,0.14587710807505383]","[-1,-1,-1]","[0.14341052431748894,-0.026499122405112697]","[1,1,1]","[-0.12263609869242915,0.07619075084098517]","[-1,-1,-1]","[-0.15793983086927005,0.02911360397859858]","[-1,-1,-1]","[-0.07362241839569188,0.05970208713413344]","[1,1,1]","[-0.16737523016937325,0.0835490688167714]","[1,1,1]","[0.02,0.02]",87.5836,0,9,9,126,1,,,,,,,
,,,,,,,62fd14d7b1e0729dc8aadb79,682f0fbed7e01ca94ba20eb4,2025-05-22_12h53.49.913,cuing_paradigm_dot,2024.1.5,Win32,59.88023952,682d573fa47f1360d1451895,,,,,,,,,,,87.5847,88.0835,,,88.3353,88.6835,left,0.335,,,,,,,,,0.9,,,,,,88.0836,88.3352,88.6838,"[-0.005132455059616951,0.05396234731380451]","[1,1,1]","[-0.11523487805075482,0.03815296998967725]","[1,1,1]","[-0.015356840342955397,-0.07181492576845987]","[1,1,1]","[0.07316640811901208,0.0042418435926598825]","[1,1,1]","[-0.057581407169326415,-0.08629218154412857]","[1,1,1]","[0.018070256497727793,0.0045061978175730075]","[1,1,1]","[0.08136423287128415,0.11280285634829068]","[1,1,1]","[0.10980278523948721,-0.16051031621647996]","[1,1,1]","[-0.08520029903894259,-0.14002830556846318]","[1,1,1]","[0.049583799560401313,0.05501509462826598]","[1,1,1]","[0.18196161688104714,-0.014808703088343107]","[1,1,1]","[0.04666819178543743,0.17652962626573568]","[1,1,1]","[0.010394498621288887,-0.18873534105759954]","[-1,-1,-1]","[-0.04756777404712111,0.03561087384511126]","[-1,-1,-1]","[0.1096847607246869,-0.08098655140757616]","[1,1,1]","[-0.11244683353143543,-0.04859446323010084]","[1,1,1]","[0.04837732380549444,-0.14655568250666853]","[1,1,1]","[-0.1510616934606595,0.08296102627659768]","[-1,-1,-1]","[-0.08746204370613449,0.16138881930555493]","[1,1,1]","[0.08343208095070005,-0.04888592203076012]","[1,1,1]","[0.09332009524898749,0.16485622919745946]","[1,1,1]","[0.13098819281738688,0.013607540086213316]","[1,1,1]","[-0.165662623811231,-0.08537868039259516]","[1,1,1]","[0.15110516891376288,-0.09446777639172123]","[1,1,1]","[-0.05629747734269839,-0.0239183891914283]","[1,1,1]","[0.13929180445444642,-0.04515597861145859]","[1,1,1]","[0.008142791916187641,-0.10668659259757186]","[1,1,1]","[0.17294009294261345,0.02955790063718093]","[1,1,1]","[0.07214198324513409,-0.17938653834997]","[1,1,1]","[-0.016915939621843717,0.13081714533528396]","[1,1,1]","[-0.046026897521902074,-0.16550155000134786]","[1,1,1]","[0.13596904375909405,0.13309942930886562]","[1,1,1]","[0.02,0.02]",89.7833,0,10,10,190,1,,,,,,,
,,,,,,,62fd14d7b1e0729dc8aadb79,682f0fbed7e01ca94ba20eb4,2025-05-22_12h53.49.913,cuing_paradigm_dot,2024.1.5,Win32,59.88023952,682d573fa47f1360d1451895,,,,,,,,,,,89.7843,90.2833,,,90.5377,90.8509,right,0.2939,,,,,,,,,0.1,,,,,,90.2834,90.5376,90.8512,"[-0.003930769360314256,0.13229157831686064]","[-1,-1,-1]","[-0.058746458611768096,-0.0403591088637491]","[-1,-1,-1]","[0.045198565173792817,-0.1830850772116872]","[-1,-1,-1]","[0.12424380845252532,-0.06783690407296696]","[-1,-1,-1]","[0.00007100313368984668,0.05726269838699014]","[-1,-1,-1]","[-0.09545838996052532,-0.17236564829670503]","[-1,-1,-1]","[0.1455354945513836,-0.12742571084362106]","[-1,-1,-1]","[-0.00152499968820411,-0.11745111169490458]","[-1,-1,-1]","[0.1594370886808517,0.11930399782755588]","[-1,-1,-1]","[-0.068442492814633,0.12018292893879115]","[-1,-1,-1]","[-0.1676935685039564,0.03521375006701383]","[-1,-1,-1]","[-0.10795507952004335,0.049965174139371155]","[-1,-1,-1]","[-0.012077515923080045,-0.02731808521386039]","[1,1,1]","[-0.11021162398600771,0.11943766469718273]","[-1,-1,-1]","[-0.10656976541443203,-0.08457510162708384]","[-1,-1,-1]","[0.16547893759647161,-0.06468930314056612]","[1,1,1]","[-0.15386982415726916,0.12366225513187283]","[-1,-1,-1]","[-0.055063051732832005,-0.12415818153550263]","[-1,-1,-1]","[0.05149463035956074,0.04900868902434074]","[-1,-1,-1]","[-0.06955297875492429,0.17928762431747255]","[-1,-1,-1]","[0.14216047688129538,-0.0009940945126059942]","[-1,-1,-1]","[0.02931613841706909,-0.032235340134336696]","[-1,-1,-1]","[0.18870799342855332,0.026732471571033645]","[1,1,1]","[0.07856762089142223,-0.14156749940873034]","[-1,-1,-1]","[0.11786850626127379,0.09285088279786365]","[-1,-1,-1]","[-0.05592092927666369,-0.18718206415525004]","[-1,-1,-1]","[0.028432900258611716,-0.08398450910416892]","[-1,-1,-1]","[-0.19277834284786202,-0.022022079045093693]","[-1,-1,-1]","[0.08535412856922925,0.15285792473633816]","[-1,-1,-1]","[-0.14531245470490417,0.07547507046211802]","[-1,-1,-1]","[0.06550109588840511,0.09302800688335058]","[-1,-1,-1]","[-0.09576845459254234,-0.025178330280440774]","[-1,-1,-1]","[0.02,0.02]",91.9501,0,11,11,17,1,,,,,,,
,,,,,,,62fd14d7b1e0729dc8aadb79,682f0fbed7e01ca94ba20eb4,2025-05-22_12h53.49.913,cuing_paradigm_dot,2024.1.5,Win32,59.88023952,682d573fa47f1360d1451895,,,,,,,,,,,91.9512,92.4504,,,92.7051,92.9837,right,0.2546,,,,,,,,,0.1,,,,,,92.4508,92.705,92.984,"[0.0906674176507351,0.15020100705135953]","[-1,-1,-1]","[-0.06446909224199064,0.07095037866126079]","[1,1,1]","[0.07032455923406024,-0.05812978117751952]","[-1,-1,-1]","[-0.052378602196384606,0.11869470050530367]","[-1,-1,-1]","[0.05086039213382417,0.0974210665054769]","[-1,-1,-1]","[-0.17800906967830196,0.054155528277752184]","[1,1,1]","[0.025085461466852393,0.005543718759747323]","[-1,-1,-1]","[0.06232554193957202,0.042234236650155084]","[-1,-1,-1]","[0.14981243816944248,0.05591883673617034]","[-1,-1,-1]","[-0.014281105565440691,-0.04972522212773991]","[-1,-1,-1]","[-0.12406793399659033,0.0685787863342558]","[-1,-1,-1]","[-0.13523773555909832,-0.10339270504550128]","[-1,-1,-1]","[0.11170359961251515,-0.07875418642780747]","[-1,-1,-1]","[-0.0722378417326671,0.18064376928767273]","[-1,-1,-1]","[0.1286883783908948,0.008358483281294234]","[-1,-1,-1]","[-0.03888043506815753,-0.15644853045218782]","[-1,-1,-1]","[0.10256785000552908,-0.13103724074066675]","[-1,-1,-1]","[-0.17403783035496379,-0.08230988007770931]","[-1,-1,-1]","[0.01025072719679489,-0.13676062570648354]","[-1,-1,-1]","[-0.14070534285020642,0.003867979097056265]","[-1,-1,-1]","[0.021446678740328927,0.14820169149356271]","[-1,-1,-1]","[-0.10578868558217758,-0.15567398208753644]","[-1,-1,-1]","[-0.11127827954062276,-0.045204564495635396]","[-1,-1,-1]","[-0.02832494652893644,0.009177851778087142]","[-1,-1,-1]","[-0.1887973642419119,-0.008311601095492307]","[-1,-1,-1]","[0.010491157499457338,0.19547198553657666]","[-1,-1,-1]","[0.0714713254441372,-0.012784296317684017]","[1,1,1]","[-0.11461054887140545,0.12165467364239356]","[-1,-1,-1]","[-0.010384352514996273,0.0590018889378913]","[-1,-1,-1]","[-0.09555374383263741,0.009782542263273077]","[-1,-1,-1]","[0.013552511970378161,-0.18740928452653824]","[-1,-1,-1]","[0.1732113979779369,0.011814918329237967]","[-1,-1,-1]","[0.02,0.02]",94.0832,0,12,12,18,1,,,,,,,
,,,,,,,62fd14d7b1e0729dc8aadb79,682f0fbed7e01ca94ba20eb4,2025-05-22_12h53.49.913,cuing_paradigm_dot,2024.1.5,Win32,59.88023952,682d573fa47f1360d1451895,,,,,,,,,,,94.0845,94.5831,,,94.8373,95.2001,right,0.3434,,,,,,,,,0.1,,,,,,94.5832,94.8372,95.2002,"[-0.07097534269741297,-0.16895327463945775]","[-1,-1,-1]","[0.04247068338825997,0.12342340722927199]","[-1,-1,-1]","[-0.09277960728950038,0.06574822497957743]","[-1,-1,-1]","[0.14048816302648662,-0.0703042499264944]","[-1,-1,-1]","[0.1459904717167183,0.0024279225415407197]","[-1,-1,-1]","[0.08371043630160649,0.04902541315734993]","[1,1,1]","[-0.011316731113147691,-0.025501400324747465]","[-1,-1,-1]","[-0.015664710923163534,0.044902608293265055]","[-1,-1,-1]","[-0.08650196708817064,-0.053269899286214895]","[-1,-1,-1]","[0.027108005025655656,-0.11667246477571577]","[-1,-1,-1]","[-0.07168670968564038,0.16992148586042938]","[-1,-1,-1]","[-0.17480156165332092,0.09297526140632371]","[1,1,1]","[0.11657186278480529,0.12252715694183816]","[-1,-1,-1]","[0.00024010688005221786,0.15739823196353459]","[-1,-1,-1]","[-0.014500434173559184,-0.15520665094365194]","[-1,-1,-1]","[-0.07088806150833324,-0.10639198772544368]","[-1,-1,-1]","[0.19665663815236267,0.01618938199100097]","[-1,-1,-1]","[0.0625644408831663,-0.1537072170207943]","[-1,-1,-1]","[-0.17509923417909576,0.04248467615146169]","[-1,-1,-1]","[-0.11158654491259529,-0.08887572537427395]","[-1,-1,-1]","[-0.1260099637546288,0.010699353817298146]","[-1,-1,-1]","[0.04646040773788508,-0.0698693918843217]","[-1,-1,-1]","[0.035972597238941584,-0.19267756029171973]","[-1,-1,-1]","[0.1487372357775169,-0.11906515166588527]","[-1,-1,-1]","[-0.08736104455768269,0.1306191717531485]","[-1,-1,-1]","[-0.1389108296480879,-0.12201003923830592]","[-1,-1,-1]","[-0.15841478961697292,-0.012923070460717183]","[-1,-1,-1]","[0.09329797657617137,-0.0715575767982522]","[-1,-1,-1]","[0.1691933382613179,0.05346205881638565]","[-1,-1,-1]","[0.04694724652600459,0.013653075925948758]","[1,1,1]","[-0.006529220774862312,0.11560635516454362]","[-1,-1,-1]","[0.1019434608233436,0.006166267985465788]","[-1,-1,-1]","[0.02,0.02]",96.2997,0,13,13,28,1,,,,,,,
,,,,,,,62fd14d7b1e0729dc8aadb79,682f0fbed7e01ca94ba20eb4,2025-05-22_12h53.49.913,cuing_paradigm_dot,2024.1.5,Win32,59.88023952,682d573fa47f1360d1451895,,,,,,,,,,,96.3009,96.7996,,,97.0535,97.4997,right,0.4263,,,,,,,,,0.4,,,,,,96.7998,97.0535,97.4999,"[0.042263305743731515,-0.14671481275397105]","[1,1,1]","[-0.023350943301999695,0.09525789555552236]","[1,1,1]","[0.1242876380205652,-0.019718817150735167]","[1,1,1]","[-0.07277492655977329,0.1062161881573196]","[1,1,1]","[0.03128404298460136,-0.054748019895207466]","[1,1,1]","[-0.07794523329976895,0.15858009712709922]","[1,1,1]","[0.17400342234934593,0.029514988608745442]","[-1,-1,-1]","[-0.057610979865320745,-0.12341609187445789]","[-1,-1,-1]","[-0.1758733123367126,0.04550957784454073]","[-1,-1,-1]","[0.08694597268455831,-0.0037530304325723465]","[-1,-1,-1]","[-0.07033094290168565,-0.04132036156895067]","[1,1,1]","[0.011817144393028018,0.024299130953309815]","[-1,-1,-1]","[0.10844137789315426,0.10584332220032251]","[-1,-1,-1]","[0.07486758720489989,0.18507775258984102]","[1,1,1]","[0.01792002399129771,0.09706303404249211]","[-1,-1,-1]","[0.04840883336011543,0.05704018510737105]","[1,1,1]","[-0.038288137956712376,0.02163690050940055]","[-1,-1,-1]","[0.13219536886216648,-0.13375291577913223]","[-1,-1,-1]","[-0.11271431279572407,-0.10056077381677926]","[1,1,1]","[0.09217469287782884,-0.09336658108321419]","[-1,-1,-1]","[0.037727669984363214,0.14224521046207145]","[-1,-1,-1]","[-0.13781921447962184,0.020427175920499807]","[1,1,1]","[-0.16032426370941696,-0.09042362576906508]","[-1,-1,-1]","[-0.01890877169993541,-0.09809675813263628]","[-1,-1,-1]","[-0.17862042997745142,-0.009238393055560009]","[1,1,1]","[0.12836909889340145,0.04225473392249513]","[-1,-1,-1]","[0.11730582074454575,0.1588013290761908]","[-1,-1,-1]","[-0.06742749436496161,-0.08395617375431566]","[-1,-1,-1]","[-0.09039402817032151,0.057491833865402145]","[-1,-1,-1]","[-0.12208366854351005,-0.04215807008407621]","[-1,-1,-1]","[-0.11463987920777516,-0.1490823459150938]","[-1,-1,-1]","[0.16704408816775615,-0.049154164259657816]","[1,1,1]","[0.02,0.02]",98.599,0,14,14,49,1,,,,,,,
,,,,,,,62fd14d7b1e0729dc8aadb79,682f0fbed7e01ca94ba20eb4,2025-05-22_12h53.49.913,cuing_paradigm_dot,2024.1.5,Win32,59.88023952,682d573fa47f1360d1451895,,,,,,,,,,,98.6004,99.0992,,,99.3499,99.7822,left,0.4209,,,,,,,,,0.45,,,,,,99.0994,99.3498,99.7824,"[0.044813313042725185,0.17761489839302874]","[1,1,1]","[-0.03120345564235734,0.09397770196208007]","[-1,-1,-1]","[0.11080690086859908,-0.11001114638022544]","[-1,-1,-1]","[-0.1862599828524727,0.0374175789930089]","[-1,-1,-1]","[0.03716472069540735,-0.19388223009596048]","[1,1,1]","[0.05029045405401438,0.04535516156325057]","[-1,-1,-1]","[0.14115536768998152,0.008793450090562323]","[-1,-1,-1]","[-0.09028981144221296,-0.015615754786627587]","[-1,-1,-1]","[-0.061439998976230946,0.1455334995600135]","[1,1,1]","[0.014622929389237095,0.0076641155276080545]","[1,1,1]","[0.07511944586310018,-0.17485458555582545]","[-1,-1,-1]","[0.0012766893755384522,0.19305008951629787]","[1,1,1]","[-0.015842231253206808,-0.13738376084583462]","[1,1,1]","[0.07459601155641209,-0.019767981062504127]","[-1,-1,-1]","[0.10446101990057993,0.11426730320364784]","[-1,-1,-1]","[-0.10296849631269751,0.1620406315969871]","[1,1,1]","[-0.08852836598245716,0.09503121366586065]","[-1,-1,-1]","[-0.05069772108675732,-0.03456705804305997]","[-1,-1,-1]","[-0.16063178962835375,-0.06885308419971195]","[-1,-1,-1]","[-0.05004962960538774,-0.10360930831018725]","[-1,-1,-1]","[-0.11563756388437471,-0.13820505359163723]","[-1,-1,-1]","[-0.1400002672843375,0.03664616452190173]","[1,1,1]","[0.18815007886270357,-0.04179149730924697]","[1,1,1]","[0.0014536950297417209,0.1241876967426077]","[1,1,1]","[0.05763644011625339,-0.06004234088356288]","[-1,-1,-1]","[-0.048285549922230726,-0.17454113300135063]","[1,1,1]","[-0.034950337312770426,0.03907615792634907]","[1,1,1]","[0.02032743523529022,-0.15513358804429045]","[1,1,1]","[-0.1137717886179096,-0.08037140311034142]","[-1,-1,-1]","[0.17559437122223479,0.03605295181255313]","[-1,-1,-1]","[-0.14723183223332714,0.09065179206840436]","[-1,-1,-1]","[0.10041510316244896,0.05692920946535117]","[1,1,1]","[0.02,0.02]",100.8816,0,15,15,69,1,,,,,,,
,,,,,,,62fd14d7b1e0729dc8aadb79,682f0fbed7e01ca94ba20eb4,2025-05-22_12h53.49.913,cuing_paradigm_dot,2024.1.5,Win32,59.88023952,682d573fa47f1360d1451895,,,,,,,,,,,100.8824,101.3814,,,101.6321,101.9984,left,0.3522,,,,,,,,,0.6,,,,,,101.3814,101.632,101.9987,"[0.12198857140021913,-0.03193862998047678]","[1,1,1]","[-0.1687756142265028,0.01681887207359869]","[1,1,1]","[-0.06699330935674311,-0.0739133784761588]","[1,1,1]","[0.19960955366584662,0.0004224228323793408]","[-1,-1,-1]","[0.08553997688612064,0.004127245263008267]","[1,1,1]","[0.05441966813267886,-0.04358082156383488]","[1,1,1]","[-0.1344718639326174,-0.06500243650398012]","[1,1,1]","[-0.005159514891741575,0.0581634301409651]","[1,1,1]","[-0.15558658004265286,-0.12399662253151116]","[1,1,1]","[-0.02844614806884932,-0.17093977740244373]","[-1,-1,-1]","[-0.06547534932032942,0.15778214902494128]","[1,1,1]","[0.11961312418616392,-0.15872080298635513]","[1,1,1]","[-0.056435901234555615,0.003692252993839751]","[1,1,1]","[-0.09315707985180814,0.12776304471962696]","[-1,-1,-1]","[0.072505361866138,-0.10925657168999772]","[1,1,1]","[0.11080898518822839,0.16431756910023948]","[-1,-1,-1]","[0.16574211399905597,-0.07990774474019993]","[-1,-1,-1]","[0.13014141691835446,0.07603211495416519]","[-1,-1,-1]","[0.06728984104073948,0.13991289875601712]","[1,1,1]","[0.08686632426977674,0.10474136123201637]","[1,1,1]","[-0.03468626432213134,-0.1023554083280563]","[1,1,1]","[-0.001627146275887275,-0.13481054826143066]","[-1,-1,-1]","[-0.031688781984028226,-0.046867909936297636]","[-1,-1,-1]","[-0.12086252591551071,0.02254417064785138]","[-1,-1,-1]","[0.03995877426536492,0.07168518229850361]","[-1,-1,-1]","[-0.04698180406251853,0.045927745333012776]","[1,1,1]","[-0.12951919299130765,0.14844306275996666]","[1,1,1]","[-0.10219743647218929,-0.17159800637722641]","[1,1,1]","[0.1317140022078797,0.01552381548268124]","[-1,-1,-1]","[0.009759600908404345,0.018890713922136877]","[-1,-1,-1]","[-0.0810168174795855,-0.03325226101622011]","[-1,-1,-1]","[0.11864512238001432,-0.08964952500629718]","[1,1,1]","[0.02,0.02]",103.0977,0,16,16,152,1,,,,,,,
,,,,,,,62fd14d7b1e0729dc8aadb79,682f0fbed7e01ca94ba20eb4,2025-05-22_12h53.49.913,cuing_paradigm_dot,2024.1.5,Win32,59.88023952,682d573fa47f1360d1451895,,,,,,,,,,,103.0984,103.5977,,,103.8526,104.1652,right,0.2894,,,,,,,,,0.4,,,,,,103.5977,103.8525,104.1659,"[-0.10234363124484273,0.031109361976122192]","[-1,-1,-1]","[-0.004985357561924207,-0.08724592164348177]","[-1,-1,-1]","[0.09269034190226584,0.15767136598435888]","[1,1,1]","[-0.15682602987879932,-0.10663992797210635]","[1,1,1]","[0.12404657750922768,0.005551513273970891]","[-1,-1,-1]","[-0.04735739109153199,-0.08121787282240324]","[-1,-1,-1]","[-0.053149637554098544,0.062462872581725185]","[-1,-1,-1]","[0.005180931237559721,0.16549099465514705]","[1,1,1]","[0.02510792206025012,0.03225329738171568]","[1,1,1]","[-0.1398644053116702,-0.0670087124778933]","[1,1,1]","[0.031258620215694644,0.087913205329426]","[-1,-1,-1]","[0.106397223143408,-0.12929835469386963]","[-1,-1,-1]","[-0.06318558743030568,-0.03593056466083223]","[-1,-1,-1]","[-0.09993948345628396,0.07521353329790662]","[-1,-1,-1]","[0.08016495573812224,-0.007686103408493298]","[-1,-1,-1]","[-0.036378264923607045,0.02038880962221977]","[-1,-1,-1]","[0.11754772084828456,-0.04155243176183526]","[1,1,1]","[-0.055038928391695004,-0.15694584287498933]","[-1,-1,-1]","[0.0021160666216425727,-0.1788837115606859]","[-1,-1,-1]","[-0.024177125959665494,-0.12728847915562808]","[-1,-1,-1]","[0.0386625932581701,-0.0563549901952714]","[-1,-1,-1]","[0.013942755869647496,-0.02083628646432248]","[-1,-1,-1]","[-0.11054480836998497,0.14697375673467494]","[1,1,1]","[0.06368056048558975,-0.10325509692523929]","[-1,-1,-1]","[-0.13211177526309237,0.10863660929582006]","[1,1,1]","[0.1576021299041617,-0.06586848713934851]","[1,1,1]","[0.19177377110607788,0.025434781429280972]","[-1,-1,-1]","[0.14975471623009734,0.09452616735278845]","[1,1,1]","[-0.05713201641879441,0.1291663697912209]","[1,1,1]","[0.08857397290783911,0.10263469217668]","[-1,-1,-1]","[-0.1309942242229348,-0.006951514447898581]","[1,1,1]","[0.10476005831744707,-0.16954936262566866]","[1,1,1]","[0.02,0.02]",105.2647,0,17,17,37,1,,,,,,,
,,,,,,,62fd14d7b1e0729dc8aadb79,682f0fbed7e01ca94ba20eb4,2025-05-22_12h53.49.913,cuing_paradigm_dot,2024.1.5,Win32,59.88023952,682d573fa47f1360d1451895,,,,,,,,,,,105.266,105.7649,,,106.0202,106.3825,right,0.346,,,,,,,,,0.4,,,,,,105.765,106.0201,106.3826,"[0.03822224379032519,0.09783415011611923]","[-1,-1,-1]","[-0.11167985736649919,-0.04715524343707453]","[-1,-1,-1]","[0.043036211847139245,0.039588323666409374]","[1,1,1]","[0.005651802752944396,0.015234552351112958]","[-1,-1,-1]","[0.08415617919718772,0.07356398717243492]","[-1,-1,-1]","[0.16366272353572778,-0.0960357721134142]","[-1,-1,-1]","[-0.07542426691650211,0.009005878121478605]","[-1,-1,-1]","[0.04765473401378705,-0.11848002450890804]","[-1,-1,-1]","[0.14615669829809697,0.04821886138002153]","[-1,-1,-1]","[-0.1468492833254042,-0.010257899343415196]","[1,1,1]","[-0.013351077916413276,0.19069242540169104]","[-1,-1,-1]","[0.1308013364631697,-0.046044410952210034]","[-1,-1,-1]","[-0.09797346783753015,0.13958145954525572]","[1,1,1]","[-0.12923968505422562,0.07553015609503262]","[1,1,1]","[0.18357361742678713,-0.0257386256941991]","[-1,-1,-1]","[-0.060302066465997145,-0.11472187733804105]","[-1,-1,-1]","[0.021838783927187248,0.14055270942160983]","[-1,-1,-1]","[-0.07717668355221095,0.18295831101673848]","[1,1,1]","[-0.176363287650308,0.06154627416757326]","[-1,-1,-1]","[0.042516779436459935,-0.1771444433025615]","[1,1,1]","[-0.01967141306006524,0.1414983860919439]","[-1,-1,-1]","[-0.15656651016612289,0.1163099100784638]","[-1,-1,-1]","[0.059481746884778273,-0.03290231407885838]","[1,1,1]","[-0.10292904498543747,-0.16496598855288355]","[1,1,1]","[-0.041933827034622784,-0.015737519031857772]","[1,1,1]","[0.1197398397307726,0.1220090059336155]","[-1,-1,-1]","[0.041070726328443566,0.18633393659194394]","[-1,-1,-1]","[0.007634549478408525,-0.12415391725184732]","[-1,-1,-1]","[0.08005725210106633,0.1572754406701063]","[1,1,1]","[0.10835916829504713,-0.08010492766849922]","[1,1,1]","[-0.03828213027364411,0.06842774701880226]","[1,1,1]","[0.03417954368658444,-0.07020624816854631]","[1,1,1]","[0.02,0.02]",107.4811,0,18,18,31,1,,,,,,,
,,,,,,,62fd14d7b1e0729dc8aadb79,682f0fbed7e01ca94ba20eb4,2025-05-22_12h53.49.913,cuing_paradigm_dot,2024.1.5,Win32,59.88023952,682d573fa47f1360d1451895,,,,,,,,,,,107.4825,107.9808,,,108.2312,108.6304,left,0.386,,,,,,,,,0.4,,,,,,107.9811,108.2312,108.6305,"[-0.017146523833798513,-0.004263281296554719]","[-1,-1,-1]","[0.11267737355395957,-0.07049925151847511]","[1,1,1]","[-0.16525890894919826,0.0659155413364982]","[-1,-1,-1]","[0.04195654434943492,0.09227269689676458]","[1,1,1]","[-0.14481679390947655,-0.024421217842600068]","[1,1,1]","[-0.039638575156003594,-0.13515201710288838]","[-1,-1,-1]","[0.03983428350874396,-0.015225128798736276]","[1,1,1]","[-0.12343767176522037,-0.07666379926217678]","[1,1,1]","[0.02579734664131631,-0.09838788947207386]","[-1,-1,-1]","[-0.009981279102273883,0.14737297120925977]","[-1,-1,-1]","[0.09851491920717055,0.06077330003990651]","[-1,-1,-1]","[0.07246491845594816,-0.12066259098100024]","[-1,-1,-1]","[0.11725666583124354,-0.011107361822900171]","[-1,-1,-1]","[0.003996932199202978,0.10592846382422437]","[1,1,1]","[0.02272494713088828,-0.18974831479833093]","[1,1,1]","[-0.07529373774943661,-0.08870616187497414]","[-1,-1,-1]","[0.06265254677385305,-0.05748665430273828]","[-1,-1,-1]","[-0.08483005576224839,-0.1603483764465933]","[-1,-1,-1]","[0.01817270430912809,0.04313898258775767]","[-1,-1,-1]","[0.06195184201771188,-0.17523607191472756]","[1,1,1]","[0.146497938884109,0.03006950124557898]","[1,1,1]","[-0.02854097147549132,-0.08588658754547357]","[1,1,1]","[0.11352749092733334,0.12357296352978273]","[-1,-1,-1]","[0.18005415589810544,-0.023506151321303778]","[-1,-1,-1]","[0.03661923050105839,0.13424663960910785]","[-1,-1,-1]","[-0.07608458003040776,0.10885304833447183]","[1,1,1]","[-0.14148455891310355,0.1336654570372036]","[1,1,1]","[-0.11070318021433277,0.05477846965560539]","[1,1,1]","[0.13858034694824273,-0.12147588949112692]","[-1,-1,-1]","[0.017540432286093845,-0.14525187563301553]","[-1,-1,-1]","[-0.06561261693555541,0.01229522017390992]","[-1,-1,-1]","[-0.0803014021751646,0.15701560209456086]","[-1,-1,-1]","[0.02,0.02]",109.73,0,19,19,53,1,,,,,,,
,,,,,,,62fd14d7b1e0729dc8aadb79,682f0fbed7e01ca94ba20eb4,2025-05-22_12h53.49.913,cuing_paradigm_dot,2024.1.5,Win32,59.88023952,682d573fa47f1360d1451895,,,,,,,,,,,109.731,110.23,,,110.4807,110.9469,left,0.4526,,,,,,,,,0.5,,,,,,110.2301,110.4806,110.9471,"[-0.0999183510792015,0.09229263581946169]","[-1,-1,-1]","[0.10227860449418472,-0.052765191626458666]","[-1,-1,-1]","[-0.15903101719910237,0.07170987563416643]","[1,1,1]","[0.05816938782935125,-0.051002368385575855]","[1,1,1]","[0.12148520096104189,-0.015782524714095955]","[-1,-1,-1]","[-0.125183674423405,-0.023100511497838913]","[-1,-1,-1]","[-0.07357907306559387,-0.07770651272818134]","[-1,-1,-1]","[0.10780968024275434,-0.1284341194111351]","[-1,-1,-1]","[0.03766191788680531,0.06744679090189251]","[-1,-1,-1]","[-0.14408007912135837,0.11654989076727629]","[1,1,1]","[-0.14055290740000728,-0.10893624865628697]","[-1,-1,-1]","[0.030157614204019426,0.1433242582868974]","[-1,-1,-1]","[-0.022326197098562494,-0.10596712231241417]","[1,1,1]","[0.14233837584289136,0.040165743498227546]","[-1,-1,-1]","[0.03256665194614775,-0.14887602022318402]","[1,1,1]","[-0.07854707740801058,-0.16463699087916245]","[1,1,1]","[-0.08739094588595352,0.16678608820432259]","[-1,-1,-1]","[0.1682943191178717,-0.004461860722959163]","[-1,-1,-1]","[0.0008344444443337526,0.10836901702200137]","[1,1,1]","[-0.17785318743515816,0.02882560712894435]","[1,1,1]","[0.080195680888384,0.03597308280427877]","[-1,-1,-1]","[-0.011828563311986597,-0.18077762164752706]","[1,1,1]","[0.13998481654468106,-0.10214452655863177]","[1,1,1]","[-0.01744738256196349,0.16003140480024955]","[1,1,1]","[0.06643334083479867,-0.011070643869595853]","[-1,-1,-1]","[0.06044466186057274,-0.11658683162388105]","[-1,-1,-1]","[-0.07851556718856591,0.029433038198841348]","[1,1,1]","[0.017341585150087862,-0.002537736499087756]","[-1,-1,-1]","[0.1315175495818015,0.13540278187799118]","[1,1,1]","[-0.1009133207960146,-0.11724168629459657]","[1,1,1]","[0.08632606468453435,0.13327527742815817]","[1,1,1]","[0.017147379154051907,-0.07026158090458239]","[1,1,1]","[0.02,0.02]",112.0462,0,20,20,99,1,,,,,,,
,,,,,,,62fd14d7b1e0729dc8aadb79,682f0fbed7e01ca94ba20eb4,2025-05-22_12h53.49.913,cuing_paradigm_dot,2024.1.5,Win32,59.88023952,682d573fa47f1360d1451895,,,,,,,,,,,112.0469,112.5461,,,112.797,113.2965,right,0.4839,,,,,,,,,0.5,,,,,,112.5462,112.7969,113.2967,"[-0.09184474308086456,0.10245808627834789]","[-1,-1,-1]","[0.16799963912586,-0.04001322442218343]","[1,1,1]","[0.16017735297176805,0.02055150880248295]","[1,1,1]","[-0.16742611530159532,-0.019834150406264395]","[1,1,1]","[-0.010982017484537433,-0.1229958980838895]","[-1,-1,-1]","[-0.0027481525766347493,0.05036336290629466]","[-1,-1,-1]","[0.12517365566630112,-0.08030785313475394]","[1,1,1]","[0.05162707165663268,-0.11992196793842162]","[1,1,1]","[0.09598059058834497,0.007447750780428331]","[1,1,1]","[0.048039740223136236,0.02083764884264117]","[1,1,1]","[0.1363391277024378,0.1370404238987153]","[-1,-1,-1]","[-0.12003478627979734,0.03452128708029763]","[-1,-1,-1]","[0.07151232938478955,-0.03284959992451285]","[-1,-1,-1]","[0.04542708614757862,-0.1854913647204098]","[1,1,1]","[-0.0329355481368806,0.1801585692212985]","[-1,-1,-1]","[-0.0973943126290066,-0.16426125303107475]","[-1,-1,-1]","[-0.12336605406670664,-0.06735117001835564]","[-1,-1,-1]","[0.08415823807699871,0.05388369167544757]","[-1,-1,-1]","[-0.08736384294075288,-0.11865006772541116]","[-1,-1,-1]","[0.023608422895395116,0.15089338582482392]","[-1,-1,-1]","[0.039239011918657245,-0.06395515454698397]","[-1,-1,-1]","[0.09331663119921882,-0.13436898003600864]","[1,1,1]","[0.10790906503342523,0.09345941223924417]","[1,1,1]","[-0.050620368738349235,-0.14524126734312]","[-1,-1,-1]","[-0.16514969300789564,0.07587514735837012]","[1,1,1]","[-0.16908879923133568,-0.07126564983052854]","[1,1,1]","[-0.13418334243947116,0.14099026987833474]","[-1,-1,-1]","[-0.06838011109068041,0.01478457425989084]","[1,1,1]","[-0.12695924202483688,-0.009166436156070238]","[-1,-1,-1]","[0.13285871469987945,-0.010004192721243239]","[1,1,1]","[-0.14926699417569878,-0.10620291421217622]","[1,1,1]","[-0.041177543111382796,-0.0585331034292502]","[1,1,1]","[0.02,0.02]",114.3958,0,21,21,97,1,,,,,,,
,,,,,,,62fd14d7b1e0729dc8aadb79,682f0fbed7e01ca94ba20eb4,2025-05-22_12h53.49.913,cuing_paradigm_dot,2024.1.5,Win32,59.88023952,682d573fa47f1360d1451895,,,,,,,,,,,114.3966,114.8955,,,115.1465,115.5961,left,0.4345,,,,,,,,,0.4,,,,,,114.8955,115.1464,115.5962,"[-0.11246240654375675,-0.09906298690580849]","[-1,-1,-1]","[-0.08970870296872815,-0.055756224874050846]","[1,1,1]","[0.04670000458044722,-0.09198761850969076]","[1,1,1]","[0.05090889817436939,0.03628086318701055]","[-1,-1,-1]","[-0.0987911269256857,-0.01055333500633463]","[1,1,1]","[0.09333518273710179,0.13183784191683484]","[-1,-1,-1]","[0.17931170523083617,-0.03279011377785599]","[1,1,1]","[0.1359494449477258,0.07888015795222945]","[-1,-1,-1]","[0.0612655055616738,0.10631919960448642]","[-1,-1,-1]","[-0.07321142131182608,0.04231718922724262]","[-1,-1,-1]","[0.08977757830092703,0.0689322304169893]","[1,1,1]","[0.1907542485746147,0.012553071972570638]","[-1,-1,-1]","[0.0008658896432742915,-0.018662908447218948]","[1,1,1]","[-0.04922991074367956,-0.154508039729162]","[1,1,1]","[-0.05113274069747788,0.080613905271918]","[-1,-1,-1]","[0.09070458564694955,0.17315177617090363]","[1,1,1]","[-0.13760854119170263,0.055831757759344444]","[1,1,1]","[0.1254965296154387,0.026237421572887245]","[1,1,1]","[-0.10599574675048772,0.13757729062992768]","[-1,-1,-1]","[-0.1357399988902499,-0.05533231379251067]","[1,1,1]","[-0.0024355451253875444,0.1390308899131836]","[-1,-1,-1]","[0.149331575186859,0.12238539002335341]","[1,1,1]","[0.11688785368477676,-0.1609209602407584]","[-1,-1,-1]","[-0.0022014031965281932,0.05583094549463369]","[-1,-1,-1]","[-0.04077074219019003,0.1533504327953477]","[-1,-1,-1]","[-0.16043735467159476,0.11691209783184237]","[1,1,1]","[0.14782886598126957,-0.12822586957946017]","[-1,-1,-1]","[0.10611787924887393,-0.0626248545561992]","[-1,-1,-1]","[0.07412707087164287,-0.006332302029446544]","[-1,-1,-1]","[0.05258511172325192,-0.1577996179401169]","[-1,-1,-1]","[-0.015215087469532934,-0.08322258099328679]","[-1,-1,-1]","[0.17799409164166607,0.07638565522038784]","[-1,-1,-1]","[0.02,0.02]",116.6955,0,22,22,38,1,,,,,,,
,,,,,,,62fd14d7b1e0729dc8aadb79,682f0fbed7e01ca94ba20eb4,2025-05-22_12h53.49.913,cuing_paradigm_dot,2024.1.5,Win32,59.88023952,682d573fa47f1360d1451895,,,,,,,,,,,116.6963,117.1955,,,117.4462,117.812,left,0.3525,,,,,,,,,0.6,,,,,,117.1956,117.446,117.8122,"[0.09568238124935789,0.023860472752698036]","[-1,-1,-1]","[-0.15414126854155888,0.0011090780170225575]","[-1,-1,-1]","[-0.022480896094649545,-0.07763520465921708]","[-1,-1,-1]","[-0.06901206889641452,-0.16538184596236113]","[1,1,1]","[0.13628854618268652,0.1453991113801743]","[1,1,1]","[0.03313935201616504,-0.12870248967322398]","[-1,-1,-1]","[0.09680727780896177,0.0699717766948511]","[-1,-1,-1]","[0.05878749364793389,-0.09111674687220514]","[1,1,1]","[-0.09017256768430544,0.13682573732218756]","[-1,-1,-1]","[0.007162961905442637,-0.025641777317106283]","[1,1,1]","[0.15717734327608718,0.042481973006101896]","[-1,-1,-1]","[0.13404208365683723,-0.030640113297810082]","[1,1,1]","[-0.07518388189847956,-0.03765398305400301]","[-1,-1,-1]","[-0.13370498786587903,-0.14682032004789594]","[1,1,1]","[0.08370489008705552,-0.01942023048227856]","[1,1,1]","[-0.0052409587542566385,-0.18086445877162372]","[1,1,1]","[0.03127273198451986,0.04550683942020552]","[1,1,1]","[0.07067309475847422,-0.1532092873681432]","[1,1,1]","[-0.11189033659462566,0.0007867139921101773]","[1,1,1]","[-0.13126812343978397,0.0562801241256839]","[1,1,1]","[-0.01690478844835361,-0.12115608404191934]","[1,1,1]","[-0.020458184764015248,0.03569711759688555]","[1,1,1]","[0.1074156633934487,-0.11739295440311631]","[1,1,1]","[-0.18694516772320116,0.03022566068237585]","[1,1,1]","[0.06256195610382728,0.10506907207446219]","[-1,-1,-1]","[0.08626029569722986,0.1592581238745711]","[-1,-1,-1]","[0.17155075592759397,-0.08065211177317409]","[1,1,1]","[-0.013537976276064992,0.18585152304262276]","[1,1,1]","[-0.17594732480862119,-0.08283156502988172]","[-1,-1,-1]","[-0.1548000795787164,0.10924850530336157]","[-1,-1,-1]","[0.1368262931165609,0.08998860438674698]","[1,1,1]","[-0.18124920425045302,0.07903132974130592]","[-1,-1,-1]","[0.02,0.02]",118.9117,0,23,23,150,1,,,,,,,
,,,,,,,62fd14d7b1e0729dc8aadb79,682f0fbed7e01ca94ba20eb4,2025-05-22_12h53.49.913,cuing_paradigm_dot,2024.1.5,Win32,59.88023952,682d573fa47f1360d1451895,,,,,,,,,,,118.9126,119.4117,,,119.6663,120.2488,right,0.5656,,,,,,,,,0.55,,,,,,119.4118,119.6662,120.2489,"[-0.12114883961515141,-0.07107181243081705]","[-1,-1,-1]","[0.0641283268876417,-0.16710784284056768]","[1,1,1]","[0.003348578387810894,0.11512408254987676]","[1,1,1]","[-0.11101110793218309,0.09684698188537787]","[1,1,1]","[0.12746776119654904,-0.1236840259234558]","[1,1,1]","[0.12607106417383737,-0.051425969679071294]","[1,1,1]","[0.07404247031222339,0.02184813099440555]","[-1,-1,-1]","[0.14959718333118616,0.09340716736385762]","[-1,-1,-1]","[0.16122983205316005,0.015641854691736262]","[1,1,1]","[0.07632174419877358,0.16934868781255893]","[1,1,1]","[-0.0016243652218102807,-0.07355144569452607]","[1,1,1]","[-0.05127369227046257,-0.008506239835956452]","[-1,-1,-1]","[0.032840567831381784,-0.023682714306732956]","[1,1,1]","[0.08757823924826433,-0.022840607611114134]","[1,1,1]","[-0.0331457930125466,0.042747054229082634]","[-1,-1,-1]","[-0.1014674733043527,-0.13271681833944812]","[-1,-1,-1]","[0.007635345144069037,-0.11442662833834483]","[1,1,1]","[-0.08485460900602543,0.06463225859521528]","[1,1,1]","[-0.17375749928316173,0.029869015307671422]","[-1,-1,-1]","[-0.048499524709928514,0.15968552160361624]","[1,1,1]","[-0.03797471499556122,-0.14532837399589307]","[-1,-1,-1]","[0.0886525797086743,-0.07990268236947613]","[1,1,1]","[-0.1928132391134899,-0.030368238944118577]","[-1,-1,-1]","[-0.06371110479300907,-0.11057909451479711]","[-1,-1,-1]","[-0.15388366013650995,0.10150668772029986]","[1,1,1]","[-0.03477107272026947,0.08932142780589541]","[-1,-1,-1]","[-0.14890542569136253,-0.025854952212628957]","[-1,-1,-1]","[0.04918773740214698,0.0640695559075822]","[-1,-1,-1]","[0.059851211443930165,0.10734953435808517]","[1,1,1]","[-0.11175963120433975,0.02420851578973621]","[-1,-1,-1]","[0.17053910766761485,-0.03263519214858587]","[1,1,1]","[-0.008440099064921226,-0.18950565174307793]","[1,1,1]","[0.02,0.02]",121.3457,0,24,24,140,1,,,,,,,
,,,,,,,62fd14d7b1e0729dc8aadb79,682f0fbed7e01ca94ba20eb4,2025-05-22_12h53.49.913,cuing_paradigm_dot,2024.1.5,Win32,59.88023952,682d573fa47f1360d1451895,,,,,,,,,,,121.3471,121.8452,,,122.0995,122.5454,left,0.4211,,,,,,,,,0.6,,,,,,121.8454,122.0994,122.5457,"[0.10462644516727405,-0.16217467158443213]","[1,1,1]","[-0.16424245745590776,-0.0717545466168316]","[1,1,1]","[0.10352869611553363,-0.020598125837882193]","[1,1,1]","[-0.15865454586891953,-0.0069088645269261735]","[1,1,1]","[-0.12139570552733972,0.1171302355526541]","[-1,-1,-1]","[-0.0016752096276706234,0.05732942718554728]","[1,1,1]","[-0.17591604639229197,0.08686177751140237]","[-1,-1,-1]","[0.16147439944964934,0.03904631550925648]","[1,1,1]","[-0.0030641053886332334,-0.039799848611248884]","[-1,-1,-1]","[-0.03489119449012345,0.0318672552527826]","[1,1,1]","[0.139605686323477,0.12787791581138677]","[1,1,1]","[-0.0953554199272278,0.08412969139204694]","[1,1,1]","[-0.011997051810667321,0.19377599731662665]","[1,1,1]","[-0.025390186981060932,0.1473411271920064]","[-1,-1,-1]","[-0.05640149411744076,-0.11426903140433495]","[1,1,1]","[0.06010889575814521,0.14727713155226638]","[1,1,1]","[-0.00271359322295083,-0.190987671256406]","[1,1,1]","[-0.10333894981801504,-0.037194070048852224]","[1,1,1]","[0.048811184898417334,-0.054146037389256226]","[-1,-1,-1]","[0.04112672315568486,-0.14923050068006283]","[-1,-1,-1]","[0.014373935626769271,0.13972456128464905]","[-1,-1,-1]","[0.16094933217775526,-0.03060263467691332]","[-1,-1,-1]","[-0.05530608340861535,-0.15484904982375008]","[-1,-1,-1]","[-0.07753057482542973,0.12927956924923623]","[1,1,1]","[0.1799614687746015,-0.08446081392746674]","[-1,-1,-1]","[-0.1060439874860947,0.026343308500410806]","[1,1,1]","[-0.13350631986541767,0.06558419222653868]","[-1,-1,-1]","[0.09865224228285609,0.09272952556471696]","[1,1,1]","[-0.07642484534365857,0.17941229667817782]","[-1,-1,-1]","[0.007718004920718091,-0.11089289004613027]","[1,1,1]","[-0.12186984156263787,-0.12189380024252397]","[-1,-1,-1]","[-0.17228320269884115,0.034357184679758776]","[1,1,1]","[0.02,0.02]",123.6453,0,25,25,155,1,,,,,,,
,,,,,,,62fd14d7b1e0729dc8aadb79,682f0fbed7e01ca94ba20eb4,2025-05-22_12h53.49.913,cuing_paradigm_dot,2024.1.5,Win32,59.88023952,682d573fa47f1360d1451895,,,,,,,,,,,123.647,124.1451,,,124.3958,124.9447,right,0.5332,,,,,,,,,0.4,,,,,,124.1452,124.3956,124.9448,"[0.18888738818358228,0.05068454423185217]","[-1,-1,-1]","[0.031412488241657766,0.1266052978001219]","[1,1,1]","[-0.019199695318270718,0.041778182878144804]","[1,1,1]","[0.04528645214000159,0.18038764912548502]","[-1,-1,-1]","[0.05364458361685858,0.062095656338800105]","[-1,-1,-1]","[-0.08453205850959306,-0.008683424824810824]","[1,1,1]","[0.06709245037293884,-0.05891744242476439]","[-1,-1,-1]","[0.14022763869071014,-0.06250459615161588]","[1,1,1]","[-0.008738795565265885,-0.014756962890935775]","[-1,-1,-1]","[-0.017940208628880603,-0.1900840863753462]","[-1,-1,-1]","[0.05375788253846259,-0.18194176440960586]","[1,1,1]","[-0.1548932311440218,0.07992430974435294]","[1,1,1]","[-0.03563471527143509,-0.051088241804623416]","[-1,-1,-1]","[0.12233120514817915,-0.13987170822308256]","[-1,-1,-1]","[-0.04759237591985764,0.16529278279539394]","[-1,-1,-1]","[-0.18656377660655687,-0.008127190442193991]","[-1,-1,-1]","[0.0012771838279198463,-0.11053209762546287]","[-1,-1,-1]","[-0.11426876176541631,0.15820241281655215]","[-1,-1,-1]","[-0.09270984150602297,-0.09905900895906755]","[1,1,1]","[-0.05949013891233977,0.10424115973188447]","[1,1,1]","[-0.05101208986808931,-0.15709033605616618]","[1,1,1]","[-0.1602602172576304,-0.11021938233328712]","[1,1,1]","[0.1828729496832202,-0.0088689567727782]","[-1,-1,-1]","[-0.0009920509124040457,0.1748407938291772]","[-1,-1,-1]","[0.13506900361260116,0.0984168700933081]","[-1,-1,-1]","[-0.12211289651960008,-0.13530538308505943]","[-1,-1,-1]","[-0.12065404001027225,-0.037639565004428915]","[1,1,1]","[0.10707392564490446,0.059699789419009136]","[-1,-1,-1]","[0.0491786556235559,-0.012365718338645524]","[-1,-1,-1]","[0.10289370321835625,-0.0957424512155112]","[-1,-1,-1]","[-0.180276372841717,-0.0696427864124948]","[1,1,1]","[0.09444512629526362,0.16816661377394532]","[1,1,1]","[0.02,0.02]",126.044,0,26,26,34,1,,,,,,,
,,,,,,,62fd14d7b1e0729dc8aadb79,682f0fbed7e01ca94ba20eb4,2025-05-22_12h53.49.913,cuing_paradigm_dot,2024.1.5,Win32,59.88023952,682d573fa47f1360d1451895,,,,,,,,,,,126.0449,126.5441,,,126.7952,127.1945,left,0.3844,,,,,,,,,0.55,,,,,,126.5441,126.7951,127.1945,"[-0.015786537133593747,-0.003913879775225587]","[1,1,1]","[0.035077164427144494,-0.18016526406275535]","[1,1,1]","[0.038481209226016166,0.03246325008565548]","[-1,-1,-1]","[0.12419741674267723,-0.08291682453408473]","[1,1,1]","[-0.09981677062314492,-0.07159247681575384]","[1,1,1]","[-0.13878189918060757,-0.015383823257745706]","[-1,-1,-1]","[-0.06631746509708696,-0.15470617253701752]","[1,1,1]","[0.05228161880452605,0.16741279501759093]","[-1,-1,-1]","[-0.026910426719127346,-0.19146609762948377]","[1,1,1]","[-0.05879744498309251,-0.09140991230013003]","[1,1,1]","[-0.0536484407057568,0.16310405672384987]","[1,1,1]","[0.1237177006087965,0.0182999354178389]","[-1,-1,-1]","[0.16249141151527224,0.05129164872395626]","[-1,-1,-1]","[-0.03274611094647924,0.07639114070990383]","[1,1,1]","[-0.058677372404220676,-0.009535929225247647]","[1,1,1]","[0.002652312593440396,-0.10223146122245859]","[-1,-1,-1]","[-0.08604679151203325,0.07834058199642589]","[1,1,1]","[-0.13034224257682628,0.08170928490601524]","[1,1,1]","[0.08885206643550758,-0.15036811832416738]","[-1,-1,-1]","[-0.19068582701382777,-0.01923355776474943]","[1,1,1]","[0.09802391286166703,0.06312139244286118]","[-1,-1,-1]","[0.0023954208694573504,0.12767826707543267]","[-1,-1,-1]","[-0.13685339464012095,0.14384241540854703]","[-1,-1,-1]","[-0.16361904598635763,-0.07376782398553311]","[-1,-1,-1]","[0.04797895983329212,-0.037663229437532975]","[-1,-1,-1]","[0.04964421690403345,0.0746076442175819]","[-1,-1,-1]","[0.1413542267888024,0.10639523684340833]","[1,1,1]","[-0.013455097149477431,-0.05397748892984067]","[1,1,1]","[0.1658212092483299,-0.0022983480119068826]","[1,1,1]","[0.05743483198041758,-0.12032796449367272]","[1,1,1]","[-0.09193620652111513,0.037323280260608716]","[1,1,1]","[-0.15423015823926606,0.046617484794468846]","[-1,-1,-1]","[0.02,0.02]",128.294,0,27,27,129,1,,,,,,,
,,,,,,,62fd14d7b1e0729dc8aadb79,682f0fbed7e01ca94ba20eb4,2025-05-22_12h53.49.913,cuing_paradigm_dot,2024.1.5,Win32,59.88023952,682d573fa47f1360d1451895,,,,,,,,,,,128.2949,128.7941,,,129.0449,129.5445,left,0.4857,,,,,,,,,0.55,,,,,,128.7941,129.0448,129.5448,"[-0.10303174011423441,-0.1472135089590638]","[1,1,1]","[-0.06652420167665905,0.07339850309621053]","[-1,-1,-1]","[-0.0005468546494233333,-0.02684300933370049]","[1,1,1]","[0.05709592988476858,0.14740636084603284]","[1,1,1]","[0.019525568941447875,0.07042932203363969]","[-1,-1,-1]","[0.09749328591046738,-0.16883633610997714]","[-1,-1,-1]","[0.0460584995963247,-0.0728389052685396]","[-1,-1,-1]","[-0.031137429619897402,0.04849327309972149]","[1,1,1]","[0.14674191864171438,-0.03278541766352133]","[-1,-1,-1]","[-0.07356236369273028,-0.026665963226638948]","[1,1,1]","[-0.061984240821989875,0.15074526569219981]","[-1,-1,-1]","[0.004215105222234206,0.11234394025409186]","[-1,-1,-1]","[0.06351217338039851,0.09107385845192145]","[-1,-1,-1]","[0.07288681891382287,0.0447078513663247]","[-1,-1,-1]","[0.10892996387563703,0.11572084698596528]","[-1,-1,-1]","[-0.1431907406865776,-0.1235337201389319]","[1,1,1]","[0.15774035927526706,0.025207124570220795]","[1,1,1]","[-0.14566416775650326,-0.05839315552153317]","[-1,-1,-1]","[-0.12087538075514884,0.030743738228925874]","[1,1,1]","[0.005420052880214753,-0.12296949423878165]","[1,1,1]","[0.19458563064909104,-0.036793778723492675]","[1,1,1]","[0.05647234794472295,-0.03370653845416902]","[1,1,1]","[-0.10592442178337456,-0.050527161438948726]","[-1,-1,-1]","[0.08131099304239135,-0.1264554927056633]","[-1,-1,-1]","[-0.14809141952938512,0.06317211196709192]","[1,1,1]","[-0.1767884893625488,0.016662272416285404]","[1,1,1]","[-0.10204653403142723,-0.10266477398684523]","[1,1,1]","[-0.06571180263561119,-0.17017291749912986]","[1,1,1]","[-0.11051177843652808,0.09133824259155378]","[1,1,1]","[-0.005884612348322776,-0.18965578086115864]","[1,1,1]","[0.14895832758717883,-0.13283446645868469]","[-1,-1,-1]","[0.047870022331890624,-0.1742560769676312]","[1,1,1]","[0.02,0.02]",130.644,0,28,28,122,1,,,,,,,
,,,,,,,62fd14d7b1e0729dc8aadb79,682f0fbed7e01ca94ba20eb4,2025-05-22_12h53.49.913,cuing_paradigm_dot,2024.1.5,Win32,59.88023952,682d573fa47f1360d1451895,,,,,,,,,,,130.6451,131.1436,,,131.3949,131.8268,right,0.4185,,,,,,,,,0.4,,,,,,131.1437,131.3948,131.8269,"[-0.10512729774697097,0.1212166500715693]","[-1,-1,-1]","[-0.0002468419908128741,-0.059907519118472294]","[-1,-1,-1]","[-0.07977959687330978,-0.03085748713477563]","[-1,-1,-1]","[-0.07086018750340525,0.020739672890184083]","[1,1,1]","[0.12192717410373635,0.053423412794379004]","[-1,-1,-1]","[-0.06231248170227022,0.09188676020251818]","[1,1,1]","[0.08808575832411904,-0.14689727447351617]","[1,1,1]","[0.1719315024047121,0.05384339710019801]","[-1,-1,-1]","[-0.12328113040142095,0.039794012553143666]","[1,1,1]","[0.04741056492705614,0.0950524086532204]","[1,1,1]","[-0.01168492624314746,0.16858301775393775]","[1,1,1]","[0.10156496750727015,-0.08382359112906759]","[-1,-1,-1]","[0.08482527260776164,0.11070715539403762]","[-1,-1,-1]","[-0.11069791065423017,-0.0948648335925462]","[1,1,1]","[0.19018909019512922,-0.0351716296189907]","[-1,-1,-1]","[-0.07454988335573279,0.14908928340970778]","[-1,-1,-1]","[0.15617654635933834,-0.1023176113233218]","[-1,-1,-1]","[-0.009421109450056524,0.019045068361008024]","[-1,-1,-1]","[-0.023828125323680067,-0.0995177100108736]","[-1,-1,-1]","[0.037739062519463275,0.028463559503186114]","[1,1,1]","[0.05065642590110909,0.19338977067401497]","[-1,-1,-1]","[-0.145612723440255,-0.06125881953239083]","[-1,-1,-1]","[0.031092679097141272,-0.17019145806706762]","[1,1,1]","[0.10956721791399367,0.01509483072071559]","[1,1,1]","[-0.065517327933093,-0.1786078312359909]","[-1,-1,-1]","[-0.15800778043214406,0.013126520303426575]","[1,1,1]","[-0.15940430102922723,0.09774566601729842]","[1,1,1]","[0.04981104942496376,-0.041786213005222624]","[-1,-1,-1]","[0.12238045048802713,0.131619275265975]","[-1,-1,-1]","[0.017094478944653435,-0.10095345939262637]","[-1,-1,-1]","[0.19891053761258426,0.005884068552468556]","[-1,-1,-1]","[0.15499545392412944,0.0941350525968128]","[1,1,1]","[0.02,0.02]",132.9263,0,29,29,36,1,,,,,,,
,,,,,,,62fd14d7b1e0729dc8aadb79,682f0fbed7e01ca94ba20eb4,2025-05-22_12h53.49.913,cuing_paradigm_dot,2024.1.5,Win32,59.88023952,682d573fa47f1360d1451895,,,,,,,,,,,132.9271,133.4263,,,133.6769,134.276,right,0.5913,,,,,,,,,0.4,,,,,,133.4263,133.6768,134.2762,"[-0.05751323462681439,-0.006379382077974556]","[-1,-1,-1]","[0.0073292164516213015,0.12391753892621903]","[1,1,1]","[-0.09230306998548624,-0.15546832210625647]","[-1,-1,-1]","[0.05870682502629159,0.0035066709195359733]","[1,1,1]","[0.11714284830950675,-0.11605043302802541]","[-1,-1,-1]","[0.015449272757657444,-0.050741210657096796]","[1,1,1]","[0.17959692426840965,0.031683907526047335]","[-1,-1,-1]","[-0.000350114752178977,-0.1346830753333675]","[-1,-1,-1]","[-0.1415604537742098,-0.11318892881694219]","[1,1,1]","[0.03273570509003677,0.1703671036602874]","[1,1,1]","[-0.09369486514350621,-0.04973019052742357]","[1,1,1]","[-0.07109919918090617,-0.11647191852154756]","[-1,-1,-1]","[-0.08202227763836714,0.07701299827627235]","[1,1,1]","[-0.1392344535697851,0.015359047194935853]","[-1,-1,-1]","[-0.004068759953870776,-0.19658397355361443]","[-1,-1,-1]","[0.06734149078712251,-0.1851932431786409]","[1,1,1]","[0.07570335408459858,0.16118786984740657]","[1,1,1]","[0.060057405788819074,-0.03744246163621865]","[-1,-1,-1]","[-0.009215766036972942,0.039778235158371554]","[-1,-1,-1]","[0.1436780686933713,0.07518642980923554]","[-1,-1,-1]","[-0.12585826513208195,0.1461080133261923]","[-1,-1,-1]","[0.12758338287974966,-0.022991308976241704]","[1,1,1]","[-0.18466338560033488,-0.0357581549959888]","[-1,-1,-1]","[0.05592896514975636,0.055212101169163426]","[1,1,1]","[-0.1490766195742004,0.08012190569479799]","[-1,-1,-1]","[-0.0483174538309348,0.1434203948522028]","[-1,-1,-1]","[0.07875884061662392,-0.13008566482180509]","[-1,-1,-1]","[0.09928986617576291,0.11465183610900775]","[-1,-1,-1]","[0.14039643398191054,0.11756812334651588]","[-1,-1,-1]","[-0.029294101471907398,-0.10245387498706093]","[1,1,1]","[-0.08833168928972655,0.03337837500605058]","[1,1,1]","[0.14470191156968995,-0.08004533338360786]","[-1,-1,-1]","[0.02,0.02]",135.3758,0,30,30,43,1,,,,,,,
,,,,,,,62fd14d7b1e0729dc8aadb79,682f0fbed7e01ca94ba20eb4,2025-05-22_12h53.49.913,cuing_paradigm_dot,2024.1.5,Win32,59.88023952,682d573fa47f1360d1451895,,,,,,,,,,,135.3765,135.8756,,,136.1265,136.5085,left,0.3615,,,,,,,,,0.55,,,,,,135.8757,136.1264,136.5085,"[0.0853446709380497,-0.12529203781628948]","[-1,-1,-1]","[-0.07148702024395613,0.13240722836031532]","[1,1,1]","[-0.1320411207628881,0.098784999545812]","[1,1,1]","[0.09954609644901048,0.14776284758843633]","[-1,-1,-1]","[-0.07685031820087174,-0.035790168230698104]","[-1,-1,-1]","[-0.09452316517827997,0.008061837135333465]","[1,1,1]","[0.05567106556714113,0.08385051645805097]","[-1,-1,-1]","[0.1559241108920085,-0.11849960857040262]","[1,1,1]","[0.008230467129594639,-0.001761651277339694]","[1,1,1]","[-0.13799144215572942,-0.08962445661819299]","[1,1,1]","[0.0717747134859616,-0.019348577299729792]","[1,1,1]","[-0.039996227122704016,0.16189513064674307]","[1,1,1]","[0.14857195227204656,-0.0266740306666534]","[1,1,1]","[-0.009864401515826456,0.13213273997923802]","[-1,-1,-1]","[-0.13253504263809582,-0.042010469603260076]","[1,1,1]","[-0.09872349499889585,0.05635793435616512]","[1,1,1]","[-0.06766967140088934,-0.14158122278093302]","[1,1,1]","[-0.011701028597663879,-0.14135449094305566]","[-1,-1,-1]","[0.00949630487720529,-0.04973781969145795]","[1,1,1]","[0.18607018180705745,-0.06745079259259702]","[-1,-1,-1]","[0.15379937406792116,0.03729071588517021]","[1,1,1]","[-0.030619888644976105,-0.19055007975476632]","[-1,-1,-1]","[0.09611343789769587,0.03409787144719497]","[-1,-1,-1]","[-0.13344287603175922,0.0287160504597116]","[-1,-1,-1]","[0.09637092733064469,0.08736300230058952]","[-1,-1,-1]","[0.1630957911716687,0.07747212846486852]","[1,1,1]","[0.18492177645668875,0.010541268473141857]","[1,1,1]","[-0.015854214373179357,0.06909672950104918]","[-1,-1,-1]","[0.1264678611111144,-0.07601054851477819]","[1,1,1]","[0.000014117325515056052,0.17239298899050703]","[-1,-1,-1]","[-0.0766444023424743,-0.07766426942691242]","[1,1,1]","[-0.17671856700727365,0.03935281654084287]","[-1,-1,-1]","[0.02,0.02]",137.6088,0,31,31,146,1,,,,,,,
,,,,,,,62fd14d7b1e0729dc8aadb79,682f0fbed7e01ca94ba20eb4,2025-05-22_12h53.49.913,cuing_paradigm_dot,2024.1.5,Win32,59.88023952,682d573fa47f1360d1451895,,,,,,,,,,,137.6098,138.1086,,,138.3594,138.6253,right,0.2505,,,,,,,,,0.1,,,,,,138.1087,138.3593,138.6256,"[0.11826771825077652,-0.04196036536797969]","[-1,-1,-1]","[0.05929040705447765,-0.16825152404887903]","[-1,-1,-1]","[0.1269365533561735,-0.150778630610349]","[-1,-1,-1]","[-0.042306056015412256,-0.0475543563823898]","[-1,-1,-1]","[0.03845105475896863,0.10637602186242986]","[-1,-1,-1]","[0.11732794743771671,0.10212662521805832]","[-1,-1,-1]","[-0.08515770226180423,0.07644092351779394]","[-1,-1,-1]","[0.04037109407657811,-0.027333297894999085]","[-1,-1,-1]","[0.17510535232564856,-0.023930061975753352]","[-1,-1,-1]","[0.004371602346783141,0.14125550786339333]","[-1,-1,-1]","[-0.00916122442057339,-0.14151647115077584]","[-1,-1,-1]","[-0.009066526343831151,0.0024909544752683517]","[-1,-1,-1]","[-0.13805065893020138,-0.012046412753045722]","[-1,-1,-1]","[-0.11239576429504879,-0.1221960844325771]","[-1,-1,-1]","[0.05794760427990321,0.16132444273046062]","[-1,-1,-1]","[-0.002848217854283433,-0.19665721775791856]","[-1,-1,-1]","[-0.06946713845498438,0.15690573622074136]","[1,1,1]","[0.16736272647161207,0.024074733361817213]","[-1,-1,-1]","[-0.048213235420337335,-0.17601451640611696]","[-1,-1,-1]","[-0.17966649612741226,-0.04544442485313287]","[-1,-1,-1]","[0.020910510710056382,0.029712745984050624]","[-1,-1,-1]","[0.023323336140163443,-0.08662807518054685]","[-1,-1,-1]","[-0.08427154033960585,-0.040221985945760715]","[-1,-1,-1]","[-0.16947590370583043,-0.09959358501992749]","[-1,-1,-1]","[0.08248702165023769,-0.1336551809949021]","[-1,-1,-1]","[-0.00041397678484533676,-0.04470843552875215]","[-1,-1,-1]","[-0.12586801296469174,-0.07453741934061037]","[-1,-1,-1]","[0.07592308941379164,0.09020613834746405]","[-1,-1,-1]","[0.17711636105880613,-0.08709398131456483]","[-1,-1,-1]","[0.16056423378462928,0.10827125400183021]","[1,1,1]","[-0.09609185344713454,-0.0018658577855758494]","[1,1,1]","[-0.19588270032952745,0.009511847066274594]","[-1,-1,-1]","[0.02,0.02]",139.725,0,32,32,19,1,,,,,,,
,,,,,,,62fd14d7b1e0729dc8aadb79,682f0fbed7e01ca94ba20eb4,2025-05-22_12h53.49.913,cuing_paradigm_dot,2024.1.5,Win32,59.88023952,682d573fa47f1360d1451895,,,,,,,,,,,139.7261,140.2249,,,140.4759,140.8582,left,0.3658,,,,,,,,,0.6,,,,,,140.2249,140.4757,140.8584,"[-0.07037571362751886,-0.14642335793112168]","[-1,-1,-1]","[0.06201959407045734,0.03912405467243604]","[1,1,1]","[-0.09582195827817103,-0.10555822324452135]","[1,1,1]","[0.06030052298470374,-0.1570965382834254]","[1,1,1]","[0.12355467831292008,-0.10325697953034407]","[1,1,1]","[-0.06064631718863008,-0.03189055396945791]","[-1,-1,-1]","[-0.06112603601924047,0.1627189048897529]","[1,1,1]","[-0.004755709673164146,0.17936337870241983]","[-1,-1,-1]","[-0.14538623233486744,-0.030549045897123133]","[1,1,1]","[-0.17445939214211667,0.015449338266386267]","[1,1,1]","[-0.1489908235224644,0.07094148195979079]","[-1,-1,-1]","[0.07896811461537183,-0.05592925315710196]","[1,1,1]","[0.06140087438900592,0.15575841154281833]","[1,1,1]","[-0.030107460944250927,-0.076216919606929]","[1,1,1]","[0.04385298219243593,-0.03430293164426588]","[1,1,1]","[-0.014037404142390944,0.06454183548966383]","[-1,-1,-1]","[-0.018901366589133155,-0.15580233845950964]","[-1,-1,-1]","[0.1529887373173213,0.12712690454051281]","[-1,-1,-1]","[0.14055168251980768,-0.06534899063377957]","[1,1,1]","[-0.03071647570972446,0.12889624887266288]","[-1,-1,-1]","[0.025934371715925022,0.0772489452124465]","[-1,-1,-1]","[0.02287713055874948,0.14280264050993083]","[1,1,1]","[0.023505033648502822,-0.10522513752492035]","[1,1,1]","[0.18424779479247272,-0.04002334905129607]","[1,1,1]","[0.19504878623042582,0.01208823539940595]","[1,1,1]","[-0.07651861778639876,0.11800000031316733]","[1,1,1]","[-0.16134072836633842,-0.10891227461211497]","[1,1,1]","[0.12827365986796838,0.0315941255242887]","[-1,-1,-1]","[-0.08938515863136415,-0.003899543944581495]","[-1,-1,-1]","[0.10785266774449374,-0.14183309354032783]","[-1,-1,-1]","[-0.058680217639960286,0.034968501865567464]","[-1,-1,-1]","[0.17546709454927698,0.07960008146266188]","[1,1,1]","[0.02,0.02]",141.9581,0,33,33,160,1,,,,,,,
,,,,,,,62fd14d7b1e0729dc8aadb79,682f0fbed7e01ca94ba20eb4,2025-05-22_12h53.49.913,cuing_paradigm_dot,2024.1.5,Win32,59.88023952,682d573fa47f1360d1451895,,,,,,,,,,,141.9591,142.4582,,,142.7097,143.0973,right,0.3683,,,,,,,,,0.45,,,,,,142.4583,142.7097,143.0975,"[0.0006567421032635388,0.03547179771087874]","[-1,-1,-1]","[-0.09482905977015853,-0.13127299558353858]","[-1,-1,-1]","[0.0604593860061327,0.1027748765683606]","[1,1,1]","[-0.05714262877580438,0.03375726488023699]","[-1,-1,-1]","[0.020796825916585014,-0.1528523479455604]","[-1,-1,-1]","[0.1630251379557179,0.06923382839448085]","[1,1,1]","[-0.06833508996327467,0.1167073183014425]","[1,1,1]","[0.09121846731068112,-0.14750688385072183]","[-1,-1,-1]","[0.11064839025111874,0.016991792323537713]","[-1,-1,-1]","[-0.09494722330282337,-0.030536602113838563]","[-1,-1,-1]","[0.016928660616403364,-0.06326371203231605]","[-1,-1,-1]","[0.03012781495306073,-0.01400498432877254]","[-1,-1,-1]","[-0.06828268302030686,-0.06949708614005214]","[-1,-1,-1]","[0.03207830896981113,0.06948676343284012]","[-1,-1,-1]","[-0.13742793293080818,-0.007061899400401538]","[1,1,1]","[-0.09611564548592395,0.051919527623749705]","[1,1,1]","[-0.0616519038283272,0.16706611275868136]","[1,1,1]","[0.06327224828420687,-0.08085173802189437]","[1,1,1]","[-0.08443277127695085,-0.17630907938529702]","[1,1,1]","[-0.032113388788875194,0.07921925102851379]","[1,1,1]","[0.11558799860071285,0.15530188286240165]","[1,1,1]","[-0.014883695904680994,-0.1160456396846778]","[1,1,1]","[0.18347755760973608,-0.04342535901431364]","[-1,-1,-1]","[0.005756755557603184,0.18303794346244792]","[-1,-1,-1]","[-0.025963464677798673,-0.1563972701251784]","[-1,-1,-1]","[0.07265352060115797,-0.029722134089998953]","[-1,-1,-1]","[-0.10877188362437161,0.15062520607069896]","[-1,-1,-1]","[-0.1774505012204966,0.008583304788616668]","[-1,-1,-1]","[0.06211727605149853,0.15811933008221704]","[1,1,1]","[0.1842013220903506,0.011731053796464046]","[1,1,1]","[-0.13042117208171597,0.078435986719991]","[-1,-1,-1]","[0.09933342212657703,0.11348247768818766]","[1,1,1]","[0.02,0.02]",144.1917,0,34,34,64,1,,,,,,,
,,,,,,,62fd14d7b1e0729dc8aadb79,682f0fbed7e01ca94ba20eb4,2025-05-22_12h53.49.913,cuing_paradigm_dot,2024.1.5,Win32,59.88023952,682d573fa47f1360d1451895,,,,,,,,,,,144.1932,144.6918,,,144.9421,145.4911,right,0.5397,,,,,,,,,0.45,,,,,,144.692,144.9419,145.4914,"[-0.18050070746731006,0.06408397684438794]","[-1,-1,-1]","[-0.02146625776763478,0.12534763036954238]","[1,1,1]","[-0.07521938385936419,0.06248389768138495]","[-1,-1,-1]","[0.12702035306611334,-0.14993286148963425]","[1,1,1]","[-0.06285445587826696,-0.16349658168670833]","[-1,-1,-1]","[0.15754419226247174,0.058221936933233256]","[1,1,1]","[-0.14490818004798048,-0.13175870702186657]","[-1,-1,-1]","[-0.0729003436398915,0.16658630171056688]","[-1,-1,-1]","[0.05342865453478212,0.14465990543642573]","[1,1,1]","[0.06147207689069552,0.09594494040478692]","[-1,-1,-1]","[0.08608203493905636,0.016463869979171604]","[-1,-1,-1]","[-0.03169844528323589,-0.1974205058683486]","[-1,-1,-1]","[0.18081989286076314,0.018529265169209344]","[1,1,1]","[-0.04111931379786239,0.0030338217745775856]","[1,1,1]","[-0.11388624916765408,0.09059765122424225]","[-1,-1,-1]","[0.06560482078446972,-0.048371290151776186]","[-1,-1,-1]","[0.09489399537854595,0.11897109438119563]","[1,1,1]","[0.04849305052064809,0.18987563240859187]","[1,1,1]","[0.14093813613771555,-0.08797543274493251]","[-1,-1,-1]","[0.01917853742581009,-0.027671139636766377]","[-1,-1,-1]","[-0.11001018413025289,-0.026978854749306686]","[1,1,1]","[0.09639285609793911,-0.10568686312756152]","[1,1,1]","[-0.00646461382474149,0.07774858110984853]","[-1,-1,-1]","[0.05498931232616736,-0.13136907474700016]","[1,1,1]","[0.017734884050849574,-0.08793052200329216]","[1,1,1]","[-0.1298244174448847,-0.08448508217568147]","[-1,-1,-1]","[0.005496645220146288,0.023219935668134253]","[1,1,1]","[0.13076827039609615,-0.020434463013313368]","[-1,-1,-1]","[0.11500554839016712,0.1632510050959854]","[-1,-1,-1]","[0.1349070611933242,0.10333405636486909]","[-1,-1,-1]","[0.169554310043334,-0.031558664780165724]","[1,1,1]","[-0.011433947172320347,-0.14127075493368732]","[-1,-1,-1]","[0.02,0.02]",146.5906,0,35,35,62,1,,,,,,,
,,,,,,,62fd14d7b1e0729dc8aadb79,682f0fbed7e01ca94ba20eb4,2025-05-22_12h53.49.913,cuing_paradigm_dot,2024.1.5,Win32,59.88023952,682d573fa47f1360d1451895,,,,,,,,,,,146.5914,147.0906,,,147.3452,147.9578,left,0.5922,,,,,,,,,0.45,,,,,,147.0907,147.3452,147.9581,"[0.1695906610349161,0.08497108837319658]","[1,1,1]","[0.05692128435495298,-0.17599783333583702]","[-1,-1,-1]","[-0.06717099977651009,-0.1159106529403654]","[-1,-1,-1]","[-0.12462505719809636,-0.08910670272144305]","[1,1,1]","[0.1499637249541324,0.02146200987306588]","[-1,-1,-1]","[-0.01048218218789043,-0.03688569258620367]","[1,1,1]","[-0.11632567038222509,0.0580760291422447]","[-1,-1,-1]","[0.08055124517461047,-0.05927997932820379]","[1,1,1]","[0.07428750110239689,-0.11154588620658067]","[-1,-1,-1]","[-0.03293993594005895,0.05173571941487524]","[-1,-1,-1]","[0.09824690486934153,0.07743657793711704]","[-1,-1,-1]","[0.028689337665262254,-0.10927265708958982]","[-1,-1,-1]","[-0.05667291935365475,-0.02063599633607128]","[1,1,1]","[0.12613250434199721,0.1063206212123275]","[-1,-1,-1]","[-0.07134759005300788,0.08110853427320706]","[1,1,1]","[-0.020866919406084483,0.11041228579947032]","[1,1,1]","[-0.05661081986633493,0.18587735000297234]","[-1,-1,-1]","[-0.1588840650357049,-0.002341671099384641]","[-1,-1,-1]","[-0.15922642200536455,-0.04830155260707411]","[-1,-1,-1]","[0.17345972339043603,-0.07674402365257764]","[-1,-1,-1]","[-0.0229477511432163,-0.1454003185311879]","[-1,-1,-1]","[0.07182792736096548,-0.019215920985613946]","[-1,-1,-1]","[0.1152369983286936,-0.006529502591087468]","[1,1,1]","[0.03644041933214056,0.0211104661733307]","[1,1,1]","[0.08779223595638196,0.14953874323194838]","[-1,-1,-1]","[-0.02346558258972482,0.15722002077040623]","[1,1,1]","[-0.18207624934639746,0.08011726742250522]","[1,1,1]","[-0.046644641033961015,-0.19246746151628671]","[1,1,1]","[-0.11359337518774844,-0.0035758077591033243]","[1,1,1]","[-0.077360730177964,0.1377613963522459]","[-1,-1,-1]","[0.05026061167082034,0.10578910372876513]","[-1,-1,-1]","[0.13722069238565093,-0.05852958711202281]","[1,1,1]","[0.02,0.02]",149.0616,0,36,36,71,1,,,,,,,
,,,,,,,62fd14d7b1e0729dc8aadb79,682f0fbed7e01ca94ba20eb4,2025-05-22_12h53.49.913,cuing_paradigm_dot,2024.1.5,Win32,59.88023952,682d573fa47f1360d1451895,,,,,,,,,,,149.0628,149.5576,,,149.8102,150.1247,right,0.2886,,,,,,,,,0.1,,,,,,149.5577,149.8102,150.1251,"[0.012815604252369273,0.031561772866332834]","[1,1,1]","[0.15075015628878125,0.09022420668810897]","[-1,-1,-1]","[0.03534715064625301,-0.16723425137023426]","[-1,-1,-1]","[0.10674009337991935,0.010400987195866115]","[-1,-1,-1]","[-0.03368157917003183,-0.03874358355032091]","[-1,-1,-1]","[-0.05031152998381544,0.045976174049745896]","[-1,-1,-1]","[-0.09448564889370895,-0.03058053638466346]","[-1,-1,-1]","[0.013626862019096634,-0.056580793582118545]","[-1,-1,-1]","[-0.17863842509850866,-0.05989009653741825]","[-1,-1,-1]","[-0.08103091451009939,-0.1619109678093101]","[-1,-1,-1]","[0.06302082333168643,0.09330881987282005]","[-1,-1,-1]","[0.1761324981056279,-0.0293774962033522]","[-1,-1,-1]","[0.09335111677644596,-0.16837785154142035]","[-1,-1,-1]","[0.14594458619974165,-0.1217943313667898]","[-1,-1,-1]","[0.04600738815096858,0.00667754413030257]","[-1,-1,-1]","[-0.006918688096771011,0.11329896259376775]","[-1,-1,-1]","[-0.0991536685257091,0.08529621792525954]","[-1,-1,-1]","[-0.13419662420098896,-0.0018951951266150797]","[-1,-1,-1]","[-0.09754982880933595,0.13692473522470267]","[-1,-1,-1]","[-0.048259291503489794,0.19014508179085057]","[-1,-1,-1]","[0.09674157929700251,0.06845046094858916]","[1,1,1]","[-0.05311293800787365,0.0972944671326491]","[-1,-1,-1]","[0.12369659314290014,-0.041111530076511346]","[-1,-1,-1]","[0.06640708903778399,0.18055232924171305]","[-1,-1,-1]","[-0.15372328333106333,0.05496574981186382]","[-1,-1,-1]","[0.1195642262694581,0.14168257872209145]","[-1,-1,-1]","[-0.0448137208424811,-0.0882949446747426]","[-1,-1,-1]","[0.06687901791049618,-0.11122525450521178]","[-1,-1,-1]","[-0.19536587601590813,-0.017691439010692]","[-1,-1,-1]","[0.024531449966648508,0.07823705792070275]","[-1,-1,-1]","[-0.01997818782584689,-0.14715219692175036]","[1,1,1]","[-0.14532719324611762,0.13036083795739656]","[-1,-1,-1]","[0.02,0.02]",151.2238,0,37,37,15,1,,,,,,,
,,,,,,,62fd14d7b1e0729dc8aadb79,682f0fbed7e01ca94ba20eb4,2025-05-22_12h53.49.913,cuing_paradigm_dot,2024.1.5,Win32,59.88023952,682d573fa47f1360d1451895,,,,,,,,,,,151.2253,151.7237,,,151.9744,152.2233,left,0.2324,,,,,,,,,0.6,,,,,,151.7239,151.9743,152.2234,"[0.020968747166707186,0.029221839045301436]","[-1,-1,-1]","[0.09082965304292635,0.07293161882770068]","[-1,-1,-1]","[-0.11380558367715579,-0.07635303126685135]","[1,1,1]","[-0.13664350918790677,0.009792204200960634]","[1,1,1]","[-0.06695892059049703,-0.0895508431414795]","[1,1,1]","[-0.012466972060165586,-0.1859284997171616]","[1,1,1]","[0.06433476776616988,0.14740241422453185]","[1,1,1]","[0.002099299210657511,0.09103884478058917]","[-1,-1,-1]","[0.15330351784639557,0.010843488118666762]","[1,1,1]","[0.0938473978985912,-0.11163771642203763]","[1,1,1]","[0.17631049808857066,-0.08213022722560175]","[-1,-1,-1]","[0.033819804817803716,-0.18069578326876753]","[1,1,1]","[-0.1673591140364435,-0.03555448484440539]","[-1,-1,-1]","[0.10070271614092004,-0.0596272293793997]","[-1,-1,-1]","[-0.0349981672376349,-0.00039819665341018487]","[-1,-1,-1]","[-0.026931134085517505,-0.09152762016724036]","[1,1,1]","[-0.12989356871634886,0.08112901040968923]","[1,1,1]","[-0.03690817241605295,-0.13243912050050363]","[1,1,1]","[0.05617120167490081,-0.08974484302677657]","[-1,-1,-1]","[0.1713856704866729,0.08988645065856787]","[1,1,1]","[-0.12402104754729644,-0.11758335200590708]","[-1,-1,-1]","[-0.0915465789791,-0.15594827066770642]","[1,1,1]","[-0.07326948599637073,0.1823290410969423]","[1,1,1]","[0.024306019997875725,-0.1319694100941529]","[1,1,1]","[0.12295058191507498,-0.1574799914976389]","[-1,-1,-1]","[0.1329167390301695,-0.0860412955629991]","[-1,-1,-1]","[-0.08164221549220212,-0.02021284763327303]","[-1,-1,-1]","[-0.05808327937079192,0.03653397888251896]","[1,1,1]","[-0.10629443711785044,0.04676987109904759]","[1,1,1]","[-0.17427604103520042,0.05700582162192591]","[-1,-1,-1]","[0.04207947286158597,-0.00560541838145273]","[1,1,1]","[0.18800849772172448,-0.03518092614300402]","[1,1,1]","[0.02,0.02]",153.3231,0,38,38,154,1,,,,,,,
,,,,,,,62fd14d7b1e0729dc8aadb79,682f0fbed7e01ca94ba20eb4,2025-05-22_12h53.49.913,cuing_paradigm_dot,2024.1.5,Win32,59.88023952,682d573fa47f1360d1451895,,,,,,,,,,,153.3245,153.8228,,,154.0734,154.406,left,0.3194,,,,,,,,,0.55,,,,,,153.8228,154.0733,154.4061,"[-0.0078023483375971245,0.1869446676432681]","[1,1,1]","[0.013145089768944783,0.08926703961858903]","[1,1,1]","[-0.11569287511413817,0.14524552870616395]","[1,1,1]","[0.054017326271066604,-0.14389982382293515]","[1,1,1]","[-0.121593726054309,0.022066727004380126]","[-1,-1,-1]","[-0.07445280500164987,-0.12515186626853936]","[1,1,1]","[-0.1289368075840968,-0.15081259412569406]","[1,1,1]","[-0.08116704839773618,0.013917796193277885]","[-1,-1,-1]","[-0.19525134086966267,0.010411871269060107]","[1,1,1]","[0.18247316566168573,-0.062328845251668145]","[-1,-1,-1]","[0.17330034986811704,0.07148047378939798]","[-1,-1,-1]","[-0.023853019475657163,0.137505507719778]","[-1,-1,-1]","[0.11969002409073125,0.0929186575873513]","[1,1,1]","[-0.10902414056784557,-0.02007291605953546]","[-1,-1,-1]","[0.09985760968418746,0.052360219007568924]","[-1,-1,-1]","[-0.181382383115049,-0.058777949106532695]","[1,1,1]","[0.013874408202701102,-0.18207100456265932]","[1,1,1]","[0.022356022370237056,0.007080637741042521]","[1,1,1]","[-0.026900354806633473,-0.028760221962433608]","[1,1,1]","[-0.14366238182575355,-0.09367828941410784]","[-1,-1,-1]","[-0.10868748709985035,0.0635060768227141]","[1,1,1]","[0.04503461875336106,-0.06267184793318077]","[-1,-1,-1]","[-0.15063864488296638,0.1111568813115218]","[1,1,1]","[0.12739566669018967,-0.01644709352018016]","[-1,-1,-1]","[-0.17864906762050906,0.05365760268763607]","[1,1,1]","[0.054831571564303586,0.1479901964944831]","[-1,-1,-1]","[-0.03557494037374757,-0.06883709087673989]","[-1,-1,-1]","[0.08016069707481635,0.010968544042796182]","[1,1,1]","[0.019231205897679897,0.04841472067454637]","[1,1,1]","[-0.03518411250671916,-0.14948889590362513]","[-1,-1,-1]","[0.07525739001710222,-0.18349802548221977]","[1,1,1]","[-0.07341155240101292,0.166496296013371]","[-1,-1,-1]","[0.02,0.02]",155.5057,0,39,39,149,1,,,,,,,
,,,,,,,62fd14d7b1e0729dc8aadb79,682f0fbed7e01ca94ba20eb4,2025-05-22_12h53.49.913,cuing_paradigm_dot,2024.1.5,Win32,59.88023952,682d573fa47f1360d1451895,,,,,,,,,,,155.5067,156.0057,,,156.2564,156.489,right,0.2168,,,,,,,,,0.1,,,,,,156.0058,156.2563,156.489,"[0.053916618410357706,0.12589326866444542]","[-1,-1,-1]","[-0.02861603474442462,-0.15456096584369558]","[-1,-1,-1]","[0.05550750285858717,-0.18179163681607186]","[-1,-1,-1]","[-0.007347860129638925,-0.09380705896715232]","[-1,-1,-1]","[-0.09915315405148936,0.17309125242772436]","[-1,-1,-1]","[-0.12218570857867912,0.10104189674588482]","[1,1,1]","[0.08341718170093948,-0.0010431256796026975]","[-1,-1,-1]","[-0.18615587124798844,-0.057541800836196984]","[-1,-1,-1]","[-0.18250319052134875,-0.01352187430567583]","[-1,-1,-1]","[-0.07243118304601487,0.0645505423912335]","[-1,-1,-1]","[-0.12392744667276064,-0.06437164035020682]","[-1,-1,-1]","[0.01667986928545597,0.16119162821813765]","[-1,-1,-1]","[-0.0627622755921904,-0.05869911972398257]","[1,1,1]","[-0.02493395336720987,-0.1971184685713622]","[-1,-1,-1]","[0.1731531278562437,0.09551232425820327]","[-1,-1,-1]","[0.0948419177877183,-0.14372892357474057]","[-1,-1,-1]","[-0.13647022295656636,0.03974588384028969]","[-1,-1,-1]","[0.040172252078267155,-0.14202925825036078]","[-1,-1,-1]","[0.00009993652121629269,0.039971133559066944]","[-1,-1,-1]","[0.14254924244258682,-0.007529002358727308]","[-1,-1,-1]","[-0.08220203049930701,-0.10638948946648462]","[-1,-1,-1]","[-0.08303253150890415,0.11198914032372023]","[-1,-1,-1]","[-0.0316689486100645,0.14329990472801138]","[1,1,1]","[0.013344456546561408,-0.00419599482177723]","[-1,-1,-1]","[0.14352983528607077,-0.12388334552683056]","[-1,-1,-1]","[0.13331786683181648,0.04551518767550766]","[-1,-1,-1]","[0.16693940877314925,-0.05432754740599044]","[-1,-1,-1]","[0.05050353938384505,-0.09866568901620609]","[-1,-1,-1]","[-0.08769670446237382,0.01014367655940029]","[-1,-1,-1]","[-0.11633002039829422,-0.16149198867448453]","[-1,-1,-1]","[-0.01623948160298033,-0.0482944403752588]","[-1,-1,-1]","[0.06106261667896312,0.04248566689736029]","[-1,-1,-1]","[0.02,0.02]",157.5884,0,40,40,5,1,,,,,,,
,,,,,,,62fd14d7b1e0729dc8aadb79,682f0fbed7e01ca94ba20eb4,2025-05-22_12h53.49.913,cuing_paradigm_dot,2024.1.5,Win32,59.88023952,682d573fa47f1360d1451895,,,,,,,,,,,157.5888,158.0883,,,158.3387,158.4884,right,0.1324,,,,,,,,,0.1,,,,,,158.0884,158.3387,158.4884,"[0.03352466961569701,-0.030762405916990275]","[-1,-1,-1]","[-0.04843372136847837,-0.1190648429574212]","[-1,-1,-1]","[-0.1505623921308806,0.044599689732408944]","[-1,-1,-1]","[-0.033944278231478865,-0.040420084413594466]","[-1,-1,-1]","[-0.1023793526317408,-0.15602903194855328]","[-1,-1,-1]","[0.08276533509756533,0.024332883685723256]","[-1,-1,-1]","[0.011472446016644277,0.15695690675569476]","[-1,-1,-1]","[0.039038132604985384,-0.15957402580718566]","[-1,-1,-1]","[-0.016787466283276126,0.009450650426744074]","[-1,-1,-1]","[-0.05334684084949126,0.1493336396927246]","[-1,-1,-1]","[-0.07786998988055012,0.09314976187640661]","[1,1,1]","[-0.020694603941351274,0.19674441654911828]","[-1,-1,-1]","[0.11012868405106205,0.057613699594090004]","[-1,-1,-1]","[-0.11934034205470138,-0.02404979423666209]","[-1,-1,-1]","[0.06937062459544592,-0.1311868319408732]","[1,1,1]","[0.14239586971471913,-0.1061140600267134]","[-1,-1,-1]","[0.12326140100422146,0.12490909433541941]","[-1,-1,-1]","[0.008985396116185021,-0.10226954817248367]","[-1,-1,-1]","[0.07630314228401675,0.12558209748949375]","[-1,-1,-1]","[0.1371942595665665,-0.01880856067204971]","[-1,-1,-1]","[-0.14323859977937015,-0.06624967434641345]","[-1,-1,-1]","[-0.015395408957535163,0.12233249245287656]","[-1,-1,-1]","[0.06041021591167943,-0.08636155646185088]","[-1,-1,-1]","[-0.18750847059903705,-0.04237360260167546]","[1,1,1]","[0.1484235732442502,0.07865182953598497]","[-1,-1,-1]","[0.0604264178302763,0.07731908315451046]","[-1,-1,-1]","[-0.0431474935543832,0.04460966572973924]","[-1,-1,-1]","[0.046566670131172244,0.18392675521648727]","[-1,-1,-1]","[-0.09036112886057729,-0.07444872526683391]","[-1,-1,-1]","[0.17820936176871896,-0.008170598269892054]","[-1,-1,-1]","[-0.11884677296463617,-0.11922523271274187]","[-1,-1,-1]","[0.18661385162414842,-0.05841213553872519]","[-1,-1,-1]","[0.02,0.02]",159.5884,0,41,41,10,1,,,,,,,
,,,,,,,62fd14d7b1e0729dc8aadb79,682f0fbed7e01ca94ba20eb4,2025-05-22_12h53.49.913,cuing_paradigm_dot,2024.1.5,Win32,59.88023952,682d573fa47f1360d1451895,,,,,,,,,,,159.5892,160.0883,,,160.339,160.5883,left,0.2385,,,,,,,,,0.6,,,,,,160.0884,160.3389,160.5884,"[0.15419661382468158,0.062348583962182326]","[1,1,1]","[-0.06727470840085181,0.16154533073747918]","[1,1,1]","[-0.05380840323214079,0.0448609497215918]","[1,1,1]","[-0.052582040849525315,-0.17600154639106827]","[-1,-1,-1]","[0.060063503518570996,0.08635787687635743]","[-1,-1,-1]","[-0.1152895369053733,0.012266544569034667]","[1,1,1]","[-0.08736082241316392,-0.043275816304778836]","[1,1,1]","[0.18551289465075563,-0.0745651931868762]","[1,1,1]","[-0.07673115807992835,-0.13654806853374468]","[-1,-1,-1]","[-0.15167981801549182,0.11214930765961953]","[1,1,1]","[0.08605912498407584,-0.07249158943648704]","[1,1,1]","[-0.17053616266899832,-0.09101199745497787]","[1,1,1]","[0.034367886873911915,-0.0741449634665904]","[1,1,1]","[0.13899085497612834,-0.022102835771280534]","[1,1,1]","[0.07218791440691176,-0.17320358821806361]","[-1,-1,-1]","[0.016010187510820655,0.01737389362932915]","[-1,-1,-1]","[-0.014650661534194878,-0.11826458845878256]","[1,1,1]","[-0.11702531362747777,0.07909359277944582]","[-1,-1,-1]","[-0.18093728602673623,-0.04987783046761155]","[-1,-1,-1]","[0.09560823574896066,0.0002917025308022804]","[1,1,1]","[-0.08112978997754092,0.12387666033387171]","[1,1,1]","[-0.01237248137812029,0.08136338967334741]","[-1,-1,-1]","[-0.17068865093696886,0.011208603896353024]","[-1,-1,-1]","[0.05958121866704596,0.15674326337069713]","[1,1,1]","[0.01576608369689229,-0.16712845844044968]","[1,1,1]","[-0.039825782234010114,-0.01669730863263302]","[1,1,1]","[0.12699098194993305,-0.11498452244019455]","[-1,-1,-1]","[0.025865503197321317,0.18683861031677268]","[-1,-1,-1]","[0.05614235893766525,-0.1277021359874743]","[1,1,1]","[-0.13008018487661793,0.1475867684835037]","[1,1,1]","[-0.12228218426454822,-0.09110881707541223]","[-1,-1,-1]","[0.1642641001667934,0.01410439366018746]","[-1,-1,-1]","[0.02,0.02]",161.6881,0,42,42,178,1,,,,,,,
,,,,,,,62fd14d7b1e0729dc8aadb79,682f0fbed7e01ca94ba20eb4,2025-05-22_12h53.49.913,cuing_paradigm_dot,2024.1.5,Win32,59.88023952,682d573fa47f1360d1451895,,,,,,,,,,,161.6888,162.188,,,162.4388,162.7879,left,0.3338,,,,,,,,,0.55,,,,,,162.188,162.4387,162.7881,"[-0.024438724301569018,-0.09936826366412724]","[1,1,1]","[-0.07554936853307773,-0.1627421452657987]","[-1,-1,-1]","[0.18396513443610132,-0.04195203866501302]","[-1,-1,-1]","[-0.13695644166084003,-0.05920331400107866]","[1,1,1]","[-0.13668043105003924,0.11527614657401168]","[-1,-1,-1]","[0.04848301260141383,0.010342702980987049]","[1,1,1]","[-0.034358488311103524,0.05182295844801086]","[-1,-1,-1]","[-0.1228552499598164,-0.12268605547490641]","[-1,-1,-1]","[-0.0286677014281837,0.11861874742353902]","[1,1,1]","[0.0850083994817176,-0.09733037648233961]","[1,1,1]","[0.09190974982986268,-0.15760275261583023]","[1,1,1]","[0.039377383973669126,0.14950637248504275]","[-1,-1,-1]","[0.11863824153371412,-0.030888687072490262]","[-1,-1,-1]","[0.12488159746542792,0.08107467738611751]","[1,1,1]","[-0.1058094165596757,-0.004751921421657613]","[1,1,1]","[0.16524410000437265,0.059526471475868564]","[-1,-1,-1]","[0.049725159390420985,0.07466767987423105]","[1,1,1]","[-0.030279339863094282,0.17980550930151157]","[-1,-1,-1]","[0.1396288621795221,0.14225537574967173]","[-1,-1,-1]","[0.05905237461928738,-0.055287312026478255]","[1,1,1]","[-0.07048874214969202,-0.12074624886958514]","[-1,-1,-1]","[0.006694427429798213,-0.057703458421412133]","[1,1,1]","[-0.14865936780791006,0.02053066360034007]","[1,1,1]","[0.14442185812923644,-0.06800377745014398]","[1,1,1]","[0.044788815883166494,-0.09852374594780867]","[-1,-1,-1]","[-0.19140430699256172,0.030251783587057175]","[1,1,1]","[-0.05826840526640326,0.010714693096770669]","[-1,-1,-1]","[0.10839882970781795,0.015906326864726435]","[1,1,1]","[-0.03332801913440155,-0.16676066766855702]","[1,1,1]","[0.1234463164505681,-0.1190246262322785]","[1,1,1]","[0.026263010663042572,0.11025024917258787]","[1,1,1]","[-0.17294129071071843,-0.09033911085065777]","[-1,-1,-1]","[0.02,0.02]",163.8879,0,43,43,141,1,,,,,,,
,,,,,,,62fd14d7b1e0729dc8aadb79,682f0fbed7e01ca94ba20eb4,2025-05-22_12h53.49.913,cuing_paradigm_dot,2024.1.5,Win32,59.88023952,682d573fa47f1360d1451895,,,,,,,,,,,163.8888,164.3877,,,164.6386,164.9881,left,0.3361,,,,,,,,,0.4,,,,,,164.3878,164.6386,164.9882,"[0.11409121142648931,-0.08736985589610369]","[-1,-1,-1]","[0.04132026102179178,0.14151313474982902]","[1,1,1]","[-0.09909033965010879,0.07334862880922108]","[-1,-1,-1]","[0.11250813213985447,0.1531999698827749]","[-1,-1,-1]","[-0.0316620687315146,0.19168745925348074]","[1,1,1]","[0.06882859506051718,-0.0018657351422298307]","[-1,-1,-1]","[-0.16887445512233576,0.09019983456986405]","[1,1,1]","[-0.11555963822038408,0.035535993423479004]","[1,1,1]","[0.08215700409945678,-0.13641697812804446]","[-1,-1,-1]","[0.052182930612948375,0.07803649750372611]","[-1,-1,-1]","[-0.006667891216005939,0.13729307564118137]","[-1,-1,-1]","[-0.11355108275480924,-0.006819265125562448]","[-1,-1,-1]","[-0.03709112417218937,0.0831445019382293]","[-1,-1,-1]","[0.18537716789464234,0.0365336682703541]","[1,1,1]","[-0.11732930577928899,-0.12312418320469447]","[1,1,1]","[-0.16295813576837018,-0.02975450963024906]","[1,1,1]","[0.016127031129139612,-0.03399778361434463]","[1,1,1]","[-0.06256330783448599,-0.014508665518782849]","[1,1,1]","[0.10658322779197056,-0.028886054560210563]","[-1,-1,-1]","[0.06793351248126041,-0.048995832781432366]","[-1,-1,-1]","[-0.16954540443322877,0.04268027963785154]","[-1,-1,-1]","[-0.05370149742113241,-0.08265193071543485]","[1,1,1]","[0.013412994323990455,-0.12988674270936487]","[-1,-1,-1]","[0.0036790333240814283,-0.17431675877241828]","[1,1,1]","[0.12084628340914685,0.09641843597827585]","[-1,-1,-1]","[-0.06623824293699222,0.12351275633861578]","[-1,-1,-1]","[0.008979544959444788,-0.07391285778821745]","[1,1,1]","[0.11238345879893719,-0.1652189591961084]","[-1,-1,-1]","[0.12603433843780382,0.05620242239222105]","[-1,-1,-1]","[-0.05311418188447814,-0.12381737139571712]","[1,1,1]","[-0.14200945994090342,0.1362589302522245]","[-1,-1,-1]","[-0.19165213927787875,0.00010066610494814326]","[-1,-1,-1]","[0.02,0.02]",166.0874,0,44,44,39,1,,,,,,,
