right,left,explain.started,explain.stopped,key_resp_3.keys,key_resp_3.rt,key_resp_3.duration,participant,session,date,expName,psychopyVersion,OS,frameRate,study_id,explain_2.started,explain_2.stopped,key_resp_4.keys,key_resp_4.rt,key_resp_4.duration,explain_3.started,explain_3.stopped,key_resp_5.keys,key_resp_5.rt,key_resp_5.duration,fixation.started,fixation.stopped,practice.started,practice.stopped,response.started,response.stopped,key_resp.keys,feedback.started,feedback.stopped,trials_2.thisRepN,trials_2.thisTrialN,trials_2.thisN,trials_2.thisIndex,trials_2.ran,white_ratio,key_resp.rt,key_resp.duration,explain_4.started,explain_4.stopped,key_resp_6.keys,key_resp_6.rt,key_resp_6.duration,dotDisplay.started,dotDisplay.stopped,ITI.started,polygon_1.pos,polygon_1.color,polygon_2.pos,polygon_2.color,polygon_3.pos,polygon_3.color,polygon_4.pos,polygon_4.color,polygon_5.pos,polygon_5.color,polygon_6.pos,polygon_6.color,polygon_7.pos,polygon_7.color,polygon_8.pos,polygon_8.color,polygon_9.pos,polygon_9.color,polygon_10.pos,polygon_10.color,polygon_11.pos,polygon_11.color,polygon_12.pos,polygon_12.color,polygon_13.pos,polygon_13.color,polygon_14.pos,polygon_14.color,polygon_15.pos,polygon_15.color,polygon_16.pos,polygon_16.color,polygon_17.pos,polygon_17.color,polygon_18.pos,polygon_18.color,polygon_19.pos,polygon_19.color,polygon_20.pos,polygon_20.color,polygon_21.pos,polygon_21.color,polygon_22.pos,polygon_22.color,polygon_23.pos,polygon_23.color,polygon_24.pos,polygon_24.color,polygon_25.pos,polygon_25.color,polygon_26.pos,polygon_26.color,polygon_27.pos,polygon_27.color,polygon_28.pos,polygon_28.color,polygon_29.pos,polygon_29.color,polygon_30.pos,polygon_30.color,polygon_31.pos,polygon_31.color,polygon_32.pos,polygon_32.color,dot_size,ITI.stopped,trials.thisRepN,trials.thisTrialN,trials.thisN,trials.thisIndex,trials.ran,break_2.started,break_2.stopped,trials_3.thisRepN,trials_3.thisTrialN,trials_3.thisN,trials_3.thisIndex,trials_3.ran
subject chose black,subject chose white,0.0005,62.255,space,47.2485,,645f2d6b7d2fa796bd75c72e,682f037fefeec23a91fd4c0b,2025-05-22_11h59.26.591,cuing_paradigm_dot,2024.1.5,Win32,60.24096386,682d556593cb38ad0a074487,,,,,,,,,,,,,,,,,,,,,,,,,,,,,,,,,,,,,,,,,,,,,,,,,,,,,,,,,,,,,,,,,,,,,,,,,,,,,,,,,,,,,,,,,,,,,,,,,,,,,,,,,,,,,,,,,
,,,,,,,645f2d6b7d2fa796bd75c72e,682f037fefeec23a91fd4c0b,2025-05-22_11h59.26.591,cuing_paradigm_dot,2024.1.5,Win32,60.24096386,682d556593cb38ad0a074487,62.2554,106.3655,space,14.0934,,,,,,,,,,,,,,,,,,,,,,,,,,,,,,,,,,,,,,,,,,,,,,,,,,,,,,,,,,,,,,,,,,,,,,,,,,,,,,,,,,,,,,,,,,,,,,,,,,,,,,,,,,,,,
,,,,,,,645f2d6b7d2fa796bd75c72e,682f037fefeec23a91fd4c0b,2025-05-22_11h59.26.591,cuing_paradigm_dot,2024.1.5,Win32,60.24096386,682d556593cb38ad0a074487,,,,,,106.3659,111.4989,space,2.1113,,,,,,,,,,,,,,,,,,,,,,,,,,,,,,,,,,,,,,,,,,,,,,,,,,,,,,,,,,,,,,,,,,,,,,,,,,,,,,,,,,,,,,,,,,,,,,,,,,,,,,,,
,,,,,,,645f2d6b7d2fa796bd75c72e,682f037fefeec23a91fd4c0b,2025-05-22_11h59.26.591,cuing_paradigm_dot,2024.1.5,Win32,60.24096386,682d556593cb38ad0a074487,,,,,,,,,,,111.5338,112.0152,112.0157,112.266,112.2662,113.7653,,113.7656,114.865,0,0,0,0,1,0.8,,,,,,,,,,,,,,,,,,,,,,,,,,,,,,,,,,,,,,,,,,,,,,,,,,,,,,,,,,,,,,,,,,,,,,,,,,,,,,,,,,,,,,,,
,,,,,,,645f2d6b7d2fa796bd75c72e,682f037fefeec23a91fd4c0b,2025-05-22_11h59.26.591,cuing_paradigm_dot,2024.1.5,Win32,60.24096386,682d556593cb38ad0a074487,,,,,,,,,,,114.866,115.3644,115.3646,115.6158,115.6159,116.2483,right,116.2484,117.3481,0,1,1,1,1,0.2,0.6242,,,,,,,,,,,,,,,,,,,,,,,,,,,,,,,,,,,,,,,,,,,,,,,,,,,,,,,,,,,,,,,,,,,,,,,,,,,,,,,,,,,,,,,
,,,,,,,645f2d6b7d2fa796bd75c72e,682f037fefeec23a91fd4c0b,2025-05-22_11h59.26.591,cuing_paradigm_dot,2024.1.5,Win32,60.24096386,682d556593cb38ad0a074487,,,,,,,,,,,,,,,,,,,,,,,,,,,,117.349,122.5318,space,2.1533,,,,,,,,,,,,,,,,,,,,,,,,,,,,,,,,,,,,,,,,,,,,,,,,,,,,,,,,,,,,,,,,,,,,,,,,,,,,,,,,,,
,,,,,,,645f2d6b7d2fa796bd75c72e,682f037fefeec23a91fd4c0b,2025-05-22_11h59.26.591,cuing_paradigm_dot,2024.1.5,Win32,60.24096386,682d556593cb38ad0a074487,,,,,,,,,,,122.5535,123.048,,,123.2991,123.9144,right,,,,,,,,0.4,0.6074,,,,,,,123.0486,123.299,123.9149,"[-0.04663167496648287,-0.17984287258976464]","[-1,-1,-1]","[-0.041472074061007655,-0.04701179184446887]","[1,1,1]","[-0.09101383368984566,-0.14102001141780005]","[1,1,1]","[0.19079989303165,-0.05065809597099047]","[-1,-1,-1]","[0.06017473455349292,0.0818119523458733]","[-1,-1,-1]","[-0.07586115487309414,0.0013231280661714544]","[1,1,1]","[-0.16843051853423444,-0.1018116827659379]","[-1,-1,-1]","[-0.05482377597413456,0.1148521843047461]","[-1,-1,-1]","[0.08993681651799981,0.02216690963045147]","[1,1,1]","[0.13175480783766944,-0.06518828903230343]","[-1,-1,-1]","[-0.12159155935355404,0.052234362326146686]","[-1,-1,-1]","[-0.015684191114595968,0.14245046979969092]","[1,1,1]","[0.02549182954874542,0.1346622145855015]","[-1,-1,-1]","[0.05840789657989411,-0.07813966272523482]","[1,1,1]","[0.05110403740795288,0.011664711444527163]","[-1,-1,-1]","[0.04492678872179017,-0.16205737618307395]","[-1,-1,-1]","[-0.04410384021341093,-0.1037789373118576]","[1,1,1]","[-0.1738145763265287,-0.02075896387264053]","[-1,-1,-1]","[0.11479289126569016,-0.15735829422459413]","[1,1,1]","[-0.17998545350826703,0.058550175213837985]","[1,1,1]","[0.008169482683761291,0.00810079119959075]","[-1,-1,-1]","[-0.1379359142945306,0.10716082196090483]","[1,1,1]","[0.020228633493521487,0.0847667115270214]","[-1,-1,-1]","[0.003608377046899097,-0.12875725344252287]","[1,1,1]","[-0.08303402456750657,0.0719073909008195]","[-1,-1,-1]","[0.16211810764987516,0.11001816028239589]","[-1,-1,-1]","[-0.07259503375853199,-0.07499724669955511]","[-1,-1,-1]","[0.02271795864334381,-0.03269805830028461]","[-1,-1,-1]","[-0.12643839291000816,-0.09459268969686346]","[1,1,1]","[-0.14277512748683927,-0.056273783514890645]","[1,1,1]","[0.14323785953863807,-0.12512184945783375]","[-1,-1,-1]","[0.18730754793334192,-0.005349063048267573]","[-1,-1,-1]","[0.02,0.02]",125.0146,0,0,0,52,1,,,,,,,
,,,,,,,645f2d6b7d2fa796bd75c72e,682f037fefeec23a91fd4c0b,2025-05-22_11h59.26.591,cuing_paradigm_dot,2024.1.5,Win32,60.24096386,682d556593cb38ad0a074487,,,,,,,,,,,125.0151,125.5145,,,125.7653,127.1973,left,,,,,,,,0.5,1.4141,,,,,,,125.5146,125.7651,127.1974,"[-0.17759974975893422,-0.024738311449986543]","[-1,-1,-1]","[-0.12568810119918125,0.07153502579740599]","[1,1,1]","[-0.11232119587729854,-0.006409730727782621]","[1,1,1]","[0.09722259787299338,0.13126326772343713]","[1,1,1]","[0.14555113033573194,0.04584178281081388]","[-1,-1,-1]","[0.03730828630906641,0.04372101153719325]","[1,1,1]","[-0.09899701118293543,0.10254380878315464]","[-1,-1,-1]","[0.08578196329058488,-0.14174570449890803]","[1,1,1]","[0.0408142962712794,-0.10589275145485044]","[-1,-1,-1]","[-0.0385169081614571,0.11786376215552788]","[1,1,1]","[-0.07210084826765983,-0.03746207379643948]","[-1,-1,-1]","[-0.09025160392491959,-0.1766558200405879]","[-1,-1,-1]","[0.04507251806960606,-0.006511687357620853]","[-1,-1,-1]","[0.04930454172053136,-0.06591251591385659]","[1,1,1]","[0.03252783937879308,-0.16680814104927646]","[1,1,1]","[0.15259681228453015,-0.08949279377080589]","[1,1,1]","[0.0989553096033756,-0.09348675683736866]","[1,1,1]","[-0.11208695180479984,-0.05295761848487112]","[1,1,1]","[0.09507041621440161,0.017536744169264]","[1,1,1]","[0.12111794980392512,-0.018079570395058434]","[-1,-1,-1]","[0.1493890186077442,-0.1322023569218965]","[1,1,1]","[-0.06576172192330694,0.004970319313721684]","[-1,-1,-1]","[-0.0008205743113235501,0.0816200246533178]","[-1,-1,-1]","[-0.08089326672171032,0.05868726500440962]","[1,1,1]","[0.005838351822755038,0.14058543563393397]","[1,1,1]","[-0.07534879457078181,0.17328154280039856]","[-1,-1,-1]","[-0.0027729374444133417,-0.01558469094499004]","[-1,-1,-1]","[-0.000012710619496078383,-0.11835827072829061]","[-1,-1,-1]","[0.0014474425255309202,-0.05672237736086622]","[1,1,1]","[-0.12270013139149777,-0.11368075694705422]","[-1,-1,-1]","[0.05180824325974181,0.13233804052675086]","[-1,-1,-1]","[-0.03238148404637707,-0.1551562695827833]","[-1,-1,-1]","[0.02,0.02]",128.2978,0,1,1,106,1,,,,,,,
,,,,,,,645f2d6b7d2fa796bd75c72e,682f037fefeec23a91fd4c0b,2025-05-22_11h59.26.591,cuing_paradigm_dot,2024.1.5,Win32,60.24096386,682d556593cb38ad0a074487,,,,,,,,,,,128.2983,128.7976,,,129.0486,130.0643,right,,,,,,,,0.6,1.0066,,,,,,,128.7976,129.0484,130.0644,"[0.06778281087008779,0.12320495192904256]","[1,1,1]","[-0.14697592326264167,0.08348885469011272]","[-1,-1,-1]","[0.1027504994996447,-0.06856278617632566]","[1,1,1]","[-0.17180833977863655,0.03139628452013771]","[1,1,1]","[-0.04442542090933357,-0.08227557464072772]","[1,1,1]","[0.0063371030279039545,-0.06502947955605862]","[1,1,1]","[-0.1350861253240263,-0.0337795978717891]","[1,1,1]","[-0.1057593049192828,-0.13125316664052333]","[-1,-1,-1]","[0.17874842584791364,0.04126379352832483]","[1,1,1]","[-0.06503552653706157,0.07968245511612224]","[-1,-1,-1]","[-0.15366496787347947,-0.0948353794577768]","[1,1,1]","[0.005515679378774356,-0.1217834518476889]","[1,1,1]","[0.14487704963789863,-0.04214591059428952]","[1,1,1]","[-0.034227904022634786,0.13960573930987472]","[-1,-1,-1]","[0.09434700261486927,-0.1585437737058572]","[1,1,1]","[-0.1893935974667273,-0.016456030547149406]","[-1,-1,-1]","[0.16815255000464793,-0.0770413655551615]","[-1,-1,-1]","[0.01786689306447549,0.09703535920303212]","[-1,-1,-1]","[0.033561920990133685,0.009500424348318322]","[1,1,1]","[0.03537398748187036,-0.09270269895875438]","[-1,-1,-1]","[-0.08346153292561478,-0.09548313090754294]","[-1,-1,-1]","[0.09854015143560545,0.15809701865315343]","[1,1,1]","[-0.008009273295284388,0.049486781965318666]","[-1,-1,-1]","[-0.11853848945062748,0.1404285291046072]","[1,1,1]","[-0.05534086285550629,-0.13287796013202577]","[1,1,1]","[-0.06113361415963868,0.0014147073434197764]","[-1,-1,-1]","[0.1513439273005971,0.1232144905516824]","[1,1,1]","[0.13556598173072917,-0.1287613533933351]","[1,1,1]","[0.18332439732671085,-0.014487784384552544]","[-1,-1,-1]","[-0.1145085581084197,0.025689620934804744]","[1,1,1]","[0.12937340587515367,0.06020847035842269]","[-1,-1,-1]","[0.0747279929818049,0.03432443610149255]","[1,1,1]","[0.02,0.02]",131.1642,0,2,2,176,1,,,,,,,
,,,,,,,645f2d6b7d2fa796bd75c72e,682f037fefeec23a91fd4c0b,2025-05-22_11h59.26.591,cuing_paradigm_dot,2024.1.5,Win32,60.24096386,682d556593cb38ad0a074487,,,,,,,,,,,131.165,131.6642,,,131.9146,133.4141,,,,,,,,,0.9,,,,,,,,131.6642,131.9146,133.4143,"[-0.027916746104248265,-0.15129786033509224]","[1,1,1]","[-0.03328588160461959,0.09778145008162899]","[1,1,1]","[0.15537147754306588,-0.11997409118382932]","[1,1,1]","[0.06326046107893185,-0.13861392211374746]","[1,1,1]","[0.005241937490465132,0.1198272145849858]","[1,1,1]","[0.070772722060849,0.10122514524142605]","[1,1,1]","[0.12689343969838238,0.11734110708343301]","[1,1,1]","[-0.06763205425397997,-0.05243398656448332]","[1,1,1]","[-0.018973399872172735,-0.19334807906340468]","[1,1,1]","[-0.1729591907380357,0.06900653861336283]","[1,1,1]","[-0.02927587665934782,-0.08129249181803187]","[1,1,1]","[-0.08185225801577274,0.14713489863982807]","[1,1,1]","[-0.100018784428321,-0.09672383609977117]","[1,1,1]","[0.16522681269414013,0.04625361291259547]","[1,1,1]","[0.04413660754495314,-0.06422926066023477]","[1,1,1]","[0.08763727590572054,0.0013044746336353967]","[1,1,1]","[-0.17326412996937787,-0.027743499453223068]","[1,1,1]","[0.051917574922222556,0.1587955388721793]","[1,1,1]","[0.09845799675691874,-0.1611822551692591]","[1,1,1]","[0.14023527064456914,-0.06958204078663605]","[-1,-1,-1]","[-0.09093258083808231,0.08455037461854024]","[1,1,1]","[-0.08153506769755862,0.0369856752919353]","[1,1,1]","[-0.12655649259489662,0.048722593384856565]","[1,1,1]","[-0.12922550234810423,-0.06591572815409642]","[-1,-1,-1]","[-0.13170046473239533,0.0027066798747500077]","[1,1,1]","[0.023883913116852062,-0.13060053450571]","[1,1,1]","[0.04787519665428912,-0.1858238924398408]","[1,1,1]","[0.08199712184431035,0.054301182078148394]","[1,1,1]","[0.1551082259286828,-0.02434292657488555]","[1,1,1]","[-0.1649183902956775,-0.09321256322299376]","[1,1,1]","[-0.08660723724532893,-0.008252771263774626]","[-1,-1,-1]","[-0.03914270630642307,0.03389173042324152]","[1,1,1]","[0.02,0.02]",134.5144,0,3,3,200,1,,,,,,,
,,,,,,,645f2d6b7d2fa796bd75c72e,682f037fefeec23a91fd4c0b,2025-05-22_11h59.26.591,cuing_paradigm_dot,2024.1.5,Win32,60.24096386,682d556593cb38ad0a074487,,,,,,,,,,,134.5152,135.0142,,,135.2648,136.7639,,,,,,,,,0.5,,,,,,,,135.0143,135.2647,136.7641,"[-0.10647720583045726,0.127423949189624]","[-1,-1,-1]","[-0.13896040386392963,-0.08975286889440758]","[1,1,1]","[-0.12792253424997735,0.08578932042753482]","[-1,-1,-1]","[0.12530742671940637,0.05137877528213742]","[1,1,1]","[0.13781259277297783,0.0973567075119571]","[-1,-1,-1]","[0.12752493656857633,-0.1160969700205945]","[-1,-1,-1]","[-0.0648192312159489,-0.1740530036191911]","[1,1,1]","[0.0035735914989700602,0.17900465808399932]","[-1,-1,-1]","[-0.027336747010996035,-0.12561750312198822]","[1,1,1]","[0.10386325024421092,0.1244682841510945]","[-1,-1,-1]","[-0.15190090829391803,-0.050650399556538675]","[-1,-1,-1]","[0.14607864446964292,-0.002202098378477744]","[1,1,1]","[0.09890164724398069,-0.06641278751248662]","[-1,-1,-1]","[0.17215116311771927,-0.05185027163843218]","[-1,-1,-1]","[0.027361449512851674,0.06400742867625063]","[1,1,1]","[0.02547552189197719,-0.1895040330814384]","[-1,-1,-1]","[0.04907165202443918,-0.025580287696586445]","[-1,-1,-1]","[-0.09974771337566044,-0.11027699812962473]","[1,1,1]","[-0.17125612545354663,0.0749568826201177]","[-1,-1,-1]","[-0.00820002628204683,-0.011167314243976705]","[1,1,1]","[-0.06972254005609939,0.08147672522925696]","[-1,-1,-1]","[0.10008289521878459,0.01346488287235502]","[1,1,1]","[-0.07016250060524777,-0.017221288354631083]","[1,1,1]","[0.024324341932343566,0.1310044046966229]","[1,1,1]","[-0.14374370738133413,-0.009687479622955136]","[1,1,1]","[0.08724954324170704,-0.173608825349248]","[1,1,1]","[0.06741672447843906,0.18142219427800566]","[1,1,1]","[0.07901714894669494,0.07215190535583303]","[-1,-1,-1]","[-0.12018040843301168,-0.15575212867812005]","[1,1,1]","[0.18377025225007973,0.07619549960273274]","[-1,-1,-1]","[-0.014561185742641718,-0.1966215370102391]","[-1,-1,-1]","[-0.07469374004200761,0.028864203668786094]","[1,1,1]","[0.02,0.02]",137.8643,0,4,4,108,1,,,,,,,
,,,,,,,645f2d6b7d2fa796bd75c72e,682f037fefeec23a91fd4c0b,2025-05-22_11h59.26.591,cuing_paradigm_dot,2024.1.5,Win32,60.24096386,682d556593cb38ad0a074487,,,,,,,,,,,137.8649,138.3642,,,138.6146,139.1481,right,,,,,,,,0.55,0.5177,,,,,,,138.3642,138.6146,139.1482,"[0.17467043547133454,0.009844403178499467]","[-1,-1,-1]","[-0.0071604008946591505,0.12521603541219206]","[1,1,1]","[-0.04907363717626353,-0.039246910819259774]","[1,1,1]","[0.11182078188664601,0.12260013881001983]","[1,1,1]","[0.09754952326604396,-0.07366680982203705]","[1,1,1]","[-0.03236439807686422,-0.12181218398652363]","[-1,-1,-1]","[-0.140964483367545,-0.05837154943863882]","[-1,-1,-1]","[-0.019355602131973442,0.02430906534196589]","[-1,-1,-1]","[0.01325692135584612,-0.12237807647397843]","[-1,-1,-1]","[-0.17433094779686642,0.05711718729624758]","[1,1,1]","[0.12678004139302443,-0.028085034613699638]","[1,1,1]","[0.041105883754800655,0.08091794781678145]","[-1,-1,-1]","[0.12655880086952448,-0.10475998988068322]","[-1,-1,-1]","[0.070530103627508,0.11702065294536877]","[1,1,1]","[-0.11978126480721885,-0.09957209335538701]","[1,1,1]","[-0.10106498202849143,0.1356089029176768]","[1,1,1]","[0.061681449596353834,-0.05556183322276556]","[1,1,1]","[0.036690106646584696,-0.17474833843352297]","[-1,-1,-1]","[-0.03161074610844108,0.19459254910876222]","[-1,-1,-1]","[0.18856153401707054,0.052862896797878436]","[-1,-1,-1]","[-0.029301030599035237,-0.1762829500669093]","[1,1,1]","[-0.13842615139621542,-0.1395941682897975]","[-1,-1,-1]","[-0.18467156186531858,-0.011717558960494343]","[1,1,1]","[-0.04619340898966742,0.08266036095649833]","[1,1,1]","[0.09692007100075264,0.021441447440229928]","[1,1,1]","[0.10319446296141681,-0.14569469867296242]","[-1,-1,-1]","[0.158769345994032,-0.05955620215362716]","[1,1,1]","[-0.062427204313549214,0.023724693021479375]","[1,1,1]","[-0.08962592337102959,-0.05821611779916966]","[-1,-1,-1]","[0.13487282308756668,0.04839254760686971]","[1,1,1]","[-0.1338796809149859,0.09882957610164982]","[-1,-1,-1]","[-0.04615647652187038,0.1476123772529772]","[1,1,1]","[0.02,0.02]",140.2476,0,5,5,148,1,,,,,,,
,,,,,,,645f2d6b7d2fa796bd75c72e,682f037fefeec23a91fd4c0b,2025-05-22_11h59.26.591,cuing_paradigm_dot,2024.1.5,Win32,60.24096386,682d556593cb38ad0a074487,,,,,,,,,,,140.2481,140.7476,,,140.998,142.4975,,,,,,,,,0.4,,,,,,,,140.7477,140.9979,142.4975,"[0.025974300438791,-0.12329771103853733]","[1,1,1]","[0.12911237701024036,0.057842826465575696]","[1,1,1]","[-0.028179597609305846,0.0013997482878780017]","[1,1,1]","[-0.02767745005743298,-0.07815514043984623]","[1,1,1]","[-0.13737408668692805,0.07018299684064865]","[-1,-1,-1]","[0.07806542006736139,0.014591594358367961]","[-1,-1,-1]","[-0.04527768506260117,-0.16860010545686457]","[-1,-1,-1]","[-0.1627562717979333,-0.08581884724391935]","[-1,-1,-1]","[-0.011656650925010312,0.18449878727301994]","[1,1,1]","[0.08482192457534732,0.133637944456939]","[-1,-1,-1]","[-0.11723648280777972,-0.05480849181811635]","[-1,-1,-1]","[0.11549543569053493,-0.09897318442603158]","[-1,-1,-1]","[0.0643945852549578,-0.09203451470276523]","[-1,-1,-1]","[-0.1186374119577827,-0.12597440520447856]","[1,1,1]","[0.14203812804469118,-0.025757841666496743]","[-1,-1,-1]","[0.020625758240786073,-0.033083144251582035]","[1,1,1]","[-0.1792922730282993,0.009397213428728924]","[-1,-1,-1]","[-0.060697462092679316,0.08870753723647737]","[1,1,1]","[-0.06818744193954501,-0.1300050283480034]","[-1,-1,-1]","[0.14337875448772738,0.017888998045252836]","[1,1,1]","[0.09549884515334686,-0.04061601818573708]","[1,1,1]","[0.010368418671971948,0.09427680711055227]","[1,1,1]","[0.01181566254822713,-0.18797321005771486]","[-1,-1,-1]","[0.08456473730766258,-0.1811905551506433]","[-1,-1,-1]","[-0.09351148748099013,-0.010987923448839093]","[-1,-1,-1]","[-0.025653595104875877,0.042059094795851605]","[-1,-1,-1]","[0.18976931627948232,-0.05990223309577964]","[-1,-1,-1]","[-0.0765348573365369,0.1642874010704929]","[-1,-1,-1]","[0.08939198407865022,0.08422296451138214]","[-1,-1,-1]","[-0.022003125582256377,-0.11945473980593484]","[1,1,1]","[-0.11514766676708635,0.13362076159272854]","[1,1,1]","[-0.1830142703581531,-0.03948661662208835]","[-1,-1,-1]","[0.02,0.02]",143.5968,0,6,6,31,1,,,,,,,
,,,,,,,645f2d6b7d2fa796bd75c72e,682f037fefeec23a91fd4c0b,2025-05-22_11h59.26.591,cuing_paradigm_dot,2024.1.5,Win32,60.24096386,682d556593cb38ad0a074487,,,,,,,,,,,143.5973,144.0971,,,144.3479,144.7641,right,,,,,,,,0.45,0.4061,,,,,,,144.0972,144.3479,144.7642,"[-0.04462743759156844,-0.07633188664629152]","[-1,-1,-1]","[-0.004191915301478129,0.1364536140560937]","[-1,-1,-1]","[-0.09236204903571785,-0.11364790312277039]","[-1,-1,-1]","[-0.0067489104198517405,-0.01665076589987943]","[1,1,1]","[-0.0909090967916125,-0.17760197468999733]","[-1,-1,-1]","[-0.03022008403003886,-0.12997996822008068]","[-1,-1,-1]","[0.19532227441715067,-0.023649598871540344]","[-1,-1,-1]","[-0.15980820947060534,0.1028071952623557]","[1,1,1]","[-0.12105494114129184,0.1455340834165962]","[-1,-1,-1]","[-0.13109260108600737,0.0374593810078392]","[1,1,1]","[-0.1306459484318534,-0.07896674015840463]","[1,1,1]","[-0.04331245049396788,0.15961824059853588]","[1,1,1]","[-0.07406250168979145,0.04843511020212471]","[1,1,1]","[0.12248874312039124,0.019702963065012333]","[-1,-1,-1]","[0.07623354993434824,-0.14599800443402375]","[1,1,1]","[0.15432106713219484,-0.07229844524133067]","[-1,-1,-1]","[0.11678190331651184,-0.04133577919358076]","[1,1,1]","[-0.11683587920428716,0.09859983815000918]","[-1,-1,-1]","[0.037231810277612486,0.01720382268654057]","[-1,-1,-1]","[0.08213670709481134,-0.007630778327881483]","[-1,-1,-1]","[0.04647174305128004,0.16357472031017584]","[-1,-1,-1]","[-0.021182226142296205,0.03907099559631741]","[-1,-1,-1]","[0.1667103268591031,0.10779479767546069]","[-1,-1,-1]","[0.1788668119973229,0.0376707193480673]","[1,1,1]","[0.021205153209074002,-0.13775689011082]","[-1,-1,-1]","[-0.006381767992288934,-0.058844880720773485]","[1,1,1]","[-0.1518308918943421,-0.119922684535053]","[1,1,1]","[0.11125793029093599,0.059642126052430425]","[1,1,1]","[-0.1926278680090199,0.03012929501789702]","[-1,-1,-1]","[0.056989489060813976,-0.03982222047888756]","[-1,-1,-1]","[0.04585625002913081,0.07126145899523365]","[1,1,1]","[-0.08911224672432208,-0.050948988653358986]","[1,1,1]","[0.02,0.02]",145.8639,0,7,7,74,1,,,,,,,
,,,,,,,645f2d6b7d2fa796bd75c72e,682f037fefeec23a91fd4c0b,2025-05-22_11h59.26.591,cuing_paradigm_dot,2024.1.5,Win32,60.24096386,682d556593cb38ad0a074487,,,,,,,,,,,145.8643,146.3639,,,146.6144,147.2142,right,,,,,,,,0.55,0.5902,,,,,,,146.3639,146.6144,147.2143,"[-0.052210721082282696,-0.019896155372038375]","[1,1,1]","[-0.0793696163014761,-0.06547556330960928]","[-1,-1,-1]","[-0.10084828984288514,0.10380118856030471]","[1,1,1]","[0.156305873722761,-0.1009909790766975]","[1,1,1]","[0.04925731888253979,-0.0028064128259249256]","[-1,-1,-1]","[-0.10139667232417275,-0.10059403569405563]","[-1,-1,-1]","[0.007135021684031753,0.006424127336568026]","[-1,-1,-1]","[0.06995394619749894,-0.11504473338777271]","[1,1,1]","[0.09981953568258044,0.15863626824894045]","[1,1,1]","[0.02942532747020382,0.13056859469420065]","[-1,-1,-1]","[-0.18402878248205196,0.05582788313728383]","[1,1,1]","[0.17904809405883904,0.029776372860630493]","[-1,-1,-1]","[-0.13484352108503875,0.13059297009196094]","[-1,-1,-1]","[-0.10479316572711662,-0.15885352843377162]","[-1,-1,-1]","[-0.008529047885048989,0.15030752543100728]","[-1,-1,-1]","[0.06669076124826916,-0.0743954296650974]","[1,1,1]","[0.0057340346734105815,-0.14677945781291798]","[-1,-1,-1]","[0.0173943184154471,-0.19109153202964915]","[1,1,1]","[-0.1453073440186772,0.08387309676455183]","[1,1,1]","[0.1891333602802444,-0.030077097115160125]","[-1,-1,-1]","[-0.009735666908369769,0.07980310526676516]","[-1,-1,-1]","[-0.01981231387328075,0.03788567622216421]","[-1,-1,-1]","[-0.11406179827238293,-0.04019242220063523]","[1,1,1]","[0.1066322915157405,-0.09784388871687473]","[1,1,1]","[-0.010337064741690041,-0.08404181785628509]","[1,1,1]","[0.12479174771021018,-0.15262448099088197]","[-1,-1,-1]","[-0.04575578523389012,0.09941148427102277]","[1,1,1]","[0.15815457698628244,0.08949109000713748]","[1,1,1]","[0.07930833588053965,0.07725313198012723]","[1,1,1]","[0.1262440281923201,0.04239308642968761]","[1,1,1]","[-0.050108121140530364,0.18651496870505502]","[1,1,1]","[0.13659216342862474,-0.02042730493240545]","[1,1,1]","[0.02,0.02]",148.3137,0,8,8,125,1,,,,,,,
,,,,,,,645f2d6b7d2fa796bd75c72e,682f037fefeec23a91fd4c0b,2025-05-22_11h59.26.591,cuing_paradigm_dot,2024.1.5,Win32,60.24096386,682d556593cb38ad0a074487,,,,,,,,,,,148.3143,148.8139,,,149.0634,149.3639,right,,,,,,,,0.1,0.2861,,,,,,,148.8139,149.0634,149.3639,"[0.11618080205093484,-0.10472033794626961]","[-1,-1,-1]","[-0.14769699023637312,0.025388034338664725]","[-1,-1,-1]","[-0.04678238976104761,0.1675597594970963]","[-1,-1,-1]","[0.09932980401144069,0.09942002954468009]","[-1,-1,-1]","[-0.03526337912443592,-0.1267280174625884]","[-1,-1,-1]","[-0.1599504271250848,-0.036273323084870676]","[-1,-1,-1]","[0.12329270665697777,0.027579317568512684]","[1,1,1]","[-0.04667419577308602,0.030394635480524772]","[-1,-1,-1]","[0.005926229886232986,0.12087141550732033]","[-1,-1,-1]","[-0.09802920834237466,-0.003649929762163362]","[-1,-1,-1]","[0.07025570551625099,0.007921459137165682]","[-1,-1,-1]","[-0.11310641975101557,0.09452534258076169]","[-1,-1,-1]","[0.04775506378042254,-0.19254573239993944]","[-1,-1,-1]","[0.16580014067368723,0.016761406006631115]","[-1,-1,-1]","[0.1158776971733232,0.1625647039915112]","[-1,-1,-1]","[-0.15277509363575129,0.10392164193897334]","[1,1,1]","[-0.14432758365226925,-0.07878897747417961]","[-1,-1,-1]","[-0.13143096029175355,-0.13553248778490465]","[-1,-1,-1]","[0.029248252591237853,0.19256281842264383]","[-1,-1,-1]","[0.06318071562424277,0.12001375073119402]","[-1,-1,-1]","[0.1494503680387722,-0.06100913408045596]","[-1,-1,-1]","[0.07493353590203315,0.06366164458951153]","[-1,-1,-1]","[0.037270945085226076,0.0874273989328726]","[-1,-1,-1]","[0.052833423162898144,-0.08175505755092803]","[-1,-1,-1]","[0.10661157238423993,-0.14790748362029982]","[-1,-1,-1]","[-0.04236720882207116,-0.04443420622111917]","[-1,-1,-1]","[0.14713947501128186,0.12825141117723812]","[-1,-1,-1]","[-0.10276070939002015,0.16638454542735565]","[-1,-1,-1]","[0.19709486613690624,-0.013985604939700268]","[-1,-1,-1]","[-0.17692322225147633,0.06820654324475253]","[1,1,1]","[0.06550021159985663,0.16939120734035834]","[-1,-1,-1]","[0.000390732320658562,-0.015796614169773588]","[-1,-1,-1]","[0.02,0.02]",150.4637,0,9,9,29,1,,,,,,,
,,,,,,,645f2d6b7d2fa796bd75c72e,682f037fefeec23a91fd4c0b,2025-05-22_11h59.26.591,cuing_paradigm_dot,2024.1.5,Win32,60.24096386,682d556593cb38ad0a074487,,,,,,,,,,,150.4642,150.9638,,,151.2144,151.6806,right,,,,,,,,0.4,0.4474,,,,,,,150.964,151.2143,151.6806,"[-0.18276454278039977,0.049452207374674276]","[-1,-1,-1]","[-0.09468952917633701,0.09275485438698974]","[1,1,1]","[-0.011142498397003894,-0.05470361822454473]","[1,1,1]","[-0.09050642815011975,0.027470816534037157]","[1,1,1]","[-0.11148999640928256,-0.04907647272184417]","[-1,-1,-1]","[0.11478252731637469,-0.04462046101623243]","[-1,-1,-1]","[-0.04915594016257874,0.08325573253112883]","[-1,-1,-1]","[0.1009594273834298,0.013644788282670796]","[-1,-1,-1]","[-0.08821949803692207,0.1432911006148338]","[1,1,1]","[-0.1563429667358343,-0.07150234603272387]","[-1,-1,-1]","[-0.14740811553037017,0.003218278429813638]","[-1,-1,-1]","[0.002156766063614183,0.06028161276729318]","[-1,-1,-1]","[-0.019316992963258162,-0.008085953605553758]","[1,1,1]","[-0.004389748621658639,0.11681484505822134]","[-1,-1,-1]","[0.1904383446167212,-0.031046048832007886]","[1,1,1]","[0.09384153846681105,0.14294165642549572]","[-1,-1,-1]","[0.016816402876870643,-0.16335804561205436]","[-1,-1,-1]","[0.1789772234363881,0.024946337105362638]","[-1,-1,-1]","[0.10450288186015222,0.05375292463521734]","[1,1,1]","[0.15127109368031644,0.05589089758408196]","[-1,-1,-1]","[-0.08772139764653226,-0.16421215204329453]","[-1,-1,-1]","[-0.06833655153558732,-0.0984275316308923]","[1,1,1]","[-0.11191262836064804,-0.1057159918636961]","[1,1,1]","[0.0688770262788165,-0.05125436113855611]","[1,1,1]","[0.06639847318912159,0.17668351704690471]","[-1,-1,-1]","[0.16719597823500393,-0.09341070156900097]","[-1,-1,-1]","[0.06881704215226862,-0.11821836044406886]","[1,1,1]","[0.034865104405642465,0.0910951318994113]","[1,1,1]","[-0.012995891613620815,0.17956487966006277]","[-1,-1,-1]","[0.03180242975854163,-0.01223987058615021]","[-1,-1,-1]","[0.16183334505503114,0.1076998623736981]","[1,1,1]","[-0.07180931124839657,-0.009236851152628768]","[-1,-1,-1]","[0.02,0.02]",152.7802,0,10,10,51,1,,,,,,,
,,,,,,,645f2d6b7d2fa796bd75c72e,682f037fefeec23a91fd4c0b,2025-05-22_11h59.26.591,cuing_paradigm_dot,2024.1.5,Win32,60.24096386,682d556593cb38ad0a074487,,,,,,,,,,,152.7809,153.2802,,,153.5308,155.0305,,,,,,,,,0.9,,,,,,,,153.2803,153.5308,155.0306,"[-0.15509568810774457,-0.0017667850509140762]","[1,1,1]","[0.12499439644405795,0.1557760708419508]","[1,1,1]","[-0.11479980830158158,-0.15843903311769858]","[1,1,1]","[-0.08223532191263183,0.15518531416192063]","[1,1,1]","[0.010216035499840315,0.05631756783306853]","[1,1,1]","[0.08676855410749607,0.17301374674996933]","[1,1,1]","[-0.15527148342815306,0.11663878007906534]","[1,1,1]","[0.0781615974286135,0.011665955126004362]","[1,1,1]","[0.035954005790123186,0.011775235371610607]","[1,1,1]","[0.059783304679977105,0.10616633775507844]","[1,1,1]","[0.1254081881261772,0.025730041623399997]","[-1,-1,-1]","[0.14696895424062595,-0.10940843164394008]","[1,1,1]","[0.08560584780283748,-0.1314493200938806]","[1,1,1]","[-0.022253228290001606,-0.15406282569677027]","[1,1,1]","[0.02035179241701413,0.12769261802405849]","[-1,-1,-1]","[0.1558864703527681,-0.03826664404655398]","[1,1,1]","[-0.1905612295886109,0.03613978661719137]","[1,1,1]","[-0.05426687013808024,-0.11753665078073561]","[1,1,1]","[0.001503486086823288,-0.1018726331147724]","[1,1,1]","[-0.09553969108823505,-0.0916711009484962]","[1,1,1]","[0.022780423855547734,-0.18106352328434588]","[1,1,1]","[0.1462565433292267,0.0917090403667374]","[1,1,1]","[-0.039510547893563376,0.06866395965683389]","[1,1,1]","[0.0391092286632172,-0.0504690488251175]","[1,1,1]","[-0.02543571542554947,-0.04003639389164211]","[-1,-1,-1]","[0.1978342051163038,0.020398552975392132]","[1,1,1]","[-0.08075840116044902,0.03279317849436819]","[1,1,1]","[-0.037908492887583294,0.008433929948730852]","[1,1,1]","[-0.008202036027133089,0.1566173139774115]","[1,1,1]","[-0.15821192081744673,0.06567975178819052]","[1,1,1]","[0.052991162049638676,0.05961444515079364]","[1,1,1]","[0.1787661807804452,-0.08154921066796673]","[1,1,1]","[0.02,0.02]",156.1303,0,11,11,199,1,,,,,,,
,,,,,,,645f2d6b7d2fa796bd75c72e,682f037fefeec23a91fd4c0b,2025-05-22_11h59.26.591,cuing_paradigm_dot,2024.1.5,Win32,60.24096386,682d556593cb38ad0a074487,,,,,,,,,,,156.1309,156.6303,,,156.8807,157.1138,right,,,,,,,,0.1,0.2244,,,,,,,156.6305,156.8806,157.1139,"[0.0025503140721722453,-0.17471498392279283]","[-1,-1,-1]","[-0.14224585720248223,0.003369849949931425]","[-1,-1,-1]","[0.08735333258950366,0.17584223711409971]","[-1,-1,-1]","[-0.015526548084659711,0.16511200833669082]","[-1,-1,-1]","[0.11522316198431636,0.10368754022197467]","[-1,-1,-1]","[-0.101981838952268,-0.03066777516731494]","[-1,-1,-1]","[-0.19194138202568015,-0.0524020167251964]","[1,1,1]","[0.03993990992898833,-0.018247685130668406]","[-1,-1,-1]","[0.008777998131340024,-0.11884939113346403]","[-1,-1,-1]","[0.039218526208973176,0.06397726929051904]","[-1,-1,-1]","[-0.0816214263876896,-0.14635046570673932]","[-1,-1,-1]","[0.09977224402533837,-0.14474490917389873]","[-1,-1,-1]","[-0.05917092066127103,-0.020532514994500234]","[-1,-1,-1]","[0.10548862379108623,0.0147486196717598]","[-1,-1,-1]","[0.06740910049225007,-0.06133526772456181]","[-1,-1,-1]","[-0.1062931848657717,-0.10593990766313847]","[-1,-1,-1]","[0.15557856904523878,-0.07122640438590959]","[-1,-1,-1]","[0.17045971439018323,0.10220173232852403]","[-1,-1,-1]","[-0.004697966196617882,-0.035067743090467736]","[-1,-1,-1]","[-0.1067135938473219,0.06778571169768106]","[-1,-1,-1]","[-0.14386048788052588,0.08401410400431551]","[-1,-1,-1]","[-0.0750001210284591,0.11070266348163288]","[1,1,1]","[-0.04776447619417006,-0.07181836009098742]","[-1,-1,-1]","[-0.19886799559926063,-0.001775565094903901]","[-1,-1,-1]","[-0.04068677390125852,-0.114635407342931]","[-1,-1,-1]","[0.15190764665146858,-0.11150690091522152]","[-1,-1,-1]","[0.14625331098168054,0.007513665017110096]","[-1,-1,-1]","[-0.042444838010706316,-0.15801775153347813]","[-1,-1,-1]","[0.028749008644167122,0.11021681287673589]","[1,1,1]","[-0.02208533670656049,0.06730787104879685]","[-1,-1,-1]","[0.09986724106457245,0.05710291910561973]","[-1,-1,-1]","[0.061297137731161716,0.022829018480648278]","[-1,-1,-1]","[0.02,0.02]",158.2133,0,12,12,16,1,,,,,,,
,,,,,,,645f2d6b7d2fa796bd75c72e,682f037fefeec23a91fd4c0b,2025-05-22_11h59.26.591,cuing_paradigm_dot,2024.1.5,Win32,60.24096386,682d556593cb38ad0a074487,,,,,,,,,,,158.2139,158.7134,,,158.9638,160.4636,,,,,,,,,0.55,,,,,,,,158.7135,158.9637,160.4637,"[-0.08667215208899928,-0.1407895750666761]","[-1,-1,-1]","[0.05457235867476754,-0.17104212808349287]","[-1,-1,-1]","[-0.047395761372332784,0.11784125381586702]","[1,1,1]","[0.1673257351261709,-0.06965103766009106]","[1,1,1]","[0.018612470362014424,-0.12214292706124681]","[1,1,1]","[-0.18040691195727204,-0.06362045271700496]","[-1,-1,-1]","[0.06654801778739068,0.015557671751470478]","[-1,-1,-1]","[-0.13571398484443314,-0.030106248927508492]","[1,1,1]","[-0.1427802574091987,0.025161417580053663]","[-1,-1,-1]","[-0.04061018782580069,-0.12423732631098995]","[1,1,1]","[0.08776016599586754,0.1503832178855186]","[-1,-1,-1]","[-0.013616527383194769,0.14500637041071593]","[-1,-1,-1]","[0.024799476395822213,0.006320162945224204]","[-1,-1,-1]","[0.006324041153584947,-0.16189331380555705]","[-1,-1,-1]","[-0.0843434930560605,-0.07720203756812542]","[-1,-1,-1]","[0.1632119213311963,-0.11218274603145395]","[1,1,1]","[0.08209316470480102,-0.09601356229187104]","[1,1,1]","[-0.07210592126995682,-0.023906237307527965]","[1,1,1]","[-0.04459442650657743,-0.05865066913634817]","[-1,-1,-1]","[0.15216104225212146,0.015142176828335543]","[1,1,1]","[-0.05582668096750794,-0.1764324240401755]","[-1,-1,-1]","[0.07329425340171658,0.11307031474667185]","[1,1,1]","[0.11608249618674468,-0.00917938955818148]","[1,1,1]","[-0.14351319195715057,0.13530347714591617]","[1,1,1]","[0.11158895161302032,0.04559591966267233]","[-1,-1,-1]","[-0.002733889457254218,0.06502464125476892]","[1,1,1]","[-0.0424697881735384,0.02695509497193016]","[1,1,1]","[0.05867126358204152,0.06323558029890872]","[1,1,1]","[-0.15370335471318317,-0.11642096521461658]","[1,1,1]","[0.1297285545484004,-0.05222854604031113]","[1,1,1]","[-0.12060298248113295,0.09861337060356887]","[-1,-1,-1]","[-0.16859315434960945,0.08179616388884306]","[1,1,1]","[0.02,0.02]",161.5636,0,13,13,140,1,,,,,,,
,,,,,,,645f2d6b7d2fa796bd75c72e,682f037fefeec23a91fd4c0b,2025-05-22_11h59.26.591,cuing_paradigm_dot,2024.1.5,Win32,60.24096386,682d556593cb38ad0a074487,,,,,,,,,,,161.5641,162.0635,,,162.3142,162.5303,right,,,,,,,,0.9,0.199,,,,,,,162.0636,162.3141,162.5303,"[0.09483180357919586,-0.001203592413013116]","[1,1,1]","[-0.0986894933116212,-0.055723996537655966]","[1,1,1]","[0.08696630379917072,0.06469376007905553]","[-1,-1,-1]","[-0.007060120134033667,0.031951658560791955]","[1,1,1]","[-0.0021241280028831957,-0.023681900867393794]","[1,1,1]","[0.011609248761508022,0.07975611386280011]","[-1,-1,-1]","[-0.010333283652393986,-0.13566971091236]","[-1,-1,-1]","[0.15068436474698907,0.02625751601743644]","[1,1,1]","[0.17422053990993,0.08406690783409493]","[1,1,1]","[-0.07900027429672096,0.04048484871348024]","[1,1,1]","[-0.01616941251439094,0.11406183156750607]","[1,1,1]","[0.018297576285995924,-0.09366171261036682]","[1,1,1]","[0.06685930806588668,-0.03873736133071827]","[1,1,1]","[-0.03751154279597833,0.1953944971276541]","[1,1,1]","[-0.11669982357936289,0.16068297576595825]","[1,1,1]","[0.059469187048651395,0.11398867823937021]","[1,1,1]","[-0.09681035426123405,-0.1646862778809072]","[1,1,1]","[0.08537808316740582,0.17009218407611573]","[1,1,1]","[0.09029378565018788,-0.07281019591386576]","[1,1,1]","[-0.12756606462977757,0.10997865514269546]","[1,1,1]","[0.16960466253580753,-0.0575794922098708]","[1,1,1]","[-0.14985465010761123,-0.09256221247322802]","[1,1,1]","[0.11749901439511393,0.1447371489490422]","[1,1,1]","[-0.047201022229948014,-0.18518217772722803]","[1,1,1]","[-0.05582831591317489,0.12361492222581688]","[1,1,1]","[0.0363456373780714,0.1705590723818517]","[1,1,1]","[0.07397447651793841,-0.17071937829318298]","[1,1,1]","[-0.18060233677530652,-0.03670339400294369]","[1,1,1]","[0.056700564721219995,0.03603797293158497]","[1,1,1]","[0.13116159951481093,-0.14885264042336224]","[1,1,1]","[0.15933934874475825,-0.09641886254225274]","[1,1,1]","[-0.1581446477358804,0.0461105927325876]","[1,1,1]","[0.02,0.02]",163.63,0,14,14,190,1,,,,,,,
,,,,,,,645f2d6b7d2fa796bd75c72e,682f037fefeec23a91fd4c0b,2025-05-22_11h59.26.591,cuing_paradigm_dot,2024.1.5,Win32,60.24096386,682d556593cb38ad0a074487,,,,,,,,,,,163.6306,164.1298,,,164.3802,164.7635,right,,,,,,,,0.6,0.3661,,,,,,,164.1299,164.3802,164.7636,"[0.006665946232872878,0.14665402778081402]","[1,1,1]","[-0.16506495732425622,0.09708332237429394]","[1,1,1]","[0.00697780201933538,-0.028475509768924576]","[1,1,1]","[0.14354629226365856,-0.044388650899924637]","[-1,-1,-1]","[-0.08706258962153922,-0.01968659452234116]","[1,1,1]","[-0.10817240398266784,-0.08851820783648855]","[-1,-1,-1]","[-0.12923933828901343,0.14894865185271752]","[1,1,1]","[-0.059456353005961284,0.10275012276735568]","[-1,-1,-1]","[0.04088841580837503,-0.09619884921689156]","[1,1,1]","[-0.07450200732551478,0.0630180681879008]","[1,1,1]","[0.09329731440767135,0.056837433333008086]","[1,1,1]","[-0.15523544877784407,-0.1241985840716726]","[1,1,1]","[0.06063555213071743,-0.1877992092650813]","[1,1,1]","[0.07567774970348193,0.01083449235462375]","[1,1,1]","[-0.032640572086189465,-0.06277500529134497]","[-1,-1,-1]","[0.11901559711208874,0.10683363224520492]","[-1,-1,-1]","[-0.06678634984543702,0.18618383779756906]","[-1,-1,-1]","[-0.10918737709748473,-0.14886191136694962]","[-1,-1,-1]","[0.09353202500738252,-0.11945882553749754]","[1,1,1]","[-0.1324008546234981,0.04789615285509876]","[1,1,1]","[-0.1724805830926736,0.03857473011099138]","[-1,-1,-1]","[0.1892677797803511,0.005855558159254001]","[1,1,1]","[-0.11566730826253246,0.11029455486165253]","[1,1,1]","[0.047495496369384355,0.14502759275718588]","[-1,-1,-1]","[0.029298834469227205,0.07892349075393135]","[-1,-1,-1]","[0.05946566977327631,-0.14703409834156053]","[1,1,1]","[0.16890820782533505,0.04657561569902892]","[1,1,1]","[-0.08608797749448907,0.14281291909425634]","[-1,-1,-1]","[-0.024161620238175616,0.04441426454078217]","[-1,-1,-1]","[0.18298110520410696,-0.06286368454109781]","[1,1,1]","[-0.15492634591086868,-0.012904762649086623]","[-1,-1,-1]","[0.004679325755740475,-0.14011624025339098]","[1,1,1]","[0.02,0.02]",165.8631,0,15,15,178,1,,,,,,,
,,,,,,,645f2d6b7d2fa796bd75c72e,682f037fefeec23a91fd4c0b,2025-05-22_11h59.26.591,cuing_paradigm_dot,2024.1.5,Win32,60.24096386,682d556593cb38ad0a074487,,,,,,,,,,,165.8636,166.3636,,,166.6139,168.1134,,,,,,,,,0.9,,,,,,,,166.3637,166.6138,168.1135,"[-0.09766551648323976,0.08874767433205573]","[1,1,1]","[-0.1214213940991417,-0.1558289045868706]","[1,1,1]","[-0.0955373589874801,-0.10499670745645309]","[1,1,1]","[0.11685797609076312,-0.07021325903679253]","[-1,-1,-1]","[0.013543166462871379,0.06837587316878387]","[1,1,1]","[0.09119892842845194,0.09712069296180502]","[1,1,1]","[-0.004245240241528769,0.12366406262039459]","[1,1,1]","[0.10620596035713857,0.14686906709401323]","[1,1,1]","[0.11622979334623601,0.015515240328797442]","[1,1,1]","[-0.06062457438833328,0.05363395573367484]","[1,1,1]","[-0.1444566092757512,-0.031006156389950523]","[1,1,1]","[-0.05950022054853741,0.11474897503666501]","[1,1,1]","[0.05683491735751829,0.05301747112590433]","[1,1,1]","[-0.0014467045679903237,-0.15587593644939796]","[1,1,1]","[0.07538864155819834,0.18026168677828597]","[1,1,1]","[-0.031510445650387214,-0.06945991532549703]","[1,1,1]","[0.04197774596166251,-0.06223433820328316]","[1,1,1]","[0.11771051973882689,-0.027521113554587952]","[-1,-1,-1]","[0.07455392327225703,-0.1700743292375664]","[1,1,1]","[-0.08300305963589094,-0.06253808798927565]","[1,1,1]","[0.07105056570421842,-0.1020481425592457]","[1,1,1]","[0.11161701178288969,-0.14923725905004678]","[1,1,1]","[0.01143243322324156,0.17672628148012337]","[1,1,1]","[-0.15399420569043024,0.11294361554549275]","[1,1,1]","[-0.1836035987973263,0.04732873590554301]","[1,1,1]","[0.1677569189002906,-0.09448796057346331]","[1,1,1]","[-0.040081043730992694,0.01825960969748384]","[1,1,1]","[0.10476568322927875,0.054889532812859965]","[1,1,1]","[0.05964955668435482,-0.00037823486884397026]","[1,1,1]","[0.15325923362046823,0.10107886829033871]","[1,1,1]","[-0.06352924477129956,-0.17744850424915018]","[1,1,1]","[-0.06829109557884984,0.16867452639559394]","[-1,-1,-1]","[0.02,0.02]",169.2133,0,16,16,194,1,,,,,,,
,,,,,,,645f2d6b7d2fa796bd75c72e,682f037fefeec23a91fd4c0b,2025-05-22_11h59.26.591,cuing_paradigm_dot,2024.1.5,Win32,60.24096386,682d556593cb38ad0a074487,,,,,,,,,,,169.2138,169.7133,,,169.9636,170.9628,left,,,,,,,,0.6,0.9898,,,,,,,169.7134,169.9636,170.9628,"[-0.03385931804219888,-0.16996629930519846]","[1,1,1]","[-0.04069394861753939,0.12458607355791115]","[1,1,1]","[0.1238301055137594,0.046349411630479745]","[-1,-1,-1]","[0.09060573813014484,-0.012063098942658577]","[1,1,1]","[0.0007589226408358987,0.18469660620549336]","[1,1,1]","[0.06012576411898678,-0.12382274565874946]","[1,1,1]","[0.1405858614265538,0.10953073678111434]","[1,1,1]","[0.07809082366192177,0.09914521295855146]","[1,1,1]","[0.1060994614529374,-0.1247756439137778]","[-1,-1,-1]","[0.1663567550151614,0.010929389675610097]","[-1,-1,-1]","[0.0423906363055359,0.07564800132023118]","[1,1,1]","[-0.028856828339456072,0.038185827087885676]","[-1,-1,-1]","[-0.0641583638513789,-0.03266500349836351]","[1,1,1]","[-0.1342703095995894,0.09918445966550841]","[-1,-1,-1]","[-0.10406928044502618,-0.07014068909260138]","[1,1,1]","[-0.10858978901193365,-0.11497493746552502]","[-1,-1,-1]","[0.0546580504390527,-0.049025745591131605]","[1,1,1]","[-0.18092860795456,-0.0064363438722440935]","[-1,-1,-1]","[-0.17566645151204063,0.0637960557165937]","[1,1,1]","[0.08231310139547264,0.13915888014952985]","[-1,-1,-1]","[-0.06748449831448179,0.17712763543499357]","[1,1,1]","[0.11279916534643665,-0.054850957153469104]","[1,1,1]","[0.02855788500842244,0.15568270796000117]","[1,1,1]","[-0.09940064373528898,-0.005720959206800285]","[1,1,1]","[-0.07627211467665314,0.07068927222621187]","[-1,-1,-1]","[0.01907137812697126,-0.10554725273948021]","[1,1,1]","[-0.04125911318032569,-0.12661240691925654]","[-1,-1,-1]","[0.1737733143845815,0.08457540801991237]","[-1,-1,-1]","[0.004843433200819235,-0.014862943200689684]","[1,1,1]","[0.08211557648198749,0.0427331458232531]","[1,1,1]","[-0.11149271454120767,0.1362834482796249]","[-1,-1,-1]","[-0.028573819965762602,-0.056998048365904753]","[-1,-1,-1]","[0.02,0.02]",172.063,0,17,17,168,1,,,,,,,
,,,,,,,645f2d6b7d2fa796bd75c72e,682f037fefeec23a91fd4c0b,2025-05-22_11h59.26.591,cuing_paradigm_dot,2024.1.5,Win32,60.24096386,682d556593cb38ad0a074487,,,,,,,,,,,172.0636,172.5632,,,172.8137,173.2801,left,,,,,,,,0.6,0.4562,,,,,,,172.5632,172.8136,173.2801,"[0.07330045889330486,0.12467356163972418]","[1,1,1]","[0.11832040905810136,-0.0868509261418596]","[1,1,1]","[-0.10340677514309861,0.1122801751238922]","[-1,-1,-1]","[0.05428917956455218,-0.025857348642380366]","[1,1,1]","[-0.1913210205844033,-0.00767515207687844]","[1,1,1]","[0.1117597011674027,0.09624586083166548]","[-1,-1,-1]","[-0.048781802276856585,-0.12445591074943489]","[-1,-1,-1]","[-0.01328303553073736,0.19661398013171463]","[1,1,1]","[-0.09512388323213158,0.003421834955040003]","[1,1,1]","[0.02914740667974624,0.06979506506630517]","[-1,-1,-1]","[-0.0007220843143683311,-0.11666564742766802]","[1,1,1]","[0.01707537017677307,-0.05336995322417955]","[-1,-1,-1]","[-0.1176569556065769,-0.1020517232659755]","[1,1,1]","[-0.08500194384836947,0.06423024060868057]","[1,1,1]","[-0.035766037164147155,-0.01846561880604091]","[-1,-1,-1]","[-0.03666648566425568,0.04445922899511716]","[1,1,1]","[-0.13675712751322971,0.06361807523721097]","[1,1,1]","[0.09070647581765331,-0.0008037633069685331]","[-1,-1,-1]","[0.03234634669853962,0.012645278536495915]","[1,1,1]","[-0.10774533030946787,-0.15654027017690383]","[1,1,1]","[0.013997772664640964,-0.1590002137980794]","[-1,-1,-1]","[-0.1579965473916876,-0.03784074969175335]","[1,1,1]","[-0.05443421648725584,0.10478454269193747]","[1,1,1]","[-0.10784086640723438,-0.04206525543878092]","[-1,-1,-1]","[-0.04856083260880564,-0.16471163805041017]","[1,1,1]","[0.1587655076203914,0.10208744004171434]","[1,1,1]","[0.043572095387405384,-0.09701529784600654]","[1,1,1]","[0.1439456625804463,-0.014245596230764313]","[-1,-1,-1]","[-0.0374955231582259,-0.0835685316095197]","[-1,-1,-1]","[0.07157257537688441,0.0740383871031635]","[-1,-1,-1]","[0.16620925369513287,-0.1070798311671733]","[1,1,1]","[-0.16972767690683296,-0.08353302542434113]","[-1,-1,-1]","[0.02,0.02]",174.3797,0,18,18,152,1,,,,,,,
,,,,,,,645f2d6b7d2fa796bd75c72e,682f037fefeec23a91fd4c0b,2025-05-22_11h59.26.591,cuing_paradigm_dot,2024.1.5,Win32,60.24096386,682d556593cb38ad0a074487,,,,,,,,,,,174.3802,174.8797,,,175.1301,175.4796,right,,,,,,,,0.45,0.3336,,,,,,,174.8797,175.13,175.4797,"[0.11240053021677932,-0.038415846498869116]","[-1,-1,-1]","[0.07266007846160925,-0.04648621401463604]","[-1,-1,-1]","[-0.12644191771924768,-0.045729079296044056]","[1,1,1]","[0.033067566647098055,-0.11992783135987752]","[-1,-1,-1]","[-0.12464504313192201,-0.13216809320544645]","[1,1,1]","[0.12605311845866712,0.05887192735338871]","[-1,-1,-1]","[0.0761070776955585,0.1348250595467217]","[-1,-1,-1]","[-0.0761414773680139,-0.17178784051461898]","[-1,-1,-1]","[0.026354359231662596,0.14365583920390124]","[-1,-1,-1]","[0.04726095058117076,-0.18880488687789482]","[1,1,1]","[0.021668527507190453,0.055761427660176374]","[1,1,1]","[-0.10734695445823905,0.15847509413955235]","[1,1,1]","[0.08891834563924965,0.024454700239358116]","[-1,-1,-1]","[0.025283543128708466,-0.0391834776662382]","[1,1,1]","[0.14550079103997773,-0.10491241079408561]","[-1,-1,-1]","[0.16947218792670557,-0.009914694489554326]","[-1,-1,-1]","[-0.15734785515901117,0.09993584945504189]","[-1,-1,-1]","[-0.045177745622086346,0.1741188108341748]","[-1,-1,-1]","[-0.03009655472892937,0.1031635282604909]","[1,1,1]","[0.0482585667412509,0.010890877937632873]","[1,1,1]","[0.18311956861648956,-0.06031338894096249]","[1,1,1]","[-0.031801314597356634,0.05356983447939981]","[-1,-1,-1]","[-0.07226998085552964,0.11337150846550152]","[1,1,1]","[-0.09770641649453049,-0.09949274151976471]","[1,1,1]","[0.04734659453846498,0.18321085049288632]","[-1,-1,-1]","[0.08600213705783544,-0.10604848150257348]","[1,1,1]","[-0.14075258176207917,-0.08985088756088533]","[-1,-1,-1]","[-0.18386040375871432,0.045946563541167385]","[-1,-1,-1]","[0.0287931305035509,0.09657698587821341]","[-1,-1,-1]","[-0.01628455095804924,-0.09160229440854517]","[1,1,1]","[-0.009035204633903775,-0.007460965407823393]","[1,1,1]","[-0.09634785927317491,-0.004180825806587952]","[-1,-1,-1]","[0.02,0.02]",176.5794,0,19,19,67,1,,,,,,,
,,,,,,,645f2d6b7d2fa796bd75c72e,682f037fefeec23a91fd4c0b,2025-05-22_11h59.26.591,cuing_paradigm_dot,2024.1.5,Win32,60.24096386,682d556593cb38ad0a074487,,,,,,,,,,,176.5802,177.0796,,,177.33,177.7466,right,,,,,,,,0.1,0.3999,,,,,,,177.0797,177.3299,177.7467,"[0.06002419848261428,-0.08286462391914336]","[-1,-1,-1]","[0.10460276259294624,0.03815240081544967]","[-1,-1,-1]","[0.18144853336428995,0.029174097945012915]","[-1,-1,-1]","[0.0507414521670914,0.1495436495539336]","[-1,-1,-1]","[-0.001275644995076043,0.18852714269519377]","[-1,-1,-1]","[0.028112332456462226,0.11193654332992833]","[-1,-1,-1]","[-0.04559980647395285,0.16275220723763797]","[-1,-1,-1]","[-0.0864072961862172,-0.15275106473417016]","[1,1,1]","[0.13281251429229685,0.13645443422696307]","[-1,-1,-1]","[-0.11023757694808593,-0.006994737356867547]","[-1,-1,-1]","[-0.059560820095459516,-0.0159967057157739]","[-1,-1,-1]","[-0.09584342780365242,0.08622186883627143]","[-1,-1,-1]","[-0.052480529234631396,-0.10087228274792075]","[-1,-1,-1]","[0.027700565726451482,-0.17682565489424637]","[-1,-1,-1]","[0.006113911024458497,-0.04834856703176442]","[-1,-1,-1]","[-0.04546327859568633,0.08725035726589508]","[1,1,1]","[-0.16088151654272093,0.07249547757893178]","[-1,-1,-1]","[-0.14680039096349914,-0.08245613871838402]","[-1,-1,-1]","[-0.005601548020949736,-0.1187691959809059]","[-1,-1,-1]","[0.1359775376741626,-0.09582860644771272]","[-1,-1,-1]","[-0.1981411229187979,-0.027161090218511645]","[-1,-1,-1]","[0.15377686774676214,-0.009748134881016623]","[-1,-1,-1]","[-0.1828281745034835,0.020133271650151677]","[-1,-1,-1]","[0.06425110532489484,0.06612046179993421]","[-1,-1,-1]","[-0.06445661409502478,0.03485397123484055]","[-1,-1,-1]","[-0.0998342583158685,0.12965002625985367]","[1,1,1]","[-0.000770143946711557,0.1417002550861467]","[-1,-1,-1]","[0.008069170729497551,0.01213419383439881]","[-1,-1,-1]","[0.018283430691354432,0.0581752219660532]","[-1,-1,-1]","[0.14470742418247542,0.055150886357469814]","[-1,-1,-1]","[-0.09355866298244478,-0.06622699278353743]","[-1,-1,-1]","[0.10441894268594883,-0.03535271287566596]","[-1,-1,-1]","[0.02,0.02]",178.8463,0,20,20,22,1,,,,,,,
,,,,,,,645f2d6b7d2fa796bd75c72e,682f037fefeec23a91fd4c0b,2025-05-22_11h59.26.591,cuing_paradigm_dot,2024.1.5,Win32,60.24096386,682d556593cb38ad0a074487,,,,,,,,,,,178.8469,179.3461,,,179.5969,179.8798,right,,,,,,,,0.9,0.2664,,,,,,,179.3461,179.5968,179.8799,"[0.0015048114695288743,0.04516811878720793]","[1,1,1]","[0.10403596347912733,0.16237088337081232]","[1,1,1]","[0.018389322613355703,-0.1892820906237297]","[1,1,1]","[0.10471801892445765,-0.002821176741676577]","[-1,-1,-1]","[0.16050010516359,-0.06520956923425797]","[1,1,1]","[-0.06363046778048587,-0.08824986103483345]","[-1,-1,-1]","[-0.14331600888388166,-0.023736154036885344]","[1,1,1]","[0.05029953792171251,0.03764261808781915]","[1,1,1]","[-0.006325815879648974,-0.12615754025955422]","[1,1,1]","[0.10349177896237682,-0.16594829446463752]","[1,1,1]","[-0.09142562310739347,0.17537224591109948]","[1,1,1]","[0.0983887469880119,0.07735012252736913]","[1,1,1]","[-0.13048968564066935,-0.08065697349301566]","[1,1,1]","[0.06926602292090646,-0.044001665845722376]","[1,1,1]","[-0.165642594504412,0.046442563608693456]","[1,1,1]","[-0.06289117138777867,-0.14841022481217514]","[1,1,1]","[0.007977103001220842,-0.027285747938105266]","[1,1,1]","[-0.0954325746341491,-0.17357373039901763]","[1,1,1]","[-0.04336415186519627,0.04721457588469111]","[1,1,1]","[0.041355486921025156,0.14392685765019667]","[1,1,1]","[-0.01801969057073582,-0.06586549334721918]","[1,1,1]","[0.05260896198889719,-0.09119197324978633]","[1,1,1]","[0.12127805341688179,-0.04454837972750977]","[-1,-1,-1]","[-0.0409407949027568,0.1680327654583632]","[1,1,1]","[-0.07150337657895647,0.09523390896180002]","[1,1,1]","[-0.18425064666748459,0.002743218507236043]","[1,1,1]","[-0.010448211197882527,0.13490743370412397]","[1,1,1]","[0.10582363391986765,-0.12174582824265624]","[1,1,1]","[-0.11103499262710052,0.12023150582591013]","[1,1,1]","[-0.13086057115424418,-0.13850592971916278]","[1,1,1]","[-0.09071141848496393,0.04245597059002631]","[1,1,1]","[-0.09605959199631399,-0.023035887135721092]","[1,1,1]","[0.02,0.02]",180.9794,0,21,21,196,1,,,,,,,
,,,,,,,645f2d6b7d2fa796bd75c72e,682f037fefeec23a91fd4c0b,2025-05-22_11h59.26.591,cuing_paradigm_dot,2024.1.5,Win32,60.24096386,682d556593cb38ad0a074487,,,,,,,,,,,180.9799,181.4795,,,181.7298,182.0126,left,,,,,,,,0.9,0.2766,,,,,,,181.4795,181.7298,182.0128,"[0.06803456153671274,-0.18550283846882784]","[1,1,1]","[-0.17260413361226498,0.019245036734025184]","[1,1,1]","[-0.06529663194647409,-0.16573541955673907]","[1,1,1]","[-0.19110988720506472,-0.04111227331454907]","[1,1,1]","[0.1797231009733763,0.005889941145575337]","[1,1,1]","[-0.05672477054390702,0.1889154123677901]","[1,1,1]","[0.07514348782774266,-0.05136199045208613]","[1,1,1]","[0.00746925202156471,-0.13208154353087576]","[1,1,1]","[-0.13179389757910495,-0.054078927194086295]","[1,1,1]","[0.16498917686738276,-0.06720859112413073]","[1,1,1]","[0.09454324646428675,0.0722797840007093]","[-1,-1,-1]","[0.05285188758832152,0.17186522105374555]","[1,1,1]","[-0.09464180749581624,-0.11086284417024558]","[1,1,1]","[0.13091584847798396,-0.04071762480829143]","[1,1,1]","[0.06412733665539148,0.017693274940559136]","[-1,-1,-1]","[-0.008475978066509418,-0.004385126903307557]","[1,1,1]","[-0.11328705590307303,0.08534199796338823]","[1,1,1]","[0.18591928716781708,0.04691489263713208]","[1,1,1]","[0.12823984560570803,0.031836165490761015]","[1,1,1]","[0.01825774816522295,0.09741321391424865]","[1,1,1]","[-0.010664281580820402,0.06422291085742493]","[1,1,1]","[-0.0013374453473441845,0.1766636360321025]","[1,1,1]","[0.06624567286504603,-0.1265882138257132]","[1,1,1]","[-0.05226846013617027,0.014749332250537012]","[-1,-1,-1]","[-0.05997741241648886,-0.05810898268617382]","[1,1,1]","[0.10728071121714025,0.1297653670022854]","[1,1,1]","[-0.03501331363657937,0.11348805052953755]","[1,1,1]","[0.1376949223906368,-0.13992568714704687]","[1,1,1]","[-0.16566690261816233,0.09940517212919642]","[1,1,1]","[-0.052709764955414296,-0.11781390032537523]","[1,1,1]","[0.1495729702657056,0.0906916452204637]","[1,1,1]","[-0.07153466749493027,0.09432158698782243]","[1,1,1]","[0.02,0.02]",183.113,0,22,22,204,1,,,,,,,
,,,,,,,645f2d6b7d2fa796bd75c72e,682f037fefeec23a91fd4c0b,2025-05-22_11h59.26.591,cuing_paradigm_dot,2024.1.5,Win32,60.24096386,682d556593cb38ad0a074487,,,,,,,,,,,183.1135,183.6128,,,183.8635,184.3131,right,,,,,,,,0.45,0.4375,,,,,,,183.6129,183.8633,184.3132,"[0.1420600503072229,0.1369536085587861]","[-1,-1,-1]","[-0.001155344882820462,0.023822917972298168]","[-1,-1,-1]","[-0.038711886134018686,-0.16816987051841953]","[1,1,1]","[0.09075405739634528,-0.020720986611196247]","[-1,-1,-1]","[-0.10707567181906479,0.1560092526635111]","[-1,-1,-1]","[-0.06663828803260292,-0.05440712577360743]","[-1,-1,-1]","[0.06951195347898723,-0.13695924039468718]","[-1,-1,-1]","[0.17205467855723816,-0.0007326508677122683]","[-1,-1,-1]","[-0.004808905542401353,-0.19747095820054505]","[1,1,1]","[0.10133253647810217,-0.16181365564242256]","[-1,-1,-1]","[0.09078740111490664,-0.07461576154341254]","[-1,-1,-1]","[0.043216312318727836,-0.1802169278920456]","[-1,-1,-1]","[0.17471096365626926,0.0892628803088879]","[-1,-1,-1]","[-0.06179262600895358,0.018120885926606916]","[-1,-1,-1]","[0.00064733456788857,-0.14181384027321772]","[1,1,1]","[-0.02925258731040761,-0.012676907782929007]","[1,1,1]","[-0.19961491002075127,-0.008928206848499175]","[-1,-1,-1]","[-0.0031568443023722802,0.11745830926331717]","[1,1,1]","[-0.06477370722158199,0.07397491872889798]","[-1,-1,-1]","[0.06650237644827561,0.13937115952433932]","[1,1,1]","[0.09141452680446918,0.09565055644169859]","[-1,-1,-1]","[0.048677321177207446,0.052612350255494274]","[1,1,1]","[-0.1618456240685293,-0.09147770746230445]","[1,1,1]","[0.12939639892975277,-0.10694016254186074]","[1,1,1]","[-0.15148690637488219,-0.03841213216449954]","[1,1,1]","[0.002894463704663441,0.17767919985205705]","[-1,-1,-1]","[0.045954764138881346,-0.004152405421852582]","[1,1,1]","[-0.08911222994646849,-0.09395088433720561]","[1,1,1]","[-0.0007357129287063489,-0.1003745420873076]","[-1,-1,-1]","[-0.10628043430974128,-0.13421113040008154]","[1,1,1]","[0.13415734869761237,-0.06502634326398522]","[1,1,1]","[-0.061990152617754375,0.1394754772955196]","[-1,-1,-1]","[0.02,0.02]",185.4128,0,23,23,69,1,,,,,,,
,,,,,,,645f2d6b7d2fa796bd75c72e,682f037fefeec23a91fd4c0b,2025-05-22_11h59.26.591,cuing_paradigm_dot,2024.1.5,Win32,60.24096386,682d556593cb38ad0a074487,,,,,,,,,,,185.4134,185.9124,,,186.1634,186.3793,right,,,,,,,,0.1,0.2073,,,,,,,185.9124,186.1634,186.3793,"[0.04994209821303527,0.04240028280555251]","[-1,-1,-1]","[-0.04510314206863089,0.06995173553161392]","[-1,-1,-1]","[-0.08623634893314554,0.07598059497666451]","[-1,-1,-1]","[-0.008932711701208297,0.10133730239331228]","[-1,-1,-1]","[0.127725392244915,0.022008180380048443]","[-1,-1,-1]","[0.03948520883290177,-0.05127582428661898]","[-1,-1,-1]","[0.05798456494779913,0.18104566247870132]","[-1,-1,-1]","[0.016399868510678667,-0.13841244027747052]","[-1,-1,-1]","[0.0997633650379255,-0.07889118067237358]","[-1,-1,-1]","[-0.07517934377511967,-0.06439710840208704]","[-1,-1,-1]","[0.09683276497702606,0.06415170875537335]","[-1,-1,-1]","[0.1045378685408196,0.14796314883501235]","[-1,-1,-1]","[-0.1404755308919324,0.023241656073040413]","[-1,-1,-1]","[-0.07697866275776168,0.0167726515587246]","[-1,-1,-1]","[-0.09240317185247597,0.14572496768339802]","[-1,-1,-1]","[-0.13563985043536902,0.11863480879694431]","[-1,-1,-1]","[-0.0577750129318327,-0.17093970491778424]","[-1,-1,-1]","[-0.1451013487168826,-0.06085883282507289]","[-1,-1,-1]","[0.11606636893842402,0.10429433343134749]","[-1,-1,-1]","[-0.03015780920369549,0.012108371028446752]","[-1,-1,-1]","[0.17888898104265574,-0.05176612398988087]","[1,1,1]","[0.19906660947567062,0.007859761545248298]","[-1,-1,-1]","[0.017040739632086944,-0.009161301259579467]","[-1,-1,-1]","[0.055823555035197696,-0.11308569797668558]","[-1,-1,-1]","[0.12204908126745494,-0.13645359097393278]","[-1,-1,-1]","[-0.11508324707454902,-0.012724016022242806]","[1,1,1]","[-0.1914187163167167,-0.024978173111303188]","[-1,-1,-1]","[0.16677086324231463,0.07362521439139649]","[-1,-1,-1]","[0.01770207436074103,0.17456430543806198]","[-1,-1,-1]","[0.018906056914032274,-0.198933242490728]","[-1,-1,-1]","[-0.04685007813065852,0.13857317970969213]","[-1,-1,-1]","[-0.04102485033723544,-0.11866292899231579]","[1,1,1]","[0.02,0.02]",187.4792,0,24,24,28,1,,,,,,,
,,,,,,,645f2d6b7d2fa796bd75c72e,682f037fefeec23a91fd4c0b,2025-05-22_11h59.26.591,cuing_paradigm_dot,2024.1.5,Win32,60.24096386,682d556593cb38ad0a074487,,,,,,,,,,,187.4798,187.9793,,,188.2301,188.4964,right,,,,,,,,0.5,0.2542,,,,,,,187.9794,188.23,188.4965,"[-0.04557590143388261,-0.12541317782859443]","[-1,-1,-1]","[-0.013418173949269849,0.08291347038276911]","[-1,-1,-1]","[-0.15398651513297726,-0.07912715720689109]","[-1,-1,-1]","[-0.12771565706953883,0.1389469062821843]","[-1,-1,-1]","[0.13125643392100464,0.03224590955851757]","[1,1,1]","[-0.1293345750758016,0.047320182377324056]","[-1,-1,-1]","[0.08310945823101004,-0.06741256476004515]","[-1,-1,-1]","[0.12333232887263271,-0.08192925274059423]","[-1,-1,-1]","[0.054877551720738646,0.12063780906965126]","[-1,-1,-1]","[-0.10003715153512271,-0.06035857422264838]","[-1,-1,-1]","[0.04913621811208929,-0.012368880890569138]","[1,1,1]","[0.04850397629830615,-0.1117014948094572]","[1,1,1]","[-0.08007052982229745,-0.09789533708732627]","[1,1,1]","[0.010865723962587602,-0.06874620399656545]","[1,1,1]","[-0.036602835251872995,-0.009322845036931853]","[-1,-1,-1]","[0.11987179463181671,0.09771674304174734]","[1,1,1]","[-0.1828796835980092,0.004758304310294984]","[1,1,1]","[-0.06440299800891301,0.04344727233359118]","[-1,-1,-1]","[0.17468203036355226,-0.029798793555141447]","[-1,-1,-1]","[0.08487724979230452,0.013037178844005699]","[1,1,1]","[-0.0796796018715606,0.12463226662296788]","[-1,-1,-1]","[0.07658802798310586,-0.1644566539313481]","[1,1,1]","[0.0007200908034945289,0.14901121287734026]","[1,1,1]","[0.017928325540528343,0.015294495112611462]","[1,1,1]","[-0.03996714317078153,0.11477600093316907]","[1,1,1]","[-0.1108428016404635,-0.008132415680811779]","[-1,-1,-1]","[0.13421916945023737,-0.13990454871264552]","[-1,-1,-1]","[-0.03543460455697241,-0.05875941419582704]","[1,1,1]","[0.1278501751460693,-0.029286065643438008]","[1,1,1]","[-0.021397270762023506,-0.18178926216960806]","[1,1,1]","[-0.08951772074292531,0.08250721740818598]","[-1,-1,-1]","[-0.06323580383885138,0.1730294058419042]","[1,1,1]","[0.02,0.02]",189.5959,0,25,25,95,1,,,,,,,
,,,,,,,645f2d6b7d2fa796bd75c72e,682f037fefeec23a91fd4c0b,2025-05-22_11h59.26.591,cuing_paradigm_dot,2024.1.5,Win32,60.24096386,682d556593cb38ad0a074487,,,,,,,,,,,189.5965,190.096,,,190.3464,190.6473,right,,,,,,,,0.45,0.2894,,,,,,,190.0961,190.3464,190.6474,"[-0.09670359433293098,-0.11010355170859658]","[1,1,1]","[-0.12857310878777434,0.12250984582238254]","[1,1,1]","[0.10732134705906733,-0.02168938106012659]","[1,1,1]","[-0.12677887262181162,0.0588047147273962]","[-1,-1,-1]","[-0.044583392798681426,-0.127908550347877]","[-1,-1,-1]","[0.08780607177752278,0.0139425340764164]","[1,1,1]","[0.08074177411891668,-0.0869273919034587]","[-1,-1,-1]","[-0.12146684026696467,-0.14423481870911928]","[-1,-1,-1]","[0.11410808761735629,0.09958494394097621]","[1,1,1]","[0.019130907656903683,0.183241086907745]","[1,1,1]","[0.07331928786440531,0.1821035583153536]","[1,1,1]","[0.047582410633974094,0.13570591378071775]","[-1,-1,-1]","[-0.061011511339253255,-0.08730611012579907]","[1,1,1]","[0.0692436057143993,0.06406543947547798]","[-1,-1,-1]","[0.13209891049914785,-0.08981955164837975]","[-1,-1,-1]","[-0.1779537198225607,0.022506312780656918]","[1,1,1]","[-0.06586017758648278,0.09982242841609139]","[-1,-1,-1]","[-0.07799700381169587,0.04969163091339639]","[1,1,1]","[-0.0068956036864054665,-0.14489211156356846]","[-1,-1,-1]","[0.17939453399002295,-0.03293656767184022]","[-1,-1,-1]","[-0.014600014042122987,0.13983330898297144]","[1,1,1]","[0.016624496126078196,0.08173983548422815]","[-1,-1,-1]","[-0.1644203435376051,-0.04079103863456912]","[-1,-1,-1]","[0.04040338095614094,-0.10267040569862868]","[1,1,1]","[0.031238522612659116,-0.02841589684275644]","[-1,-1,-1]","[0.13985280677358114,-0.13050895971317286]","[-1,-1,-1]","[-0.029311410842075943,-0.05571772230106301]","[1,1,1]","[-0.08023998648131181,0.1699387365594208]","[-1,-1,-1]","[-0.022820924432288885,-0.001706092886931025]","[-1,-1,-1]","[-0.11911654259466782,0.0010228754758636412]","[-1,-1,-1]","[0.027030455971211228,0.02065015715885171]","[-1,-1,-1]","[-0.13717581660086092,-0.0703153216113743]","[1,1,1]","[0.02,0.02]",191.7459,0,26,26,88,1,,,,,,,
,,,,,,,645f2d6b7d2fa796bd75c72e,682f037fefeec23a91fd4c0b,2025-05-22_11h59.26.591,cuing_paradigm_dot,2024.1.5,Win32,60.24096386,682d556593cb38ad0a074487,,,,,,,,,,,191.7464,192.246,,,192.4962,192.7121,right,,,,,,,,0.1,0.2088,,,,,,,192.2461,192.4962,192.7122,"[-0.04224470961505821,0.04812101615373967]","[-1,-1,-1]","[-0.053491269213385456,-0.007583591851995233]","[-1,-1,-1]","[-0.11335313967458814,0.11341963908786874]","[1,1,1]","[-0.04144929262613385,-0.15838629629746626]","[-1,-1,-1]","[-0.13462231067537964,-0.01251256763687555]","[-1,-1,-1]","[-0.07637391135415059,-0.123171789570704]","[-1,-1,-1]","[0.04689192539030512,0.05758379350109638]","[-1,-1,-1]","[0.0005025045865031882,-0.08846285225044645]","[-1,-1,-1]","[0.13500187343922665,-0.08013642466098629]","[-1,-1,-1]","[-0.058157234271094774,0.1893460428384481]","[-1,-1,-1]","[0.15432839520118072,-0.035120695767712415]","[-1,-1,-1]","[0.10709759106466107,0.15790000418235342]","[-1,-1,-1]","[0.0422146355440045,-0.13655885268625573]","[-1,-1,-1]","[-0.0036363567713813627,-0.03202945285160543]","[-1,-1,-1]","[-0.08284142110485247,0.025166135737561178]","[-1,-1,-1]","[0.14336904950196913,0.05336711790238059]","[-1,-1,-1]","[-0.022729031333398667,0.12220855928652255]","[-1,-1,-1]","[0.1979931583484227,-0.018502696800861182]","[-1,-1,-1]","[-0.18962201329233008,0.03887274973376539]","[1,1,1]","[0.06108660853129789,-0.019490737375424394]","[-1,-1,-1]","[0.1670176760142942,0.10977975765177098]","[-1,-1,-1]","[-0.01696551692016969,0.013250850365123436]","[-1,-1,-1]","[-0.15150644194263668,-0.10077435422299276]","[-1,-1,-1]","[0.02881097110057686,-0.18052538239197508]","[1,1,1]","[0.08440659374053057,-0.12747644594632596]","[-1,-1,-1]","[0.028665169932537354,-0.058331927323155494]","[-1,-1,-1]","[-0.06262976703554779,0.09132045839746973]","[-1,-1,-1]","[0.1372087515832468,-0.12890053388714817]","[-1,-1,-1]","[-0.001318665988384895,-0.13597278490467035]","[-1,-1,-1]","[-0.1008529397532344,0.060970529774634255]","[-1,-1,-1]","[-0.09808563145832297,-0.06885015816117684]","[-1,-1,-1]","[0.03829280808210233,0.13697445110576592]","[-1,-1,-1]","[0.02,0.02]",193.8126,0,27,27,10,1,,,,,,,
,,,,,,,645f2d6b7d2fa796bd75c72e,682f037fefeec23a91fd4c0b,2025-05-22_11h59.26.591,cuing_paradigm_dot,2024.1.5,Win32,60.24096386,682d556593cb38ad0a074487,,,,,,,,,,,193.8132,194.3126,,,194.563,194.8961,right,,,,,,,,0.5,0.321,,,,,,,194.3126,194.5629,194.8961,"[-0.16174830551229508,-0.000924778341976425]","[1,1,1]","[0.0044122364154002645,0.19751839237441435]","[1,1,1]","[0.12963988744151736,-0.07055306569089734]","[1,1,1]","[0.0199798705727392,-0.12190067702637215]","[-1,-1,-1]","[-0.0315945651584486,-0.16606847858558335]","[-1,-1,-1]","[-0.07509024171585746,-0.03466326989877128]","[-1,-1,-1]","[0.16957679325124853,0.0455065885045786]","[-1,-1,-1]","[0.09809733891059928,-0.006180623177150192]","[1,1,1]","[-0.16638908942928468,0.08846637261008523]","[1,1,1]","[-0.04932805167374042,0.10685961098150774]","[1,1,1]","[-0.07295506285179237,-0.1374689023897509]","[1,1,1]","[0.03916924442442731,-0.19322577309213218]","[1,1,1]","[0.04882091500111577,0.14662703513856246]","[-1,-1,-1]","[-0.07098649030864164,0.15821095165686277]","[-1,-1,-1]","[-0.12155121212020993,-0.11107469533432905]","[-1,-1,-1]","[0.1880596660720368,-0.036571596085019885]","[-1,-1,-1]","[0.10017151441536075,0.1658187435715477]","[-1,-1,-1]","[-0.027666678441944845,-0.11545314636307602]","[1,1,1]","[0.03376970340815139,0.10490235653734453]","[1,1,1]","[-0.1584904676663251,-0.05978847056065692]","[-1,-1,-1]","[-0.1234303197602222,0.07155373021118462]","[-1,-1,-1]","[-0.00505043926907577,0.03484177384838672]","[1,1,1]","[0.11089692210552392,0.08960335621060521]","[1,1,1]","[-0.09254418270070165,-0.07569352851559366]","[-1,-1,-1]","[0.03118727893555705,0.05272330244790395]","[-1,-1,-1]","[0.13276358473394909,0.015570243927651167]","[-1,-1,-1]","[-0.12287967250090759,0.018484714687905655]","[1,1,1]","[0.16925301164555923,0.10517963630873511]","[1,1,1]","[0.05817395538190229,-0.024424329808650187]","[1,1,1]","[-0.05173325740509635,-0.07976038032493919]","[1,1,1]","[0.06113776618195039,0.1903627359126777]","[-1,-1,-1]","[0.03255265660017801,-0.0750759374985113]","[-1,-1,-1]","[0.02,0.02]",195.9958,0,28,28,113,1,,,,,,,
,,,,,,,645f2d6b7d2fa796bd75c72e,682f037fefeec23a91fd4c0b,2025-05-22_11h59.26.591,cuing_paradigm_dot,2024.1.5,Win32,60.24096386,682d556593cb38ad0a074487,,,,,,,,,,,195.9965,196.4956,,,196.7461,197.2457,left,,,,,,,,0.4,0.4834,,,,,,,196.4957,196.7461,197.2458,"[0.1708289767151911,-0.005783324861361862]","[-1,-1,-1]","[0.021258995793187633,-0.025369634102754203]","[-1,-1,-1]","[0.0991629310547377,0.07201656841190644]","[-1,-1,-1]","[-0.05696802968064649,0.07015426588085584]","[-1,-1,-1]","[0.04171288858759303,-0.10864768245668124]","[-1,-1,-1]","[0.07166036794489809,0.041630115970966074]","[1,1,1]","[0.17999254871613407,0.06368427979556324]","[-1,-1,-1]","[0.09427503887830999,0.1722793662371436]","[-1,-1,-1]","[0.13425729574715012,0.12997406752015866]","[1,1,1]","[-0.08110750136315982,-0.14832708142990542]","[1,1,1]","[-0.06627914801965566,0.1738566584719014]","[-1,-1,-1]","[-0.18219963273458603,0.04539522056096623]","[1,1,1]","[0.04681346023429573,0.17977278861732443]","[-1,-1,-1]","[0.07779151810281221,-0.05425141015645271]","[1,1,1]","[-0.04079189229388878,-0.13277458094897857]","[-1,-1,-1]","[-0.1925726468288155,-0.005687849027814516]","[-1,-1,-1]","[-0.08396522681422984,-0.04780471268698025]","[1,1,1]","[-0.1659788454130074,-0.08611027393577939]","[-1,-1,-1]","[-0.021568626098420602,0.01923934658122388]","[1,1,1]","[-0.1646508282197085,0.09279787527542309]","[1,1,1]","[0.022521877344887094,0.1400901486982052]","[1,1,1]","[-0.006665353373486772,0.17329540594722775]","[-1,-1,-1]","[-0.11469305268540506,0.06554413404863825]","[-1,-1,-1]","[0.00012343435934343414,-0.17375793509655596]","[-1,-1,-1]","[-0.03645522632760618,-0.053097577553499926]","[-1,-1,-1]","[0.1767307896813036,-0.08974549937494208]","[-1,-1,-1]","[0.01352704200767857,0.08950797998785033]","[1,1,1]","[0.10482938292630317,-0.08953996539486103]","[1,1,1]","[-0.10058804497535068,0.1417059066113198]","[1,1,1]","[0.10048400599518471,0.011710538900199444]","[1,1,1]","[0.008177345714988016,-0.0802693762274813]","[-1,-1,-1]","[-0.0997271294221318,-0.09645351763730076]","[-1,-1,-1]","[0.02,0.02]",198.3459,0,29,29,46,1,,,,,,,
,,,,,,,645f2d6b7d2fa796bd75c72e,682f037fefeec23a91fd4c0b,2025-05-22_11h59.26.591,cuing_paradigm_dot,2024.1.5,Win32,60.24096386,682d556593cb38ad0a074487,,,,,,,,,,,198.3464,198.8456,,,199.0962,199.6283,right,,,,,,,,0.55,0.5209,,,,,,,198.8456,199.0961,199.6284,"[-0.10240821815671602,0.08833377063090461]","[-1,-1,-1]","[0.17022167974416108,-0.10415829613290858]","[-1,-1,-1]","[0.06665610514520569,0.0062887096338680604]","[1,1,1]","[0.12238429933949213,-0.1347608304379269]","[-1,-1,-1]","[-0.0374688140227144,-0.08381666460338065]","[1,1,1]","[0.011917536849582315,0.0683159914589118]","[1,1,1]","[-0.012085578516100832,-0.18142720965651513]","[-1,-1,-1]","[-0.0459054066248803,-0.15536731681553104]","[-1,-1,-1]","[0.0245258558055195,0.18924803143741012]","[1,1,1]","[0.015433429256714308,0.02488985792557187]","[-1,-1,-1]","[-0.046220238087133346,0.029595361200217284]","[1,1,1]","[0.16482442992499152,-0.049845815181413546]","[1,1,1]","[-0.153334387857159,-0.08941282507824418]","[-1,-1,-1]","[0.16365333893738349,0.008285077635051387]","[1,1,1]","[-0.07208176095508623,-0.11375854612936474]","[-1,-1,-1]","[-0.12155299213882272,0.14249746746069397]","[-1,-1,-1]","[-0.11034548762806395,-0.1560619825310986]","[1,1,1]","[0.012244640309151648,-0.04030491321250752]","[-1,-1,-1]","[-0.15361462616945637,0.08791034274809346]","[1,1,1]","[0.07620240036782637,-0.1148225730999576]","[1,1,1]","[-0.02615282249033905,0.1659502441812765]","[1,1,1]","[-0.1661987354340767,-0.04790131628267507]","[1,1,1]","[0.08498953191750462,-0.07062978874302363]","[-1,-1,-1]","[0.08020202511337589,0.058490539308155814]","[1,1,1]","[-0.12423987337720499,0.036436499323824534]","[-1,-1,-1]","[0.19698330290883967,0.0336462465063974]","[1,1,1]","[0.11335574677609339,0.14927221831174364]","[1,1,1]","[-0.1822438964250311,0.005439902519780949]","[-1,-1,-1]","[-0.09010219950209249,0.1673676718077729]","[1,1,1]","[0.05340002233026192,-0.16144313547918634]","[1,1,1]","[0.12289754461301525,-0.05550717193533298]","[-1,-1,-1]","[-0.10779929965834398,-0.09362863687639641]","[1,1,1]","[0.02,0.02]",200.729,0,30,30,141,1,,,,,,,
,,,,,,,645f2d6b7d2fa796bd75c72e,682f037fefeec23a91fd4c0b,2025-05-22_11h59.26.591,cuing_paradigm_dot,2024.1.5,Win32,60.24096386,682d556593cb38ad0a074487,,,,,,,,,,,200.7295,201.2288,,,201.4795,201.8956,left,,,,,,,,0.9,0.3995,,,,,,,201.2289,201.4794,201.8956,"[0.08531736331537662,-0.012515043202182809]","[1,1,1]","[0.09148646497416885,0.16816635318457313]","[-1,-1,-1]","[0.14032478263440779,0.03758896213558711]","[-1,-1,-1]","[0.04554634476680608,0.14905937564180288]","[1,1,1]","[0.09481773658195712,-0.08342980989413952]","[1,1,1]","[0.023336528735286265,-0.13198700857818174]","[1,1,1]","[0.032717514101517096,-0.06898354558709137]","[1,1,1]","[0.11679941588815954,-0.12762322975389542]","[1,1,1]","[-0.08209820409860469,0.10549353387303012]","[1,1,1]","[-0.15345008165261922,-0.02699237832685275]","[1,1,1]","[-0.11598785175714844,-0.011305074306182255]","[1,1,1]","[-0.029867121301160867,-0.10664429640201607]","[1,1,1]","[-0.15229920052157825,0.11550737046523543]","[-1,-1,-1]","[0.16174761670945872,0.0770746673718372]","[1,1,1]","[0.061418205687876024,-0.11065246215748029]","[1,1,1]","[-0.06507364156444705,0.01237639057833229]","[1,1,1]","[-0.15661682978443525,0.022533666346689758]","[1,1,1]","[-0.1387155269178298,-0.12512329032693456]","[1,1,1]","[-0.0072711241981044785,0.17687367618884514]","[1,1,1]","[0.011559087769493968,-0.19937782743942106]","[1,1,1]","[-0.05612693688327941,-0.07457385668719486]","[1,1,1]","[-0.02222874068842914,0.13866809413684858]","[1,1,1]","[-0.033440419201470846,-0.15541016852975895]","[1,1,1]","[0.02331549842486701,0.02210110752657364]","[1,1,1]","[-0.03744167923118583,-0.022970000861734407]","[1,1,1]","[0.1342226661102725,-0.046177042352358685]","[1,1,1]","[0.16215902204680613,-0.07680096802708182]","[1,1,1]","[0.02958246113754048,0.08903282313138246]","[1,1,1]","[0.18886058343848022,0.04326944374987421]","[1,1,1]","[0.17090616793374716,-0.006488412606288101]","[1,1,1]","[-0.12301737151828585,-0.07860797997777716]","[1,1,1]","[-0.08275883475591754,-0.1459376918359406]","[1,1,1]","[0.02,0.02]",202.9956,0,31,31,184,1,,,,,,,
,,,,,,,645f2d6b7d2fa796bd75c72e,682f037fefeec23a91fd4c0b,2025-05-22_11h59.26.591,cuing_paradigm_dot,2024.1.5,Win32,60.24096386,682d556593cb38ad0a074487,,,,,,,,,,,202.9963,203.4957,,,203.7462,204.0123,right,,,,,,,,0.6,0.2489,,,,,,,203.4959,203.7462,204.0124,"[-0.1053596417478052,-0.13371479932494715]","[1,1,1]","[0.14259389005440487,0.00578517353152522]","[1,1,1]","[0.038282606726043354,0.09215715719703928]","[1,1,1]","[0.0034772135073819705,-0.08425489631623517]","[1,1,1]","[0.10013383225468968,-0.08611876153292945]","[1,1,1]","[0.08157352515765687,-0.13569846173900135]","[-1,-1,-1]","[-0.05959493332316526,0.07930246817162048]","[1,1,1]","[0.06228954522392507,0.05440851023602382]","[1,1,1]","[-0.06430645277798484,-0.0022748454716055694]","[-1,-1,-1]","[-0.18003179084237894,-0.03710156439502816]","[-1,-1,-1]","[0.17258243024152417,-0.09832045496973103]","[1,1,1]","[0.16175319276907218,0.08781659552522622]","[1,1,1]","[-0.10670159317678873,0.10757242919215514]","[1,1,1]","[0.034575656538264436,-0.1427529426498404]","[-1,-1,-1]","[-0.06940269488856626,-0.07276585556253247]","[1,1,1]","[0.10616990147071094,0.09532864760483993]","[1,1,1]","[0.006255770150196531,0.05710733705361054]","[-1,-1,-1]","[-0.11901128176579052,-0.09157247634304565]","[-1,-1,-1]","[-0.03543150418858836,-0.030987507888018805]","[1,1,1]","[-0.00008974938637818174,-0.19382897364469057]","[1,1,1]","[-0.03360676590618216,-0.11883414945446087]","[1,1,1]","[0.03043152683626902,0.15459111360173358]","[-1,-1,-1]","[0.18634524528591537,-0.024850131774021775]","[-1,-1,-1]","[0.039384798346657826,0.19460638035792735]","[1,1,1]","[0.0997539139332056,0.004881275110261798]","[1,1,1]","[0.1048489196323969,0.16968447801200132]","[1,1,1]","[-0.025491786737404522,0.15043410931662773]","[-1,-1,-1]","[-0.12387407216828611,0.0683968804582738]","[-1,-1,-1]","[0.13051443616519598,0.05600590799285481]","[1,1,1]","[0.18961151465552306,0.04464944719309829]","[-1,-1,-1]","[-0.168670654863592,-0.10460232838235388]","[-1,-1,-1]","[-0.08517088160138146,0.14359411335003106]","[-1,-1,-1]","[0.02,0.02]",205.1123,0,32,32,157,1,,,,,,,
,,,,,,,645f2d6b7d2fa796bd75c72e,682f037fefeec23a91fd4c0b,2025-05-22_11h59.26.591,cuing_paradigm_dot,2024.1.5,Win32,60.24096386,682d556593cb38ad0a074487,,,,,,,,,,,205.1128,205.6124,,,205.8629,206.3123,left,,,,,,,,0.6,0.4353,,,,,,,205.6124,205.8628,206.3124,"[-0.05978033569164351,-0.1763147909354034]","[1,1,1]","[-0.04805782519890606,0.14947819016509586]","[1,1,1]","[0.02662246100988469,-0.12967510565448526]","[-1,-1,-1]","[-0.010307456824711066,-0.09705581049813265]","[1,1,1]","[0.15804482623218646,-0.030430056234994708]","[1,1,1]","[-0.16405213381181527,0.018955912430255288]","[1,1,1]","[-0.13665718073859237,-0.09053014396149736]","[1,1,1]","[-0.05118110315443789,0.09996848425309714]","[-1,-1,-1]","[-0.13318209481174517,0.13396589316740337]","[1,1,1]","[0.1806909843966205,0.022633156279903442]","[1,1,1]","[0.06703976132927034,0.040541620912738746]","[1,1,1]","[0.08449977124683992,0.08294197067558198]","[-1,-1,-1]","[0.07620567117999007,0.1594068348654155]","[1,1,1]","[-0.005979460152544914,-0.010267778468740236]","[1,1,1]","[0.10405117785557287,-0.16159981603316534]","[-1,-1,-1]","[-0.019606385281883187,-0.05423806889851998]","[-1,-1,-1]","[-0.015465923842070682,-0.17194156770735713]","[-1,-1,-1]","[-0.09344129583384077,-0.10256585011201307]","[1,1,1]","[0.007566067336749673,0.1380662425781658]","[1,1,1]","[0.07530412876477445,-0.077263178405972]","[1,1,1]","[0.1611746668041889,-0.07277341615019078]","[-1,-1,-1]","[-0.12130834657422097,-0.0021337188628995276]","[1,1,1]","[-0.12916147421278829,0.04463167029412574]","[1,1,1]","[0.018999348956636117,0.03911137368051173]","[-1,-1,-1]","[0.03925572214362453,0.17717907179598844]","[1,1,1]","[0.12871562687086766,0.043754163472787294]","[-1,-1,-1]","[-0.086310685437714,0.13694187101438032]","[1,1,1]","[-0.1710484374998559,0.09521235293192104]","[-1,-1,-1]","[0.16652028601693458,0.07391864956439298]","[-1,-1,-1]","[-0.06318340056729824,-0.024529867355684194]","[-1,-1,-1]","[-0.18097129466373876,-0.04419795004514254]","[-1,-1,-1]","[0.12767695841402302,0.13362709633329575]","[1,1,1]","[0.02,0.02]",207.4124,0,33,33,153,1,,,,,,,
,,,,,,,645f2d6b7d2fa796bd75c72e,682f037fefeec23a91fd4c0b,2025-05-22_11h59.26.591,cuing_paradigm_dot,2024.1.5,Win32,60.24096386,682d556593cb38ad0a074487,,,,,,,,,,,207.4129,207.912,,,208.1627,208.3957,right,,,,,,,,0.1,0.2263,,,,,,,207.912,208.1626,208.3957,"[-0.004021409285280257,-0.12317201204626639]","[-1,-1,-1]","[0.10699020454041037,0.01448424385882728]","[-1,-1,-1]","[0.129643120537367,-0.10158427048518179]","[-1,-1,-1]","[-0.16226245624999763,0.06730910862871133]","[-1,-1,-1]","[-0.02536113758619756,0.08488363158458741]","[-1,-1,-1]","[-0.08381040391376893,-0.08311829207684052]","[-1,-1,-1]","[-0.10367952045259601,0.0840586950427226]","[-1,-1,-1]","[-0.119975355172329,-0.044199724827234124]","[-1,-1,-1]","[-0.044491030355844834,-0.09190582993714135]","[-1,-1,-1]","[-0.016472541539223187,-0.027098956896416445]","[-1,-1,-1]","[0.12090768240608003,0.08218962401001983]","[-1,-1,-1]","[-0.044743018328176634,-0.15344580597523996]","[-1,-1,-1]","[0.085691561391159,-0.1344960900669736]","[-1,-1,-1]","[-0.18464446622278596,-0.005048916184720544]","[-1,-1,-1]","[0.12425964917938756,0.14835369749273963]","[1,1,1]","[0.01692300135694846,0.18373396843526957]","[1,1,1]","[0.022667971711461732,0.1204792195034067]","[-1,-1,-1]","[0.1879840454212688,-0.05168745452113433]","[-1,-1,-1]","[0.06668335263521409,0.07750028182417547]","[-1,-1,-1]","[-0.1461561031597637,-0.09984220264478406]","[-1,-1,-1]","[-0.04633274026267004,0.12359621239290139]","[-1,-1,-1]","[-0.1216398161153472,-0.13988344185890064]","[-1,-1,-1]","[0.09352833762414398,-0.06144813315552751]","[-1,-1,-1]","[0.04141252681153978,-0.03716883395323755]","[-1,-1,-1]","[-0.06087929153467509,0.02231353059553269]","[-1,-1,-1]","[0.014010904064898012,0.03379823802456343]","[-1,-1,-1]","[0.17965489654976433,0.08437392165975575]","[-1,-1,-1]","[-0.0807863186373027,0.17931423360399035]","[-1,-1,-1]","[0.057359197307667455,0.18309465915173936]","[1,1,1]","[-0.13747638972315898,0.11373935160531215]","[-1,-1,-1]","[0.1294888008629886,-0.14790262463641188]","[-1,-1,-1]","[-0.042428046130495244,0.16393038978306868]","[-1,-1,-1]","[0.02,0.02]",209.4954,0,34,34,23,1,,,,,,,
,,,,,,,645f2d6b7d2fa796bd75c72e,682f037fefeec23a91fd4c0b,2025-05-22_11h59.26.591,cuing_paradigm_dot,2024.1.5,Win32,60.24096386,682d556593cb38ad0a074487,,,,,,,,,,,209.496,209.9952,,,210.2457,210.4456,right,,,,,,,,0.1,0.1834,,,,,,,209.9953,210.2457,210.4457,"[-0.1351925608932925,-0.05791854449145989]","[-1,-1,-1]","[-0.12074788649679721,0.11884410818996577]","[-1,-1,-1]","[-0.12532674044698477,0.030448691151672213]","[-1,-1,-1]","[-0.06919967876069494,-0.14985742827187096]","[-1,-1,-1]","[-0.010524470015916467,-0.09396435025844918]","[-1,-1,-1]","[-0.0814840977656505,-0.09908167880864806]","[-1,-1,-1]","[0.11907751060380828,0.15792621822228653]","[-1,-1,-1]","[-0.19296910143482532,0.042704135974337594]","[-1,-1,-1]","[0.09830420891827404,-0.13329821709954465]","[-1,-1,-1]","[0.06876184545989877,-0.061011752621913495]","[-1,-1,-1]","[0.03200274631313492,-0.09960476363587908]","[-1,-1,-1]","[-0.01929724903632933,0.08851367927993582]","[-1,-1,-1]","[0.019783378974922283,0.028723134999271423]","[-1,-1,-1]","[0.15611038472779254,0.06960908940279614]","[-1,-1,-1]","[0.05420368147889673,0.1750142368879451]","[-1,-1,-1]","[0.0803854655029044,-0.021898435841565516]","[-1,-1,-1]","[0.18948616602348298,-0.03846479769168465]","[-1,-1,-1]","[0.10220830618952621,0.0752007253479436]","[-1,-1,-1]","[0.08558662239554615,0.12717445031049385]","[-1,-1,-1]","[-0.03302471457601414,-0.1327617901179546]","[-1,-1,-1]","[-0.0463318236620361,0.05360169459880696]","[-1,-1,-1]","[0.009327725970053442,0.16815289715548096]","[-1,-1,-1]","[-0.058544675079511214,-0.05181846331667306]","[1,1,1]","[0.17072009274540184,-0.10032740326359348]","[-1,-1,-1]","[0.022678400611564894,0.10871951880935495]","[-1,-1,-1]","[0.0047814177391453565,-0.15393974274195435]","[1,1,1]","[-0.10867252329958735,-0.012889861563013305]","[-1,-1,-1]","[0.04062885566085632,-0.016520303918709758]","[-1,-1,-1]","[-0.03083457824473674,0.18114687713821087]","[1,1,1]","[0.08237644531445354,0.03362730786093182]","[-1,-1,-1]","[-0.06762862436168865,0.16135743776485173]","[-1,-1,-1]","[-0.13234107504973944,-0.10271265053824631]","[-1,-1,-1]","[0.02,0.02]",211.5453,0,35,35,9,1,,,,,,,
,,,,,,,645f2d6b7d2fa796bd75c72e,682f037fefeec23a91fd4c0b,2025-05-22_11h59.26.591,cuing_paradigm_dot,2024.1.5,Win32,60.24096386,682d556593cb38ad0a074487,,,,,,,,,,,211.5458,212.0454,,,212.296,212.5789,left,,,,,,,,0.9,0.2663,,,,,,,212.0454,212.2959,212.5789,"[-0.005181875678147753,-0.17113601466502998]","[1,1,1]","[0.07270523119599517,0.15838396616863676]","[1,1,1]","[-0.040097600928664774,-0.051226645720710284]","[1,1,1]","[-0.12973255381783727,-0.08526836399835051]","[1,1,1]","[0.042704933758849636,-0.16589569021675385]","[1,1,1]","[-0.055901807124035544,-0.13140343234702542]","[1,1,1]","[0.033326948995485446,-0.09152822408998099]","[1,1,1]","[-0.15025919799180626,-0.011570920818927345]","[-1,-1,-1]","[-0.1942735767868921,0.03916401136247554]","[1,1,1]","[-0.1427070104193118,0.0468851752157342]","[1,1,1]","[-0.04600331843350656,-0.1840245894010908]","[1,1,1]","[0.07129872811583478,-0.014919159622173895]","[-1,-1,-1]","[0.16830050459041862,0.026366811917894115]","[1,1,1]","[-0.1425783494508203,0.11217662119767847]","[1,1,1]","[-0.10068703385832262,-0.14761315785184348]","[1,1,1]","[0.1470831245772115,-0.024534812658924345]","[1,1,1]","[0.09225505851871407,0.049401243579337104]","[1,1,1]","[0.00566177097170585,0.08488164451212794]","[1,1,1]","[-0.03119430519340674,0.1617389035779313]","[1,1,1]","[0.05580286891911487,-0.05272948958139802]","[1,1,1]","[0.02715422587702035,0.1348146493685402]","[1,1,1]","[0.06271880588171581,0.08145678169433254]","[1,1,1]","[0.15005686933223947,-0.11233924264974825]","[1,1,1]","[0.0005543068059502213,-0.028615537359253512]","[1,1,1]","[0.13639301913360577,0.08492216965627003]","[1,1,1]","[-0.07010386853657768,0.11764068081308382]","[-1,-1,-1]","[-0.07529763507251848,0.177178656627502]","[1,1,1]","[0.033680332360864026,0.18148203285510883]","[1,1,1]","[-0.01183428046104966,-0.08781537471780625]","[1,1,1]","[-0.08749327061336114,-0.09199122020603052]","[1,1,1]","[-0.0991078308040539,0.044002508049497985]","[1,1,1]","[0.09964025031431292,-0.14359740647974684]","[1,1,1]","[0.02,0.02]",213.6784,0,36,36,187,1,,,,,,,
,,,,,,,645f2d6b7d2fa796bd75c72e,682f037fefeec23a91fd4c0b,2025-05-22_11h59.26.591,cuing_paradigm_dot,2024.1.5,Win32,60.24096386,682d556593cb38ad0a074487,,,,,,,,,,,213.6789,214.1786,,,214.4291,214.6285,right,,,,,,,,0.1,0.1843,,,,,,,214.1787,214.4291,214.6285,"[-0.13753852006281503,0.09437918634822859]","[-1,-1,-1]","[0.1613880022020258,0.10036107199925534]","[-1,-1,-1]","[0.08150080271509537,-0.10256101847523261]","[-1,-1,-1]","[-0.15003562453560668,-0.013739298608114604]","[-1,-1,-1]","[-0.09941634823278193,-0.12249306179620663]","[-1,-1,-1]","[-0.029644563964890902,-0.08297955309515982]","[-1,-1,-1]","[0.04438752770132615,-0.17545389711199696]","[-1,-1,-1]","[0.12751412789683342,0.12853177337037222]","[-1,-1,-1]","[-0.03982441916482401,-0.011570298406617987]","[-1,-1,-1]","[0.02680163527975995,0.1233666648505382]","[-1,-1,-1]","[0.06576368507525071,-0.00023856578594453983]","[-1,-1,-1]","[-0.09880644136692247,0.026980485571786242]","[-1,-1,-1]","[0.07236703245566858,0.1094854720662365]","[-1,-1,-1]","[0.03725757475016242,-0.058659957785102974]","[-1,-1,-1]","[0.09999735502547423,-0.05750662016448335]","[-1,-1,-1]","[-0.14948967090243007,0.03778405174077105]","[-1,-1,-1]","[-0.08248223805672049,-0.03965395454250531]","[1,1,1]","[0.1285495451263942,-0.09384076096989286]","[-1,-1,-1]","[0.014391618066247367,0.013221797455065498]","[1,1,1]","[-0.013026781809673144,0.1506888072654165]","[-1,-1,-1]","[0.17359331607153652,-0.07620780886605097]","[-1,-1,-1]","[-0.015144739408693526,-0.1455456101163544]","[-1,-1,-1]","[0.01914135205248695,0.18814900292147488]","[-1,-1,-1]","[-0.114459694620468,-0.08486120801774191]","[-1,-1,-1]","[-0.16159680640171548,-0.07019549146019649]","[-1,-1,-1]","[0.14640806987182772,0.05768797578277316]","[-1,-1,-1]","[0.10527361584329065,0.043645441018282265]","[1,1,1]","[-0.031163436628630452,0.10547684449926278]","[-1,-1,-1]","[-0.06679401612889388,0.07165874048216407]","[-1,-1,-1]","[-0.06846003405309753,-0.15475685198406153]","[-1,-1,-1]","[0.1925615780704837,0.0038044895434841265]","[-1,-1,-1]","[-0.19584232594299766,0.0327851871625709]","[-1,-1,-1]","[0.02,0.02]",215.7286,0,37,37,11,1,,,,,,,
,,,,,,,645f2d6b7d2fa796bd75c72e,682f037fefeec23a91fd4c0b,2025-05-22_11h59.26.591,cuing_paradigm_dot,2024.1.5,Win32,60.24096386,682d556593cb38ad0a074487,,,,,,,,,,,215.7291,216.2291,,,216.4794,216.7789,right,,,,,,,,0.5,0.2842,,,,,,,216.2292,216.4793,216.779,"[0.07088948531396913,0.0669281264614673]","[1,1,1]","[0.13836311713635857,0.11139452161367812]","[-1,-1,-1]","[-0.16752216863086913,0.040112811421902934]","[-1,-1,-1]","[-0.12107087527347865,0.00941061056482869]","[1,1,1]","[-0.06016307989320719,-0.04973813527228305]","[-1,-1,-1]","[0.164836067992584,-0.016738749744397673]","[1,1,1]","[-0.054670624719462525,-0.13080444732663624]","[1,1,1]","[0.008110565496327196,-0.00773146867703976]","[-1,-1,-1]","[0.14516120772014246,-0.051884872394723724]","[-1,-1,-1]","[-0.042093491085726215,0.1060867139106045]","[-1,-1,-1]","[0.012626658815520256,0.06018393118055635]","[-1,-1,-1]","[0.06357592849819377,0.00915930746718238]","[1,1,1]","[0.1989755655144599,0.007794959817228625]","[-1,-1,-1]","[0.14688626573417324,0.0481762320646019]","[-1,-1,-1]","[-0.02708160454583012,-0.17142798137674284]","[1,1,1]","[0.016501644934362934,-0.17317926324432342]","[-1,-1,-1]","[0.04341931261709363,-0.06548611995273758]","[1,1,1]","[0.11136481998732034,-0.10020952109628768]","[-1,-1,-1]","[0.023295106857021134,0.14660087918042414]","[-1,-1,-1]","[0.17606545999721615,-0.07827561444252222]","[1,1,1]","[-0.07706279092355484,0.039845463203317985]","[-1,-1,-1]","[-0.08913547264151601,-0.17186568706620392]","[1,1,1]","[-0.023136245047285373,-0.07968154785702773]","[-1,-1,-1]","[0.00026493489906010114,-0.1300362777391796]","[-1,-1,-1]","[-0.11777260328192174,-0.06484400196317927]","[1,1,1]","[-0.12002342569028958,-0.12856198316150777]","[1,1,1]","[-0.18524624498999037,-0.02718387322408267]","[1,1,1]","[-0.06817951722172283,-0.09080627500301455]","[1,1,1]","[0.10362023837579308,0.1474012548730625]","[-1,-1,-1]","[-0.08523119602175974,0.1232236602431709]","[1,1,1]","[-0.028366067169390795,0.058367130029782555]","[1,1,1]","[0.05155136732067229,-0.1272099280152071]","[1,1,1]","[0.02,0.02]",217.8787,0,38,38,118,1,,,,,,,
,,,,,,,645f2d6b7d2fa796bd75c72e,682f037fefeec23a91fd4c0b,2025-05-22_11h59.26.591,cuing_paradigm_dot,2024.1.5,Win32,60.24096386,682d556593cb38ad0a074487,,,,,,,,,,,217.8792,218.3788,,,218.629,218.9282,left,,,,,,,,0.6,0.2824,,,,,,,218.3789,218.6288,218.9283,"[0.12972969164456388,0.07401935502888075]","[1,1,1]","[0.14138298941432828,-0.1336885508383079]","[1,1,1]","[0.17018110499460262,0.07870961769903086]","[1,1,1]","[0.056302906496429654,-0.09050974682615477]","[1,1,1]","[0.006871355656805398,-0.13710888961282766]","[1,1,1]","[-0.043549070422732865,0.05978457907391449]","[-1,-1,-1]","[-0.13273942132789257,-0.03563540454954005]","[-1,-1,-1]","[0.02460674929389302,-0.03236528153832829]","[-1,-1,-1]","[0.16107955347057856,0.009178137554073025]","[-1,-1,-1]","[-0.18715300651354294,0.0435788053719023]","[-1,-1,-1]","[-0.06414321497248779,0.017100773335694226]","[1,1,1]","[0.09082963189496257,-0.007940810831985983]","[1,1,1]","[0.023623905207315374,0.16511079784755425]","[1,1,1]","[-0.040304288296789295,0.15706283241055477]","[1,1,1]","[-0.1384335896281729,0.05621890239619999]","[1,1,1]","[-0.09559211417899863,-0.012293243811752005]","[-1,-1,-1]","[0.09820666306742991,0.14105970476146776]","[1,1,1]","[0.10778995281734291,-0.0820751954062748]","[1,1,1]","[-0.08375708727558999,0.1669277251054304]","[-1,-1,-1]","[-0.0448280729892957,-0.1418666621412485]","[1,1,1]","[0.06117211044150601,0.04678764585781569]","[-1,-1,-1]","[-0.028389445966811762,-0.05110334941348303]","[1,1,1]","[0.19030223393301987,-0.04337716734900771]","[-1,-1,-1]","[0.08100398670904761,0.102020885133438]","[-1,-1,-1]","[-0.1635791986781645,0.08988189195244713]","[1,1,1]","[0.12441447095498628,-0.03639267537889668]","[-1,-1,-1]","[-0.16203672352206702,-0.0022085286070065574]","[1,1,1]","[-0.12427647155598182,0.1300617828303524]","[1,1,1]","[-0.0822663647658268,-0.057484029675339054]","[1,1,1]","[-0.10861453075410253,-0.16100001636398265]","[-1,-1,-1]","[-0.08897689121180853,-0.09960343545646003]","[1,1,1]","[-0.034272727289339104,-0.009566099670194306]","[-1,-1,-1]","[0.02,0.02]",220.028,0,39,39,166,1,,,,,,,
,,,,,,,645f2d6b7d2fa796bd75c72e,682f037fefeec23a91fd4c0b,2025-05-22_11h59.26.591,cuing_paradigm_dot,2024.1.5,Win32,60.24096386,682d556593cb38ad0a074487,,,,,,,,,,,220.0284,220.5283,,,220.7789,220.9449,right,,,,,,,,0.1,0.1498,,,,,,,220.5284,220.7787,220.9449,"[0.008001635380615671,0.051480955385993246]","[1,1,1]","[-0.012498413100208097,-0.1272002472161862]","[-1,-1,-1]","[-0.06490987173631493,0.01397176081815845]","[-1,-1,-1]","[0.09671457467067004,-0.017844043590155147]","[-1,-1,-1]","[0.15407157762043233,-0.06445058557558547]","[-1,-1,-1]","[-0.05226885742148548,0.1404772252905279]","[-1,-1,-1]","[-0.1629845407654667,0.0883584232904546]","[1,1,1]","[0.06224124768571275,-0.08461720943009021]","[-1,-1,-1]","[0.16738682307072633,0.09300371432951823]","[-1,-1,-1]","[0.04535882772356969,0.10653886386479977]","[1,1,1]","[-0.1796350597619526,0.038690322284470606]","[-1,-1,-1]","[0.11864758724124383,0.08022750339565556]","[-1,-1,-1]","[0.06313616207570842,-0.16991308861049373]","[-1,-1,-1]","[-0.039332642123933635,-0.18396422149219527]","[-1,-1,-1]","[-0.06153497103141756,-0.04247664178697199]","[-1,-1,-1]","[0.00937620051786869,-0.015685916953881465]","[-1,-1,-1]","[0.10157198441525427,-0.12903692975129866]","[-1,-1,-1]","[0.14171224242916178,-0.016752941683156556]","[-1,-1,-1]","[-0.17443769642726567,-0.06251106495410926]","[-1,-1,-1]","[0.049566650455351184,0.04224586610537721]","[-1,-1,-1]","[0.006111300425144854,-0.082781306601912]","[-1,-1,-1]","[-0.07771007524340956,0.10030042536019554]","[-1,-1,-1]","[-0.050908058453323315,-0.0847251366993766]","[-1,-1,-1]","[-0.11484484434920898,-0.0627730866458054]","[-1,-1,-1]","[0.10803092673231479,0.12988973421239966]","[-1,-1,-1]","[0.04286295996053158,0.15429561834804428]","[-1,-1,-1]","[-0.03796842353310601,0.08575965792254339]","[-1,-1,-1]","[0.1791028998158939,0.04570245279614379]","[-1,-1,-1]","[-0.12279086572740236,0.06185725034068274]","[-1,-1,-1]","[-0.12266301175285367,-0.10210945269017715]","[-1,-1,-1]","[-0.11403780686229119,-0.01203207493970676]","[-1,-1,-1]","[0.019828449285712507,-0.1576349183792301]","[-1,-1,-1]","[0.02,0.02]",222.0454,0,40,40,25,1,,,,,,,
,,,,,,,645f2d6b7d2fa796bd75c72e,682f037fefeec23a91fd4c0b,2025-05-22_11h59.26.591,cuing_paradigm_dot,2024.1.5,Win32,60.24096386,682d556593cb38ad0a074487,,,,,,,,,,,222.0459,222.545,,,222.7953,223.195,left,,,,,,,,0.6,0.3892,,,,,,,222.5451,222.7953,223.195,"[-0.10510267478819263,-0.03181260192915416]","[1,1,1]","[-0.07945617352651144,-0.07159089196629653]","[1,1,1]","[0.11042489723135107,0.12784829332650616]","[-1,-1,-1]","[-0.08261825600204413,0.05596148974166867]","[1,1,1]","[-0.047568234846571474,0.1549162066353815]","[1,1,1]","[0.051977750050245,-0.10734929682090136]","[1,1,1]","[0.15318467060154017,-0.0021727306213749588]","[1,1,1]","[-0.13611120651326616,0.090361991699449]","[-1,-1,-1]","[0.05092123875491799,-0.04692167387859032]","[-1,-1,-1]","[0.06353140859549507,0.09557840377708761]","[1,1,1]","[0.0933987031793302,-0.08114248075643232]","[1,1,1]","[0.0765855039156151,0.16760090217111084]","[1,1,1]","[-0.05982558841886627,-0.11356701252158521]","[-1,-1,-1]","[0.16962552924259383,0.036175761392207136]","[1,1,1]","[-0.11935637025321347,0.029468440933376337]","[1,1,1]","[-0.00889801471315342,-0.1496906157096944]","[1,1,1]","[-0.03874566105267542,-0.06160794176545575]","[1,1,1]","[0.0783654023212575,0.03889308509587273]","[1,1,1]","[-0.06638332004183414,-0.0164389558585582]","[-1,-1,-1]","[0.07674421878874732,-0.17108883175036166]","[1,1,1]","[-0.0014358838180747932,0.038810149358730096]","[-1,-1,-1]","[-0.18855211688145054,0.002896695868008073]","[-1,-1,-1]","[-0.10054417742975555,-0.12648172226259896]","[-1,-1,-1]","[0.124915182121642,0.06051625965105298]","[-1,-1,-1]","[0.16831426007855704,-0.09535666249297832]","[1,1,1]","[0.1078916011847012,-0.023662357193046706]","[-1,-1,-1]","[0.031189332737643096,0.1942394202956675]","[-1,-1,-1]","[-0.13950315157544066,-0.08759201191350988]","[-1,-1,-1]","[0.013481617922497415,-0.19045869493592946]","[1,1,1]","[-0.1294157673612466,0.14379777919220532]","[1,1,1]","[0.174503408209767,0.07598815322922339]","[-1,-1,-1]","[-0.011189786582958354,0.19914398720532767]","[1,1,1]","[0.02,0.02]",224.295,0,41,41,158,1,,,,,,,
,,,,,,,645f2d6b7d2fa796bd75c72e,682f037fefeec23a91fd4c0b,2025-05-22_11h59.26.591,cuing_paradigm_dot,2024.1.5,Win32,60.24096386,682d556593cb38ad0a074487,,,,,,,,,,,224.2956,224.795,,,225.0453,226.1783,left,,,,,,,,0.45,1.1241,,,,,,,224.795,225.0453,226.1783,"[0.043661552412428126,-0.0928923746942631]","[1,1,1]","[0.16507026292487156,-0.10314479767881565]","[1,1,1]","[0.16675249107022813,0.06882883114124107]","[-1,-1,-1]","[-0.08772740470369178,0.13267150322967555]","[-1,-1,-1]","[-0.02236586180620852,0.17904498989691803]","[1,1,1]","[-0.12518311063233892,-0.06346052194137851]","[-1,-1,-1]","[-0.06001439753869141,-0.16097402854672707]","[1,1,1]","[0.14907292224791063,-0.0419835578117256]","[1,1,1]","[-0.007748901641976614,-0.04946682084444689]","[-1,-1,-1]","[-0.09787826481293173,0.025481958382219335]","[1,1,1]","[0.044969328208184785,0.03235068343080409]","[-1,-1,-1]","[-0.009059119742239033,0.08174669002181932]","[-1,-1,-1]","[0.1798847502154969,0.02086403811027526]","[-1,-1,-1]","[0.08936003991908786,0.17541416549186237]","[1,1,1]","[-0.17778174689296944,0.05036873336865057]","[-1,-1,-1]","[-0.03514088229417263,0.02573091074450387]","[1,1,1]","[0.12150328170888193,0.012503341395665902]","[-1,-1,-1]","[-0.08119707329665724,-0.06853629315455813]","[1,1,1]","[0.02305713645779783,0.19434684741235617]","[-1,-1,-1]","[-0.0029769980387208145,0.0007952873836112493]","[-1,-1,-1]","[-0.036629866482848876,-0.11836502255546684]","[-1,-1,-1]","[0.10963451763735135,-0.06236971271056527]","[-1,-1,-1]","[-0.11628019965202586,0.16213780895895316]","[-1,-1,-1]","[-0.043024135337688195,0.13787792776497937]","[-1,-1,-1]","[0.08774275391547637,-0.11092799224214374]","[1,1,1]","[-0.13243981202147204,0.07281038657499878]","[1,1,1]","[0.029464490110979225,-0.1781239962767151]","[1,1,1]","[0.04511214474609364,-0.03957685714285357]","[-1,-1,-1]","[0.04154406672021959,0.07588461875525668]","[-1,-1,-1]","[-0.08960988684011847,0.07753167304142826]","[1,1,1]","[-0.07635045924021495,-0.01073771955224697]","[1,1,1]","[0.08741175800116971,0.037624126397502386]","[-1,-1,-1]","[0.02,0.02]",227.278,0,42,42,89,1,,,,,,,
,,,,,,,645f2d6b7d2fa796bd75c72e,682f037fefeec23a91fd4c0b,2025-05-22_11h59.26.591,cuing_paradigm_dot,2024.1.5,Win32,60.24096386,682d556593cb38ad0a074487,,,,,,,,,,,227.2786,227.7779,,,228.0288,229.495,right,,,,,,,,0.45,1.4488,,,,,,,227.778,228.0288,229.495,"[0.09994097590763516,-0.1097311833326807]","[-1,-1,-1]","[0.02439800324163442,-0.12682183364465058]","[-1,-1,-1]","[-0.002261150287697612,-0.04965066006992923]","[1,1,1]","[-0.1050625743133226,-0.09442655254804251]","[-1,-1,-1]","[0.17817648203168998,0.04169152056831498]","[-1,-1,-1]","[-0.08702344661984696,0.16591465230129404]","[-1,-1,-1]","[0.13674597690928544,0.12360381366481141]","[-1,-1,-1]","[-0.11328752612285758,-0.013369348120133906]","[-1,-1,-1]","[0.04086595928957279,0.1279492671227097]","[1,1,1]","[0.1614144540168338,-0.055865943788514935]","[-1,-1,-1]","[-0.05182210702781673,0.12147628975329679]","[1,1,1]","[0.03853790299153226,0.173397908474622]","[-1,-1,-1]","[0.06095546979895335,-0.15935378125420377]","[1,1,1]","[0.10287776684345885,0.1467195161601998]","[1,1,1]","[-0.01285423908643412,-0.16018944019960052]","[1,1,1]","[-0.10369715753147213,0.05029167373538077]","[1,1,1]","[0.07105997547709,0.035711152904041324]","[-1,-1,-1]","[-0.057189821344911865,0.06659045155546015]","[-1,-1,-1]","[0.015234397618400631,0.06030877587317748]","[1,1,1]","[-0.02758690512548758,0.1723565903907334]","[-1,-1,-1]","[0.02648697912733632,-0.0063200616642630995]","[1,1,1]","[-0.17677578939647115,-0.031038589730692998]","[-1,-1,-1]","[0.11096279735910129,-0.04333628264090918]","[-1,-1,-1]","[-0.021259755012391232,0.09025664661061451]","[1,1,1]","[-0.13585041692805683,0.10334275987110814]","[-1,-1,-1]","[-0.030478880661388957,-0.10148031580370045]","[-1,-1,-1]","[0.15433413744873523,-0.09918676976437409]","[-1,-1,-1]","[-0.0785573892827107,-0.1254761332200238]","[1,1,1]","[0.09909550804643126,0.096778462540845]","[1,1,1]","[0.11860279784097626,-0.0010752256593548877]","[1,1,1]","[-0.04548493156801501,0.01857913394756316]","[1,1,1]","[-0.06583338331808403,-0.183882643151959]","[-1,-1,-1]","[0.02,0.02]",230.5952,0,43,43,73,1,,,,,,,
,,,,,,,645f2d6b7d2fa796bd75c72e,682f037fefeec23a91fd4c0b,2025-05-22_11h59.26.591,cuing_paradigm_dot,2024.1.5,Win32,60.24096386,682d556593cb38ad0a074487,,,,,,,,,,,230.5959,231.0947,,,231.3453,231.7783,left,,,,,,,,0.9,0.4253,,,,,,,231.0948,231.3453,231.7784,"[0.032138892206781074,-0.18363579926001647]","[1,1,1]","[0.07951929057210141,0.05829466081635972]","[1,1,1]","[-0.14691299882223638,0.06338344532288173]","[1,1,1]","[0.06233825559068539,0.01910027287947848]","[1,1,1]","[-0.08330545858325213,-0.007284334322204958]","[1,1,1]","[-0.09019857157018663,-0.07703058513428891]","[1,1,1]","[-0.05388542904019153,0.10472837843409043]","[1,1,1]","[0.0658717049201224,0.11455611029133259]","[-1,-1,-1]","[-0.03264915943750498,-0.00865199314663681]","[1,1,1]","[-0.045454281801028326,0.03961960894612367]","[1,1,1]","[0.10835274217155491,-0.1629278657963716]","[1,1,1]","[0.141635468542122,-0.07564264713464039]","[1,1,1]","[0.07375229746102396,0.16233718287853532]","[1,1,1]","[-0.14237767412691843,0.13863625417639558]","[1,1,1]","[0.1429539897294507,0.10728745260501785]","[1,1,1]","[-0.008388786382331365,0.18594718438764102]","[1,1,1]","[0.16990514315963723,-0.032453025940842435]","[1,1,1]","[-0.00958244764728146,-0.10810505646194574]","[1,1,1]","[-0.1759179211383097,-0.05511678711788517]","[-1,-1,-1]","[-0.04838967676362068,-0.09048219659785885]","[-1,-1,-1]","[-0.07133200701515827,-0.18213719003717538]","[1,1,1]","[0.07628416126742658,-0.02493357133942706]","[1,1,1]","[-0.004745713100525257,-0.059876720865702525]","[1,1,1]","[0.1400636995187635,0.039273778708243876]","[1,1,1]","[-0.11155406412114378,0.08999462593976752]","[1,1,1]","[-0.15419854116153786,0.00585908981492135]","[1,1,1]","[-0.005594947248617532,0.054620573262316056]","[1,1,1]","[-0.04011401470758379,0.1458496827610312]","[1,1,1]","[-0.1512920460005941,-0.11047449227317663]","[1,1,1]","[0.05152159953103244,-0.10941740666847338]","[1,1,1]","[-0.06722276637070282,-0.13804768844904045]","[1,1,1]","[-0.18929309079067608,0.06124016763326951]","[1,1,1]","[0.02,0.02]",232.8781,0,44,44,198,1,,,,,,,
