right,left,explain.started,explain.stopped,key_resp_3.keys,key_resp_3.rt,key_resp_3.duration,participant,session,date,expName,psychopyVersion,OS,frameRate,study_id,explain_2.started,explain_2.stopped,key_resp_4.keys,key_resp_4.rt,key_resp_4.duration,explain_3.started,explain_3.stopped,key_resp_5.keys,key_resp_5.rt,key_resp_5.duration,fixation.started,fixation.stopped,practice.started,practice.stopped,response.started,response.stopped,key_resp.keys,key_resp.rt,key_resp.duration,feedback.started,feedback.stopped,trials_2.thisRepN,trials_2.thisTrialN,trials_2.thisN,trials_2.thisIndex,trials_2.ran,white_ratio,explain_4.started,explain_4.stopped,key_resp_6.keys,key_resp_6.rt,key_resp_6.duration,dotDisplay.started,dotDisplay.stopped,ITI.started,polygon_1.pos,polygon_1.color,polygon_2.pos,polygon_2.color,polygon_3.pos,polygon_3.color,polygon_4.pos,polygon_4.color,polygon_5.pos,polygon_5.color,polygon_6.pos,polygon_6.color,polygon_7.pos,polygon_7.color,polygon_8.pos,polygon_8.color,polygon_9.pos,polygon_9.color,polygon_10.pos,polygon_10.color,polygon_11.pos,polygon_11.color,polygon_12.pos,polygon_12.color,polygon_13.pos,polygon_13.color,polygon_14.pos,polygon_14.color,polygon_15.pos,polygon_15.color,polygon_16.pos,polygon_16.color,polygon_17.pos,polygon_17.color,polygon_18.pos,polygon_18.color,polygon_19.pos,polygon_19.color,polygon_20.pos,polygon_20.color,polygon_21.pos,polygon_21.color,polygon_22.pos,polygon_22.color,polygon_23.pos,polygon_23.color,polygon_24.pos,polygon_24.color,polygon_25.pos,polygon_25.color,polygon_26.pos,polygon_26.color,polygon_27.pos,polygon_27.color,polygon_28.pos,polygon_28.color,polygon_29.pos,polygon_29.color,polygon_30.pos,polygon_30.color,polygon_31.pos,polygon_31.color,polygon_32.pos,polygon_32.color,dot_size,ITI.stopped,trials.thisRepN,trials.thisTrialN,trials.thisN,trials.thisIndex,trials.ran,break_2.started,break_2.stopped,trials_3.thisRepN,trials_3.thisTrialN,trials_3.thisN,trials_3.thisIndex,trials_3.ran
subject chose white,subject chose black,0.0008,86.48,space,71.3451,0.0014,6526a0e62c605cc42d9a52e4,682db39b28b0edef4571b5a8,2025-05-21_13h19.09.356,cuing_paradigm_dot,2024.1.5,Win32,5.452562704,682d556593cb38ad0a074487,,,,,,,,,,,,,,,,,,,,,,,,,,,,,,,,,,,,,,,,,,,,,,,,,,,,,,,,,,,,,,,,,,,,,,,,,,,,,,,,,,,,,,,,,,,,,,,,,,,,,,,,,,,,,,,,,
,,,,,,,6526a0e62c605cc42d9a52e4,682db39b28b0edef4571b5a8,2025-05-21_13h19.09.356,cuing_paradigm_dot,2024.1.5,Win32,5.452562704,682d556593cb38ad0a074487,86.4804,141.4893,space,24.9241,,,,,,,,,,,,,,,,,,,,,,,,,,,,,,,,,,,,,,,,,,,,,,,,,,,,,,,,,,,,,,,,,,,,,,,,,,,,,,,,,,,,,,,,,,,,,,,,,,,,,,,,,,,,,
,,,,,,,6526a0e62c605cc42d9a52e4,682db39b28b0edef4571b5a8,2025-05-21_13h19.09.356,cuing_paradigm_dot,2024.1.5,Win32,5.452562704,682d556593cb38ad0a074487,,,,,,141.4899,152.5177,space,8.0046,0.0011,,,,,,,,,,,,,,,,,,,,,,,,,,,,,,,,,,,,,,,,,,,,,,,,,,,,,,,,,,,,,,,,,,,,,,,,,,,,,,,,,,,,,,,,,,,,,,,,,,,,,,,
,,,,,,,6526a0e62c605cc42d9a52e4,682db39b28b0edef4571b5a8,2025-05-21_13h19.09.356,cuing_paradigm_dot,2024.1.5,Win32,5.452562704,682d556593cb38ad0a074487,,,,,,,,,,,152.558,152.9635,152.964,153.1998,153.2001,154.4316,right,1.0299,,154.4318,155.5899,0,0,0,1,1,0.2,,,,,,,,,,,,,,,,,,,,,,,,,,,,,,,,,,,,,,,,,,,,,,,,,,,,,,,,,,,,,,,,,,,,,,,,,,,,,,,,,,,,,,
,,,,,,,6526a0e62c605cc42d9a52e4,682db39b28b0edef4571b5a8,2025-05-21_13h19.09.356,cuing_paradigm_dot,2024.1.5,Win32,5.452562704,682d556593cb38ad0a074487,,,,,,,,,,,155.5906,155.9739,155.9739,156.7588,156.7589,157.797,,,,157.797,158.7796,0,1,1,0,1,0.8,,,,,,,,,,,,,,,,,,,,,,,,,,,,,,,,,,,,,,,,,,,,,,,,,,,,,,,,,,,,,,,,,,,,,,,,,,,,,,,,,,,,,,
,,,,,,,6526a0e62c605cc42d9a52e4,682db39b28b0edef4571b5a8,2025-05-21_13h19.09.356,cuing_paradigm_dot,2024.1.5,Win32,5.452562704,682d556593cb38ad0a074487,,,,,,,,,,,,,,,,,,,,,,,,,,,,158.7802,174.2438,space,12.3519,,,,,,,,,,,,,,,,,,,,,,,,,,,,,,,,,,,,,,,,,,,,,,,,,,,,,,,,,,,,,,,,,,,,,,,,,,,,,,,,,,
,,,,,,,6526a0e62c605cc42d9a52e4,682db39b28b0edef4571b5a8,2025-05-21_13h19.09.356,cuing_paradigm_dot,2024.1.5,Win32,5.452562704,682d556593cb38ad0a074487,,,,,,,,,,,174.3394,174.7351,,,174.9469,175.9897,right,0.8468,,,,,,,,,0.55,,,,,,174.7354,174.9468,175.9903,"[0.026694024289364012,0.14546148670446768]","[-1,-1,-1]","[-0.09934117375540041,-0.018697039974915102]","[1,1,1]","[-0.07286192592658569,-0.10935742850595633]","[-1,-1,-1]","[-0.07364122132493463,-0.0645712131559478]","[-1,-1,-1]","[-0.009873126521744824,-0.05022973409332041]","[1,1,1]","[-0.12973875782222233,0.140012152404557]","[-1,-1,-1]","[0.03702643606073581,-0.1830192751971646]","[1,1,1]","[-0.13275077248412692,0.06507739877349064]","[-1,-1,-1]","[-0.007271525748544928,0.08928778082864963]","[1,1,1]","[-0.18449195330992998,-0.018153182974188744]","[1,1,1]","[0.10442343400196323,-0.0875637493857255]","[1,1,1]","[-0.04787908266928059,0.07282634520465758]","[-1,-1,-1]","[-0.06044318992494293,0.023048151578760813]","[-1,-1,-1]","[0.03317674671579413,-0.0211222806369875]","[1,1,1]","[0.1649534559227022,0.051781041795788206]","[1,1,1]","[0.09531310669377496,-0.13644478961092635]","[-1,-1,-1]","[-0.12105766532259842,-0.1134049434930576]","[1,1,1]","[-0.06009778155492059,-0.17821047317570915]","[1,1,1]","[0.0941087207579784,0.058625179383069645]","[-1,-1,-1]","[0.09162993953326458,-0.021413340225402134]","[-1,-1,-1]","[-0.04750880173815798,0.17808296416265032]","[-1,-1,-1]","[-0.17444588363966496,0.07842725351284295]","[1,1,1]","[0.1190204173552796,0.14734781772308156]","[1,1,1]","[0.008017742151852346,0.04356514299628486]","[1,1,1]","[0.1740397066557018,-0.0013626584555881682]","[-1,-1,-1]","[-0.18798004364957002,0.027036987096209886]","[1,1,1]","[0.13567125728930535,-0.04220244580284362]","[-1,-1,-1]","[-0.0952753494151409,0.04515541063635956]","[1,1,1]","[-0.031943424531957046,-0.08367341669443747]","[1,1,1]","[-0.005684817639736813,-0.17847543064508622]","[1,1,1]","[0.18754224592337684,-0.058922450190610855]","[-1,-1,-1]","[-0.10496659787346335,0.09745962264117593]","[1,1,1]","[0.02,0.02]",176.9744,0,0,0,133,1,,,,,,,
,,,,,,,6526a0e62c605cc42d9a52e4,682db39b28b0edef4571b5a8,2025-05-21_13h19.09.356,cuing_paradigm_dot,2024.1.5,Win32,5.452562704,682d556593cb38ad0a074487,,,,,,,,,,,176.975,177.3649,,,177.5793,178.6324,right,0.8581,,,,,,,,,0.9,,,,,,177.365,177.5792,178.6324,"[0.08485092985409133,0.041429210044556034]","[1,1,1]","[0.00948967613848109,0.03869427574632941]","[-1,-1,-1]","[-0.09487110964868753,0.11668226580304185]","[1,1,1]","[0.18210360182340635,-0.015870718208909094]","[1,1,1]","[0.03664527791270576,-0.13713199735697307]","[1,1,1]","[-0.031101692916364193,0.08541768965607088]","[1,1,1]","[-0.18453243383420503,0.015162164397095565]","[1,1,1]","[0.1201318141871158,0.09739009865816448]","[1,1,1]","[0.09265877847457946,-0.04710828344325726]","[1,1,1]","[0.08310055355650017,0.17130073503849488]","[1,1,1]","[-0.09102302459225488,0.06288414309456622]","[-1,-1,-1]","[0.17696138982039933,-0.07862651382536506]","[1,1,1]","[-0.10578639296272241,-0.12225760986030249]","[1,1,1]","[0.17270087803392115,0.08572974735870063]","[-1,-1,-1]","[-0.014436660515790454,-0.011313960322649492]","[1,1,1]","[-0.1574475112978055,-0.08647833979723474]","[1,1,1]","[-0.11303152845532258,-0.05628670786397107]","[1,1,1]","[0.1540145488346901,-0.12716622318041101]","[1,1,1]","[0.02782417085591977,-0.04718185730298603]","[1,1,1]","[0.1466747460651192,0.018677929508497636]","[1,1,1]","[-0.0608223513220837,-0.04519116038756102]","[1,1,1]","[-0.18099007231646044,-0.03789570595742088]","[1,1,1]","[-0.08187176813236884,0.18039355036430052]","[1,1,1]","[-0.14615954921882413,0.1363595628887819]","[1,1,1]","[0.0980429244004753,-0.11168890129871269]","[1,1,1]","[-0.08294115993826229,-0.006654042245846193]","[1,1,1]","[-0.0504656160461264,-0.14702169044453584]","[1,1,1]","[0.06154986114985101,-0.02149220207231183]","[1,1,1]","[-0.07515117709653807,-0.08268389801071786]","[1,1,1]","[0.01480576723444431,0.17777909433183983]","[1,1,1]","[0.1212733800183769,0.15397885176253687]","[1,1,1]","[-0.02329367710015279,-0.0819761419296849]","[1,1,1]","[0.02,0.02]",179.6416,0,1,1,204,1,,,,,,,
,,,,,,,6526a0e62c605cc42d9a52e4,682db39b28b0edef4571b5a8,2025-05-21_13h19.09.356,cuing_paradigm_dot,2024.1.5,Win32,5.452562704,682d556593cb38ad0a074487,,,,,,,,,,,179.6423,180.0458,,,180.2657,180.9283,left,0.439,,,,,,,,,0.1,,,,,,180.0461,180.2656,180.9283,"[-0.10181382800830908,-0.10293390433696373]","[-1,-1,-1]","[-0.1846309846157441,0.003199131055156969]","[-1,-1,-1]","[-0.1174110183782721,0.06430536114416453]","[-1,-1,-1]","[-0.027976135423803467,0.05903404883392249]","[-1,-1,-1]","[-0.08809701849756171,0.014981731468728285]","[-1,-1,-1]","[0.03703333845776507,-0.03622116499933597]","[-1,-1,-1]","[-0.11944047105060217,-0.05595154208458812]","[-1,-1,-1]","[0.11319274575568941,0.14283902774653365]","[-1,-1,-1]","[-0.027727267534991922,-0.12609774693852968]","[-1,-1,-1]","[0.08280738091230193,-0.12243205872159471]","[-1,-1,-1]","[0.06534904645695165,0.1575579957003761]","[1,1,1]","[-0.1337097042738424,0.1284637648151943]","[-1,-1,-1]","[0.035025597827053126,-0.08715181424736859]","[-1,-1,-1]","[0.10086242719843441,-0.169609781331067]","[-1,-1,-1]","[0.10044355117555281,-0.025881786354040145]","[-1,-1,-1]","[0.08064343325412111,-0.0748879061796603]","[-1,-1,-1]","[0.061800957301664856,0.033152837492613794]","[-1,-1,-1]","[-0.0342264089396835,-0.06149009454360037]","[-1,-1,-1]","[0.15657688450819238,0.12142373263170424]","[-1,-1,-1]","[0.12003077177915165,0.05827622668933161]","[-1,-1,-1]","[0.005404469088209274,-0.15232372514778353]","[-1,-1,-1]","[0.02374215801401834,0.11878734930570908]","[-1,-1,-1]","[-0.10046150684503666,-0.14879635064154634]","[-1,-1,-1]","[-0.18713461758384156,-0.05952587025046408]","[-1,-1,-1]","[-0.07467610483241177,0.17774280537875622]","[-1,-1,-1]","[-0.019066818765192957,-0.011014736622339337]","[-1,-1,-1]","[-0.0552244257005604,0.10003583441401709]","[1,1,1]","[-0.11744568005224257,-0.012997481644285313]","[1,1,1]","[0.023770635839116462,0.1924444213278223]","[-1,-1,-1]","[0.17799697864468703,0.05288895697591283]","[-1,-1,-1]","[-0.15830419194409875,-0.12094709219987707]","[-1,-1,-1]","[0.059720494613499396,-0.15841114937836076]","[-1,-1,-1]","[0.02,0.02]",181.9063,0,2,2,2,1,,,,,,,
,,,,,,,6526a0e62c605cc42d9a52e4,682db39b28b0edef4571b5a8,2025-05-21_13h19.09.356,cuing_paradigm_dot,2024.1.5,Win32,5.452562704,682d556593cb38ad0a074487,,,,,,,,,,,181.9068,182.2916,,,182.5047,183.5395,right,0.8401,,,,,,,,,0.5,,,,,,182.2918,182.5046,183.5395,"[0.0019201283656074953,0.006201366762030313]","[1,1,1]","[0.05628426430150209,0.16289549764896932]","[1,1,1]","[-0.0032252558534701086,0.05127237233161805]","[-1,-1,-1]","[-0.08434977002388803,-0.16838903227715576]","[-1,-1,-1]","[-0.1918988929107543,-0.04341326507674419]","[-1,-1,-1]","[0.11170190331969562,0.007805333675726528]","[1,1,1]","[0.04506925369473606,-0.057177089880649366]","[1,1,1]","[0.1545152835712075,-0.06566170528093816]","[1,1,1]","[0.08512603473834297,-0.08789488451671926]","[1,1,1]","[-0.10276403544504822,0.06271563759117081]","[1,1,1]","[-0.06628646193971806,0.017957945202551225]","[-1,-1,-1]","[-0.05476375624121442,-0.10375913016348401]","[1,1,1]","[0.0737443543312107,0.053980319786772965]","[1,1,1]","[-0.0858766228061035,-0.031710897766488964]","[-1,-1,-1]","[0.01055079024902374,0.16065206744615013]","[1,1,1]","[0.016620780431196924,-0.19368049255863623]","[-1,-1,-1]","[0.1902266509383652,-0.03797265313110914]","[1,1,1]","[-0.010569280476650648,-0.12772929638899322]","[-1,-1,-1]","[0.08669161156625349,-0.027919426157796357]","[1,1,1]","[0.14072642648144668,-0.023890337823300627]","[-1,-1,-1]","[-0.029285962216634046,-0.02986603961240386]","[1,1,1]","[-0.0372480044963067,0.17159864232696492]","[-1,-1,-1]","[0.032985888679315706,0.08970050286803499]","[1,1,1]","[0.07459758373150646,-0.14483803310216434]","[1,1,1]","[-0.04400480691567227,0.11395797752456627]","[-1,-1,-1]","[-0.14069573894447343,-0.021392452190653444]","[-1,-1,-1]","[-0.16346520390401395,0.07895861503578663]","[-1,-1,-1]","[0.032060762254990785,-0.13585727278396098]","[-1,-1,-1]","[0.002655038116235765,-0.06807334830563444]","[1,1,1]","[0.17986475597002946,0.044906976494501975]","[-1,-1,-1]","[-0.15099451328890978,-0.1279918803885174]","[-1,-1,-1]","[0.12970778560828883,0.14467393705835488]","[-1,-1,-1]","[0.02,0.02]",184.5708,0,3,3,108,1,,,,,,,
,,,,,,,6526a0e62c605cc42d9a52e4,682db39b28b0edef4571b5a8,2025-05-21_13h19.09.356,cuing_paradigm_dot,2024.1.5,Win32,5.452562704,682d556593cb38ad0a074487,,,,,,,,,,,184.5712,184.9545,,,185.1583,186.2237,left,0.8613,,,,,,,,,0.4,,,,,,184.9545,185.1583,186.2237,"[-0.136978937983477,-0.001998260329178383]","[1,1,1]","[0.024271176333532093,-0.10056291005417273]","[-1,-1,-1]","[-0.020736427617550596,-0.13373706409409278]","[-1,-1,-1]","[0.03163517455935464,0.08435898592407952]","[1,1,1]","[0.09953792282758131,-0.08249478270771612]","[-1,-1,-1]","[-0.08348652902545961,0.028033609568736875]","[-1,-1,-1]","[-0.11548152880838528,-0.13151458380241224]","[-1,-1,-1]","[-0.10433399728100058,0.08855655527453599]","[1,1,1]","[-0.018882594198235514,-0.05817397498203362]","[1,1,1]","[0.12351748080689783,-0.012010438772747807]","[-1,-1,-1]","[-0.16182997869630597,-0.07488695836370243]","[-1,-1,-1]","[0.11340295580228148,-0.12265765189559295]","[1,1,1]","[0.04887388512551531,-0.029511895102114435]","[1,1,1]","[-0.009872274121107682,0.10299037177494019]","[-1,-1,-1]","[-0.18749152997631205,0.06460962293559008]","[1,1,1]","[-0.10283709012228798,0.12992961208928056]","[-1,-1,-1]","[0.14406697232107374,0.023316275585746588]","[-1,-1,-1]","[0.1988592405193093,-0.014706549216117009]","[1,1,1]","[-0.06736826578733114,-0.014682771223521393]","[1,1,1]","[-0.11751153814796066,-0.0467696140233622]","[-1,-1,-1]","[-0.19601876356844206,0.000004324427581259576]","[1,1,1]","[0.05205723466609377,0.018407084313268852]","[1,1,1]","[-0.08599962055149982,-0.10436633222272154]","[-1,-1,-1]","[-0.05740302737709809,-0.16363217473874622]","[-1,-1,-1]","[0.0467696362247092,0.13168390875696379]","[-1,-1,-1]","[0.005316280317411867,0.15344746838375523]","[-1,-1,-1]","[0.049624498502847766,-0.14930486542796204]","[-1,-1,-1]","[0.14000955285438585,-0.08014428584456311]","[-1,-1,-1]","[0.007931713342296582,0.008213958716635968]","[-1,-1,-1]","[0.08692474703028802,0.11467195747687815]","[1,1,1]","[-0.030969107000557505,0.1866826623451711]","[-1,-1,-1]","[0.12831759863211636,0.14100614857026086]","[1,1,1]","[0.02,0.02]",187.2,0,4,4,33,1,,,,,,,
,,,,,,,6526a0e62c605cc42d9a52e4,682db39b28b0edef4571b5a8,2025-05-21_13h19.09.356,cuing_paradigm_dot,2024.1.5,Win32,5.452562704,682d556593cb38ad0a074487,,,,,,,,,,,187.2005,187.6141,,,187.8243,188.7128,right,0.6626,,,,,,,,,0.6,,,,,,187.6142,187.8241,188.7128,"[-0.15514046406678267,-0.029273329639337504]","[-1,-1,-1]","[0.09440056364386873,0.028111364393291153]","[-1,-1,-1]","[0.13377901022348376,-0.13002738047705678]","[1,1,1]","[0.01041090029504778,-0.16040921957807588]","[1,1,1]","[0.05629328187232163,-0.08452715704775496]","[1,1,1]","[-0.010926768364068341,0.05731667810607073]","[1,1,1]","[0.005031066014901118,-0.0263358019296284]","[-1,-1,-1]","[-0.0913432517501594,0.038357556454933606]","[-1,-1,-1]","[0.1852496421366485,0.07353291928698286]","[1,1,1]","[0.006343740064710124,-0.07177150530307594]","[1,1,1]","[0.12524345621155303,0.0933429970476566]","[1,1,1]","[-0.16905146199189844,0.08361832734211931]","[1,1,1]","[0.054235630975127604,0.09198378084573879]","[1,1,1]","[-0.16124067454939775,-0.08796645155469646]","[1,1,1]","[-0.09455348265897213,0.1549428655397622]","[1,1,1]","[-0.05026651767720539,0.15797474884538296]","[-1,-1,-1]","[-0.0785821529171276,-0.1475300810644384]","[-1,-1,-1]","[-0.002436900966540728,0.1706204728711651]","[-1,-1,-1]","[-0.07336080521649224,0.08914297079088596]","[1,1,1]","[0.16417199613368177,-0.09378505621607079]","[1,1,1]","[0.09431436177811474,-0.15520946681073108]","[-1,-1,-1]","[0.013232043549405962,0.0904456753037048]","[1,1,1]","[0.15504706094703788,-0.007727366387964316]","[-1,-1,-1]","[0.05894225209205294,-0.004788735221466179]","[-1,-1,-1]","[-0.1077945180015446,-0.03561400371599926]","[-1,-1,-1]","[-0.09549834662201728,-0.08513419502943817]","[-1,-1,-1]","[0.016230077159754403,0.014304778611686764]","[-1,-1,-1]","[-0.05497610042825032,-0.0006632922246408505]","[1,1,1]","[0.09624153779904264,-0.052704827289085786]","[1,1,1]","[-0.03410902879345014,-0.07979180498625404]","[1,1,1]","[0.054766279690364364,-0.16393185903608756]","[1,1,1]","[-0.12975389965078069,0.13464071843305145]","[1,1,1]","[0.02,0.02]",189.6919,0,5,5,152,1,,,,,,,
,,,,,,,6526a0e62c605cc42d9a52e4,682db39b28b0edef4571b5a8,2025-05-21_13h19.09.356,cuing_paradigm_dot,2024.1.5,Win32,5.452562704,682d556593cb38ad0a074487,,,,,,,,,,,189.6923,190.0782,,,190.2857,190.9105,right,0.4188,,,,,,,,,0.9,,,,,,190.0782,190.2856,190.9105,"[0.09415640724646618,-0.16313431053623126]","[1,1,1]","[0.185155237994349,-0.049941861475543185]","[1,1,1]","[0.1279745252314714,-0.03627546057549233]","[1,1,1]","[0.033157526338542506,-0.10969917013031152]","[1,1,1]","[-0.11605904676826861,-0.024009683720744183]","[1,1,1]","[-0.059239641417457634,0.11763176885216864]","[-1,-1,-1]","[-0.04061741225665719,-0.027541701095057273]","[1,1,1]","[-0.07217597530693168,0.041662058765896265]","[1,1,1]","[-0.13454795326349603,0.04699806016797607]","[1,1,1]","[0.010608063033547496,-0.039863642044551305]","[1,1,1]","[-0.10632762037410724,0.09938079111310334]","[-1,-1,-1]","[0.04894345113974379,-0.19145839000289971]","[1,1,1]","[0.12983342353196725,0.08549080191645406]","[1,1,1]","[0.08617131572450897,0.15924616159352856]","[1,1,1]","[-0.1194337448890295,-0.11806787503992414]","[-1,-1,-1]","[0.1863653564106594,0.031584273596843515]","[1,1,1]","[0.009106220122771727,-0.1954021094675185]","[1,1,1]","[0.009682766195687658,0.09222644680090246]","[1,1,1]","[-0.08160427441840172,0.16679171870454224]","[1,1,1]","[-0.15641826159392364,0.11261825290500192]","[1,1,1]","[0.08019197645411304,-0.06452552148161002]","[1,1,1]","[0.09279239935049818,0.05009949585818362]","[1,1,1]","[-0.045712551035740706,-0.15358010203197975]","[1,1,1]","[0.04605792179883966,0.00765846093648526]","[1,1,1]","[0.1330866553553067,-0.11719051487518298]","[1,1,1]","[0.13310263334396524,0.02577127076043612]","[1,1,1]","[-0.02067316255072525,0.13070263915833147]","[1,1,1]","[-0.15113646282274362,-0.07905469830099744]","[1,1,1]","[0.008417091785451563,0.0433437262366322]","[1,1,1]","[-0.03264999110309028,-0.07269432387667274]","[1,1,1]","[0.03331446616418689,0.1804263218839465]","[1,1,1]","[-0.149917707992423,0.009268754753744177]","[1,1,1]","[0.02,0.02]",192.0614,0,6,6,184,1,,,,,,,
,,,,,,,6526a0e62c605cc42d9a52e4,682db39b28b0edef4571b5a8,2025-05-21_13h19.09.356,cuing_paradigm_dot,2024.1.5,Win32,5.452562704,682d556593cb38ad0a074487,,,,,,,,,,,192.0621,192.4602,,,192.665,193.2866,left,0.4238,,,,,,,,,0.1,,,,,,192.4602,192.665,193.2867,"[0.0677613426846655,0.050820373221116114]","[-1,-1,-1]","[-0.08374420405329785,-0.13203054104290238]","[-1,-1,-1]","[0.0009445371408395635,0.03377078968162037]","[1,1,1]","[0.07101372032774751,-0.18156950635866353]","[-1,-1,-1]","[-0.04632829117570097,0.14476722608767426]","[-1,-1,-1]","[0.09045291886858536,0.16659910067719522]","[-1,-1,-1]","[0.10764464220718696,0.018388583930092836]","[-1,-1,-1]","[0.08593899602157676,-0.1370508836211501]","[-1,-1,-1]","[-0.051448927472303875,-0.09959502822365406]","[-1,-1,-1]","[0.0556062616121604,-0.03866007736464136]","[-1,-1,-1]","[0.1204166169611671,0.12173896354225917]","[-1,-1,-1]","[0.1827401910785576,0.028903809847918162]","[-1,-1,-1]","[-0.1584558070942824,0.018144286761355037]","[-1,-1,-1]","[0.036860417603156934,0.16599125727953443]","[-1,-1,-1]","[0.10299975991740033,-0.0601790208061943]","[-1,-1,-1]","[-0.13265840740436585,-0.11828228691872128]","[-1,-1,-1]","[-0.10642481906363452,0.12899399546915077]","[-1,-1,-1]","[-0.10245154648960018,-0.03442079574372058]","[-1,-1,-1]","[-0.11571109255641751,0.053702810673740005]","[-1,-1,-1]","[-0.00912181354007968,0.18161767907519072]","[-1,-1,-1]","[-0.04340813441273668,0.03375585881479794]","[-1,-1,-1]","[-0.1671451413456638,-0.09138983108612003]","[-1,-1,-1]","[0.1604640577772929,0.085052854865059]","[-1,-1,-1]","[-0.05350705293577088,-0.18774572919731639]","[1,1,1]","[-0.18195337339372633,0.06350103217380325]","[-1,-1,-1]","[0.12676976918153973,-0.11253372241764904]","[-1,-1,-1]","[0.16307275395041498,-0.034872537057069546]","[1,1,1]","[0.06896700645127903,0.11177853665621855]","[-1,-1,-1]","[0.04496306718421449,-0.0790223442942445]","[-1,-1,-1]","[-0.07246605463838059,0.18096458475410435]","[-1,-1,-1]","[-0.1617478813619078,-0.035420936690038006]","[-1,-1,-1]","[-0.06084428015226891,-0.041296990237169255]","[-1,-1,-1]","[0.02,0.02]",194.3252,0,7,7,22,1,,,,,,,
,,,,,,,6526a0e62c605cc42d9a52e4,682db39b28b0edef4571b5a8,2025-05-21_13h19.09.356,cuing_paradigm_dot,2024.1.5,Win32,5.452562704,682d556593cb38ad0a074487,,,,,,,,,,,194.3258,194.7106,,,194.9175,195.7877,right,0.6637,,,,,,,,,0.6,,,,,,194.7107,194.9175,195.7877,"[0.16059249340652054,-0.10102421184990278]","[1,1,1]","[0.11266940929623498,-0.03545302417062661]","[-1,-1,-1]","[-0.08171046653677548,-0.11704712831143374]","[1,1,1]","[0.03146234066560255,-0.06554911160611551]","[-1,-1,-1]","[-0.13963190067928322,-0.1318070469761142]","[1,1,1]","[0.09311387356994168,0.05611198832716924]","[1,1,1]","[0.048773776903605646,-0.13707734774202632]","[1,1,1]","[-0.13395542593978219,0.12536714604041116]","[1,1,1]","[0.07137721834749441,-0.07597023566591565]","[-1,-1,-1]","[-0.04900185141276634,-0.14670541828930378]","[-1,-1,-1]","[-0.0035986775081356124,0.08261407327973697]","[1,1,1]","[0.1337696200030467,0.10122513849546728]","[-1,-1,-1]","[0.11279786932650061,-0.09958843891676011]","[-1,-1,-1]","[0.037625292357747156,0.16080452905209364]","[-1,-1,-1]","[0.046010852792139734,0.05002623007069655]","[1,1,1]","[-0.17048668508981307,0.03388409078916227]","[-1,-1,-1]","[-0.006824538131105425,-0.10072797993987509]","[-1,-1,-1]","[0.18920779689865946,-0.03498662448365792]","[1,1,1]","[-0.023902265155051797,-0.18207787239299683]","[1,1,1]","[-0.025322649381960712,0.16154628251398814]","[1,1,1]","[-0.09266396027909145,0.0020834472568970514]","[-1,-1,-1]","[0.06803169521401495,-0.02632024937801312]","[1,1,1]","[-0.03930954333989262,0.012168572801524221]","[1,1,1]","[-0.13190599896350935,-0.04768312881420505]","[-1,-1,-1]","[-0.02997694558508849,-0.03701577281004568]","[1,1,1]","[0.09284416501352503,0.11055802408780858]","[1,1,1]","[0.17084978630987663,0.01433035604712553]","[1,1,1]","[0.048671289688263286,-0.1913798004011293]","[-1,-1,-1]","[-0.07326141851658562,0.09034837299040306]","[1,1,1]","[0.082039896544559,0.16655576465045852]","[-1,-1,-1]","[-0.06254104171238524,0.18661007818355813]","[1,1,1]","[0.17602091999490885,0.07305355113049052]","[1,1,1]","[0.02,0.02]",196.7833,0,8,8,158,1,,,,,,,
,,,,,,,6526a0e62c605cc42d9a52e4,682db39b28b0edef4571b5a8,2025-05-21_13h19.09.356,cuing_paradigm_dot,2024.1.5,Win32,5.452562704,682d556593cb38ad0a074487,,,,,,,,,,,196.7837,197.1684,,,197.377,198.2387,right,0.6555,,,,,,,,,0.4,,,,,,197.1684,197.377,198.2388,"[-0.12220437634404512,0.1558638950373972]","[-1,-1,-1]","[0.04756845970201272,0.028806763113635045]","[-1,-1,-1]","[0.03325652582940826,-0.06565692213179346]","[-1,-1,-1]","[0.0407635735942297,0.1448760526869427]","[1,1,1]","[0.15510260362661812,-0.12432499827605495]","[1,1,1]","[-0.0977465147858137,0.05235360498617912]","[-1,-1,-1]","[-0.16394458745276158,0.10129487824611004]","[1,1,1]","[-0.08002409238754837,-0.13308618169800437]","[-1,-1,-1]","[-0.029429412390293598,-0.12629205591093567]","[-1,-1,-1]","[-0.18596239343545193,-0.04003029116704341]","[1,1,1]","[0.001941033956546673,-0.18262329224651003]","[1,1,1]","[0.11213003877664018,-0.028428999870354608]","[-1,-1,-1]","[-0.021346057755892652,0.04708191458591523]","[-1,-1,-1]","[-0.0015915721873197,-0.009333055938641527]","[-1,-1,-1]","[0.0659810363198241,-0.14152725027697746]","[-1,-1,-1]","[-0.12049648555365756,-0.12333993144726076]","[-1,-1,-1]","[-0.005399268090244718,0.1455554319167853]","[1,1,1]","[-0.06756696691860943,-0.06693670110296397]","[1,1,1]","[0.14223127587256312,0.11708844690060528]","[1,1,1]","[-0.10897859030385142,-0.040080498568255365]","[-1,-1,-1]","[0.18923457757588885,-0.0383381634098016]","[-1,-1,-1]","[0.0607332921535386,0.08846597412591119]","[1,1,1]","[0.11494629007950623,-0.12938136155634242]","[1,1,1]","[-0.03097408335538465,0.08876887834473117]","[-1,-1,-1]","[0.15534868813175245,-0.07939350128941498]","[1,1,1]","[-0.08055248457668326,0.14665621454705433]","[-1,-1,-1]","[-0.06335952204604776,-0.02235253174057192]","[-1,-1,-1]","[0.025199841193070352,-0.1352790361546987]","[1,1,1]","[0.18280311261027332,0.06432755787549159]","[-1,-1,-1]","[-0.16868344325944828,0.04426338511246121]","[-1,-1,-1]","[0.09423347944485741,-0.07859084641086464]","[1,1,1]","[0.13562086207362495,0.0618649625974995]","[-1,-1,-1]","[0.02,0.02]",199.22,0,9,9,35,1,,,,,,,
,,,,,,,6526a0e62c605cc42d9a52e4,682db39b28b0edef4571b5a8,2025-05-21_13h19.09.356,cuing_paradigm_dot,2024.1.5,Win32,5.452562704,682d556593cb38ad0a074487,,,,,,,,,,,199.2204,199.6199,,,199.8201,200.4705,left,0.4582,,,,,,,,,0.45,,,,,,199.62,199.8201,200.4706,"[0.1705076271811378,-0.007462387450379823]","[-1,-1,-1]","[-0.01220654873976604,0.009160119946047443]","[-1,-1,-1]","[0.15441377019199184,-0.06342932778950984]","[-1,-1,-1]","[0.07817075480846647,-0.07258110865567184]","[1,1,1]","[-0.07194557721687166,-0.11652314353231646]","[-1,-1,-1]","[-0.08146089079812052,-0.016245576417859762]","[-1,-1,-1]","[0.16308563421687391,0.08271899984558971]","[-1,-1,-1]","[0.0004994332259173386,-0.14450280716021172]","[1,1,1]","[-0.09993507236376765,-0.14790570108708256]","[-1,-1,-1]","[0.043921440639371714,-0.03774223675487473]","[1,1,1]","[0.1109885474776835,-0.04134274629665015]","[-1,-1,-1]","[-0.12737695693329193,-0.001843784433376775]","[1,1,1]","[-0.0923741561951623,0.15226998247168222]","[-1,-1,-1]","[0.08364205846809215,0.006501525269000497]","[-1,-1,-1]","[0.12524383243515916,-0.14233174888649416]","[1,1,1]","[-0.18932269430226825,0.03437358432441198]","[1,1,1]","[0.19151494659141163,0.050663438557614855]","[-1,-1,-1]","[-0.06425236972059434,0.0521656964376682]","[-1,-1,-1]","[0.03749630947979303,-0.10119082158184556]","[-1,-1,-1]","[0.12263073200268099,0.12394991001176106]","[-1,-1,-1]","[-0.11219356550986423,0.03984808325049043]","[1,1,1]","[-0.15630414813738122,-0.07290208390147623]","[1,1,1]","[0.004128192614353272,0.19778725928197385]","[-1,-1,-1]","[-0.005223895498830503,0.12670349133651587]","[1,1,1]","[-0.09323682778833375,0.09822577691152157]","[1,1,1]","[0.051941117980129306,0.06225920727595356]","[1,1,1]","[-0.02166900254214812,-0.08463463177613202]","[1,1,1]","[-0.1722006500338263,0.08869680280456398]","[-1,-1,-1]","[0.052371196831550275,0.18371875896980233]","[-1,-1,-1]","[0.07935630024131553,0.15149655454805708]","[1,1,1]","[-0.033979724423392144,-0.029272274110274103]","[1,1,1]","[-0.03522813381849098,0.18066441044235282]","[-1,-1,-1]","[0.02,0.02]",201.464,0,10,10,69,1,,,,,,,
,,,,,,,6526a0e62c605cc42d9a52e4,682db39b28b0edef4571b5a8,2025-05-21_13h19.09.356,cuing_paradigm_dot,2024.1.5,Win32,5.452562704,682d556593cb38ad0a074487,,,,,,,,,,,201.4644,201.8518,,,202.0542,203.0887,right,0.8243,,,,,,,,,0.6,,,,,,201.8519,202.0542,203.0888,"[-0.11684871166050485,0.008886231863510279]","[1,1,1]","[-0.08328844197511086,0.16912835933177192]","[-1,-1,-1]","[-0.15233143931545332,-0.09062847428386338]","[-1,-1,-1]","[0.06810221994856294,0.022285614794390403]","[-1,-1,-1]","[-0.13682651110419067,0.10875798269252088]","[1,1,1]","[0.04792654755964205,-0.037581071990995196]","[1,1,1]","[0.09249724759578881,0.11102853331571823]","[1,1,1]","[0.020516537749311736,0.030895953789875526]","[1,1,1]","[0.14906593973984428,-0.06644618234362612]","[1,1,1]","[-0.035405204689994675,0.03934476568599093]","[-1,-1,-1]","[0.15162646497428095,0.0042290718356285135]","[1,1,1]","[-0.04358934150830734,0.09809837762573616]","[-1,-1,-1]","[-0.024352929918807446,-0.09026036001148414]","[-1,-1,-1]","[0.1920914705298539,-0.044425212974325154]","[1,1,1]","[-0.07335958810250263,-0.0302416879631326]","[1,1,1]","[0.015280236952542867,0.13370005254018502]","[-1,-1,-1]","[0.018448518939137327,-0.01023113470984563]","[-1,-1,-1]","[0.13267830498532251,0.12405760991190355]","[1,1,1]","[0.1475332536139318,0.05837959744859286]","[1,1,1]","[-0.18956159741245002,-0.022953412486467893]","[1,1,1]","[0.017250031670759596,-0.06826393851025833]","[-1,-1,-1]","[-0.0014776719007165604,-0.16055774587497562]","[1,1,1]","[-0.07078518621436004,-0.09781791949166226]","[1,1,1]","[-0.10604769434228603,0.07218467129486496]","[1,1,1]","[0.03292364771544669,-0.12172057717969997]","[-1,-1,-1]","[-0.12585387932212333,-0.046269799507360126]","[-1,-1,-1]","[0.017011867216031047,0.1789404405739695]","[1,1,1]","[-0.18112781673868433,0.038459828109764505]","[1,1,1]","[-0.038235416652962255,0.14724502832672737]","[1,1,1]","[0.10611212522072448,-0.1107080852251133]","[-1,-1,-1]","[0.11212523764555088,-0.04019527601422049]","[-1,-1,-1]","[0.06887709481344703,-0.16214794938492413]","[1,1,1]","[0.02,0.02]",204.0574,0,11,11,169,1,,,,,,,
,,,,,,,6526a0e62c605cc42d9a52e4,682db39b28b0edef4571b5a8,2025-05-21_13h19.09.356,cuing_paradigm_dot,2024.1.5,Win32,5.452562704,682d556593cb38ad0a074487,,,,,,,,,,,204.0579,204.4566,,,204.6541,205.4993,left,0.6379,,,,,,,,,0.6,,,,,,204.4567,204.6541,205.4994,"[0.07761269904234959,-0.16416102883622977]","[-1,-1,-1]","[0.08598623312914427,0.09810323379075353]","[1,1,1]","[0.0371376853505966,-0.13978802270603835]","[-1,-1,-1]","[-0.029097750125178855,0.024561256016813377]","[1,1,1]","[-0.10362314568483356,-0.16974545320534692]","[-1,-1,-1]","[0.1646055537784565,0.07670883307574447]","[1,1,1]","[-0.15781647678015287,0.07293025314182773]","[-1,-1,-1]","[-0.002771377604053242,0.15367290787939492]","[-1,-1,-1]","[-0.05254081657930308,-0.14147316411141278]","[1,1,1]","[-0.06497442907376841,-0.061081129375810735]","[1,1,1]","[-0.11644273742726376,0.022434678762800715]","[1,1,1]","[-0.04877225620303302,0.11557485170701116]","[1,1,1]","[0.04436663741879771,-0.0020848232535306105]","[-1,-1,-1]","[0.09470948967539417,0.05485548128893931]","[1,1,1]","[-0.04893686196608668,0.16222800883085783]","[-1,-1,-1]","[0.07397362159268771,-0.09487585827339147]","[-1,-1,-1]","[0.041267406085621586,0.18001383958667078]","[-1,-1,-1]","[-0.11111640075905274,-0.02866087471974716]","[1,1,1]","[0.021012289919708084,-0.04842195786883086]","[1,1,1]","[-0.06860488855526221,-0.003485347285988615]","[1,1,1]","[-0.18902492299145232,0.03331531016705095]","[1,1,1]","[0.0702694072204704,0.1369094717496119]","[-1,-1,-1]","[-0.1772289510270458,-0.010315621251706673]","[-1,-1,-1]","[0.0398043859380734,0.06614505514107916]","[-1,-1,-1]","[-0.008359435682819034,0.10568524997109652]","[1,1,1]","[0.15092368297253003,0.12936672308101954]","[1,1,1]","[0.16111990340816823,-0.05548016038962021]","[1,1,1]","[0.17870136439922218,-0.01764873360818802]","[1,1,1]","[-0.052556873284392576,-0.18697968806615803]","[1,1,1]","[-0.11037105929935695,0.06507852271999119]","[1,1,1]","[-0.17368292601557767,-0.06704717810254916]","[1,1,1]","[0.006911080664111824,-0.09482992633763562]","[-1,-1,-1]","[0.02,0.02]",206.506,0,12,12,161,1,,,,,,,
,,,,,,,6526a0e62c605cc42d9a52e4,682db39b28b0edef4571b5a8,2025-05-21_13h19.09.356,cuing_paradigm_dot,2024.1.5,Win32,5.452562704,682d556593cb38ad0a074487,,,,,,,,,,,206.5065,206.9059,,,207.1123,207.9728,right,0.652,,,,,,,,,0.6,,,,,,206.9059,207.1122,207.973,"[-0.01781151485871297,0.03365965431497176]","[-1,-1,-1]","[0.06870098225875369,-0.17983402535544296]","[-1,-1,-1]","[0.10289660992635792,0.10637909344668092]","[1,1,1]","[-0.09957076587611788,0.11932144643718269]","[1,1,1]","[0.17660205143849622,-0.01928726052818237]","[-1,-1,-1]","[0.028386367399439213,0.026979003142307473]","[1,1,1]","[-0.024336866321319442,-0.046847030750142044]","[-1,-1,-1]","[0.04819469258061874,0.0702766200773907]","[-1,-1,-1]","[-0.04625407235224468,0.07378266574305646]","[1,1,1]","[0.02371284134030795,-0.1411696382956582]","[-1,-1,-1]","[0.14493885588517547,-0.05875475523792141]","[1,1,1]","[-0.18186693914329444,0.05291468183227488]","[-1,-1,-1]","[-0.17658114001335834,-0.08561980648578074]","[1,1,1]","[-0.11774778862148795,-0.05970758966252595]","[1,1,1]","[0.011140793879069513,0.186066460698367]","[1,1,1]","[-0.12568985144983003,0.06218885147764528]","[1,1,1]","[0.12532567374848505,0.05695162344370446]","[1,1,1]","[0.02760287584554158,0.10765598145112384]","[1,1,1]","[-0.06621112661142245,-0.15447841428288217]","[-1,-1,-1]","[-0.01790660933431307,-0.19835125561096623]","[-1,-1,-1]","[-0.12443305566157849,-0.12676579358940837]","[-1,-1,-1]","[-0.05122816592786498,-0.10721520814061794]","[1,1,1]","[-0.09233626406855659,-0.006886409753188544]","[1,1,1]","[0.1656142852492889,0.033714349197239674]","[-1,-1,-1]","[-0.050335533241649716,-0.006465721886811126]","[1,1,1]","[0.0036427373814043582,-0.0806565226011851]","[1,1,1]","[-0.13224468609073087,0.0012045059076540177]","[-1,-1,-1]","[-0.0765202399627422,-0.07251091882712148]","[1,1,1]","[0.10154846601846139,-0.10940540212060779]","[1,1,1]","[0.07855507969078021,-0.04113829990324101]","[-1,-1,-1]","[0.06668516888948887,0.012494331322020654]","[1,1,1]","[-0.15567169629344904,0.1013008140818218]","[1,1,1]","[0.02,0.02]",208.9938,0,13,13,166,1,,,,,,,
,,,,,,,6526a0e62c605cc42d9a52e4,682db39b28b0edef4571b5a8,2025-05-21_13h19.09.356,cuing_paradigm_dot,2024.1.5,Win32,5.452562704,682d556593cb38ad0a074487,,,,,,,,,,,208.9945,209.4129,,,209.6362,210.463,right,0.6284,,,,,,,,,0.6,,,,,,209.413,209.6362,210.463,"[0.11717855704117998,0.08941857992906567]","[-1,-1,-1]","[0.1492114600880887,0.023382324747607285]","[1,1,1]","[-0.0004968847972742592,0.17298240241591836]","[1,1,1]","[-0.023991983726217216,0.1290318157429714]","[1,1,1]","[0.08551730525612657,-0.112779513143622]","[-1,-1,-1]","[-0.08242305614155976,-0.020200286979606397]","[1,1,1]","[0.04289684282587188,-0.016904762390372082]","[1,1,1]","[-0.006047355626358205,-0.061334519913613834]","[-1,-1,-1]","[0.07636185931199907,0.17967894265302076]","[-1,-1,-1]","[0.019566686196524775,0.10801235992999332]","[1,1,1]","[0.15432711264337334,-0.11820300202566596]","[-1,-1,-1]","[-0.09827569204800883,-0.14235538728806213]","[1,1,1]","[-0.1498944957121058,-0.07941842713650248]","[-1,-1,-1]","[0.044049761814082544,-0.1166664601918115]","[1,1,1]","[0.09859045672214181,-0.04385106921429226]","[-1,-1,-1]","[-0.10275000791446123,0.14507026461981665]","[-1,-1,-1]","[-0.11277158217472805,0.009402790267346943]","[-1,-1,-1]","[0.05794865961359906,-0.16699687588187917]","[1,1,1]","[-0.19921468284403573,0.013673806848157201]","[-1,-1,-1]","[-0.06496704013792054,-0.18683701276061854]","[1,1,1]","[0.1532402930254576,0.11270707511595313]","[-1,-1,-1]","[-0.1803961340119668,0.07382813596206116]","[1,1,1]","[0.057455640370888066,0.07729704933763265]","[1,1,1]","[0.10299725142548975,0.13686887294012537]","[1,1,1]","[-0.16675083382471928,-0.018979073450512172]","[1,1,1]","[-0.0826814077317574,-0.08539697962977058]","[1,1,1]","[-0.017177268695463894,0.04255329228715284]","[1,1,1]","[-0.10062033226985091,0.0756085651815993]","[-1,-1,-1]","[-0.028670972720690576,-0.13079616116600276]","[1,1,1]","[-0.15478581459341484,-0.12639065678481062]","[1,1,1]","[-0.003240385227434792,-0.18603812559591215]","[-1,-1,-1]","[0.10068973212595612,-0.1597853357679259]","[1,1,1]","[0.02,0.02]",211.4342,0,14,14,172,1,,,,,,,
,,,,,,,6526a0e62c605cc42d9a52e4,682db39b28b0edef4571b5a8,2025-05-21_13h19.09.356,cuing_paradigm_dot,2024.1.5,Win32,5.452562704,682d556593cb38ad0a074487,,,,,,,,,,,211.4347,211.8241,,,212.0293,212.8707,left,0.6376,,,,,,,,,0.4,,,,,,211.8242,212.0292,212.8708,"[-0.06492370820400262,-0.06349902787695079]","[1,1,1]","[-0.043999120527475497,0.051357593372334885]","[1,1,1]","[0.08647699884785119,-0.12593697642085686]","[-1,-1,-1]","[-0.015913248273413328,0.11311350284610082]","[1,1,1]","[0.04861003888906155,-0.19005319234786444]","[1,1,1]","[0.0859743590863602,0.1339820573341463]","[-1,-1,-1]","[-0.14678658597676253,0.04930354876829865]","[1,1,1]","[-0.006744036937223109,-0.11440717223810247]","[-1,-1,-1]","[0.020387572069298348,0.03713545768615723]","[-1,-1,-1]","[0.15298394289104364,-0.061031440830260485]","[-1,-1,-1]","[-0.07040495830245702,-0.0022458414436435396]","[-1,-1,-1]","[-0.002726164807649896,-0.021157628619674074]","[-1,-1,-1]","[-0.12108190893222694,0.13696309733791134]","[1,1,1]","[-0.10838871148389174,-0.15425472343800706]","[1,1,1]","[0.047375946945891256,0.17659307944913352]","[1,1,1]","[-0.03306650327802487,-0.18740326846198968]","[-1,-1,-1]","[0.09033771274039015,-0.037962515938594]","[-1,-1,-1]","[0.15973298381129128,0.05032474253971716]","[-1,-1,-1]","[0.10129113425872863,0.07670815278614172]","[1,1,1]","[0.12129056330657563,0.011375403208084677]","[-1,-1,-1]","[-0.11358376502177406,0.07169450107462493]","[-1,-1,-1]","[-0.029730713378896365,0.012957965314202038]","[1,1,1]","[-0.17770729383565176,0.005457251308973658]","[-1,-1,-1]","[0.03290565995441937,-0.04565153882506725]","[1,1,1]","[0.1530479406256031,-0.013504886072724029]","[-1,-1,-1]","[0.163236228989334,0.10000983356927441]","[1,1,1]","[-0.10918201589327493,-0.025397187400417975]","[-1,-1,-1]","[-0.18653659458138566,-0.033774000558424166]","[-1,-1,-1]","[0.06897863511473164,0.04028701437001737]","[-1,-1,-1]","[-0.09585233425671227,-0.09300978237671188]","[1,1,1]","[-0.15429341438239397,-0.11975057701474978]","[-1,-1,-1]","[-0.07839058132028101,0.1273266428406214]","[-1,-1,-1]","[0.02,0.02]",213.8827,0,15,15,39,1,,,,,,,
,,,,,,,6526a0e62c605cc42d9a52e4,682db39b28b0edef4571b5a8,2025-05-21_13h19.09.356,cuing_paradigm_dot,2024.1.5,Win32,5.452562704,682d556593cb38ad0a074487,,,,,,,,,,,213.8832,214.2767,,,214.4702,215.526,right,0.8556,0.0004,,,,,,,,0.55,,,,,,214.2768,214.4702,215.526,"[-0.014311604143585687,0.0734096806161044]","[-1,-1,-1]","[-0.005330135219357009,-0.11036591636019018]","[1,1,1]","[0.1509857377065349,-0.09762153228932026]","[-1,-1,-1]","[0.03798930921258479,0.17293105618619503]","[1,1,1]","[0.10543671321811961,-0.10592377254448382]","[1,1,1]","[-0.1002169038137821,0.11396405479301427]","[-1,-1,-1]","[0.11926543071210037,0.06708039426710596]","[1,1,1]","[-0.09292119568965791,0.0293062012729291]","[-1,-1,-1]","[-0.11465410649286785,0.06588254535844958]","[1,1,1]","[-0.0835572901293111,-0.059055284434084726]","[-1,-1,-1]","[0.1533647000274189,0.1209880998899948]","[1,1,1]","[-0.021155354685297213,-0.0039020331475397864]","[1,1,1]","[-0.047553579675563146,0.1501342554336212]","[-1,-1,-1]","[-0.00484614995074748,0.12049108087717614]","[1,1,1]","[0.15557442621791187,-0.0033943827305590577]","[1,1,1]","[0.18224074951739075,-0.036185128822078236]","[1,1,1]","[0.04600199653260178,0.05809144007694191]","[1,1,1]","[0.10323470926687467,0.024942565614237574]","[-1,-1,-1]","[-0.1456644083643299,0.021073574178004987]","[-1,-1,-1]","[-0.08497496551147232,-0.103664778799279]","[1,1,1]","[0.10457194791127429,-0.02015840170775227]","[-1,-1,-1]","[-0.05714839995918627,0.08135202323977028]","[-1,-1,-1]","[-0.1857179115990356,0.01379163924413602]","[-1,-1,-1]","[0.040555591867873456,-0.13251727107291736]","[-1,-1,-1]","[-0.15624799349481094,0.11418013783044319]","[-1,-1,-1]","[0.059451397368276385,-0.08046591348379872]","[1,1,1]","[-0.14442561562040304,-0.10088859227218916]","[1,1,1]","[-0.001680354395898531,-0.16060392104886814]","[1,1,1]","[0.009611756770686321,0.032101393028327874]","[-1,-1,-1]","[0.04898697924470521,0.09955053225888064]","[1,1,1]","[0.04366516734260199,-0.02083568607176157]","[1,1,1]","[0.1649728611871451,0.07549589571548382]","[1,1,1]","[0.02,0.02]",216.5093,0,16,16,130,1,,,,,,,
,,,,,,,6526a0e62c605cc42d9a52e4,682db39b28b0edef4571b5a8,2025-05-21_13h19.09.356,cuing_paradigm_dot,2024.1.5,Win32,5.452562704,682d556593cb38ad0a074487,,,,,,,,,,,216.5097,216.906,,,217.1039,218.1398,left,0.8406,,,,,,,,,0.1,,,,,,216.906,217.1038,218.1398,"[0.029515945345449903,0.021637042331419595]","[-1,-1,-1]","[-0.011519957752815438,-0.12947661580698638]","[-1,-1,-1]","[-0.10813807552409878,-0.0009860406788173692]","[-1,-1,-1]","[-0.17284990323012558,-0.09157033786300119]","[-1,-1,-1]","[0.16657687221387113,-0.0538213447609107]","[-1,-1,-1]","[0.1482855131181387,-0.10674437058766066]","[-1,-1,-1]","[-0.14886606059673999,0.014570492058401873]","[-1,-1,-1]","[0.10597063797493433,-0.09909488944022359]","[-1,-1,-1]","[-0.06849783819581744,-0.1285832808643429]","[1,1,1]","[-0.058935387174493876,-0.003376342753475237]","[-1,-1,-1]","[-0.06420780055809677,0.12999159224615497]","[-1,-1,-1]","[0.0017031113176479932,-0.023885144143090734]","[-1,-1,-1]","[0.1040201825436537,0.007857066682678557]","[-1,-1,-1]","[0.06355818742626929,-0.16379174455081938]","[-1,-1,-1]","[-0.04418716302184938,0.09344234548208227]","[-1,-1,-1]","[0.0912518936180212,0.17363197728511337]","[-1,-1,-1]","[-0.08291517542364182,0.04420891746676384]","[-1,-1,-1]","[0.10754823406668922,0.09739624172142641]","[-1,-1,-1]","[0.05027638255548664,0.15285537019667442]","[-1,-1,-1]","[-0.15558778028138048,-0.05191083246824552]","[1,1,1]","[0.07035988834800085,0.0803989490339288]","[-1,-1,-1]","[-0.11007663821170689,0.11076004592804807]","[-1,-1,-1]","[-0.18207673935844113,0.045507163620659784]","[-1,-1,-1]","[-0.1216761870450487,-0.13558689528652382]","[-1,-1,-1]","[0.16383393565964344,0.059490243979812514]","[-1,-1,-1]","[-0.038584819806977484,-0.15999163203910968]","[-1,-1,-1]","[0.15825242272554355,0.010117769220300455]","[1,1,1]","[-0.16730910603644716,0.0925067498316304]","[-1,-1,-1]","[0.053940558948658145,-0.02201617454648836]","[-1,-1,-1]","[-0.10322363499423907,-0.08287829591445096]","[-1,-1,-1]","[0.07396076917020084,0.034482544640038394]","[-1,-1,-1]","[-0.052262028578725125,-0.07786168834459362]","[-1,-1,-1]","[0.02,0.02]",219.1286,0,17,17,13,1,,,,,,,
,,,,,,,6526a0e62c605cc42d9a52e4,682db39b28b0edef4571b5a8,2025-05-21_13h19.09.356,cuing_paradigm_dot,2024.1.5,Win32,5.452562704,682d556593cb38ad0a074487,,,,,,,,,,,219.129,219.5203,,,219.7247,220.7916,right,0.8714,,,,,,,,,0.5,,,,,,219.5203,219.7246,220.7917,"[-0.030919098750177173,-0.10674674252197348]","[1,1,1]","[0.11063960332658411,-0.1257388209440287]","[-1,-1,-1]","[-0.08217738414186748,0.09857203904762128]","[1,1,1]","[-0.168228636516114,0.09124560178928967]","[-1,-1,-1]","[-0.04307153879329656,0.04134060676066187]","[1,1,1]","[-0.17304984709111398,0.007721674635729708]","[1,1,1]","[0.17219146678273564,0.08513299056305414]","[-1,-1,-1]","[-0.12487855928075574,0.1308215110538923]","[1,1,1]","[0.11204720389490952,0.11009363855213844]","[-1,-1,-1]","[-0.05695246502560218,-0.02026535781897238]","[1,1,1]","[0.07801265580675738,-0.02878991397906379]","[-1,-1,-1]","[0.061679872530057536,-0.10117860534906989]","[1,1,1]","[-0.015102198363439874,-0.06613510261492998]","[1,1,1]","[0.0017314289935049562,-0.14990232956574454]","[1,1,1]","[-0.00506165932751716,0.06025200291231785]","[1,1,1]","[-0.13892673323021248,-0.07356612643443637]","[-1,-1,-1]","[-0.10349990627687829,0.0567055818219795]","[1,1,1]","[0.031526904437980376,-0.03547884731154624]","[1,1,1]","[0.004640133265965604,0.12311271090607087]","[-1,-1,-1]","[0.046776732307372886,0.1127674644979856]","[-1,-1,-1]","[0.10866104692455851,0.002845453681823841]","[-1,-1,-1]","[0.15331001912546752,0.0028279197986753506]","[-1,-1,-1]","[-0.08359237100053428,0.15947047931994662]","[-1,-1,-1]","[-0.10907486947947931,-0.1373611755203142]","[1,1,1]","[-0.04632306541466037,0.19111804915539482]","[-1,-1,-1]","[0.09499220023184485,-0.16491854272648016]","[1,1,1]","[0.06347395608672336,0.036160422122873556]","[1,1,1]","[0.17235844110979157,-0.0937339683959784]","[-1,-1,-1]","[0.02788917401248385,0.15897648550974422]","[-1,-1,-1]","[0.1273884732026735,0.15042492233359983]","[-1,-1,-1]","[0.11226646218302448,0.042928208527830296]","[-1,-1,-1]","[-0.13319281920134515,-0.02459851475371771]","[1,1,1]","[0.02,0.02]",221.79,0,18,18,102,1,,,,,,,
,,,,,,,6526a0e62c605cc42d9a52e4,682db39b28b0edef4571b5a8,2025-05-21_13h19.09.356,cuing_paradigm_dot,2024.1.5,Win32,5.452562704,682d556593cb38ad0a074487,,,,,,,,,,,221.7905,222.17,,,222.3773,223.4192,right,0.8379,0.0006,,,,,,,,0.5,,,,,,222.17,222.3773,223.4193,"[-0.10544054293424479,-0.02768077265264408]","[1,1,1]","[0.05644800659675081,-0.087733875280636]","[-1,-1,-1]","[-0.13119808438875136,0.024162106978036876]","[-1,-1,-1]","[0.10122434027573479,-0.07975955680518074]","[1,1,1]","[-0.17766397080079172,-0.05807648113461819]","[-1,-1,-1]","[0.044251948373666486,-0.13830983707966668]","[-1,-1,-1]","[-0.08329051779923043,0.025145398597812778]","[-1,-1,-1]","[-0.1348442809748001,-0.07049203637889473]","[-1,-1,-1]","[0.16125432892922495,-0.10898177818420726]","[-1,-1,-1]","[0.00034715978965634307,0.03659731254078235]","[1,1,1]","[0.13505270109315082,0.05715604935107163]","[1,1,1]","[0.01210005070729459,-0.10478497901980337]","[1,1,1]","[0.12430797378848947,0.13824322461037328]","[1,1,1]","[0.020183956763827417,-0.02324204710012943]","[-1,-1,-1]","[0.08660607710656001,-0.009174516456795618]","[-1,-1,-1]","[-0.1509265338161083,-0.12352554832569672]","[1,1,1]","[0.09325773961895076,-0.1415224177852816]","[1,1,1]","[-0.08571329415436194,-0.17222607364283377]","[1,1,1]","[0.16690797545576047,-0.035317072094001395]","[1,1,1]","[-0.1748148470676319,0.0003922494050683478]","[1,1,1]","[-0.04279076205283151,-0.09943384813247394]","[-1,-1,-1]","[0.0450264917400246,0.1270711118835284]","[1,1,1]","[-0.06268777055347732,0.18367320934940506]","[-1,-1,-1]","[-0.033146572948956676,-0.16845374929527773]","[1,1,1]","[0.05244596667485178,0.030176670111703507]","[1,1,1]","[0.1593161286361884,0.005592156174304093]","[1,1,1]","[0.0567891827167746,-0.041520551080368215]","[-1,-1,-1]","[0.045473984227956434,0.18918777381863652]","[-1,-1,-1]","[-0.07684817205275349,0.13674799207121463]","[-1,-1,-1]","[0.0982896705582467,0.1693971184688282]","[-1,-1,-1]","[-0.011020350825897791,0.15592578463779772]","[-1,-1,-1]","[-0.046400036340289,0.0009038361363022025]","[1,1,1]","[0.02,0.02]",224.4125,0,19,19,116,1,,,,,,,
,,,,,,,6526a0e62c605cc42d9a52e4,682db39b28b0edef4571b5a8,2025-05-21_13h19.09.356,cuing_paradigm_dot,2024.1.5,Win32,5.452562704,682d556593cb38ad0a074487,,,,,,,,,,,224.4131,224.807,,,225.005,226.0441,left,0.8474,0.0001,,,,,,,,0.4,,,,,,224.8071,225.005,226.0442,"[0.15138917101934427,0.06453773699580309]","[1,1,1]","[-0.17623070123726595,0.05417972308634972]","[-1,-1,-1]","[-0.033504159177263314,0.013515481400678321]","[-1,-1,-1]","[0.04521665908654632,0.07605192823328918]","[1,1,1]","[-0.09345649725119164,-0.13812085512452424]","[-1,-1,-1]","[-0.044958632411463036,-0.030863760809417985]","[1,1,1]","[-0.15064259675600414,-0.015963856310465326]","[-1,-1,-1]","[0.10177535352006983,0.04101023806167811]","[1,1,1]","[-0.09676803223570274,-0.09422786133564785]","[1,1,1]","[0.06520274612191405,0.18050951736797566]","[1,1,1]","[-0.013524535257709207,0.13073961367000186]","[1,1,1]","[-0.04436346307677653,-0.15802652943874027]","[-1,-1,-1]","[-0.034718349885139284,-0.08047428639690508]","[1,1,1]","[0.1534172648610395,0.012052999363343057]","[-1,-1,-1]","[0.04932462070589642,-0.06453758729684694]","[-1,-1,-1]","[0.1142479458355468,0.08390599583494263]","[1,1,1]","[-0.054644562152859594,0.1756631375097799]","[-1,-1,-1]","[0.11568857167156729,-0.12425984240520893]","[-1,-1,-1]","[0.07070542792404146,-0.12250928119432986]","[1,1,1]","[-0.07145806505321739,0.10734518916774359]","[1,1,1]","[-0.12523497263073943,0.15342632717020208]","[-1,-1,-1]","[0.06235155715225671,-0.17822528007954977]","[-1,-1,-1]","[0.0890430329828486,-0.07221085214425021]","[1,1,1]","[0.18392756246609385,-0.04950342831702428]","[-1,-1,-1]","[0.023434122978976665,-0.007975985518005319]","[-1,-1,-1]","[-0.13766525064653826,-0.12698257647938604]","[-1,-1,-1]","[0.15815931404297823,-0.08254672581439289]","[-1,-1,-1]","[-0.0038868626073651816,-0.16680277217822462]","[1,1,1]","[-0.08460143979127176,0.03904088665476831]","[-1,-1,-1]","[0.10484352610979134,-0.028421995308029514]","[-1,-1,-1]","[-0.11953970214804924,-0.04335884501471243]","[-1,-1,-1]","[0.1345899339996284,0.13701075154149298]","[-1,-1,-1]","[0.02,0.02]",227.0437,0,20,20,42,1,,,,,,,
,,,,,,,6526a0e62c605cc42d9a52e4,682db39b28b0edef4571b5a8,2025-05-21_13h19.09.356,cuing_paradigm_dot,2024.1.5,Win32,5.452562704,682d556593cb38ad0a074487,,,,,,,,,,,227.0442,227.4445,,,227.6444,228.9323,left,1.0795,,,,,,,,,0.45,,,,,,227.4446,227.6443,228.9323,"[-0.07889787319541125,-0.05603606502759236]","[1,1,1]","[-0.18706466353438272,-0.012099283516230807]","[-1,-1,-1]","[0.05374767916353482,0.11209903902429622]","[1,1,1]","[0.16095546381038978,0.11723440704547974]","[1,1,1]","[-0.06924375496080735,-0.003793089778421619]","[-1,-1,-1]","[-0.025830790400668577,-0.10379950016037809]","[1,1,1]","[-0.11524321463266228,-0.09873887596902502]","[1,1,1]","[0.03352821659282386,-0.17728550638065363]","[-1,-1,-1]","[0.1793344988211916,-0.006072831615160422]","[1,1,1]","[-0.16720717808134958,-0.09084478899755527]","[-1,-1,-1]","[0.05342250603708713,-0.013259270080274822]","[-1,-1,-1]","[-0.01159011498039371,0.19606937384658904]","[1,1,1]","[-0.06186713462409762,0.17611393765928196]","[-1,-1,-1]","[-0.04029604156948363,0.026284168971811978]","[1,1,1]","[0.10565599710093858,-0.01247606225216624]","[-1,-1,-1]","[0.12435274955252346,-0.12717603753341192]","[-1,-1,-1]","[0.10061212369984557,0.12736703543747782]","[-1,-1,-1]","[-0.1691853232799513,0.07360994578033316]","[-1,-1,-1]","[0.16370887730587114,0.03137195225448515]","[1,1,1]","[-0.052051524128809736,0.07847414471680984]","[-1,-1,-1]","[0.003398650948439621,-0.13197386428256994]","[1,1,1]","[0.0049947387528300165,0.027922398085223114]","[-1,-1,-1]","[-0.10803072658817622,0.06410515671109443]","[-1,-1,-1]","[-0.018156104114058845,0.141029566291035]","[-1,-1,-1]","[0.06715153538577728,0.04682406703984306]","[1,1,1]","[-0.06219801186876399,-0.1841279404932961]","[-1,-1,-1]","[0.08072759364356644,-0.07926930568793765]","[-1,-1,-1]","[0.012627510074974353,-0.04381165413259206]","[-1,-1,-1]","[0.05340478026550363,0.18449868387115947]","[-1,-1,-1]","[0.15093845834867906,-0.09600720661670971]","[1,1,1]","[-0.17934226985903548,0.032422233860616205]","[1,1,1]","[0.11438476608125565,-0.057434344389073834]","[1,1,1]","[0.02,0.02]",229.9381,0,21,21,72,1,,,,,,,
,,,,,,,6526a0e62c605cc42d9a52e4,682db39b28b0edef4571b5a8,2025-05-21_13h19.09.356,cuing_paradigm_dot,2024.1.5,Win32,5.452562704,682d556593cb38ad0a074487,,,,,,,,,,,229.9385,230.3343,,,230.5305,231.7701,left,1.0463,,,,,,,,,0.5,,,,,,230.3344,230.5305,231.7702,"[-0.017937932388927505,0.0976323290316729]","[1,1,1]","[0.09411562091638771,0.16807786975415898]","[-1,-1,-1]","[-0.024447865274065214,-0.12111737964365366]","[-1,-1,-1]","[0.11471669539467015,0.056537885369697956]","[-1,-1,-1]","[0.035885539262944445,-0.08049111503888541]","[-1,-1,-1]","[0.15277632158927448,-0.06898685915127628]","[1,1,1]","[-0.16731721630911991,0.054427741486245275]","[-1,-1,-1]","[0.09969214682539955,-0.05324837736557715]","[1,1,1]","[-0.13730820935374044,0.10195326367921519]","[1,1,1]","[-0.0009048135599543392,-0.19248544206591522]","[1,1,1]","[0.03793084525294088,0.06344454943381635]","[1,1,1]","[-0.1196854080768815,-0.10626693955886038]","[-1,-1,-1]","[-0.06846407704548783,-0.1298154159030898]","[1,1,1]","[0.07724058865259324,0.005055713131782036]","[1,1,1]","[-0.04929075375003189,-0.06240987168281281]","[1,1,1]","[-0.09669103618868059,0.028352670179135477]","[1,1,1]","[-0.037747948405584146,-0.020996863744753933]","[1,1,1]","[0.090940314833025,-0.1451720996214783]","[-1,-1,-1]","[-0.13131425645929082,-0.04148292072073694]","[1,1,1]","[0.13711422331626522,0.1343783169798189]","[1,1,1]","[-0.0196915738209115,0.0340549351491104]","[-1,-1,-1]","[0.04713198454511471,0.18238149051889518]","[1,1,1]","[0.02064291648461415,-0.009637810407996121]","[-1,-1,-1]","[-0.14046007970688393,0.01506089529547929]","[1,1,1]","[-0.06411149611750083,0.16298618950264757]","[-1,-1,-1]","[0.16801528862851406,0.014770720802836982]","[-1,-1,-1]","[-0.10012959038876233,0.14205009533137636]","[1,1,1]","[0.11291927423094605,-0.09622395418548566]","[-1,-1,-1]","[-0.0925899337927012,0.09312267627772877]","[-1,-1,-1]","[-0.008725452117759897,0.16078936446666467]","[-1,-1,-1]","[0.12444522752322744,-0.003461817027543529]","[-1,-1,-1]","[0.06977140298930484,0.11089336205877505]","[-1,-1,-1]","[0.02,0.02]",232.7444,0,22,22,106,1,,,,,,,
,,,,,,,6526a0e62c605cc42d9a52e4,682db39b28b0edef4571b5a8,2025-05-21_13h19.09.356,cuing_paradigm_dot,2024.1.5,Win32,5.452562704,682d556593cb38ad0a074487,,,,,,,,,,,232.7449,233.1384,,,233.3439,233.98,right,0.4314,,,,,,,,,0.55,,,,,,233.1384,233.3438,233.98,"[0.17526103427021672,-0.046562321136145675]","[1,1,1]","[-0.09700256682557709,-0.11780928279629979]","[-1,-1,-1]","[-0.17904783341500888,0.022346799322955403]","[-1,-1,-1]","[-0.03222073803624473,-0.13881896719634687]","[-1,-1,-1]","[0.042071765907198744,-0.05288670847229509]","[-1,-1,-1]","[0.01453620958505107,-0.01513650684427942]","[1,1,1]","[-0.09766799743987627,0.03717000020920915]","[1,1,1]","[-0.13259817078188668,-0.09414676173037058]","[-1,-1,-1]","[-0.00597877240628882,0.1640468799083501]","[-1,-1,-1]","[-0.039451072537703254,0.0020414642172354057]","[1,1,1]","[0.0420421183490454,0.16183574822614158]","[1,1,1]","[-0.010084716557714547,-0.07225798015094416]","[-1,-1,-1]","[0.09111398040738689,-0.04996174997579833]","[1,1,1]","[-0.06001586484548638,-0.17580465097398362]","[-1,-1,-1]","[0.1313701413303303,0.05441416844967746]","[1,1,1]","[-0.047285031013413956,0.18473235169837027]","[1,1,1]","[-0.09033838391496883,-0.016546164097924698]","[1,1,1]","[-0.13453232755336533,0.0016062386214401073]","[1,1,1]","[-0.17787836577265184,-0.05527432823095574]","[1,1,1]","[0.008707948381788289,-0.1984302347572526]","[-1,-1,-1]","[0.1067221307432631,-0.010533856439829766]","[1,1,1]","[-0.054218071395814194,-0.055238355130060326]","[-1,-1,-1]","[0.1281856115259236,-0.06680312132246041]","[1,1,1]","[-0.048623462465145734,0.10187956328094243]","[-1,-1,-1]","[0.04342083909994204,0.07550148079629604]","[1,1,1]","[0.09118237857662839,0.0833739225957125]","[1,1,1]","[-0.12509883040868924,0.11740850655464743]","[-1,-1,-1]","[0.16370255995843067,0.11254183613961398]","[1,1,1]","[0.052917342846541385,-0.16198838301665]","[1,1,1]","[-0.13693465527060444,-0.1453846443144822]","[1,1,1]","[-0.1123176333837816,0.07565178535766297]","[-1,-1,-1]","[0.03812101046079748,0.032258411300685366]","[-1,-1,-1]","[0.02,0.02]",234.9498,0,23,23,127,1,,,,,,,
,,,,,,,6526a0e62c605cc42d9a52e4,682db39b28b0edef4571b5a8,2025-05-21_13h19.09.356,cuing_paradigm_dot,2024.1.5,Win32,5.452562704,682d556593cb38ad0a074487,,,,,,,,,,,234.9501,235.3414,,,235.5506,236.4141,left,0.6489,,,,,,,,,0.45,,,,,,235.3415,235.5506,236.4142,"[-0.01442468655318382,0.09928454464361039]","[-1,-1,-1]","[0.02509334477342656,0.19080744645561884]","[1,1,1]","[0.08768669108516698,-0.13091630176385388]","[1,1,1]","[-0.11165351921728321,0.023146776070654386]","[-1,-1,-1]","[-0.04381257883371891,-0.12113814315662016]","[-1,-1,-1]","[-0.1590626002237834,0.05514085010427651]","[-1,-1,-1]","[0.1165425537227511,-0.08242091081749321]","[1,1,1]","[-0.08568309057262015,-0.16004034957763855]","[-1,-1,-1]","[-0.13746755516514478,-0.1105080423000935]","[-1,-1,-1]","[0.045629409421489325,0.10969034629687745]","[1,1,1]","[0.08741044229946947,-0.008316096064518951]","[1,1,1]","[-0.008159645393863746,-0.001973770382032238]","[-1,-1,-1]","[0.057812436958304646,-0.05638315146068009]","[-1,-1,-1]","[-0.0771070500582872,0.17330794515064415]","[1,1,1]","[0.02423635320794315,0.027627043733576443]","[1,1,1]","[0.1290472644300925,-0.026488962537626556]","[-1,-1,-1]","[0.17196216818770824,-0.016108787849526247]","[-1,-1,-1]","[0.11148523713436155,0.04134907141119435]","[-1,-1,-1]","[-0.11835742104170978,-0.026840109308352192]","[-1,-1,-1]","[-0.016293354613403453,-0.06097005303723892]","[1,1,1]","[-0.025702123862763222,0.1680253163737294]","[1,1,1]","[0.020525133224592994,-0.10736905327146712]","[1,1,1]","[0.104693059481189,0.09021912355556966]","[-1,-1,-1]","[-0.08734081944140229,-0.0989203335064482]","[1,1,1]","[-0.0929670366679054,0.09384828541450778]","[1,1,1]","[0.17886925807082615,0.04291789687670048]","[1,1,1]","[-0.06832263657461127,-0.005395688450383788]","[-1,-1,-1]","[-0.1409994062562444,-0.06228855231214974]","[-1,-1,-1]","[-0.1255673630057263,0.1507460261811143]","[-1,-1,-1]","[0.024360498823137535,-0.19071220051736054]","[-1,-1,-1]","[0.04127148351899193,-0.14305203727168508]","[1,1,1]","[0.023788115478043437,0.07536535995825573]","[-1,-1,-1]","[0.02,0.02]",237.4167,0,24,24,67,1,,,,,,,
,,,,,,,6526a0e62c605cc42d9a52e4,682db39b28b0edef4571b5a8,2025-05-21_13h19.09.356,cuing_paradigm_dot,2024.1.5,Win32,5.452562704,682d556593cb38ad0a074487,,,,,,,,,,,237.417,237.8326,,,238.0415,239.1392,left,0.8951,0.0003,,,,,,,,0.1,,,,,,237.8326,238.0414,239.1392,"[0.06403315405897424,0.0007037301053964642]","[-1,-1,-1]","[-0.0768996626484511,-0.1316678169535117]","[-1,-1,-1]","[-0.09248183946742876,0.13550386925869817]","[-1,-1,-1]","[-0.1358128809340321,0.05040507787932655]","[-1,-1,-1]","[0.002379745038527322,-0.06434884699453934]","[-1,-1,-1]","[0.0012770639770598065,-0.11976246129678936]","[-1,-1,-1]","[0.10554908794720481,0.10549302191465153]","[-1,-1,-1]","[-0.11367863619992524,-0.0624642313091375]","[-1,-1,-1]","[0.009116554009618775,0.03822198787843799]","[-1,-1,-1]","[0.05174804172950455,0.16899103064033177]","[-1,-1,-1]","[0.0018652927683886515,0.07826343202157664]","[-1,-1,-1]","[-0.13439591322244382,-0.11873890936173027]","[-1,-1,-1]","[0.04695303111062323,0.06751591133581077]","[-1,-1,-1]","[0.028536735215887635,-0.0335574941523434]","[-1,-1,-1]","[-0.19025250208648412,-0.045200959750432895]","[-1,-1,-1]","[0.1761932572508422,-0.04676327396981981]","[-1,-1,-1]","[0.16773230052816102,0.01438364884812633]","[-1,-1,-1]","[-0.07134473504710948,-0.08272552742267877]","[-1,-1,-1]","[0.07751312576074966,-0.06191458272360708]","[1,1,1]","[0.06051331353699742,-0.1736796850663457]","[1,1,1]","[0.13074003847420185,0.05228670955334105]","[-1,-1,-1]","[0.1650403695941195,0.10779650847494994]","[1,1,1]","[-0.06710167146917988,-0.17978737956209223]","[-1,-1,-1]","[-0.030428883888187094,-0.021075103213289408]","[-1,-1,-1]","[0.13827124259151954,-0.10145424737467244]","[-1,-1,-1]","[0.014451727120568067,-0.1805889440143583]","[-1,-1,-1]","[-0.007186622479216653,0.19618622350512788]","[-1,-1,-1]","[-0.14774588984482048,0.13429115815643672]","[-1,-1,-1]","[-0.05452517602337861,0.11718947976310497]","[-1,-1,-1]","[0.08989515357090676,-0.104725387615223]","[-1,-1,-1]","[-0.07949739227810479,0.008127051138533334]","[-1,-1,-1]","[0.04804114137789038,-0.1037728680921688]","[-1,-1,-1]","[0.02,0.02]",240.1113,0,25,25,17,1,,,,,,,
,,,,,,,6526a0e62c605cc42d9a52e4,682db39b28b0edef4571b5a8,2025-05-21_13h19.09.356,cuing_paradigm_dot,2024.1.5,Win32,5.452562704,682d556593cb38ad0a074487,,,,,,,,,,,240.1119,240.5206,,,240.7268,242.2044,,,,,,,,,,,0.4,,,,,,240.5206,240.7267,242.2045,"[0.13725935716169035,-0.13483234301555305]","[1,1,1]","[0.10294955803005862,-0.16567409534982439]","[-1,-1,-1]","[-0.0008285955104679776,0.1478507996981218]","[-1,-1,-1]","[-0.12101835349656219,0.15919670799141616]","[-1,-1,-1]","[0.15678257669370876,-0.08944875456145435]","[-1,-1,-1]","[-0.06821501110471165,-0.11299092231414443]","[-1,-1,-1]","[0.07651038754612392,0.042213480644775994]","[-1,-1,-1]","[-0.016968731471295618,-0.17313244022161717]","[-1,-1,-1]","[-0.15037668889138112,-0.06405438135563603]","[-1,-1,-1]","[-0.1495885474143713,0.021825299557316758]","[-1,-1,-1]","[0.11768338092737458,-0.011849934561761099]","[1,1,1]","[-0.05903673833834897,0.08445963946215071]","[-1,-1,-1]","[0.0733390416822281,0.17326213116678668]","[1,1,1]","[0.13565289668162314,0.1049119845859708]","[1,1,1]","[0.18763322043391847,0.022321984775685633]","[1,1,1]","[0.02113050570167465,-0.01563290289437363]","[-1,-1,-1]","[0.10231994252619753,-0.10286495451428429]","[1,1,1]","[-0.047862937345534824,0.1512280931147022]","[-1,-1,-1]","[-0.09623846936197013,-0.03811542405146439]","[1,1,1]","[-0.02906182392595148,-0.09002877505928618]","[-1,-1,-1]","[0.034383454621334394,0.1879893962483461]","[1,1,1]","[-0.04743986337813787,0.023623881681640042]","[1,1,1]","[0.08873033944783038,0.11643970910898284]","[-1,-1,-1]","[0.03769376901581877,0.13503695742258112]","[-1,-1,-1]","[-0.08054424948237666,0.11921991271553983]","[-1,-1,-1]","[0.017626364129504586,-0.1379897012839155]","[-1,-1,-1]","[-0.11711382184424042,0.06314475569555862]","[1,1,1]","[-0.15281276107891772,0.1100033664064063]","[1,1,1]","[0.11393865594449544,-0.05783608108378053]","[-1,-1,-1]","[-0.007414710262035899,0.07657887568372769]","[1,1,1]","[0.07375657082974124,-0.05078322135017031]","[1,1,1]","[0.18981833658350333,-0.03323383656013312]","[-1,-1,-1]","[0.02,0.02]",243.2011,0,26,26,47,1,,,,,,,
,,,,,,,6526a0e62c605cc42d9a52e4,682db39b28b0edef4571b5a8,2025-05-21_13h19.09.356,cuing_paradigm_dot,2024.1.5,Win32,5.452562704,682d556593cb38ad0a074487,,,,,,,,,,,243.2015,243.5862,,,243.7871,244.619,left,0.6284,,,,,,,,,0.1,,,,,,243.5863,243.7871,244.6191,"[-0.12736725624074494,-0.002875931050413891]","[-1,-1,-1]","[0.017753955506490275,0.12822179535692502]","[-1,-1,-1]","[-0.06482988225027164,-0.17485115926862238]","[-1,-1,-1]","[-0.10190232785244674,-0.14099353126743616]","[-1,-1,-1]","[-0.06565674824779724,0.10464364889316187]","[-1,-1,-1]","[0.0756713477018725,-0.06171823807611575]","[-1,-1,-1]","[0.15778327488399754,0.024269861997418436]","[-1,-1,-1]","[0.06736884372747266,0.1570098143170766]","[1,1,1]","[0.016232606881068017,-0.1385843442665093]","[-1,-1,-1]","[0.017146027810109463,-0.06381453930990423]","[-1,-1,-1]","[-0.07725791824470347,-0.098840551549377]","[-1,-1,-1]","[0.17902854784093764,0.07614420029901027]","[1,1,1]","[0.11021634938691707,0.03791611172609849]","[-1,-1,-1]","[-0.13020284580479768,-0.06936897271861761]","[-1,-1,-1]","[0.050571337147755656,-0.18233336857201007]","[-1,-1,-1]","[-0.13956832076733228,0.1155797983403317]","[-1,-1,-1]","[-0.10298615581200939,0.07883894191216682]","[-1,-1,-1]","[0.09255788755831124,-0.16010033447818656]","[-1,-1,-1]","[-0.16679871324065199,-0.04841944221429187]","[-1,-1,-1]","[0.023971038265126608,0.08198973988696966]","[-1,-1,-1]","[-0.017535906804605778,0.10680495029951338]","[-1,-1,-1]","[0.12934184458062561,-0.018581201542278603]","[-1,-1,-1]","[0.04303766503553453,-0.020949665949130853]","[-1,-1,-1]","[-0.013234241079507462,0.0602129586692825]","[1,1,1]","[0.17979107140799122,-0.04075257343427139]","[-1,-1,-1]","[-0.15694496472314792,0.05357257518167187]","[-1,-1,-1]","[0.055071040322055766,0.03845703349782973]","[-1,-1,-1]","[-0.02400590808540767,-0.10575608003533044]","[-1,-1,-1]","[0.1315968154111568,-0.06344420078078752]","[-1,-1,-1]","[-0.04003231735367352,0.1499622613035416]","[-1,-1,-1]","[-0.0998323089446374,0.13298828558333195]","[-1,-1,-1]","[-0.0845315685254765,-0.015673563185307368]","[-1,-1,-1]","[0.02,0.02]",245.6004,0,27,27,7,1,,,,,,,
,,,,,,,6526a0e62c605cc42d9a52e4,682db39b28b0edef4571b5a8,2025-05-21_13h19.09.356,cuing_paradigm_dot,2024.1.5,Win32,5.452562704,682d556593cb38ad0a074487,,,,,,,,,,,245.6008,245.9782,,,246.1759,247.1877,left,0.8174,,,,,,,,,0.4,,,,,,245.9783,246.1758,247.1877,"[-0.18294059003780505,-0.01966382477934264]","[-1,-1,-1]","[0.06294286718001477,-0.18946402306408128]","[-1,-1,-1]","[-0.04828206344157901,-0.0017139233044897654]","[1,1,1]","[-0.01443932947128287,-0.15552912422884618]","[1,1,1]","[0.03954159754598602,0.06727264077673667]","[-1,-1,-1]","[-0.09944004095739947,-0.08419919956869422]","[-1,-1,-1]","[0.15180795760237087,-0.06661870810565443]","[1,1,1]","[-0.16830655936443417,0.04779717399102618]","[1,1,1]","[-0.02062965201737317,-0.09108863813551663]","[-1,-1,-1]","[-0.060537145086365554,0.13711330713349468]","[-1,-1,-1]","[0.00418969703242484,0.08862264789771884]","[-1,-1,-1]","[-0.07475411747209953,0.17640580531026012]","[1,1,1]","[-0.06943362331778978,-0.04356452362263559]","[-1,-1,-1]","[-0.10095530284037917,0.08830903867044881]","[-1,-1,-1]","[-0.12867371604752248,-0.05383842939360358]","[1,1,1]","[0.02951457961745034,-0.07040077605837157]","[-1,-1,-1]","[0.09348173984615323,-0.08871394293680618]","[1,1,1]","[0.010403530941365305,0.15797478456741257]","[1,1,1]","[-0.10336740919723067,0.012011006745482276]","[-1,-1,-1]","[-0.051555007575993995,0.05113464165256371]","[1,1,1]","[-0.17394259126980313,-0.08697346672681414]","[-1,-1,-1]","[0.10379143266636626,-0.15564442412197754]","[1,1,1]","[0.10166613307717043,0.10474445776528897]","[-1,-1,-1]","[0.19463998719572795,0.0034699164283078917]","[-1,-1,-1]","[0.14366927464914772,0.07490915507198638]","[1,1,1]","[0.010100708312083949,-0.004803895268016399]","[1,1,1]","[0.05988358041996808,-0.14611113195931918]","[-1,-1,-1]","[0.13029264384562983,-0.023070258018825816]","[-1,-1,-1]","[-0.0819820678451441,-0.15510387402737927]","[1,1,1]","[-0.14196717813621282,0.001423148461918894]","[-1,-1,-1]","[0.130537714373025,0.14686999579344673]","[-1,-1,-1]","[-0.03574872221825363,0.09909961973068294]","[-1,-1,-1]","[0.02,0.02]",248.1622,0,28,28,32,1,,,,,,,
,,,,,,,6526a0e62c605cc42d9a52e4,682db39b28b0edef4571b5a8,2025-05-21_13h19.09.356,cuing_paradigm_dot,2024.1.5,Win32,5.452562704,682d556593cb38ad0a074487,,,,,,,,,,,248.163,248.546,,,248.7446,249.6003,right,0.6472,0.0002,,,,,,,,0.55,,,,,,248.546,248.7446,249.6004,"[-0.12965369909791286,0.11408148029257922]","[-1,-1,-1]","[-0.049961458007919846,-0.1568177006035728]","[1,1,1]","[0.15327792667619858,-0.014240724858830506]","[-1,-1,-1]","[-0.012647582601865454,-0.09475150169064415]","[1,1,1]","[0.18292773584405259,0.06922526092284365]","[1,1,1]","[-0.18511969071412587,0.024822949504176125]","[1,1,1]","[-0.15070733031398076,-0.04142167378247432]","[-1,-1,-1]","[0.19775874503146768,-0.016513839019642682]","[1,1,1]","[-0.0029640811604768513,0.13793735242230998]","[1,1,1]","[-0.06124077836763954,-0.10877369810301465]","[1,1,1]","[0.01421039576041395,0.05865674359981651]","[1,1,1]","[0.07329069473173669,-0.17711368958634044]","[-1,-1,-1]","[-0.14208337716436434,-0.09197544226903193]","[-1,-1,-1]","[-0.06880442591386014,-0.029574931855678232]","[-1,-1,-1]","[-0.17376046855449853,0.08741456480378498]","[1,1,1]","[0.033375141651380065,0.0020295305996717266]","[1,1,1]","[0.09496716250002366,0.1631361381471829]","[1,1,1]","[-0.041798827496700566,0.003196316407481701]","[-1,-1,-1]","[-0.06801331017906495,0.14075661718097227]","[-1,-1,-1]","[0.0719344092703284,0.08280912347413157]","[1,1,1]","[0.056736015808518836,-0.07117652377413666]","[-1,-1,-1]","[0.10093084129209506,-0.009357859313353952]","[-1,-1,-1]","[0.05335609262129806,-0.13835078983614416]","[1,1,1]","[0.18438752418046492,-0.06441648538107786]","[1,1,1]","[-0.05704321779667662,0.08403979820744543]","[1,1,1]","[-0.10771993385757783,0.05685993949510201]","[1,1,1]","[-0.001057218748712148,-0.13502389897794112]","[-1,-1,-1]","[0.032669532437198966,0.09817931286736908]","[-1,-1,-1]","[0.14043508068877722,-0.07822281343006507]","[-1,-1,-1]","[-0.014317966291211794,0.19693098637441928]","[1,1,1]","[-0.10201513465315502,-0.10527620122423695]","[1,1,1]","[0.13848521558775514,-0.12508620544307253]","[-1,-1,-1]","[0.02,0.02]",250.6167,0,29,29,142,1,,,,,,,
,,,,,,,6526a0e62c605cc42d9a52e4,682db39b28b0edef4571b5a8,2025-05-21_13h19.09.356,cuing_paradigm_dot,2024.1.5,Win32,5.452562704,682d556593cb38ad0a074487,,,,,,,,,,,250.6173,251.0111,,,251.219,252.0757,left,0.6585,,,,,,,,,0.4,,,,,,251.0112,251.219,252.0757,"[-0.05696160816251852,-0.11755757016036901]","[-1,-1,-1]","[-0.04625611163262309,-0.028635964538962146]","[-1,-1,-1]","[0.05802581564297496,0.0870339836793449]","[-1,-1,-1]","[0.05773431688959577,-0.14975267237066234]","[1,1,1]","[-0.04311615344655808,0.11086818286853403]","[1,1,1]","[-0.13179956845531124,-0.06262737271509694]","[1,1,1]","[0.0907071694964066,0.0023205887468198652]","[-1,-1,-1]","[-0.017062670095495135,-0.06488347641841227]","[-1,-1,-1]","[0.11824695038293424,-0.05225869936258718]","[1,1,1]","[0.029911425956664205,-0.057545506902889204]","[-1,-1,-1]","[0.10266407923114106,0.15887362106032651]","[-1,-1,-1]","[0.12444583906282247,0.042452578578192096]","[-1,-1,-1]","[0.17390248968611197,-0.04842704909402322]","[-1,-1,-1]","[-0.14256279451267878,0.08469539939669013]","[-1,-1,-1]","[-0.13386789623905582,0.14720739772137295]","[-1,-1,-1]","[0.12078716999314534,-0.15717936745076894]","[1,1,1]","[-0.1369258119100434,-0.13631217552019803]","[1,1,1]","[-0.1804480642455666,0.06281313827290066]","[-1,-1,-1]","[-0.03799566707094804,-0.18344632849171905]","[-1,-1,-1]","[-0.11171604423059406,0.04959281137027445]","[-1,-1,-1]","[-0.1444289016091519,0.022989881417056025]","[1,1,1]","[0.16909407256652453,0.013898853186516857]","[1,1,1]","[-0.1760240383303231,-0.0440201193712775]","[1,1,1]","[0.15381258960087765,0.09715402474282295]","[1,1,1]","[-0.041576445877790774,0.19206947886237014]","[-1,-1,-1]","[0.004252763799593786,-0.010489717430793095]","[-1,-1,-1]","[-0.01416380220006362,-0.13157179674874975]","[-1,-1,-1]","[-0.08627320562542225,0.1665742190802608]","[-1,-1,-1]","[0.008990598459947619,0.10396180015617548]","[1,1,1]","[0.035750579635920654,0.16508973322883816]","[-1,-1,-1]","[-0.05630327884675284,0.010229361603771569]","[1,1,1]","[-0.18925872827624807,0.017649709334874135]","[1,1,1]","[0.02,0.02]",253.0596,0,30,30,41,1,,,,,,,
,,,,,,,6526a0e62c605cc42d9a52e4,682db39b28b0edef4571b5a8,2025-05-21_13h19.09.356,cuing_paradigm_dot,2024.1.5,Win32,5.452562704,682d556593cb38ad0a074487,,,,,,,,,,,253.0602,253.463,,,253.6668,254.503,left,0.6395,,,,,,,,,0.4,,,,,,253.463,253.6668,254.5031,"[0.10886022177455805,0.08926543121666206]","[-1,-1,-1]","[-0.053768178045120185,-0.05578048836623237]","[-1,-1,-1]","[0.10106788209138436,-0.17066359581455667]","[-1,-1,-1]","[-0.1340527413274785,0.13817920763279196]","[1,1,1]","[-0.06073938272170719,0.07605886092581692]","[1,1,1]","[0.0921359681039888,-0.011836425752659467]","[-1,-1,-1]","[0.1305978064204277,-0.0660918019912061]","[-1,-1,-1]","[0.04989434922088879,0.15530250775778615]","[-1,-1,-1]","[-0.1574023513571622,0.00032423713600243697]","[-1,-1,-1]","[-0.03721573747564982,0.14162027631124904]","[-1,-1,-1]","[0.12896524156514666,0.015411353772064316]","[-1,-1,-1]","[0.06735262039296439,0.03714250192682229]","[-1,-1,-1]","[0.16511686503360867,0.04304336281063012]","[-1,-1,-1]","[0.051771078716497505,-0.17961401011442993]","[1,1,1]","[-0.19341284847782228,0.03220832405102558]","[-1,-1,-1]","[-0.05809380880596377,-0.153802242518639]","[-1,-1,-1]","[-0.008204992867174707,-0.19719498642217703]","[1,1,1]","[0.042250716587376676,-0.036608367721569474]","[1,1,1]","[0.18430829856570094,-0.015902449076530698]","[1,1,1]","[-0.018039296591614094,-0.08153198367850382]","[1,1,1]","[0.0050231834197721256,0.0893810761821662]","[-1,-1,-1]","[-0.103674405056177,-0.10447492272007507]","[-1,-1,-1]","[0.0011958420380643636,-0.016755419760845186]","[1,1,1]","[-0.0026356214744888205,0.16997424066647743]","[-1,-1,-1]","[-0.02002154601226114,0.03028750435628205]","[-1,-1,-1]","[-0.11402726073053121,-0.059629868388929266]","[1,1,1]","[0.05484293104940645,-0.12022948482251992]","[-1,-1,-1]","[0.020548529690819932,0.033883998711775894]","[-1,-1,-1]","[-0.1635945015737598,-0.06298284003639788]","[1,1,1]","[-0.09036543077957761,-0.02294842907715261]","[1,1,1]","[-0.1532829944801371,-0.10210365888241843]","[1,1,1]","[0.17355472977620354,-0.09584228985829263]","[1,1,1]","[0.02,0.02]",255.4704,0,31,31,40,1,,,,,,,
,,,,,,,6526a0e62c605cc42d9a52e4,682db39b28b0edef4571b5a8,2025-05-21_13h19.09.356,cuing_paradigm_dot,2024.1.5,Win32,5.452562704,682d556593cb38ad0a074487,,,,,,,,,,,255.4708,255.8763,,,256.0987,257.1385,left,0.8338,,,,,,,,,0.45,,,,,,255.8764,256.0986,257.1386,"[-0.015529611592499078,-0.10437838891732429]","[1,1,1]","[-0.08033565927150492,0.18203383350939623]","[1,1,1]","[0.10195883986985678,0.11614056308701472]","[-1,-1,-1]","[0.03674199460972158,-0.10975338386682575]","[1,1,1]","[0.08476146989823774,-0.045507674359181065]","[-1,-1,-1]","[-0.14534666775244484,0.10931986472587468]","[-1,-1,-1]","[-0.13088467645096868,-0.06861894085344954]","[-1,-1,-1]","[0.0033784207128664673,0.08265234578528215]","[-1,-1,-1]","[-0.056825332677090376,0.08522711426503882]","[1,1,1]","[0.15579371732433828,0.028206515207695106]","[-1,-1,-1]","[-0.021939176625432433,-0.06111117338320832]","[1,1,1]","[0.001326180893193127,0.14667592127980134]","[-1,-1,-1]","[-0.11401095507175021,-0.008794497600985851]","[-1,-1,-1]","[0.1586229444509436,-0.02810345023775318]","[-1,-1,-1]","[-0.0075214005589206295,-0.15836271693399984]","[1,1,1]","[-0.10888216275806692,0.03605527206568371]","[-1,-1,-1]","[-0.15016860734458484,-0.10942667495090685]","[-1,-1,-1]","[0.13277308166949647,-0.06961614289664506]","[1,1,1]","[0.04768968740925515,-0.025875458548355906]","[-1,-1,-1]","[0.02343542729695555,-0.18615799616174675]","[1,1,1]","[0.06635365192847952,0.037737459936332075]","[-1,-1,-1]","[0.10769247456065262,0.034549627322710344]","[-1,-1,-1]","[0.15549821311692238,-0.11930774360513433]","[1,1,1]","[0.09448551417179818,-0.15550938415262328]","[1,1,1]","[-0.008747776958733017,0.00006591222697288301]","[1,1,1]","[-0.1745975651543968,-0.0357431174210112]","[1,1,1]","[-0.06428423148297596,-0.10880021620286012]","[-1,-1,-1]","[-0.09866186775020613,0.07648224179612645]","[1,1,1]","[-0.10877943490729866,-0.127786851907234]","[1,1,1]","[-0.06583331022285872,-0.03326000025548292]","[-1,-1,-1]","[0.13557500845225623,0.08191479597744837]","[-1,-1,-1]","[-0.026505010110705038,0.05072619688554547]","[-1,-1,-1]","[0.02,0.02]",258.1214,0,32,32,61,1,,,,,,,
,,,,,,,6526a0e62c605cc42d9a52e4,682db39b28b0edef4571b5a8,2025-05-21_13h19.09.356,cuing_paradigm_dot,2024.1.5,Win32,5.452562704,682d556593cb38ad0a074487,,,,,,,,,,,258.1217,258.5035,,,258.7074,259.5709,left,0.6529,0.0001,,,,,,,,0.45,,,,,,258.5035,258.7073,259.571,"[-0.11875082545335253,0.07049815559820446]","[1,1,1]","[-0.1088900280756386,-0.14466366231071534]","[-1,-1,-1]","[0.037589950790170766,-0.023149266144449086]","[1,1,1]","[-0.1316878396704836,0.012212724675191952]","[-1,-1,-1]","[0.06523801888961867,0.1443299380426322]","[-1,-1,-1]","[0.1360489453243252,-0.012920584082891472]","[-1,-1,-1]","[-0.015040975476488376,0.0008554674447941631]","[1,1,1]","[0.08026658259662531,-0.07251441814226418]","[-1,-1,-1]","[0.06613159642648826,-0.15871968101923684]","[1,1,1]","[0.10326574363484388,0.03452740994350977]","[1,1,1]","[-0.08182219088420097,0.08936757987557077]","[-1,-1,-1]","[0.15353149799779645,-0.07152960686131954]","[-1,-1,-1]","[0.028914787203837784,0.020852044547723554]","[1,1,1]","[-0.04571822410365313,0.17752450864750188]","[-1,-1,-1]","[-0.1029279207168143,-0.016562471453188767]","[-1,-1,-1]","[-0.01591763924256861,-0.18644922618938814]","[-1,-1,-1]","[-0.048662429940383584,-0.12181508228649791]","[1,1,1]","[0.025842644773779785,0.18321979568412988]","[1,1,1]","[0.14697141733492672,0.10481637377345099]","[-1,-1,-1]","[0.14858073092042065,-0.12609608044621742]","[-1,-1,-1]","[0.09492191135491933,0.09263759407669972]","[-1,-1,-1]","[0.03215381640972951,-0.19399522558215804]","[1,1,1]","[-0.05694900871109099,0.003909904685723249]","[-1,-1,-1]","[-0.15567294898245157,0.10250989671433994]","[1,1,1]","[-0.08171346053660568,0.13026730533098893]","[-1,-1,-1]","[-0.01028830149513568,-0.04600125878268034]","[-1,-1,-1]","[0.17548758060760286,0.06460883888910963]","[1,1,1]","[-0.012648636139525611,0.08468740819879891]","[-1,-1,-1]","[0.03516525678128824,0.06750932616179396]","[1,1,1]","[-0.0673712657755088,-0.07514476120112633]","[1,1,1]","[0.18922614088944517,-0.03623740080581419]","[1,1,1]","[-0.025404806780875068,0.12764478167344198]","[-1,-1,-1]","[0.02,0.02]",260.5632,0,33,33,73,1,,,,,,,
,,,,,,,6526a0e62c605cc42d9a52e4,682db39b28b0edef4571b5a8,2025-05-21_13h19.09.356,cuing_paradigm_dot,2024.1.5,Win32,5.452562704,682d556593cb38ad0a074487,,,,,,,,,,,260.5635,260.9405,,,261.1345,261.7697,right,0.4363,,,,,,,,,0.55,,,,,,260.9406,261.1345,261.7697,"[-0.06318885092882653,-0.02084072346054211]","[1,1,1]","[-0.10302477282591599,-0.03294389470971799]","[1,1,1]","[0.1111127962968741,0.039706936590309945]","[1,1,1]","[0.10913047633407529,0.15909019547775122]","[-1,-1,-1]","[-0.07579755166077425,-0.10209514864733557]","[-1,-1,-1]","[-0.028133336669023793,0.19728587891859187]","[1,1,1]","[0.04688648695317259,0.03359416247147353]","[-1,-1,-1]","[-0.05792195448696867,-0.17221694601132437]","[1,1,1]","[-0.009315809430973189,0.020829805505886652]","[-1,-1,-1]","[-0.07908476447438412,0.05677174897836311]","[1,1,1]","[-0.1427412300237892,0.09984624663190597]","[-1,-1,-1]","[-0.07203538043457461,0.11839078605643516]","[-1,-1,-1]","[0.08487845801272509,0.11069171237453222]","[1,1,1]","[0.03238014757847736,0.16025074966341954]","[-1,-1,-1]","[0.01670608943753889,-0.09172678856219597]","[1,1,1]","[0.16233049005537808,0.08153116955183114]","[1,1,1]","[-0.11030102876556867,0.1535739201439325]","[1,1,1]","[0.04058294520409023,0.11198200030642715]","[1,1,1]","[0.14944371925402236,-0.021131055045406216]","[1,1,1]","[-0.00526319655691113,-0.1607024235219732]","[1,1,1]","[0.18852884526668492,0.010472540654139832]","[1,1,1]","[-0.12841054333459986,-0.14823454790023255]","[-1,-1,-1]","[0.13332535511049157,-0.06296822409587466]","[-1,-1,-1]","[-0.17206253099886465,-0.034890584061133836]","[1,1,1]","[-0.009775558056006705,0.1271017091648064]","[1,1,1]","[0.0943740421882596,-0.13157337549665887]","[-1,-1,-1]","[0.03468374613224889,-0.006288986424197433]","[1,1,1]","[0.17471921139228336,-0.05421847207108267]","[-1,-1,-1]","[-0.11861141655562274,-0.09893169237542912]","[-1,-1,-1]","[-0.020513009655564813,-0.06799121122232171]","[-1,-1,-1]","[-0.1910536305492134,0.012559040462301264]","[1,1,1]","[0.04946204599912319,-0.13333578474728455]","[-1,-1,-1]","[0.02,0.02]",262.7404,0,34,34,128,1,,,,,,,
,,,,,,,6526a0e62c605cc42d9a52e4,682db39b28b0edef4571b5a8,2025-05-21_13h19.09.356,cuing_paradigm_dot,2024.1.5,Win32,5.452562704,682d556593cb38ad0a074487,,,,,,,,,,,262.7409,263.1431,,,263.3469,264.6273,right,1.082,,,,,,,,,0.45,,,,,,263.1432,263.3469,264.6274,"[-0.09733921391833654,0.06758894620620122]","[-1,-1,-1]","[-0.00892338796864075,-0.12889848847419919]","[-1,-1,-1]","[0.08758993081465272,-0.037282488284994614]","[-1,-1,-1]","[0.03946445797696165,0.14362870438870123]","[1,1,1]","[-0.10252864727407357,0.16808307634263261]","[-1,-1,-1]","[-0.16364912343510704,0.09170007327992591]","[-1,-1,-1]","[0.11119154880051278,0.08075033398401212]","[1,1,1]","[-0.06528284023790362,-0.1469167911167888]","[1,1,1]","[0.15882961242030197,0.042724169569941316]","[1,1,1]","[-0.002749035895306238,0.05557715238058068]","[-1,-1,-1]","[0.11121042432952208,-0.1341807826432814]","[-1,-1,-1]","[0.05782059781571324,-0.14761577026470907]","[-1,-1,-1]","[-0.0035285790214292377,-0.1903786414227693]","[1,1,1]","[-0.19548062619808906,-0.02316819173702406]","[-1,-1,-1]","[-0.05285740393478952,-0.07762283440352326]","[-1,-1,-1]","[0.18026224013514106,-0.04404997132293039]","[-1,-1,-1]","[-0.028059689006680485,0.17059359149789494]","[1,1,1]","[0.13606717398210416,0.12997320095275836]","[1,1,1]","[0.03520657247369227,0.07513432402385449]","[1,1,1]","[-0.050853199325853235,0.01455676531088862]","[1,1,1]","[0.11217555957224878,0.023443946278963856]","[1,1,1]","[0.09306104051452348,0.15320939855049387]","[-1,-1,-1]","[0.03568396431177874,-0.026270170531992237]","[-1,-1,-1]","[-0.10438325906160562,-0.13237880414151967]","[1,1,1]","[-0.11607907045530273,0.11351449239035932]","[1,1,1]","[-0.05056041368800733,0.07261028374308892]","[-1,-1,-1]","[0.011870215880437204,0.018161978217131138]","[-1,-1,-1]","[-0.16072478971583362,-0.06464620158735117]","[1,1,1]","[-0.13508270817264073,-0.017361140598633213]","[-1,-1,-1]","[0.06468485754279316,0.0016631474341574977]","[-1,-1,-1]","[-0.16778134031567266,0.031444992970690214]","[1,1,1]","[-0.09233709935503735,-0.028195145120037436]","[-1,-1,-1]","[0.02,0.02]",265.5885,0,35,35,63,1,,,,,,,
,,,,,,,6526a0e62c605cc42d9a52e4,682db39b28b0edef4571b5a8,2025-05-21_13h19.09.356,cuing_paradigm_dot,2024.1.5,Win32,5.452562704,682d556593cb38ad0a074487,,,,,,,,,,,265.589,265.9758,,,266.2182,267.2951,left,0.8609,,,,,,,,,0.5,,,,,,265.976,266.2182,267.2952,"[0.11069673113344461,0.08637910616374649]","[-1,-1,-1]","[0.03971220536007575,-0.19584431148837872]","[1,1,1]","[-0.05731524394803792,-0.11951590270108677]","[1,1,1]","[-0.09464922372333127,-0.00213887504695483]","[1,1,1]","[-0.040667240383032516,0.09329179972110914]","[-1,-1,-1]","[-0.15766605491394875,-0.014957131298827836]","[-1,-1,-1]","[0.14012770854875442,-0.11022750557425681]","[1,1,1]","[0.003732451143197816,0.12941915830484133]","[-1,-1,-1]","[0.06847465585361526,0.14991697318436065]","[-1,-1,-1]","[0.07930324614576119,-0.14327859970635015]","[-1,-1,-1]","[0.03798698867780314,-0.07750849916919349]","[1,1,1]","[0.03181973481879392,-0.031361057838201714]","[-1,-1,-1]","[-0.0590364853439746,-0.17535990689111366]","[-1,-1,-1]","[0.17009950733517537,-0.012161251847813428]","[1,1,1]","[0.00012607879016306118,-0.1831782828608605]","[-1,-1,-1]","[0.10022517491853224,-0.060156412616345266]","[1,1,1]","[0.014364180904235644,0.043384327860393805]","[-1,-1,-1]","[-0.15444945835999027,0.050254683320665634]","[-1,-1,-1]","[-0.0243814189223192,-0.016637844594113937]","[1,1,1]","[-0.02702163532851228,0.1794162235614615]","[1,1,1]","[-0.09626632228295863,0.11247677763226889]","[1,1,1]","[0.06409332252069878,0.009527210286153324]","[-1,-1,-1]","[-0.032606681844564944,-0.06155177225524329]","[-1,-1,-1]","[-0.1221649503479363,-0.09193846645260538]","[-1,-1,-1]","[0.13194465143372405,-0.024997068991685127]","[-1,-1,-1]","[-0.19358613627387186,0.030764988586812498]","[1,1,1]","[-0.0652572891402202,0.16426540931468478]","[1,1,1]","[-0.09625395373291226,0.06443571942384926]","[1,1,1]","[0.005892965540450012,-0.1372038093360797]","[-1,-1,-1]","[-0.14390473481809885,0.09285818331161987]","[1,1,1]","[0.1030318657929298,0.03371712665138554]","[1,1,1]","[-0.16673973795868963,-0.08983544887450172]","[1,1,1]","[0.02,0.02]",268.2656,0,36,36,95,1,,,,,,,
,,,,,,,6526a0e62c605cc42d9a52e4,682db39b28b0edef4571b5a8,2025-05-21_13h19.09.356,cuing_paradigm_dot,2024.1.5,Win32,5.452562704,682d556593cb38ad0a074487,,,,,,,,,,,268.2665,268.6554,,,269.2393,270.0775,left,0.6348,,,,,,,,,0.4,,,,,,268.6556,269.2393,270.0775,"[0.007589489686550474,-0.02209405326793431]","[1,1,1]","[0.09962672799695882,0.12847358633915168]","[-1,-1,-1]","[0.06835257023635438,-0.05161480340297474]","[-1,-1,-1]","[-0.058200349466499525,-0.04480302661528709]","[1,1,1]","[-0.14903715424556893,-0.011462636616669014]","[1,1,1]","[-0.18451171787556075,-0.07604266189620597]","[1,1,1]","[-0.11394158337575612,0.15543064209573065]","[1,1,1]","[0.012643657453478629,0.1156635607637249]","[1,1,1]","[-0.14715833996242483,-0.06032730688451276]","[-1,-1,-1]","[0.09913486755912088,0.05772648362196252]","[-1,-1,-1]","[-0.0843827713584306,-0.14646663191021805]","[-1,-1,-1]","[-0.18218036012873812,0.07134776633384034]","[1,1,1]","[-0.04596725132614719,-0.09897741664241282]","[-1,-1,-1]","[0.10380311473404867,-0.09761175601086418]","[-1,-1,-1]","[-0.005806311750837074,-0.1417311115119916]","[-1,-1,-1]","[-0.08135018074138613,0.12490674457671873]","[-1,-1,-1]","[0.018914719566413173,-0.17593797229229896]","[1,1,1]","[0.189524916161415,0.020331167530325395]","[1,1,1]","[-0.028757128273475752,0.1335154507225575]","[1,1,1]","[0.14623682316010547,-0.0007211971856444128]","[-1,-1,-1]","[-0.011300718402761555,-0.06050121638070105]","[-1,-1,-1]","[-0.1866960774030822,0.031097426839254195]","[-1,-1,-1]","[-0.03189943954716352,-0.17793278027901296]","[-1,-1,-1]","[0.15734354688639177,0.09471548234667239]","[-1,-1,-1]","[0.054758752267533746,-0.13666537433928214]","[1,1,1]","[-0.04285762715287794,0.003932886870347531]","[-1,-1,-1]","[-0.0841210130633634,0.05969062897604377]","[1,1,1]","[0.058013954062058726,0.11479012565391078]","[-1,-1,-1]","[-0.09589008672235448,-0.08851298853432071]","[-1,-1,-1]","[0.1672136748917066,-0.0881872885749142]","[-1,-1,-1]","[0.10760770136523982,-0.01345385218028914]","[-1,-1,-1]","[0.005523183141844479,0.15673982691779187]","[1,1,1]","[0.02,0.02]",271.0409,0,37,37,46,1,,,,,,,
,,,,,,,6526a0e62c605cc42d9a52e4,682db39b28b0edef4571b5a8,2025-05-21_13h19.09.356,cuing_paradigm_dot,2024.1.5,Win32,5.452562704,682d556593cb38ad0a074487,,,,,,,,,,,271.0413,271.4326,,,271.6299,272.438,right,0.6071,,,,,,,,,0.55,,,,,,271.4326,271.6298,272.438,"[-0.0009108087394838684,-0.030215710109813377]","[1,1,1]","[0.05113611807741673,0.09636318694663436]","[-1,-1,-1]","[0.0625606009525457,0.055132290306448256]","[1,1,1]","[-0.06498715962155188,0.031026066729992894]","[1,1,1]","[0.13117646938657668,0.037417510436515755]","[1,1,1]","[0.17025062017010054,-0.0867674575583597]","[-1,-1,-1]","[-0.006652981110130724,-0.15553816079212418]","[1,1,1]","[0.0011041843368572966,0.18213821676294578]","[1,1,1]","[-0.18064117960233553,0.051212696169992925]","[-1,-1,-1]","[-0.026331273447428163,-0.07848739967983878]","[1,1,1]","[-0.09684896897607648,-0.040724437950652635]","[-1,-1,-1]","[0.09638143504722636,0.12751427324531453]","[-1,-1,-1]","[-0.03435660890170584,-0.18836150950100997]","[1,1,1]","[0.0758937461197929,-0.12453374715600721]","[-1,-1,-1]","[-0.08366189604590277,-0.12878253876571133]","[1,1,1]","[-0.13984064128426246,0.031567303961570946]","[1,1,1]","[-0.021209841637052897,0.13472400106484334]","[-1,-1,-1]","[-0.11122889753392182,0.06183968420860582]","[-1,-1,-1]","[0.04604565616753834,0.15683549615155343]","[1,1,1]","[-0.07736149087951295,0.08432217722252866]","[-1,-1,-1]","[0.11322456601906138,-0.14924542872470856]","[1,1,1]","[-0.12760028438521126,0.13071425453345573]","[1,1,1]","[-0.00576493315037739,0.041787072426344024]","[1,1,1]","[0.03881186234773506,-0.03648774968677273]","[1,1,1]","[-0.05433397469614129,0.1877687238631155]","[-1,-1,-1]","[-0.1526044523767084,-0.11790350588689383]","[-1,-1,-1]","[0.03434978008104064,0.005345422851471688]","[-1,-1,-1]","[-0.11072576049956236,-0.0008782961174722891]","[-1,-1,-1]","[0.1289951710384787,0.09176263856780238]","[1,1,1]","[-0.05929803741360448,-0.013215888935970513]","[-1,-1,-1]","[0.07968849220585744,-0.06259611938523314]","[1,1,1]","[0.018662927822990703,-0.10351901212007067]","[1,1,1]","[0.02,0.02]",273.4201,0,38,38,146,1,,,,,,,
,,,,,,,6526a0e62c605cc42d9a52e4,682db39b28b0edef4571b5a8,2025-05-21_13h19.09.356,cuing_paradigm_dot,2024.1.5,Win32,5.452562704,682d556593cb38ad0a074487,,,,,,,,,,,273.4204,273.8274,,,274.0296,274.8411,left,0.6185,,,,,,,,,0.4,,,,,,273.8274,274.0296,274.8411,"[-0.09625850752016409,0.14866532505108374]","[-1,-1,-1]","[-0.04252183547534419,-0.19220703758800511]","[1,1,1]","[-0.17974396651297206,0.01044993858078133]","[-1,-1,-1]","[0.012891096573062201,-0.1555727910342465]","[1,1,1]","[0.1146260813233979,0.05613340919751155]","[-1,-1,-1]","[0.09196662955055003,0.12058168320823957]","[-1,-1,-1]","[0.036520937767569844,0.1718973422038242]","[-1,-1,-1]","[-0.08214988370720065,0.021758631316401857]","[-1,-1,-1]","[0.011461257037643868,-0.0104836336474116]","[-1,-1,-1]","[0.008209324606549788,0.14061286502632092]","[-1,-1,-1]","[0.18144717587681883,0.04391941513634157]","[1,1,1]","[-0.02309275422345933,0.05550277397866166]","[-1,-1,-1]","[-0.11309461213904944,0.11180884368876541]","[1,1,1]","[-0.11495706693873575,-0.13329262470088293]","[1,1,1]","[0.08721686821861997,-0.029368943433184604]","[1,1,1]","[-0.14831282439111015,-0.02323380263810123]","[1,1,1]","[-0.1349093874796326,-0.08475181409160613]","[-1,-1,-1]","[-0.008819582494915072,-0.051087495038861445]","[1,1,1]","[-0.04885409534935701,0.1841194228202514]","[-1,-1,-1]","[-0.061979095241440296,-0.0581819831645218]","[1,1,1]","[0.02196894267164663,0.05429621054246892]","[1,1,1]","[0.156848057910345,-0.007464601174740961]","[-1,-1,-1]","[0.08046734601525463,0.16873372029880038]","[-1,-1,-1]","[0.04595551199697445,0.10763509347577437]","[-1,-1,-1]","[0.11721813164543868,-0.15239277307309979]","[-1,-1,-1]","[0.14744837773505717,-0.08159157440334137]","[-1,-1,-1]","[-0.08824967752804212,-0.1662586036937327]","[-1,-1,-1]","[-0.02967190040980573,-0.14402803829697808]","[-1,-1,-1]","[0.18338885238710848,-0.05471507772364695]","[1,1,1]","[0.06169529322449412,-0.151543603267402]","[1,1,1]","[-0.1467804294914658,0.08958658327951892]","[-1,-1,-1]","[-0.042774036453788605,0.13030669176330414]","[1,1,1]","[0.02,0.02]",275.8132,0,39,39,56,1,,,,,,,
,,,,,,,6526a0e62c605cc42d9a52e4,682db39b28b0edef4571b5a8,2025-05-21_13h19.09.356,cuing_paradigm_dot,2024.1.5,Win32,5.452562704,682d556593cb38ad0a074487,,,,,,,,,,,275.8136,276.206,,,276.4113,277.4622,right,0.8367,,,,,,,,,0.9,,,,,,276.206,276.4112,277.4623,"[0.15155806894934432,-0.11045055232183415]","[1,1,1]","[-0.06563727030163351,0.1828364715623538]","[1,1,1]","[0.05853104698409387,-0.0004626918579245842]","[1,1,1]","[-0.08045722729186262,-0.11631919710085745]","[1,1,1]","[0.09809417487691531,0.06133577635968574]","[1,1,1]","[-0.13682539854169048,-0.02397567141765046]","[1,1,1]","[-0.1812288333678029,0.03564493666375597]","[1,1,1]","[0.09301744543271785,-0.02987948524487454]","[1,1,1]","[-0.08922981207768911,-0.04950722337617789]","[-1,-1,-1]","[0.015847055400796423,0.187894652875378]","[-1,-1,-1]","[0.13729060348514904,-0.04694785006509249]","[1,1,1]","[0.04066598542062975,0.08801857823464894]","[1,1,1]","[-0.007453664622673205,0.03995632203866696]","[1,1,1]","[0.02225798501635513,-0.18960612418653353]","[1,1,1]","[0.056028317220230744,0.1909813730124632]","[1,1,1]","[0.16302562158666203,0.11546324152454016]","[1,1,1]","[-0.0013793472996731578,-0.015522414441201282]","[1,1,1]","[0.19807614846636576,0.02683985452218013]","[1,1,1]","[0.15044794993790542,-0.006332903051891394]","[1,1,1]","[-0.11470793701671496,0.13239714842386588]","[1,1,1]","[-0.07266218670177756,0.10455830036014277]","[1,1,1]","[-0.12301527092398577,-0.08362972342546302]","[1,1,1]","[-0.07751638842880725,-0.18140973988948225]","[1,1,1]","[0.1335470473268903,0.0331702092793846]","[1,1,1]","[0.05738697373394715,-0.09879249772047187]","[1,1,1]","[-0.12976716962282125,0.019892632846334333]","[1,1,1]","[-0.021344091404919805,0.10632369590935006]","[1,1,1]","[-0.18088768409444544,-0.058051357583692245]","[1,1,1]","[-0.11692729494322901,-0.15000898305561436]","[1,1,1]","[-0.15863707664691276,0.09330599141954575]","[-1,-1,-1]","[-0.039835215430053424,-0.14747634127579967]","[1,1,1]","[0.011640800926930442,0.13378463104606814]","[1,1,1]","[0.02,0.02]",278.4307,0,40,40,209,1,,,,,,,
,,,,,,,6526a0e62c605cc42d9a52e4,682db39b28b0edef4571b5a8,2025-05-21_13h19.09.356,cuing_paradigm_dot,2024.1.5,Win32,5.452562704,682d556593cb38ad0a074487,,,,,,,,,,,278.431,278.8174,,,279.0206,279.847,left,0.6326,0.0001,,,,,,,,0.45,,,,,,278.8174,279.0206,279.8471,"[-0.08609492289454226,0.04963820341192532]","[1,1,1]","[-0.1426930345004274,0.06360992026427856]","[1,1,1]","[-0.16101817290288464,-0.09440620206914087]","[-1,-1,-1]","[-0.18521159193708336,-0.03390328650596892]","[1,1,1]","[-0.07983552773804205,0.15061354220146878]","[-1,-1,-1]","[0.10267085606967756,0.15208727125660246]","[-1,-1,-1]","[0.055400370919154014,0.0980503889365626]","[-1,-1,-1]","[-0.03023403374733758,-0.19470695333110533]","[1,1,1]","[0.15980371738657717,0.08872911884361577]","[-1,-1,-1]","[0.0239070846005058,-0.04095363387370432]","[1,1,1]","[0.11894896624510232,0.007089742636235182]","[-1,-1,-1]","[0.00956340777363096,0.057115091224975316]","[1,1,1]","[-0.008069818883693472,0.006732656680528306]","[-1,-1,-1]","[0.08473420935272744,-0.1621523502597323]","[1,1,1]","[-0.10461591412828533,-0.06218014528409243]","[-1,-1,-1]","[0.013205520216263167,-0.12021804158698877]","[1,1,1]","[0.005686696720017208,0.1275603915224112]","[-1,-1,-1]","[0.12144793606643403,-0.11345269935971121]","[-1,-1,-1]","[-0.024675708531293798,-0.05219822738946357]","[1,1,1]","[0.048652598484426726,-0.07384655784530722]","[1,1,1]","[-0.09075872902864997,0.0003935890553339748]","[1,1,1]","[0.16150634515065654,-0.04707537244940962]","[1,1,1]","[0.10042413461910078,0.10937642918240144]","[-1,-1,-1]","[0.04225807842287783,-0.15050118883463176]","[-1,-1,-1]","[-0.02130818789936098,0.17255896740566587]","[-1,-1,-1]","[-0.03728374763744651,0.1220890722321449]","[-1,-1,-1]","[0.06261940179529,0.006061850832850599]","[1,1,1]","[-0.13245435763786836,0.11003463828597627]","[-1,-1,-1]","[-0.1148070642587505,-0.14567119476580606]","[-1,-1,-1]","[-0.044386300702807836,-0.10301598259544696]","[-1,-1,-1]","[0.08729342926675637,0.04263620453816201]","[1,1,1]","[0.19796404709642051,-0.018090468413293426]","[-1,-1,-1]","[0.02,0.02]",280.9874,0,41,41,81,1,,,,,,,
,,,,,,,6526a0e62c605cc42d9a52e4,682db39b28b0edef4571b5a8,2025-05-21_13h19.09.356,cuing_paradigm_dot,2024.1.5,Win32,5.452562704,682d556593cb38ad0a074487,,,,,,,,,,,280.9877,281.3689,,,281.5706,282.4022,left,0.6247,0.0002,,,,,,,,0.1,,,,,,281.3689,281.5705,282.4022,"[0.10677399957497762,0.05053463788961664]","[-1,-1,-1]","[0.018979070924734796,0.018484888478525537]","[-1,-1,-1]","[-0.061727534025168125,0.14629542374268453]","[-1,-1,-1]","[-0.08158563906206139,0.025553871594244413]","[-1,-1,-1]","[-0.1824502257266286,-0.06685596727169128]","[-1,-1,-1]","[-0.027753965162252987,0.045937972884982387]","[-1,-1,-1]","[0.01227685283419799,0.1565717868903188]","[-1,-1,-1]","[0.051147014244619655,-0.13394659078083426]","[-1,-1,-1]","[-0.12729573326763713,0.09310193180211859]","[1,1,1]","[0.07730782594920062,-0.0572423034954723]","[-1,-1,-1]","[-0.1002194817933627,-0.06653973509690163]","[-1,-1,-1]","[0.06947960018762342,0.1620626842303311]","[-1,-1,-1]","[0.15363221974979968,0.09803405662075351]","[-1,-1,-1]","[-0.06853423807018105,-0.1282534486620073]","[-1,-1,-1]","[-0.1402881169542472,-0.06068265848618003]","[-1,-1,-1]","[0.07736124598803817,0.08281368048451322]","[-1,-1,-1]","[0.08572962662141956,-0.1549335630616632]","[-1,-1,-1]","[0.1764443089608999,0.03809937952101464]","[-1,-1,-1]","[0.030376638017124376,-0.19011053829709892]","[-1,-1,-1]","[-0.06935093219589186,-0.019362460509611046]","[1,1,1]","[-0.0186646432292825,-0.13455659088364544]","[-1,-1,-1]","[0.024376664300453925,-0.06709619002672845]","[-1,-1,-1]","[0.14087592734287946,-0.018996705614122693]","[-1,-1,-1]","[0.04947326688769969,0.1148408824588946]","[-1,-1,-1]","[0.1783443758558168,-0.06137370055369892]","[-1,-1,-1]","[-0.05419139691373526,-0.18962493606842248]","[-1,-1,-1]","[-0.1694921616028836,-0.0045277183850079075]","[-1,-1,-1]","[-0.11248757036962602,0.14637391139098824]","[1,1,1]","[0.12436127953884704,-0.1410677193453045]","[-1,-1,-1]","[-0.016765705808407014,-0.08276927903991574]","[-1,-1,-1]","[-0.07462864495816025,0.09263569959013669]","[-1,-1,-1]","[0.11781460426728349,-0.06249381290518854]","[-1,-1,-1]","[0.02,0.02]",283.5541,0,42,42,5,1,,,,,,,
,,,,,,,6526a0e62c605cc42d9a52e4,682db39b28b0edef4571b5a8,2025-05-21_13h19.09.356,cuing_paradigm_dot,2024.1.5,Win32,5.452562704,682d556593cb38ad0a074487,,,,,,,,,,,283.5544,283.9282,,,284.1191,285.3392,left,1.0289,,,,,,,,,0.4,,,,,,283.9282,284.1191,285.3392,"[0.169273712013162,-0.06464451623353402]","[-1,-1,-1]","[0.03594405263986509,-0.18477775392901613]","[1,1,1]","[-0.15781356104141117,0.05169689588292821]","[-1,-1,-1]","[-0.15626910754677154,0.12240021706575077]","[1,1,1]","[-0.13598650307826093,-0.07401363024990125]","[-1,-1,-1]","[0.1223280115153168,-0.025605866671967795]","[1,1,1]","[0.012776458049455043,0.0825987235946991]","[-1,-1,-1]","[0.05321517235581661,-0.0423318772438379]","[-1,-1,-1]","[0.11800477198057684,-0.11643115391638524]","[-1,-1,-1]","[0.07747205797609419,0.12114994822262344]","[1,1,1]","[-0.03306635442390618,0.05425876986325876]","[-1,-1,-1]","[-0.08462797266012276,0.13777407169353062]","[1,1,1]","[0.1262265420293679,0.14592333861158066]","[1,1,1]","[0.09017401430042508,0.010814217144949232]","[1,1,1]","[0.14428831131043315,0.05225327653008992]","[1,1,1]","[0.09051450684954868,0.07499145253208273]","[1,1,1]","[-0.0889492826250781,-0.03201040906905941]","[-1,-1,-1]","[0.0031327376845393233,-0.15605922677393846]","[1,1,1]","[-0.13548178106897166,-0.1381451050711805]","[-1,-1,-1]","[-0.035094884639701944,0.1941816070076335]","[-1,-1,-1]","[-0.0024145823125914156,0.0077856163587800365]","[-1,-1,-1]","[0.19513165301008142,-0.02751212026869493]","[-1,-1,-1]","[-0.06381072572798481,-0.07934788121882441]","[1,1,1]","[-0.10870574161958496,0.10549126020736227]","[-1,-1,-1]","[0.14426697967420918,0.09341010319368599]","[-1,-1,-1]","[0.05460770012059428,-0.13132642727103655]","[-1,-1,-1]","[-0.008321639996460217,-0.07222262191288431]","[-1,-1,-1]","[-0.05773603161209179,-0.12153464986284801]","[1,1,1]","[-0.16504055761615366,-0.028766153890107286]","[1,1,1]","[-0.058420457403910296,-0.17298108671784543]","[-1,-1,-1]","[-0.05686585023957497,0.01117582534967251]","[-1,-1,-1]","[0.004146317447856306,0.1536246817885045]","[-1,-1,-1]","[0.02,0.02]",286.4726,0,43,43,30,1,,,,,,,
,,,,,,,6526a0e62c605cc42d9a52e4,682db39b28b0edef4571b5a8,2025-05-21_13h19.09.356,cuing_paradigm_dot,2024.1.5,Win32,5.452562704,682d556593cb38ad0a074487,,,,,,,,,,,286.4731,286.8578,,,287.0598,287.8897,right,0.6346,,,,,,,,,0.9,,,,,,286.8578,287.0597,287.8897,"[-0.07636043430739871,0.10932789609112868]","[1,1,1]","[-0.06937824666348467,-0.06753034829801473]","[1,1,1]","[-0.0065226271050940095,-0.12573733293901515]","[1,1,1]","[0.02907503879936688,-0.05680359545273459]","[1,1,1]","[-0.008614540305150062,-0.16624288558234712]","[1,1,1]","[0.12166457395961709,0.026878871745407033]","[1,1,1]","[-0.09408566246594394,-0.14361712786236008]","[1,1,1]","[-0.16912026117055087,-0.08908507926986371]","[1,1,1]","[-0.014911912129305215,0.17028531769888472]","[1,1,1]","[0.09203392808460042,-0.031178803142125462]","[1,1,1]","[0.09275324106583197,0.16873034521291655]","[1,1,1]","[-0.07137815840659453,0.02340840709008077]","[1,1,1]","[-0.022620976720135737,-0.07210261981257932]","[-1,-1,-1]","[0.1382159326548237,-0.13425560071186052]","[1,1,1]","[-0.16097292896722096,0.1005185695774041]","[1,1,1]","[-0.10340496705906088,0.0754373778839832]","[1,1,1]","[0.17967717601515218,0.01192408614699154]","[1,1,1]","[-0.07938159668876324,0.15827563794907337]","[1,1,1]","[-0.10990693112456995,0.012425974551512967]","[1,1,1]","[-0.054017813141594734,-0.140352713387938]","[-1,-1,-1]","[-0.15160345526315522,0.0032180831167575373]","[1,1,1]","[-0.09083132321237936,-0.022976283425285886]","[-1,-1,-1]","[0.11062334999628226,-0.08333344905017268]","[1,1,1]","[0.07313582328028892,0.06336189234175468]","[1,1,1]","[0.012295521820638965,0.010288362835050718]","[1,1,1]","[0.15812149877938786,-0.05057080004455233]","[1,1,1]","[0.13086100619451585,0.12586781311322612]","[1,1,1]","[0.03371160506137273,-0.1914529870719384]","[1,1,1]","[-0.02978917485141958,0.04275575161469474]","[1,1,1]","[-0.18260798216294835,-0.0399952746523259]","[1,1,1]","[-0.13435706618516222,-0.050973930022748484]","[1,1,1]","[-0.022317089242963353,0.11853733434144771]","[1,1,1]","[0.02,0.02]",288.8841,0,44,44,202,1,,,,,,,
