right,left,explain.started,explain.stopped,key_resp_3.keys,key_resp_3.rt,key_resp_3.duration,participant,session,date,expName,psychopyVersion,OS,frameRate,study_id,explain_2.started,explain_2.stopped,key_resp_4.keys,key_resp_4.rt,key_resp_4.duration,explain_3.started,explain_3.stopped,key_resp_5.keys,key_resp_5.rt,key_resp_5.duration,fixation.started,fixation.stopped,practice.started,practice.stopped,response.started,response.stopped,key_resp.keys,key_resp.rt,key_resp.duration,feedback.started,feedback.stopped,trials_2.thisRepN,trials_2.thisTrialN,trials_2.thisN,trials_2.thisIndex,trials_2.ran,white_ratio,explain_4.started,explain_4.stopped,key_resp_6.keys,key_resp_6.rt,key_resp_6.duration,dotDisplay.started,dotDisplay.stopped,ITI.started,polygon_1.pos,polygon_1.color,polygon_2.pos,polygon_2.color,polygon_3.pos,polygon_3.color,polygon_4.pos,polygon_4.color,polygon_5.pos,polygon_5.color,polygon_6.pos,polygon_6.color,polygon_7.pos,polygon_7.color,polygon_8.pos,polygon_8.color,polygon_9.pos,polygon_9.color,polygon_10.pos,polygon_10.color,polygon_11.pos,polygon_11.color,polygon_12.pos,polygon_12.color,polygon_13.pos,polygon_13.color,polygon_14.pos,polygon_14.color,polygon_15.pos,polygon_15.color,polygon_16.pos,polygon_16.color,polygon_17.pos,polygon_17.color,polygon_18.pos,polygon_18.color,polygon_19.pos,polygon_19.color,polygon_20.pos,polygon_20.color,polygon_21.pos,polygon_21.color,polygon_22.pos,polygon_22.color,polygon_23.pos,polygon_23.color,polygon_24.pos,polygon_24.color,polygon_25.pos,polygon_25.color,polygon_26.pos,polygon_26.color,polygon_27.pos,polygon_27.color,polygon_28.pos,polygon_28.color,polygon_29.pos,polygon_29.color,polygon_30.pos,polygon_30.color,polygon_31.pos,polygon_31.color,polygon_32.pos,polygon_32.color,dot_size,ITI.stopped,trials.thisRepN,trials.thisTrialN,trials.thisN,trials.thisIndex,trials.ran,break_2.started,break_2.stopped,trials_3.thisRepN,trials_3.thisTrialN,trials_3.thisN,trials_3.thisIndex,trials_3.ran
subject chose white,subject chose black,0.0001,94.8737,space,79.8605,,65b9564041e20d793a9c0195,682db3b1ad879a3b02bc4ef5,2025-05-21_13h12.25.239,cuing_paradigm_dot,2024.1.5,MacIntel,59.88023952,682d556593cb38ad0a074487,,,,,,,,,,,,,,,,,,,,,,,,,,,,,,,,,,,,,,,,,,,,,,,,,,,,,,,,,,,,,,,,,,,,,,,,,,,,,,,,,,,,,,,,,,,,,,,,,,,,,,,,,,,,,,,,,
,,,,,,,65b9564041e20d793a9c0195,682db3b1ad879a3b02bc4ef5,2025-05-21_13h12.25.239,cuing_paradigm_dot,2024.1.5,MacIntel,59.88023952,682d556593cb38ad0a074487,94.8739,170.9757,space,46.0894,,,,,,,,,,,,,,,,,,,,,,,,,,,,,,,,,,,,,,,,,,,,,,,,,,,,,,,,,,,,,,,,,,,,,,,,,,,,,,,,,,,,,,,,,,,,,,,,,,,,,,,,,,,,,
,,,,,,,65b9564041e20d793a9c0195,682db3b1ad879a3b02bc4ef5,2025-05-21_13h12.25.239,cuing_paradigm_dot,2024.1.5,MacIntel,59.88023952,682d556593cb38ad0a074487,,,,,,170.9759,180.8606,space,6.8668,,,,,,,,,,,,,,,,,,,,,,,,,,,,,,,,,,,,,,,,,,,,,,,,,,,,,,,,,,,,,,,,,,,,,,,,,,,,,,,,,,,,,,,,,,,,,,,,,,,,,,,,
,,,,,,,65b9564041e20d793a9c0195,682db3b1ad879a3b02bc4ef5,2025-05-21_13h12.25.239,cuing_paradigm_dot,2024.1.5,MacIntel,59.88023952,682d556593cb38ad0a074487,,,,,,,,,,,180.8837,181.3759,181.3762,181.6263,181.6264,182.2101,right,0.554900001,,182.2102,183.3093,0,0,0,0,1,0.8,,,,,,,,,,,,,,,,,,,,,,,,,,,,,,,,,,,,,,,,,,,,,,,,,,,,,,,,,,,,,,,,,,,,,,,,,,,,,,,,,,,,,,
,,,,,,,65b9564041e20d793a9c0195,682db3b1ad879a3b02bc4ef5,2025-05-21_13h12.25.239,cuing_paradigm_dot,2024.1.5,MacIntel,59.88023952,682d556593cb38ad0a074487,,,,,,,,,,,183.3098,183.81,183.8101,184.0605,184.0606,184.3101,left,0.232799999,,184.3101,185.4091,0,1,1,1,1,0.2,,,,,,,,,,,,,,,,,,,,,,,,,,,,,,,,,,,,,,,,,,,,,,,,,,,,,,,,,,,,,,,,,,,,,,,,,,,,,,,,,,,,,,
,,,,,,,65b9564041e20d793a9c0195,682db3b1ad879a3b02bc4ef5,2025-05-21_13h12.25.239,cuing_paradigm_dot,2024.1.5,MacIntel,59.88023952,682d556593cb38ad0a074487,,,,,,,,,,,,,,,,,,,,,,,,,,,,185.4096,212.6446,space,24.2056,,,,,,,,,,,,,,,,,,,,,,,,,,,,,,,,,,,,,,,,,,,,,,,,,,,,,,,,,,,,,,,,,,,,,,,,,,,,,,,,,,
,,,,,,,65b9564041e20d793a9c0195,682db3b1ad879a3b02bc4ef5,2025-05-21_13h12.25.239,cuing_paradigm_dot,2024.1.5,MacIntel,59.88023952,682d556593cb38ad0a074487,,,,,,,,,,,212.6585,213.1599,,,213.4114,213.6443,right,0.2173,,,,,,,,,0.55,,,,,,213.1601,213.4113,213.6446,"[-0.15624182635519676,-0.0746171685704541]","[1,1,1]","[0.08534115271522755,0.05152390899872399]","[1,1,1]","[-0.014163466650563564,0.0015285047144208818]","[-1,-1,-1]","[0.0825539924921041,0.09989556760340042]","[-1,-1,-1]","[-0.03727747058540743,-0.11611465270093779]","[1,1,1]","[0.12149931173213854,0.07291163327775248]","[1,1,1]","[-0.10210961654372797,-0.12101948386287108]","[-1,-1,-1]","[-0.0727852022145983,0.13980143513732077]","[-1,-1,-1]","[0.15990557398996696,-0.05760084282306471]","[1,1,1]","[-0.025257335846666513,0.18701897803740486]","[1,1,1]","[0.08549943939734776,-0.16506332054722764]","[-1,-1,-1]","[0.05731690707028107,-0.06481969618153985]","[1,1,1]","[0.035542212529308094,-0.13902922789940575]","[-1,-1,-1]","[0.006013037359385177,-0.0656687174387427]","[-1,-1,-1]","[-0.179156506865676,0.07634926754613372]","[-1,-1,-1]","[-0.18247736934426878,0.0285551934061188]","[1,1,1]","[0.12397039998905794,-0.12140196709219678]","[1,1,1]","[-0.11489110169419582,0.14273475065271893]","[1,1,1]","[-0.0133178617383508,-0.152032228347547]","[-1,-1,-1]","[0.015511718068106764,0.04075097484946462]","[-1,-1,-1]","[0.12068148574048508,-0.004359014086842279]","[1,1,1]","[0.034563188965771846,0.12176986943637644]","[1,1,1]","[-0.1427051936072921,0.013428704422842682]","[1,1,1]","[-0.046112825060476426,-0.07187956515922478]","[-1,-1,-1]","[0.03543868522352721,-0.022910658389170908]","[1,1,1]","[-0.03148961440634575,0.08870045891581772]","[1,1,1]","[0.16662960873535929,0.041413724168857614]","[1,1,1]","[-0.11193194596063191,0.06787496924943172]","[-1,-1,-1]","[-0.170765078578649,-0.03490438797842174]","[1,1,1]","[0.07621010279532459,-0.12435468901005885]","[-1,-1,-1]","[0.06808669196841946,0.15992182717973596]","[1,1,1]","[-0.071827454760799,-0.03347431752325306]","[-1,-1,-1]","[0.02,0.02]",214.7444,0,0,0,127,1,,,,,,,
,,,,,,,65b9564041e20d793a9c0195,682db3b1ad879a3b02bc4ef5,2025-05-21_13h12.25.239,cuing_paradigm_dot,2024.1.5,MacIntel,59.88023952,682d556593cb38ad0a074487,,,,,,,,,,,214.7449,215.2443,,,215.4946,216.2267,right,0.7168,,,,,,,,,0.55,,,,,,215.2443,215.4946,216.2267,"[-0.09492891084991642,-0.14797352671755315]","[1,1,1]","[-0.15746387817959423,-0.026310347191643043]","[-1,-1,-1]","[-0.02989366397384945,0.053902190013678394]","[1,1,1]","[-0.03377731818964726,0.1409410647058746]","[-1,-1,-1]","[0.012366152746469001,0.05672348133772169]","[-1,-1,-1]","[0.16470573372788763,0.043598245501728534]","[1,1,1]","[0.12241762179901239,-0.06987041145983686]","[-1,-1,-1]","[-0.1477050770147534,0.10548861149285882]","[1,1,1]","[0.09689628302871263,-0.11542229842761378]","[1,1,1]","[-0.1148273791390749,-0.07222971201171034]","[1,1,1]","[-0.08446359748147661,0.012012659962404516]","[-1,-1,-1]","[0.1595768886646166,-0.09381310994509927]","[-1,-1,-1]","[0.02242697843593351,-0.013133791798900922]","[-1,-1,-1]","[0.00983784646032005,0.15437775323439612]","[1,1,1]","[-0.17168662031004345,-0.09076763916615378]","[1,1,1]","[-0.06147220979181969,0.09442123623992434]","[1,1,1]","[0.057647325050496634,0.056769942554945524]","[1,1,1]","[0.16153942394656165,0.11532737816268396]","[1,1,1]","[0.0596796578054862,-0.1853430959703924]","[1,1,1]","[-0.032819123938954475,0.19047502428382193]","[-1,-1,-1]","[0.04435448678377681,-0.1102811052132458]","[-1,-1,-1]","[-0.15147522312068942,0.03930734472822275]","[1,1,1]","[0.1698478346201667,-0.03497644255094617]","[1,1,1]","[0.06037367796990475,-0.05467680119094036]","[-1,-1,-1]","[0.05895421453167089,0.10269908328259054]","[1,1,1]","[0.06326004531387769,-0.010159097902271534]","[-1,-1,-1]","[-0.10369305303565422,0.048823151478913654]","[-1,-1,-1]","[0.0700388158454111,0.15063657957185164]","[-1,-1,-1]","[-0.10627492709962581,0.10800198233483743]","[1,1,1]","[0.1130420986036604,0.16076799526783037]","[-1,-1,-1]","[-0.03670929358220584,-0.14189447227534951]","[1,1,1]","[-0.06964273159622772,-0.04426847076104544]","[1,1,1]","[0.02,0.02]",217.3277,0,1,1,139,1,,,,,,,
,,,,,,,65b9564041e20d793a9c0195,682db3b1ad879a3b02bc4ef5,2025-05-21_13h12.25.239,cuing_paradigm_dot,2024.1.5,MacIntel,59.88023952,682d556593cb38ad0a074487,,,,,,,,,,,217.328,217.8277,,,218.0771,218.6107,left,0.5173,,,,,,,,,0.55,,,,,,217.8277,218.0771,218.6107,"[0.05321331926682448,-0.18518266765600522]","[-1,-1,-1]","[-0.01046893529071965,-0.16025875658171296]","[-1,-1,-1]","[0.16220301702790546,0.11393795770300719]","[1,1,1]","[-0.11737574953120918,-0.11086171740787447]","[-1,-1,-1]","[0.0005086397428257687,0.024127416553407468]","[-1,-1,-1]","[0.05164552019164912,-0.04114656838481297]","[1,1,1]","[-0.1312195378118797,0.06899113521411213]","[-1,-1,-1]","[0.057863822363738895,0.07251000599160401]","[1,1,1]","[-0.03991463489231459,0.061401559805064065]","[-1,-1,-1]","[-0.061051819589662236,-0.1504648828972763]","[1,1,1]","[0.10701121474024526,-0.15071805162255683]","[1,1,1]","[-0.03098875384548707,-0.10016431282081263]","[-1,-1,-1]","[0.1953493082665919,-0.035117798202651436]","[1,1,1]","[0.011963366893175507,0.15543038925481614]","[1,1,1]","[-0.02251439368200534,0.10232778363612434]","[1,1,1]","[-0.11375085711163618,0.03147486331188366]","[1,1,1]","[0.12405984632939245,0.00001840720091628029]","[1,1,1]","[-0.05605628719733334,-0.016979394141937096]","[1,1,1]","[0.1328862011650845,-0.06522152215387518]","[-1,-1,-1]","[-0.17364707468621543,-0.02503923433991112]","[1,1,1]","[-0.00010770806823990219,-0.07381786807311079]","[1,1,1]","[-0.07922531016418283,0.1781759354362954]","[1,1,1]","[0.14322340732506356,-0.10780547038141784]","[-1,-1,-1]","[0.07433074021139098,-0.08049359104691477]","[-1,-1,-1]","[0.06601690584466674,0.11849028990819901]","[1,1,1]","[-0.12664780612485846,-0.012918076570663866]","[-1,-1,-1]","[0.03493685739575289,-0.10792526720914002]","[1,1,1]","[-0.11182647368326007,-0.15654353638788548]","[1,1,1]","[-0.09211817747034598,0.12560311283758452]","[1,1,1]","[0.08823885218580389,0.036014732877307526]","[-1,-1,-1]","[0.021628159882768824,0.0921333347193105]","[-1,-1,-1]","[-0.007536046679263738,-0.022765604047664683]","[-1,-1,-1]","[0.02,0.02]",219.7101,0,2,2,121,1,,,,,,,
,,,,,,,65b9564041e20d793a9c0195,682db3b1ad879a3b02bc4ef5,2025-05-21_13h12.25.239,cuing_paradigm_dot,2024.1.5,MacIntel,59.88023952,682d556593cb38ad0a074487,,,,,,,,,,,219.7105,220.2111,,,220.4604,220.9438,right,0.4667,,,,,,,,,0.55,,,,,,220.2111,220.4604,220.9438,"[-0.1356517624180753,0.119094581068157]","[1,1,1]","[0.01721561616151808,0.10289074532926823]","[-1,-1,-1]","[0.0639983826082341,0.06995181423821106]","[1,1,1]","[0.08341401376035888,-0.0684718458586164]","[-1,-1,-1]","[-0.19882795383922713,-0.010574779786963822]","[-1,-1,-1]","[-0.017009005370366717,-0.185055575324797]","[1,1,1]","[0.14906958366974377,-0.12798453797901013]","[-1,-1,-1]","[-0.06144190972167252,-0.0589798332640881]","[1,1,1]","[0.028856668427032883,0.18733922996254104]","[-1,-1,-1]","[-0.03625342692936977,-0.13514505935921767]","[-1,-1,-1]","[-0.1296243382457413,0.0684135351735157]","[1,1,1]","[0.004853633981615866,-0.020972743678172572]","[-1,-1,-1]","[0.13889967403464912,-0.0193643145188475]","[1,1,1]","[-0.18817298526332704,0.0435856799241025]","[1,1,1]","[0.1289654049279651,0.08578046710423307]","[1,1,1]","[-0.09355360459401514,0.13601423732334758]","[1,1,1]","[-0.0899376380407011,0.06292908751976425]","[1,1,1]","[0.1541809033483566,0.04011170640784193]","[-1,-1,-1]","[-0.17457622616463128,0.09403969320548343]","[1,1,1]","[0.1739165568978745,0.08583078517078682]","[-1,-1,-1]","[-0.09629756614524165,-0.08652729759974333]","[1,1,1]","[-0.012947867817902213,0.18093295345461388]","[1,1,1]","[0.01757346879062475,0.035619417595764674]","[-1,-1,-1]","[0.058855631205374986,-0.01695581467030227]","[-1,-1,-1]","[-0.06954672302250091,-0.019591643270168643]","[1,1,1]","[0.09603246492206903,-0.12989017936932445]","[-1,-1,-1]","[0.07516369724000083,0.1664500877224614]","[1,1,1]","[-0.17072501869992823,-0.08654102674104427]","[1,1,1]","[0.04257573436043938,-0.1481749118307834]","[-1,-1,-1]","[0.040854221225400354,-0.10235073521093051]","[1,1,1]","[-0.036288773857091706,0.04565285358973103]","[1,1,1]","[-0.049241232540627636,0.0871955109041155]","[-1,-1,-1]","[0.02,0.02]",222.0435,0,3,3,126,1,,,,,,,
,,,,,,,65b9564041e20d793a9c0195,682db3b1ad879a3b02bc4ef5,2025-05-21_13h12.25.239,cuing_paradigm_dot,2024.1.5,MacIntel,59.88023952,682d556593cb38ad0a074487,,,,,,,,,,,222.0438,222.5444,,,222.7947,223.1101,left,0.300599999,,,,,,,,,0.1,,,,,,222.5445,222.7947,223.1101,"[0.134414516853939,-0.01959042569636301]","[-1,-1,-1]","[0.040292427440913464,0.0014204758474849963]","[-1,-1,-1]","[-0.036686286820552194,-0.18543621648209288]","[-1,-1,-1]","[-0.1721788355842323,-0.06648722589527722]","[-1,-1,-1]","[-0.10167838973531107,-0.015449847588588096]","[-1,-1,-1]","[0.09866736983958449,0.004028449065347397]","[-1,-1,-1]","[0.08601613070209857,-0.11272979628142019]","[-1,-1,-1]","[0.04410325104962515,0.09079162993753559]","[-1,-1,-1]","[-0.1629606392220799,-0.11588191156808016]","[1,1,1]","[-0.06219219955474901,0.18788352603406167]","[-1,-1,-1]","[-0.17799009756304332,0.027169432963349567]","[-1,-1,-1]","[-0.02322541642881021,0.033708931999609115]","[-1,-1,-1]","[0.00387921352289999,0.12333579098630731]","[-1,-1,-1]","[0.06311111463098806,0.15004738438387072]","[-1,-1,-1]","[0.1646093613414078,-0.060334642080076974]","[-1,-1,-1]","[0.05308336904512368,-0.15078494773068554]","[-1,-1,-1]","[0.10860679753011986,0.10483575044506611]","[-1,-1,-1]","[-0.05217741804865908,0.07132677611229804]","[-1,-1,-1]","[-0.18460391647987678,-0.023230643649650582]","[-1,-1,-1]","[0.04248305856726348,0.19251750754518285]","[-1,-1,-1]","[-0.11630047447076619,0.10658533681559479]","[-1,-1,-1]","[-0.005483155737007044,-0.11673768819303768]","[1,1,1]","[-0.11563511313945082,-0.09246397910282056]","[-1,-1,-1]","[-0.1565317339859517,0.11525925267541318]","[1,1,1]","[0.18956575107889076,0.0006642860606379025]","[-1,-1,-1]","[0.09376764708175131,-0.16756749503150378]","[-1,-1,-1]","[0.12890442473499383,0.14032260509947406]","[-1,-1,-1]","[-0.009739570994044263,-0.07440399434041194]","[-1,-1,-1]","[0.016036683444219334,-0.03537287039463948]","[-1,-1,-1]","[0.16322516840115422,0.06891675970767125]","[-1,-1,-1]","[-0.09529363605140388,-0.14271468288244227]","[-1,-1,-1]","[-0.1388889034016128,0.008351065935809598]","[-1,-1,-1]","[0.02,0.02]",224.2103,0,4,4,19,1,,,,,,,
,,,,,,,65b9564041e20d793a9c0195,682db3b1ad879a3b02bc4ef5,2025-05-21_13h12.25.239,cuing_paradigm_dot,2024.1.5,MacIntel,59.88023952,682d556593cb38ad0a074487,,,,,,,,,,,224.2105,224.7102,,,224.9607,225.427,right,0.4552,,,,,,,,,0.55,,,,,,224.7103,224.9606,225.4271,"[-0.02555953196348382,0.10629280893662746]","[1,1,1]","[-0.1349755808492124,0.0273041819550067]","[1,1,1]","[-0.020200973700393723,-0.013259980461590232]","[-1,-1,-1]","[0.02411093416111803,-0.18522888636901116]","[-1,-1,-1]","[0.16854265348682673,-0.05537007881699543]","[1,1,1]","[0.07011806864238639,0.054147291707924976]","[-1,-1,-1]","[-0.03361314459535306,-0.06719384085152216]","[1,1,1]","[0.05955421965866628,-0.0036011592989115665]","[1,1,1]","[0.0570079014189857,-0.09712475304392884]","[-1,-1,-1]","[0.05688704623439711,0.0920935431134256]","[1,1,1]","[0.15765134402391173,0.06255578239975679]","[1,1,1]","[-0.052335733252043604,0.02159314521122709]","[-1,-1,-1]","[-0.12471818612265968,-0.11911035867768857]","[1,1,1]","[-0.1593304962625864,-0.056796034637452315]","[-1,-1,-1]","[0.18187232389492575,0.02643162590871221]","[1,1,1]","[0.1168427703541826,-0.03700392332781479]","[1,1,1]","[0.01559263476494522,0.18797425788424932]","[1,1,1]","[-0.09844848664679239,-0.16179815862002822]","[-1,-1,-1]","[0.02129737686445309,-0.12787585153419878]","[1,1,1]","[0.018036654459821666,0.04342568972502369]","[1,1,1]","[-0.12087569924283273,0.13948737269720216]","[1,1,1]","[-0.08285193562337445,0.11271682382325715]","[-1,-1,-1]","[-0.08978261921712011,0.05048843882483554]","[-1,-1,-1]","[-0.15529621736693022,0.10821429855838896]","[-1,-1,-1]","[0.13190725854678037,0.09645299161753716]","[-1,-1,-1]","[0.15565777341669265,-0.11085531569175312]","[-1,-1,-1]","[0.02272170255101362,-0.05020292097027689]","[-1,-1,-1]","[-0.17246186550725462,-0.018760738548594703]","[1,1,1]","[-0.03486606633356974,-0.12053755802214568]","[-1,-1,-1]","[0.05567658180541956,0.18544043267088017]","[1,1,1]","[-0.13190865494986698,-0.01299766586923377]","[1,1,1]","[-0.07260898663438929,-0.09884177062264346]","[1,1,1]","[0.02,0.02]",226.527,0,5,5,135,1,,,,,,,
,,,,,,,65b9564041e20d793a9c0195,682db3b1ad879a3b02bc4ef5,2025-05-21_13h12.25.239,cuing_paradigm_dot,2024.1.5,MacIntel,59.88023952,682d556593cb38ad0a074487,,,,,,,,,,,226.5273,227.028,,,227.2783,227.6945,right,0.4058,,,,,,,,,0.55,,,,,,227.028,227.2782,227.6945,"[-0.08338456239983545,0.1797400162180845]","[-1,-1,-1]","[-0.10170624779625097,-0.14970947936023485]","[1,1,1]","[0.07265496123553199,-0.07563924049817727]","[-1,-1,-1]","[-0.14151277394299888,0.08155273027150506]","[1,1,1]","[0.061888971123011755,0.05690986082577135]","[-1,-1,-1]","[-0.1941429312938742,-0.016695213886698496]","[-1,-1,-1]","[-0.1441028087519492,-0.04058037004099058]","[1,1,1]","[-0.04568780742299288,0.12706481750742007]","[1,1,1]","[0.0029529257314555362,-0.04459831376754807]","[1,1,1]","[-0.10852258377848023,0.12781473830914544]","[-1,-1,-1]","[0.03335281660999082,-0.0879515977436504]","[-1,-1,-1]","[0.0563871946492455,0.10994568996603048]","[1,1,1]","[-0.06732813379883117,0.02155561790336332]","[-1,-1,-1]","[0.03747727817276721,0.1654733554368553]","[-1,-1,-1]","[0.1021389372001551,0.1304084136171064]","[1,1,1]","[-0.10732211951560838,0.03561345342318158]","[1,1,1]","[-0.07780260023601426,-0.055956208852792975]","[-1,-1,-1]","[0.18187982812800133,-0.06587746393407203]","[1,1,1]","[-0.006246994085383627,0.07288837444528272]","[-1,-1,-1]","[0.11468380799528756,0.08558574335021973]","[1,1,1]","[0.032668004704449444,-0.13576118223265524]","[-1,-1,-1]","[0.07456638669248261,0.002626257944889117]","[1,1,1]","[-0.03909074594527592,0.18762061404989294]","[1,1,1]","[0.1646020608229169,-0.01391735360090485]","[1,1,1]","[-0.019031524148111087,-0.1979187929884562]","[1,1,1]","[0.13729218567259802,-0.05004014062985371]","[1,1,1]","[-0.0485161449244271,-0.16855746949872]","[-1,-1,-1]","[-0.08267425109706897,0.08417063247071348]","[1,1,1]","[0.07866432377475857,-0.12517164926433838]","[-1,-1,-1]","[-0.14804794302836619,0.019398780028233663]","[-1,-1,-1]","[0.010576917298223692,0.11505400306671597]","[1,1,1]","[-0.19247640478768002,0.03151060865758185]","[1,1,1]","[0.02,0.02]",228.794,0,6,6,129,1,,,,,,,
,,,,,,,65b9564041e20d793a9c0195,682db3b1ad879a3b02bc4ef5,2025-05-21_13h12.25.239,cuing_paradigm_dot,2024.1.5,MacIntel,59.88023952,682d556593cb38ad0a074487,,,,,,,,,,,228.7943,229.2946,,,229.5451,230.0781,right,0.5225,,,,,,,,,0.6,,,,,,229.2946,229.5451,230.0782,"[-0.16368400871486163,0.08759176708108035]","[-1,-1,-1]","[0.1021814675469929,0.12173854751144482]","[1,1,1]","[-0.10299424806269658,-0.1590277285295022]","[1,1,1]","[-0.1716674909363084,0.040967801120237124]","[-1,-1,-1]","[-0.06463569713392031,0.15375545398807697]","[1,1,1]","[-0.060456780636138185,-0.04786189098893133]","[1,1,1]","[-0.069493993587586,0.10285280571475705]","[1,1,1]","[-0.02761016101982951,0.061879852422552804]","[-1,-1,-1]","[-0.11889994212339332,0.14257402272431713]","[1,1,1]","[0.02133991922689194,0.07606393719570417]","[-1,-1,-1]","[0.03186659175655681,0.14746562051801274]","[1,1,1]","[-0.006549869091107038,0.12237031535063335]","[1,1,1]","[0.1695336033954203,-0.011658222182295244]","[-1,-1,-1]","[-0.008466746842220608,-0.05105001969597035]","[-1,-1,-1]","[0.029886447494933337,0.011669435738860055]","[1,1,1]","[-0.10297929494369586,-0.04168052480192063]","[-1,-1,-1]","[0.08417318920527338,-0.16303509154711848]","[1,1,1]","[0.04764666174407214,-0.18282777786970916]","[-1,-1,-1]","[-0.09046573111006649,0.06797496304186024]","[-1,-1,-1]","[-0.0729352994567826,0.023149256967602633]","[1,1,1]","[-0.03497975906527002,-0.11154736968867927]","[1,1,1]","[0.15419054134580315,0.10484362517372935]","[1,1,1]","[0.18282782809074288,0.06895125441684184]","[1,1,1]","[0.10737191224954859,0.08068643803741213]","[1,1,1]","[0.1357989089147122,-0.042673618869566075]","[1,1,1]","[0.06293762498541522,-0.06910558238104307]","[-1,-1,-1]","[0.027098120194955166,-0.09893458262055341]","[-1,-1,-1]","[-0.0665436745927581,-0.1782725525864974]","[1,1,1]","[0.014575750468284725,-0.15082082159361698]","[1,1,1]","[0.02774951564276867,0.19381866786782578]","[-1,-1,-1]","[0.08432130628514121,0.04175513084815456]","[1,1,1]","[0.12357859398674707,-0.09388515548362754]","[-1,-1,-1]","[0.02,0.02]",231.1781,0,7,7,157,1,,,,,,,
,,,,,,,65b9564041e20d793a9c0195,682db3b1ad879a3b02bc4ef5,2025-05-21_13h12.25.239,cuing_paradigm_dot,2024.1.5,MacIntel,59.88023952,682d556593cb38ad0a074487,,,,,,,,,,,231.1784,231.6781,,,231.9274,232.4772,right,0.534,,,,,,,,,0.5,,,,,,231.6781,231.9274,232.4773,"[-0.016075359740997577,0.07493109982726963]","[-1,-1,-1]","[-0.019493142690370852,-0.00003817768843157021]","[-1,-1,-1]","[0.015495834149248244,-0.06758495546844089]","[1,1,1]","[-0.06897704661534008,0.15304247907700966]","[1,1,1]","[0.036665157588541476,0.09307858474229491]","[-1,-1,-1]","[0.13344253963730793,-0.09900484312978551]","[1,1,1]","[0.001453119034052916,-0.16195893866779548]","[-1,-1,-1]","[0.09522395955807608,0.0668517502481851]","[-1,-1,-1]","[-0.09758145918662368,-0.12784014070434283]","[-1,-1,-1]","[0.09873746097731452,-0.01639940527266697]","[-1,-1,-1]","[-0.1403046577062709,0.05078759969868812]","[1,1,1]","[-0.0713729268106029,0.10423215779253485]","[-1,-1,-1]","[-0.1428587245233757,-0.12350633928811176]","[1,1,1]","[-0.02181230736070113,0.15737193683521]","[1,1,1]","[-0.09784089627250579,-0.039377977541692116]","[-1,-1,-1]","[0.05453768051784831,-0.1338607291268856]","[1,1,1]","[0.15266481508708962,0.06647421672742981]","[1,1,1]","[-0.1861708253818435,-0.03188803246028967]","[-1,-1,-1]","[0.09538837090097682,0.142706454284558]","[1,1,1]","[-0.06174390521128721,-0.16925652407577155]","[1,1,1]","[0.1531259299308255,0.1277794206511778]","[-1,-1,-1]","[-0.026036595737546433,-0.0935677353626595]","[1,1,1]","[-0.16403111354311442,-0.07261826880036389]","[-1,-1,-1]","[-0.04847596144652524,-0.056520734291986154]","[-1,-1,-1]","[0.1427887481862305,-0.00006733744383651769]","[1,1,1]","[0.03265832666963943,0.018421882856735763]","[-1,-1,-1]","[0.18665598133754396,-0.06919355303960113]","[1,1,1]","[-0.16616431076783453,0.011043539461263999]","[1,1,1]","[0.05520098999382996,0.17661346811981615]","[-1,-1,-1]","[-0.0995575871637198,0.015683429922112635]","[-1,-1,-1]","[0.18297731596634845,0.03501203633283984]","[1,1,1]","[0.06564130741296412,-0.057190133997292954]","[1,1,1]","[0.02,0.02]",233.5781,0,8,8,92,1,,,,,,,
,,,,,,,65b9564041e20d793a9c0195,682db3b1ad879a3b02bc4ef5,2025-05-21_13h12.25.239,cuing_paradigm_dot,2024.1.5,MacIntel,59.88023952,682d556593cb38ad0a074487,,,,,,,,,,,233.5785,234.0782,,,234.3284,234.8283,right,0.495200001,,,,,,,,,0.6,,,,,,234.0782,234.3284,234.8283,"[-0.026823295939801907,0.11042157986891361]","[1,1,1]","[-0.18282416920910036,-0.01746491457738717]","[1,1,1]","[-0.11448177487634065,-0.15835166735716924]","[-1,-1,-1]","[0.010251982290772014,-0.000559273983438024]","[-1,-1,-1]","[0.08749169454365599,-0.016699202771814387]","[1,1,1]","[0.03315398683011049,-0.14135444679013914]","[1,1,1]","[-0.11108355089245243,0.12056439444861267]","[1,1,1]","[-0.040373337881434934,-0.09757923815106392]","[-1,-1,-1]","[0.1472229940147195,0.028167379610793304]","[-1,-1,-1]","[-0.027430724329507758,-0.15263550024551395]","[1,1,1]","[-0.07234444244845029,0.016766716162352587]","[-1,-1,-1]","[0.14598646177033756,-0.030373343268701822]","[-1,-1,-1]","[-0.10944858728786915,0.0731425373857577]","[-1,-1,-1]","[-0.14883869740383987,-0.07190520175601084]","[1,1,1]","[0.14507689039463373,0.07831492338011262]","[1,1,1]","[-0.06894569933529204,-0.03197836533786253]","[1,1,1]","[0.08608658706561766,-0.11043912255265537]","[1,1,1]","[0.06611677628384034,-0.06605794358959997]","[1,1,1]","[-0.15167399231197268,0.056459345642826654]","[1,1,1]","[0.004295888171878505,-0.06545712939457127]","[1,1,1]","[-0.010404151583112808,0.042887365751287265]","[-1,-1,-1]","[0.033167791364859055,0.1554935950961892]","[-1,-1,-1]","[0.09706503574021318,0.09550970241363259]","[1,1,1]","[-0.11655326773716679,-0.017335703261389578]","[-1,-1,-1]","[0.1615927100272102,-0.1068232357337074]","[1,1,1]","[-0.057339092737342716,-0.18040472200888905]","[-1,-1,-1]","[0.029116359495448718,0.07492586510009958]","[-1,-1,-1]","[0.08841136165725258,0.0335277263226205]","[1,1,1]","[0.1988345491876954,-0.013028893922365016]","[1,1,1]","[-0.06451571402711066,0.08291264204361568]","[1,1,1]","[0.11353667142747122,-0.06308792943173287]","[-1,-1,-1]","[-0.10594252399398134,0.16955189633889892]","[1,1,1]","[0.02,0.02]",235.9271,0,9,9,161,1,,,,,,,
,,,,,,,65b9564041e20d793a9c0195,682db3b1ad879a3b02bc4ef5,2025-05-21_13h12.25.239,cuing_paradigm_dot,2024.1.5,MacIntel,59.88023952,682d556593cb38ad0a074487,,,,,,,,,,,235.9275,236.4281,,,236.6785,237.194,right,0.4998,,,,,,,,,0.6,,,,,,236.4281,236.6784,237.194,"[-0.05217053384104242,-0.12038726489280278]","[-1,-1,-1]","[0.07115218614710674,0.024193208025839158]","[-1,-1,-1]","[-0.07916378932877141,0.06069057969248182]","[1,1,1]","[-0.009771053832307511,0.06345875687801346]","[1,1,1]","[0.09731902236306038,-0.10686507521371076]","[1,1,1]","[0.000029458184536971405,0.15574710896914265]","[1,1,1]","[-0.06115658846363973,-0.05298932845785648]","[-1,-1,-1]","[0.1543363404531896,-0.008189968017861907]","[1,1,1]","[0.07625251467079186,-0.0493557439277758]","[-1,-1,-1]","[-0.031465041900060706,0.013850080817378886]","[1,1,1]","[-0.07640754310316097,0.01566170262761973]","[1,1,1]","[0.07180336217960348,0.1448349934649894]","[-1,-1,-1]","[0.018110070858605776,-0.044176117606676675]","[1,1,1]","[0.01732357996136087,0.028727511428626677]","[1,1,1]","[-0.048152285391228615,0.17250260795782035]","[1,1,1]","[0.11435479329020966,0.00355318679011867]","[1,1,1]","[0.13979748074867102,0.08059837240692591]","[1,1,1]","[-0.1209192760906937,-0.01098972259648553]","[-1,-1,-1]","[-0.05437357978729975,0.12274271415941825]","[1,1,1]","[0.07436027680673862,0.08744179547805685]","[-1,-1,-1]","[0.1321170364721072,0.12145660827982412]","[1,1,1]","[-0.12532927040212657,-0.06448586493023648]","[-1,-1,-1]","[0.13963226563908968,-0.10143270561699681]","[-1,-1,-1]","[-0.04867897846844587,-0.18583991511629147]","[1,1,1]","[-0.09254016736669325,0.1075163923066407]","[1,1,1]","[0.09530755535075061,-0.16089439637109768]","[1,1,1]","[-0.11725241193262773,-0.16077513960739426]","[1,1,1]","[-0.14100177333835995,0.04701112180721832]","[-1,-1,-1]","[0.030527234301838735,0.0977745418596752]","[-1,-1,-1]","[0.05668082270529752,-0.12115871078287002]","[-1,-1,-1]","[-0.014595209279396183,0.1130505048637095]","[1,1,1]","[0.014202368991157654,-0.1209196807808245]","[-1,-1,-1]","[0.02,0.02]",238.294,0,10,10,171,1,,,,,,,
,,,,,,,65b9564041e20d793a9c0195,682db3b1ad879a3b02bc4ef5,2025-05-21_13h12.25.239,cuing_paradigm_dot,2024.1.5,MacIntel,59.88023952,682d556593cb38ad0a074487,,,,,,,,,,,238.2943,238.794,,,239.0442,239.4604,left,0.401,,,,,,,,,0.5,,,,,,238.794,239.0442,239.4605,"[-0.02117627234588608,-0.08679808386451261]","[1,1,1]","[-0.11268147909188589,-0.0789612175310911]","[-1,-1,-1]","[-0.07094114197441581,0.030868991997332944]","[1,1,1]","[0.1314760409403271,0.015537919562598984]","[-1,-1,-1]","[-0.003110608559586943,0.13443076982516175]","[1,1,1]","[-0.06357584011355868,-0.08897948200353374]","[-1,-1,-1]","[0.05460105021389983,0.16661794125084387]","[1,1,1]","[0.0472435103752782,0.09431170685886199]","[-1,-1,-1]","[0.037796481755002595,-0.0047857173869763295]","[1,1,1]","[-0.11598410632227446,0.0502780379688871]","[1,1,1]","[0.14421614596370264,0.1301099584773708]","[-1,-1,-1]","[0.1764661404061887,-0.038924271047747844]","[-1,-1,-1]","[0.10410252064961431,-0.07779623446724934]","[-1,-1,-1]","[0.13984034325005756,-0.13549228946099665]","[-1,-1,-1]","[-0.13114774736687418,-0.12560950631470602]","[-1,-1,-1]","[-0.06408261658650746,-0.020621522320247786]","[1,1,1]","[-0.14818791272803428,0.025876460272812086]","[1,1,1]","[-0.019373033104504427,0.07562326452284752]","[-1,-1,-1]","[0.15351309191405504,0.06056899294881391]","[1,1,1]","[-0.1102023896210991,0.1371706121467462]","[1,1,1]","[-0.08292277581728458,-0.13291370272234762]","[1,1,1]","[0.09025063849480747,0.10901553454250146]","[1,1,1]","[0.02547784007852127,-0.12473058976339169]","[1,1,1]","[0.03288501683840789,0.04993223630439769]","[1,1,1]","[-0.06666417440582155,0.1279419100587435]","[1,1,1]","[0.0834390743224957,0.03466041800617128]","[-1,-1,-1]","[0.08050667088900647,-0.14151917062968689]","[1,1,1]","[-0.03378096170734546,-0.14430880062007648]","[-1,-1,-1]","[0.0836313660155736,-0.01913298515896009]","[-1,-1,-1]","[0.04693050657909917,-0.08053114632511851]","[-1,-1,-1]","[-0.01832259601181951,-0.0020291763318677596]","[-1,-1,-1]","[-0.14800648421830137,0.1137841016153519]","[-1,-1,-1]","[0.02,0.02]",240.5607,0,11,11,104,1,,,,,,,
,,,,,,,65b9564041e20d793a9c0195,682db3b1ad879a3b02bc4ef5,2025-05-21_13h12.25.239,cuing_paradigm_dot,2024.1.5,MacIntel,59.88023952,682d556593cb38ad0a074487,,,,,,,,,,,240.561,241.0616,,,241.3115,241.6782,left,0.3503,,,,,,,,,0.4,,,,,,241.0616,241.3115,241.6782,"[0.12085898761299314,0.043561252939344076]","[1,1,1]","[0.038303214452056616,0.14164759088280912]","[-1,-1,-1]","[-0.05092340598367832,0.07729149775142316]","[-1,-1,-1]","[-0.09445128203617396,-0.15857449213749866]","[-1,-1,-1]","[0.0873604977405002,-0.11977437864870126]","[-1,-1,-1]","[-0.0587786386180375,-0.004572811164098566]","[-1,-1,-1]","[0.03129940831029628,-0.12312260950155672]","[1,1,1]","[0.038583709068939646,0.08993843723994879]","[-1,-1,-1]","[-0.015461806123162546,0.1881577574613469]","[-1,-1,-1]","[-0.12557364573430604,-0.010458385456909539]","[1,1,1]","[0.017529468894358535,-0.04416477015278714]","[-1,-1,-1]","[0.15496259029155712,-0.06548991331045123]","[1,1,1]","[0.09302002290268366,0.13237617367069418]","[1,1,1]","[-0.04163029494158783,-0.04073916656184223]","[1,1,1]","[-0.017140607827157855,0.016199626696128636]","[1,1,1]","[0.06995472627479232,-0.03201647987958731]","[-1,-1,-1]","[0.16580107340978067,0.05252898203326631]","[-1,-1,-1]","[0.05703147475186702,0.18572930451900238]","[1,1,1]","[-0.051833815546675564,0.14925110501552072]","[1,1,1]","[-0.13032673132209213,0.07606484331723842]","[-1,-1,-1]","[-0.08597719304819526,-0.10105358382921274]","[1,1,1]","[0.09243730593308613,0.08288151143759141]","[-1,-1,-1]","[0.14110011788989918,-0.13068936153022978]","[-1,-1,-1]","[0.17478398052096608,-0.018432889592581353]","[-1,-1,-1]","[-0.03213945547976986,-0.09165417104766624]","[-1,-1,-1]","[-0.1615026508093119,0.0411192589400647]","[-1,-1,-1]","[-0.09775898689977898,0.046305026019739064]","[1,1,1]","[-0.18763283201304193,-0.05047542779327284]","[-1,-1,-1]","[0.07699429039004066,-0.07149168587582935]","[-1,-1,-1]","[0.05600372384090764,0.03317169963755782]","[1,1,1]","[0.13160011793494306,-0.013254723656498463]","[1,1,1]","[-0.11997496479841417,0.11603862188944797]","[-1,-1,-1]","[0.02,0.02]",242.7774,0,12,12,31,1,,,,,,,
,,,,,,,65b9564041e20d793a9c0195,682db3b1ad879a3b02bc4ef5,2025-05-21_13h12.25.239,cuing_paradigm_dot,2024.1.5,MacIntel,59.88023952,682d556593cb38ad0a074487,,,,,,,,,,,242.7777,243.2783,,,243.5286,244.2116,right,0.671,,,,,,,,,0.55,,,,,,243.2784,243.5285,244.2117,"[0.04799337477217744,-0.061720466642689556]","[1,1,1]","[0.0023840249977263145,0.15256662317186942]","[1,1,1]","[0.13235342952942045,0.029448377334555277]","[-1,-1,-1]","[-0.00513144625548985,-0.00640535774506493]","[1,1,1]","[-0.05270254497306532,-0.020982520418102068]","[1,1,1]","[-0.13975472788768603,0.04231761966355313]","[1,1,1]","[-0.07697786699467464,-0.10225586049101518]","[-1,-1,-1]","[0.1440442734691354,0.1339659991934062]","[1,1,1]","[-0.17109546137308962,0.09431236387562743]","[1,1,1]","[-0.12091403025839093,0.0028854223874963817]","[-1,-1,-1]","[0.14908254817981595,0.08371604903632303]","[-1,-1,-1]","[0.12397719062637122,-0.03664685631226203]","[-1,-1,-1]","[-0.18660416646145664,0.026489103250587853]","[-1,-1,-1]","[0.06366320347158883,-0.011527798169803547]","[1,1,1]","[0.053964414782864,0.08080230257693882]","[1,1,1]","[-0.10568162619056026,0.1641779675223545]","[-1,-1,-1]","[-0.05363454891813719,-0.17306067300923814]","[1,1,1]","[-0.11558675480238753,-0.15740219776566364]","[1,1,1]","[0.07397557297063963,-0.16338798613432104]","[1,1,1]","[-0.021750609477762122,-0.14869854062962165]","[1,1,1]","[0.07539977003392967,0.12318793585669487]","[1,1,1]","[-0.04826222671168612,0.07725074300790478]","[-1,-1,-1]","[0.029911689941306007,-0.10733460246956238]","[-1,-1,-1]","[0.027902926998255383,0.03516925964761265]","[-1,-1,-1]","[-0.09992138025866479,-0.051144738703272484]","[-1,-1,-1]","[-0.1390426337762482,-0.12389893483836707]","[1,1,1]","[-0.02395959403392802,0.1887051677272319]","[1,1,1]","[0.02936157269866657,-0.1754160638876052]","[1,1,1]","[0.08808761798348272,0.044929432295313466]","[-1,-1,-1]","[-0.08560779840883911,0.030888856809833495]","[-1,-1,-1]","[-0.010683797540907085,-0.0908600600915818]","[-1,-1,-1]","[0.1763753037979275,0.011649960801530225]","[1,1,1]","[0.02,0.02]",245.3117,0,13,13,133,1,,,,,,,
,,,,,,,65b9564041e20d793a9c0195,682db3b1ad879a3b02bc4ef5,2025-05-21_13h12.25.239,cuing_paradigm_dot,2024.1.5,MacIntel,59.88023952,682d556593cb38ad0a074487,,,,,,,,,,,245.312,245.8118,,,246.0612,246.4617,left,0.3843,,,,,,,,,0.1,,,,,,245.8118,246.0611,246.4618,"[0.12056519628182326,-0.12957622630915652]","[-1,-1,-1]","[0.05441704198656016,-0.07604103617139535]","[-1,-1,-1]","[0.023262859436906477,0.15597016008521147]","[-1,-1,-1]","[0.03624397575458875,-0.03490001440009811]","[-1,-1,-1]","[-0.1266386529711236,0.056861135144648765]","[-1,-1,-1]","[0.035940254942417114,0.03982768035710355]","[-1,-1,-1]","[0.09658184063465215,0.11768164378063257]","[-1,-1,-1]","[0.1575399098786854,0.07292516003094655]","[-1,-1,-1]","[-0.19255714276408092,-0.023292278711507054]","[1,1,1]","[-0.08627145785468568,-0.05263365561593115]","[-1,-1,-1]","[0.014901005689980972,0.10872826635069108]","[-1,-1,-1]","[-0.14187439137917024,-0.0020353599131270293]","[-1,-1,-1]","[-0.039684602579642334,-0.07514183941414802]","[-1,-1,-1]","[0.007009194397378685,-0.1541119481187726]","[-1,-1,-1]","[-0.021917036568199655,-0.03180951307078229]","[-1,-1,-1]","[-0.08194671496929774,0.18195751298942936]","[-1,-1,-1]","[-0.1397830845786228,-0.07478137260888214]","[-1,-1,-1]","[0.0707562077708568,-0.13198654897486076]","[1,1,1]","[-0.05073826230027127,0.0991467528333509]","[-1,-1,-1]","[-0.03395340666823195,0.037886803730465116]","[-1,-1,-1]","[-0.07848328469477642,0.13608272505978533]","[1,1,1]","[-0.017604035290660385,-0.11450559575248771]","[-1,-1,-1]","[0.012332921347764064,-0.0026480330722626084]","[-1,-1,-1]","[0.1304066162740648,0.005758037657041329]","[-1,-1,-1]","[-0.1311044277652405,-0.14303596673153185]","[-1,-1,-1]","[0.08316302730512194,-0.029621200189536276]","[-1,-1,-1]","[0.09457109951333298,0.17439303282401752]","[-1,-1,-1]","[-0.005605301110088925,0.19282136312003714]","[-1,-1,-1]","[-0.0771118758653362,-0.1573265406538004]","[-1,-1,-1]","[0.11452634180508461,0.07960075866275215]","[-1,-1,-1]","[0.13868432514847107,-0.06181011122846578]","[-1,-1,-1]","[-0.1715941023720658,0.0838432892777381]","[-1,-1,-1]","[0.02,0.02]",247.5609,0,14,14,0,1,,,,,,,
,,,,,,,65b9564041e20d793a9c0195,682db3b1ad879a3b02bc4ef5,2025-05-21_13h12.25.239,cuing_paradigm_dot,2024.1.5,MacIntel,59.88023952,682d556593cb38ad0a074487,,,,,,,,,,,247.5612,248.0618,,,248.3121,248.6451,right,0.3171,,,,,,,,,0.9,,,,,,248.0619,248.312,248.6452,"[-0.15543620993812995,0.12211372861587702]","[1,1,1]","[-0.15884146324897058,-0.08599032880792137]","[1,1,1]","[0.164053774531067,0.08241736183959177]","[1,1,1]","[-0.0647658764155,0.15324599713427292]","[1,1,1]","[0.13187538531632412,-0.10872432021964924]","[-1,-1,-1]","[0.10900116517628276,0.030554663600896485]","[-1,-1,-1]","[-0.04456639788883981,0.09379836721891484]","[1,1,1]","[-0.05034844469183953,-0.19067057155738282]","[1,1,1]","[0.006344322938094383,0.13701626186678828]","[1,1,1]","[-0.06473715461327202,-0.02197028328036853]","[1,1,1]","[-0.021598299889978488,-0.1526882827800965]","[1,1,1]","[0.00894376791743343,0.046214051989331165]","[1,1,1]","[0.10772377312725094,-0.04610900347044951]","[1,1,1]","[-0.1600471813713192,-0.03111812974381632]","[1,1,1]","[-0.14659485209595657,0.01328867650017581]","[1,1,1]","[0.06408398903326899,0.008922100694511636]","[1,1,1]","[0.15699593443582116,-0.01732679682001593]","[1,1,1]","[0.05377089499415542,0.10968399294163696]","[1,1,1]","[-0.058522255613810775,0.018138125378018996]","[1,1,1]","[0.08305128292145947,-0.10571569758070029]","[-1,-1,-1]","[0.044459085799580564,0.1730649251368436]","[1,1,1]","[0.059451534323361886,-0.16337798941867976]","[1,1,1]","[-0.06123682780782707,-0.1119014005117966]","[1,1,1]","[0.035984156250323286,-0.06379086083553383]","[1,1,1]","[-0.10958881664497594,-0.10493851199090948]","[1,1,1]","[-0.09140267669071575,-0.055678955077368204]","[1,1,1]","[0.11285774712658321,-0.1487173454165085]","[1,1,1]","[-0.14668050252427278,0.05840358563924021]","[1,1,1]","[-0.09174324056002096,0.11735120956117583]","[1,1,1]","[0.0788198886747275,0.07575517098267866]","[1,1,1]","[0.07613017578840076,0.14560539513778764]","[1,1,1]","[-0.013874857611228893,-0.027975396740445337]","[1,1,1]","[0.02,0.02]",249.7443,0,15,15,190,1,,,,,,,
,,,,,,,65b9564041e20d793a9c0195,682db3b1ad879a3b02bc4ef5,2025-05-21_13h12.25.239,cuing_paradigm_dot,2024.1.5,MacIntel,59.88023952,682d556593cb38ad0a074487,,,,,,,,,,,249.7447,250.2451,,,250.4956,250.8443,left,0.334099999,,,,,,,,,0.4,,,,,,250.2452,250.4956,250.8443,"[0.06956061551036417,0.10660260581247273]","[-1,-1,-1]","[0.17128471773890658,-0.03133576596764184]","[-1,-1,-1]","[-0.04527521292194629,-0.01209254346129816]","[1,1,1]","[0.10086560021381978,0.07887273054544168]","[1,1,1]","[0.09645615206154078,-0.127313037512078]","[1,1,1]","[0.07092181850748783,-0.024944467306015884]","[-1,-1,-1]","[-0.05695152795067902,-0.1485810900116525]","[-1,-1,-1]","[-0.05073075988417234,0.06958184620955254]","[-1,-1,-1]","[-0.12877733486508383,-0.017522250021448537]","[-1,-1,-1]","[-0.1246028892697712,0.1551508075441653]","[-1,-1,-1]","[0.1556644368371697,0.1114060911674632]","[1,1,1]","[-0.10790652476880164,-0.05405666342293442]","[-1,-1,-1]","[0.1546361501084673,-0.11744509662289793]","[1,1,1]","[-0.0742209430156372,0.17261485559290707]","[-1,-1,-1]","[-0.17545208928662295,-0.03403906676990231]","[-1,-1,-1]","[0.032657376107978704,-0.09024080322826372]","[-1,-1,-1]","[-0.1529073213495528,0.1252023761374784]","[-1,-1,-1]","[0.11772004929485418,-0.02640537867577187]","[-1,-1,-1]","[-0.11109768243015661,-0.13723411786231543]","[1,1,1]","[-0.08497763728212716,0.12409901270085937]","[-1,-1,-1]","[-0.12285765735272446,0.07365975113759028]","[-1,-1,-1]","[0.07102038024731577,-0.16207188518417343]","[-1,-1,-1]","[-0.044641149377499044,0.12091928510812552]","[1,1,1]","[-0.16904613697236817,-0.0740196519522805]","[1,1,1]","[-0.03148566658530891,0.1651068053671116]","[1,1,1]","[0.08451127615204737,0.14818793958183704]","[-1,-1,-1]","[0.019751357177979816,0.0644372568768982]","[1,1,1]","[-0.19793660233689758,0.012945823214368853]","[1,1,1]","[0.17734548892205593,0.06001480275243277]","[1,1,1]","[0.012742377367100589,-0.1839643026752841]","[-1,-1,-1]","[0.16368210516614307,0.017054986678940055]","[1,1,1]","[0.0009833979194496622,0.1017687806936561]","[-1,-1,-1]","[0.02,0.02]",251.9452,0,16,16,58,1,,,,,,,
,,,,,,,65b9564041e20d793a9c0195,682db3b1ad879a3b02bc4ef5,2025-05-21_13h12.25.239,cuing_paradigm_dot,2024.1.5,MacIntel,59.88023952,682d556593cb38ad0a074487,,,,,,,,,,,251.9455,252.4452,,,252.6946,253.0284,left,0.3175,,,,,,,,,0.4,,,,,,252.4452,252.6946,253.0284,"[-0.08079647751867435,0.1249561965332619]","[1,1,1]","[-0.0072915404574945344,0.015414694834999923]","[-1,-1,-1]","[-0.05680615349393873,0.018059555495669802]","[1,1,1]","[-0.06291646567872118,-0.08118716166149638]","[1,1,1]","[0.0302718814002774,-0.08202522169380458]","[-1,-1,-1]","[-0.11848411849510061,-0.11375258372172935]","[-1,-1,-1]","[0.14372233738247817,0.12819376448815703]","[-1,-1,-1]","[-0.06810530503161882,0.08431509902558722]","[-1,-1,-1]","[0.08339152895886,0.1336908570820293]","[1,1,1]","[0.13587959395429314,-0.10776508683219208]","[-1,-1,-1]","[-0.11477586537435334,0.007829049002853819]","[-1,-1,-1]","[0.12621756577070437,-0.012531413409069794]","[1,1,1]","[0.15341881345248268,-0.0588431719029852]","[-1,-1,-1]","[0.02652882919000413,0.06320570810087041]","[1,1,1]","[0.012491639251148257,0.142575923773456]","[-1,-1,-1]","[0.04859670899090575,-0.15744221152345847]","[1,1,1]","[0.13389570565081557,0.0759347629664879]","[1,1,1]","[-0.1862535216235554,-0.0006166545212397073]","[-1,-1,-1]","[0.17317052114373094,-0.02130902132900449]","[-1,-1,-1]","[0.08266918282240546,-0.09740362837324375]","[1,1,1]","[-0.012449171947224247,-0.15356276984256925]","[1,1,1]","[0.16864632701586688,0.03320616217284338]","[-1,-1,-1]","[0.07687010783599371,0.18433154078658603]","[1,1,1]","[-0.029149111503331947,0.167667243392094]","[-1,-1,-1]","[0.007213990881441207,-0.04068069772584457]","[1,1,1]","[0.05675340283412172,-0.008541203475468846]","[-1,-1,-1]","[0.101916656515347,0.03374790460519392]","[-1,-1,-1]","[-0.11725093603728155,0.14879636554614617]","[-1,-1,-1]","[-0.15183875963290494,-0.030741945856509755]","[-1,-1,-1]","[0.09530213719829679,-0.05584422871809811]","[-1,-1,-1]","[-0.023022837249623312,-0.07515242056685942]","[-1,-1,-1]","[-0.07970543652569334,-0.14813757839012132]","[1,1,1]","[0.02,0.02]",254.1286,0,17,17,36,1,,,,,,,
,,,,,,,65b9564041e20d793a9c0195,682db3b1ad879a3b02bc4ef5,2025-05-21_13h12.25.239,cuing_paradigm_dot,2024.1.5,MacIntel,59.88023952,682d556593cb38ad0a074487,,,,,,,,,,,254.1289,254.6286,,,254.8785,255.2277,right,0.3332,,,,,,,,,0.6,,,,,,254.6287,254.8785,255.2277,"[0.12540826183643558,0.019358800642839895]","[1,1,1]","[0.04818415752867297,-0.03623408453809335]","[1,1,1]","[-0.00521776888138826,-0.03389568386674233]","[1,1,1]","[-0.09812322280238625,-0.13773570404083496]","[1,1,1]","[-0.045260936990151636,-0.12640521423039042]","[-1,-1,-1]","[0.03288915650135853,0.013533685316199221]","[-1,-1,-1]","[0.0853423454192993,0.033299258856861705]","[1,1,1]","[0.11003538705887639,-0.0801028463666979]","[1,1,1]","[0.0049772411934861475,-0.07902317145299914]","[1,1,1]","[0.025754385185295606,0.14859096954053494]","[1,1,1]","[-0.11149500432669962,-0.003114861113293619]","[1,1,1]","[0.09016340621535103,0.1261380884358854]","[-1,-1,-1]","[-0.16395328759094502,-0.04302025187894357]","[-1,-1,-1]","[-0.12582992541604837,0.07670432880779096]","[1,1,1]","[-0.08166428184153753,0.08413913446193591]","[1,1,1]","[0.01411307285941995,-0.18538553078740097]","[-1,-1,-1]","[0.019912068151477353,-0.12542626550465505]","[1,1,1]","[-0.00561283600422201,0.03342411410017185]","[1,1,1]","[0.044735082656121576,0.10052804291161084]","[1,1,1]","[-0.14263234163403338,-0.11901322132494181]","[1,1,1]","[0.11878459949164272,-0.02333131810793143]","[-1,-1,-1]","[-0.07165962417881204,-0.09233817506679715]","[-1,-1,-1]","[0.14173497736308943,0.05788441423609286]","[1,1,1]","[-0.07182326704760729,-0.1695450352840515]","[-1,-1,-1]","[-0.08934107569794113,0.13341009631335632]","[1,1,1]","[-0.13423248485171269,0.030384471665812585]","[1,1,1]","[0.07775478480927074,-0.10525634314126205]","[-1,-1,-1]","[0.14818741431819954,-0.12393046335832432]","[-1,-1,-1]","[-0.02562755812383314,0.15825243816658455]","[-1,-1,-1]","[0.0035279884450497164,0.10032423187387868]","[-1,-1,-1]","[-0.14218560169697084,0.13606378625434198]","[-1,-1,-1]","[0.17330129086051135,-0.06825485944661663]","[1,1,1]","[0.02,0.02]",256.3279,0,18,18,177,1,,,,,,,
,,,,,,,65b9564041e20d793a9c0195,682db3b1ad879a3b02bc4ef5,2025-05-21_13h12.25.239,cuing_paradigm_dot,2024.1.5,MacIntel,59.88023952,682d556593cb38ad0a074487,,,,,,,,,,,256.3282,256.8278,,,257.079,257.6453,right,0.5506,,,,,,,,,0.55,,,,,,256.8278,257.079,257.6453,"[-0.1288821376079749,-0.053584583230895357]","[1,1,1]","[-0.17147183367862398,0.011265215936242275]","[1,1,1]","[0.03089161804622048,-0.1726645554042568]","[1,1,1]","[0.006326090343237392,0.04830488052876856]","[1,1,1]","[-0.05660039307532585,-0.0323342944139328]","[1,1,1]","[-0.08666017709720313,0.055492218938669756]","[-1,-1,-1]","[-0.030514953564654307,-0.12573215343585362]","[-1,-1,-1]","[-0.1719349077599779,-0.07500901983991838]","[1,1,1]","[0.055512020445853405,0.06849463624214887]","[-1,-1,-1]","[-0.02980597736242656,0.1522094263748637]","[1,1,1]","[0.0375952350450621,-0.06751244971040475]","[1,1,1]","[0.06182492960558533,0.1369263452595315]","[-1,-1,-1]","[0.15081464580478726,-0.009716162802935751]","[1,1,1]","[0.07979542434210496,-0.16289452796873305]","[1,1,1]","[-0.09047206713724532,0.174671948193061]","[1,1,1]","[-0.11094453411547713,0.016242475087017833]","[1,1,1]","[-0.1802967877371285,0.07964054735381387]","[1,1,1]","[0.023426690240773956,0.12327520958798735]","[1,1,1]","[0.10059330569700953,-0.12440992397233064]","[1,1,1]","[-0.19798072088814375,-0.019178142308036477]","[-1,-1,-1]","[0.07020813504825486,0.1763571858080742]","[-1,-1,-1]","[0.0864483579093756,-0.06282828308988793]","[1,1,1]","[0.14914239735934298,-0.05909534285932843]","[-1,-1,-1]","[-0.069013256541458,-0.15425938191807]","[1,1,1]","[-0.08951718304679698,-0.11698073996206153]","[-1,-1,-1]","[0.15915519153087337,-0.11148877486252821]","[1,1,1]","[-0.12216251886630634,0.09359696175896404]","[-1,-1,-1]","[0.028835139311896938,-0.11696079505374961]","[-1,-1,-1]","[0.10391374102427861,0.07611150109105737]","[-1,-1,-1]","[0.15267054013760775,0.1081841808083756]","[-1,-1,-1]","[0.05946712089263903,-0.02818266510633528]","[-1,-1,-1]","[-0.1352977108094827,-0.1045372774222508]","[-1,-1,-1]","[0.02,0.02]",258.7454,0,19,19,143,1,,,,,,,
,,,,,,,65b9564041e20d793a9c0195,682db3b1ad879a3b02bc4ef5,2025-05-21_13h12.25.239,cuing_paradigm_dot,2024.1.5,MacIntel,59.88023952,682d556593cb38ad0a074487,,,,,,,,,,,258.7457,259.2454,,,259.4957,259.8787,right,0.3708,,,,,,,,,0.6,,,,,,259.2454,259.4957,259.8787,"[-0.0627230449934736,0.07186555336845157]","[1,1,1]","[-0.1826627916696998,-0.014028244319576848]","[-1,-1,-1]","[0.16897342224568088,0.09211944854446334]","[1,1,1]","[0.019374992380165247,-0.022264974960215234]","[1,1,1]","[0.08193486510756799,-0.10626068014193694]","[-1,-1,-1]","[0.03549497404006719,-0.08217907920032985]","[1,1,1]","[0.1615392823918104,-0.045173158905649685]","[1,1,1]","[-0.01499201245271615,0.010736544404343183]","[-1,-1,-1]","[-0.035211674613831595,-0.1038954477937038]","[1,1,1]","[-0.0527467094547584,-0.1753009975015675]","[-1,-1,-1]","[0.01712117934743174,0.10232052910548053]","[1,1,1]","[-0.0743252290068147,0.01128158475685565]","[1,1,1]","[-0.11468290141400249,-0.013204287405358957]","[1,1,1]","[0.11977915889077909,0.055126070641580885]","[-1,-1,-1]","[0.16327370485526263,0.04448876934265352]","[1,1,1]","[-0.11751825840704444,0.06482696170584945]","[-1,-1,-1]","[0.10999641571449234,-0.031230278968844137]","[-1,-1,-1]","[-0.03667239360908457,-0.05728149739382344]","[-1,-1,-1]","[-0.10114983590738277,-0.11081519934360351]","[1,1,1]","[0.012313089784896003,-0.11578862801585768]","[1,1,1]","[-0.15235647011453785,0.10838593119932961]","[-1,-1,-1]","[-0.16565785396163804,-0.05320083369173824]","[1,1,1]","[0.07133297649911294,0.08660490293946801]","[-1,-1,-1]","[0.13575400896410933,-0.09260371493076587]","[-1,-1,-1]","[-0.07938045030973633,-0.051538649446381465]","[1,1,1]","[-0.1872675277574291,0.0697523813073828]","[1,1,1]","[0.045904354570676535,0.16131943962633205]","[1,1,1]","[0.11923006821018735,0.11369886388366052]","[-1,-1,-1]","[-0.07610207066334981,0.15164031029990488]","[1,1,1]","[0.13705312672595035,-0.14060701260058514]","[1,1,1]","[-0.144946658284257,0.017952763171164024]","[1,1,1]","[-0.01100139820544058,0.19133260393828688]","[-1,-1,-1]","[0.02,0.02]",260.9788,0,20,20,168,1,,,,,,,
,,,,,,,65b9564041e20d793a9c0195,682db3b1ad879a3b02bc4ef5,2025-05-21_13h12.25.239,cuing_paradigm_dot,2024.1.5,MacIntel,59.88023952,682d556593cb38ad0a074487,,,,,,,,,,,260.9791,261.4787,,,261.7291,262.1113,right,0.367299999,,,,,,,,,0.9,,,,,,261.4788,261.7291,262.1113,"[-0.1400107331761014,0.1077926102093586]","[1,1,1]","[0.013429464554339679,0.16989477690963298]","[1,1,1]","[0.025288302069267774,0.04926263078268521]","[-1,-1,-1]","[-0.1044605744493144,-0.07935187148801078]","[1,1,1]","[-0.07362301907381882,0.020093075809862124]","[1,1,1]","[0.1170280880915269,0.12991639423913331]","[1,1,1]","[-0.0826890476485761,0.09490746475338946]","[1,1,1]","[0.08481315833429437,0.17901820147654496]","[1,1,1]","[-0.06330005117516169,-0.08855746155389246]","[1,1,1]","[-0.13345141576097988,0.06640268091237664]","[1,1,1]","[-0.05491922211689024,0.1547228154586084]","[-1,-1,-1]","[0.1881952862031851,0.004091144874465392]","[1,1,1]","[-0.007305044043157203,-0.0401796274941218]","[1,1,1]","[0.12745986717192148,-0.13516448021249985]","[1,1,1]","[0.12748914641361608,-0.0817066926665601]","[1,1,1]","[0.07561310470125815,-0.015874587589180658]","[1,1,1]","[0.1435148442068276,0.04252254197051639]","[1,1,1]","[0.058592502637720055,0.11816978402708908]","[1,1,1]","[-0.08628460307765845,-0.14288772535163527]","[1,1,1]","[0.03366745509115488,-0.11241890003101405]","[1,1,1]","[0.023190080983092772,-0.19257292242423787]","[-1,-1,-1]","[-0.04011201937683642,-0.009100246328284715]","[1,1,1]","[-0.17400468081780446,0.07781062560450679]","[1,1,1]","[-0.1607162594268158,-0.0028395461404330355]","[1,1,1]","[-0.1615599963387877,-0.048472825918577225]","[1,1,1]","[0.13922449591309732,-0.02661775906311675]","[1,1,1]","[-0.014322219131156477,-0.14160996309026352]","[1,1,1]","[-0.02516071950260671,0.07430294459115211]","[1,1,1]","[-0.10074471904643716,0.13616188651061104]","[1,1,1]","[0.08092744680596882,-0.09692153175595766]","[1,1,1]","[0.1695222595136244,0.08405943204502467]","[1,1,1]","[0.17810734837503647,-0.0794897940482745]","[1,1,1]","[0.02,0.02]",263.2121,0,21,21,191,1,,,,,,,
,,,,,,,65b9564041e20d793a9c0195,682db3b1ad879a3b02bc4ef5,2025-05-21_13h12.25.239,cuing_paradigm_dot,2024.1.5,MacIntel,59.88023952,682d556593cb38ad0a074487,,,,,,,,,,,263.2125,263.7123,,,263.9617,264.4788,right,0.503799999,,,,,,,,,0.5,,,,,,263.7123,263.9617,264.4788,"[-0.010755842499553662,0.10389052171804566]","[-1,-1,-1]","[0.1156386360835613,-0.12677664636868605]","[1,1,1]","[-0.1349650694028073,0.07848048634105638]","[-1,-1,-1]","[0.07176744948895926,0.1184915118026361]","[1,1,1]","[-0.1254674031639389,-0.046015264775170484]","[-1,-1,-1]","[0.05527753900328611,-0.15752913016800793]","[1,1,1]","[-0.13805920672054378,0.13750825111443785]","[1,1,1]","[-0.05491298795746823,-0.05968546389000323]","[-1,-1,-1]","[0.050389638222638075,0.16440075210408772]","[-1,-1,-1]","[0.16973897022741227,-0.08446529191360212]","[1,1,1]","[0.1927966725879207,0.037025063762268155]","[-1,-1,-1]","[-0.06776309341420166,-0.10795037104064152]","[-1,-1,-1]","[-0.04493195274547302,-0.18234698857409995]","[1,1,1]","[0.029199412550435386,0.10193356132788811]","[1,1,1]","[0.021772619076538584,-0.18282823357721226]","[1,1,1]","[-0.023246832488180193,-0.09892441768877819]","[1,1,1]","[0.0917638822632774,0.008653919757879606]","[-1,-1,-1]","[0.1304813258231507,-0.03699193977393039]","[-1,-1,-1]","[0.11907928910169598,0.07244212204749059]","[-1,-1,-1]","[0.05851525605696939,-0.020780155624854735]","[1,1,1]","[0.023331597613740866,-0.08908882619012734]","[1,1,1]","[-0.039180108192032055,0.15846366688902902]","[1,1,1]","[-0.1680050139557962,-0.06437979635863048]","[-1,-1,-1]","[-0.0762596124676781,0.054103329225885316]","[1,1,1]","[0.13697155173017897,0.020800248548978346]","[-1,-1,-1]","[0.16211133399925093,0.08874031162765442]","[1,1,1]","[-0.1600203400374529,-0.009665236261075013]","[1,1,1]","[-0.14561412533083737,0.030080017339212367]","[-1,-1,-1]","[-0.08520079308373686,-0.03212125731681536]","[-1,-1,-1]","[0.11172804343660236,0.12160692470273614]","[-1,-1,-1]","[0.010038957924722093,-0.017463980501677825]","[1,1,1]","[-0.04794223131375229,0.08356731934984381]","[-1,-1,-1]","[0.02,0.02]",265.578,0,22,22,118,1,,,,,,,
,,,,,,,65b9564041e20d793a9c0195,682db3b1ad879a3b02bc4ef5,2025-05-21_13h12.25.239,cuing_paradigm_dot,2024.1.5,MacIntel,59.88023952,682d556593cb38ad0a074487,,,,,,,,,,,265.5784,266.0789,,,266.3283,266.6122,right,0.2667,,,,,,,,,0.9,,,,,,266.0789,266.3283,266.6122,"[0.011933650168132108,-0.14868320481068392]","[1,1,1]","[-0.15146591917320984,0.0702343545078287]","[1,1,1]","[0.0357980861468893,0.1546884376879866]","[1,1,1]","[-0.0336144358847592,-0.16757006670373387]","[1,1,1]","[-0.0956436581708877,0.035361112052373446]","[1,1,1]","[0.11968188384569751,-0.011664024936981264]","[1,1,1]","[-0.1733266929448655,0.005576017372150728]","[1,1,1]","[0.056926796675436125,0.073184640166337]","[-1,-1,-1]","[0.19581831684164586,0.011745924024045137]","[1,1,1]","[0.12183063144321496,0.1366228345700183]","[1,1,1]","[-0.07347916813540849,-0.11489067074349414]","[1,1,1]","[0.12100220810748681,-0.07176347861512383]","[1,1,1]","[0.16293340856724342,-0.022121685567080638]","[1,1,1]","[0.16563594087568675,0.08988815241402366]","[1,1,1]","[0.07501611554810177,-0.17192609660178562]","[1,1,1]","[-0.031123549766714744,0.12503067429515272]","[1,1,1]","[0.01161083649142721,0.0330538029573707]","[1,1,1]","[-0.10518686671044097,0.1663700498803893]","[1,1,1]","[-0.11214912864351255,0.10216091372353688]","[1,1,1]","[-0.06988102300168292,0.10355175214559341]","[1,1,1]","[-0.03289493000225031,-0.009965707192602147]","[1,1,1]","[-0.14366299140755312,-0.029644045873808044]","[1,1,1]","[-0.038915165428214014,0.03853431135643822]","[1,1,1]","[0.09985945166141337,-0.12588432150643883]","[-1,-1,-1]","[0.06747503492061153,0.012278339815015561]","[1,1,1]","[0.07705522588868582,-0.05144146110024225]","[1,1,1]","[-0.05838513500763347,0.18217480599912209]","[1,1,1]","[-0.15526887655546037,-0.06886996826432835]","[1,1,1]","[0.022718869914835862,-0.07124514430951744]","[1,1,1]","[-0.07231115317217995,-0.18122627334706057]","[1,1,1]","[0.041954562624445316,-0.11802716365839981]","[1,1,1]","[-0.10168922661119652,-0.04456133629976092]","[-1,-1,-1]","[0.02,0.02]",267.7123,0,23,23,198,1,,,,,,,
,,,,,,,65b9564041e20d793a9c0195,682db3b1ad879a3b02bc4ef5,2025-05-21_13h12.25.239,cuing_paradigm_dot,2024.1.5,MacIntel,59.88023952,682d556593cb38ad0a074487,,,,,,,,,,,267.7127,268.2114,,,268.4626,268.8281,right,0.3505,,,,,,,,,0.5,,,,,,268.2114,268.4625,268.8281,"[0.13363802583741322,0.1373287636596298]","[-1,-1,-1]","[-0.11379499393468004,0.1421848161622163]","[1,1,1]","[-0.1624474634759361,-0.09312437764182928]","[1,1,1]","[-0.09825099272326056,-0.12638616603861275]","[-1,-1,-1]","[0.13617910667940789,0.043302137327498186]","[1,1,1]","[0.19189246672752297,0.03010654147186934]","[-1,-1,-1]","[0.09843500386392376,0.06832475871656998]","[-1,-1,-1]","[-0.19561311985195032,0.040311092481135034]","[1,1,1]","[0.13782125789259464,-0.08123650196819292]","[1,1,1]","[-0.1409298212583167,0.06838591099588899]","[-1,-1,-1]","[0.024318496034323983,0.16748941711608786]","[1,1,1]","[0.13679637400490324,-0.012947917040739028]","[1,1,1]","[-0.054246055475301425,-0.04154538414260248]","[1,1,1]","[0.02483516497507706,-0.11169517754265108]","[1,1,1]","[0.09781187434119472,-0.06874238056181221]","[-1,-1,-1]","[-0.0077653420033709395,0.11682795621757032]","[-1,-1,-1]","[0.05516237256786443,-0.14060958232020498]","[-1,-1,-1]","[0.15746920753673344,0.09366822367595994]","[-1,-1,-1]","[-0.14088099747183852,0.020195630240235903]","[-1,-1,-1]","[0.05657169978972133,0.09918539588007876]","[1,1,1]","[0.05741577588845634,0.0024250533636073286]","[-1,-1,-1]","[0.023553658086046515,0.03068794513490427]","[1,1,1]","[-0.13736156168058633,-0.04992018975248659]","[1,1,1]","[-0.01908581912254539,-0.15046768423151358]","[1,1,1]","[0.18764580614821155,-0.03929066586333962]","[-1,-1,-1]","[0.14204365047570897,-0.13004090232392196]","[1,1,1]","[0.06153133101871747,-0.04997084955980957]","[1,1,1]","[-0.05648043212483744,0.0013547130804119714]","[-1,-1,-1]","[-0.010642463818448179,-0.04778147809504185]","[-1,-1,-1]","[-0.03802341108982433,0.15342017455206117]","[-1,-1,-1]","[-0.015179315806746755,-0.0919970968716519]","[-1,-1,-1]","[-0.07546435160189394,0.04487909983507363]","[1,1,1]","[0.02,0.02]",269.9291,0,24,24,103,1,,,,,,,
,,,,,,,65b9564041e20d793a9c0195,682db3b1ad879a3b02bc4ef5,2025-05-21_13h12.25.239,cuing_paradigm_dot,2024.1.5,MacIntel,59.88023952,682d556593cb38ad0a074487,,,,,,,,,,,269.9294,270.429,,,270.6784,271.0281,right,0.3341,,,,,,,,,0.9,,,,,,270.4291,270.6783,271.0281,"[-0.09986905291329212,0.1548062184778215]","[1,1,1]","[-0.14593744927731522,-0.10987523250845328]","[-1,-1,-1]","[-0.04350021631173032,0.09907216903985581]","[1,1,1]","[-0.14245403498324863,-0.04359884752273997]","[1,1,1]","[0.056341623283780076,0.11218437799590572]","[1,1,1]","[0.01140601304334516,0.1799160828727699]","[1,1,1]","[-0.12013089413503701,0.06621770511451304]","[1,1,1]","[-0.10328245072120203,-0.08988754822482399]","[-1,-1,-1]","[-0.06105084006306129,-0.14934817373869524]","[1,1,1]","[-0.09184713922012001,0.014851667853678863]","[1,1,1]","[0.009170956553167317,0.016590103689133773]","[1,1,1]","[0.11961624099567916,-0.14440980896297226]","[1,1,1]","[0.09529531360938129,0.12368653928486116]","[1,1,1]","[0.014492727477428254,0.07253791652342106]","[1,1,1]","[0.08555919526358707,-0.045502890919505545]","[-1,-1,-1]","[0.11862923349531429,0.051122578534797666]","[1,1,1]","[0.013959561776319506,-0.15627541659912514]","[1,1,1]","[0.189181185036755,0.011397623859647908]","[1,1,1]","[0.05056263967218651,-0.18829052260802648]","[1,1,1]","[0.049738968056364394,0.01618372166843641]","[1,1,1]","[0.13339785125907505,-0.00923667612329608]","[1,1,1]","[-0.1710881491510736,-0.012456172310886823]","[1,1,1]","[0.03550426632557273,-0.08538935933461553]","[1,1,1]","[-0.13726930140817065,0.01648541532607914]","[1,1,1]","[0.09312079080625979,0.0828396559202068]","[1,1,1]","[-0.022266277279351914,0.13988504682130187]","[1,1,1]","[0.18825437710403525,-0.0402233678226042]","[1,1,1]","[-0.07738991293240133,0.07544036417787958]","[1,1,1]","[-0.16122516256307415,0.054936366205744186]","[1,1,1]","[-0.03521361697848388,-0.051453191986746]","[1,1,1]","[0.13295395766785642,0.13722894865787308]","[1,1,1]","[-0.028092482834122617,0.04740792131523142]","[1,1,1]","[0.02,0.02]",272.1291,0,25,25,184,1,,,,,,,
,,,,,,,65b9564041e20d793a9c0195,682db3b1ad879a3b02bc4ef5,2025-05-21_13h12.25.239,cuing_paradigm_dot,2024.1.5,MacIntel,59.88023952,682d556593cb38ad0a074487,,,,,,,,,,,272.1294,272.6291,,,272.8785,273.2458,left,0.35,,,,,,,,,0.6,,,,,,272.6291,272.8785,273.2458,"[-0.032471761299872386,0.12101248219233672]","[-1,-1,-1]","[-0.004422948654526087,-0.1990715084253585]","[-1,-1,-1]","[0.03816644144805242,-0.1432824607966058]","[1,1,1]","[-0.0668720524709532,-0.05873652243431787]","[1,1,1]","[0.03078529992541324,0.06130842438003609]","[1,1,1]","[0.12300121810175557,0.015111331727012248]","[1,1,1]","[0.12309157645415808,-0.06601344575714206]","[-1,-1,-1]","[-0.07518725750708494,0.1207931059282684]","[1,1,1]","[-0.10458365641263732,-0.14111460738613657]","[1,1,1]","[0.17784270782759462,0.0009575553006966074]","[1,1,1]","[-0.17020738040016772,0.007658788445760418]","[-1,-1,-1]","[0.10479891558794743,0.08348072842221395]","[-1,-1,-1]","[-0.05009927063345506,0.06861694775740224]","[1,1,1]","[0.18767711049606842,-0.04100902648873027]","[1,1,1]","[0.07007453029996968,0.1694327672401608]","[1,1,1]","[-0.1593334537414137,-0.04370871614450031]","[-1,-1,-1]","[0.035967686270046366,-0.09306218471311604]","[1,1,1]","[-0.013330852625503336,-0.03904939283726683]","[1,1,1]","[-0.13876373591537694,-0.10029349024420971]","[1,1,1]","[-0.06635932167325156,0.17174162995281028]","[-1,-1,-1]","[0.16178820702169666,-0.11036103917364846]","[-1,-1,-1]","[0.10163596137627573,0.12904496639088867]","[1,1,1]","[-0.17481309468377523,0.09231234917974851]","[1,1,1]","[0.05390093692510588,-0.02133612848753313]","[1,1,1]","[-0.041226098279708454,-0.0076900273078514]","[-1,-1,-1]","[-0.060984056223528454,-0.1643522179517305]","[1,1,1]","[0.05849758445790624,-0.18242011462498803]","[-1,-1,-1]","[0.09763663073104764,-0.1050339239456915]","[-1,-1,-1]","[-0.13305487548533146,0.12130658707362701]","[1,1,1]","[-0.10875382547927724,0.03426291417083589]","[1,1,1]","[0.17814696515201137,0.06086660908090879]","[-1,-1,-1]","[0.10328320947613366,-0.16945421961862328]","[-1,-1,-1]","[0.02,0.02]",274.3457,0,26,26,174,1,,,,,,,
,,,,,,,65b9564041e20d793a9c0195,682db3b1ad879a3b02bc4ef5,2025-05-21_13h12.25.239,cuing_paradigm_dot,2024.1.5,MacIntel,59.88023952,682d556593cb38ad0a074487,,,,,,,,,,,274.3461,274.8459,,,275.0952,275.7791,left,0.668,,,,,,,,,0.45,,,,,,274.8459,275.0952,275.7791,"[-0.13736645442022102,0.12251393628390739]","[1,1,1]","[-0.10510000152437808,-0.14614875609787564]","[-1,-1,-1]","[0.1580369797368138,0.07923847760564734]","[1,1,1]","[0.04062706162190151,0.04361210855864175]","[1,1,1]","[0.11443551034195981,0.0035071736926882255]","[-1,-1,-1]","[0.05431396669829674,-0.004922666286791614]","[-1,-1,-1]","[-0.026344425058258708,0.13026824426976813]","[1,1,1]","[0.021957322578724257,0.1762415116492634]","[-1,-1,-1]","[-0.07704615341890851,-0.1041076168376246]","[1,1,1]","[-0.03869484400629134,-0.12399930008145572]","[-1,-1,-1]","[0.19864714554672355,0.017970074748509725]","[-1,-1,-1]","[-0.019515555162773375,0.055646860354850385]","[-1,-1,-1]","[0.14543180245588844,-0.126139452773543]","[1,1,1]","[-0.0033311792008970534,-0.037291546694448015]","[-1,-1,-1]","[0.0672678652640485,-0.11326355935853076]","[-1,-1,-1]","[0.16653350904580994,-0.019148033375333055]","[-1,-1,-1]","[0.10249231944791913,0.1591186158464491]","[-1,-1,-1]","[-0.05161175196508305,0.09341903362860947]","[-1,-1,-1]","[-0.05004843413960968,-0.18716874879165296]","[1,1,1]","[0.11083987756117353,-0.0867676100318627]","[-1,-1,-1]","[-0.1253831469771491,-0.05558802131234289]","[-1,-1,-1]","[-0.157445671311032,-0.09267196344989116]","[1,1,1]","[-0.005462313429793487,-0.15850306782567278]","[-1,-1,-1]","[0.12516994266287765,0.12213808509444177]","[1,1,1]","[-0.0323344605837177,0.193356551450483]","[-1,-1,-1]","[0.05563186773715087,-0.18202570661244524]","[1,1,1]","[0.07793246056106508,0.07150884427575083]","[1,1,1]","[0.011340982596690896,0.002302932137357679]","[1,1,1]","[-0.09072426645855276,-0.02669820724476535]","[-1,-1,-1]","[-0.18158277986042232,-0.003098679001863315]","[1,1,1]","[-0.08512493496047338,0.14378120793697513]","[1,1,1]","[-0.02530548474816695,-0.08095703639579142]","[-1,-1,-1]","[0.02,0.02]",276.8783,0,27,27,89,1,,,,,,,
,,,,,,,65b9564041e20d793a9c0195,682db3b1ad879a3b02bc4ef5,2025-05-21_13h12.25.239,cuing_paradigm_dot,2024.1.5,MacIntel,59.88023952,682d556593cb38ad0a074487,,,,,,,,,,,276.8787,277.3783,,,277.6285,278.1282,left,0.4857,,,,,,,,,0.4,,,,,,277.3783,277.6285,278.1282,"[-0.1532290842565321,-0.08641983145604]","[-1,-1,-1]","[0.02995092641953814,0.1944094350733601]","[-1,-1,-1]","[-0.0427094646031842,-0.1315727362129026]","[-1,-1,-1]","[-0.0664727236144729,0.006259313165196118]","[1,1,1]","[0.1770702414999572,0.03834947951505964]","[-1,-1,-1]","[0.1277851453217734,-0.12682946370276377]","[-1,-1,-1]","[-0.18819248881151865,0.05003023774014957]","[1,1,1]","[-0.03159887697752864,0.08992670401651116]","[-1,-1,-1]","[-0.029414083238733322,0.19428048105534335]","[1,1,1]","[-0.08007396444294201,0.15516778727425398]","[1,1,1]","[0.0857736242321144,0.042723906441582644]","[-1,-1,-1]","[-0.09616943014527098,-0.08017194020286919]","[-1,-1,-1]","[0.08797814729049705,-0.05588820825542498]","[1,1,1]","[0.07458323716406505,-0.11509212931591303]","[-1,-1,-1]","[-0.06981499172579186,-0.1737287192502483]","[-1,-1,-1]","[0.003714190139967767,-0.14166316935621012]","[-1,-1,-1]","[-0.05138171886352678,-0.09039484597352249]","[-1,-1,-1]","[0.16716153592284552,-0.09067441879167255]","[1,1,1]","[0.13098690497996918,0.033871447472737605]","[1,1,1]","[-0.13871688102778928,0.12911378801588885]","[-1,-1,-1]","[-0.1259727290107356,-0.12512779734750012]","[1,1,1]","[-0.12876216394467582,0.08316023823379459]","[-1,-1,-1]","[0.03956447037252576,0.047036029924447616]","[1,1,1]","[0.013516462650211421,-0.07951543450222073]","[1,1,1]","[0.1494561130996335,0.12149959134466887]","[-1,-1,-1]","[0.14160723006349396,-0.023396738540250376]","[1,1,1]","[0.0771939467284874,0.10074508780411687]","[1,1,1]","[-0.1879135213646308,0.0013967257423711454]","[-1,-1,-1]","[-0.08837009282918,-0.03035928234523759]","[-1,-1,-1]","[0.013226127667405333,-0.03420786044971769]","[-1,-1,-1]","[-0.09874379382165349,0.030570113825314906]","[-1,-1,-1]","[0.06788901753092469,-0.16603019626008111]","[1,1,1]","[0.02,0.02]",279.2293,0,28,28,49,1,,,,,,,
,,,,,,,65b9564041e20d793a9c0195,682db3b1ad879a3b02bc4ef5,2025-05-21_13h12.25.239,cuing_paradigm_dot,2024.1.5,MacIntel,59.88023952,682d556593cb38ad0a074487,,,,,,,,,,,279.2296,279.7284,,,279.9795,280.5126,right,0.5163,,,,,,,,,0.4,,,,,,279.7284,279.9795,280.5126,"[-0.10175358761560395,0.17179302400878435]","[-1,-1,-1]","[0.02560310552773638,0.05646518192279963]","[-1,-1,-1]","[-0.16038591050149395,0.07334031754844807]","[-1,-1,-1]","[0.1458628013266782,-0.07152543578499229]","[1,1,1]","[0.05095525782559473,0.011427190607214583]","[-1,-1,-1]","[-0.08756734569020733,-0.08967359108276529]","[-1,-1,-1]","[0.14994739880968846,-0.010537456681476749]","[-1,-1,-1]","[0.04181957164993832,-0.1795638127136666]","[1,1,1]","[-0.025110196865133733,-0.12883367889016686]","[-1,-1,-1]","[-0.05642450435623492,0.05456400331912286]","[-1,-1,-1]","[-0.13020551426060695,-0.14533460070105084]","[-1,-1,-1]","[0.07268070929625456,0.05338671197240903]","[-1,-1,-1]","[0.07108514725673161,0.12930899220526482]","[-1,-1,-1]","[0.06035894944512536,-0.05106985555934695]","[-1,-1,-1]","[0.08390128431268642,0.17269880318400757]","[-1,-1,-1]","[0.04144650042104043,-0.1097543892585192]","[1,1,1]","[-0.019749508339178237,-0.018303007289650695]","[1,1,1]","[-0.007021951427924143,0.17620970692986004]","[-1,-1,-1]","[0.17074728292893793,0.06796757625352348]","[1,1,1]","[0.07624967548731588,-0.1413053862724747]","[-1,-1,-1]","[0.10449713702084236,-0.014001721142171427]","[1,1,1]","[-0.07406202208463279,-0.15302841806498146]","[-1,-1,-1]","[-0.11157479734798538,0.006834541804626897]","[1,1,1]","[-0.053508912826718186,0.1117684839907287]","[1,1,1]","[0.14627789844666134,0.0352503063944867]","[1,1,1]","[-0.05708014492575143,-0.03649373932194892]","[1,1,1]","[-0.18711137909031253,-0.02131537853068743]","[1,1,1]","[0.006289183751872595,-0.19864462353492593]","[-1,-1,-1]","[0.15617613669627642,0.11254592912401504]","[-1,-1,-1]","[-0.1594233365142209,-0.05972700671471755]","[1,1,1]","[-0.026167049152238997,-0.1752375918299334]","[1,1,1]","[0.018064369529980986,-0.06450145795193]","[-1,-1,-1]","[0.02,0.02]",281.6118,0,29,29,37,1,,,,,,,
,,,,,,,65b9564041e20d793a9c0195,682db3b1ad879a3b02bc4ef5,2025-05-21_13h12.25.239,cuing_paradigm_dot,2024.1.5,MacIntel,59.88023952,682d556593cb38ad0a074487,,,,,,,,,,,281.6121,282.1118,,,282.3619,282.9626,left,0.5849,,,,,,,,,0.5,,,,,,282.1118,282.3619,282.9626,"[0.1457129747778305,0.0713826490616998]","[1,1,1]","[0.050801812345037625,0.08898646607126882]","[-1,-1,-1]","[-0.02707471741957564,0.08201650073932704]","[-1,-1,-1]","[-0.015776210669045096,-0.01690350510012333]","[1,1,1]","[0.015711341997222197,0.05479974356013601]","[1,1,1]","[0.07433772255563753,0.038418986034956845]","[-1,-1,-1]","[-0.025932682250448844,-0.15401869526755824]","[1,1,1]","[0.07729615240543845,0.15989079510265244]","[1,1,1]","[-0.12003367517112594,0.04688265475526948]","[-1,-1,-1]","[-0.05417239189003175,0.16626026820118303]","[1,1,1]","[0.15699847395168764,-0.07060777452893835]","[-1,-1,-1]","[-0.12238238932494336,-0.14178513734971507]","[1,1,1]","[0.19220684148430878,0.00031965576294040434]","[-1,-1,-1]","[-0.04773157832807536,-0.11890039722678063]","[-1,-1,-1]","[-0.0925476702751836,-0.17159497466012777]","[1,1,1]","[-0.002226891043558352,0.167504125674596]","[-1,-1,-1]","[0.012699014184503445,0.10560377138679264]","[1,1,1]","[-0.10943885540523175,0.15058408444013074]","[-1,-1,-1]","[-0.009296285168990316,-0.10151390191764365]","[1,1,1]","[0.13935152252684022,0.031033040523644632]","[-1,-1,-1]","[0.04929237084691261,-0.17106887592124237]","[1,1,1]","[-0.05271067936498018,-0.07776525581643896]","[-1,-1,-1]","[-0.08711379132409787,-0.03593061910715397]","[1,1,1]","[0.19230463142581547,0.04601393061272224]","[1,1,1]","[-0.18439935089022047,0.03980520924093959]","[-1,-1,-1]","[0.08087601313471995,-0.10226083051615707]","[1,1,1]","[0.10696132792927815,-0.037000692905055074]","[1,1,1]","[0.031241912442673155,-0.06678982513389115]","[-1,-1,-1]","[0.14458078488904066,0.13089316120654534]","[-1,-1,-1]","[-0.08636273278631189,0.10544117305110556]","[-1,-1,-1]","[-0.056790214688085365,-0.006116497195206979]","[1,1,1]","[0.042317351408375795,0.007582308439954289]","[-1,-1,-1]","[0.02,0.02]",284.0627,0,30,30,106,1,,,,,,,
,,,,,,,65b9564041e20d793a9c0195,682db3b1ad879a3b02bc4ef5,2025-05-21_13h12.25.239,cuing_paradigm_dot,2024.1.5,MacIntel,59.88023952,682d556593cb38ad0a074487,,,,,,,,,,,284.0631,284.5628,,,284.813,285.2294,right,0.4007,,,,,,,,,0.6,,,,,,284.5628,284.813,285.2294,"[0.002170601044929736,-0.04956632574247965]","[-1,-1,-1]","[-0.041733559856935123,0.08041644151314009]","[1,1,1]","[0.09195338435193308,-0.055915816955446555]","[1,1,1]","[0.09070383983527738,-0.10099372082384761]","[-1,-1,-1]","[0.14370459356766652,0.11488731135145379]","[1,1,1]","[-0.047332080020969385,0.14992228710429223]","[1,1,1]","[0.04920141040752058,-0.05817533955058813]","[-1,-1,-1]","[-0.13169983068267327,-0.06087983259053949]","[-1,-1,-1]","[-0.16392671242876938,0.02571019493699285]","[1,1,1]","[0.04814085042194281,-0.006054727175264609]","[-1,-1,-1]","[0.01528463758835309,0.02365804491759791]","[-1,-1,-1]","[-0.11329106317526835,-0.01946011514533242]","[-1,-1,-1]","[-0.17332532520480676,-0.08938229893788853]","[-1,-1,-1]","[0.0261363736828958,0.16676049695154224]","[-1,-1,-1]","[-0.11979499959220435,-0.10191037702239647]","[-1,-1,-1]","[0.1911554098286085,0.05558186698003351]","[1,1,1]","[-0.08383736817676189,0.10231873790685207]","[-1,-1,-1]","[0.16132216747156164,-0.03237908389363912]","[1,1,1]","[-0.03573862162171706,0.026896747430493737]","[1,1,1]","[-0.10178900635387444,-0.15687850569980494]","[1,1,1]","[0.13257222587050121,-0.0840630857294636]","[1,1,1]","[0.07395201755693616,0.07122588171464737]","[-1,-1,-1]","[-0.07616047320397512,0.18112404453470804]","[1,1,1]","[0.17340378036507145,-0.08753312798058989]","[1,1,1]","[-0.01897992760560078,-0.14899208058036356]","[1,1,1]","[-0.16963902095788277,0.08447721323843461]","[1,1,1]","[-0.04536267638493456,-0.05781677645142285]","[1,1,1]","[0.06727237451754535,0.11093780917290108]","[1,1,1]","[0.07177435367412492,-0.1464898098763688]","[1,1,1]","[-0.05435186093293335,-0.12271763975411763]","[-1,-1,-1]","[0.1440758425431798,0.02850421926355211]","[1,1,1]","[0.04884516726002764,-0.11132156288250664]","[1,1,1]","[0.02,0.02]",286.3295,0,31,31,169,1,,,,,,,
,,,,,,,65b9564041e20d793a9c0195,682db3b1ad879a3b02bc4ef5,2025-05-21_13h12.25.239,cuing_paradigm_dot,2024.1.5,MacIntel,59.88023952,682d556593cb38ad0a074487,,,,,,,,,,,286.3299,286.8294,,,287.0801,287.5129,right,0.4152,,,,,,,,,0.9,,,,,,286.8295,287.0801,287.513,"[0.0009490468725712847,0.036895733315876034]","[1,1,1]","[-0.025715724848454302,0.09994512718672227]","[1,1,1]","[0.11856855438410062,-0.0019528379543206724]","[1,1,1]","[-0.07867917075480285,0.06705882731032024]","[1,1,1]","[0.06584017183828264,0.09168363607356227]","[1,1,1]","[0.017479094035954764,-0.13160884219184069]","[-1,-1,-1]","[0.1284786900325143,0.08090437712989261]","[1,1,1]","[0.1200184332151435,-0.04520931714212679]","[1,1,1]","[0.06502974866429428,-0.004796388235343393]","[1,1,1]","[-0.10131802396515886,-0.014345566662388468]","[1,1,1]","[-0.015918519158757596,-0.02134398865512158]","[1,1,1]","[0.1253941999444722,-0.12086190595636913]","[1,1,1]","[0.004427270272235994,-0.07318042563501774]","[1,1,1]","[-0.17951041688453476,0.007185693495735788]","[1,1,1]","[-0.14164973025646,-0.08772077555530101]","[1,1,1]","[0.02181833089502001,-0.0013696421880098984]","[1,1,1]","[-0.08020579423217618,-0.06124670341778957]","[1,1,1]","[0.18565783323058543,0.022162320252453155]","[1,1,1]","[-0.06198889607514908,-0.15851897669879972]","[1,1,1]","[0.016202559223497035,0.07795055236517953]","[1,1,1]","[0.0027758077308519865,0.16502078437710385]","[1,1,1]","[0.018097171234960026,0.12537531953045955]","[1,1,1]","[0.04301479721765552,-0.05382916864521847]","[1,1,1]","[-0.13368550435425944,-0.03878199210958655]","[1,1,1]","[-0.12277267731629132,0.1364155152613152]","[-1,-1,-1]","[0.07653414469430427,-0.13835067264907353]","[1,1,1]","[0.10879269865516544,0.13943687526853835]","[1,1,1]","[0.05517053570635144,0.18920371602363184]","[1,1,1]","[-0.12081086095849942,-0.1424896280715601]","[1,1,1]","[0.17844644154674186,-0.01929227178868842]","[-1,-1,-1]","[-0.10994671317357155,0.026672786608206725]","[1,1,1]","[-0.04908163317919982,0.1348254634858909]","[1,1,1]","[0.02,0.02]",288.6129,0,32,32,207,1,,,,,,,
,,,,,,,65b9564041e20d793a9c0195,682db3b1ad879a3b02bc4ef5,2025-05-21_13h12.25.239,cuing_paradigm_dot,2024.1.5,MacIntel,59.88023952,682d556593cb38ad0a074487,,,,,,,,,,,288.6132,289.1129,,,289.3632,289.9129,right,0.5339,,,,,,,,,0.5,,,,,,289.113,289.3632,289.9129,"[-0.0978182963406619,-0.01004671692977005]","[-1,-1,-1]","[-0.10142201153787776,-0.16506107317757363]","[1,1,1]","[-0.03938940755255702,0.023594835851509708]","[1,1,1]","[0.12620769906849652,0.07223334455482537]","[1,1,1]","[-0.1208507638148876,-0.08847453589278993]","[1,1,1]","[0.05202675836513462,0.09958712201819563]","[-1,-1,-1]","[0.014484725554360504,0.17646401862564226]","[-1,-1,-1]","[0.06757462261062584,-0.02037264699308605]","[1,1,1]","[0.0013080192225816216,-0.18401534864958438]","[-1,-1,-1]","[0.1367652447486541,-0.12478438122153272]","[1,1,1]","[0.17426776932642457,-0.07979036590510237]","[-1,-1,-1]","[-0.13721684001769613,0.06862594223808303]","[1,1,1]","[0.09681673349810684,0.1390083308363925]","[1,1,1]","[-0.023778664069746838,-0.013718553314418718]","[1,1,1]","[0.15862971643255674,0.01100763243758117]","[1,1,1]","[0.022585288952121245,-0.02247758739068662]","[-1,-1,-1]","[0.0401240497458678,0.14404417133289335]","[1,1,1]","[0.010745975370556575,-0.09051094740366604]","[-1,-1,-1]","[0.04273308343667854,-0.17313270053512478]","[1,1,1]","[-0.04273290264153662,-0.18247706409252726]","[-1,-1,-1]","[-0.07387328853280378,0.10143197101304395]","[-1,-1,-1]","[-0.05121908147668444,-0.13265523728704884]","[-1,-1,-1]","[-0.06299721700749539,-0.03716753845962041]","[-1,-1,-1]","[0.013700167287957067,-0.14399356590904538]","[-1,-1,-1]","[0.07970021270881812,0.055992986030551986]","[-1,-1,-1]","[-0.1730477300559535,-0.040977185976187464]","[-1,-1,-1]","[0.001348891047735959,0.0682859466097764]","[1,1,1]","[-0.11321028923835799,0.15663781445857516]","[-1,-1,-1]","[-0.036803975280698564,0.12431953096518905]","[1,1,1]","[-0.045574163008049284,-0.07645317192157308]","[1,1,1]","[0.1351194982622169,-0.06011832686044693]","[-1,-1,-1]","[-0.17024670448746146,0.013736011726867038]","[1,1,1]","[0.02,0.02]",291.0129,0,33,33,97,1,,,,,,,
,,,,,,,65b9564041e20d793a9c0195,682db3b1ad879a3b02bc4ef5,2025-05-21_13h12.25.239,cuing_paradigm_dot,2024.1.5,MacIntel,59.88023952,682d556593cb38ad0a074487,,,,,,,,,,,291.0133,291.5129,,,291.763,292.1787,left,0.4004,,,,,,,,,0.4,,,,,,291.5129,291.763,292.1787,"[0.169905107384028,0.10236571426776647]","[-1,-1,-1]","[-0.06517630375055875,0.0493312929038622]","[-1,-1,-1]","[-0.18649647683898918,0.025631068853503306]","[-1,-1,-1]","[-0.06688297481773073,-0.16253796033394685]","[1,1,1]","[-0.11412318388907323,0.16004065152419902]","[-1,-1,-1]","[-0.11508108185438896,0.01003062279341864]","[-1,-1,-1]","[0.062089244161340644,0.14757279371195403]","[1,1,1]","[-0.17571226994074562,-0.03838890866704129]","[-1,-1,-1]","[-0.006746694671945401,-0.0470841127732614]","[-1,-1,-1]","[0.0857654958664715,0.10810258959826685]","[1,1,1]","[0.056888425499423786,-0.030693474029076538]","[-1,-1,-1]","[-0.038587546515756355,-0.10118047748731676]","[1,1,1]","[-0.017725474972932906,-0.15310110486939602]","[-1,-1,-1]","[0.15639957492469936,-0.05624797995985191]","[1,1,1]","[-0.17333207152588137,0.08726000226720136]","[-1,-1,-1]","[-0.1398686773670114,-0.12760087579192386]","[-1,-1,-1]","[-0.0060120798598710425,0.07879238212939052]","[1,1,1]","[0.11771942216784062,0.03482110507172186]","[-1,-1,-1]","[0.03630729668653943,-0.08098026049636882]","[-1,-1,-1]","[-0.05876874612986177,0.17171490651996846]","[-1,-1,-1]","[0.06923872729341117,0.06286903926013863]","[-1,-1,-1]","[0.11334906353552607,-0.12147307524180548]","[-1,-1,-1]","[0.04310762341899142,0.014568880109907747]","[1,1,1]","[0.11916411641016633,-0.07140684756808398]","[1,1,1]","[0.050533084217143226,-0.16438006943605205]","[-1,-1,-1]","[-0.15907236875715342,-0.08523218330617276]","[1,1,1]","[-0.12634103594020385,0.1201183226337747]","[1,1,1]","[-0.07027923828312443,-0.00004548080037511819]","[-1,-1,-1]","[0.023763678126781915,0.11268850050185103]","[1,1,1]","[-0.03588546731738547,0.12132851024859016]","[1,1,1]","[-0.1255988765889677,0.05724007456255517]","[1,1,1]","[-0.08463766672590088,0.11178349711950102]","[-1,-1,-1]","[0.02,0.02]",293.2789,0,34,34,55,1,,,,,,,
,,,,,,,65b9564041e20d793a9c0195,682db3b1ad879a3b02bc4ef5,2025-05-21_13h12.25.239,cuing_paradigm_dot,2024.1.5,MacIntel,59.88023952,682d556593cb38ad0a074487,,,,,,,,,,,293.2792,293.7797,,,294.0299,294.2621,right,0.222,,,,,,,,,0.9,,,,,,293.7797,294.0299,294.2621,"[0.17613076940584968,-0.06773604402823172]","[1,1,1]","[0.10781781355523233,0.16833411846342577]","[1,1,1]","[-0.02086374260964841,0.03277933048027982]","[1,1,1]","[-0.07809452599847068,-0.126040651048368]","[1,1,1]","[-0.022811778712420943,-0.1457675129121776]","[1,1,1]","[-0.1435987478746752,-0.004115709506414556]","[1,1,1]","[-0.06924792869217808,0.017462984812261863]","[1,1,1]","[-0.005492835090463124,-0.08665673116054512]","[1,1,1]","[-0.08217635789139023,0.11385939595757498]","[1,1,1]","[0.058917660235003444,-0.15698264452325653]","[1,1,1]","[0.04191977469425911,-0.04119822367160197]","[-1,-1,-1]","[-0.0503679173082909,-0.032022518122396953]","[1,1,1]","[0.03938080519843485,0.0630318812013575]","[1,1,1]","[-0.010534041323483519,0.08721419300056216]","[1,1,1]","[-0.09975589391316256,-0.04478634646273508]","[1,1,1]","[0.006942386112861934,-0.17316834509147772]","[1,1,1]","[0.09417004621102154,-0.038332044867327414]","[1,1,1]","[-0.1339522143763118,-0.13120431453806988]","[1,1,1]","[0.06333956803145915,-0.08601233596984095]","[1,1,1]","[-0.16711547591224743,0.102267798066563]","[1,1,1]","[0.13455937903959433,0.029232821641312856]","[-1,-1,-1]","[0.049593746906160176,0.16350044614556644]","[1,1,1]","[-0.06722503681632436,0.18029589474778104]","[1,1,1]","[-0.1672197052632972,-0.08100114699074222]","[1,1,1]","[0.013404071576124147,0.14382479050279448]","[1,1,1]","[0.05308843814434796,0.02145004950082307]","[1,1,1]","[-0.1476234730102158,0.055169265796616976]","[1,1,1]","[-0.19789811988822723,-0.0009499711920706731]","[1,1,1]","[-0.03636226504073872,0.12706965244256221]","[-1,-1,-1]","[-0.047200271070819956,-0.17992769456109162]","[1,1,1]","[0.18280278512918638,0.026349557266974834]","[1,1,1]","[0.128277508774429,0.10410744406551632]","[1,1,1]","[0.02,0.02]",295.3621,0,35,35,180,1,,,,,,,
,,,,,,,65b9564041e20d793a9c0195,682db3b1ad879a3b02bc4ef5,2025-05-21_13h12.25.239,cuing_paradigm_dot,2024.1.5,MacIntel,59.88023952,682d556593cb38ad0a074487,,,,,,,,,,,295.3624,295.863,,,296.1132,296.6121,left,0.4832,,,,,,,,,0.45,,,,,,295.8631,296.1132,296.6122,"[0.07278212634579836,0.0644373858541068]","[-1,-1,-1]","[0.06776898239267802,-0.011351438945349214]","[-1,-1,-1]","[0.019114087931278338,-0.001193629377144111]","[-1,-1,-1]","[-0.1825320380293098,-0.06544220601219015]","[1,1,1]","[-0.12803689447002403,0.060079951887387316]","[-1,-1,-1]","[-0.024527107825995296,0.15220536080099803]","[-1,-1,-1]","[0.1854075897739052,0.052377165844838265]","[-1,-1,-1]","[0.10016495206800724,-0.17270227988218145]","[-1,-1,-1]","[-0.07584455198101334,-0.07253258238620994]","[-1,-1,-1]","[0.09682843517252464,-0.08087990377733015]","[-1,-1,-1]","[0.029644226596167736,0.16699579509524184]","[1,1,1]","[0.020544297831831596,-0.16707213652233818]","[-1,-1,-1]","[0.15759056947990116,0.11911162647919703]","[1,1,1]","[-0.06325405512700956,0.163256831321376]","[1,1,1]","[-0.0021349619036614624,-0.11460479949715488]","[1,1,1]","[-0.02339182073828003,-0.07444108344667219]","[-1,-1,-1]","[-0.03314580855050366,-0.16073970670504736]","[1,1,1]","[-0.07463724100723779,0.07258163010860376]","[1,1,1]","[-0.13628081126782068,-0.014832114769331991]","[-1,-1,-1]","[-0.03585965605485679,0.09381881968604126]","[1,1,1]","[0.05874771292627944,-0.12345424676451694]","[-1,-1,-1]","[0.11571947625095187,-0.022666432876600816]","[1,1,1]","[0.07835595298747854,0.17930505380726836]","[1,1,1]","[0.02645546470459172,0.039232877097095595]","[1,1,1]","[0.12377738550512309,0.09324680450407014]","[-1,-1,-1]","[0.1917516750568724,-0.004274683767378824]","[1,1,1]","[-0.11863188171563327,-0.11232345246486182]","[-1,-1,-1]","[-0.086530975290531,0.11790898513640725]","[1,1,1]","[-0.14839488297498155,0.10844525369098147]","[-1,-1,-1]","[-0.021882113923547015,-0.019790001900736105]","[1,1,1]","[0.1707048420029077,-0.04984945168594145]","[-1,-1,-1]","[-0.16583607212734877,-0.10848483486317508]","[-1,-1,-1]","[0.02,0.02]",297.7122,0,36,36,85,1,,,,,,,
,,,,,,,65b9564041e20d793a9c0195,682db3b1ad879a3b02bc4ef5,2025-05-21_13h12.25.239,cuing_paradigm_dot,2024.1.5,MacIntel,59.88023952,682d556593cb38ad0a074487,,,,,,,,,,,297.7125,298.2122,,,298.4625,299.0297,right,0.554599999,,,,,,,,,0.45,,,,,,298.2123,298.4624,299.0298,"[-0.1159084105700251,-0.1603827262348846]","[-1,-1,-1]","[0.04023646449262748,-0.031567980392702075]","[-1,-1,-1]","[-0.12413716707541168,0.03374802632537817]","[1,1,1]","[0.17599655987019697,-0.034002801906159404]","[1,1,1]","[0.08240734443244517,0.16549422971299807]","[1,1,1]","[0.03107264951574061,0.06228447473993406]","[-1,-1,-1]","[0.08813972817991676,-0.08564610045950181]","[-1,-1,-1]","[-0.019459657526689877,-0.16361515040481195]","[1,1,1]","[0.11367197992784765,-0.04640241616333629]","[1,1,1]","[-0.08992032577931461,-0.024451904809488854]","[1,1,1]","[-0.16879558880989184,0.01836818555163211]","[-1,-1,-1]","[0.18363864831048857,0.05835632839900684]","[-1,-1,-1]","[0.09040837184183284,0.08370425003029974]","[-1,-1,-1]","[0.13775292088898447,0.11507293679730973]","[1,1,1]","[-0.12894937836653736,0.1380259169809925]","[-1,-1,-1]","[-0.05844261463420264,0.11250310198857294]","[-1,-1,-1]","[-0.08219070878846231,-0.1309910883674632]","[1,1,1]","[0.03786957363464379,-0.1553635730699344]","[-1,-1,-1]","[-0.15298197344985148,0.07738340070067481]","[-1,-1,-1]","[0.09646398467628828,-0.16946818874698585]","[1,1,1]","[-0.04745752894639359,-0.04861217302390288]","[1,1,1]","[0.0279601355138695,0.14377091349573606]","[1,1,1]","[-0.09649803998834856,0.09140356216440765]","[-1,-1,-1]","[-0.002907019994217543,-0.07028139255739642]","[-1,-1,-1]","[-0.0039191712448245495,0.00993131527062678]","[1,1,1]","[0.04904540486352569,0.09922517890645964]","[1,1,1]","[-0.012463782866489885,0.13981586426018464]","[-1,-1,-1]","[0.1972778996891651,0.012726797710661165]","[-1,-1,-1]","[-0.1756050656396528,-0.06497988232013432]","[-1,-1,-1]","[-0.05535382939689341,0.03343496527124541]","[1,1,1]","[-0.04033870431642566,-0.12552946902528184]","[-1,-1,-1]","[-0.06755771694500644,0.18251846725244775]","[-1,-1,-1]","[0.02,0.02]",300.129,0,37,37,77,1,,,,,,,
,,,,,,,65b9564041e20d793a9c0195,682db3b1ad879a3b02bc4ef5,2025-05-21_13h12.25.239,cuing_paradigm_dot,2024.1.5,MacIntel,59.88023952,682d556593cb38ad0a074487,,,,,,,,,,,300.1292,300.629,,,300.8792,301.3465,right,0.4506,,,,,,,,,0.6,,,,,,300.629,300.8791,301.3465,"[-0.09144467043086801,-0.16705554146094578]","[-1,-1,-1]","[0.042516860632492035,0.15361392048245284]","[1,1,1]","[-0.059413676697399505,0.009596434570206092]","[1,1,1]","[-0.09502826590423702,-0.016739746510609742]","[1,1,1]","[-0.13639692109811272,-0.12432589211873761]","[1,1,1]","[-0.10816288647175593,-0.05630104469644682]","[1,1,1]","[-0.035735601709557474,0.14228678285037727]","[-1,-1,-1]","[-0.14873180686041484,-0.07408605578964084]","[1,1,1]","[-0.02841785432825303,-0.058516665521182294]","[-1,-1,-1]","[0.01923470445067762,-0.17719052253835474]","[1,1,1]","[-0.005506076403720375,0.18452391895327946]","[1,1,1]","[0.1458660027308647,-0.08480141657865063]","[-1,-1,-1]","[0.033101969257937125,-0.11998066583323694]","[1,1,1]","[0.08965152850161699,0.12848914857226088]","[-1,-1,-1]","[-0.13207397574691224,0.13757200745461987]","[1,1,1]","[0.010143576777728201,-0.03299210875491007]","[-1,-1,-1]","[-0.1719885123394292,-0.027807544536179077]","[-1,-1,-1]","[0.054682173503832435,0.10653229366842208]","[1,1,1]","[-0.13858963556441317,0.08238776537709025]","[1,1,1]","[0.15404754768639561,-0.010151834430044507]","[-1,-1,-1]","[-0.01916927515307882,0.002164945052359513]","[1,1,1]","[-0.05496022679715873,-0.13295736496195706]","[1,1,1]","[-0.029627267115828575,-0.18568801842042654]","[1,1,1]","[0.0855838083611647,-0.034093206005777824]","[1,1,1]","[0.18178636946812782,0.02296746382705704]","[-1,-1,-1]","[0.09445245048681597,0.05411820441603465]","[1,1,1]","[0.04508085216366207,-0.07829877793436016]","[1,1,1]","[-0.012837431637989486,-0.1008245567941557]","[1,1,1]","[-0.15514748077335344,0.01670900138290648]","[-1,-1,-1]","[-0.09896233392253753,-0.10557299246231679]","[-1,-1,-1]","[0.14484914598075233,0.12974174984898854]","[-1,-1,-1]","[0.09741207274312617,-0.07607570087211062]","[-1,-1,-1]","[0.02,0.02]",302.4466,0,38,38,170,1,,,,,,,
,,,,,,,65b9564041e20d793a9c0195,682db3b1ad879a3b02bc4ef5,2025-05-21_13h12.25.239,cuing_paradigm_dot,2024.1.5,MacIntel,59.88023952,682d556593cb38ad0a074487,,,,,,,,,,,302.4468,302.9457,,,303.1969,303.6299,left,0.417099999,,,,,,,,,0.45,,,,,,302.9458,303.1969,303.6299,"[0.044884942211733225,-0.02433613858388567]","[-1,-1,-1]","[-0.0772205472257684,0.17763162647153688]","[-1,-1,-1]","[0.08938268258857107,0.04820089321033263]","[-1,-1,-1]","[-0.13009417144995192,-0.1101091304994334]","[1,1,1]","[0.033646871002357456,-0.11672231076144972]","[1,1,1]","[-0.0032344660386527968,-0.07359264219247393]","[-1,-1,-1]","[0.0834633865890812,0.14365893886493647]","[1,1,1]","[-0.16120549364992984,0.10818176309677903]","[1,1,1]","[0.04599110780681505,0.10097186442049859]","[-1,-1,-1]","[0.12940041053736326,0.1273897840161774]","[-1,-1,-1]","[-0.015128426021806696,0.07648783677947017]","[1,1,1]","[0.02230641131708282,0.053410446653315374]","[-1,-1,-1]","[0.15915786691460646,-0.03361963263749436]","[-1,-1,-1]","[0.004294193315951505,0.1862471537337406]","[-1,-1,-1]","[-0.08224140048240443,0.10693462835322246]","[1,1,1]","[0.037140616200424394,0.16104079006419664]","[1,1,1]","[-0.19587690917669123,0.029401188196589236]","[1,1,1]","[-0.08203821315647,0.04174973833585499]","[-1,-1,-1]","[0.10406048709411891,-0.11353283405090871]","[-1,-1,-1]","[-0.004498053345526559,-0.00856463336025773]","[-1,-1,-1]","[-0.03624267617556523,-0.1713546070203009]","[1,1,1]","[0.16960667996675366,0.09847177788360723]","[-1,-1,-1]","[0.18043815473746214,0.0539278721411399]","[1,1,1]","[-0.009345518376147856,-0.1161686026646985]","[-1,-1,-1]","[-0.11408219542194781,-0.15711636755963054]","[-1,-1,-1]","[-0.07015772615798847,-0.06492141674333883]","[1,1,1]","[-0.08074310351291668,-0.0019182366805597382]","[-1,-1,-1]","[-0.17690795605802678,-0.0929081907927093]","[-1,-1,-1]","[0.051960291099401326,-0.179333632407661]","[1,1,1]","[-0.0318725602130656,0.12403443480968233]","[1,1,1]","[0.10251482734340173,-0.16431383913912032]","[-1,-1,-1]","[0.1298940424858784,0.042476878665995935]","[1,1,1]","[0.02,0.02]",304.729,0,39,39,64,1,,,,,,,
,,,,,,,65b9564041e20d793a9c0195,682db3b1ad879a3b02bc4ef5,2025-05-21_13h12.25.239,cuing_paradigm_dot,2024.1.5,MacIntel,59.88023952,682d556593cb38ad0a074487,,,,,,,,,,,304.7293,305.2291,,,305.4802,305.7132,left,0.221900001,,,,,,,,,0.1,,,,,,305.2292,305.4801,305.7132,"[-0.15785574273708833,0.000260571528306431]","[-1,-1,-1]","[-0.03891418554609805,-0.06531696279203357]","[-1,-1,-1]","[0.10276729646575827,0.022961886765804202]","[-1,-1,-1]","[0.11419426569717235,0.10405587019267055]","[-1,-1,-1]","[-0.12387986971886705,0.14341481721835161]","[1,1,1]","[-0.18810615018946789,0.031507020216410914]","[-1,-1,-1]","[-0.02795650618286053,-0.02468842691277328]","[-1,-1,-1]","[0.05546379822850329,-0.012941885924282045]","[-1,-1,-1]","[-0.13866341061023763,-0.05629794843626037]","[-1,-1,-1]","[0.041287043145413135,0.15760956284160332]","[-1,-1,-1]","[-0.11523831133522523,0.09993972811958675]","[-1,-1,-1]","[0.14966576984636,-0.08524808392669517]","[-1,-1,-1]","[-0.059793744663941946,0.13759468844688824]","[-1,-1,-1]","[-0.11273824107080344,-0.1433037598992499]","[-1,-1,-1]","[0.15352280531116164,-0.12566959131081318]","[1,1,1]","[0.012062156413516871,-0.14999446725642]","[-1,-1,-1]","[0.08831265043865845,-0.13992872953747695]","[-1,-1,-1]","[0.09209772317909079,0.1639029865709434]","[-1,-1,-1]","[-0.039823154107107836,-0.16408331531624637]","[-1,-1,-1]","[0.05365463456273208,0.09337924053356761]","[1,1,1]","[-0.11795059480918972,0.01669274659368402]","[-1,-1,-1]","[-0.03434722272688267,0.10167341111818265]","[-1,-1,-1]","[0.10148120971975454,-0.020752352591421514]","[-1,-1,-1]","[0.1913068755368981,0.027592652757965554]","[-1,-1,-1]","[-0.1739856862987567,-0.09184373380049242]","[-1,-1,-1]","[0.01544096943039115,-0.0020653596346445805]","[-1,-1,-1]","[-0.0021344804565392094,0.14292317741215754]","[-1,-1,-1]","[-0.18681543885800522,-0.03887952070516299]","[-1,-1,-1]","[-0.16682490295716215,0.10733071175653561]","[-1,-1,-1]","[0.10288046988057875,-0.07799216106553594]","[-1,-1,-1]","[0.05075511153059659,-0.1739822887027996]","[-1,-1,-1]","[0.1502776757115529,0.00823168793269785]","[-1,-1,-1]","[0.02,0.02]",306.8133,0,40,40,29,1,,,,,,,
,,,,,,,65b9564041e20d793a9c0195,682db3b1ad879a3b02bc4ef5,2025-05-21_13h12.25.239,cuing_paradigm_dot,2024.1.5,MacIntel,59.88023952,682d556593cb38ad0a074487,,,,,,,,,,,306.8136,307.3133,,,307.5635,307.9967,left,0.4168,,,,,,,,,0.4,,,,,,307.3133,307.5635,307.9967,"[0.14371364747799917,-0.00006054702507200286]","[-1,-1,-1]","[0.039495691632288506,0.00013247126160586672]","[-1,-1,-1]","[0.08696488435186428,0.1033002409019926]","[1,1,1]","[0.020313023763465575,-0.049278253344697716]","[1,1,1]","[0.06144780886434087,0.14442111926078463]","[1,1,1]","[0.10677627847285084,0.1435169833294191]","[-1,-1,-1]","[0.028989670671905946,-0.12787739462195086]","[1,1,1]","[-0.08872731751903673,-0.16073481260778302]","[1,1,1]","[-0.12803304167596333,0.1290024765356404]","[-1,-1,-1]","[-0.018046580374909433,-0.1343228637991182]","[1,1,1]","[-0.06594414206964735,-0.042106706644552495]","[-1,-1,-1]","[0.10590234496657848,0.05685781544331179]","[-1,-1,-1]","[-0.13951169575665212,-0.040922760078116426]","[-1,-1,-1]","[0.06418083752920797,-0.07543395567482483]","[-1,-1,-1]","[-0.028312541753151614,-0.004392820991372761]","[-1,-1,-1]","[0.18427439389815142,0.011478732028081895]","[-1,-1,-1]","[0.017313486402764186,0.1791215089996179]","[-1,-1,-1]","[-0.09124041307013507,0.1587296427694963]","[1,1,1]","[-0.1417990775963466,-0.11998137236557185]","[-1,-1,-1]","[0.15341070937108248,-0.08567112294004353]","[1,1,1]","[-0.10467515078203657,-0.09966376021545868]","[-1,-1,-1]","[-0.1724294165265622,0.06152860333361405]","[-1,-1,-1]","[-0.19623659066080704,0.015456342067967598]","[1,1,1]","[-0.10208288111029117,0.020389002542623817]","[-1,-1,-1]","[0.024552036808381472,0.11653164367949259]","[1,1,1]","[-0.04967579918245644,0.1345078078116932]","[-1,-1,-1]","[-0.052572304946329466,-0.17929977456816762]","[-1,-1,-1]","[0.15609443474961723,0.04846485377571241]","[1,1,1]","[-0.053389740564089745,0.08598827254452925]","[-1,-1,-1]","[0.07951851981455209,-0.1749636981220114]","[1,1,1]","[-0.15236061488344035,0.0089350223375608]","[1,1,1]","[0.006502740505337534,0.05180850752053027]","[-1,-1,-1]","[0.02,0.02]",309.0961,0,41,41,47,1,,,,,,,
,,,,,,,65b9564041e20d793a9c0195,682db3b1ad879a3b02bc4ef5,2025-05-21_13h12.25.239,cuing_paradigm_dot,2024.1.5,MacIntel,59.88023952,682d556593cb38ad0a074487,,,,,,,,,,,309.0963,309.5967,,,309.8469,310.2466,right,0.3838,,,,,,,,,0.9,,,,,,309.5967,309.8469,310.2467,"[0.015142858095480294,-0.18574705502842265]","[1,1,1]","[0.15966111049294085,-0.09895162045075648]","[1,1,1]","[0.15124615112772177,0.06890165584539695]","[1,1,1]","[0.08425211039910237,-0.012705897952528399]","[1,1,1]","[0.07161852198162735,-0.09696146101514648]","[1,1,1]","[-0.06125894851565967,0.04040007718235224]","[1,1,1]","[0.008561911467842341,-0.04876186039877564]","[1,1,1]","[0.08230384652944422,0.12022134198193685]","[1,1,1]","[-0.1946556605348081,-0.0122635672577791]","[-1,-1,-1]","[-0.052584192123400014,-0.07453626773341684]","[1,1,1]","[-0.003308700175450282,-0.1256886795652625]","[1,1,1]","[-0.1513577278607691,-0.06754174097496024]","[1,1,1]","[-0.166362273208633,0.0373759130693987]","[-1,-1,-1]","[-0.106948179030781,0.13311140198313673]","[1,1,1]","[0.13303424900255076,0.014903956905027087]","[1,1,1]","[0.0551307837832047,0.17223916024951016]","[1,1,1]","[-0.006964682650001275,0.15619711750158013]","[1,1,1]","[0.15796239198968762,-0.044144523361070984]","[1,1,1]","[-0.13846375124023877,-0.13468379130108332]","[1,1,1]","[-0.017046507551914506,0.11331610152516808]","[1,1,1]","[-0.1038875767309617,0.07905369136263103]","[-1,-1,-1]","[0.028624690246186017,0.13361207914538714]","[1,1,1]","[0.02220109587251436,0.0663206065702384]","[1,1,1]","[-0.11934663833115386,0.02498739059946643]","[1,1,1]","[-0.05978604501637368,-0.00980994271329252]","[1,1,1]","[0.11225661434775135,-0.04764584101657765]","[1,1,1]","[0.18826256108733813,0.040156148626415006]","[1,1,1]","[-0.06306125349065095,0.1619405397998289]","[1,1,1]","[0.012696291837382731,0.019912462241584942]","[1,1,1]","[0.07485837412016716,-0.17120016772302335]","[1,1,1]","[-0.06953850361933224,-0.17068847181876617]","[1,1,1]","[0.0917250935022034,0.06268067711605792]","[1,1,1]","[0.02,0.02]",311.3468,0,42,42,200,1,,,,,,,
,,,,,,,65b9564041e20d793a9c0195,682db3b1ad879a3b02bc4ef5,2025-05-21_13h12.25.239,cuing_paradigm_dot,2024.1.5,MacIntel,59.88023952,682d556593cb38ad0a074487,,,,,,,,,,,311.3471,311.8468,,,312.0971,312.3636,left,0.2527,,,,,,,,,0.4,,,,,,311.8469,312.097,312.3637,"[0.08071012078851786,-0.031200732969452954]","[-1,-1,-1]","[0.022832185504494642,-0.13410603960804593]","[1,1,1]","[-0.023911678621542996,0.011115921233341822]","[-1,-1,-1]","[-0.12452755866277465,-0.1033621293221251]","[1,1,1]","[0.0894467579784177,0.07085165494394971]","[-1,-1,-1]","[0.05243384747490735,0.013479499321414031]","[-1,-1,-1]","[0.18980931723016473,0.03512675583740563]","[-1,-1,-1]","[0.02324276671060767,0.13082657505771425]","[-1,-1,-1]","[0.05770926439689258,-0.08678001393260355]","[-1,-1,-1]","[-0.1407568335994332,0.1224510841710265]","[1,1,1]","[-0.05058951997176398,-0.03262585839397052]","[1,1,1]","[-0.0054213678480705746,0.06773218943218956]","[-1,-1,-1]","[0.11028951927952206,0.16303906062042223]","[1,1,1]","[0.06837183118632749,-0.12652840149280387]","[1,1,1]","[0.03335300367731926,-0.0249580389148658]","[-1,-1,-1]","[-0.06199511209207911,0.05628358613306083]","[1,1,1]","[-0.028740712301475502,-0.15211269732579494]","[-1,-1,-1]","[-0.08948465535304191,-0.13167744568829134]","[1,1,1]","[0.18716525696439804,-0.06767283904906979]","[1,1,1]","[0.1359461688709877,-0.13300606543384938]","[-1,-1,-1]","[0.02621744806903134,-0.18005011690886213]","[-1,-1,-1]","[-0.08777561741179747,-0.07614623958634262]","[-1,-1,-1]","[0.10182277306199332,-0.16237622339697355]","[1,1,1]","[-0.029647983371492753,0.1937907739695525]","[1,1,1]","[0.14431676145837619,-0.061143150110685385]","[-1,-1,-1]","[0.17352215452613026,-0.022033985566270065]","[-1,-1,-1]","[-0.1737990197233712,0.012145671327076623]","[-1,-1,-1]","[-0.1350290268915745,0.03659537336585427]","[-1,-1,-1]","[-0.09018416056129551,0.10058875879718217]","[-1,-1,-1]","[0.07154450785097012,0.1268818342861511]","[1,1,1]","[-0.09132479573607935,0.017530422880722655]","[1,1,1]","[0.1298433822842401,0.03729771420138579]","[-1,-1,-1]","[0.02,0.02]",313.4636,0,43,43,32,1,,,,,,,
,,,,,,,65b9564041e20d793a9c0195,682db3b1ad879a3b02bc4ef5,2025-05-21_13h12.25.239,cuing_paradigm_dot,2024.1.5,MacIntel,59.88023952,682d556593cb38ad0a074487,,,,,,,,,,,313.4638,313.9634,,,314.2138,314.6967,right,0.471599999,,,,,,,,,0.5,,,,,,313.9634,314.2138,314.6968,"[-0.18522067253078278,-0.04967054453827554]","[1,1,1]","[0.029117993283420508,0.15079972311596235]","[-1,-1,-1]","[-0.05604614182950839,0.11797038030332899]","[-1,-1,-1]","[-0.0687523504372752,-0.09695518910441309]","[-1,-1,-1]","[0.17626851235569665,-0.04020523985594541]","[-1,-1,-1]","[-0.08198493603752155,-0.029502787002613967]","[1,1,1]","[-0.10364058009958271,0.11155587745701838]","[1,1,1]","[0.019090511688797357,0.08078712348581696]","[1,1,1]","[-0.12016156892612376,-0.1420311328102488]","[1,1,1]","[-0.1143756301083052,-0.0648288157754365]","[-1,-1,-1]","[0.13796767911549507,-0.09696020492321673]","[1,1,1]","[0.057007301858125824,0.029236731686877942]","[1,1,1]","[-0.16968944982554568,0.031838515402220706]","[1,1,1]","[-0.004565076983988462,0.19251503130617093]","[-1,-1,-1]","[-0.10831596914324959,0.0061708972976672275]","[-1,-1,-1]","[0.11559269026850791,-0.14414672238419912]","[1,1,1]","[-0.004427193696532602,-0.06764279865270187]","[1,1,1]","[-0.035686712805657814,0.07107209064730333]","[1,1,1]","[0.009959561577459237,0.02345432588547573]","[-1,-1,-1]","[0.11427371361254206,0.12484194351853885]","[1,1,1]","[0.044583010143960114,-0.02523142153936359]","[-1,-1,-1]","[-0.1406364166745344,0.06440258670084427]","[-1,-1,-1]","[-0.05698592068813482,-0.16675521820856276]","[1,1,1]","[0.02023869386112502,-0.1960132998346342]","[-1,-1,-1]","[0.10651444715984851,-0.04315675926014436]","[-1,-1,-1]","[-0.04688924110019973,0.03247287344094032]","[-1,-1,-1]","[-0.10018549576329167,0.0551517433287006]","[-1,-1,-1]","[0.060758859806902966,-0.06769106128134289]","[-1,-1,-1]","[-0.1322901816279732,0.14804399115672245]","[-1,-1,-1]","[-0.02535788552701738,-0.13397979197251572]","[1,1,1]","[-0.13577306287868585,-0.10179350605271481]","[1,1,1]","[0.10153926701145356,0.05697838975006647]","[1,1,1]","[0.02,0.02]",315.7967,0,44,44,93,1,,,,,,,
