right,left,explain.started,explain.stopped,key_resp_3.keys,key_resp_3.rt,key_resp_3.duration,participant,session,date,expName,psychopyVersion,OS,frameRate,study_id,explain_2.started,explain_2.stopped,key_resp_4.keys,key_resp_4.rt,key_resp_4.duration,explain_3.started,explain_3.stopped,key_resp_5.keys,key_resp_5.rt,key_resp_5.duration,fixation.started,fixation.stopped,practice.started,practice.stopped,response.started,response.stopped,key_resp.keys,key_resp.rt,key_resp.duration,feedback.started,feedback.stopped,trials_2.thisRepN,trials_2.thisTrialN,trials_2.thisN,trials_2.thisIndex,trials_2.ran,white_ratio,explain_4.started,explain_4.stopped,key_resp_6.keys,key_resp_6.rt,key_resp_6.duration,dotDisplay.started,dotDisplay.stopped,ITI.started,polygon_1.pos,polygon_1.color,polygon_2.pos,polygon_2.color,polygon_3.pos,polygon_3.color,polygon_4.pos,polygon_4.color,polygon_5.pos,polygon_5.color,polygon_6.pos,polygon_6.color,polygon_7.pos,polygon_7.color,polygon_8.pos,polygon_8.color,polygon_9.pos,polygon_9.color,polygon_10.pos,polygon_10.color,polygon_11.pos,polygon_11.color,polygon_12.pos,polygon_12.color,polygon_13.pos,polygon_13.color,polygon_14.pos,polygon_14.color,polygon_15.pos,polygon_15.color,polygon_16.pos,polygon_16.color,polygon_17.pos,polygon_17.color,polygon_18.pos,polygon_18.color,polygon_19.pos,polygon_19.color,polygon_20.pos,polygon_20.color,polygon_21.pos,polygon_21.color,polygon_22.pos,polygon_22.color,polygon_23.pos,polygon_23.color,polygon_24.pos,polygon_24.color,polygon_25.pos,polygon_25.color,polygon_26.pos,polygon_26.color,polygon_27.pos,polygon_27.color,polygon_28.pos,polygon_28.color,polygon_29.pos,polygon_29.color,polygon_30.pos,polygon_30.color,polygon_31.pos,polygon_31.color,polygon_32.pos,polygon_32.color,dot_size,ITI.stopped,trials.thisRepN,trials.thisTrialN,trials.thisN,trials.thisIndex,trials.ran,break_2.started,break_2.stopped,trials_3.thisRepN,trials_3.thisTrialN,trials_3.thisN,trials_3.thisIndex,trials_3.ran
subject chose white,subject chose black,0.0001,58.0039,space,42.9988,,65cf6d8a589a67afcab54e6f,682db40f878f18cddb9bbb1b,2025-05-21_14h11.18.400,cuing_paradigm_dot,2024.1.5,MacIntel,119.047619,682d556593cb38ad0a074487,,,,,,,,,,,,,,,,,,,,,,,,,,,,,,,,,,,,,,,,,,,,,,,,,,,,,,,,,,,,,,,,,,,,,,,,,,,,,,,,,,,,,,,,,,,,,,,,,,,,,,,,,,,,,,,,,
,,,,,,,65cf6d8a589a67afcab54e6f,682db40f878f18cddb9bbb1b,2025-05-21_14h11.18.400,cuing_paradigm_dot,2024.1.5,MacIntel,119.047619,682d556593cb38ad0a074487,58.0039,121.8552,space,33.849,,,,,,,,,,,,,,,,,,,,,,,,,,,,,,,,,,,,,,,,,,,,,,,,,,,,,,,,,,,,,,,,,,,,,,,,,,,,,,,,,,,,,,,,,,,,,,,,,,,,,,,,,,,,,
,,,,,,,65cf6d8a589a67afcab54e6f,682db40f878f18cddb9bbb1b,2025-05-21_14h11.18.400,cuing_paradigm_dot,2024.1.5,MacIntel,119.047619,682d556593cb38ad0a074487,,,,,,121.8554,128.0633,space,3.1943,,,,,,,,,,,,,,,,,,,,,,,,,,,,,,,,,,,,,,,,,,,,,,,,,,,,,,,,,,,,,,,,,,,,,,,,,,,,,,,,,,,,,,,,,,,,,,,,,,,,,,,,
,,,,,,,65cf6d8a589a67afcab54e6f,682db40f878f18cddb9bbb1b,2025-05-21_14h11.18.400,cuing_paradigm_dot,2024.1.5,MacIntel,119.047619,682d556593cb38ad0a074487,,,,,,,,,,,128.0832,128.5713,128.572,128.8213,128.8215,129.2129,left,0.3732,,129.213,130.3129,0,0,0,0,1,0.8,,,,,,,,,,,,,,,,,,,,,,,,,,,,,,,,,,,,,,,,,,,,,,,,,,,,,,,,,,,,,,,,,,,,,,,,,,,,,,,,,,,,,,
,,,,,,,65cf6d8a589a67afcab54e6f,682db40f878f18cddb9bbb1b,2025-05-21_14h11.18.400,cuing_paradigm_dot,2024.1.5,MacIntel,119.047619,682d556593cb38ad0a074487,,,,,,,,,,,130.3137,130.8127,130.8128,131.0628,131.0629,131.521,left,0.4502,,131.5211,132.6208,0,1,1,1,1,0.2,,,,,,,,,,,,,,,,,,,,,,,,,,,,,,,,,,,,,,,,,,,,,,,,,,,,,,,,,,,,,,,,,,,,,,,,,,,,,,,,,,,,,,
,,,,,,,65cf6d8a589a67afcab54e6f,682db40f878f18cddb9bbb1b,2025-05-21_14h11.18.400,cuing_paradigm_dot,2024.1.5,MacIntel,119.047619,682d556593cb38ad0a074487,,,,,,,,,,,,,,,,,,,,,,,,,,,,132.6212,141.4216,space,5.7867,,,,,,,,,,,,,,,,,,,,,,,,,,,,,,,,,,,,,,,,,,,,,,,,,,,,,,,,,,,,,,,,,,,,,,,,,,,,,,,,,,
,,,,,,,65cf6d8a589a67afcab54e6f,682db40f878f18cddb9bbb1b,2025-05-21_14h11.18.400,cuing_paradigm_dot,2024.1.5,MacIntel,119.047619,682d556593cb38ad0a074487,,,,,,,,,,,141.4362,141.9292,,,142.18,143.0962,right,0.9074,,,,,,,,,0.9,,,,,,141.9295,142.1799,143.0968,"[0.03995403430894473,0.057812214878098435]","[-1,-1,-1]","[-0.07668012686059737,-0.0614386975730677]","[1,1,1]","[-0.12990109352728288,0.005811912658339006]","[1,1,1]","[0.043647396397751136,-0.17679057759304626]","[1,1,1]","[0.15961056144213712,0.0006981950721164211]","[1,1,1]","[0.07320148969161111,0.1856872317587892]","[1,1,1]","[-0.13573320459745197,-0.1276956625853178]","[1,1,1]","[0.020179878545125814,0.13131310140345206]","[1,1,1]","[0.09844716924757305,-0.0014439018211634836]","[1,1,1]","[-0.02920635910375893,0.13290233774203977]","[1,1,1]","[0.015010339988673325,-0.021056094397028324]","[1,1,1]","[-0.03922815056514621,0.07862571361935984]","[-1,-1,-1]","[0.13569507505620362,0.1339165036635038]","[1,1,1]","[-0.03194790622415555,0.034953162228118874]","[1,1,1]","[0.13539645650037252,0.09009570790007185]","[1,1,1]","[-0.06308747509928085,-0.13472109760639916]","[1,1,1]","[-0.01485992769201856,-0.08700578069109541]","[1,1,1]","[-0.15810366702822357,-0.0924038497275968]","[1,1,1]","[0.036793840201663194,-0.05979893313467932]","[1,1,1]","[-0.1858179279138161,-0.019980580697143646]","[1,1,1]","[-0.14477971487481586,0.1142102561831181]","[1,1,1]","[0.08350416014267208,0.04402788719723437]","[1,1,1]","[-0.09450633223783662,0.13643613445988723]","[1,1,1]","[0.13572180156538502,-0.04396179927591266]","[1,1,1]","[-0.02997111270769159,-0.03192493393887175]","[1,1,1]","[-0.15607294785355402,0.06691048401626101]","[1,1,1]","[-0.08990351981728754,0.019932381588991993]","[-1,-1,-1]","[-0.11497657781863471,-0.037691717903420525]","[1,1,1]","[0.1039495841492773,-0.11805364897235208]","[1,1,1]","[0.0663107079759925,0.09256711713120698]","[1,1,1]","[0.05806126424350581,0.01051724217286865]","[1,1,1]","[-0.023862683911460805,-0.1611161150443718]","[1,1,1]","[0.02,0.02]",144.1954,0,0,0,185,1,,,,,,,
,,,,,,,65cf6d8a589a67afcab54e6f,682db40f878f18cddb9bbb1b,2025-05-21_14h11.18.400,cuing_paradigm_dot,2024.1.5,MacIntel,119.047619,682d556593cb38ad0a074487,,,,,,,,,,,144.196,144.6959,,,144.9462,145.7378,left,0.7834,,,,,,,,,0.55,,,,,,144.696,144.9461,145.7379,"[0.033044264334156685,-0.17453424712850416]","[1,1,1]","[0.019865903064521274,0.18046584218278208]","[1,1,1]","[-0.15026378548010347,-0.019374609022072643]","[1,1,1]","[0.007922984255175146,0.10192575461295665]","[1,1,1]","[0.1070562444413277,-0.0988887022948367]","[1,1,1]","[0.07584631110711072,0.1748465778639331]","[-1,-1,-1]","[0.08223688737836819,0.07674182934696851]","[1,1,1]","[-0.05155297110104936,0.15696079991902626]","[1,1,1]","[-0.0068218750064086555,0.024668937561683018]","[-1,-1,-1]","[-0.03892405765488829,-0.003340712726321328]","[-1,-1,-1]","[-0.05683246341092809,0.05545909750675472]","[-1,-1,-1]","[0.013313980936795504,-0.027806727732195204]","[1,1,1]","[-0.11129220466027598,0.05335538909116982]","[-1,-1,-1]","[-0.14502007049948673,-0.1314015384782084]","[-1,-1,-1]","[-0.09733021619332614,0.14881882827131876]","[-1,-1,-1]","[-0.1580100676219591,0.07610804558633498]","[1,1,1]","[0.02140097660283065,-0.0888323567040399]","[-1,-1,-1]","[0.04634588136586711,0.12012589628831835]","[1,1,1]","[0.13165185856670916,0.057231696782535625]","[1,1,1]","[-0.09145150347828995,-0.08349350248611424]","[-1,-1,-1]","[0.11050685237575794,-0.03629969960241134]","[1,1,1]","[-0.061662015597762604,-0.12748392528253652]","[-1,-1,-1]","[0.11847807756473049,0.013860619711667299]","[-1,-1,-1]","[-0.1455416373322001,-0.06028366399904976]","[1,1,1]","[0.18826621848244715,-0.05925178402776242]","[-1,-1,-1]","[0.16758256975807181,0.035158835049205465]","[1,1,1]","[-0.10872268812484805,-0.019022706037281976]","[1,1,1]","[0.03380728964286661,0.020771580257789034]","[-1,-1,-1]","[0.14091729151035215,-0.136692379319699]","[1,1,1]","[0.18775167435281975,-0.007138886756160956]","[1,1,1]","[0.053615193092147746,-0.04187273021826883]","[-1,-1,-1]","[-0.1899655159965656,0.0038714626256197084]","[1,1,1]","[0.02,0.02]",146.8377,0,1,1,121,1,,,,,,,
,,,,,,,65cf6d8a589a67afcab54e6f,682db40f878f18cddb9bbb1b,2025-05-21_14h11.18.400,cuing_paradigm_dot,2024.1.5,MacIntel,119.047619,682d556593cb38ad0a074487,,,,,,,,,,,146.8384,147.3376,,,147.5879,148.1546,left,0.5591,,,,,,,,,0.1,,,,,,147.3376,147.5879,148.1547,"[0.03156417512169736,-0.13778903608274126]","[-1,-1,-1]","[-0.015165602245746045,0.15678096743179923]","[-1,-1,-1]","[-0.08478876722199048,-0.17966095089607484]","[1,1,1]","[-0.18306095680031026,-0.06916809421379083]","[-1,-1,-1]","[-0.11824152881448342,0.0204925237592164]","[-1,-1,-1]","[0.15109422006225556,0.05420001219648592]","[-1,-1,-1]","[0.08896675501898624,-0.15787828268624535]","[-1,-1,-1]","[-0.041567630030645834,0.07381909308235446]","[1,1,1]","[-0.10000949498151984,0.0837190012136156]","[1,1,1]","[-0.1316927505224532,-0.1085539178074614]","[-1,-1,-1]","[0.03477640335979946,0.16511609143028816]","[-1,-1,-1]","[0.03296177573088048,0.024781844534697013]","[-1,-1,-1]","[-0.1987821966559777,-0.01765346571308308]","[-1,-1,-1]","[0.10151142931924631,-0.11562957548906183]","[-1,-1,-1]","[-0.14981885435545933,0.0883973392859132]","[-1,-1,-1]","[0.04988839299110166,-0.02610036283585483]","[-1,-1,-1]","[-0.052305152430994754,-0.08796736776779872]","[-1,-1,-1]","[-0.03810171154559045,-0.1804384901032483]","[-1,-1,-1]","[0.013543830140629258,0.10478578433696607]","[-1,-1,-1]","[0.0003368627092093545,0.05112417211118387]","[-1,-1,-1]","[-0.008739111546610634,-0.02819939689517491]","[-1,-1,-1]","[0.17272051448594028,-0.07423524706858692]","[-1,-1,-1]","[0.0969273950112782,0.1728204743488016]","[-1,-1,-1]","[-0.08799336206925322,-0.012799421064235665]","[-1,-1,-1]","[-0.07076171857536444,-0.1313071700113193]","[-1,-1,-1]","[0.15866451532359574,0.1038234632746977]","[-1,-1,-1]","[-0.010628512709088439,-0.1444686436171479]","[-1,-1,-1]","[0.024160260644815277,-0.18248079533749345]","[-1,-1,-1]","[0.1486344033257125,-0.03603120993498598]","[-1,-1,-1]","[-0.11157835146753052,-0.1476867576602394]","[-1,-1,-1]","[0.051989216567080214,0.08285957095043209]","[-1,-1,-1]","[-0.1592227121292744,0.03417348682883665]","[-1,-1,-1]","[0.02,0.02]",149.2543,0,2,2,0,1,,,,,,,
,,,,,,,65cf6d8a589a67afcab54e6f,682db40f878f18cddb9bbb1b,2025-05-21_14h11.18.400,cuing_paradigm_dot,2024.1.5,MacIntel,119.047619,682d556593cb38ad0a074487,,,,,,,,,,,149.2548,149.7536,,,150.0036,150.4713,left,0.46,,,,,,,,,0.1,,,,,,149.7536,150.0036,150.4713,"[0.11893228309593688,-0.06093997590631806]","[-1,-1,-1]","[0.18696972294555175,0.009271999093689575]","[1,1,1]","[0.12110825241032563,0.11615669506346064]","[-1,-1,-1]","[-0.038667771521424726,-0.07822854355131321]","[-1,-1,-1]","[-0.07190216957627252,0.011495578141986994]","[-1,-1,-1]","[0.07687539423852949,-0.13454358132262548]","[-1,-1,-1]","[0.09468073354380749,-0.023798673670374665]","[-1,-1,-1]","[-0.03771943387404697,0.08049000545221274]","[-1,-1,-1]","[-0.1061740043953717,-0.034788759738444835]","[-1,-1,-1]","[0.1537452314931489,0.09293627296442365]","[-1,-1,-1]","[-0.028123508216513656,0.0038875549946163113]","[-1,-1,-1]","[0.16910200837109013,-0.08768794032909795]","[-1,-1,-1]","[0.09788071062465337,0.16270245499127917]","[-1,-1,-1]","[-0.03198845141022339,0.1907346408348865]","[-1,-1,-1]","[0.16704531004722212,-0.034221075450580514]","[-1,-1,-1]","[-0.13207090613044917,0.13789949882617317]","[-1,-1,-1]","[-0.15085685649881203,0.006950654848903993]","[1,1,1]","[-0.11764390787309663,0.06736522261800966]","[-1,-1,-1]","[-0.13396546277324262,-0.09572560412813029]","[-1,-1,-1]","[-0.04284808461770252,0.1255358823664487]","[1,1,1]","[0.015097174410793645,-0.14776664396356393]","[-1,-1,-1]","[-0.19745585017448247,0.002967404423017859]","[-1,-1,-1]","[0.02725084452082721,0.08373114930781218]","[-1,-1,-1]","[-0.16585035668919373,-0.04646963046461264]","[-1,-1,-1]","[-0.055758488290382546,-0.1864201568921416]","[-1,-1,-1]","[0.014105263802055129,-0.05452276803162673]","[-1,-1,-1]","[0.028221889498333402,-0.18983332231446448]","[-1,-1,-1]","[0.015795477440916278,0.16928263245125438]","[-1,-1,-1]","[0.03283724251987877,0.02161864293137126]","[-1,-1,-1]","[0.0955965813745434,0.08341556532997703]","[-1,-1,-1]","[-0.11344415596801147,-0.13705416577968357]","[-1,-1,-1]","[0.13678671503428322,0.029337312976002786]","[-1,-1,-1]","[0.02,0.02]",151.5708,0,3,3,15,1,,,,,,,
,,,,,,,65cf6d8a589a67afcab54e6f,682db40f878f18cddb9bbb1b,2025-05-21_14h11.18.400,cuing_paradigm_dot,2024.1.5,MacIntel,119.047619,682d556593cb38ad0a074487,,,,,,,,,,,151.5712,152.0704,,,152.3212,153.2629,left,0.9338,,,,,,,,,0.5,,,,,,152.0705,152.3212,153.263,"[-0.059587100511239895,0.07097181459314211]","[1,1,1]","[0.09280810414444189,0.006454615046941817]","[1,1,1]","[0.05207862212470214,-0.07131748555002254]","[1,1,1]","[-0.13644588797157955,-0.07477984968549425]","[-1,-1,-1]","[0.020133068706567996,0.005317557037388796]","[1,1,1]","[-0.1918016759595844,0.027156406049833905]","[-1,-1,-1]","[-0.16160539588929693,-0.015505860221366219]","[1,1,1]","[0.03310513328756859,0.14846339601110986]","[-1,-1,-1]","[-0.018349570538403623,0.18769617285575968]","[1,1,1]","[0.11853485594284838,-0.10907838274007362]","[-1,-1,-1]","[-0.112953735826246,0.1290850305422221]","[-1,-1,-1]","[-0.039600618593028,-0.06792083273074427]","[-1,-1,-1]","[-0.11588316564236592,-0.1615661239599518]","[-1,-1,-1]","[-0.030182250861881327,0.02556724055178722]","[-1,-1,-1]","[-0.08883204449986311,-0.11759496155859527]","[1,1,1]","[0.06245017745369316,0.04903110366641867]","[1,1,1]","[0.07723379476588314,-0.14877851775331546]","[-1,-1,-1]","[0.17855694343779333,0.009649060832252749]","[-1,-1,-1]","[-0.09649721366749471,-0.02739528189440364]","[-1,-1,-1]","[0.08486523878167304,0.13672739499766257]","[-1,-1,-1]","[0.13148945726116193,0.11418745175970611]","[-1,-1,-1]","[-0.04510590177945693,-0.012481453482317132]","[1,1,1]","[0.011440585020201684,-0.16925917147846875]","[1,1,1]","[0.041731422015018386,0.08531785494156387]","[1,1,1]","[-0.020457856685361722,0.14295427002405842]","[1,1,1]","[0.060073612893540636,-0.18655630239055793]","[1,1,1]","[0.050253533228017025,0.1890997643700321]","[-1,-1,-1]","[-0.19097579748057708,-0.0527049700488999]","[1,1,1]","[0.1665212574337845,-0.057406251086563706]","[1,1,1]","[0.12706769431078457,-0.15062528369626174]","[-1,-1,-1]","[-0.14923309868401696,0.024852455641720107]","[-1,-1,-1]","[-0.16181146322444473,0.06687326696538516]","[1,1,1]","[0.02,0.02]",154.3625,0,4,4,95,1,,,,,,,
,,,,,,,65cf6d8a589a67afcab54e6f,682db40f878f18cddb9bbb1b,2025-05-21_14h11.18.400,cuing_paradigm_dot,2024.1.5,MacIntel,119.047619,682d556593cb38ad0a074487,,,,,,,,,,,154.3629,154.8627,,,155.1132,155.738,left,0.6152,,,,,,,,,0.4,,,,,,154.8628,155.1131,155.738,"[-0.13049972536379734,-0.10793285649011525]","[-1,-1,-1]","[-0.004887587597669234,-0.08064316967109525]","[1,1,1]","[0.0478075223755102,0.04624769801045211]","[-1,-1,-1]","[0.12199088157065073,0.09945521148643166]","[-1,-1,-1]","[-0.11248685400642901,0.13188368166788397]","[-1,-1,-1]","[-0.03283895233488505,0.06068459139891307]","[-1,-1,-1]","[0.15403064861186525,-0.06532701067606171]","[1,1,1]","[-0.18812243302378057,0.028728068598083398]","[-1,-1,-1]","[0.035019208739489216,-0.043052196712325776]","[-1,-1,-1]","[0.1651111211769144,0.002606011847998952]","[-1,-1,-1]","[0.03273430298564425,-0.15341164685901384]","[-1,-1,-1]","[-0.11794317301936345,0.04644180165224415]","[1,1,1]","[0.13558569817186394,-0.124327918467654]","[1,1,1]","[-0.045526143080658145,0.1408950375332758]","[-1,-1,-1]","[0.0025800828426307274,0.11352869424643992]","[-1,-1,-1]","[0.05746840915393115,0.12723940196032035]","[1,1,1]","[-0.03690066750299096,-0.046204531309806805]","[1,1,1]","[-0.08597679956647214,-0.02357088170157741]","[1,1,1]","[-0.050827789897368074,-0.12195567636289242]","[-1,-1,-1]","[-0.06962496484060379,-0.07938769663734042]","[-1,-1,-1]","[0.07885164307534544,-0.0777401668153081]","[-1,-1,-1]","[-0.07005426327144354,0.021999215760476445]","[1,1,1]","[0.13314271839621838,0.03717222718350352]","[1,1,1]","[0.06934612613713274,-0.1356892139958408]","[-1,-1,-1]","[-0.09975759167753662,-0.1575803142820048]","[1,1,1]","[-0.0314288859448564,-0.1711921157086127]","[1,1,1]","[0.11609565112204887,-0.04820716770196261]","[1,1,1]","[0.10319021822030995,0.16932029599045537]","[-1,-1,-1]","[-0.07537887324263512,0.08536992509203642]","[-1,-1,-1]","[-0.07920304146685582,0.16585088777789275]","[1,1,1]","[0.0020137573728172802,0.03726554535593589]","[-1,-1,-1]","[-0.16616579070764,0.0843266050800871]","[-1,-1,-1]","[0.02,0.02]",156.8376,0,5,5,33,1,,,,,,,
,,,,,,,65cf6d8a589a67afcab54e6f,682db40f878f18cddb9bbb1b,2025-05-21_14h11.18.400,cuing_paradigm_dot,2024.1.5,MacIntel,119.047619,682d556593cb38ad0a074487,,,,,,,,,,,156.8381,157.3377,,,157.5879,159.0877,,,,,,,,,,,0.6,,,,,,157.3377,157.5878,159.0877,"[0.07671062740726184,-0.07064096308339958]","[-1,-1,-1]","[-0.06290882424115887,0.07496338478808434]","[1,1,1]","[-0.008901928328931752,-0.1204092768130166]","[-1,-1,-1]","[0.05853469593145224,0.012591323524698241]","[-1,-1,-1]","[0.10230530771058008,0.15835252332776834]","[1,1,1]","[0.11643202763239682,-0.14902898047099364]","[1,1,1]","[0.029355492494329245,0.1037052234293581]","[-1,-1,-1]","[-0.10415586811906552,-0.003825736806324744]","[-1,-1,-1]","[-0.1818868414251998,0.07895283230779791]","[1,1,1]","[-0.08487661428306717,-0.13514467038030173]","[-1,-1,-1]","[0.16414354393359612,-0.0990388128608533]","[1,1,1]","[-0.013009270417031192,-0.04827240485707559]","[-1,-1,-1]","[-0.047498849682680096,0.008499937960133017]","[-1,-1,-1]","[0.025849859373482106,0.1516712701530275]","[-1,-1,-1]","[0.125120562579097,0.12537202898653135]","[1,1,1]","[-0.07774809952497282,0.13861496773708812]","[-1,-1,-1]","[-0.0029322960861378872,-0.18956707017163318]","[1,1,1]","[-0.13103385948229662,0.052218828643324666]","[-1,-1,-1]","[-0.00560894165587283,0.06763251030491647]","[1,1,1]","[0.11768981045449055,-0.02239526063739827]","[1,1,1]","[-0.03609034710915968,0.14825943405764458]","[1,1,1]","[0.0325366897017445,-0.14031622028830115]","[1,1,1]","[0.07600140910476492,0.08268715584476549]","[1,1,1]","[-0.13433467358052964,-0.1327537949549807]","[1,1,1]","[-0.14380232969818646,-0.04923316175395474]","[-1,-1,-1]","[-0.04396029289458984,-0.08836336521607085]","[1,1,1]","[0.1612041917381648,0.08393121959379339]","[1,1,1]","[-0.00010882865306894161,0.009473693224493677]","[1,1,1]","[-0.07847431965551649,-0.06684342850457542]","[1,1,1]","[0.1770506021323567,0.028387076252028024]","[1,1,1]","[-0.1853282358914547,-0.07031691850642109]","[1,1,1]","[0.13768275184987658,0.0170527317726553]","[-1,-1,-1]","[0.02,0.02]",160.1877,0,6,6,177,1,,,,,,,
,,,,,,,65cf6d8a589a67afcab54e6f,682db40f878f18cddb9bbb1b,2025-05-21_14h11.18.400,cuing_paradigm_dot,2024.1.5,MacIntel,119.047619,682d556593cb38ad0a074487,,,,,,,,,,,160.188,160.6875,,,160.938,161.5879,left,0.6448,,,,,,,,,0.5,,,,,,160.6876,160.9379,161.5881,"[-0.027812053011628556,0.19194469498020067]","[1,1,1]","[-0.06354240220916939,-0.011471982997082941]","[1,1,1]","[-0.12438568070492838,-0.13341211444867754]","[1,1,1]","[-0.11659519103548527,0.08936710412744019]","[1,1,1]","[-0.00789608785334916,0.07293265764318814]","[1,1,1]","[0.09443894531362095,0.03188099691790112]","[1,1,1]","[0.04813960903169733,0.11582734600897343]","[-1,-1,-1]","[0.15351380638448078,0.058222877090912645]","[-1,-1,-1]","[0.06270794804454398,-0.1646847663188183]","[1,1,1]","[-0.018789046497786597,-0.14381192017258815]","[1,1,1]","[0.04798367977344783,-0.1027997988856665]","[-1,-1,-1]","[-0.11654567183077313,-0.0527510854043683]","[1,1,1]","[0.1410531077373008,-0.12126749155756465]","[-1,-1,-1]","[0.14388885574948934,-0.05546735808206265]","[-1,-1,-1]","[-0.011721902051400227,-0.10290445228851093]","[1,1,1]","[0.12312383465416588,-0.008917014384678165]","[1,1,1]","[0.08799292421003828,-0.07367985512558686]","[1,1,1]","[0.1576291969651937,0.11789462116604162]","[-1,-1,-1]","[-0.07758779810215091,-0.12786764764680467]","[1,1,1]","[-0.06109177634151273,0.09266801834355701]","[-1,-1,-1]","[-0.16500161851753914,-0.1118613072436627]","[-1,-1,-1]","[-0.04546089049616519,0.04710037199006132]","[1,1,1]","[0.00877610982689975,0.16294580554781452]","[1,1,1]","[0.11949549676225374,0.158542863822916]","[-1,-1,-1]","[-0.1937617589126747,-0.011487102734569144]","[-1,-1,-1]","[0.18588055672094858,-0.025656577475902925]","[1,1,1]","[-0.13566475915852336,0.02144416992834061]","[-1,-1,-1]","[-0.07287700445900283,0.1428716583109839]","[-1,-1,-1]","[-0.04805285719648682,-0.07687845855811506]","[-1,-1,-1]","[0.019691225659968788,-0.19669852990369804]","[-1,-1,-1]","[-0.1811496573398791,0.057838002081600934]","[-1,-1,-1]","[0.07764116975753119,0.17192199314727574]","[-1,-1,-1]","[0.02,0.02]",162.6877,0,7,7,96,1,,,,,,,
,,,,,,,65cf6d8a589a67afcab54e6f,682db40f878f18cddb9bbb1b,2025-05-21_14h11.18.400,cuing_paradigm_dot,2024.1.5,MacIntel,119.047619,682d556593cb38ad0a074487,,,,,,,,,,,162.6886,163.1878,,,163.4378,163.9294,right,0.4858,,,,,,,,,0.6,,,,,,163.1879,163.4378,163.9294,"[0.11886801957938835,-0.024905309293026617]","[-1,-1,-1]","[0.03983861151998321,0.12486753373736281]","[-1,-1,-1]","[-0.08735453439088829,0.12033683229872229]","[1,1,1]","[-0.004240492925721125,0.10192815915960497]","[-1,-1,-1]","[0.009233776541795085,-0.023865632941006555]","[-1,-1,-1]","[-0.1670471223505444,0.05175465110273821]","[1,1,1]","[0.07872480269978233,0.0032202954470287757]","[1,1,1]","[0.18183375461239804,0.0026810529143868147]","[1,1,1]","[-0.09699275788192023,-0.023975776966404468]","[1,1,1]","[0.037296878970454195,0.17552993475725595]","[-1,-1,-1]","[0.053193828855885285,0.07239751008916871]","[1,1,1]","[0.10923364444714576,0.12260597796451879]","[1,1,1]","[0.03566777335417435,-0.12125043648487462]","[-1,-1,-1]","[0.1578032672061287,-0.12042418277895095]","[-1,-1,-1]","[0.05650800996218905,-0.18282649599722703]","[-1,-1,-1]","[-0.05444044726255997,0.08533239712799057]","[1,1,1]","[0.0019851553103004405,-0.07621542433808694]","[1,1,1]","[-0.07232734809728636,0.009045236820180005]","[-1,-1,-1]","[0.12313829205577533,0.017083001538304207]","[1,1,1]","[-0.18940107545208992,-0.0621770987652338]","[-1,-1,-1]","[0.07330617146068728,-0.13890041787623744]","[-1,-1,-1]","[0.1868674175993176,0.06482919146051681]","[1,1,1]","[-0.13341578866471349,-0.07264240901430358]","[1,1,1]","[-0.0880545460681621,-0.07742077289814504]","[1,1,1]","[-0.11405472031504396,0.1626581799616407]","[1,1,1]","[-0.05817840588811253,-0.1183825173616208]","[1,1,1]","[0.052345775945978675,-0.05548157547722531]","[1,1,1]","[0.008124306305941503,-0.18858739780564993]","[1,1,1]","[0.09567839300381444,-0.06738537448941534]","[-1,-1,-1]","[0.16094435344558958,-0.04900795060943462]","[1,1,1]","[-0.1348421365211824,0.11382174212685828]","[-1,-1,-1]","[0.014505229761797828,0.05393477905292515]","[1,1,1]","[0.02,0.02]",165.0293,0,8,8,155,1,,,,,,,
,,,,,,,65cf6d8a589a67afcab54e6f,682db40f878f18cddb9bbb1b,2025-05-21_14h11.18.400,cuing_paradigm_dot,2024.1.5,MacIntel,119.047619,682d556593cb38ad0a074487,,,,,,,,,,,165.0298,165.5291,,,165.7796,166.3711,left,0.584,,,,,,,,,0.45,,,,,,165.5292,165.7796,166.3712,"[-0.05417688707916952,0.10653047388787941]","[1,1,1]","[0.11546527272953196,-0.037005355265230515]","[-1,-1,-1]","[0.02464832106694208,0.0601851513684239]","[1,1,1]","[0.006771782182753698,-0.1325790767083846]","[-1,-1,-1]","[0.08649487398765734,-0.12617181865743385]","[1,1,1]","[-0.054924481160609176,-0.15866593144636687]","[-1,-1,-1]","[0.030243452093058718,-0.05271780804559233]","[1,1,1]","[0.003025994718833303,-0.00011177003616883154]","[1,1,1]","[-0.1333305205515228,-0.12079203007716253]","[1,1,1]","[0.15657804555012092,-0.12329302315086418]","[-1,-1,-1]","[-0.1361675179044224,0.1131280102395944]","[1,1,1]","[-0.05571008582539436,-0.1017435433190465]","[-1,-1,-1]","[-0.020998410431908754,0.04869765385603744]","[-1,-1,-1]","[0.07176028609393667,-0.1657096690154305]","[1,1,1]","[-0.009102436298090011,-0.06235748383472005]","[-1,-1,-1]","[0.10662416547554804,0.12816145257627512]","[1,1,1]","[0.1527709105831144,-0.014972617855927704]","[-1,-1,-1]","[0.06658658478919445,-0.09065920848127292]","[-1,-1,-1]","[-0.18069144650998606,-0.04623289328807394]","[1,1,1]","[-0.14644844881069527,0.06787962868661403]","[1,1,1]","[-0.016315400403350097,0.12978423567092195]","[-1,-1,-1]","[-0.12053206264524344,-0.05846965677748701]","[-1,-1,-1]","[0.06889363297413996,-0.03889568139323896]","[1,1,1]","[0.08256566647540194,0.16246359756271822]","[1,1,1]","[-0.19963194754576044,-0.010417608245579869]","[-1,-1,-1]","[-0.04068753610485361,-0.015888427881044182]","[-1,-1,-1]","[0.13701449943815247,0.08915889292950228]","[-1,-1,-1]","[0.036701636216838654,0.1283575678433887]","[-1,-1,-1]","[-0.17461768333638078,0.09697255380242818]","[-1,-1,-1]","[0.100912276546112,0.01990561451209648]","[1,1,1]","[0.16202659387940951,0.051161910449149056]","[-1,-1,-1]","[0.030324701656571525,-0.19730588897905071]","[-1,-1,-1]","[0.02,0.02]",167.471,0,9,9,67,1,,,,,,,
,,,,,,,65cf6d8a589a67afcab54e6f,682db40f878f18cddb9bbb1b,2025-05-21_14h11.18.400,cuing_paradigm_dot,2024.1.5,MacIntel,119.047619,682d556593cb38ad0a074487,,,,,,,,,,,167.4714,167.9707,,,168.2207,168.9207,left,0.6968,,,,,,,,,0.45,,,,,,167.9707,168.2207,168.9207,"[-0.12521663335357536,0.03232427407945513]","[1,1,1]","[0.13429772895637837,-0.14606319191292308]","[-1,-1,-1]","[0.027174456162424823,-0.08860147637613114]","[-1,-1,-1]","[-0.08261148214585194,0.11740141952674508]","[1,1,1]","[0.14468050231994367,0.07074779359689386]","[-1,-1,-1]","[0.07022655158224665,-0.06330662823745777]","[-1,-1,-1]","[-0.02332281656186622,0.1918538098586116]","[-1,-1,-1]","[0.08577086165062563,0.14672448903963414]","[-1,-1,-1]","[-0.13116198704862086,-0.0988157182252108]","[-1,-1,-1]","[-0.04314822483915492,-0.06489570981368852]","[1,1,1]","[-0.17655937580937678,0.0553208577909987]","[-1,-1,-1]","[0.1587359716665667,-0.05456286466651853]","[1,1,1]","[0.02672441548664994,0.16636560554973473]","[-1,-1,-1]","[-0.07181687629878111,-0.1650231678149519]","[1,1,1]","[-0.10258959157131856,0.15858338912342002]","[-1,-1,-1]","[-0.0576886736180946,0.05739438038336042]","[1,1,1]","[-0.07581754808890258,0.00993755495034534]","[1,1,1]","[0.037564418798390224,0.07188532778696731]","[-1,-1,-1]","[-0.028080311586202136,-0.019318826453286066]","[1,1,1]","[-0.12081631653486306,-0.1424128247761311]","[-1,-1,-1]","[-0.13580348680855994,-0.011463536534549174]","[-1,-1,-1]","[0.12820936332087818,-0.007559793711000739]","[1,1,1]","[0.023007573552605756,0.020383908260748193]","[-1,-1,-1]","[-0.01014768186279183,0.06532940969017828]","[-1,-1,-1]","[-0.01609434856081537,-0.132226022507734]","[1,1,1]","[0.19149471880895813,-0.016935929796486872]","[-1,-1,-1]","[0.07231044289395577,-0.018641901697338804]","[1,1,1]","[0.158358208298191,0.025862862968124508]","[-1,-1,-1]","[-0.19743365377156685,0.001514252718792787]","[1,1,1]","[0.19834994727915584,0.0244226168990706]","[1,1,1]","[-0.07100212610381024,0.1834206651017962]","[-1,-1,-1]","[-0.0101312246054445,0.11678794099779978]","[1,1,1]","[0.02,0.02]",170.0207,0,10,10,77,1,,,,,,,
,,,,,,,65cf6d8a589a67afcab54e6f,682db40f878f18cddb9bbb1b,2025-05-21_14h11.18.400,cuing_paradigm_dot,2024.1.5,MacIntel,119.047619,682d556593cb38ad0a074487,,,,,,,,,,,170.0208,170.521,,,170.7712,171.2297,left,0.4525,,,,,,,,,0.45,,,,,,170.521,170.7711,171.2297,"[0.01874057051426185,0.1786912565258449]","[-1,-1,-1]","[-0.022713645633263082,-0.04025995809872574]","[-1,-1,-1]","[0.08552263472317743,0.10169252677202861]","[-1,-1,-1]","[-0.08080185413327037,0.17124234134359062]","[-1,-1,-1]","[-0.11642436729425683,-0.10962362004273561]","[-1,-1,-1]","[-0.013909265194996677,-0.09813454419413091]","[-1,-1,-1]","[-0.016304664709381744,0.07534287303958384]","[-1,-1,-1]","[-0.06202333327076759,0.08513886287397661]","[1,1,1]","[-0.09262177263010875,-0.023354266976342117]","[-1,-1,-1]","[-0.13509548881580416,0.061215473171056974]","[-1,-1,-1]","[-0.18945944893564498,0.030236992572780858]","[1,1,1]","[0.11591243465278284,-0.16023973651009296]","[-1,-1,-1]","[0.15315049468683958,-0.0681643081428221]","[1,1,1]","[0.07292832271029615,0.007592660127528365]","[1,1,1]","[0.1624732658951679,-0.023407372012678375]","[1,1,1]","[0.03849165000408414,-0.14229265170413305]","[1,1,1]","[0.09259253884141301,-0.11475843153401227]","[-1,-1,-1]","[0.01740528549160017,-0.06993891307976945]","[-1,-1,-1]","[-0.025181620939149746,0.16654731413537033]","[1,1,1]","[-0.0076783935465914955,-0.18750807099215017]","[1,1,1]","[-0.01413182487902004,0.12316507795396917]","[1,1,1]","[-0.05985571579393882,0.013299891447984134]","[1,1,1]","[0.06718262945574695,-0.1712334602959266]","[1,1,1]","[0.13248148465703788,0.03882621475653596]","[1,1,1]","[-0.14439145480957544,-0.04605190010925999]","[1,1,1]","[0.039570450699964115,0.07356016234481759]","[-1,-1,-1]","[0.18610547858460422,0.012481901369881513]","[1,1,1]","[0.12880486823620782,0.09174802356155676]","[-1,-1,-1]","[-0.11994957741796013,-0.15369866937423793]","[-1,-1,-1]","[-0.052909390224762834,-0.1828302868865863]","[-1,-1,-1]","[-0.16942009825910728,-0.09180788074333673]","[-1,-1,-1]","[-0.10437508792524754,0.12402853820738947]","[-1,-1,-1]","[0.02,0.02]",172.3284,0,11,11,85,1,,,,,,,
,,,,,,,65cf6d8a589a67afcab54e6f,682db40f878f18cddb9bbb1b,2025-05-21_14h11.18.400,cuing_paradigm_dot,2024.1.5,MacIntel,119.047619,682d556593cb38ad0a074487,,,,,,,,,,,172.3289,172.8292,,,173.0798,173.6961,left,0.6118,,,,,,,,,0.45,,,,,,172.8292,173.0797,173.6962,"[-0.002577206925170554,0.09729867122851406]","[1,1,1]","[-0.12682365592398298,-0.056051730530457]","[-1,-1,-1]","[0.15575123751056383,0.07159171053698392]","[-1,-1,-1]","[-0.1650689656870373,-0.04126250587988737]","[-1,-1,-1]","[0.08254761872966865,0.13909481892675968]","[-1,-1,-1]","[-0.0021949355306812666,0.027447891251500014]","[1,1,1]","[0.08843410640326609,-0.12194018447169958]","[-1,-1,-1]","[0.147587261029096,0.01581177518678935]","[-1,-1,-1]","[0.022032999725053643,-0.11806987834899958]","[-1,-1,-1]","[-0.11333049799358655,-0.11060672447266984]","[1,1,1]","[0.0746628914996438,-0.18527404533564495]","[-1,-1,-1]","[0.1926884315886857,0.021023259529005637]","[-1,-1,-1]","[0.13040071408407092,-0.028100291275795896]","[-1,-1,-1]","[-0.12248682775479763,0.11982326916615076]","[1,1,1]","[0.02878049696391988,0.17833099672433206]","[-1,-1,-1]","[-0.02493969672432271,-0.13492445514523949]","[1,1,1]","[-0.08163111696525448,0.09158052142930671]","[-1,-1,-1]","[0.02010163518057898,0.06284030445030835]","[1,1,1]","[0.09924777299827739,0.05185319242806599]","[1,1,1]","[-0.04632329674114583,0.06536084916129553]","[1,1,1]","[0.06902258053480438,-0.07527519356890204]","[-1,-1,-1]","[-0.033001579391310966,-0.08368263069790129]","[1,1,1]","[-0.017912495246648584,0.16300297427314842]","[1,1,1]","[-0.07775148697321532,-0.06664911727572594]","[-1,-1,-1]","[-0.10887474688432194,0.008873914004059815]","[1,1,1]","[-0.17521692374733924,0.004020648402668031]","[-1,-1,-1]","[0.12624362882005677,-0.09377702439703277]","[-1,-1,-1]","[-0.07517071597254091,0.14848295492724098]","[-1,-1,-1]","[-0.05783582156070979,-0.018287094136411417]","[1,1,1]","[-0.013487004953378259,-0.19811646510672173]","[1,1,1]","[0.019360803739241768,-0.05265765585029317]","[-1,-1,-1]","[0.01445892753717734,-0.01135399298777624]","[1,1,1]","[0.02,0.02]",174.7959,0,12,12,79,1,,,,,,,
,,,,,,,65cf6d8a589a67afcab54e6f,682db40f878f18cddb9bbb1b,2025-05-21_14h11.18.400,cuing_paradigm_dot,2024.1.5,MacIntel,119.047619,682d556593cb38ad0a074487,,,,,,,,,,,174.7962,175.2957,,,175.546,176.0787,right,0.5273,,,,,,,,,0.6,,,,,,175.2958,175.546,176.0788,"[0.10720727988568902,0.01869941411693691]","[1,1,1]","[-0.12499724147901752,0.004769577696602171]","[-1,-1,-1]","[0.04256596611036802,-0.03203073956734324]","[1,1,1]","[-0.06459386299478187,0.09403992227519177]","[-1,-1,-1]","[0.14320632677786585,-0.06902844670243966]","[1,1,1]","[-0.048712573729195116,-0.11010747071368532]","[1,1,1]","[-0.07717782782523548,0.02742825280838006]","[-1,-1,-1]","[-0.023029871361592437,-0.06085949205883453]","[1,1,1]","[0.18303869198900288,0.04490222297492323]","[1,1,1]","[-0.01616548568231133,-0.18561918841509234]","[1,1,1]","[-0.0934228155734565,0.1500005342425952]","[-1,-1,-1]","[0.04459745087489752,0.021287854877381003]","[1,1,1]","[-0.14171127131496722,-0.11766847218440472]","[-1,-1,-1]","[-0.09044078560840807,-0.06553189445516866]","[1,1,1]","[-0.008456535879976594,0.1318571145179574]","[1,1,1]","[-0.17298622979506614,-0.019792907911060725]","[-1,-1,-1]","[-0.15099509227287763,-0.05786301456229099]","[-1,-1,-1]","[0.1282934694784356,0.11247776992429064]","[1,1,1]","[-0.14446312634571085,0.05736222727298]","[-1,-1,-1]","[0.04794631387863153,-0.13469906015037508]","[1,1,1]","[-0.01468642810678258,-0.0057160360355123525]","[-1,-1,-1]","[0.09492657299417938,0.06303371737636167]","[1,1,1]","[0.1711840518819364,-0.007455486993449417]","[-1,-1,-1]","[0.10591315513610919,0.16185321412740594]","[1,1,1]","[0.09438512819182888,-0.035450761689064574]","[1,1,1]","[-0.05786891377734173,-0.17777440476425688]","[-1,-1,-1]","[0.1722266513880806,0.09038177679448617]","[1,1,1]","[0.15660697538802618,-0.11747605783164138]","[-1,-1,-1]","[-0.12208575043082011,0.09239775531697027]","[-1,-1,-1]","[0.09217053236392538,-0.14393580408572706]","[1,1,1]","[0.08190806304525235,0.11793095404118674]","[1,1,1]","[0.054357990536571824,0.17788977718169935]","[1,1,1]","[0.02,0.02]",177.1794,0,13,13,163,1,,,,,,,
,,,,,,,65cf6d8a589a67afcab54e6f,682db40f878f18cddb9bbb1b,2025-05-21_14h11.18.400,cuing_paradigm_dot,2024.1.5,MacIntel,119.047619,682d556593cb38ad0a074487,,,,,,,,,,,177.1797,177.6792,,,177.93,178.5549,right,0.6214,,,,,,,,,0.55,,,,,,177.6794,177.9299,178.555,"[-0.18681316441978735,-0.06362553428578242]","[-1,-1,-1]","[-0.009699941483170028,-0.1687093459166887]","[1,1,1]","[0.08441696661390251,-0.006391303848644431]","[-1,-1,-1]","[0.12291087046357771,0.006687120057975097]","[1,1,1]","[-0.022430273600940184,0.15800270375243486]","[-1,-1,-1]","[0.16102689536983972,-0.055847521842514035]","[1,1,1]","[-0.02117940957008877,0.10497741664208003]","[-1,-1,-1]","[0.05583971878983344,-0.06872321030620403]","[1,1,1]","[-0.056508345556581956,0.025852895372851292]","[1,1,1]","[-0.07867850586773673,-0.1731135896453464]","[1,1,1]","[0.07150925323823067,-0.1814318919135222]","[1,1,1]","[0.10932237567423855,0.14313305898943945]","[-1,-1,-1]","[0.043355807656719265,-0.02399865047670283]","[-1,-1,-1]","[-0.10408676428814578,0.04977701274038432]","[-1,-1,-1]","[0.006611910319544738,0.00641120008692925]","[1,1,1]","[0.06447952480140859,0.09619791135481719]","[-1,-1,-1]","[-0.18766479579274417,-0.010053368639255031]","[1,1,1]","[0.15462536190165455,0.12658396171505762]","[1,1,1]","[0.18397053553170348,-0.020543968270122486]","[-1,-1,-1]","[0.16742576941083623,0.05645653468829007]","[1,1,1]","[-0.08998277684573118,-0.13000484941380736]","[-1,-1,-1]","[-0.04969064598872568,0.07000332175303259]","[-1,-1,-1]","[0.0020133179902892357,-0.06793512494241613]","[1,1,1]","[0.017508727907715703,-0.1233540989888588]","[1,1,1]","[-0.1631967183443664,0.06951925101837927]","[1,1,1]","[-0.13497044554078474,0.015520060475896979]","[1,1,1]","[-0.11572267457653126,0.16170338614922383]","[-1,-1,-1]","[0.1101624790711496,-0.15452920152804642]","[1,1,1]","[0.1452684296713549,-0.10387284271856567]","[-1,-1,-1]","[-0.12060630527385668,0.08803843161966063]","[1,1,1]","[-0.04717133417945002,-0.014158518596545615]","[-1,-1,-1]","[-0.07676657562995115,0.12171434156397136]","[1,1,1]","[0.02,0.02]",179.6543,0,14,14,147,1,,,,,,,
,,,,,,,65cf6d8a589a67afcab54e6f,682db40f878f18cddb9bbb1b,2025-05-21_14h11.18.400,cuing_paradigm_dot,2024.1.5,MacIntel,119.047619,682d556593cb38ad0a074487,,,,,,,,,,,179.6546,180.1545,,,180.4045,180.8792,right,0.4684,,,,,,,,,0.9,,,,,,180.1546,180.4044,180.8793,"[0.17527773643852548,-0.06732693853248244]","[1,1,1]","[0.08783665599406387,-0.09262180182949409]","[1,1,1]","[-0.12976105791860193,-0.011570832343462739]","[1,1,1]","[0.03922024406781167,0.13460360200357374]","[1,1,1]","[-0.036961841665134124,-0.06606685977919112]","[1,1,1]","[-0.11833804720572631,0.1593824069705578]","[-1,-1,-1]","[0.07923258584536534,0.012438224481831668]","[1,1,1]","[0.01476141735535234,-0.15046052039076746]","[1,1,1]","[-0.07678630451410869,-0.09946006799123219]","[1,1,1]","[0.03403094639079931,0.07674052173883435]","[1,1,1]","[-0.07755254396625243,-0.0071767908874005295]","[1,1,1]","[0.14333776429090167,-0.11253807233698251]","[1,1,1]","[-0.19251974457483778,0.03945566995179142]","[1,1,1]","[0.1349734844403131,0.024980126733691634]","[1,1,1]","[0.1785766061549535,0.02816937088769245]","[1,1,1]","[0.037842984842294376,-0.0729187071998817]","[-1,-1,-1]","[-0.11046234352744035,0.09140704224929458]","[1,1,1]","[0.08525278898046004,0.1788740111623269]","[1,1,1]","[-0.044374524365428165,0.11169675635631443]","[1,1,1]","[0.011381001166446032,0.028573780055699424]","[1,1,1]","[0.10728915739646196,-0.01692169234105412]","[1,1,1]","[-0.15465288947298197,-0.04921043719215893]","[1,1,1]","[-0.07560606773187246,-0.1632953769910437]","[1,1,1]","[0.13902980175555446,0.14095171086218536]","[1,1,1]","[-0.0014545277639844037,-0.01755680488992215]","[-1,-1,-1]","[0.07438696979559856,0.05791429304139873]","[1,1,1]","[0.05048155009325091,-0.12847202783852835]","[1,1,1]","[0.10416180188256693,0.10810907740440588]","[1,1,1]","[0.034055757881291226,-0.19011047956329027]","[1,1,1]","[-0.0034753470020873318,0.15136281563383713]","[1,1,1]","[-0.060269543671693106,0.17768278624736308]","[1,1,1]","[-0.15106340147744102,-0.09073478780276366]","[1,1,1]","[0.02,0.02]",181.9792,0,15,15,184,1,,,,,,,
,,,,,,,65cf6d8a589a67afcab54e6f,682db40f878f18cddb9bbb1b,2025-05-21_14h11.18.400,cuing_paradigm_dot,2024.1.5,MacIntel,119.047619,682d556593cb38ad0a074487,,,,,,,,,,,181.9795,182.4792,,,182.73,183.063,left,0.3235,,,,,,,,,0.45,,,,,,182.4793,182.7299,183.0631,"[-0.03313900888334177,-0.1664008656976035]","[-1,-1,-1]","[-0.06356930614385024,0.09725921093982079]","[1,1,1]","[0.14803023633288828,-0.08855749810068547]","[-1,-1,-1]","[0.05900671993711658,0.10135079567113466]","[-1,-1,-1]","[0.09391272751044892,-0.011725672756241413]","[-1,-1,-1]","[0.05990197092430593,0.05007052884430648]","[-1,-1,-1]","[0.16825472667704788,0.04043782283241696]","[1,1,1]","[-0.024277795278991175,-0.10297457795079724]","[-1,-1,-1]","[-0.1656393363989957,0.0331842571335894]","[1,1,1]","[0.0228009283946294,0.16044490361976524]","[1,1,1]","[-0.13252604560288891,-0.11556876074855411]","[1,1,1]","[0.07496848221062763,-0.1259582535303739]","[1,1,1]","[-0.0909251927871604,-0.07801278983313345]","[-1,-1,-1]","[0.0058366820703372,0.0318433820358829]","[-1,-1,-1]","[0.059051240480287086,-0.03900300271389183]","[-1,-1,-1]","[-0.10530380993788016,0.039404890561909905]","[1,1,1]","[0.12463091942747218,-0.1390959946504971]","[1,1,1]","[0.12524620130302377,0.1042454263003151]","[-1,-1,-1]","[-0.05989305642687841,-0.007928137457502147]","[-1,-1,-1]","[0.19424612042823242,-0.03277904069603071]","[1,1,1]","[0.03269730788267947,-0.14818803835346375]","[1,1,1]","[-0.005466508327074641,-0.041924201772703014]","[-1,-1,-1]","[0.13301974173814296,-0.049804211978382314]","[1,1,1]","[-0.14408069128968487,-0.06080120524822716]","[1,1,1]","[-0.09144265098479906,0.16136104776945262]","[-1,-1,-1]","[-0.11171737238098914,0.10750741486789585]","[-1,-1,-1]","[-0.014215748063396837,0.10718055567947526]","[-1,-1,-1]","[0.1268359850932351,0.053464294566284466]","[1,1,1]","[-0.09388388895978089,-0.16625043210155005]","[1,1,1]","[-0.011907921132603732,0.18930044190537057]","[-1,-1,-1]","[0.12264010500409031,0.15409668256231057]","[-1,-1,-1]","[-0.1668914567680258,0.10187574102925913]","[-1,-1,-1]","[0.02,0.02]",184.1627,0,16,16,60,1,,,,,,,
,,,,,,,65cf6d8a589a67afcab54e6f,682db40f878f18cddb9bbb1b,2025-05-21_14h11.18.400,cuing_paradigm_dot,2024.1.5,MacIntel,119.047619,682d556593cb38ad0a074487,,,,,,,,,,,184.1632,184.6626,,,184.9126,185.6544,right,0.7371,,,,,,,,,0.55,,,,,,184.6626,184.9125,185.6545,"[0.07339372432539736,-0.17987935779278807]","[-1,-1,-1]","[0.044310391427801576,0.07338547122118388]","[-1,-1,-1]","[0.06782247896553864,0.17304421987598523]","[-1,-1,-1]","[0.10846481501330518,0.06792161388753357]","[-1,-1,-1]","[-0.005281386563323301,0.11740999701163314]","[1,1,1]","[0.12702454167645463,0.02335266896424199]","[1,1,1]","[0.12019098815036737,0.11548330714252406]","[1,1,1]","[-0.06487518950323651,-0.02886905036710988]","[1,1,1]","[0.07712988966642985,-0.12661251159043482]","[1,1,1]","[0.030588763353258608,-0.07975630600678568]","[-1,-1,-1]","[-0.10442171236672543,0.01863051730454352]","[1,1,1]","[-0.0365903462336857,0.042469648150106135]","[1,1,1]","[-0.07094760846423231,-0.16154372015489063]","[1,1,1]","[-0.015520534911857148,-0.05877924060805124]","[1,1,1]","[-0.03565537973105967,-0.1060374193601448]","[1,1,1]","[0.13782664786978951,-0.1117154092925857]","[1,1,1]","[0.09804133974225991,-0.08275277296862103]","[-1,-1,-1]","[-0.12069371947064508,-0.04784224604557191]","[1,1,1]","[-0.05516300900729544,0.14974211725917233]","[-1,-1,-1]","[0.038574231361117456,-0.15070604365016074]","[1,1,1]","[0.19092954945725274,0.0022377956236246843]","[-1,-1,-1]","[-0.19076877602323772,-0.032435787569954355]","[1,1,1]","[0.08311614990148909,-0.04328804113000233]","[-1,-1,-1]","[-0.11219173994337336,-0.16365544558936612]","[-1,-1,-1]","[0.1648122603305684,0.10078076010648232]","[1,1,1]","[0.04479484913653669,-0.01064461443673232]","[-1,-1,-1]","[-0.17736268750123643,-0.08903833218130443]","[1,1,1]","[-0.18767165693481422,0.06816129338341519]","[1,1,1]","[0.14208991114119612,-0.02222566044312391]","[-1,-1,-1]","[-0.020541862322321254,0.17408300588593972]","[1,1,1]","[-0.057793572334174016,0.08960480264372679]","[-1,-1,-1]","[-0.11197769278151394,-0.10617669299705194]","[-1,-1,-1]","[0.02,0.02]",186.7543,0,17,17,140,1,,,,,,,
,,,,,,,65cf6d8a589a67afcab54e6f,682db40f878f18cddb9bbb1b,2025-05-21_14h11.18.400,cuing_paradigm_dot,2024.1.5,MacIntel,119.047619,682d556593cb38ad0a074487,,,,,,,,,,,186.7546,187.2543,,,187.5052,189.0044,,,,,,,,,,,0.5,,,,,,187.2543,187.505,189.0045,"[0.07844843913889951,0.09782145345462073]","[-1,-1,-1]","[-0.11414042104867303,0.11447624079526462]","[1,1,1]","[0.1955578182191463,0.005888582235918421]","[-1,-1,-1]","[-0.08844150412976483,-0.14109400242665432]","[1,1,1]","[-0.010942297371891205,0.06225066974809078]","[-1,-1,-1]","[0.045651153125182344,-0.1102483118435141]","[-1,-1,-1]","[0.10555118504851803,0.03705431776212976]","[-1,-1,-1]","[-0.07659309240324225,-0.021338266098818028]","[-1,-1,-1]","[-0.07438048674243908,0.055137045923657195]","[-1,-1,-1]","[0.10219014702598622,-0.013033122155787901]","[1,1,1]","[0.00970026193469576,0.10403312609804861]","[1,1,1]","[-0.07108320330534196,0.1828758590059272]","[1,1,1]","[0.04017450100989299,0.17778406672596725]","[-1,-1,-1]","[0.05207147417063049,-0.1501642188735118]","[-1,-1,-1]","[-0.10803876594779366,0.1628252024966602]","[1,1,1]","[0.11623640690320353,-0.11345390155002757]","[-1,-1,-1]","[0.12255441990864101,0.08177437441687602]","[-1,-1,-1]","[-0.05016225366244738,-0.18409029731224125]","[1,1,1]","[-0.013892524746194106,-0.1354400769970535]","[-1,-1,-1]","[0.15343678126266808,0.010570941637823558]","[1,1,1]","[0.1754840450058071,-0.0656983346507487]","[1,1,1]","[0.05235694826899687,0.0357285926897191]","[1,1,1]","[-0.07095471310689755,-0.07173308996969296]","[1,1,1]","[-0.15557007645152177,0.12014889273034009]","[1,1,1]","[-0.14763275183882332,-0.12107657314010214]","[-1,-1,-1]","[-0.1652685970997991,-0.03950237512110623]","[1,1,1]","[-0.04890790242255613,0.12211058317315558]","[1,1,1]","[0.08552064986415114,-0.06030333663844287]","[-1,-1,-1]","[-0.1877619387997065,0.03636959066090301]","[-1,-1,-1]","[0.011617744433634414,-0.07326859527425812]","[1,1,1]","[0.07579932352609875,0.15497290238289063]","[-1,-1,-1]","[0.008214279082116884,0.002613668627857339]","[1,1,1]","[0.02,0.02]",190.1036,0,18,18,118,1,,,,,,,
,,,,,,,65cf6d8a589a67afcab54e6f,682db40f878f18cddb9bbb1b,2025-05-21_14h11.18.400,cuing_paradigm_dot,2024.1.5,MacIntel,119.047619,682d556593cb38ad0a074487,,,,,,,,,,,190.1042,190.6043,,,190.8548,192.1878,right,1.3282,,,,,,,,,0.9,,,,,,190.6043,190.8547,192.1879,"[0.1111959137837793,0.10325767286089176]","[1,1,1]","[0.07855118536139832,-0.16894429629364607]","[1,1,1]","[-0.002311760142072679,0.14589568824836935]","[1,1,1]","[-0.11169812297087202,0.04261495603301683]","[1,1,1]","[-0.10544959026970421,-0.008098272910442662]","[1,1,1]","[0.05518521458088982,0.05703453561664282]","[1,1,1]","[0.004213363989312863,-0.10046562811304702]","[1,1,1]","[-0.12816863297586864,-0.135552840474159]","[1,1,1]","[-0.011912545926709065,-0.15100702704795277]","[1,1,1]","[-0.03437278740932443,0.06891026373872984]","[1,1,1]","[0.030405873070972877,0.017956956868321418]","[-1,-1,-1]","[0.03590492867803082,0.18012302479739883]","[1,1,1]","[-0.07027105942146795,0.13086130970446186]","[1,1,1]","[0.13442058571271476,0.035266800240832195]","[1,1,1]","[-0.16716725488284165,-0.08292760225518941]","[1,1,1]","[-0.1738756526400478,0.08738821154944852]","[1,1,1]","[0.13999594260516662,-0.05112613200022701]","[1,1,1]","[0.12758444376826558,-0.00486465569330961]","[-1,-1,-1]","[-0.023213653053631572,0.10740347085048386]","[1,1,1]","[0.0950180756527274,0.14269455824514393]","[1,1,1]","[0.07861978870313988,-0.03365593411866751]","[1,1,1]","[0.0059558689003229364,0.055663408756213006]","[1,1,1]","[-0.08592677035102218,-0.10435413199790793]","[1,1,1]","[0.036461675577441253,0.12214040785089253]","[-1,-1,-1]","[-0.1298544457876225,0.11215137671672938]","[1,1,1]","[0.15900582421778556,-0.10825032188891105]","[1,1,1]","[-0.0927501377624008,-0.05512648962457924]","[1,1,1]","[0.03507841884957516,-0.16726518777808738]","[1,1,1]","[-0.19496806388780855,-0.03448547255919195]","[1,1,1]","[-0.05964423365177771,-0.021227721602789573]","[1,1,1]","[0.03938492206067465,-0.06786197161229157]","[1,1,1]","[-0.023049697225872197,-0.19750697758252492]","[1,1,1]","[0.02,0.02]",193.287,0,19,19,206,1,,,,,,,
,,,,,,,65cf6d8a589a67afcab54e6f,682db40f878f18cddb9bbb1b,2025-05-21_14h11.18.400,cuing_paradigm_dot,2024.1.5,MacIntel,119.047619,682d556593cb38ad0a074487,,,,,,,,,,,193.2878,193.7877,,,194.0379,195.1206,right,1.0763,,,,,,,,,0.9,,,,,,193.7878,194.0379,195.1207,"[0.17578665849185787,0.029704396299584646]","[-1,-1,-1]","[-0.001622366909551911,-0.06935862304963528]","[-1,-1,-1]","[0.07472716797425845,-0.13491360565352678]","[1,1,1]","[-0.13384499266648586,0.1427930832261366]","[1,1,1]","[0.11528334879953647,-0.13793854892939994]","[1,1,1]","[-0.11713843267320251,-0.06619064812397707]","[1,1,1]","[-0.07220138254442626,-0.012743027232346675]","[1,1,1]","[-0.17092452777828743,-0.05623571940936394]","[1,1,1]","[0.04119483259919779,0.12746625776517823]","[1,1,1]","[0.028031136149881078,-0.1652549548592961]","[1,1,1]","[0.028018291694573077,0.020758769921113553]","[1,1,1]","[0.09210638399461099,-0.07855419025164069]","[1,1,1]","[-0.01427424739549849,0.008250192621503725]","[-1,-1,-1]","[-0.127712245238854,-0.002941486354503247]","[1,1,1]","[-0.11042650957514381,-0.10984688495031633]","[1,1,1]","[0.14546331042988897,-0.028638194457140415]","[1,1,1]","[-0.0464712925350074,0.03417511234965994]","[1,1,1]","[-0.08570355611896174,0.1768355587456902]","[1,1,1]","[0.01559438367812661,0.15983562476920046]","[1,1,1]","[-0.06398112531551817,0.11224608019830047]","[1,1,1]","[0.13146627843787448,-0.09262788265766717]","[1,1,1]","[-0.14659657546825625,0.033422775217720455]","[1,1,1]","[0.07059550999951812,0.04772166734248774]","[1,1,1]","[-0.13223370451401223,0.0964261718717319]","[1,1,1]","[-0.0332090433286843,0.18219217625859543]","[1,1,1]","[0.0424044452785446,-0.03809389156048999]","[1,1,1]","[0.12985429628665152,0.11940997759716715]","[1,1,1]","[-0.15506143431621477,-0.09701181786655991]","[1,1,1]","[-0.1914877658677126,0.02511844240633323]","[1,1,1]","[0.18670560468806235,-0.02564826509980685]","[1,1,1]","[0.07292677161508437,0.00460070957015203]","[1,1,1]","[-0.049197449002331466,-0.11001519199862841]","[1,1,1]","[0.02,0.02]",196.2201,0,20,20,193,1,,,,,,,
,,,,,,,65cf6d8a589a67afcab54e6f,682db40f878f18cddb9bbb1b,2025-05-21_14h11.18.400,cuing_paradigm_dot,2024.1.5,MacIntel,119.047619,682d556593cb38ad0a074487,,,,,,,,,,,196.2206,196.7212,,,196.9719,198.188,left,1.208,,,,,,,,,0.1,,,,,,196.7212,196.9718,198.188,"[0.003966141865758226,0.07093835399781843]","[-1,-1,-1]","[-0.03472488155197196,-0.011852638210618448]","[-1,-1,-1]","[-0.07302476286239575,0.15489305828453648]","[-1,-1,-1]","[0.02644383375985885,-0.03341542333617658]","[1,1,1]","[0.031061246894184373,0.17432105167840886]","[-1,-1,-1]","[-0.08328495714777326,0.000009954910153843988]","[-1,-1,-1]","[0.1371104644456855,-0.13623817050258857]","[-1,-1,-1]","[0.16780222797601999,-0.027938527430136605]","[1,1,1]","[-0.04517876581785761,0.07843606833005183]","[-1,-1,-1]","[-0.15718600973981275,0.10036962101481041]","[-1,-1,-1]","[0.13395252708433222,0.017480919969954364]","[-1,-1,-1]","[-0.0925704163225559,0.09765784484565185]","[-1,-1,-1]","[0.11690835344391648,0.09291067638722214]","[-1,-1,-1]","[0.007465243510480761,0.02398727792487449]","[-1,-1,-1]","[0.06011985388769971,0.08722915924989373]","[-1,-1,-1]","[-0.05610802404644354,-0.13969099504817348]","[-1,-1,-1]","[-0.15098582728055643,-0.12809308571457162]","[-1,-1,-1]","[-0.008591999793601921,-0.0754396449074432]","[-1,-1,-1]","[0.07872750062586927,-0.12894917119489874]","[-1,-1,-1]","[-0.027442256372392407,0.11544090944527835]","[-1,-1,-1]","[0.18789198088645906,0.02412535426607356]","[1,1,1]","[-0.09191335874065293,-0.07008629416689689]","[-1,-1,-1]","[-0.03731178090522562,-0.19144882083378356]","[-1,-1,-1]","[0.020040301106750816,-0.16080668904772843]","[-1,-1,-1]","[0.08791905747267158,-0.05256074372103604]","[-1,-1,-1]","[0.18484000903173245,-0.06457769065213924]","[-1,-1,-1]","[0.04743261408989464,-0.09410170412890395]","[-1,-1,-1]","[-0.13245483789215165,0.14100631787438567]","[-1,-1,-1]","[0.1756031484769645,0.07300826394535903]","[-1,-1,-1]","[-0.02799894373116044,0.1757427651711791]","[-1,-1,-1]","[0.09051286052069586,0.009568969312489692]","[-1,-1,-1]","[-0.17295000823240095,-0.007699775073190197]","[-1,-1,-1]","[0.02,0.02]",199.2876,0,21,21,21,1,,,,,,,
,,,,,,,65cf6d8a589a67afcab54e6f,682db40f878f18cddb9bbb1b,2025-05-21_14h11.18.400,cuing_paradigm_dot,2024.1.5,MacIntel,119.047619,682d556593cb38ad0a074487,,,,,,,,,,,199.2878,199.7875,,,200.0376,200.7791,right,0.7395,,,,,,,,,0.55,,,,,,199.7875,200.0375,200.7791,"[-0.09198695023545977,-0.1764639935980163]","[1,1,1]","[0.013455093003814122,-0.13750708176794707]","[-1,-1,-1]","[0.1507994822351702,0.05284610863117647]","[-1,-1,-1]","[0.12285015339066746,-0.05670908893431818]","[1,1,1]","[-0.1404826211577365,-0.02237785022373179]","[-1,-1,-1]","[-0.005855184196846848,0.014195692338339653]","[-1,-1,-1]","[0.05208124551427392,0.09578793198849893]","[-1,-1,-1]","[-0.07889890373189205,-0.005977978392514627]","[1,1,1]","[-0.019527009931825965,-0.17796544916635845]","[-1,-1,-1]","[0.1796439428354866,-0.08353080595813517]","[1,1,1]","[0.07418095280350115,0.14505556503170755]","[-1,-1,-1]","[0.020362704311732323,-0.06005451902594707]","[1,1,1]","[-0.10731596043375267,0.06462860467718683]","[1,1,1]","[0.1599227847781143,-0.0409454673346756]","[1,1,1]","[0.11592968528974391,0.14222288278605827]","[1,1,1]","[-0.10023514126909998,-0.055559176751072976]","[1,1,1]","[0.000041210922973646845,0.1998341926520972]","[1,1,1]","[-0.17458831607936817,0.04205835102791294]","[-1,-1,-1]","[0.11941922457801225,0.08826233404883344]","[-1,-1,-1]","[-0.0370256516872996,-0.030693381763130592]","[1,1,1]","[0.07033340296223453,-0.17719145880504095]","[1,1,1]","[0.08060977472190035,-0.03990527033901758]","[-1,-1,-1]","[0.098209007710315,-0.1401196606007565]","[1,1,1]","[-0.08350138427077937,0.13505050835403198]","[-1,-1,-1]","[0.047876066840748695,0.01749464977112306]","[-1,-1,-1]","[-0.038664599273616554,-0.0927264682294761]","[1,1,1]","[0.018689223735637476,0.05858765248835304]","[1,1,1]","[-0.15919292944422023,-0.11578357859574968]","[-1,-1,-1]","[0.19018280523585632,0.03303583039301691]","[1,1,1]","[0.03402182834049279,0.17732929584822724]","[-1,-1,-1]","[0.12169633738442721,-0.0016998310020781967]","[1,1,1]","[-0.049112983659358116,0.05239603571754554]","[1,1,1]","[0.02,0.02]",201.8791,0,22,22,133,1,,,,,,,
,,,,,,,65cf6d8a589a67afcab54e6f,682db40f878f18cddb9bbb1b,2025-05-21_14h11.18.400,cuing_paradigm_dot,2024.1.5,MacIntel,119.047619,682d556593cb38ad0a074487,,,,,,,,,,,201.8792,202.3794,,,202.6297,203.1046,left,0.4677,,,,,,,,,0.5,,,,,,202.3795,202.6297,203.1047,"[-0.021940832744303126,0.14302630967490576]","[1,1,1]","[-0.012695866233422795,0.05718221966889926]","[1,1,1]","[0.059483429558172804,0.17729733233701547]","[-1,-1,-1]","[-0.15653255948281553,-0.09162999829309265]","[-1,-1,-1]","[0.15968693578334658,0.014500982926447529]","[-1,-1,-1]","[0.11397699332659737,-0.10031755621963888]","[1,1,1]","[0.08090487673804578,0.007878365094813615]","[1,1,1]","[-0.07327404574844042,-0.09754457889050633]","[1,1,1]","[0.18335399445501674,-0.02314890613621533]","[1,1,1]","[-0.10935477233611587,0.019234847389223958]","[1,1,1]","[0.05160337287729638,0.10928317147974148]","[-1,-1,-1]","[-0.07044201859033675,-0.03796907239379971]","[-1,-1,-1]","[-0.07805506503306613,0.04492805765485661]","[-1,-1,-1]","[0.06084240415255728,-0.05907396107827894]","[-1,-1,-1]","[-0.13252240400338047,0.12777821966038538]","[1,1,1]","[0.0014464696628088863,-0.05781641332563264]","[1,1,1]","[0.09549314159151528,-0.16723597711143112]","[-1,-1,-1]","[0.029024310358029395,-0.17682135386999728]","[1,1,1]","[0.0008138884971047576,-0.12042560802737647]","[-1,-1,-1]","[0.11283901253334898,-0.03703879385474489]","[-1,-1,-1]","[-0.11189449814888702,-0.07301815114725473]","[1,1,1]","[-0.033218432470005436,-0.08427024989210122]","[1,1,1]","[0.1423545351474639,0.08453988198401519]","[-1,-1,-1]","[0.03744412701472049,-0.02505029039508429]","[-1,-1,-1]","[0.020593431398569378,0.021364500001533854]","[1,1,1]","[0.09507984687105953,0.04754957939550771]","[1,1,1]","[-0.07671012842951765,-0.17394859264514703]","[-1,-1,-1]","[-0.18066786868887297,0.04988069084915756]","[-1,-1,-1]","[0.04927111369420456,-0.12437576350695839]","[-1,-1,-1]","[-0.04653346600286327,0.08858666294144353]","[1,1,1]","[0.152759570872366,-0.05556914736561718]","[-1,-1,-1]","[-0.18353583453312983,0.006792099416909726]","[1,1,1]","[0.02,0.02]",204.2043,0,23,23,106,1,,,,,,,
,,,,,,,65cf6d8a589a67afcab54e6f,682db40f878f18cddb9bbb1b,2025-05-21_14h11.18.400,cuing_paradigm_dot,2024.1.5,MacIntel,119.047619,682d556593cb38ad0a074487,,,,,,,,,,,204.2047,204.7045,,,204.9547,205.4296,left,0.4679,,,,,,,,,0.55,,,,,,204.7045,204.9546,205.4296,"[-0.1359854645570022,0.035418701788983584]","[1,1,1]","[-0.04901079047493973,0.03570201678711996]","[-1,-1,-1]","[-0.032558741811633575,-0.01227681624604488]","[-1,-1,-1]","[-0.0848889104148569,-0.15859791049907634]","[-1,-1,-1]","[0.1460028566476699,0.03128574450647696]","[-1,-1,-1]","[0.08923328521524272,-0.08490077948050206]","[-1,-1,-1]","[-0.03924997958340529,-0.143410323079395]","[1,1,1]","[-0.11315626572600214,0.07990639420565684]","[1,1,1]","[-0.16313333130575913,-0.07624443997133906]","[1,1,1]","[0.026349699729211758,0.08293245528901871]","[-1,-1,-1]","[-0.08984947783363197,-0.022631241374725598]","[1,1,1]","[0.19491151454149122,-0.01794130263877753]","[-1,-1,-1]","[-0.11194656820943702,-0.07042482874642668]","[-1,-1,-1]","[0.05092703588620039,0.14132827939512194]","[1,1,1]","[0.08780447520977049,0.07497583254980096]","[1,1,1]","[-0.0854970146892064,0.17254154249898074]","[-1,-1,-1]","[0.012449948952526874,0.12986432166494621]","[1,1,1]","[-0.11417646446147905,-0.12470173119161052]","[1,1,1]","[0.123211845238305,0.12107610576856094]","[-1,-1,-1]","[-0.04708530567703344,0.11276385444248775]","[1,1,1]","[0.0016324991916768987,-0.03941486115388094]","[-1,-1,-1]","[0.011803667697527843,0.18236210153261947]","[1,1,1]","[0.05251870161814921,-0.1477352771550736]","[1,1,1]","[0.03768071277597593,0.03184568622435592]","[1,1,1]","[0.1390032392940812,-0.12912993364055145]","[1,1,1]","[0.14196723728840935,0.08389156524143318]","[-1,-1,-1]","[-0.10102015641318883,0.12502813495474208]","[1,1,1]","[0.07845744013076371,0.009117395957499684]","[1,1,1]","[-0.15619130610614423,0.08201788691027159]","[-1,-1,-1]","[-0.18360006593615083,-0.021164922261872037]","[1,1,1]","[-0.032388626799589815,-0.06701707833461769]","[-1,-1,-1]","[0.04447409760443621,-0.01775284258072882]","[1,1,1]","[0.02,0.02]",206.5294,0,24,24,137,1,,,,,,,
,,,,,,,65cf6d8a589a67afcab54e6f,682db40f878f18cddb9bbb1b,2025-05-21_14h11.18.400,cuing_paradigm_dot,2024.1.5,MacIntel,119.047619,682d556593cb38ad0a074487,,,,,,,,,,,206.5299,207.0294,,,207.2801,208.7795,,,,,,,,,,,0.45,,,,,,207.0295,207.2801,208.7796,"[-0.1028027547263575,0.08358512982782339]","[-1,-1,-1]","[-0.06311707137209496,-0.13502228716150155]","[1,1,1]","[-0.036677327228438854,-0.028442520661352864]","[1,1,1]","[-0.09071771991459714,-0.029728951547312983]","[-1,-1,-1]","[0.1394689324987492,-0.0035915352878010693]","[1,1,1]","[0.020589189682849215,0.15327892219351336]","[-1,-1,-1]","[-0.08939166270409798,0.02564985743846105]","[-1,-1,-1]","[0.15514813739256894,0.10703075280089962]","[1,1,1]","[-0.002071676272379879,0.1914725675761869]","[1,1,1]","[0.029211225020998256,0.027679522836223346]","[-1,-1,-1]","[0.01875164392074502,-0.05530763579420998]","[-1,-1,-1]","[0.06886514070965409,0.14191716783266634]","[-1,-1,-1]","[0.05144379117871512,0.08923332264626031]","[1,1,1]","[-0.13813509016663475,0.030829918959370775]","[1,1,1]","[-0.05536683725888985,0.14188181517474577]","[-1,-1,-1]","[-0.14201138531280302,-0.11483212255411275]","[-1,-1,-1]","[-0.09374009748656778,0.1746635680903461]","[1,1,1]","[0.06885751027810687,-0.09873709435554764]","[-1,-1,-1]","[0.16281970872117346,0.03935724097865271]","[-1,-1,-1]","[-0.12177710666115613,-0.07084799614061298]","[1,1,1]","[0.1891913206895655,-0.03937355095814768]","[1,1,1]","[-0.19275866032884323,0.03188136615112951]","[1,1,1]","[0.11736189420162964,0.05439596436919432]","[-1,-1,-1]","[-0.15042177855584937,0.10349073272410594]","[-1,-1,-1]","[-0.021644471195638514,0.04797237323483849]","[-1,-1,-1]","[0.10085504376677498,-0.04097285402079982]","[-1,-1,-1]","[0.00183227224982867,0.11113783397087532]","[1,1,1]","[-0.04544531739265641,0.011253611980945235]","[-1,-1,-1]","[-0.003372613802666982,-0.17774110020881986]","[-1,-1,-1]","[0.14891884724339452,-0.04739649946253293]","[1,1,1]","[0.03603957779568049,-0.13374200249399432]","[1,1,1]","[0.14444414415053924,-0.13744764440588328]","[-1,-1,-1]","[0.02,0.02]",209.879,0,25,25,66,1,,,,,,,
,,,,,,,65cf6d8a589a67afcab54e6f,682db40f878f18cddb9bbb1b,2025-05-21_14h11.18.400,cuing_paradigm_dot,2024.1.5,MacIntel,119.047619,682d556593cb38ad0a074487,,,,,,,,,,,209.8794,210.3795,,,210.6296,211.4213,left,0.7836,,,,,,,,,0.6,,,,,,210.3795,210.6296,211.4213,"[0.08920682898987313,-0.1654924967268804]","[-1,-1,-1]","[0.028646467859273307,0.17879579814560823]","[1,1,1]","[-0.060989312244287386,-0.17747488948204088]","[-1,-1,-1]","[-0.15157519499985628,-0.0536551072285106]","[1,1,1]","[0.1616228897913034,-0.06448205137311103]","[-1,-1,-1]","[-0.01573689440061265,0.025733141637194284]","[1,1,1]","[0.08984938309860048,0.07597686888043856]","[1,1,1]","[-0.11646532433572845,0.08723055708137874]","[1,1,1]","[-0.03755300405931241,-0.0440271966298773]","[1,1,1]","[0.10517928019083939,0.14028372306811623]","[1,1,1]","[-0.16720288407888853,0.10360995050914718]","[1,1,1]","[0.102480159991234,-0.1023911769190314]","[1,1,1]","[0.08056030048080554,-0.0006752769164664965]","[1,1,1]","[-0.072231354702473,0.13197791070517387]","[-1,-1,-1]","[0.047637212996741354,-0.19204212288669248]","[1,1,1]","[0.013583512111755874,-0.13120327855433658]","[-1,-1,-1]","[-0.07990432400577455,-0.04578212297769066]","[-1,-1,-1]","[-0.19498139654780489,0.026332742057351827]","[1,1,1]","[-0.11400380136929643,0.1405012791496576]","[-1,-1,-1]","[0.12011922606058864,-0.05068421446218498]","[1,1,1]","[-0.13988095957454705,0.012940131489581959]","[-1,-1,-1]","[-0.023927024835072787,0.1411079763810934]","[1,1,1]","[-0.06164428204050104,0.007835790900996623]","[1,1,1]","[-0.12144353304822555,-0.14961128437260954]","[-1,-1,-1]","[0.03391293456119195,0.09881788282986534]","[1,1,1]","[-0.05034208094464325,0.09193115610394113]","[-1,-1,-1]","[0.07716663103095689,-0.046709474430092345]","[-1,-1,-1]","[0.0359052987910782,-0.09794044963588563]","[1,1,1]","[0.16290471532807663,0.11175983948883057]","[-1,-1,-1]","[0.039195774567462455,0.026398332462899035]","[1,1,1]","[-0.0045368372408151735,0.07949532059932446]","[1,1,1]","[0.1646339447611501,0.029133347523814333]","[-1,-1,-1]","[0.02,0.02]",212.521,0,26,26,171,1,,,,,,,
,,,,,,,65cf6d8a589a67afcab54e6f,682db40f878f18cddb9bbb1b,2025-05-21_14h11.18.400,cuing_paradigm_dot,2024.1.5,MacIntel,119.047619,682d556593cb38ad0a074487,,,,,,,,,,,212.5213,213.021,,,213.2715,213.7297,left,0.451,,,,,,,,,0.1,,,,,,213.0211,213.2715,213.7298,"[-0.10541925050273297,-0.07625595208390504]","[1,1,1]","[0.07765343498698078,0.06021889291354858]","[-1,-1,-1]","[0.13693943410037346,0.07678373196634611]","[-1,-1,-1]","[0.03988457859345304,0.11753462702878541]","[-1,-1,-1]","[0.015743716388191966,0.04873615745191064]","[-1,-1,-1]","[0.18914783708621685,0.01765987610394066]","[1,1,1]","[-0.1626117712127312,0.10816696956043066]","[-1,-1,-1]","[-0.11656139888634398,0.023074860501892443]","[-1,-1,-1]","[-0.0027413200887582093,-0.028619794607401]","[-1,-1,-1]","[0.07526463215698645,-0.04669614014195606]","[-1,-1,-1]","[-0.013234182291722978,-0.19364981854323324]","[-1,-1,-1]","[0.027527566973448662,0.00679326773605801]","[-1,-1,-1]","[-0.05248319163719898,0.1788991131245416]","[-1,-1,-1]","[-0.08897666412050886,-0.17098964680176781]","[-1,-1,-1]","[-0.15590360201130601,-0.12338827796169131]","[-1,-1,-1]","[0.002810825755881301,-0.12704785597382987]","[-1,-1,-1]","[0.08384309856124682,-0.13421353940021633]","[-1,-1,-1]","[-0.09118663975307822,0.16645770627198037]","[-1,-1,-1]","[-0.1256244867863512,0.13749480931172886]","[-1,-1,-1]","[0.03932897041149423,0.1918629670630813]","[-1,-1,-1]","[-0.11307614540514299,0.07112408756291513]","[-1,-1,-1]","[-0.18090644644405343,-0.04989473454125544]","[-1,-1,-1]","[-0.11804872199230135,-0.1419913876469854]","[-1,-1,-1]","[-0.18902821089288077,0.03759427823549243]","[-1,-1,-1]","[0.028728564073755927,-0.053965460138345536]","[-1,-1,-1]","[0.02782830547060083,-0.18054977591548607]","[-1,-1,-1]","[-0.045668997472276665,0.12741781985804349]","[1,1,1]","[-0.05348191284500247,-0.10196496508433672]","[-1,-1,-1]","[-0.07477434421092614,0.01044707609206096]","[-1,-1,-1]","[0.19154591720170863,-0.05527486377876614]","[-1,-1,-1]","[0.18175177021129169,0.06024553435240075]","[-1,-1,-1]","[-0.0896899902606559,0.11613871163701117]","[-1,-1,-1]","[0.02,0.02]",214.8295,0,27,27,28,1,,,,,,,
,,,,,,,65cf6d8a589a67afcab54e6f,682db40f878f18cddb9bbb1b,2025-05-21_14h11.18.400,cuing_paradigm_dot,2024.1.5,MacIntel,119.047619,682d556593cb38ad0a074487,,,,,,,,,,,214.8302,215.3295,,,215.5803,217.0788,,,,,,,,,,,0.6,,,,,,215.3295,215.5802,217.079,"[-0.11614713144520006,-0.14955951559166775]","[1,1,1]","[-0.01697223804902149,0.031742816607757886]","[1,1,1]","[0.08367306401618119,-0.08185676076113069]","[1,1,1]","[-0.18368356855200846,0.022114265208719914]","[-1,-1,-1]","[-0.14954625955891293,0.08198411749893435]","[1,1,1]","[0.13315083433048464,0.008240678332148258]","[-1,-1,-1]","[-0.1357704035405651,-0.07992674270014803]","[-1,-1,-1]","[0.01321300683498684,0.0862326090168981]","[-1,-1,-1]","[0.06885361189029263,-0.12821772074268123]","[1,1,1]","[0.13398249123422287,0.050389521471958146]","[1,1,1]","[-0.09236765419665244,0.16113032848472617]","[-1,-1,-1]","[0.09875684604569769,0.08280215680216663]","[1,1,1]","[0.0590586562972161,-0.009219472641656658]","[1,1,1]","[-0.0344913905277498,0.17138537249806157]","[1,1,1]","[0.09923089201715604,-0.03767496861950515]","[-1,-1,-1]","[0.18312319169647795,0.06068124548016505]","[-1,-1,-1]","[0.036367510962403475,0.04235121358312477]","[1,1,1]","[0.02200471209399658,0.15785077724222846]","[1,1,1]","[-0.07363915102611097,0.03167533786559836]","[1,1,1]","[-0.0328707136468833,-0.19276538365145474]","[1,1,1]","[-0.13484525179539963,0.1398857506713652]","[1,1,1]","[0.029258915402277118,-0.10048942138574467]","[-1,-1,-1]","[0.13548149417700278,0.14460661091185834]","[-1,-1,-1]","[-0.1463791656033803,-0.02715046492246588]","[1,1,1]","[-0.07470502407177042,-0.0734801211185123]","[1,1,1]","[0.08260003630343096,0.16567154056196098]","[1,1,1]","[0.16637841473899673,-0.10779245554962341]","[-1,-1,-1]","[-0.020956134719836237,-0.08981288477624866]","[1,1,1]","[-0.0031148921917975164,-0.030042239864214032]","[1,1,1]","[0.17107877268972954,-0.030951495092602428]","[-1,-1,-1]","[-0.035020841924365546,0.11877167984730712]","[-1,-1,-1]","[0.11960336625712548,-0.15082773839974245]","[-1,-1,-1]","[0.02,0.02]",218.1795,0,28,28,174,1,,,,,,,
,,,,,,,65cf6d8a589a67afcab54e6f,682db40f878f18cddb9bbb1b,2025-05-21_14h11.18.400,cuing_paradigm_dot,2024.1.5,MacIntel,119.047619,682d556593cb38ad0a074487,,,,,,,,,,,218.1801,218.6796,,,218.9297,219.688,right,0.7514,,,,,,,,,0.45,,,,,,218.6797,218.9297,219.688,"[-0.030764176649928417,0.029146212011187594]","[1,1,1]","[0.018638074436459488,0.03241944647181372]","[-1,-1,-1]","[-0.18390924680624318,0.07402392731067439]","[1,1,1]","[0.002978919276017653,-0.16905603187493737]","[-1,-1,-1]","[0.19054418700703848,0.0467310129018431]","[1,1,1]","[-0.13860739272530156,-0.004944360172822889]","[1,1,1]","[0.10757929228475634,0.01688393018169668]","[-1,-1,-1]","[0.12420596582922196,0.11019923800253048]","[1,1,1]","[-0.09490766133785596,0.16936259108980395]","[-1,-1,-1]","[0.00932990307607745,0.1348122640448788]","[-1,-1,-1]","[0.11274537426984946,0.1556977516228433]","[1,1,1]","[-0.04025334617170023,0.1360962756976745]","[1,1,1]","[-0.09262831369003992,-0.016096048029064697]","[-1,-1,-1]","[0.05947427877377788,-0.007075256943807499]","[1,1,1]","[0.08263752005415753,-0.10591402150605428]","[1,1,1]","[0.12381223692929927,-0.12386653516031727]","[-1,-1,-1]","[-0.06422797545356626,0.060092888164815485]","[-1,-1,-1]","[0.037801487793513236,0.08142907385777283]","[-1,-1,-1]","[0.08046423808211915,-0.05703055858992121]","[-1,-1,-1]","[-0.13284192156801655,0.05046043030550254]","[-1,-1,-1]","[-0.015906217341776052,-0.02500232575362158]","[-1,-1,-1]","[0.04245651753807651,-0.16141930843777919]","[-1,-1,-1]","[0.038069036659417514,-0.10212207884830679]","[1,1,1]","[-0.019601101175690316,0.19610153405262315]","[-1,-1,-1]","[0.16888383402458462,0.08847829019730204]","[-1,-1,-1]","[-0.17979456590076623,-0.029565666279366982]","[-1,-1,-1]","[-0.13007136753016252,-0.06808229189142087]","[1,1,1]","[-0.020052983843199253,-0.09989808909621832]","[1,1,1]","[-0.10242632866641796,-0.1375762555273674]","[1,1,1]","[-0.07268553958864106,-0.10130078549645921]","[-1,-1,-1]","[0.1757449009854692,0.004967845158761139]","[1,1,1]","[-0.08323967298353066,-0.0609277527190487]","[-1,-1,-1]","[0.02,0.02]",220.7878,0,29,29,63,1,,,,,,,
,,,,,,,65cf6d8a589a67afcab54e6f,682db40f878f18cddb9bbb1b,2025-05-21_14h11.18.400,cuing_paradigm_dot,2024.1.5,MacIntel,119.047619,682d556593cb38ad0a074487,,,,,,,,,,,220.7883,221.2879,,,221.5381,222.1298,left,0.5838,,,,,,,,,0.55,,,,,,221.288,221.538,222.1298,"[0.029946647309015903,-0.06067997766578468]","[1,1,1]","[0.08910366513665058,0.1591867420412261]","[1,1,1]","[-0.1240023303880753,0.10262248358205811]","[-1,-1,-1]","[-0.1218254773802231,-0.11757286146194018]","[-1,-1,-1]","[0.0947244046446269,-0.16114907036972712]","[1,1,1]","[-0.02638972591522614,-0.09056827869436039]","[1,1,1]","[0.08966555033461576,-0.06270433305515132]","[1,1,1]","[-0.0706632168385584,-0.16878165387895527]","[-1,-1,-1]","[-0.052245304543470074,0.15512044849763454]","[1,1,1]","[-0.006589336320264233,-0.19555127270714015]","[1,1,1]","[-0.15033942681197912,0.03159370708447475]","[-1,-1,-1]","[0.0899037148411836,0.0053907686218495525]","[1,1,1]","[-0.09854420453037264,-0.026886299803681422]","[-1,-1,-1]","[-0.022690280760841182,0.08124432010777811]","[-1,-1,-1]","[0.0072304417177400495,0.1286008471369543]","[1,1,1]","[-0.08064900854264673,0.12125540887180512]","[-1,-1,-1]","[0.19425250977564823,-0.0037849711638989034]","[1,1,1]","[-0.0283536818254134,-0.014237468556683114]","[-1,-1,-1]","[0.005017668294747791,-0.11947841718424652]","[-1,-1,-1]","[0.15635542680857217,-0.018169066890128503]","[1,1,1]","[-0.14373175068289798,-0.025156209024422123]","[-1,-1,-1]","[0.039966114644148946,-0.15371800979328085]","[-1,-1,-1]","[0.028126544584715234,-0.009385741453325989]","[-1,-1,-1]","[0.14938784993985915,-0.11772237696484475]","[1,1,1]","[0.05916624699440181,0.11751106873683444]","[1,1,1]","[0.150854287255312,0.0966102280076288]","[1,1,1]","[-0.009475542769157675,0.021046001184924938]","[-1,-1,-1]","[0.10951330089229097,-0.10973054487190484]","[1,1,1]","[0.11630846677123745,-0.028478884763123623]","[1,1,1]","[0.029201069801625276,0.16509707087807043]","[1,1,1]","[-0.09778921265450354,0.16144795676208776]","[-1,-1,-1]","[0.1603022027978394,0.0512765687473335]","[1,1,1]","[0.02,0.02]",223.2296,0,30,30,125,1,,,,,,,
,,,,,,,65cf6d8a589a67afcab54e6f,682db40f878f18cddb9bbb1b,2025-05-21_14h11.18.400,cuing_paradigm_dot,2024.1.5,MacIntel,119.047619,682d556593cb38ad0a074487,,,,,,,,,,,223.2298,223.7296,,,223.9797,224.4965,right,0.5128,,,,,,,,,0.5,,,,,,223.7298,223.9797,224.4965,"[0.12231893321603927,0.11640778855315971]","[1,1,1]","[0.11517984262358445,0.06033784668313795]","[-1,-1,-1]","[0.05354319004402132,0.1356629166797461]","[-1,-1,-1]","[0.034716220314351814,-0.04491654434891099]","[-1,-1,-1]","[-0.11300835590034514,-0.02701269293168668]","[-1,-1,-1]","[0.04552166136852245,-0.15174659667804288]","[1,1,1]","[-0.1030387968182566,-0.10263842003648047]","[-1,-1,-1]","[0.05472602981767108,0.030539605779131986]","[1,1,1]","[-0.010264400568013473,-0.11759286931366571]","[-1,-1,-1]","[-0.15013163957259368,0.11948499876634043]","[1,1,1]","[0.09394930724895043,-0.1689966160920844]","[1,1,1]","[0.0005851648509771328,0.15188854341161923]","[-1,-1,-1]","[0.025041828266016048,0.05799310776762302]","[1,1,1]","[-0.046068981715093216,0.13745753601456706]","[-1,-1,-1]","[-0.016301288029717222,-0.16918055972815596]","[1,1,1]","[-0.016804164846768353,-0.06166459622561515]","[-1,-1,-1]","[0.13206353861718403,-0.07727670356180362]","[1,1,1]","[0.11698098243421112,-0.015254856237197299]","[-1,-1,-1]","[-0.11448012642549056,0.1613934224510075]","[-1,-1,-1]","[-0.009506888971954086,0.10857041678619157]","[1,1,1]","[-0.07686292270986583,-0.1814679206595036]","[1,1,1]","[-0.14302399359869625,0.024497941749877714]","[1,1,1]","[-0.09330560411874343,0.05718548354690882]","[-1,-1,-1]","[0.17845291122194834,0.08965776423073138]","[1,1,1]","[-0.029645973177274215,-0.015643459676123732]","[-1,-1,-1]","[-0.042598163793896866,0.04301062958024538]","[1,1,1]","[0.0707882559285833,0.18323104629271747]","[1,1,1]","[0.09773902986941777,0.02261256023837194]","[-1,-1,-1]","[0.02484554715073644,-0.19148469456249664]","[1,1,1]","[-0.1712119736742639,-0.06405941164714207]","[-1,-1,-1]","[0.16423403442427575,0.023836326658242594]","[-1,-1,-1]","[-0.191726824613812,0.038241238856006145]","[1,1,1]","[0.02,0.02]",225.596,0,31,31,117,1,,,,,,,
,,,,,,,65cf6d8a589a67afcab54e6f,682db40f878f18cddb9bbb1b,2025-05-21_14h11.18.400,cuing_paradigm_dot,2024.1.5,MacIntel,119.047619,682d556593cb38ad0a074487,,,,,,,,,,,225.5967,226.0962,,,226.3469,226.8049,right,0.4477,,,,,,,,,0.9,,,,,,226.0962,226.3467,226.805,"[-0.0761781053094925,0.0011716942882593557]","[1,1,1]","[-0.17384647021600805,-0.04007435630223298]","[1,1,1]","[-0.14955418905070675,0.010234850571817899]","[-1,-1,-1]","[0.1108607423331553,0.16347627644280632]","[1,1,1]","[-0.16096307271407598,0.1161959759494928]","[1,1,1]","[0.10194981406070901,0.09988436398150129]","[1,1,1]","[0.1836894481186077,-0.03335408625410481]","[1,1,1]","[-0.05308417597782569,-0.18396504103221986]","[1,1,1]","[-0.016752886490545616,0.09633856836877551]","[1,1,1]","[-0.0265788911744309,-0.1218928440757026]","[1,1,1]","[0.12180403387031358,-0.12956711508203592]","[1,1,1]","[0.08173964088208907,0.01868345608493515]","[-1,-1,-1]","[-0.08500163210964318,0.11422609325112627]","[1,1,1]","[0.1551246415108676,0.11118607091107244]","[1,1,1]","[-0.08600570328554487,-0.12073370069574145]","[1,1,1]","[0.03646320913149458,-0.045245581836053914]","[1,1,1]","[-0.174348068189254,0.04785395092578957]","[1,1,1]","[-0.028904685304856553,0.014487495626094785]","[1,1,1]","[0.046603851880036636,-0.10834084273686863]","[1,1,1]","[0.033543893799093505,0.07938430304442375]","[1,1,1]","[-0.11644466350367909,0.15823488374429326]","[1,1,1]","[0.014535692433702375,-0.0062330873845274715]","[1,1,1]","[0.092664387255984,-0.023495713960845408]","[1,1,1]","[0.13047980759508937,0.06692147205418993]","[1,1,1]","[0.13445613067215886,-0.06643784073167511]","[1,1,1]","[-0.10095523107539056,-0.16947885510385052]","[1,1,1]","[0.18971204993994958,0.06331276919504461]","[1,1,1]","[-0.1491994207664075,-0.13308908708974823]","[1,1,1]","[0.07453713067118016,-0.07689983663306807]","[1,1,1]","[-0.07439198107600506,-0.04941362889113847]","[1,1,1]","[-0.05605850522821949,0.05141263513444969]","[1,1,1]","[-0.1632791433948408,-0.08279953942768271]","[-1,-1,-1]","[0.02,0.02]",227.9043,0,32,32,200,1,,,,,,,
,,,,,,,65cf6d8a589a67afcab54e6f,682db40f878f18cddb9bbb1b,2025-05-21_14h11.18.400,cuing_paradigm_dot,2024.1.5,MacIntel,119.047619,682d556593cb38ad0a074487,,,,,,,,,,,227.9047,228.4043,,,228.6547,229.2712,right,0.6097,,,,,,,,,0.9,,,,,,228.4043,228.6547,229.2712,"[0.03500730639133726,-0.12450154815185269]","[1,1,1]","[0.11536737639396363,-0.14207956468050928]","[1,1,1]","[-0.02454190902077704,0.13392723292801598]","[1,1,1]","[0.02284476124200447,0.03258467368291391]","[1,1,1]","[0.18082446930802712,-0.07049625801152752]","[1,1,1]","[0.047939139616990714,-0.021026952755077457]","[1,1,1]","[0.04850307032884456,0.07908081533032751]","[1,1,1]","[-0.1648559679235847,0.10004041645212118]","[1,1,1]","[-0.02454160303340762,0.03806953956121095]","[1,1,1]","[0.10894953063315162,0.06528576931574277]","[1,1,1]","[0.11140005907470413,0.10639138388348739]","[1,1,1]","[0.03338440917275131,-0.1784263447592265]","[1,1,1]","[-0.04188947791273121,-0.13384519950289792]","[1,1,1]","[-0.030701935001378605,-0.015516517594308287]","[1,1,1]","[-0.04755715593427319,-0.06498335325765264]","[1,1,1]","[-0.1607221193633305,-0.10248292046632992]","[1,1,1]","[-0.19361951085350862,-0.0034799086226997905]","[1,1,1]","[-0.13213620278118934,-0.03848094374139987]","[1,1,1]","[0.140542098728437,-0.017213426143653596]","[1,1,1]","[-0.07044049290994178,-0.007282163122451501]","[1,1,1]","[-0.12611904286341188,-0.131394492897989]","[1,1,1]","[0.14108882652130347,-0.10602293286410286]","[-1,-1,-1]","[-0.016631686004427722,-0.18637068883709224]","[1,1,1]","[0.07245104192783432,0.17041973840897695]","[1,1,1]","[0.032646873941932816,0.180150081309898]","[1,1,1]","[-0.09102541314482432,0.17487925600925114]","[1,1,1]","[0.16212767482666762,0.04125678821299016]","[1,1,1]","[-0.09225381080308674,-0.07800852547129039]","[1,1,1]","[0.0004732333581894006,-0.06764247750801225]","[-1,-1,-1]","[-0.15250445962857673,0.06023806529370999]","[-1,-1,-1]","[0.19196250412848911,-0.023677087307675423]","[1,1,1]","[-0.01559302000804394,0.0861573756403008]","[1,1,1]","[0.02,0.02]",230.3712,0,33,33,196,1,,,,,,,
,,,,,,,65cf6d8a589a67afcab54e6f,682db40f878f18cddb9bbb1b,2025-05-21_14h11.18.400,cuing_paradigm_dot,2024.1.5,MacIntel,119.047619,682d556593cb38ad0a074487,,,,,,,,,,,230.3718,230.8714,,,231.1214,231.6965,right,0.5672,,,,,,,,,0.4,,,,,,230.8714,231.1213,231.6965,"[0.08347692930127974,0.08783084961927766]","[-1,-1,-1]","[-0.1390773748767955,-0.09724645743888168]","[-1,-1,-1]","[-0.062262455741557275,-0.019891511449403786]","[1,1,1]","[-0.17289865663941714,-0.03130134706138281]","[1,1,1]","[-0.15556689666040033,0.048938250368857086]","[-1,-1,-1]","[-0.0067995712044288,0.1271373875887975]","[1,1,1]","[0.11340821071299527,-0.128879370587254]","[1,1,1]","[0.02756607577954182,-0.060170647664958866]","[-1,-1,-1]","[0.1335746624557319,0.08813886093702321]","[-1,-1,-1]","[-0.04577453802694059,0.15176802515411628]","[-1,-1,-1]","[-0.043651999204174396,-0.0728416809498908]","[-1,-1,-1]","[0.00727970551725369,0.06992107481408885]","[1,1,1]","[0.012372138307994536,-0.022876275190792456]","[-1,-1,-1]","[0.06307834545476591,-0.11393501919556116]","[1,1,1]","[0.12428481690603041,0.13768783771508125]","[1,1,1]","[-0.03601743741819546,0.048263825943160865]","[-1,-1,-1]","[0.016478944646016676,0.029292394585287557]","[-1,-1,-1]","[-0.06787607628250512,-0.11215963168225898]","[-1,-1,-1]","[-0.10535608641238325,0.0824978859470114]","[-1,-1,-1]","[0.16737573936018835,-0.026656796828178727]","[1,1,1]","[-0.1037973386754278,0.0010311996078676117]","[1,1,1]","[-0.0459581466759098,-0.18798093291898152]","[-1,-1,-1]","[0.13825151986915035,-0.06817872678354675]","[1,1,1]","[-0.11346524593522227,-0.04739679850594313]","[1,1,1]","[0.08191391629695662,-0.04308982572493849]","[-1,-1,-1]","[-0.021500553210419947,0.19141452542039322]","[-1,-1,-1]","[-0.0629453791673764,0.08962840796796617]","[1,1,1]","[-0.1617255273716461,0.09786099042688033]","[-1,-1,-1]","[0.07350630787423493,-0.18545487599925203]","[-1,-1,-1]","[0.029496220279018243,-0.1467734510349476]","[-1,-1,-1]","[0.061510845405139306,0.1703497818387883]","[-1,-1,-1]","[0.07857106759465209,0.04069671480624685]","[1,1,1]","[0.02,0.02]",232.7959,0,34,34,39,1,,,,,,,
,,,,,,,65cf6d8a589a67afcab54e6f,682db40f878f18cddb9bbb1b,2025-05-21_14h11.18.400,cuing_paradigm_dot,2024.1.5,MacIntel,119.047619,682d556593cb38ad0a074487,,,,,,,,,,,232.796,233.2959,,,233.546,234.1043,left,0.5528,,,,,,,,,0.4,,,,,,233.2959,233.546,234.1043,"[-0.01324503522534039,-0.19908789013084255]","[1,1,1]","[-0.1818864194764288,0.04524552062911253]","[1,1,1]","[0.0535313867759494,-0.15946914731251266]","[1,1,1]","[-0.13841818675121886,-0.05975915152943575]","[1,1,1]","[-0.06529098608218348,-0.027712144853722476]","[-1,-1,-1]","[0.1823549371216778,-0.07951323953906908]","[-1,-1,-1]","[-0.14665097817103334,0.018800060968102578]","[1,1,1]","[-0.018621769575091516,0.16955305094873305]","[-1,-1,-1]","[0.04034148272969871,-0.0252809979300706]","[-1,-1,-1]","[-0.06924810573316831,0.15624111966918586]","[1,1,1]","[-0.12829724705372217,-0.13512646134392564]","[-1,-1,-1]","[-0.017620770840289953,0.09398290242724196]","[1,1,1]","[0.012404929971624732,-0.13268538278421382]","[-1,-1,-1]","[-0.17339366942269263,0.09087915625226498]","[-1,-1,-1]","[0.017708054881859416,0.03143686421838361]","[-1,-1,-1]","[-0.034638878528225336,0.13233215077811442]","[1,1,1]","[0.09396265928220326,-0.15373757288177917]","[-1,-1,-1]","[-0.05425984480824486,-0.11028023099341333]","[-1,-1,-1]","[0.18716063716351386,-0.01160576414089399]","[-1,-1,-1]","[0.13155608070278668,0.02238032883336023]","[-1,-1,-1]","[-0.12311173365214784,-0.016116289678738908]","[-1,-1,-1]","[-0.10702163011739217,0.1274174727889565]","[-1,-1,-1]","[0.12033323360947272,0.14344201664111625]","[-1,-1,-1]","[-0.029342818192721897,0.014569605673680734]","[1,1,1]","[0.14764632540157413,0.09754919091765854]","[-1,-1,-1]","[0.012119893448864744,0.13314849127494047]","[-1,-1,-1]","[-0.01885911413646289,-0.0287659975935936]","[1,1,1]","[0.17402201239016388,0.05789875406802059]","[1,1,1]","[0.056373486876156835,-0.09645367872145953]","[-1,-1,-1]","[-0.1759319112932493,-0.010747638740480316]","[-1,-1,-1]","[0.07501194999478139,0.07353574193825158]","[1,1,1]","[-0.1247483263109626,0.06647744958122853]","[1,1,1]","[0.02,0.02]",235.2047,0,35,35,46,1,,,,,,,
,,,,,,,65cf6d8a589a67afcab54e6f,682db40f878f18cddb9bbb1b,2025-05-21_14h11.18.400,cuing_paradigm_dot,2024.1.5,MacIntel,119.047619,682d556593cb38ad0a074487,,,,,,,,,,,235.2054,235.7045,,,235.9548,236.6466,right,0.6818,,,,,,,,,0.55,,,,,,235.7045,235.9548,236.6466,"[0.039440291260291416,-0.02011439018739025]","[1,1,1]","[0.11227599692869629,0.05557296137984866]","[-1,-1,-1]","[-0.17199612294606978,-0.07679997586986011]","[1,1,1]","[-0.054518334476114254,-0.00048153919119691]","[1,1,1]","[0.1078576584488584,0.13677758975018006]","[1,1,1]","[0.059529071111458054,0.07140521570604759]","[1,1,1]","[-0.0637318257211888,-0.08255444104283932]","[-1,-1,-1]","[-0.06719180698398546,0.14875481751840705]","[-1,-1,-1]","[-0.18749136466539745,0.0588902469462794]","[-1,-1,-1]","[0.0015063439632072918,0.09671268544400762]","[-1,-1,-1]","[0.11945270378849915,-0.14045764079852546]","[1,1,1]","[-0.09670882492966694,-0.03889235826710134]","[-1,-1,-1]","[0.07275743531285044,-0.13016291806250857]","[-1,-1,-1]","[-0.15542373994709313,0.08850043956625296]","[1,1,1]","[-0.06201382004868901,0.08172209810662337]","[-1,-1,-1]","[-0.1753748925034133,0.0069796011910692205]","[1,1,1]","[0.1298854052918016,-0.04241385459957098]","[1,1,1]","[-0.035270219015311854,-0.1692539292387107]","[1,1,1]","[0.03742030806369562,-0.18759120813025007]","[1,1,1]","[0.03172763874147248,-0.1011164343957649]","[1,1,1]","[-0.13731274517058048,0.0252265437427883]","[1,1,1]","[0.16054484451238626,-0.09934099982084246]","[-1,-1,-1]","[-0.07512762639773897,-0.1399676875007338]","[1,1,1]","[-0.0968337599068276,0.05043889053654625]","[1,1,1]","[-0.025690031661498816,0.14774965636156084]","[1,1,1]","[0.17985109478236588,-0.017678435412829145]","[-1,-1,-1]","[-0.14840897602069192,-0.044347899116630195]","[-1,-1,-1]","[0.14971602894465708,0.12310069927070859]","[-1,-1,-1]","[0.04681898868950576,0.14779324240266276]","[-1,-1,-1]","[0.16810020929401828,0.06696671496927294]","[1,1,1]","[-0.11578755699377978,-0.12215593503036994]","[1,1,1]","[-0.020666125823571115,-0.05213985303560567]","[-1,-1,-1]","[0.02,0.02]",237.7464,0,36,36,149,1,,,,,,,
,,,,,,,65cf6d8a589a67afcab54e6f,682db40f878f18cddb9bbb1b,2025-05-21_14h11.18.400,cuing_paradigm_dot,2024.1.5,MacIntel,119.047619,682d556593cb38ad0a074487,,,,,,,,,,,237.7471,238.2462,,,238.497,238.9372,left,0.4328,,,,,,,,,0.4,,,,,,238.2463,238.497,238.9372,"[-0.08187905884497731,-0.0835232991266269]","[1,1,1]","[0.16378728525933794,-0.0789258439184849]","[1,1,1]","[0.005391397666301452,-0.19801458444271702]","[1,1,1]","[0.04927605905342371,0.1671270414875589]","[1,1,1]","[-0.050785528210604274,0.11861420919145921]","[-1,-1,-1]","[-0.15208244260834158,0.09188164970597469]","[-1,-1,-1]","[-0.152523210222343,0.0024660708608040664]","[-1,-1,-1]","[0.012775389805109935,-0.07180417254083271]","[-1,-1,-1]","[-0.13893711890640964,0.04567167011489698]","[-1,-1,-1]","[-0.06642813886013223,0.16573966684036517]","[-1,-1,-1]","[-0.035605550999945744,-0.19606696252281405]","[-1,-1,-1]","[0.0037786377327990654,-0.016702494157078942]","[-1,-1,-1]","[-0.029829667024232703,-0.1094885781184652]","[-1,-1,-1]","[0.14667058659130608,-0.039005046594393585]","[-1,-1,-1]","[-0.0043340350050636665,0.09492484164809718]","[-1,-1,-1]","[-0.09231622845051464,0.0115272417517873]","[1,1,1]","[-0.10586817772712367,-0.13688804747344166]","[-1,-1,-1]","[0.06703485909976481,0.059066402973651955]","[1,1,1]","[-0.014910973035275082,0.053091349079134105]","[-1,-1,-1]","[-0.09108786019503524,0.0725795678867955]","[-1,-1,-1]","[0.04421625199614341,-0.11943720886605905]","[1,1,1]","[0.15163602610419033,0.03577474925437913]","[1,1,1]","[-0.11908993490688387,-0.06858949552765767]","[1,1,1]","[-0.15471282486028784,-0.12273514924931431]","[1,1,1]","[0.09808225870789686,-0.10894502412313563]","[-1,-1,-1]","[0.03710229110744826,0.027289077560537486]","[-1,-1,-1]","[0.12730119466497178,0.15009858496880094]","[-1,-1,-1]","[-0.1053716626413968,0.11528805475430033]","[1,1,1]","[-0.041744901256748665,-0.03651620293528913]","[-1,-1,-1]","[0.16225878561792112,0.0989944269162356]","[1,1,1]","[0.11092984307784985,0.11196992715973396]","[1,1,1]","[-0.1932924600318208,-0.0006774203201264958]","[-1,-1,-1]","[0.02,0.02]",240.037,0,37,37,34,1,,,,,,,
,,,,,,,65cf6d8a589a67afcab54e6f,682db40f878f18cddb9bbb1b,2025-05-21_14h11.18.400,cuing_paradigm_dot,2024.1.5,MacIntel,119.047619,682d556593cb38ad0a074487,,,,,,,,,,,240.0377,240.5378,,,240.7876,241.3048,left,0.5108,,,,,,,,,0.45,,,,,,240.5379,240.7876,241.305,"[0.13806561953415833,0.1399257478742965]","[-1,-1,-1]","[0.058445167996725216,0.0321925179103571]","[-1,-1,-1]","[-0.1283757237907963,0.12378884077858669]","[1,1,1]","[0.08770700878169774,-0.053793201727660514]","[-1,-1,-1]","[-0.002101298870398277,-0.07381945509424861]","[-1,-1,-1]","[0.13485465593453888,-0.11617103153719252]","[1,1,1]","[0.10588227108037922,0.10707653471216051]","[-1,-1,-1]","[-0.09923328721416796,0.021583349560536896]","[1,1,1]","[0.15851883203162853,-0.07190352993334126]","[-1,-1,-1]","[-0.09699583318799297,-0.1720061602116068]","[-1,-1,-1]","[-0.12737591952185892,-0.06269787447174298]","[1,1,1]","[0.1525111495981836,0.0899887593278381]","[-1,-1,-1]","[0.02462341019230276,-0.13524494655454133]","[-1,-1,-1]","[-0.03231830322536334,0.018280498861496523]","[-1,-1,-1]","[0.013900904595487611,0.007140614057229651]","[1,1,1]","[-0.07478967726627697,0.14446418606756273]","[1,1,1]","[0.06743804683090722,0.17374157682957989]","[1,1,1]","[0.19539820723405257,-0.031776974822256165]","[-1,-1,-1]","[-0.1291793526659381,-0.007402856012124515]","[1,1,1]","[0.04503320711088534,-0.19057956636072376]","[1,1,1]","[-0.1802201404165,0.06484989117224306]","[1,1,1]","[-0.08837742597994469,0.07272262688299978]","[-1,-1,-1]","[-0.13337480375050867,-0.10783244010370907]","[1,1,1]","[0.13033024037312918,0.014579285796440801]","[-1,-1,-1]","[-0.04440564825910047,-0.1901639389647494]","[-1,-1,-1]","[0.00282976158713025,0.1105092247041222]","[1,1,1]","[-0.015973185559297897,-0.12260444414330945]","[-1,-1,-1]","[-0.0442419254044224,-0.08282886867246492]","[1,1,1]","[0.09283914608922697,-0.11679036590956861]","[-1,-1,-1]","[-0.007903652546204488,0.17327221155278913]","[1,1,1]","[-0.16823051556931481,-0.01793357571546601]","[-1,-1,-1]","[-0.18216897593519524,-0.07954138702953466]","[-1,-1,-1]","[0.02,0.02]",242.4045,0,38,38,74,1,,,,,,,
,,,,,,,65cf6d8a589a67afcab54e6f,682db40f878f18cddb9bbb1b,2025-05-21_14h11.18.400,cuing_paradigm_dot,2024.1.5,MacIntel,119.047619,682d556593cb38ad0a074487,,,,,,,,,,,242.405,242.9045,,,243.1547,243.713,right,0.5511,,,,,,,,,0.6,,,,,,242.9046,243.1547,243.713,"[0.05908039870724671,0.07729655945148714]","[1,1,1]","[-0.0896702145807212,0.1610634143655364]","[1,1,1]","[0.09076173597119926,0.04603875633336093]","[1,1,1]","[-0.048854350764216875,-0.08341575360262027]","[-1,-1,-1]","[0.09045215064128448,-0.07003501050586038]","[-1,-1,-1]","[-0.12616872562223067,-0.14543592929321975]","[-1,-1,-1]","[-0.16546279026617516,-0.07397138666284105]","[1,1,1]","[-0.09932535894254069,-0.04918798543623976]","[1,1,1]","[-0.16690677741902746,0.08972964676119655]","[1,1,1]","[0.1536094975828421,0.06547904411641443]","[-1,-1,-1]","[0.029845636959760367,0.0206006593228879]","[-1,-1,-1]","[0.09746814556037955,0.10517271897756769]","[1,1,1]","[-0.19178270635704972,0.0011336106950619496]","[-1,-1,-1]","[0.07692847596119377,0.17101859498616565]","[1,1,1]","[-0.04252222335263549,0.08185637642528121]","[1,1,1]","[-0.14055487935551636,0.026646806128947657]","[-1,-1,-1]","[0.0690923221699079,-0.14180816786872527]","[1,1,1]","[0.12987525948574816,-0.03361004772886456]","[1,1,1]","[0.04557439063076116,-0.10344673854436298]","[1,1,1]","[0.14705527551999242,-0.13002600398187744]","[-1,-1,-1]","[0.10660629581048327,-0.16357274341675523]","[1,1,1]","[0.17316750749635446,0.027947696857603184]","[1,1,1]","[0.18075036167549136,-0.06073154113935429]","[1,1,1]","[0.034441638511205935,-0.18067324527377213]","[1,1,1]","[-0.1400633263374502,-0.022826699724792347]","[1,1,1]","[0.0024109016675909613,0.12327841883154173]","[-1,-1,-1]","[0.039917477963068916,-0.04247839422917382]","[-1,-1,-1]","[-0.010872953008402658,-0.17640757837930496]","[1,1,1]","[0.12684142337955648,0.009277185653273599]","[1,1,1]","[-0.010180567101132753,-0.01253726799963875]","[-1,-1,-1]","[0.0006742159411319455,0.16959820264341655]","[-1,-1,-1]","[-0.13123960976669313,0.11645847081201588]","[-1,-1,-1]","[0.02,0.02]",244.813,0,39,39,168,1,,,,,,,
,,,,,,,65cf6d8a589a67afcab54e6f,682db40f878f18cddb9bbb1b,2025-05-21_14h11.18.400,cuing_paradigm_dot,2024.1.5,MacIntel,119.047619,682d556593cb38ad0a074487,,,,,,,,,,,244.8138,245.3129,,,245.5632,245.9798,right,0.4084,,,,,,,,,0.5,,,,,,245.313,245.5632,245.9799,"[0.1297140693279052,-0.05199531318550378]","[1,1,1]","[-0.020636636606977274,-0.11334734382715728]","[1,1,1]","[0.08266983951536716,-0.06972271779328662]","[1,1,1]","[0.08788335433331602,-0.13681813172709376]","[1,1,1]","[-0.008656241256483323,0.08291321162952883]","[-1,-1,-1]","[0.05143074859614326,0.09405465187721825]","[-1,-1,-1]","[0.06064950278571309,-0.18924628738273758]","[-1,-1,-1]","[-0.12374263707734202,0.045025348257866915]","[-1,-1,-1]","[0.1074528025597331,0.1366854764814307]","[-1,-1,-1]","[-0.13742674880300557,-0.000006676280015632835]","[-1,-1,-1]","[0.031879576787661505,0.1769416033068251]","[1,1,1]","[-0.06366823807463641,-0.026090596699919054]","[-1,-1,-1]","[-0.09879053305996757,-0.14808061447405152]","[-1,-1,-1]","[-0.03898231180533225,0.024413661078590592]","[1,1,1]","[0.10548959928652905,0.06126935376737712]","[1,1,1]","[-0.1920556761466259,-0.012973079746967054]","[-1,-1,-1]","[-0.1612016914571088,0.07835280576479522]","[-1,-1,-1]","[0.029496536566548125,-0.0010257198190002988]","[1,1,1]","[0.081420304231371,0.02573787689474937]","[1,1,1]","[-0.01412050167824695,-0.0446161023534257]","[1,1,1]","[-0.09525115139661326,0.1366550281983473]","[-1,-1,-1]","[0.16925719932386826,0.06084200688875461]","[1,1,1]","[-0.03088040978724595,-0.16541700583214697]","[-1,-1,-1]","[0.022451474874374856,-0.10552329239799094]","[1,1,1]","[-0.13083528235420905,-0.04198175962013531]","[-1,-1,-1]","[0.1841125616008338,-0.032619653596707175]","[-1,-1,-1]","[-0.030320066997912006,0.17372306398983867]","[-1,-1,-1]","[-0.1252516286806609,-0.11570051679833483]","[-1,-1,-1]","[0.16264858024274642,-0.10228273950847717]","[1,1,1]","[-0.073020692534733,0.0957614518865948]","[1,1,1]","[0.015350052028522718,-0.14719090448950878]","[1,1,1]","[-0.09401366984501969,-0.07478749337233422]","[1,1,1]","[0.02,0.02]",247.0796,0,40,40,116,1,,,,,,,
,,,,,,,65cf6d8a589a67afcab54e6f,682db40f878f18cddb9bbb1b,2025-05-21_14h11.18.400,cuing_paradigm_dot,2024.1.5,MacIntel,119.047619,682d556593cb38ad0a074487,,,,,,,,,,,247.0804,247.5795,,,247.8299,248.1964,right,0.3618,,,,,,,,,0.4,,,,,,247.5795,247.8299,248.1966,"[0.1423238279927611,-0.13582137583996795]","[-1,-1,-1]","[0.060767596503402424,0.07373540613827789]","[1,1,1]","[0.033901562945525134,-0.0378282805176063]","[-1,-1,-1]","[0.09168651558286971,-0.0417135732133451]","[-1,-1,-1]","[-0.11549879795817226,0.11706760729153586]","[-1,-1,-1]","[0.045811855056312585,-0.08823432818384767]","[-1,-1,-1]","[-0.08920637891591206,0.07429258879285706]","[1,1,1]","[-0.13172716180146885,-0.11105726865882153]","[1,1,1]","[0.037323945427534956,0.14027638357259695]","[-1,-1,-1]","[-0.011482527509191516,0.16748490179018083]","[1,1,1]","[-0.1842477837160066,-0.002191980440645245]","[1,1,1]","[0.08580907399757799,-0.11309229384655797]","[-1,-1,-1]","[0.13539941316282655,-0.05200811340004494]","[1,1,1]","[0.13001213750214277,0.1498115216773609]","[-1,-1,-1]","[-0.0031527190765083843,-0.06756529138156346]","[1,1,1]","[-0.06258324826575103,-0.05996112910182991]","[-1,-1,-1]","[0.020056454130819128,-0.1503857724832784]","[1,1,1]","[-0.10079855040781525,0.00038097504939841936]","[1,1,1]","[-0.029404009558699533,-0.16002351913154442]","[1,1,1]","[0.1509209448843788,-0.00812890904808003]","[1,1,1]","[0.13071550685088318,0.047183289183541546]","[-1,-1,-1]","[-0.14269299175931535,0.008003042227825066]","[-1,-1,-1]","[-0.15849518392601547,0.07224142865879093]","[-1,-1,-1]","[-0.03127439298336047,0.008394977862865183]","[-1,-1,-1]","[0.19049324302177528,-0.002010544808737813]","[-1,-1,-1]","[-0.03126798726741428,0.11707610653996897]","[1,1,1]","[-0.1590119446034397,-0.07762747752568523]","[-1,-1,-1]","[0.03210854256549004,0.18163381304817966]","[-1,-1,-1]","[0.017651938469795847,0.08237245344617754]","[-1,-1,-1]","[0.02923717220399645,0.008119337384394808]","[-1,-1,-1]","[0.10600603143070579,0.08918010529994888]","[1,1,1]","[-0.09187149605873891,-0.16311579110910812]","[-1,-1,-1]","[0.02,0.02]",249.296,0,41,41,56,1,,,,,,,
,,,,,,,65cf6d8a589a67afcab54e6f,682db40f878f18cddb9bbb1b,2025-05-21_14h11.18.400,cuing_paradigm_dot,2024.1.5,MacIntel,119.047619,682d556593cb38ad0a074487,,,,,,,,,,,249.2965,249.7961,,,250.0464,250.7213,left,0.666,,,,,,,,,0.6,,,,,,249.7962,250.0464,250.7214,"[-0.09230347866324504,0.02029240866497151]","[1,1,1]","[-0.03290665132762471,0.12490825187993729]","[1,1,1]","[-0.1650741413309144,-0.05560253873737096]","[-1,-1,-1]","[0.07088386660362213,-0.0016248605900881987]","[-1,-1,-1]","[0.1503717523744648,0.04164487258162689]","[1,1,1]","[0.13251993703574255,-0.056410265482712454]","[1,1,1]","[0.19702921078579755,-0.030877840712909065]","[-1,-1,-1]","[0.13750009057781204,-0.12460860265483382]","[-1,-1,-1]","[-0.04433305693324285,0.06574251980761392]","[-1,-1,-1]","[0.16433941460233106,-0.0015784585793327851]","[-1,-1,-1]","[0.018304709719015426,-0.07874182162301595]","[-1,-1,-1]","[-0.11479928154705689,0.13986117798636857]","[-1,-1,-1]","[0.07098402670693803,-0.07777792460886043]","[1,1,1]","[-0.0533926150357846,-0.11934938424494951]","[-1,-1,-1]","[-0.07229655580895547,-0.020338444402482635]","[-1,-1,-1]","[-0.13271094036475242,-0.012229654812588567]","[-1,-1,-1]","[-0.16867859973101515,0.03596262575950886]","[1,1,1]","[0.046225530307588976,-0.18440533654860078]","[1,1,1]","[0.17671899241480074,-0.08128076352942289]","[-1,-1,-1]","[0.10823365623464248,0.016431008837213032]","[1,1,1]","[0.02679171617225715,-0.027547970205259453]","[1,1,1]","[0.05056467606153863,-0.11850457679911375]","[1,1,1]","[-0.0007297624925522417,0.05915613340282868]","[1,1,1]","[-0.08777128410756668,0.0909698681561184]","[-1,-1,-1]","[0.025880612113934807,0.1319030919012513]","[1,1,1]","[0.04823332048004582,0.18074631465612065]","[1,1,1]","[-0.04359796208727226,-0.16738978014525235]","[1,1,1]","[-0.035097728264796076,0.17091622865760578]","[1,1,1]","[0.09848566317233481,0.09587630603829525]","[1,1,1]","[-0.13282428151767484,0.09006755942715365]","[1,1,1]","[0.14631825715780583,0.09393490122759425]","[1,1,1]","[-0.14484765047371065,-0.13711029701053581]","[1,1,1]","[0.02,0.02]",251.8212,0,42,42,176,1,,,,,,,
,,,,,,,65cf6d8a589a67afcab54e6f,682db40f878f18cddb9bbb1b,2025-05-21_14h11.18.400,cuing_paradigm_dot,2024.1.5,MacIntel,119.047619,682d556593cb38ad0a074487,,,,,,,,,,,251.8217,252.3209,,,252.5703,253.0123,left,0.4346,,,,,,,,,0.4,,,,,,252.321,252.5702,253.0125,"[0.13958209970998348,0.04664005988758808]","[-1,-1,-1]","[0.05094400286209002,-0.11844169082511094]","[1,1,1]","[0.1131925153464871,0.008962949853442703]","[-1,-1,-1]","[0.18687229501637068,0.06092786469019318]","[-1,-1,-1]","[-0.13355753850674798,0.06849525918854375]","[1,1,1]","[-0.18053175416138884,-0.06544919349251144]","[1,1,1]","[-0.04465226776656797,-0.17211198934979574]","[1,1,1]","[-0.02332154804990978,-0.1342768863913372]","[1,1,1]","[0.17873950866796487,-0.07468562895066298]","[1,1,1]","[0.02554996627919201,-0.04797411392269535]","[-1,-1,-1]","[-0.02369001672311573,0.03369636534598325]","[-1,-1,-1]","[0.1346447141061692,-0.07826586981259716]","[-1,-1,-1]","[-0.10780494761941632,-0.010760977581193857]","[1,1,1]","[0.054097797175960756,0.09873938049770781]","[-1,-1,-1]","[-0.08228235006797655,0.09603052160788039]","[-1,-1,-1]","[-0.0980242102815313,-0.05661857905630809]","[-1,-1,-1]","[-0.04889652069807134,-0.04084338514811577]","[-1,-1,-1]","[0.05586534967252851,0.17328043405302798]","[-1,-1,-1]","[0.043877698910426845,-0.0032866146911204636]","[1,1,1]","[-0.17498576523661077,0.03803983810661066]","[-1,-1,-1]","[-0.10829663276705585,-0.16276370970104695]","[-1,-1,-1]","[-0.15288193041680395,0.12007687765490997]","[-1,-1,-1]","[0.10344376921309476,0.16854065742648647]","[1,1,1]","[0.06340934944596742,-0.16470515370451355]","[1,1,1]","[-0.009188604108361963,0.11947088598119994]","[-1,-1,-1]","[-0.07942214586947037,-0.09640000013574385]","[-1,-1,-1]","[0.036548113029723016,0.03787147182370379]","[-1,-1,-1]","[-0.070605756669834,0.007434886859268528]","[1,1,1]","[0.13445696502906732,-0.1331130523657337]","[1,1,1]","[0.10373723666038591,-0.04105100837743724]","[-1,-1,-1]","[0.01902270609568071,-0.09355568843675036]","[-1,-1,-1]","[-0.14245166591564312,0.010761690435666812]","[1,1,1]","[0.02,0.02]",254.1129,0,43,43,44,1,,,,,,,
,,,,,,,65cf6d8a589a67afcab54e6f,682db40f878f18cddb9bbb1b,2025-05-21_14h11.18.400,cuing_paradigm_dot,2024.1.5,MacIntel,119.047619,682d556593cb38ad0a074487,,,,,,,,,,,254.1132,254.613,,,254.8632,255.3879,right,0.5178,,,,,,,,,0.6,,,,,,254.6131,254.8631,255.3879,"[-0.016015758903956647,-0.19589176668977193]","[1,1,1]","[0.00013813570666245116,0.1692273063448]","[-1,-1,-1]","[-0.10267588397275108,0.08964513036386494]","[-1,-1,-1]","[-0.10230142356831386,0.02892429866457258]","[1,1,1]","[0.16849412807947733,-0.03752981311843322]","[1,1,1]","[-0.023763652202607767,-0.028520786650474448]","[-1,-1,-1]","[0.06296019467997856,0.07897058713064001]","[-1,-1,-1]","[0.11703311135304,0.1562405255127801]","[1,1,1]","[0.09212603008267574,-0.14334958668145908]","[1,1,1]","[-0.1871696004321173,-0.019435720183698636]","[1,1,1]","[-0.06957975840613159,-0.09195942307341744]","[1,1,1]","[0.024532942994272177,-0.07575322328307162]","[-1,-1,-1]","[-0.09853296050143924,-0.05000725100724997]","[-1,-1,-1]","[0.03531306097671917,-0.0009702596023749237]","[1,1,1]","[-0.1288992162174998,-0.02023226848300579]","[1,1,1]","[0.1199814431943969,0.05564797958230134]","[1,1,1]","[0.03634425623982183,-0.15372243113638911]","[1,1,1]","[-0.03794436868150718,0.05068864239316855]","[-1,-1,-1]","[-0.05998919148146129,0.09147667553999783]","[1,1,1]","[-0.020003366674301123,-0.07134231526323036]","[1,1,1]","[0.0609466443085543,0.17171923580750872]","[1,1,1]","[0.0791392707025438,-0.1823718977830302]","[1,1,1]","[0.011271304550464049,0.05013721734585608]","[-1,-1,-1]","[-0.1591318952360928,0.03034314398041771]","[-1,-1,-1]","[-0.00285939030290885,0.11386775765129453]","[1,1,1]","[0.13164953261326864,0.10456428244658644]","[1,1,1]","[-0.09119025772597779,0.1340591794266193]","[-1,-1,-1]","[0.17069729316808022,0.09166793827528573]","[-1,-1,-1]","[0.10559733736809876,0.002797049651777833]","[1,1,1]","[0.16594091641582226,-0.10700963352107513]","[-1,-1,-1]","[0.08101353468982127,0.12771336040727516]","[1,1,1]","[0.08278886747109003,-0.10367432205521512]","[-1,-1,-1]","[0.02,0.02]",256.4878,0,44,44,169,1,,,,,,,
