right,left,explain.started,explain.stopped,key_resp_3.keys,key_resp_3.rt,key_resp_3.duration,participant,session,date,expName,psychopyVersion,OS,frameRate,study_id,explain_2.started,explain_2.stopped,key_resp_4.keys,key_resp_4.rt,key_resp_4.duration,explain_3.started,explain_3.stopped,key_resp_5.keys,key_resp_5.rt,key_resp_5.duration,fixation.started,fixation.stopped,practice.started,practice.stopped,response.started,response.stopped,key_resp.keys,key_resp.rt,key_resp.duration,feedback.started,feedback.stopped,trials_2.thisRepN,trials_2.thisTrialN,trials_2.thisN,trials_2.thisIndex,trials_2.ran,white_ratio,explain_4.started,explain_4.stopped,key_resp_6.keys,key_resp_6.rt,key_resp_6.duration,dotDisplay.started,dotDisplay.stopped,ITI.started,polygon_1.pos,polygon_1.color,polygon_2.pos,polygon_2.color,polygon_3.pos,polygon_3.color,polygon_4.pos,polygon_4.color,polygon_5.pos,polygon_5.color,polygon_6.pos,polygon_6.color,polygon_7.pos,polygon_7.color,polygon_8.pos,polygon_8.color,polygon_9.pos,polygon_9.color,polygon_10.pos,polygon_10.color,polygon_11.pos,polygon_11.color,polygon_12.pos,polygon_12.color,polygon_13.pos,polygon_13.color,polygon_14.pos,polygon_14.color,polygon_15.pos,polygon_15.color,polygon_16.pos,polygon_16.color,polygon_17.pos,polygon_17.color,polygon_18.pos,polygon_18.color,polygon_19.pos,polygon_19.color,polygon_20.pos,polygon_20.color,polygon_21.pos,polygon_21.color,polygon_22.pos,polygon_22.color,polygon_23.pos,polygon_23.color,polygon_24.pos,polygon_24.color,polygon_25.pos,polygon_25.color,polygon_26.pos,polygon_26.color,polygon_27.pos,polygon_27.color,polygon_28.pos,polygon_28.color,polygon_29.pos,polygon_29.color,polygon_30.pos,polygon_30.color,polygon_31.pos,polygon_31.color,polygon_32.pos,polygon_32.color,dot_size,ITI.stopped,trials.thisRepN,trials.thisTrialN,trials.thisN,trials.thisIndex,trials.ran,break_2.started,break_2.stopped,trials_3.thisRepN,trials_3.thisTrialN,trials_3.thisN,trials_3.thisIndex,trials_3.ran
subject chose black,subject chose white,0.0003,55.905,space,40.8928,,65fae23bd06ae76bcc297e8b,682f101c947a4705c371b6bd,2025-05-22_14h45.11.006,cuing_paradigm_dot,2024.1.5,Win32,59.52380952,682d573fa47f1360d1451895,,,,,,,,,,,,,,,,,,,,,,,,,,,,,,,,,,,,,,,,,,,,,,,,,,,,,,,,,,,,,,,,,,,,,,,,,,,,,,,,,,,,,,,,,,,,,,,,,,,,,,,,,,,,,,,,,
,,,,,,,65fae23bd06ae76bcc297e8b,682f101c947a4705c371b6bd,2025-05-22_14h45.11.006,cuing_paradigm_dot,2024.1.5,Win32,59.52380952,682d573fa47f1360d1451895,55.9058,90.8249,space,4.9035,,,,,,,,,,,,,,,,,,,,,,,,,,,,,,,,,,,,,,,,,,,,,,,,,,,,,,,,,,,,,,,,,,,,,,,,,,,,,,,,,,,,,,,,,,,,,,,,,,,,,,,,,,,,,
,,,,,,,65fae23bd06ae76bcc297e8b,682f101c947a4705c371b6bd,2025-05-22_14h45.11.006,cuing_paradigm_dot,2024.1.5,Win32,59.52380952,682d573fa47f1360d1451895,,,,,,90.8252,95.3775,space,1.5384,,,,,,,,,,,,,,,,,,,,,,,,,,,,,,,,,,,,,,,,,,,,,,,,,,,,,,,,,,,,,,,,,,,,,,,,,,,,,,,,,,,,,,,,,,,,,,,,,,,,,,,,
,,,,,,,65fae23bd06ae76bcc297e8b,682f101c947a4705c371b6bd,2025-05-22_14h45.11.006,cuing_paradigm_dot,2024.1.5,Win32,59.52380952,682d573fa47f1360d1451895,,,,,,,,,,,95.4173,95.8882,95.8899,96.1415,96.1417,96.8884,left,0.6961,,96.8889,97.9884,0,0,0,0,1,0.8,,,,,,,,,,,,,,,,,,,,,,,,,,,,,,,,,,,,,,,,,,,,,,,,,,,,,,,,,,,,,,,,,,,,,,,,,,,,,,,,,,,,,,
,,,,,,,65fae23bd06ae76bcc297e8b,682f101c947a4705c371b6bd,2025-05-22_14h45.11.006,cuing_paradigm_dot,2024.1.5,Win32,59.52380952,682d573fa47f1360d1451895,,,,,,,,,,,97.9904,98.4884,98.4885,98.7391,98.7392,99.0722,right,0.3202,,99.0725,100.1736,0,1,1,1,1,0.2,,,,,,,,,,,,,,,,,,,,,,,,,,,,,,,,,,,,,,,,,,,,,,,,,,,,,,,,,,,,,,,,,,,,,,,,,,,,,,,,,,,,,,
,,,,,,,65fae23bd06ae76bcc297e8b,682f101c947a4705c371b6bd,2025-05-22_14h45.11.006,cuing_paradigm_dot,2024.1.5,Win32,59.52380952,682d573fa47f1360d1451895,,,,,,,,,,,,,,,,,,,,,,,,,,,,100.175,105.6596,space,2.4585,,,,,,,,,,,,,,,,,,,,,,,,,,,,,,,,,,,,,,,,,,,,,,,,,,,,,,,,,,,,,,,,,,,,,,,,,,,,,,,,,,
,,,,,,,65fae23bd06ae76bcc297e8b,682f101c947a4705c371b6bd,2025-05-22_14h45.11.006,cuing_paradigm_dot,2024.1.5,Win32,59.52380952,682d573fa47f1360d1451895,,,,,,,,,,,105.688,106.1752,,,106.4273,107.0424,left,0.6084,,,,,,,,,0.55,,,,,,106.1766,106.427,107.0434,"[-0.1065597688109797,0.05336785827800536]","[1,1,1]","[-0.10907371721387646,0.15803044792783916]","[1,1,1]","[-0.13906333106949745,0.10943214028451953]","[1,1,1]","[0.13692232477149743,0.10305466092496127]","[1,1,1]","[-0.17123872246749097,-0.044939200367900486]","[-1,-1,-1]","[0.08997568195347456,0.070903373891408]","[1,1,1]","[0.09208927639353395,0.013822905804536448]","[1,1,1]","[-0.10116186955446768,-0.0325179860096546]","[1,1,1]","[0.005659820778101767,-0.13884415913302953]","[-1,-1,-1]","[0.027132517103329968,0.16250192674008682]","[-1,-1,-1]","[0.1395007648335573,-0.07779838737936412]","[1,1,1]","[0.02738216125820051,-0.04387616671150249]","[-1,-1,-1]","[-0.08882300381345938,-0.07319025018503698]","[-1,-1,-1]","[0.018482066313707763,0.004124085134867179]","[1,1,1]","[0.01866868194917234,0.050327715793992284]","[-1,-1,-1]","[0.15406567835246265,-0.039717446701891625]","[1,1,1]","[-0.14335086149961937,0.016852601649519332]","[-1,-1,-1]","[0.0325376242026268,0.11515497705143449]","[-1,-1,-1]","[0.1428687712025879,0.0017292397444612756]","[1,1,1]","[-0.11553092378925467,-0.1125425535130807]","[1,1,1]","[-0.09348176256481357,-0.14776139994908524]","[-1,-1,-1]","[-0.006827735304113224,0.13245051970121752]","[1,1,1]","[0.09733900253089967,0.1739517408626143]","[1,1,1]","[-0.062296122721706426,0.16615201417683995]","[1,1,1]","[-0.05043080694133066,0.11096781743380242]","[-1,-1,-1]","[-0.05075329178901119,-0.021998108042367917]","[-1,-1,-1]","[0.030107129021042126,-0.09182285401307579]","[1,1,1]","[-0.052027137369483674,0.04406157165375626]","[1,1,1]","[0.08554001518457989,-0.07132464398826308]","[-1,-1,-1]","[0.0568927088174053,-0.16920619197658143]","[-1,-1,-1]","[-0.10071541892923697,0.09547709677635839]","[1,1,1]","[-0.18604974148427522,0.03568044092218851]","[-1,-1,-1]","[0.02,0.02]",108.1433,0,0,0,122,1,,,,,,,
,,,,,,,65fae23bd06ae76bcc297e8b,682f101c947a4705c371b6bd,2025-05-22_14h45.11.006,cuing_paradigm_dot,2024.1.5,Win32,59.52380952,682d573fa47f1360d1451895,,,,,,,,,,,108.1449,108.6431,,,108.8936,109.51,left,0.6002,,,,,,,,,0.1,,,,,,108.6433,108.8935,109.51,"[-0.16583451481817715,-0.09246016485228532]","[-1,-1,-1]","[-0.004356279227007607,-0.1263199972558102]","[-1,-1,-1]","[-0.0036580004322681876,0.027019533359308564]","[-1,-1,-1]","[-0.014379025435436404,-0.05466044299558648]","[-1,-1,-1]","[-0.15502110012763354,0.07291053077823728]","[-1,-1,-1]","[0.030962846069734432,-0.15660148691906467]","[-1,-1,-1]","[-0.09002417264235078,-0.033241493100012454]","[-1,-1,-1]","[-0.022103198640066442,0.1328925414474671]","[-1,-1,-1]","[0.17532415537853582,0.06264676181559206]","[-1,-1,-1]","[0.1630429683450655,0.02066616328918099]","[-1,-1,-1]","[-0.19417952025313917,0.013989212404104875]","[-1,-1,-1]","[-0.10453856893746782,0.08854395229947185]","[-1,-1,-1]","[0.09211510344322696,-0.13497527951250798]","[-1,-1,-1]","[-0.04883476807776688,-0.19351535658746644]","[-1,-1,-1]","[0.10314267494792949,-0.07307991801147354]","[-1,-1,-1]","[0.03194238769951662,-0.09990105693557616]","[1,1,1]","[0.040932712465609304,0.10203059843978207]","[-1,-1,-1]","[-0.08207171954860203,-0.137376459636344]","[-1,-1,-1]","[0.0483143238288708,0.06029121691629821]","[-1,-1,-1]","[0.10427938758876042,0.05770394826285626]","[-1,-1,-1]","[0.013387557943237515,0.17342620508961148]","[1,1,1]","[-0.12231565315273435,0.045625702376400984]","[-1,-1,-1]","[-0.10608904309630023,0.008754243881865435]","[-1,-1,-1]","[-0.07484316424462986,0.06125818404000466]","[-1,-1,-1]","[0.1500374111411764,-0.06982014946097782]","[-1,-1,-1]","[0.10947501925727518,0.15012588344449138]","[-1,-1,-1]","[-0.10595651520078929,-0.08219447626548922]","[-1,-1,-1]","[0.03325360593690943,-0.01896610018397269]","[-1,-1,-1]","[-0.03741640607556084,-0.09139097540033901]","[-1,-1,-1]","[0.13958539898619512,-0.1089140306424037]","[-1,-1,-1]","[0.08397534802735206,0.10115614334166359]","[1,1,1]","[-0.026435254706381434,0.19518942924329138]","[-1,-1,-1]","[0.02,0.02]",110.6102,0,1,1,0,1,,,,,,,
,,,,,,,65fae23bd06ae76bcc297e8b,682f101c947a4705c371b6bd,2025-05-22_14h45.11.006,cuing_paradigm_dot,2024.1.5,Win32,59.52380952,682d573fa47f1360d1451895,,,,,,,,,,,110.6112,111.1111,,,111.3625,111.9313,left,0.5494,,,,,,,,,0.5,,,,,,111.1113,111.3625,111.9315,"[0.029823927252194144,0.12453610223926143]","[-1,-1,-1]","[-0.1346421779559082,0.10139654933666543]","[-1,-1,-1]","[-0.12127497467316728,0.14104128262065713]","[1,1,1]","[-0.08458492165082263,0.003615538294576476]","[1,1,1]","[-0.04353738644292352,0.1467459893670239]","[1,1,1]","[0.09647810403038248,-0.07564066040967536]","[-1,-1,-1]","[0.1250738590137417,0.004887397223049086]","[1,1,1]","[-0.1515831715111138,-0.1252599187680799]","[-1,-1,-1]","[0.04049766108143339,-0.06465351481050433]","[-1,-1,-1]","[-0.014643936539643989,-0.06410467169996185]","[-1,-1,-1]","[0.07601148656260616,0.010622638570870322]","[-1,-1,-1]","[-0.16399409496604997,-0.02161004166682946]","[-1,-1,-1]","[0.00929769829654058,-0.14707647809289143]","[1,1,1]","[0.06354739171307212,-0.101887819141625]","[1,1,1]","[0.16643860473327649,-0.06731763517141026]","[1,1,1]","[-0.03906732881623564,-0.013041239168575339]","[-1,-1,-1]","[-0.08073828745269634,-0.08540754235476547]","[-1,-1,-1]","[0.11031810899138485,-0.14152065930968125]","[-1,-1,-1]","[-0.1479344593480659,0.06212880589327359]","[-1,-1,-1]","[0.1395568743934077,0.08494778433889634]","[1,1,1]","[0.0638233968383348,0.06259656382744377]","[1,1,1]","[0.19291000060545618,0.031087063350561495]","[1,1,1]","[0.17994947308519046,0.08040406703126171]","[1,1,1]","[0.01874790017833283,0.0563977952898116]","[-1,-1,-1]","[-0.04450061194838869,-0.17056976933973345]","[-1,-1,-1]","[0.19404490415341477,-0.018793099062633135]","[-1,-1,-1]","[-0.13036843622019903,-0.0734863238697973]","[1,1,1]","[-0.05379867567790135,0.08387518676665086]","[1,1,1]","[-0.04446083273400385,0.031072775892475656]","[-1,-1,-1]","[0.12799873385190477,-0.1036705559599067]","[1,1,1]","[0.04036929134034835,-0.19144969422935895]","[1,1,1]","[0.026991682535560068,-0.017211977523149905]","[1,1,1]","[0.02,0.02]",113.0292,0,2,2,90,1,,,,,,,
,,,,,,,65fae23bd06ae76bcc297e8b,682f101c947a4705c371b6bd,2025-05-22_14h45.11.006,cuing_paradigm_dot,2024.1.5,Win32,59.52380952,682d573fa47f1360d1451895,,,,,,,,,,,113.0301,113.5296,,,113.784,114.3852,left,0.585,,,,,,,,,0.55,,,,,,113.5297,113.7839,114.3853,"[0.147022054348364,-0.0423327340879088]","[1,1,1]","[0.06726567573819697,-0.03647921439951987]","[-1,-1,-1]","[-0.1963909148089888,-0.02132001464363603]","[1,1,1]","[-0.0413289194427906,0.053783913805590514]","[1,1,1]","[-0.007107419541053969,-0.07545519142444387]","[1,1,1]","[-0.03666901683069942,-0.048412487843958504]","[-1,-1,-1]","[0.07866327217495174,-0.1447003711639665]","[1,1,1]","[0.1118092880159354,0.0909082345425537]","[1,1,1]","[0.07353622124892123,0.016211949988743674]","[1,1,1]","[0.1506315402797193,0.06462168261435233]","[1,1,1]","[-0.14952648557576728,0.0011983001630469137]","[1,1,1]","[0.048433325327047166,0.13362682009010557]","[1,1,1]","[-0.0035599578604630523,-0.020030117312690016]","[1,1,1]","[0.09997583539181631,0.047843658238770646]","[1,1,1]","[0.002623121925737302,0.18362212970913938]","[1,1,1]","[-0.06959364587268198,0.13212729846331112]","[-1,-1,-1]","[0.1847895570622878,0.018568719003855365]","[-1,-1,-1]","[0.17991698866349187,-0.08689329533704962]","[-1,-1,-1]","[0.002080504246875009,0.051662660500084064]","[-1,-1,-1]","[-0.10527049348049744,0.16147360905167815]","[-1,-1,-1]","[0.06843193094920089,-0.0952723753495798]","[-1,-1,-1]","[-0.13132055159237757,-0.10259466981198717]","[1,1,1]","[0.1396696739109609,0.12284619762251611]","[-1,-1,-1]","[-0.16654498984290544,0.055423794412217876]","[-1,-1,-1]","[0.12838151138401624,-0.0799114962490676]","[1,1,1]","[0.027068517953434918,-0.1768319065251097]","[-1,-1,-1]","[-0.09316198649122567,-0.140902864514487]","[1,1,1]","[0.0903198582820395,0.1688609790895991]","[1,1,1]","[0.1938551233676977,-0.026908478223422065]","[-1,-1,-1]","[-0.025416063789489667,0.09060791661511096]","[-1,-1,-1]","[-0.08448373072720225,-0.06862961228809471]","[1,1,1]","[-0.16642005233504747,-0.06573416047008519]","[-1,-1,-1]","[0.02,0.02]",115.4804,0,3,3,120,1,,,,,,,
,,,,,,,65fae23bd06ae76bcc297e8b,682f101c947a4705c371b6bd,2025-05-22_14h45.11.006,cuing_paradigm_dot,2024.1.5,Win32,59.52380952,682d573fa47f1360d1451895,,,,,,,,,,,115.4814,115.9806,,,116.2309,116.5144,right,0.2558,,,,,,,,,0.1,,,,,,115.9808,116.2308,116.5145,"[-0.05091827814199738,0.12682058187597367]","[-1,-1,-1]","[-0.02991255413479782,-0.007384285785416133]","[-1,-1,-1]","[0.020067292019082653,-0.05572533330855952]","[-1,-1,-1]","[0.0752836008656177,0.16851152354367382]","[-1,-1,-1]","[0.08864791295565685,0.006093876511951266]","[-1,-1,-1]","[0.19158708654011816,-0.056951644203783035]","[-1,-1,-1]","[0.1538205564689616,0.007186540250672781]","[-1,-1,-1]","[-0.11167590332187083,0.1645224781144105]","[1,1,1]","[-0.14862618159986668,-0.10180669416804874]","[1,1,1]","[0.00702096904964476,-0.12257124059656466]","[-1,-1,-1]","[0.008783818808614388,0.12623839740521298]","[-1,-1,-1]","[0.1183211525932053,-0.09448931450828521]","[-1,-1,-1]","[0.06011541025465696,-0.16865785447197418]","[-1,-1,-1]","[0.004960190064845502,0.18594290514235273]","[-1,-1,-1]","[-0.17127405052679198,-0.05063345457453771]","[-1,-1,-1]","[-0.09729157014656925,-0.1215777809471376]","[-1,-1,-1]","[-0.039629339652570435,-0.16704086615828215]","[-1,-1,-1]","[-0.0002487586164772988,-0.17824555421094923]","[-1,-1,-1]","[0.10900711051527727,0.13121372679590818]","[-1,-1,-1]","[-0.0858588072379845,0.07043652179508732]","[-1,-1,-1]","[0.1130672720383496,0.06794482337256888]","[-1,-1,-1]","[0.05766151245112515,0.03698529842886974]","[-1,-1,-1]","[-0.08277784712986848,-0.05221619870358417]","[-1,-1,-1]","[-0.17888076949420376,0.07870710956436684]","[-1,-1,-1]","[-0.004994308041516725,0.08190987542282294]","[-1,-1,-1]","[0.15254781408925813,0.09896591705437097]","[-1,-1,-1]","[0.017509802442389352,0.023997173525930553]","[-1,-1,-1]","[0.09598143785642158,-0.033677351932235186]","[1,1,1]","[-0.12754526574408892,-0.004487694579920402]","[-1,-1,-1]","[0.15705676526025875,0.05708138083300252]","[-1,-1,-1]","[-0.15254517700559628,0.027403690317341866]","[-1,-1,-1]","[-0.06188554652149968,-0.0963406097441558]","[-1,-1,-1]","[0.02,0.02]",117.6145,0,4,4,3,1,,,,,,,
,,,,,,,65fae23bd06ae76bcc297e8b,682f101c947a4705c371b6bd,2025-05-22_14h45.11.006,cuing_paradigm_dot,2024.1.5,Win32,59.52380952,682d573fa47f1360d1451895,,,,,,,,,,,117.6154,118.115,,,118.3651,118.754,left,0.3686,,,,,,,,,0.4,,,,,,118.1151,118.3651,118.7542,"[0.11348253787600361,-0.11088707571271192]","[1,1,1]","[-0.00829186716417367,0.14366561721301951]","[1,1,1]","[-0.09141918354856239,0.15120019952960276]","[-1,-1,-1]","[0.08926885722411566,0.15491452109884188]","[-1,-1,-1]","[0.052454484558251704,-0.02190225781436776]","[1,1,1]","[-0.11547104257461402,-0.10973574147394219]","[-1,-1,-1]","[-0.1256196867781307,-0.0278578646224182]","[-1,-1,-1]","[-0.05398061976751284,0.08255636374832803]","[-1,-1,-1]","[0.014104716500518638,-0.07807377102592226]","[-1,-1,-1]","[0.15380990077622725,-0.12594269542711028]","[-1,-1,-1]","[0.07111545742583184,-0.10108650160232319]","[1,1,1]","[-0.18102912954659844,0.04996691544686932]","[-1,-1,-1]","[0.14232562416489544,-0.061723178393111575]","[1,1,1]","[-0.04463139489701549,-0.029093435800889276]","[-1,-1,-1]","[0.033591019523076235,-0.1215295708185806]","[-1,-1,-1]","[-0.017265304745599633,-0.11711850597220129]","[1,1,1]","[-0.0046641021628789775,-0.1722737874515369]","[1,1,1]","[-0.14583555017148786,0.11157703851112712]","[-1,-1,-1]","[0.111237108301502,-0.0025185242918810465]","[1,1,1]","[0.006396139243957939,-0.03484105842285435]","[1,1,1]","[-0.047650369694160234,-0.08074823931581016]","[-1,-1,-1]","[0.12072479089592844,0.09021048740400707]","[-1,-1,-1]","[-0.1081221567606369,0.06378738389022849]","[-1,-1,-1]","[0.08971923197304364,-0.037973890515772095]","[-1,-1,-1]","[0.06540197960285814,0.0995360524700998]","[1,1,1]","[-0.0924131917292461,0.10659510935939372]","[1,1,1]","[-0.1729812402808292,0.0013768408156453952]","[-1,-1,-1]","[-0.07535695642071322,0.0077784724031581395]","[1,1,1]","[-0.15556077517050043,-0.10355859222584003]","[1,1,1]","[-0.052370834733985065,0.16309462015035198]","[-1,-1,-1]","[0.1843747408599885,-0.060526732862719854]","[-1,-1,-1]","[-0.014938041621658337,0.06493251316325613]","[-1,-1,-1]","[0.02,0.02]",119.8503,0,5,5,55,1,,,,,,,
,,,,,,,65fae23bd06ae76bcc297e8b,682f101c947a4705c371b6bd,2025-05-22_14h45.11.006,cuing_paradigm_dot,2024.1.5,Win32,59.52380952,682d573fa47f1360d1451895,,,,,,,,,,,119.8514,120.3492,,,120.5996,121.1995,left,0.5728,,,,,,,,,0.9,,,,,,120.3492,120.5996,121.1997,"[0.19399230849947643,0.03921774895752904]","[1,1,1]","[0.10952919088514378,0.03914134602772879]","[1,1,1]","[-0.08001457276715729,0.1042144770371924]","[1,1,1]","[0.03278803654748291,-0.03959600855969382]","[1,1,1]","[-0.06150690478786673,-0.13047728102496847]","[1,1,1]","[-0.10176405174055136,-0.14687059441547506]","[1,1,1]","[0.09843009443057055,0.09081280022287704]","[1,1,1]","[-0.01715795477368528,-0.050978166681545936]","[1,1,1]","[0.09301147552655412,-0.13722761471358158]","[1,1,1]","[-0.12150471705302894,-0.007566488377482911]","[-1,-1,-1]","[0.056884384465505845,-0.17886574409687556]","[1,1,1]","[0.015436752001458852,-0.19115665334613346]","[1,1,1]","[-0.16411611378731342,-0.0903047854411566]","[1,1,1]","[-0.019166400641262796,-0.10550982024105887]","[1,1,1]","[-0.17702016636909731,0.024171995196486103]","[1,1,1]","[-0.12387221155654948,0.12700920453480408]","[1,1,1]","[0.04032927930379794,0.016581798385222803]","[1,1,1]","[-0.12528387201112468,-0.07429790274945293]","[1,1,1]","[-0.09160931364483392,0.045583898827404955]","[1,1,1]","[-0.012803333069615312,0.17840903854011153]","[1,1,1]","[0.04606495596866929,0.07807575971469691]","[-1,-1,-1]","[-0.14639692361159415,0.06925522662501285]","[1,1,1]","[0.023387755084964882,-0.13445864238550184]","[1,1,1]","[-0.05662081736239701,-0.037752898466647825]","[1,1,1]","[0.14011195248058544,-0.12317014118434291]","[1,1,1]","[0.13149305475357542,-0.01715922912324858]","[1,1,1]","[0.003091139804985858,0.13311067954845882]","[1,1,1]","[-0.03230165111856832,0.10088196719665891]","[-1,-1,-1]","[-0.04086787024781358,-0.1893684851771409]","[1,1,1]","[0.0445400114832492,0.1326441438934746]","[1,1,1]","[-0.08355617720967637,-0.0695301900444858]","[1,1,1]","[-0.05698529624780597,0.17653229215953667]","[1,1,1]","[0.02,0.02]",122.3029,0,6,6,209,1,,,,,,,
,,,,,,,65fae23bd06ae76bcc297e8b,682f101c947a4705c371b6bd,2025-05-22_14h45.11.006,cuing_paradigm_dot,2024.1.5,Win32,59.52380952,682d573fa47f1360d1451895,,,,,,,,,,,122.3033,122.8001,,,123.0535,123.3543,right,0.2841,,,,,,,,,0.5,,,,,,122.8001,123.0535,123.3543,"[0.073706724821609,-0.07632588641141723]","[1,1,1]","[0.0693025625493923,0.022659519502288297]","[1,1,1]","[0.087475941549006,-0.1249008845290635]","[-1,-1,-1]","[-0.0013658280745914228,-0.14364505023271912]","[-1,-1,-1]","[-0.04836240347937279,-0.09071986947258771]","[-1,-1,-1]","[-0.012338719795023309,0.040063529266167616]","[1,1,1]","[-0.04646395646162479,0.06498118894671107]","[1,1,1]","[-0.0990439558816539,-0.033273772847417005]","[1,1,1]","[-0.06339400778637966,0.13963090056127386]","[-1,-1,-1]","[0.031137966001952733,0.1598494418834257]","[-1,-1,-1]","[-0.02313300088794542,0.15760487570978876]","[-1,-1,-1]","[-0.014104955046933529,0.10429586765884567]","[1,1,1]","[0.19334827240534308,0.017461001869057635]","[1,1,1]","[-0.09636642934488081,0.025220467741760937]","[1,1,1]","[-0.15364243580436723,-0.11343285689905758]","[-1,-1,-1]","[0.03662028690117543,-0.0013896402480890473]","[-1,-1,-1]","[-0.17436004965337043,0.07707100896937691]","[-1,-1,-1]","[0.08734722203403332,-0.1724649395034278]","[1,1,1]","[0.04712555167463959,-0.11230715381076324]","[-1,-1,-1]","[0.15073415154801648,-0.0796274429020188]","[1,1,1]","[-0.19066468966341482,-0.01230295543163007]","[-1,-1,-1]","[0.04104836601863747,0.05867453826137582]","[-1,-1,-1]","[-0.031306783127728256,-0.039849383281622325]","[1,1,1]","[0.14009736332999342,-0.13822393016019222]","[-1,-1,-1]","[0.1155759610982768,0.06809831060969529]","[1,1,1]","[0.10328720305385151,-0.0262593973289409]","[1,1,1]","[0.15648956065647232,0.08802731069252284]","[1,1,1]","[-0.07043137474036511,-0.15072859143287376]","[-1,-1,-1]","[0.15528911972093312,0.0008433066518305415]","[1,1,1]","[0.030648662481193176,-0.05620643028306806]","[1,1,1]","[-0.15769642123332658,0.03797730777817813]","[-1,-1,-1]","[0.07301759762899475,0.1644721432254076]","[-1,-1,-1]","[0.02,0.02]",124.455,0,7,7,115,1,,,,,,,
,,,,,,,65fae23bd06ae76bcc297e8b,682f101c947a4705c371b6bd,2025-05-22_14h45.11.006,cuing_paradigm_dot,2024.1.5,Win32,59.52380952,682d573fa47f1360d1451895,,,,,,,,,,,124.4556,124.9516,,,125.2042,125.853,left,0.6255,,,,,,,,,0.5,,,,,,124.9517,125.2041,125.8531,"[-0.11506093185097648,-0.02381335469594899]","[1,1,1]","[-0.13911577522941804,0.12329278637796955]","[-1,-1,-1]","[-0.18728222258824923,-0.023492785860570745]","[-1,-1,-1]","[-0.04336459070493951,-0.18755630522637887]","[1,1,1]","[0.13331225940702598,-0.08724593197603903]","[-1,-1,-1]","[0.01284795288325731,-0.0911046932603733]","[1,1,1]","[-0.015576983551272204,0.06520831590015783]","[-1,-1,-1]","[-0.11554035095087618,-0.07247741431809293]","[-1,-1,-1]","[-0.05211529356250707,0.0880326097156348]","[1,1,1]","[0.16223833594643963,0.05343406403270191]","[1,1,1]","[-0.08195980481584274,-0.10993135708126042]","[-1,-1,-1]","[0.1394448608977701,0.13485464567237773]","[1,1,1]","[0.021239926600561298,0.02332350976180771]","[1,1,1]","[0.005002233659414507,0.1213290562600924]","[1,1,1]","[0.10754948692216054,-0.1230853818920379]","[1,1,1]","[-0.18065439580861078,-0.07265241070561856]","[-1,-1,-1]","[0.08852305247740903,0.060312265192052905]","[1,1,1]","[-0.03696061483981977,-0.0455464635288378]","[1,1,1]","[-0.07905985912713523,0.019536986088255447]","[1,1,1]","[0.18312539415508344,-0.07752582642481841]","[1,1,1]","[-0.051795430186013076,0.1479610242356631]","[-1,-1,-1]","[0.042993920367872335,0.1739250682645774]","[1,1,1]","[0.12328730755851601,0.08634219055808251]","[-1,-1,-1]","[-0.007371507954672365,-0.15017973801054238]","[-1,-1,-1]","[0.08294144073776362,0.1328607013425186]","[-1,-1,-1]","[0.0550034166830317,-0.035029023072161575]","[-1,-1,-1]","[-0.16249855582539552,0.07567352372368652]","[-1,-1,-1]","[0.06409035133843441,-0.1375258450787518]","[1,1,1]","[-0.05629972398416962,-0.14416961383059704]","[-1,-1,-1]","[-0.11744678659292104,0.044469774533587886]","[-1,-1,-1]","[0.06487017375933382,0.09397294954360608]","[1,1,1]","[0.10120479954507976,-0.04971244155884913]","[-1,-1,-1]","[0.02,0.02]",126.9519,0,8,8,96,1,,,,,,,
,,,,,,,65fae23bd06ae76bcc297e8b,682f101c947a4705c371b6bd,2025-05-22_14h45.11.006,cuing_paradigm_dot,2024.1.5,Win32,59.52380952,682d573fa47f1360d1451895,,,,,,,,,,,126.9528,127.4528,,,127.7067,128.2903,left,0.5678,,,,,,,,,0.4,,,,,,127.453,127.7066,128.2904,"[-0.033427234673050664,-0.03720392176055075]","[-1,-1,-1]","[0.11132687686895927,0.047179806160314634]","[1,1,1]","[-0.07317327772621672,0.10755267007967817]","[1,1,1]","[0.1739593773581707,-0.07792854929643843]","[1,1,1]","[-0.02549276040364566,-0.08865526487219214]","[1,1,1]","[0.031098386154054528,0.1317526389722656]","[1,1,1]","[0.10857343144559921,-0.13433225203206497]","[-1,-1,-1]","[0.055108264757221054,0.18069266255770777]","[1,1,1]","[0.050985090497490414,-0.1772601967404517]","[-1,-1,-1]","[0.0025062330441186094,0.16837797328302068]","[-1,-1,-1]","[-0.07859124353736238,-0.18231868155464018]","[-1,-1,-1]","[-0.15194220457223442,0.05925152646559134]","[1,1,1]","[0.0775345408102764,-0.09020131908827403]","[-1,-1,-1]","[-0.11300305507180795,-0.0399561703529067]","[1,1,1]","[-0.0641454776988215,-0.07375699372446766]","[-1,-1,-1]","[-0.1467930113823426,-0.06532471879705666]","[-1,-1,-1]","[-0.008811763763216171,0.08825416025309825]","[-1,-1,-1]","[0.050816007794041364,0.016896280089625085]","[-1,-1,-1]","[0.08319250185123586,-0.019407455661911332]","[-1,-1,-1]","[0.1490253027441938,-0.018488225787458335]","[-1,-1,-1]","[-0.10637466319004711,-0.14783589013190046]","[1,1,1]","[-0.1607876233953315,0.10059216771490832]","[-1,-1,-1]","[0.03301668978109328,-0.08333255911753805]","[-1,-1,-1]","[0.13339620105191557,0.0978271453998428]","[-1,-1,-1]","[-0.03618145248069095,0.15750308419132666]","[1,1,1]","[-0.0505421709550158,0.02350557713080285]","[-1,-1,-1]","[-0.0448020210604318,-0.13320544249537067]","[-1,-1,-1]","[-0.09175017195552973,0.15799456104689874]","[1,1,1]","[0.014076078742218215,-0.0337248482658438]","[1,1,1]","[-0.11397765118054558,0.07311695600652032]","[-1,-1,-1]","[0.17403400383866233,0.034620315541409444]","[1,1,1]","[0.09286758074081222,0.11596627547853523]","[-1,-1,-1]","[0.02,0.02]",129.3867,0,9,9,49,1,,,,,,,
,,,,,,,65fae23bd06ae76bcc297e8b,682f101c947a4705c371b6bd,2025-05-22_14h45.11.006,cuing_paradigm_dot,2024.1.5,Win32,59.52380952,682d573fa47f1360d1451895,,,,,,,,,,,129.3875,129.8871,,,130.1404,130.738,left,0.5755,,,,,,,,,0.6,,,,,,129.8871,130.1404,130.738,"[-0.10945661780713127,-0.13665725498387044]","[1,1,1]","[0.058736548777030224,-0.07294407580547695]","[-1,-1,-1]","[0.17217999679600696,-0.02886741894379237]","[1,1,1]","[-0.1780956122947361,0.004253569923150473]","[1,1,1]","[0.01258733035534503,-0.18036312210130276]","[1,1,1]","[0.08999192746705016,-0.10353872398569512]","[-1,-1,-1]","[0.09690463390348773,0.10094150702283054]","[-1,-1,-1]","[-0.11477263011915353,0.07733567860645013]","[1,1,1]","[-0.014827717541660238,0.19889068102455787]","[1,1,1]","[0.06558561536374917,0.0402396685467361]","[-1,-1,-1]","[-0.013448721356975332,0.12739406860941585]","[1,1,1]","[-0.0651628611271412,-0.010830569473206061]","[1,1,1]","[-0.052852609761703015,-0.1448522177352171]","[1,1,1]","[-0.023824139512024452,0.07116872608386535]","[-1,-1,-1]","[-0.11983110544298695,-0.06667415468682557]","[1,1,1]","[0.1179515011705784,0.05619393461598668]","[-1,-1,-1]","[0.10687922203087395,-0.006688287089405085]","[1,1,1]","[-0.15720967842700034,0.11594203206359924]","[1,1,1]","[-0.0782008298912778,0.16983781443039625]","[1,1,1]","[-0.006907226461670055,-0.04016299923303017]","[-1,-1,-1]","[0.06469963191040093,-0.18781285759042432]","[1,1,1]","[-0.11833457837661554,0.02067533809757331]","[-1,-1,-1]","[-0.010851773107679256,-0.12390709918974875]","[1,1,1]","[0.00888540478179681,0.0144246854822924]","[-1,-1,-1]","[0.02991679525855492,0.08797809558800139]","[1,1,1]","[0.05082905824253238,0.13125925015162856]","[-1,-1,-1]","[0.1434031519609205,-0.10850153944251047]","[-1,-1,-1]","[0.16726556451428895,0.08068854767213089]","[1,1,1]","[-0.0773060426046239,-0.07313634059114756]","[-1,-1,-1]","[0.052614343747321046,-0.0004942679105107092]","[1,1,1]","[-0.021149628338400134,-0.08396057356465825]","[1,1,1]","[-0.09411639815618729,0.11681477731802084]","[-1,-1,-1]","[0.02,0.02]",131.8374,0,10,10,166,1,,,,,,,
,,,,,,,65fae23bd06ae76bcc297e8b,682f101c947a4705c371b6bd,2025-05-22_14h45.11.006,cuing_paradigm_dot,2024.1.5,Win32,59.52380952,682d573fa47f1360d1451895,,,,,,,,,,,131.8383,132.3378,,,132.5922,133.1262,right,0.5181,,,,,,,,,0.4,,,,,,132.3378,132.5922,133.1262,"[-0.002710337661619773,-0.05176150875534701]","[-1,-1,-1]","[-0.1642695270839419,0.09211053280969592]","[1,1,1]","[-0.16526675755935982,-0.0004915939634403086]","[1,1,1]","[0.03490625335179598,-0.08389687442592923]","[1,1,1]","[0.121474654746765,0.14191821244696282]","[-1,-1,-1]","[-0.18091979334828268,-0.06500456172306382]","[-1,-1,-1]","[0.026431264762295934,0.14974765912806381]","[-1,-1,-1]","[-0.08892441644080222,-0.08235972130231513]","[1,1,1]","[0.07996977905646158,-0.13375802126939831]","[-1,-1,-1]","[0.07012190539592252,0.1626027928609669]","[1,1,1]","[-0.13417810068248767,0.11920875413007435]","[-1,-1,-1]","[-0.031772321078412234,0.1498968380868167]","[-1,-1,-1]","[0.1376672614393767,-0.04475027928197834]","[-1,-1,-1]","[-0.08947731660028857,0.17002283815017938]","[-1,-1,-1]","[-0.0037140436917982153,-0.14709182919007874]","[-1,-1,-1]","[0.0073892659245289195,0.057495295307621756]","[-1,-1,-1]","[0.1638172691330876,0.04115642969676202]","[-1,-1,-1]","[0.06594514057974066,0.0214012643505479]","[-1,-1,-1]","[-0.0858947010668381,-0.033929570197284424]","[1,1,1]","[-0.09525090197435823,-0.15371025679495703]","[-1,-1,-1]","[0.15511071351028796,-0.08908771404631147]","[1,1,1]","[0.12725350547235473,0.0240726836350044]","[-1,-1,-1]","[-0.03838702604234538,-0.023612732903339373]","[-1,-1,-1]","[-0.025292435998188863,0.015128253826307213]","[-1,-1,-1]","[0.05236082513217566,0.11123965353644129]","[1,1,1]","[0.17473932592230937,-0.008581496039296298]","[-1,-1,-1]","[0.1129574553473266,-0.10491744284637]","[1,1,1]","[-0.11185218811673085,0.040117738349909934]","[1,1,1]","[-0.16533736105171695,-0.11230656391275115]","[1,1,1]","[-0.06769922204141299,0.0768082348192253]","[1,1,1]","[0.13177827153611582,0.08536467497519884]","[1,1,1]","[0.08907043712366981,-0.05690646350858175]","[-1,-1,-1]","[0.02,0.02]",134.2219,0,11,11,41,1,,,,,,,
,,,,,,,65fae23bd06ae76bcc297e8b,682f101c947a4705c371b6bd,2025-05-22_14h45.11.006,cuing_paradigm_dot,2024.1.5,Win32,59.52380952,682d573fa47f1360d1451895,,,,,,,,,,,134.2226,134.722,,,134.9757,135.443,left,0.4503,,,,,,,,,0.9,,,,,,134.722,134.9757,135.443,"[0.04192183025103693,-0.17466781471828194]","[1,1,1]","[-0.10757386049020666,-0.12129999096766601]","[1,1,1]","[-0.13257338433622287,0.1450480351969804]","[1,1,1]","[0.009517920880545332,0.18433307465565504]","[1,1,1]","[0.0836091309332616,-0.15704186012502103]","[1,1,1]","[-0.038824369252949534,0.1316522239145107]","[1,1,1]","[-0.0508643417008533,0.03737351578558189]","[1,1,1]","[-0.17755024348355394,0.05128124988118544]","[1,1,1]","[-0.13582753940968825,0.028209248152323035]","[-1,-1,-1]","[0.14324963361519472,-0.015480297606008166]","[1,1,1]","[0.011086415434910422,-0.02836710896658854]","[1,1,1]","[0.15306467487528475,-0.057207603480035146]","[1,1,1]","[-0.02288208008882178,-0.19490413195079415]","[1,1,1]","[0.04484471388330504,0.06057581059917478]","[-1,-1,-1]","[0.08395565847887351,0.17866428946911894]","[1,1,1]","[-0.0635796393409013,0.17931851432026985]","[1,1,1]","[-0.16480033797669993,-0.02031170598807648]","[1,1,1]","[0.1674629976397916,0.0761576678442407]","[1,1,1]","[0.09406684034511792,-0.1116443132042607]","[1,1,1]","[-0.05046586695825386,-0.011601139037182222]","[1,1,1]","[0.014788948769375981,-0.12617381291093618]","[-1,-1,-1]","[-0.0701497288153156,-0.04741404775064554]","[1,1,1]","[0.10022513048993723,-0.0175198170275804]","[1,1,1]","[-0.04819562967690543,-0.1598149208131862]","[1,1,1]","[0.071322332631283,0.028983734957507293]","[1,1,1]","[0.023957110312700664,0.1460477958748999]","[1,1,1]","[0.188712275624337,0.028888340134132332]","[1,1,1]","[-0.08557751793425163,-0.08603471364281444]","[1,1,1]","[-0.08938127016577437,0.10745588401165855]","[1,1,1]","[-0.19951211391807575,0.005700066433288291]","[1,1,1]","[-0.026090154631653793,-0.12123050082165038]","[1,1,1]","[0.11267011137732964,0.08286367624664018]","[1,1,1]","[0.02,0.02]",136.5406,0,12,12,192,1,,,,,,,
,,,,,,,65fae23bd06ae76bcc297e8b,682f101c947a4705c371b6bd,2025-05-22_14h45.11.006,cuing_paradigm_dot,2024.1.5,Win32,59.52380952,682d573fa47f1360d1451895,,,,,,,,,,,136.542,137.0406,,,137.2934,138.0438,right,0.7335,,,,,,,,,0.6,,,,,,137.0407,137.2934,138.0438,"[0.05840067979245865,-0.1767982058019045]","[-1,-1,-1]","[-0.02827111512310672,0.04658811577909339]","[1,1,1]","[0.1657956221779161,-0.008708135532403705]","[-1,-1,-1]","[0.14871728530052594,0.07639051690836954]","[1,1,1]","[0.10986305821357119,-0.03179541304213192]","[-1,-1,-1]","[-0.07831145061992224,-0.024805229881321625]","[-1,-1,-1]","[-0.05568740323615397,-0.1289188830797603]","[1,1,1]","[-0.08358355236268915,0.07401194282439504]","[1,1,1]","[0.06366376855658247,0.012552284052680083]","[1,1,1]","[0.022356281221555162,-0.15658835058900736]","[-1,-1,-1]","[0.03786154750468925,-0.07017864586205601]","[-1,-1,-1]","[-0.13086601423442593,-0.069249541375523]","[-1,-1,-1]","[0.09565958461264368,-0.09531684658138621]","[1,1,1]","[-0.0432237320100384,0.10268496513052427]","[1,1,1]","[-0.02654155822064493,-0.081118680544666]","[1,1,1]","[0.11037166240076667,0.028535792866199]","[1,1,1]","[-0.16043334761432468,0.10375726609833537]","[-1,-1,-1]","[0.0013129091495268426,0.14999842368723593]","[1,1,1]","[-0.02323738724996462,-0.17898335645426844]","[1,1,1]","[-0.1914377215173004,0.023004912523712475]","[-1,-1,-1]","[-0.13410943056915373,-0.01848424723110473]","[1,1,1]","[-0.15170901098088102,0.032058348429277544]","[1,1,1]","[0.1567868918151454,-0.07763980148303179]","[1,1,1]","[0.05778510404628117,0.12579420974189268]","[-1,-1,-1]","[0.14481020539742526,-0.12725209079881514]","[-1,-1,-1]","[-0.039092559834001624,0.00007983207099020314]","[-1,-1,-1]","[0.031599876846630646,-0.030495716943999985]","[1,1,1]","[-0.05842106897683276,0.17708925288772628]","[1,1,1]","[0.14960868954933113,0.11805343092882889]","[-1,-1,-1]","[-0.1344967333703639,0.13937854661330565]","[1,1,1]","[-0.09328489588057139,0.012885873984697444]","[1,1,1]","[-0.007987436782800592,0.195427855136103]","[1,1,1]","[0.02,0.02]",139.1408,0,13,13,155,1,,,,,,,
,,,,,,,65fae23bd06ae76bcc297e8b,682f101c947a4705c371b6bd,2025-05-22_14h45.11.006,cuing_paradigm_dot,2024.1.5,Win32,59.52380952,682d573fa47f1360d1451895,,,,,,,,,,,139.1415,139.6413,,,139.8945,140.4453,left,0.534,,,,,,,,,0.55,,,,,,139.6414,139.8944,140.4453,"[-0.09732015186902279,-0.013521310863031093]","[-1,-1,-1]","[0.0204121796878361,-0.10146539981816403]","[1,1,1]","[-0.06439025025136105,-0.03801943478948313]","[-1,-1,-1]","[0.060250036288750294,0.11405390164830034]","[1,1,1]","[-0.1261825661357606,-0.12245383885224162]","[1,1,1]","[-0.0931428665786052,0.07033013719405479]","[1,1,1]","[0.01911225529273096,0.06847592816528875]","[-1,-1,-1]","[-0.032739639727583245,-0.08132827442372405]","[-1,-1,-1]","[-0.06889946487966676,0.02864659216376973]","[1,1,1]","[-0.12934722121574443,0.0385798652550972]","[1,1,1]","[0.040820608004162,-0.032842060244697976]","[1,1,1]","[-0.007877091749518972,-0.1561214576462933]","[1,1,1]","[-0.04386799109257453,0.06219002054948545]","[-1,-1,-1]","[0.0017162769727997087,-0.0038834454364200114]","[1,1,1]","[-0.056380596834049564,-0.1438045321965288]","[-1,-1,-1]","[-0.11663793427509006,-0.0577153056631248]","[1,1,1]","[0.03969698389990913,-0.15229638459471784]","[-1,-1,-1]","[0.05932856387518782,0.07141736395017236]","[1,1,1]","[-0.19905639714072185,-0.018580411848327517]","[1,1,1]","[-0.08550599195941508,0.1296424523023675]","[-1,-1,-1]","[0.09045084715177105,-0.022162198062248763]","[-1,-1,-1]","[0.010185452314291443,0.15652931861483452]","[1,1,1]","[0.14858648730168242,0.09189844632282429]","[-1,-1,-1]","[0.08843783502111896,0.17733345216853613]","[1,1,1]","[0.10107124594400861,0.10921292715442174]","[-1,-1,-1]","[-0.15510987626391534,0.08607030996424857]","[1,1,1]","[-0.0816239298487136,-0.0978966749283184]","[1,1,1]","[-0.040044298477558554,0.114823105442783]","[-1,-1,-1]","[0.06342325388133253,-0.09286046446746621]","[1,1,1]","[-0.05829147341705713,0.1691007956795928]","[-1,-1,-1]","[0.1647021920660295,0.032136429210097545]","[1,1,1]","[0.1303587996670897,0.14141035718408254]","[-1,-1,-1]","[0.02,0.02]",141.5416,0,14,14,143,1,,,,,,,
,,,,,,,65fae23bd06ae76bcc297e8b,682f101c947a4705c371b6bd,2025-05-22_14h45.11.006,cuing_paradigm_dot,2024.1.5,Win32,59.52380952,682d573fa47f1360d1451895,,,,,,,,,,,141.5422,142.0459,,,142.2948,142.8761,right,0.5603,,,,,,,,,0.55,,,,,,142.0459,142.2947,142.8762,"[0.13714365140507778,0.09290795558251842]","[-1,-1,-1]","[-0.025318196778636615,-0.19482487327565556]","[-1,-1,-1]","[-0.1373248591432419,0.03609597694431155]","[-1,-1,-1]","[0.19924760619671766,-0.004476071611908492]","[1,1,1]","[-0.052608630356907764,0.15658184122292948]","[1,1,1]","[0.029979075046206442,0.1071200304562345]","[-1,-1,-1]","[0.09298166284641618,0.01970707654249852]","[-1,-1,-1]","[0.03365012869199304,-0.09355970777203339]","[1,1,1]","[-0.13023728697084633,-0.053574336921759454]","[1,1,1]","[-0.043194758543800005,-0.15811603063464236]","[1,1,1]","[-0.02660270210271788,-0.0716919931915571]","[-1,-1,-1]","[-0.10382451591452956,0.15785440516413748]","[1,1,1]","[0.14808082645182893,-0.018493650891015137]","[1,1,1]","[0.09152781837726974,-0.13517236352425704]","[-1,-1,-1]","[-0.10977860318599915,0.11529678640720738]","[1,1,1]","[-0.15392221511409457,0.11533510587065643]","[-1,-1,-1]","[0.14502432766484152,-0.06691628351574844]","[1,1,1]","[0.0585875334765215,-0.05951317821086784]","[1,1,1]","[-0.018804657752949046,-0.12076226035091457]","[-1,-1,-1]","[0.15041977389902042,-0.12420479228788024]","[1,1,1]","[0.09753603315296028,0.15700813458809543]","[1,1,1]","[-0.13615247563827593,-0.12891855843248837]","[-1,-1,-1]","[-0.08555563194757967,-0.09703040097088576]","[-1,-1,-1]","[0.020336890015673757,0.06054357155517945]","[-1,-1,-1]","[-0.07182683759696981,0.0213760492235507]","[-1,-1,-1]","[0.07257957229952815,0.10445719538351635]","[1,1,1]","[0.024459006932349512,0.15291766039569626]","[-1,-1,-1]","[-0.032138410771235366,-0.006177307366041657]","[1,1,1]","[0.050745195457044624,-0.1662687195089414]","[1,1,1]","[-0.028681723383334665,0.11766089836261963]","[1,1,1]","[0.09829485134465311,-0.03926532482323646]","[1,1,1]","[0.13484725955690283,0.028013842207005597]","[1,1,1]","[0.02,0.02]",143.9766,0,15,15,132,1,,,,,,,
,,,,,,,65fae23bd06ae76bcc297e8b,682f101c947a4705c371b6bd,2025-05-22_14h45.11.006,cuing_paradigm_dot,2024.1.5,Win32,59.52380952,682d573fa47f1360d1451895,,,,,,,,,,,143.9778,144.4762,,,144.7304,145.4119,right,0.665,,,,,,,,,0.1,,,,,,144.4764,144.7304,145.412,"[0.14281690489131033,-0.07392702522728473]","[-1,-1,-1]","[0.12799767352988967,-0.13014414121264428]","[-1,-1,-1]","[-0.10039806447812927,-0.01672219199350622]","[-1,-1,-1]","[-0.10778133766773428,-0.1656104342785589]","[-1,-1,-1]","[-0.0859842879325444,0.0358121246042101]","[1,1,1]","[-0.1503985486817564,-0.053232338226315755]","[-1,-1,-1]","[-0.13009372674987538,-0.12612558421333087]","[-1,-1,-1]","[0.004549561976087474,0.18274242399037624]","[1,1,1]","[0.020083653866174528,-0.02667424962376595]","[-1,-1,-1]","[0.022967069244164612,-0.19651336865994035]","[-1,-1,-1]","[0.10394347440811184,0.15842431848191618]","[-1,-1,-1]","[-0.1610305144224364,0.03993597448391944]","[-1,-1,-1]","[-0.053762887136425797,0.08836602713851219]","[-1,-1,-1]","[-0.038585997799692566,-0.11371584330806137]","[-1,-1,-1]","[0.12963756033235732,-0.01986139944601808]","[-1,-1,-1]","[0.028473984074232517,0.02025316673195778]","[-1,-1,-1]","[0.189564779985219,0.03655989224844902]","[-1,-1,-1]","[-0.066706363416583,-0.16950853349423142]","[-1,-1,-1]","[0.12160667756979592,0.05697991556894363]","[-1,-1,-1]","[-0.0749915017495954,0.1561343253501365]","[-1,-1,-1]","[0.04741054971624642,-0.09902102620638341]","[-1,-1,-1]","[0.0851058497227079,-0.05745472830052932]","[-1,-1,-1]","[0.033617678676849914,0.1316840028731218]","[-1,-1,-1]","[0.18493193046314538,-0.024756183849207164]","[-1,-1,-1]","[-0.10065930475659167,-0.05918340150134822]","[1,1,1]","[-0.17505443382400007,-0.01616365034807333]","[-1,-1,-1]","[-0.11693565539753065,0.1461468913709148]","[-1,-1,-1]","[0.029058886633076993,0.0913557526382889]","[-1,-1,-1]","[0.003234711795799042,-0.14759264045980683]","[-1,-1,-1]","[0.08476709924808702,0.012880369660742306]","[-1,-1,-1]","[0.10175054965273769,-0.09604006834669535]","[-1,-1,-1]","[-0.17853208864687697,-0.08169033298608991]","[-1,-1,-1]","[0.02,0.02]",146.5138,0,16,16,20,1,,,,,,,
,,,,,,,65fae23bd06ae76bcc297e8b,682f101c947a4705c371b6bd,2025-05-22_14h45.11.006,cuing_paradigm_dot,2024.1.5,Win32,59.52380952,682d573fa47f1360d1451895,,,,,,,,,,,146.5151,147.0153,,,147.2644,147.9828,right,0.7014,,,,,,,,,0.1,,,,,,147.0157,147.2644,147.983,"[-0.07799109173428544,-0.08805788290047506]","[-1,-1,-1]","[0.10647845324853145,-0.05115737332436492]","[-1,-1,-1]","[-0.04511252823828127,-0.12038530459451131]","[-1,-1,-1]","[0.04148310743853559,-0.05725691595161982]","[-1,-1,-1]","[-0.009534295991320963,0.12596825250090504]","[-1,-1,-1]","[0.08922416180202,-0.1020780623220868]","[-1,-1,-1]","[0.12951115898281626,-0.09726598252708678]","[-1,-1,-1]","[-0.1247203425811533,-0.1474077000816255]","[-1,-1,-1]","[-0.1348538288068272,0.14206992941056357]","[-1,-1,-1]","[0.08284989336024177,0.0840137754558431]","[1,1,1]","[-0.0524681925869346,0.07686126883408682]","[-1,-1,-1]","[0.030453890744402013,0.13575521082535913]","[-1,-1,-1]","[0.03917143345177751,-0.010549864771011004]","[-1,-1,-1]","[-0.06355168295267818,0.18380274610928665]","[-1,-1,-1]","[-0.13071829275202781,0.05850304502049172]","[-1,-1,-1]","[0.18966164472088254,0.017879347340294966]","[-1,-1,-1]","[-0.0006996099038982101,0.04237112322472684]","[-1,-1,-1]","[0.07600249534223347,0.15022614367979079]","[-1,-1,-1]","[-0.09322062203939542,-0.024231529913526336]","[-1,-1,-1]","[-0.006491093468301051,0.19082296079801225]","[-1,-1,-1]","[-0.18936317153696386,0.0596283862149552]","[-1,-1,-1]","[-0.1893136085930306,-0.030205444331490975]","[1,1,1]","[0.1060121235906943,-0.0005081647345301602]","[-1,-1,-1]","[0.04092504166651968,-0.15676281289403535]","[1,1,1]","[-0.04888875094258208,-0.021665929636613714]","[-1,-1,-1]","[-0.1630537710320894,0.015469383912673032]","[-1,-1,-1]","[-0.03877213749740084,-0.17190895004261922]","[-1,-1,-1]","[-0.0853912872812801,-0.12910270090902778]","[-1,-1,-1]","[0.15029977811424694,0.08369041749662554]","[-1,-1,-1]","[0.08410775992146191,-0.16517556880141854]","[-1,-1,-1]","[0.0007603963559819003,-0.042116958880813495]","[-1,-1,-1]","[-0.00962175950954043,0.08472007064652504]","[-1,-1,-1]","[0.02,0.02]",149.0789,0,17,17,26,1,,,,,,,
,,,,,,,65fae23bd06ae76bcc297e8b,682f101c947a4705c371b6bd,2025-05-22_14h45.11.006,cuing_paradigm_dot,2024.1.5,Win32,59.52380952,682d573fa47f1360d1451895,,,,,,,,,,,149.0796,149.5794,,,149.8309,150.9478,right,1.0985,,,,,,,,,0.4,,,,,,149.5794,149.8308,150.9479,"[0.10831541491150802,-0.1644704138851126]","[-1,-1,-1]","[-0.04441643156368025,0.0933894844391368]","[1,1,1]","[-0.10569384724290105,-0.027164341067674964]","[-1,-1,-1]","[-0.08094703595958902,0.11824159002260315]","[-1,-1,-1]","[-0.10006007711646524,-0.15363998189085745]","[1,1,1]","[0.17629122991582288,0.016491857682642764]","[-1,-1,-1]","[0.06470062888186709,-0.0428173469920135]","[-1,-1,-1]","[-0.13975496425532907,-0.1230312979418937]","[-1,-1,-1]","[0.11667701602106785,-0.04144658226248232]","[-1,-1,-1]","[-0.026247502341173068,-0.142223709078896]","[1,1,1]","[0.15995121924519898,-0.045898725827525085]","[1,1,1]","[0.1218774514885156,0.07135143855678887]","[1,1,1]","[0.081723185529259,0.10168121056671796]","[-1,-1,-1]","[-0.0028457800962032372,0.0650309244992363]","[1,1,1]","[0.15313599773780429,-0.10276750110498331]","[1,1,1]","[0.0900258446853248,-0.10974344333598354]","[1,1,1]","[-0.16453832686831255,-0.06376457765232375]","[-1,-1,-1]","[-0.03405058283473722,-0.0648726467968168]","[-1,-1,-1]","[0.0010420697553840395,0.14714401098297206]","[-1,-1,-1]","[0.043395938391699224,-0.14718840897180618]","[-1,-1,-1]","[-0.05067342327484884,-0.0017441208573274964]","[-1,-1,-1]","[-0.12446458730771828,0.04297147170560625]","[1,1,1]","[-0.08223903926060773,0.023234991533373345]","[1,1,1]","[0.1015547577048785,0.004570724693831595]","[-1,-1,-1]","[-0.16058460829569116,0.08788056121530814]","[-1,-1,-1]","[-0.11869791932321919,-0.06748107393429896]","[-1,-1,-1]","[-0.17767279831258478,0.049514177766470116]","[1,1,1]","[0.04539316898471094,0.11925844131741578]","[1,1,1]","[-0.18280606034788638,0.0036254004791617263]","[-1,-1,-1]","[-0.05210414275214581,-0.17519801046608297]","[-1,-1,-1]","[0.005299610376147824,-0.19314115043801006]","[-1,-1,-1]","[0.16932868727213618,0.08104078570731246]","[1,1,1]","[0.02,0.02]",152.0468,0,18,18,58,1,,,,,,,
,,,,,,,65fae23bd06ae76bcc297e8b,682f101c947a4705c371b6bd,2025-05-22_14h45.11.006,cuing_paradigm_dot,2024.1.5,Win32,59.52380952,682d573fa47f1360d1451895,,,,,,,,,,,152.0477,152.5478,,,152.8022,153.4481,left,0.6204,,,,,,,,,0.9,,,,,,152.5478,152.8022,153.4482,"[0.0478131341386397,-0.05707789935633801]","[1,1,1]","[0.11416612870740717,0.14370430818462515]","[1,1,1]","[0.016887343062998064,-0.13520597653519284]","[1,1,1]","[0.1310622457691138,-0.04556259631122497]","[-1,-1,-1]","[-0.06052315946819554,-0.1590303884123772]","[1,1,1]","[-0.1655550617102819,0.11141902860671227]","[1,1,1]","[-0.0883740235101308,-0.09611233032827149]","[1,1,1]","[0.1628895940102572,0.08951194215578001]","[1,1,1]","[-0.16869235770423424,-0.056902226851818824]","[1,1,1]","[-0.05771120579296637,0.1147736195260212]","[1,1,1]","[0.07672772758826975,0.008550220167189156]","[1,1,1]","[0.05810107370708283,0.11705857207571706]","[1,1,1]","[-0.0548566423754293,0.03294104849752683]","[1,1,1]","[-0.041941989406660676,-0.12145412862181025]","[1,1,1]","[-0.01916625286843862,0.05586029350640142]","[-1,-1,-1]","[0.1585967200754163,0.04866147193082153]","[1,1,1]","[0.11784680072467096,-0.157038406503323]","[1,1,1]","[-0.14202819542402859,-0.10668610741530087]","[1,1,1]","[-0.11094075011610305,-0.025657381466305494]","[1,1,1]","[-0.06280267975371409,0.18029299521008108]","[1,1,1]","[0.09342577494372088,0.05220276617624873]","[1,1,1]","[-0.1763887354436471,0.024411414971507044]","[1,1,1]","[-0.10264486262939565,0.08818300361719707]","[1,1,1]","[0.042902308396207796,0.04216808383780362]","[1,1,1]","[0.03279022930091654,-0.17268471648879372]","[1,1,1]","[0.13219781766466268,-0.11219734765328487]","[1,1,1]","[0.0066543454170707355,0.01413654448921862]","[1,1,1]","[0.18406043451859497,-0.027382863113656626]","[1,1,1]","[-0.041910937511346266,-0.036820866070713526]","[1,1,1]","[0.001329398589258944,0.10477039846647172]","[-1,-1,-1]","[-0.01596536963441709,0.14987780114686858]","[1,1,1]","[-0.13259987542947557,0.026645012239815767]","[1,1,1]","[0.02,0.02]",154.5483,0,19,19,197,1,,,,,,,
,,,,,,,65fae23bd06ae76bcc297e8b,682f101c947a4705c371b6bd,2025-05-22_14h45.11.006,cuing_paradigm_dot,2024.1.5,Win32,59.52380952,682d573fa47f1360d1451895,,,,,,,,,,,154.5493,155.0483,,,155.3013,156.5154,right,1.1949,,,,,,,,,0.6,,,,,,155.0483,155.3013,156.5155,"[0.1412055538792244,-0.0013387911743521208]","[1,1,1]","[-0.14354419632346802,-0.0491847202830413]","[1,1,1]","[0.04062089124739901,-0.17827135163004273]","[1,1,1]","[-0.04975040995567954,0.12677146020381222]","[-1,-1,-1]","[0.00040233698186058317,-0.06559698808299284]","[1,1,1]","[0.046263931360177264,-0.06256114936468853]","[-1,-1,-1]","[-0.02148079047210272,0.04972569688084959]","[1,1,1]","[0.19458046681802701,0.021946544104264377]","[1,1,1]","[0.09623648582615588,0.04420984418012464]","[1,1,1]","[-0.06905370097096991,-0.07338421363806362]","[-1,-1,-1]","[0.01871686859557679,-0.12390930212638215]","[1,1,1]","[-0.018931482351620867,-0.17023224703551446]","[-1,-1,-1]","[0.04794047838075573,0.11826595581435315]","[1,1,1]","[0.08223041125715193,-0.14758948687147574]","[-1,-1,-1]","[-0.14295122504890875,0.030232539685286292]","[1,1,1]","[-0.1971805028381684,-0.010593973432225094]","[1,1,1]","[0.16815795030763026,-0.04251258382535504]","[-1,-1,-1]","[-0.11669092829739564,-0.15174271265948197]","[1,1,1]","[0.15652834491194065,-0.09871580284116731]","[1,1,1]","[-0.061429088238040205,-0.16880382762193408]","[-1,-1,-1]","[0.042428747845693136,0.19343969657168336]","[1,1,1]","[0.03271938321269328,0.06658071208745729]","[1,1,1]","[0.07927527602431664,-0.018067654524635646]","[-1,-1,-1]","[0.113752866011218,0.15541019082695884]","[1,1,1]","[-0.03048319599611508,0.17106892142250038]","[-1,-1,-1]","[0.11838328471686489,0.08091941305193597]","[1,1,1]","[-0.14914347245185905,0.12159143965131515]","[1,1,1]","[-0.07565447639599332,0.18480925789503244]","[-1,-1,-1]","[-0.0009737566510082922,0.009261612029553574]","[-1,-1,-1]","[-0.0018523661682987441,0.09595444221797524]","[-1,-1,-1]","[-0.12733111248857554,0.07902644455726922]","[1,1,1]","[-0.09925718893604984,-0.01132578616936838]","[-1,-1,-1]","[0.02,0.02]",157.6195,0,20,20,179,1,,,,,,,
,,,,,,,65fae23bd06ae76bcc297e8b,682f101c947a4705c371b6bd,2025-05-22_14h45.11.006,cuing_paradigm_dot,2024.1.5,Win32,59.52380952,682d573fa47f1360d1451895,,,,,,,,,,,157.6201,158.1159,,,158.3688,159.3505,right,0.961,,,,,,,,,0.55,,,,,,158.1161,158.3687,159.3505,"[0.07198650884310337,-0.14054902079519008]","[-1,-1,-1]","[-0.009746592401035835,-0.01220902006931165]","[1,1,1]","[0.0409086803669066,-0.0657645387624373]","[1,1,1]","[-0.17849504954635836,-0.029215106182788005]","[-1,-1,-1]","[-0.005006290544348956,0.04221401258055319]","[-1,-1,-1]","[0.0802473989813476,-0.013267489629471631]","[1,1,1]","[0.034505851197275055,0.059294017309386965]","[1,1,1]","[-0.007149920747999256,0.18965129835857622]","[1,1,1]","[-0.10528514949607644,-0.13755757655570724]","[-1,-1,-1]","[-0.11223125578398861,0.13941623325199654]","[1,1,1]","[-0.08283706294024239,0.055904060652543816]","[-1,-1,-1]","[-0.055301974114204656,-0.13644696194819503]","[1,1,1]","[-0.13127761907951785,0.0735485866935759]","[1,1,1]","[-0.04694133989325377,-0.09492558015122679]","[-1,-1,-1]","[0.14264886005555102,-0.010827143036763746]","[-1,-1,-1]","[-0.05642191530327534,0.12871273547695875]","[1,1,1]","[0.17999251427014168,-0.03556819116476401]","[1,1,1]","[0.16180821525795178,0.0891489521023676]","[1,1,1]","[0.060050255936371,0.13128667615735193]","[1,1,1]","[0.11447423163165821,-0.11035992876488865]","[-1,-1,-1]","[-0.1240701834026233,-0.03751831427905512]","[1,1,1]","[0.02424476375141337,-0.14752934638907428]","[-1,-1,-1]","[-0.15086508402089435,-0.1278008937992407]","[1,1,1]","[-0.019673666856524656,0.09867751382446145]","[1,1,1]","[-0.17992080292904725,0.07059626405662127]","[-1,-1,-1]","[-0.09616385512314474,0.004481428845758089]","[1,1,1]","[0.0906434517207776,0.10140820553002595]","[-1,-1,-1]","[-0.03302644554694634,-0.18704451436073405]","[-1,-1,-1]","[-0.003302060555462846,0.1450393067404711]","[1,1,1]","[0.03389905988052418,0.012610446108533416]","[-1,-1,-1]","[-0.11520581303527881,-0.08587432815361576]","[-1,-1,-1]","[0.04205245839670125,0.18464895044094926]","[1,1,1]","[0.02,0.02]",160.4507,0,21,21,134,1,,,,,,,
,,,,,,,65fae23bd06ae76bcc297e8b,682f101c947a4705c371b6bd,2025-05-22_14h45.11.006,cuing_paradigm_dot,2024.1.5,Win32,59.52380952,682d573fa47f1360d1451895,,,,,,,,,,,160.4515,160.9506,,,161.2037,161.7679,left,0.5395,,,,,,,,,0.9,,,,,,160.9507,161.2037,161.7681,"[-0.15433049520869727,-0.032527915913081504]","[1,1,1]","[0.09706953964553679,-0.022358336618801884]","[1,1,1]","[-0.08776819989229842,0.15334331845145158]","[1,1,1]","[-0.03502273267254863,-0.06074923685600289]","[1,1,1]","[-0.006141526546038871,0.028245420469682894]","[1,1,1]","[0.16365400447527098,0.00005465681068928506]","[-1,-1,-1]","[-0.035976586920459665,-0.18576903611690865]","[1,1,1]","[0.14128687484403601,0.07916331351198412]","[-1,-1,-1]","[0.012282797690281505,-0.07865137857370648]","[1,1,1]","[0.00327633627513861,-0.13707249551347392]","[1,1,1]","[0.025782139412084886,0.055209650981933096]","[1,1,1]","[-0.09953000552858213,-0.05103420161268504]","[1,1,1]","[0.07924069956511341,0.09289276650331918]","[1,1,1]","[0.0663318652515809,0.15392631708396678]","[1,1,1]","[-0.037922208552149506,-0.10448168383318406]","[1,1,1]","[0.09171941927976027,-0.10978090919243803]","[1,1,1]","[-0.03706782996098829,0.17760158835626522]","[1,1,1]","[0.07577593202509662,-0.06825880963207868]","[1,1,1]","[-0.08367212809126452,0.005998180189705022]","[1,1,1]","[-0.0919993866033231,0.07026620788730246]","[1,1,1]","[0.05511222340713891,-0.17646711285486397]","[1,1,1]","[0.15858780267417666,-0.07951908653609215]","[1,1,1]","[-0.19639174092962744,0.03513061738528697]","[-1,-1,-1]","[0.014936188894368263,0.1415485322709316]","[1,1,1]","[-0.14210480622792276,0.07924157696882626]","[1,1,1]","[-0.11972978654875575,-0.1577639186315845]","[1,1,1]","[-0.12386918167248936,0.02867627850177222]","[1,1,1]","[-0.09514446543793854,-0.1193164987290392]","[1,1,1]","[0.03482895714046144,-0.006059030127190498]","[1,1,1]","[-0.17210147280224414,-0.08571550726528657]","[1,1,1]","[0.01156697709946729,0.19587916691114368]","[1,1,1]","[-0.006022011071594985,-0.031373990894072404]","[1,1,1]","[0.02,0.02]",162.8721,0,22,22,187,1,,,,,,,
,,,,,,,65fae23bd06ae76bcc297e8b,682f101c947a4705c371b6bd,2025-05-22_14h45.11.006,cuing_paradigm_dot,2024.1.5,Win32,59.52380952,682d573fa47f1360d1451895,,,,,,,,,,,162.8736,163.3688,,,163.6236,164.1198,left,0.4748,,,,,,,,,0.9,,,,,,163.369,163.6235,164.12,"[-0.14068076579474686,-0.11544671177339634]","[1,1,1]","[0.0065075288428770115,-0.06040721387864558]","[1,1,1]","[0.18726581713799667,0.006313201447315398]","[1,1,1]","[0.13212722280045297,0.055526388795264905]","[1,1,1]","[0.06625763404994443,-0.13311526372317717]","[1,1,1]","[0.0326505799391082,-0.006409778049400415]","[1,1,1]","[0.05028515619119258,0.19352783387687011]","[1,1,1]","[0.0992096549145361,0.16243300386313117]","[1,1,1]","[-0.041224761570716285,0.03121961123135596]","[-1,-1,-1]","[-0.05186104423441025,-0.11851318942948487]","[1,1,1]","[0.009513343158977462,0.040747812407743625]","[1,1,1]","[-0.11465367821635941,-0.14894054701444492]","[1,1,1]","[-0.0787788408822579,-0.006199697105347273]","[1,1,1]","[0.07334383665001994,0.12006463663292631]","[1,1,1]","[0.05060877124481881,-0.17818135450654699]","[-1,-1,-1]","[0.11088286116615698,-0.02983494222751496]","[1,1,1]","[-0.08776462194804464,0.1010627975629991]","[1,1,1]","[0.06840663270746423,0.055166578295875]","[-1,-1,-1]","[-0.05452896586160371,-0.17342484089613625]","[1,1,1]","[0.14704614413560385,-0.11967496047643297]","[1,1,1]","[0.00221359407565185,0.17923738526208688]","[1,1,1]","[-0.12716479126295566,0.02102764549387503]","[1,1,1]","[-0.05246006314033171,-0.041027808080524364]","[1,1,1]","[0.14200647737856073,0.13873865390271833]","[1,1,1]","[-0.1242776375389513,0.12271459457577848]","[1,1,1]","[-0.05974440173556339,0.19044000335169814]","[1,1,1]","[-0.18722234467006443,-0.039206837483001834]","[1,1,1]","[-0.1481336591781732,0.08561633475203873]","[1,1,1]","[0.1626485303069311,-0.05868842528989423]","[1,1,1]","[-0.09296781684538388,0.155386619497288]","[1,1,1]","[-0.10374309783964757,-0.067983871460165]","[1,1,1]","[0.17835783530177662,0.061597442142625594]","[1,1,1]","[0.02,0.02]",165.219,0,23,23,198,1,,,,,,,
,,,,,,,65fae23bd06ae76bcc297e8b,682f101c947a4705c371b6bd,2025-05-22_14h45.11.006,cuing_paradigm_dot,2024.1.5,Win32,59.52380952,682d573fa47f1360d1451895,,,,,,,,,,,165.2198,165.7231,,,165.9734,166.9068,right,0.9169,,,,,,,,,0.6,,,,,,165.7231,165.9734,166.9068,"[0.05625345150789391,0.01120069857990927]","[1,1,1]","[-0.12368938324288581,-0.15707337255895668]","[-1,-1,-1]","[0.020748219537888905,-0.049102756971450494]","[-1,-1,-1]","[0.00944153952160835,0.03483504094887057]","[1,1,1]","[0.024697010687159574,0.08970682244576453]","[-1,-1,-1]","[0.0766420545569028,-0.08557254777611835]","[-1,-1,-1]","[0.10693267369777702,0.16572289661721992]","[1,1,1]","[0.11933687192439293,-0.0719891810915088]","[-1,-1,-1]","[0.17035530960803022,-0.0690492825133758]","[-1,-1,-1]","[0.03615274762641411,-0.10258165469519251]","[1,1,1]","[-0.058542378506831756,-0.12862300883522904]","[1,1,1]","[-0.16420690563944212,0.03523611994419211]","[1,1,1]","[0.16259938604517848,0.06749351851784266]","[1,1,1]","[-0.030843884289302653,0.1615989630087459]","[1,1,1]","[-0.17408168086584444,-0.04700054791265523]","[-1,-1,-1]","[0.005361895400929967,-0.187795597443732]","[-1,-1,-1]","[-0.056660742029015936,-0.047758400132054624]","[-1,-1,-1]","[-0.10760241671787453,0.09653474435921182]","[1,1,1]","[-0.062198171948807834,-0.18777386658354903]","[1,1,1]","[-0.047045946475518886,0.036664080725331165]","[1,1,1]","[-0.1479380094316481,0.13320438181779376]","[-1,-1,-1]","[0.14131699195768094,-0.10658332085909046]","[-1,-1,-1]","[-0.0434174584179902,0.09842636712383988]","[1,1,1]","[-0.09833000940762528,-0.00457671311529726]","[1,1,1]","[-0.10277477109016692,0.05288342960272396]","[1,1,1]","[0.10758461587517038,0.03910754281687941]","[1,1,1]","[0.19813894392291248,-0.004509136405275303]","[1,1,1]","[0.06614929554701973,0.18188479807421992]","[1,1,1]","[-0.00901539374057623,-0.08713772110817429]","[1,1,1]","[0.0782954775387083,0.09678101505651329]","[1,1,1]","[0.11756364668288347,0.1044464710566465]","[-1,-1,-1]","[0.14647463002007483,0.027710663564826377]","[-1,-1,-1]","[0.02,0.02]",168.0039,0,24,24,151,1,,,,,,,
,,,,,,,65fae23bd06ae76bcc297e8b,682f101c947a4705c371b6bd,2025-05-22_14h45.11.006,cuing_paradigm_dot,2024.1.5,Win32,59.52380952,682d573fa47f1360d1451895,,,,,,,,,,,168.0047,168.5042,,,168.7544,169.2049,left,0.4242,,,,,,,,,0.9,,,,,,168.5042,168.7543,169.2056,"[0.08595599407630208,-0.06824402119604786]","[1,1,1]","[0.04298729226359325,-0.18849867335197606]","[-1,-1,-1]","[0.036925266170312485,-0.06381070135838698]","[1,1,1]","[-0.023711414412633944,-0.08373618732294855]","[1,1,1]","[-0.05984546182579418,0.15168594420591647]","[1,1,1]","[0.11787030269161439,0.14283446548213358]","[1,1,1]","[-0.005832689955466145,0.1845789614379149]","[1,1,1]","[-0.18535967193016983,-0.05334342481451655]","[1,1,1]","[-0.031184937672039482,0.019988224113634035]","[1,1,1]","[0.04525961575778902,0.01850424070078773]","[1,1,1]","[-0.12018391623948065,-0.11185398887509002]","[1,1,1]","[0.027528450285150153,0.06857852780480757]","[1,1,1]","[-0.10301179824950629,0.03731612592621216]","[1,1,1]","[0.1677495389454678,-0.04834322690863105]","[1,1,1]","[0.1289776240985161,0.06409307111954064]","[1,1,1]","[0.08293112505833983,0.12087949100008484]","[1,1,1]","[0.04388670094859963,0.15926151513854966]","[1,1,1]","[-0.1918168112201741,-0.006686493731097099]","[1,1,1]","[0.07297388650783435,0.08031030320229876]","[1,1,1]","[-0.003256961265754451,-0.19732022051984596]","[-1,-1,-1]","[-0.07971050547166607,-0.09773069251115976]","[1,1,1]","[0.016388866959011948,0.11240971149114688]","[1,1,1]","[0.016086299477422412,-0.1412021933180343]","[1,1,1]","[0.0861485730387139,-0.11579361485680272]","[1,1,1]","[-0.14290224754311484,0.012935826238033734]","[1,1,1]","[0.05793612080011739,-0.1476190246410175]","[1,1,1]","[0.18370176234044805,0.004957555334621397]","[1,1,1]","[0.10023076215946229,-0.013057715079673545]","[1,1,1]","[-0.07482005232739306,-0.1800909691675231]","[1,1,1]","[0.13970372160273803,-0.11495469670284601]","[1,1,1]","[-0.040314453990738686,-0.1332150373749977]","[-1,-1,-1]","[0.01439876966195123,-0.027319223226049936]","[1,1,1]","[0.02,0.02]",170.305,0,25,25,193,1,,,,,,,
,,,,,,,65fae23bd06ae76bcc297e8b,682f101c947a4705c371b6bd,2025-05-22_14h45.11.006,cuing_paradigm_dot,2024.1.5,Win32,59.52380952,682d573fa47f1360d1451895,,,,,,,,,,,170.306,170.8053,,,171.056,171.6055,left,0.519,,,,,,,,,0.55,,,,,,170.8054,171.0559,171.6055,"[0.07330225034417058,0.15998792127583325]","[1,1,1]","[0.07970460895832038,0.09428605082622503]","[-1,-1,-1]","[0.13832939676481468,0.06793674767471392]","[1,1,1]","[0.024779201430745683,-0.09094619953533818]","[1,1,1]","[-0.10693755277880175,-0.05290482120467136]","[1,1,1]","[0.09973320221719324,-0.07286799068122933]","[1,1,1]","[0.015221879476193663,0.012216282886731317]","[-1,-1,-1]","[0.004170891513708438,-0.13608455655758242]","[-1,-1,-1]","[0.06744127008350692,-0.1736914285493474]","[-1,-1,-1]","[0.08571321688131424,-0.1288031744626607]","[-1,-1,-1]","[-0.10272135836972292,0.04055467890627429]","[-1,-1,-1]","[0.1257596298045464,0.12374641263736945]","[1,1,1]","[-0.18785664384636563,0.06454804787810021]","[1,1,1]","[0.07186107401891424,-0.041171950726586554]","[-1,-1,-1]","[0.022340175059361422,0.08363930157268101]","[1,1,1]","[0.14279379080736423,-0.127404041227608]","[1,1,1]","[-0.027574298380284665,0.17238835975000585]","[1,1,1]","[-0.025202909986561887,-0.1901588485937529]","[1,1,1]","[-0.020049036588910083,0.04568452035584236]","[1,1,1]","[-0.09908207421828327,0.086599899894541]","[1,1,1]","[0.09005223298532852,0.00756656933181056]","[-1,-1,-1]","[0.03154066361862911,0.1770505481031762]","[-1,-1,-1]","[-0.1499263932713432,-0.04697419009645421]","[-1,-1,-1]","[-0.1438212989382427,-0.13663300086561694]","[1,1,1]","[0.16314430010767453,0.09966304821963379]","[-1,-1,-1]","[-0.025884738620143795,-0.020862316524117245]","[1,1,1]","[0.17490956488977127,-0.07930371877854929]","[1,1,1]","[-0.004957620633319661,-0.05619114301002044]","[-1,-1,-1]","[-0.19030852087791864,0.008310802583427762]","[-1,-1,-1]","[-0.15774671437808777,-0.09784273125077537]","[1,1,1]","[-0.07582253791941948,0.1644561537791389]","[1,1,1]","[-0.05919021680666652,-0.14156063710235833]","[-1,-1,-1]","[0.02,0.02]",172.7063,0,26,26,140,1,,,,,,,
,,,,,,,65fae23bd06ae76bcc297e8b,682f101c947a4705c371b6bd,2025-05-22_14h45.11.006,cuing_paradigm_dot,2024.1.5,Win32,59.52380952,682d573fa47f1360d1451895,,,,,,,,,,,172.7069,173.2064,,,173.4595,174.2901,left,0.806,,,,,,,,,0.45,,,,,,173.2065,173.4595,174.2903,"[0.11923050576460748,-0.05600291563524461]","[1,1,1]","[-0.042102742007100374,0.06635287352006579]","[1,1,1]","[-0.07720194580087382,-0.04119781502895379]","[1,1,1]","[0.017473638336284614,0.08432716490568225]","[1,1,1]","[-0.13491807771250894,-0.0060409646740559935]","[1,1,1]","[0.16981751814544244,0.035361035622456655]","[-1,-1,-1]","[-0.016288234781744734,-0.043495360583056863]","[-1,-1,-1]","[0.16454191657813186,-0.016873615180284955]","[1,1,1]","[0.02659666189851057,0.16267369143198718]","[-1,-1,-1]","[-0.11232720150291356,-0.10510279504560474]","[-1,-1,-1]","[0.05397034496394048,0.043359542607441494]","[-1,-1,-1]","[-0.19379373966915153,-0.013050373017760198]","[-1,-1,-1]","[-0.028234692753743035,-0.13936673712032618]","[1,1,1]","[-0.1618281387698905,-0.06890894556139629]","[-1,-1,-1]","[-0.04509931818756568,-0.0990030470368728]","[1,1,1]","[-0.012594452144989733,0.026900153087871276]","[-1,-1,-1]","[0.06507074655501852,0.11963765219714331]","[-1,-1,-1]","[-0.10725578121357823,0.09561817579652146]","[1,1,1]","[0.17348679908879075,0.08321917376872842]","[-1,-1,-1]","[-0.05150720837728331,-0.007339338644398101]","[-1,-1,-1]","[0.11903947342656081,0.021984744966183013]","[-1,-1,-1]","[0.1829004125725797,-0.07766612301895784]","[-1,-1,-1]","[0.14674846946397693,-0.10357774055933523]","[-1,-1,-1]","[-0.08655846490862608,0.0182015220828435]","[-1,-1,-1]","[0.0600591314824783,-0.03307567966158329]","[-1,-1,-1]","[0.03198431183920982,-0.1131012159184706]","[1,1,1]","[0.12202978960989234,-0.14065528640702002]","[1,1,1]","[0.04292125594314682,-0.16016905234420167]","[-1,-1,-1]","[0.12679355960805141,0.14112641702788334]","[1,1,1]","[-0.0769326807946617,-0.16234618465183637]","[1,1,1]","[0.00038632457917744836,-0.19039940449191364]","[1,1,1]","[0.015893053113239786,-0.07242250518036895]","[-1,-1,-1]","[0.02,0.02]",175.3908,0,27,27,64,1,,,,,,,
,,,,,,,65fae23bd06ae76bcc297e8b,682f101c947a4705c371b6bd,2025-05-22_14h45.11.006,cuing_paradigm_dot,2024.1.5,Win32,59.52380952,682d573fa47f1360d1451895,,,,,,,,,,,175.392,175.8918,,,176.1434,176.7416,right,0.5714,,,,,,,,,0.45,,,,,,175.8919,176.1434,176.7417,"[0.009358385439453956,-0.0668018871979959]","[1,1,1]","[-0.0776432639154505,0.028910687912515207]","[-1,-1,-1]","[-0.10164512531107167,-0.10941256702998461]","[1,1,1]","[0.09036569122811754,0.019297990942096263]","[-1,-1,-1]","[-0.006069494165575415,0.028817413369064283]","[-1,-1,-1]","[-0.15960759271937675,0.049383539917780044]","[-1,-1,-1]","[-0.028473735229905386,0.07878383015649199]","[-1,-1,-1]","[0.015510980967336743,0.16347729738526134]","[1,1,1]","[0.025068562425113742,-0.13751327728588508]","[1,1,1]","[-0.11039467890237219,0.14280558618755052]","[1,1,1]","[0.13827670200693973,0.12832763630197688]","[-1,-1,-1]","[0.10672972608829195,0.15593394688840437]","[1,1,1]","[-0.049251943272571305,-0.14596384048321426]","[-1,-1,-1]","[0.08369390056070028,-0.14135257237981702]","[-1,-1,-1]","[-0.033688512818886136,-0.028333471423019965]","[1,1,1]","[-0.054344635282942394,-0.0895527087700322]","[1,1,1]","[-0.09513486120042905,-0.1522635533155037]","[-1,-1,-1]","[0.1591178576633268,0.03704295159260828]","[1,1,1]","[0.15623038950928814,-0.05413988707175818]","[-1,-1,-1]","[-0.019686386937804827,0.18549907507914712]","[-1,-1,-1]","[0.09336095502236326,-0.06479677680264344]","[-1,-1,-1]","[0.16642156260591515,0.08370358261600462]","[1,1,1]","[0.06105877548059278,-0.18154543454030822]","[-1,-1,-1]","[-0.16580036931388398,0.008513895731709714]","[-1,-1,-1]","[0.06058925762204902,-0.013647987762125623]","[-1,-1,-1]","[0.02915337286967051,0.08001443811508668]","[-1,-1,-1]","[0.12019481782265813,-0.10047037052827387]","[1,1,1]","[0.0662661689913786,0.11347323073467]","[-1,-1,-1]","[0.0028871962768566954,0.11163747628613059]","[1,1,1]","[-0.12719644631578636,0.10537781553371178]","[-1,-1,-1]","[-0.046799098919173984,-0.19239190589165567]","[1,1,1]","[-0.08351421895411738,0.08921819289726532]","[1,1,1]","[0.02,0.02]",177.8418,0,28,28,82,1,,,,,,,
,,,,,,,65fae23bd06ae76bcc297e8b,682f101c947a4705c371b6bd,2025-05-22_14h45.11.006,cuing_paradigm_dot,2024.1.5,Win32,59.52380952,682d573fa47f1360d1451895,,,,,,,,,,,177.8428,178.3465,,,178.5933,179.3084,right,0.7062,,,,,,,,,0.55,,,,,,178.3466,178.5932,179.3088,"[0.14303016682373212,-0.06860367781388753]","[-1,-1,-1]","[0.05540229541079851,0.11787225244892634]","[1,1,1]","[0.08051203397267141,-0.07765139038938304]","[-1,-1,-1]","[-0.038974713250745543,0.12682651123141003]","[-1,-1,-1]","[-0.1591667281133338,-0.11335457327107747]","[1,1,1]","[0.09233657709524817,-0.14361838132143406]","[-1,-1,-1]","[-0.11639674755306699,-0.09278108221598187]","[1,1,1]","[0.05080454014850883,0.04965149969756007]","[-1,-1,-1]","[-0.08974096822248814,0.12922370144496315]","[-1,-1,-1]","[0.09999166620293955,0.11492032674188285]","[1,1,1]","[-0.025323481716154783,0.002813588543867351]","[-1,-1,-1]","[0.11822797036315928,0.020283063181043837]","[-1,-1,-1]","[0.025902672983233743,-0.049944683717913795]","[1,1,1]","[0.10203915984715115,-0.025127125573839813]","[1,1,1]","[0.021655725680085964,-0.17429470206740597]","[-1,-1,-1]","[-0.10488022023528555,0.04667316935622801]","[1,1,1]","[-0.07836957763042125,-0.047238993799003905]","[1,1,1]","[-0.07264203220793386,-0.148616165789141]","[1,1,1]","[-0.12223296774378839,0.15639410617052668]","[1,1,1]","[0.18836591794636148,-0.06705780079164472]","[-1,-1,-1]","[-0.08170810287773123,0.0841415235195509]","[-1,-1,-1]","[-0.024231682011170774,0.17071166305766647]","[1,1,1]","[0.07090418161755846,0.16816861864324384]","[1,1,1]","[0.11213714925607897,0.16273196420404473]","[1,1,1]","[0.021613631268892684,0.01322252566534754]","[1,1,1]","[-0.027748878676272425,-0.07686097753945156]","[-1,-1,-1]","[0.1688420577974979,-0.03182253844453768]","[1,1,1]","[-0.15115450430214306,-0.00044689008720896414]","[1,1,1]","[0.16286012655180362,-0.108670815810076]","[-1,-1,-1]","[-0.10059220810473367,0.0031605186145907587]","[1,1,1]","[0.18347505360976568,0.04509159640900892]","[-1,-1,-1]","[-0.15646949458437187,-0.04154326047967656]","[1,1,1]","[0.02,0.02]",180.4089,0,29,29,138,1,,,,,,,
,,,,,,,65fae23bd06ae76bcc297e8b,682f101c947a4705c371b6bd,2025-05-22_14h45.11.006,cuing_paradigm_dot,2024.1.5,Win32,59.52380952,682d573fa47f1360d1451895,,,,,,,,,,,180.4097,180.9085,,,181.1593,182.1441,left,0.9724,,,,,,,,,0.55,,,,,,180.9085,181.1592,182.1441,"[-0.04244249423255175,0.17698914066997584]","[1,1,1]","[-0.08433710496879106,-0.17466835758811974]","[1,1,1]","[0.06511205449613276,-0.13099626887780869]","[-1,-1,-1]","[-0.014899529915804337,0.07296122999891383]","[1,1,1]","[-0.1066634963164807,0.13821489804532144]","[-1,-1,-1]","[0.11116979380068218,0.11209640050818569]","[1,1,1]","[0.11920455615642149,0.03269365094629595]","[1,1,1]","[0.10182308675865828,0.0689925761331396]","[1,1,1]","[0.04407245830015891,0.05146894269873395]","[-1,-1,-1]","[0.15169923146260614,0.06502677127466426]","[-1,-1,-1]","[-0.0018711922320654663,-0.13869703890789714]","[1,1,1]","[0.1192430695117004,-0.08175702805321088]","[1,1,1]","[-0.05937820670921832,-0.030827344634583958]","[-1,-1,-1]","[0.16820313635005257,-0.027534031471020484]","[1,1,1]","[0.0197874724284239,0.15450732774490963]","[-1,-1,-1]","[-0.01366273831422668,-0.0805492086227459]","[1,1,1]","[0.08588861968698926,0.15355211918720216]","[-1,-1,-1]","[-0.055795379279783584,0.02840003532527332]","[1,1,1]","[-0.18904504769255534,-0.001323678611771041]","[1,1,1]","[0.00023882627658103353,-0.18343295477321211]","[-1,-1,-1]","[-0.14966186088326064,-0.12499288855609808]","[-1,-1,-1]","[-0.14386550755406416,0.03328135772816142]","[-1,-1,-1]","[-0.13675820612203046,-0.06323557357275444]","[1,1,1]","[0.09140956895560282,-0.17201012843832053]","[1,1,1]","[0.01548036174644225,-0.03718311677821841]","[1,1,1]","[0.19370442263635818,0.005250133142699436]","[-1,-1,-1]","[-0.05457614000100961,-0.1318263273242304]","[-1,-1,-1]","[-0.07974384697467367,0.07950810151373403]","[-1,-1,-1]","[-0.10166170249970843,0.02957624263676603]","[1,1,1]","[0.1622422236710791,-0.07995412403433456]","[1,1,1]","[-0.06457369579246444,0.14009290463058147]","[-1,-1,-1]","[-0.14311620170214592,0.09169268657716066]","[1,1,1]","[0.02,0.02]",183.2441,0,30,30,149,1,,,,,,,
,,,,,,,65fae23bd06ae76bcc297e8b,682f101c947a4705c371b6bd,2025-05-22_14h45.11.006,cuing_paradigm_dot,2024.1.5,Win32,59.52380952,682d573fa47f1360d1451895,,,,,,,,,,,183.2455,183.7432,,,183.9938,184.5272,left,0.5194,,,,,,,,,0.9,,,,,,183.7433,183.9938,184.5273,"[-0.09950400973344646,-0.1277257958925956]","[-1,-1,-1]","[0.0685253785342975,0.12009265260347246]","[1,1,1]","[0.10489417842012663,0.15963821661332522]","[1,1,1]","[0.0226279209166323,-0.1623035776886023]","[1,1,1]","[0.023646079955887852,0.19664500332819804]","[1,1,1]","[-0.0447247062451831,-0.13705284781265795]","[1,1,1]","[0.14357342387760866,0.12286040421482887]","[1,1,1]","[-0.16776360450797315,-0.06492316239146059]","[1,1,1]","[-0.16313218992143574,-0.0031300721007655116]","[1,1,1]","[-0.06247720570209634,-0.08251625144523143]","[1,1,1]","[-0.15422083361481806,-0.10517574010617653]","[1,1,1]","[-0.13632155153272535,0.12867298669510405]","[1,1,1]","[0.02607595848762975,-0.021601520439267708]","[1,1,1]","[-0.15627689732399622,0.0711115896058848]","[1,1,1]","[0.03066896947084983,0.030406770336217758]","[1,1,1]","[0.0018380915020019912,0.15275209509855592]","[1,1,1]","[0.12912462113813475,0.05117975316493369]","[1,1,1]","[-0.021366613538445746,-0.05383262731571997]","[1,1,1]","[-0.030053825647185364,0.04658239674610743]","[-1,-1,-1]","[0.08299752720806802,-0.0588857773007857]","[1,1,1]","[0.11237189181091561,-0.12439223925937719]","[1,1,1]","[-0.08696653397973217,0.14182485425348398]","[1,1,1]","[-0.0405209421607939,0.16934375015499797]","[1,1,1]","[0.047349900049228504,0.07695153053000386]","[1,1,1]","[0.06954003714083079,0.0419478342544474]","[1,1,1]","[-0.08822652486331403,-0.0318405213586709]","[1,1,1]","[0.06254328102475916,-0.140695697997629]","[1,1,1]","[0.17483462587768817,-0.06457114310838162]","[1,1,1]","[-0.08216641698106902,0.043232315805602994]","[1,1,1]","[-0.032003740478902615,-0.00804941098364718]","[1,1,1]","[0.16184469548939312,0.08658525943653653]","[1,1,1]","[0.09586486466080898,-0.003975868283975959]","[-1,-1,-1]","[0.02,0.02]",185.6282,0,31,31,188,1,,,,,,,
,,,,,,,65fae23bd06ae76bcc297e8b,682f101c947a4705c371b6bd,2025-05-22_14h45.11.006,cuing_paradigm_dot,2024.1.5,Win32,59.52380952,682d573fa47f1360d1451895,,,,,,,,,,,185.6293,186.1281,,,186.3784,187.1318,left,0.7477,,,,,,,,,0.45,,,,,,186.1282,186.3784,187.1318,"[0.13332613755051814,-0.13312301468801171]","[-1,-1,-1]","[-0.17614084338454478,-0.021988229316837634]","[1,1,1]","[-0.08290846457577823,0.11938140332897693]","[-1,-1,-1]","[-0.023467464547029603,0.061450967005133396]","[1,1,1]","[0.11011174354703897,-0.09515479963937301]","[-1,-1,-1]","[0.033653691154183145,0.09501543742658808]","[1,1,1]","[-0.04638520726619777,0.15364582860213297]","[1,1,1]","[-0.1291209610374955,-0.061987297215891725]","[-1,-1,-1]","[-0.16851792194063558,0.06175438741513335]","[-1,-1,-1]","[-0.09229845788188662,-0.01733207582252445]","[-1,-1,-1]","[0.15783759396595418,0.11938664788055914]","[1,1,1]","[0.06680747789809324,0.05342549881918155]","[-1,-1,-1]","[-0.02598965706947575,-0.13265358743814787]","[-1,-1,-1]","[0.18282773418584458,0.06505081088469049]","[-1,-1,-1]","[-0.02951773979182653,-0.080942032910051]","[1,1,1]","[0.03561595766194079,-0.0049060508023672815]","[1,1,1]","[-0.03872840927703694,-0.030106995306449894]","[-1,-1,-1]","[-0.06540694545396844,-0.11195685346067859]","[1,1,1]","[0.1432400088501598,0.012686724192538763]","[-1,-1,-1]","[-0.11378490630141808,-0.11712419870162179]","[1,1,1]","[0.03623020012000907,-0.1296680196109441]","[-1,-1,-1]","[0.0009196821301509469,0.13154893215695265]","[-1,-1,-1]","[0.09103440936799058,0.14046668947811683]","[1,1,1]","[-0.17623930945278382,-0.06779307548136247]","[1,1,1]","[0.06281876609815548,0.18126520844679536]","[1,1,1]","[-0.1217067178564428,0.13811919204111947]","[-1,-1,-1]","[-0.07307360167145176,0.021163894248578504]","[1,1,1]","[0.015168977670293113,-0.06840364156423322]","[1,1,1]","[-0.13336975723683925,-0.00026124688366737986]","[-1,-1,-1]","[0.0860768139968954,-0.05828282950174155]","[-1,-1,-1]","[0.18005616333617844,-0.07746490385119863]","[-1,-1,-1]","[0.09645716873376362,0.02432249530814886]","[-1,-1,-1]","[0.02,0.02]",188.2289,0,32,32,68,1,,,,,,,
,,,,,,,65fae23bd06ae76bcc297e8b,682f101c947a4705c371b6bd,2025-05-22_14h45.11.006,cuing_paradigm_dot,2024.1.5,Win32,59.52380952,682d573fa47f1360d1451895,,,,,,,,,,,188.2294,188.7296,,,188.9793,189.9629,left,0.9749,,,,,,,,,0.6,,,,,,188.7297,188.9793,189.963,"[0.07862817188082458,0.11768768603604589]","[1,1,1]","[-0.10388316701881183,0.06102202335933566]","[1,1,1]","[-0.1226815833954287,-0.08688655031268404]","[1,1,1]","[-0.16289605337264723,-0.09395385478383912]","[-1,-1,-1]","[0.1821544879165009,0.04528767171782653]","[1,1,1]","[0.17012915284030294,-0.006104155190020977]","[1,1,1]","[-0.034757308604991946,0.04836047972815075]","[1,1,1]","[-0.14842555560060697,0.1300461616233487]","[-1,-1,-1]","[-0.025864011454362495,-0.09296567655382416]","[-1,-1,-1]","[0.09812009834241207,0.07792266795222194]","[-1,-1,-1]","[-0.14295432930889299,0.0056021379040136895]","[1,1,1]","[0.16541582978819006,-0.10323611096291398]","[-1,-1,-1]","[0.04386152811688348,-0.06411097774171667]","[-1,-1,-1]","[-0.07416014356158249,0.17886053097878168]","[-1,-1,-1]","[-0.028601700397999422,-0.14760236392934076]","[-1,-1,-1]","[0.007703192383343657,0.12253976056382365]","[1,1,1]","[-0.0024015779320019203,-0.05349233899911544]","[-1,-1,-1]","[0.05315791106697559,-0.12390350298605962]","[1,1,1]","[-0.07165559779650411,-0.008993830170281296]","[1,1,1]","[-0.08278191270651558,-0.10320648354239344]","[1,1,1]","[0.021882420884828235,-0.0012443852282638932]","[1,1,1]","[-0.00933716593809942,0.19123906329891135]","[-1,-1,-1]","[-0.1864174020538246,-0.03344491217908674]","[-1,-1,-1]","[0.09135804423893447,-0.10320398620120558]","[1,1,1]","[-0.1644411414371569,0.04391765647352822]","[1,1,1]","[0.0413599879730993,-0.18965189285344233]","[1,1,1]","[-0.11650056572730291,0.10177528652722431]","[-1,-1,-1]","[-0.14867430685719912,-0.05013094741866972]","[1,1,1]","[0.0983901207718345,0.022812967021349127]","[1,1,1]","[-0.08498462745954143,-0.05178066234524342]","[-1,-1,-1]","[0.10300756027367287,-0.03186111495175134]","[1,1,1]","[0.036040520586131074,0.15557301198481283]","[1,1,1]","[0.02,0.02]",191.0637,0,33,33,173,1,,,,,,,
,,,,,,,65fae23bd06ae76bcc297e8b,682f101c947a4705c371b6bd,2025-05-22_14h45.11.006,cuing_paradigm_dot,2024.1.5,Win32,59.52380952,682d573fa47f1360d1451895,,,,,,,,,,,191.0649,191.5648,,,191.8142,192.2472,right,0.4232,,,,,,,,,0.1,,,,,,191.5649,191.814,192.2472,"[0.055358507271816515,-0.023598835675582]","[-1,-1,-1]","[0.11916972070776886,-0.12874599988332777]","[-1,-1,-1]","[0.08789195968364497,0.04290182192770577]","[-1,-1,-1]","[-0.07107731848346668,0.06458408783741137]","[-1,-1,-1]","[-0.11109912431990625,0.01549477172135069]","[-1,-1,-1]","[0.04475394629238829,-0.07090634491754938]","[-1,-1,-1]","[0.11193230058914824,-0.05186969401306627]","[-1,-1,-1]","[0.19211441331681706,0.007335516748641682]","[-1,-1,-1]","[-0.05706882402445537,-0.09543262450930624]","[-1,-1,-1]","[0.04114520671471986,0.05642796748983639]","[1,1,1]","[-0.057639363200298534,0.15248066142319774]","[-1,-1,-1]","[0.02488867918798715,-0.19226360226205366]","[-1,-1,-1]","[-0.0016666361418214602,-0.035797358025326145]","[-1,-1,-1]","[0.007794808617269653,-0.14048635511440746]","[-1,-1,-1]","[0.0027966119065383783,0.010731205470182985]","[-1,-1,-1]","[-0.16107378366432698,0.04706282709170279]","[1,1,1]","[0.0368954453885804,0.1402000015411765]","[1,1,1]","[-0.1034428914634913,-0.12046205965421258]","[-1,-1,-1]","[0.1628335670698117,-0.06799624672664457]","[-1,-1,-1]","[-0.17824978989191562,-0.05520358706311846]","[-1,-1,-1]","[-0.07411653552722904,-0.17773790161842618]","[-1,-1,-1]","[-0.11496792854943888,-0.0548493078463263]","[-1,-1,-1]","[-0.03515185625515363,-0.13243672575253404]","[-1,-1,-1]","[-0.0622590712492501,-0.029574063424034115]","[-1,-1,-1]","[0.06390674239869296,-0.1681330458706691]","[-1,-1,-1]","[-0.020489642292008857,0.09745111100436629]","[-1,-1,-1]","[-0.08772551384900008,0.11381393970726637]","[-1,-1,-1]","[0.15800366510445002,0.1190041823839042]","[-1,-1,-1]","[-0.15585286828877817,-0.10932809452333105]","[-1,-1,-1]","[0.12618269665223258,0.060655190677435356]","[-1,-1,-1]","[0.10701966341006361,0.10363349191966681]","[-1,-1,-1]","[0.10095334682057887,0.14633025107638037]","[-1,-1,-1]","[0.02,0.02]",193.348,0,34,34,21,1,,,,,,,
,,,,,,,65fae23bd06ae76bcc297e8b,682f101c947a4705c371b6bd,2025-05-22_14h45.11.006,cuing_paradigm_dot,2024.1.5,Win32,59.52380952,682d573fa47f1360d1451895,,,,,,,,,,,193.3492,193.8477,,,194.0987,195.5988,,,,,,,,,,,0.45,,,,,,193.8478,194.0986,195.599,"[0.06015387837076397,0.041338914823588514]","[-1,-1,-1]","[0.012649790236887662,0.033883352737377144]","[1,1,1]","[0.10595464227630862,-0.16384429895060734]","[-1,-1,-1]","[-0.007070252019187116,-0.05126101444949122]","[-1,-1,-1]","[0.08304922569562888,-0.08057231851245868]","[-1,-1,-1]","[-0.025102043006511424,0.14532362471513705]","[-1,-1,-1]","[-0.1006080912007779,0.030462239179622753]","[1,1,1]","[-0.15173853353042951,0.0040728018547590596]","[1,1,1]","[0.06174931441104132,-0.1252645393986832]","[-1,-1,-1]","[-0.0694119284886445,0.05602033189661022]","[1,1,1]","[-0.12665977777710014,0.11410912449020745]","[1,1,1]","[-0.011606255855151768,0.08780368152444419]","[1,1,1]","[-0.0125188786091859,-0.15359051213903632]","[1,1,1]","[-0.041731038294997656,0.18684681548399182]","[1,1,1]","[-0.0717820758212333,-0.14528896758794052]","[-1,-1,-1]","[0.06173791922592077,0.11452855261473377]","[-1,-1,-1]","[-0.08248304643613857,0.12001806629528802]","[-1,-1,-1]","[0.025887460710112907,0.16005261432602524]","[1,1,1]","[0.08694957024388564,0.14924955298659337]","[-1,-1,-1]","[0.15680483146158158,-0.08925281700978571]","[-1,-1,-1]","[-0.125027136620024,-0.1424473490843362]","[1,1,1]","[-0.032243526562828854,-0.08491833104012858]","[1,1,1]","[-0.155770500604369,0.0633163701688817]","[-1,-1,-1]","[-0.18234883268009738,-0.04378259749450811]","[-1,-1,-1]","[0.11800380022637944,0.09891720680716129]","[1,1,1]","[-0.04990926359182834,0.015167051762465522]","[-1,-1,-1]","[0.05272348548365954,0.0013722189806793501]","[-1,-1,-1]","[0.006756254042771853,0.19628729545709767]","[1,1,1]","[-0.1106877856270049,-0.054393185652505886]","[-1,-1,-1]","[0.021357744215389916,-0.1876835855671682]","[1,1,1]","[0.10738754461338475,-0.03422725952451402]","[-1,-1,-1]","[0.11299541816783581,0.05596908906555977]","[-1,-1,-1]","[0.02,0.02]",196.6992,0,35,35,80,1,,,,,,,
,,,,,,,65fae23bd06ae76bcc297e8b,682f101c947a4705c371b6bd,2025-05-22_14h45.11.006,cuing_paradigm_dot,2024.1.5,Win32,59.52380952,682d573fa47f1360d1451895,,,,,,,,,,,196.7001,197.1997,,,197.4502,198.0332,right,0.5695,,,,,,,,,0.45,,,,,,197.1998,197.4502,198.0333,"[0.087850146292817,-0.02172763925549037]","[1,1,1]","[-0.02115117506804661,0.11756051973171834]","[1,1,1]","[0.14281317075249406,0.11368808881415897]","[-1,-1,-1]","[-0.08808683214234268,0.06808652481021842]","[-1,-1,-1]","[0.08876907224127749,-0.11229016022044144]","[1,1,1]","[-0.16488936030489654,0.0016326534124239318]","[-1,-1,-1]","[-0.06708072957752623,-0.07343686314917627]","[1,1,1]","[-0.11982704272826514,0.019947687497645795]","[1,1,1]","[-0.07908533497461973,0.11326337368087172]","[1,1,1]","[-0.12109109350047344,0.1013158453046316]","[-1,-1,-1]","[0.051661682514308395,0.18975179790825697]","[-1,-1,-1]","[-0.009507955202732702,-0.029475580049358588]","[1,1,1]","[0.002201001590085515,-0.15883950624846688]","[-1,-1,-1]","[0.034574882491963894,-0.04435852761596617]","[-1,-1,-1]","[0.11699796340846236,0.058783238047419355]","[-1,-1,-1]","[0.0791402682112089,0.08724589037291704]","[-1,-1,-1]","[-0.03117745715237197,-0.12431788123024122]","[1,1,1]","[-0.18484210823837133,0.05166737786575811]","[1,1,1]","[0.08839377887846743,0.16042130100806715]","[1,1,1]","[0.12066196248060436,0.013680520583106407]","[1,1,1]","[0.15903828366501796,0.07633574939060034]","[-1,-1,-1]","[0.037832710181078553,0.13730134749623835]","[-1,-1,-1]","[0.17831389596979902,0.02535261164681448]","[-1,-1,-1]","[0.045077275396693484,0.015535450526367596]","[1,1,1]","[0.17702893293090138,-0.02060796721817236]","[-1,-1,-1]","[0.1326705433898816,-0.058874642424713346]","[-1,-1,-1]","[-0.028004601710415786,0.024057911359100626]","[-1,-1,-1]","[-0.14667341642644352,-0.08693047727557116]","[1,1,1]","[-0.032775833092581155,0.16577883142554417]","[-1,-1,-1]","[-0.12283251239299127,-0.12949704373592072]","[1,1,1]","[0.04701286919023673,-0.13540714593045136]","[-1,-1,-1]","[-0.06269015237019254,-0.02112469818718986]","[-1,-1,-1]","[0.02,0.02]",199.1337,0,36,36,81,1,,,,,,,
,,,,,,,65fae23bd06ae76bcc297e8b,682f101c947a4705c371b6bd,2025-05-22_14h45.11.006,cuing_paradigm_dot,2024.1.5,Win32,59.52380952,682d573fa47f1360d1451895,,,,,,,,,,,199.1345,199.6349,,,199.8857,200.819,left,0.9271,,,,,,,,,0.6,,,,,,199.6349,199.8853,200.819,"[0.1609777012398745,-0.007889727608247264]","[1,1,1]","[-0.16951642477898426,0.003006053100516607]","[1,1,1]","[0.023482549564877223,-0.12270999170290882]","[-1,-1,-1]","[0.061524192110665496,-0.07433604242413007]","[-1,-1,-1]","[0.0897303414723462,0.018097750433582818]","[1,1,1]","[-0.05138165835351812,-0.05204272521476194]","[1,1,1]","[-0.04427975600762513,0.11406172547756467]","[1,1,1]","[-0.09772588142358905,-0.14574709829114887]","[1,1,1]","[0.037460836493829475,0.025057354630301894]","[1,1,1]","[-0.15191967649115215,0.08156484285376878]","[-1,-1,-1]","[-0.07105871664937717,0.032319603233012195]","[1,1,1]","[-0.11495027088129,0.05774671563023182]","[1,1,1]","[-0.03238876680779789,-0.1728007924674292]","[-1,-1,-1]","[0.11863986067541833,-0.08601013688462397]","[1,1,1]","[0.14237217171097302,0.0641291719028894]","[-1,-1,-1]","[0.08171186806266544,0.06271216425361587]","[1,1,1]","[0.12988119332117404,0.11779841214850602]","[1,1,1]","[0.017413019579183616,0.13851074103950284]","[-1,-1,-1]","[0.009200164155496746,-0.045160122172415544]","[-1,-1,-1]","[0.19009782072252426,0.04671271937506928]","[-1,-1,-1]","[-0.12526995208790137,-0.09597443014685261]","[-1,-1,-1]","[-0.11030009635770417,0.14373279861410895]","[1,1,1]","[-0.053868141706803443,-0.13309354890887215]","[-1,-1,-1]","[-0.025541530414026545,0.0050278083527459695]","[1,1,1]","[0.09897269763300919,-0.12508255421332945]","[1,1,1]","[0.07029775362451705,0.1864639001151999]","[1,1,1]","[0.11002090341847945,0.15896567920996926]","[1,1,1]","[0.0675092047572395,0.12163767404507282]","[-1,-1,-1]","[-0.17624971449747973,-0.08007118918223359]","[1,1,1]","[0.0818114720753576,-0.16518332201904098]","[-1,-1,-1]","[-0.10859870380623823,-0.024713267095712418]","[1,1,1]","[-0.007930347033528105,0.05027844933398189]","[-1,-1,-1]","[0.02,0.02]",201.9185,0,37,37,168,1,,,,,,,
,,,,,,,65fae23bd06ae76bcc297e8b,682f101c947a4705c371b6bd,2025-05-22_14h45.11.006,cuing_paradigm_dot,2024.1.5,Win32,59.52380952,682d573fa47f1360d1451895,,,,,,,,,,,201.9196,202.4186,,,202.669,203.5687,right,0.8839,,,,,,,,,0.45,,,,,,202.4188,202.669,203.5687,"[0.16159496445492721,0.023612602743206517]","[-1,-1,-1]","[-0.014464638611812691,-0.04124354305877639]","[-1,-1,-1]","[0.04069284657387798,-0.016145160917670532]","[1,1,1]","[0.10854549243290847,-0.054831156443505]","[-1,-1,-1]","[-0.16542950473948273,-0.08537284860336275]","[1,1,1]","[0.14756280059207774,-0.10051762942579356]","[-1,-1,-1]","[0.023183897641574847,0.1766746151831018]","[1,1,1]","[0.0764405115544987,-0.17459166914596186]","[-1,-1,-1]","[0.18111414101506465,-0.07086911990347036]","[-1,-1,-1]","[-0.08054485247542051,0.04286400057175408]","[-1,-1,-1]","[0.12177768087180303,0.12845883213846268]","[-1,-1,-1]","[-0.16366708371126248,0.0769835168016136]","[1,1,1]","[-0.13216530423785885,-0.036320010067793417]","[1,1,1]","[-0.0543311781561311,0.1375111629126093]","[1,1,1]","[-0.08682421492050979,-0.130827995427472]","[1,1,1]","[-0.17671283034216367,0.0008297650307754773]","[-1,-1,-1]","[0.06507332186368227,0.17376085771686736]","[-1,-1,-1]","[0.05367310690843148,0.11953786433013182]","[-1,-1,-1]","[0.17535524358339796,0.07645104771987278]","[1,1,1]","[0.11924903832939676,-0.0003922301897982596]","[-1,-1,-1]","[-0.06377861718716657,0.08906814473589132]","[1,1,1]","[-0.023965067924953995,0.10183651143459416]","[1,1,1]","[-0.0381744959036636,-0.07448412735070742]","[-1,-1,-1]","[0.07710635413104383,0.01731368939516796]","[1,1,1]","[-0.11488971816259957,0.07350825996283276]","[1,1,1]","[-0.13585391821372295,0.13748645716952926]","[-1,-1,-1]","[-0.03525838584945167,0.01717871195749848]","[-1,-1,-1]","[-0.13871704007506036,-0.12119072515838909]","[1,1,1]","[0.020693845564731358,0.08821855343826913]","[-1,-1,-1]","[0.023343906470656383,-0.055470748183079364]","[1,1,1]","[-0.02939496842666915,0.1704157955371914]","[-1,-1,-1]","[0.016687178839677585,0.028257306609745063]","[-1,-1,-1]","[0.02,0.02]",204.671,0,38,38,60,1,,,,,,,
,,,,,,,65fae23bd06ae76bcc297e8b,682f101c947a4705c371b6bd,2025-05-22_14h45.11.006,cuing_paradigm_dot,2024.1.5,Win32,59.52380952,682d573fa47f1360d1451895,,,,,,,,,,,204.673,205.1698,,,205.4212,206.1866,left,0.7506,,,,,,,,,0.6,,,,,,205.1699,205.4211,206.1867,"[0.12102098192168648,0.08937783234624311]","[-1,-1,-1]","[0.006484207282267601,-0.024865751987040295]","[1,1,1]","[0.014794473230591916,-0.0859661340301368]","[1,1,1]","[-0.1221814775514022,-0.033785486473157184]","[-1,-1,-1]","[-0.12159778322282953,0.10677220467501485]","[-1,-1,-1]","[0.17948732581272414,-0.004403943007153956]","[-1,-1,-1]","[0.1807748124849012,0.04067146312309006]","[1,1,1]","[-0.1604757979959394,-0.07160681713768668]","[-1,-1,-1]","[0.1332043662730787,-0.001154332562350641]","[-1,-1,-1]","[-0.18378623353818754,-0.030799083393541385]","[1,1,1]","[-0.1080041017671738,-0.11651845655580724]","[1,1,1]","[0.06472083792106713,-0.09174023874063097]","[1,1,1]","[0.05931125993154991,0.1384793617899215]","[-1,-1,-1]","[-0.03285493511354434,0.018886996914453794]","[1,1,1]","[0.07914538701171593,-0.17605678311021683]","[1,1,1]","[-0.09113520870749386,-0.06462393025309988]","[-1,-1,-1]","[0.05264362337483944,0.19256820457475451]","[1,1,1]","[-0.01184282274557199,0.19844249791784516]","[1,1,1]","[-0.11205015105188104,0.00858745432148312]","[1,1,1]","[0.13688267463283613,0.13684790981745326]","[1,1,1]","[0.018260915808474505,0.0272982856786244]","[-1,-1,-1]","[-0.051045961474673926,0.1520321729856231]","[1,1,1]","[0.06594190272846662,0.08460593313379797]","[-1,-1,-1]","[-0.07674491027789439,0.09901803817278751]","[-1,-1,-1]","[0.15210947579183623,-0.11452178912446545]","[1,1,1]","[0.1258364766959066,-0.08336811080653815]","[1,1,1]","[0.08630288187323962,-0.021952049748272105]","[1,1,1]","[-0.18072449952106875,0.08236923728994948]","[1,1,1]","[-0.025857051018275807,-0.1772936696987684]","[-1,-1,-1]","[0.07673355551524845,-0.13079128525640688]","[1,1,1]","[0.10358949281437219,0.043055652720404146]","[1,1,1]","[-0.025087739703440616,-0.11585922888620391]","[-1,-1,-1]","[0.02,0.02]",207.2872,0,39,39,169,1,,,,,,,
,,,,,,,65fae23bd06ae76bcc297e8b,682f101c947a4705c371b6bd,2025-05-22_14h45.11.006,cuing_paradigm_dot,2024.1.5,Win32,59.52380952,682d573fa47f1360d1451895,,,,,,,,,,,207.2881,207.7875,,,208.0393,209.0214,right,0.9717,,,,,,,,,0.1,,,,,,207.7876,208.0392,209.0214,"[-0.1654010343635663,-0.005158115578898798]","[-1,-1,-1]","[-0.006584357350132598,-0.1692875200215546]","[-1,-1,-1]","[0.10064988253962201,0.010426756641271335]","[-1,-1,-1]","[-0.09815123055849882,0.07476899362085761]","[-1,-1,-1]","[0.08664804852318182,-0.09757953406614597]","[-1,-1,-1]","[0.062162939196107915,-0.1450960117822023]","[-1,-1,-1]","[-0.07521800972897148,0.13235891453411905]","[1,1,1]","[-0.061080629586489264,-0.1310659669690725]","[-1,-1,-1]","[0.03292691910496209,-0.11432795476359152]","[-1,-1,-1]","[0.15911970434937234,-0.0330813506048769]","[-1,-1,-1]","[-0.16720959245807332,-0.08450774564148375]","[-1,-1,-1]","[-0.048343391968769814,0.0026372102792650578]","[-1,-1,-1]","[0.06556891692357937,0.12238491649587653]","[-1,-1,-1]","[-0.0649478680761545,-0.07873992935711625]","[-1,-1,-1]","[-0.13952202685384935,0.06362108661212627]","[-1,-1,-1]","[0.015777806733561415,0.19552701508586193]","[1,1,1]","[0.19637240721319016,0.032678939774341484]","[-1,-1,-1]","[0.015339972310259978,0.12205799596902045]","[-1,-1,-1]","[0.0420904892693812,-0.06263436551093127]","[-1,-1,-1]","[0.14920604189756315,0.10676643275308277]","[-1,-1,-1]","[-0.1162718302805023,0.017513636231487516]","[-1,-1,-1]","[0.14096114513472593,0.047346481847130965]","[1,1,1]","[-0.1730521586091754,0.09091266622399975]","[-1,-1,-1]","[0.009755859798182796,0.02303545038581395]","[-1,-1,-1]","[-0.0058421912507381,-0.07368680817756829]","[-1,-1,-1]","[0.06961324772466713,-0.030721310488798503]","[-1,-1,-1]","[0.08816424790172539,0.07523499691833259]","[-1,-1,-1]","[0.05057663327867781,0.16354476813518773]","[-1,-1,-1]","[-0.029334783709898466,0.17563416340672514]","[-1,-1,-1]","[-0.023452483300985524,0.08148120150795786]","[-1,-1,-1]","[-0.12246020069974575,0.12393562995150467]","[-1,-1,-1]","[0.02589172137966354,-0.19748546423521274]","[-1,-1,-1]","[0.02,0.02]",210.1217,0,40,40,23,1,,,,,,,
,,,,,,,65fae23bd06ae76bcc297e8b,682f101c947a4705c371b6bd,2025-05-22_14h45.11.006,cuing_paradigm_dot,2024.1.5,Win32,59.52380952,682d573fa47f1360d1451895,,,,,,,,,,,210.123,210.6223,,,210.8725,211.3727,left,0.4848,,,,,,,,,0.9,,,,,,210.6223,210.8725,211.3727,"[-0.15615491625400818,0.1145408591172832]","[1,1,1]","[0.0942984481559278,0.15195341391424172]","[1,1,1]","[0.14219278563049206,-0.01629077387779775]","[1,1,1]","[0.13335330404470294,0.06201109578627156]","[1,1,1]","[0.09881155270178532,-0.14653282482592214]","[-1,-1,-1]","[-0.0772466138461377,-0.18009746804450674]","[1,1,1]","[0.03956453257927713,0.14140870601254982]","[-1,-1,-1]","[-0.14574370351118643,0.02862036261841892]","[1,1,1]","[0.0030140151095862963,0.09699165147719467]","[1,1,1]","[0.03852688105110445,0.07667790011756456]","[1,1,1]","[-0.07067599423274797,0.009416220308671343]","[1,1,1]","[0.1017128570849982,-0.06802212814243139]","[1,1,1]","[-0.05014083915161683,-0.08312462329820187]","[-1,-1,-1]","[0.17738977566418831,0.018625914395921893]","[1,1,1]","[-0.1855687217495237,0.019385084481394976]","[1,1,1]","[-0.1043189410755011,-0.06035127366465372]","[1,1,1]","[0.01562003078020002,-0.0015730139573868292]","[1,1,1]","[0.060961208910210174,-0.06251059854146836]","[1,1,1]","[-0.1471654312127648,-0.06545106165146637]","[1,1,1]","[-0.0591627681750788,0.13682763923435298]","[1,1,1]","[-0.0011506053021096965,-0.16159109099182806]","[1,1,1]","[0.15272170118430928,0.12232712551024831]","[1,1,1]","[0.005044779089949225,-0.10270809348958972]","[1,1,1]","[0.08903196506670659,-0.019748320205986637]","[1,1,1]","[0.14626298019172596,-0.10532332904827806]","[1,1,1]","[-0.04705171701053996,0.08911321645911319]","[1,1,1]","[-0.0871179098093352,0.049919899852327684]","[1,1,1]","[0.04096224534593819,-0.17891152224623036]","[1,1,1]","[-0.1048413231521016,-0.14598789387425068]","[1,1,1]","[-0.17186833038076615,-0.025677083620399662]","[1,1,1]","[-0.11945513174490342,0.15647607430167199]","[1,1,1]","[-0.051470880508750524,0.1805164217442531]","[1,1,1]","[0.02,0.02]",212.4725,0,41,41,190,1,,,,,,,
,,,,,,,65fae23bd06ae76bcc297e8b,682f101c947a4705c371b6bd,2025-05-22_14h45.11.006,cuing_paradigm_dot,2024.1.5,Win32,59.52380952,682d573fa47f1360d1451895,,,,,,,,,,,212.4732,212.9728,,,213.2237,213.9405,right,0.7055,,,,,,,,,0.1,,,,,,212.9729,213.2237,213.9406,"[-0.07116597541820871,0.09494987447182554]","[-1,-1,-1]","[-0.02079565849610929,-0.07714985436280225]","[-1,-1,-1]","[0.021842487396490026,0.12991689648720073]","[-1,-1,-1]","[0.17784162675881351,-0.08930849438142754]","[-1,-1,-1]","[0.05192910649529793,0.07418457530161382]","[-1,-1,-1]","[-0.16934144735773773,-0.003534766701589938]","[-1,-1,-1]","[0.1904702845155951,0.020001534957684947]","[-1,-1,-1]","[-0.11519968184456543,0.05147667779699465]","[-1,-1,-1]","[0.14586066310729942,0.05061754583192167]","[-1,-1,-1]","[-0.03470200767408195,-0.026258856018759054]","[-1,-1,-1]","[0.11872307663462235,-0.1315626181372806]","[-1,-1,-1]","[-0.07840818056405098,-0.016095983352854306]","[-1,-1,-1]","[-0.16545384950900566,-0.06622914769035206]","[-1,-1,-1]","[0.06366241075286105,0.14806308086304093]","[-1,-1,-1]","[-0.02754554625705497,0.11765707774329419]","[-1,-1,-1]","[0.0952842522922691,0.05308735131451815]","[-1,-1,-1]","[0.04157614242751581,-0.12399205336272279]","[-1,-1,-1]","[0.04001855824743764,-0.17619352277633418]","[-1,-1,-1]","[0.1063285931883809,-0.07464635031088823]","[-1,-1,-1]","[-0.013539251976874873,-0.18408748568911354]","[-1,-1,-1]","[0.08475721269390796,-0.00673096784659119]","[-1,-1,-1]","[-0.013402172138835594,0.01190324430602086]","[-1,-1,-1]","[-0.08500754239960077,-0.09809050944684966]","[1,1,1]","[0.14701143369985464,0.09393304973486517]","[-1,-1,-1]","[0.0298856646325574,0.19576405969829572]","[-1,-1,-1]","[-0.15076163591137004,0.11418004438113749]","[-1,-1,-1]","[0.09512102417214363,0.11247791450496696]","[1,1,1]","[0.12012215338373657,0.017602356575091915]","[1,1,1]","[0.06225989837724262,-0.07303239518259198]","[-1,-1,-1]","[-0.03653376312579463,0.171845612337274]","[-1,-1,-1]","[-0.07346674484529371,0.036175399697620035]","[-1,-1,-1]","[-0.1110714377423261,0.1507174278245609]","[-1,-1,-1]","[0.02,0.02]",215.0408,0,42,42,12,1,,,,,,,
,,,,,,,65fae23bd06ae76bcc297e8b,682f101c947a4705c371b6bd,2025-05-22_14h45.11.006,cuing_paradigm_dot,2024.1.5,Win32,59.52380952,682d573fa47f1360d1451895,,,,,,,,,,,215.0413,215.5419,,,215.7918,216.4596,right,0.6541,,,,,,,,,0.1,,,,,,215.542,215.7917,216.4598,"[0.022904327405117268,-0.12757948145399556]","[-1,-1,-1]","[0.15557774492382212,0.11426938028905398]","[-1,-1,-1]","[-0.01690537607718114,0.031792781327213415]","[-1,-1,-1]","[0.08495009289550205,-0.06438722881327952]","[-1,-1,-1]","[-0.032647855328987174,-0.1575048076747696]","[-1,-1,-1]","[0.09263677441312544,0.10746515665669706]","[-1,-1,-1]","[0.07537792709927356,0.003199653223215072]","[-1,-1,-1]","[-0.03078529935975739,0.14113266355829596]","[-1,-1,-1]","[0.04025538332507748,0.13226116132343171]","[-1,-1,-1]","[0.1135576909532482,0.043932417794258334]","[-1,-1,-1]","[-0.11632567148604783,0.09239307405816999]","[-1,-1,-1]","[-0.07261871661508158,0.021441762242620968]","[1,1,1]","[-0.004621591080073877,0.17999436226981655]","[-1,-1,-1]","[-0.08546844547650374,0.1407052717773683]","[-1,-1,-1]","[-0.049100706759632025,0.0763286897723092]","[-1,-1,-1]","[-0.14334778807359813,0.12352877199290797]","[-1,-1,-1]","[-0.038215068045305556,-0.041716384631543396]","[-1,-1,-1]","[0.056193598929258626,0.052674780453545456]","[-1,-1,-1]","[-0.11700973082213674,-0.11437241026984941]","[1,1,1]","[0.07718920119067182,-0.18154669546513313]","[-1,-1,-1]","[-0.18627328298552065,-0.05585028702343074]","[-1,-1,-1]","[-0.00914393387666477,-0.07243371335180841]","[1,1,1]","[0.020873650119503612,0.0914780234485345]","[-1,-1,-1]","[0.12041164803656808,-0.0945057794641165]","[-1,-1,-1]","[-0.050179324244942085,-0.10915142797441697]","[-1,-1,-1]","[-0.0846042394757673,-0.01815962397549378]","[-1,-1,-1]","[-0.1618248017860585,0.031672726005950384]","[-1,-1,-1]","[-0.12032332493729797,-0.057782142588111936]","[-1,-1,-1]","[0.06375059833271525,0.173875884341401]","[-1,-1,-1]","[-0.05374835612711733,0.1837575075642305]","[-1,-1,-1]","[0.024383434837440144,0.02675256315746984]","[-1,-1,-1]","[0.16064810301275204,-0.01767275358136952]","[-1,-1,-1]","[0.02,0.02]",217.5587,0,43,43,1,1,,,,,,,
,,,,,,,65fae23bd06ae76bcc297e8b,682f101c947a4705c371b6bd,2025-05-22_14h45.11.006,cuing_paradigm_dot,2024.1.5,Win32,59.52380952,682d573fa47f1360d1451895,,,,,,,,,,,217.5594,218.0588,,,218.3094,219.1935,left,0.8725,,,,,,,,,0.45,,,,,,218.0588,218.3094,219.1939,"[0.04106884544429525,0.16534908448296481]","[1,1,1]","[-0.09730984499814634,0.08617732411604069]","[-1,-1,-1]","[-0.04480618554142414,0.09477062967821702]","[-1,-1,-1]","[0.05088680833338946,0.02089597023228137]","[-1,-1,-1]","[0.04554873868082929,0.07552268850619773]","[-1,-1,-1]","[-0.13250840920350299,-0.11790393763713941]","[1,1,1]","[-0.18182471757965174,0.041346682322322935]","[1,1,1]","[0.07678545195112665,-0.1782533999227671]","[-1,-1,-1]","[-0.14251483262466533,0.12071343812326228]","[-1,-1,-1]","[0.1078319519821929,0.059918193929129705]","[-1,-1,-1]","[0.09369568807382483,0.09985262771342111]","[-1,-1,-1]","[-0.06963254204633894,-0.16841494545789287]","[1,1,1]","[0.15468471699050118,-0.056009890346222134]","[1,1,1]","[0.07433654406113695,-0.0408014226840366]","[-1,-1,-1]","[-0.06742125316714875,0.0019274565950258744]","[1,1,1]","[-0.1638103669704278,-0.009799095845922787]","[1,1,1]","[-0.12412928615097744,-0.028577160367886288]","[-1,-1,-1]","[0.05176545130041825,-0.08765944907649814]","[1,1,1]","[0.1633401540487316,0.011494497994214712]","[-1,-1,-1]","[-0.14890224149000436,-0.08043274931208659]","[-1,-1,-1]","[0.0026682462867988763,-0.07622448270331258]","[1,1,1]","[0.10258280589628309,0.010690515471215668]","[-1,-1,-1]","[-0.0014272558665344279,-0.161145965611499]","[-1,-1,-1]","[-0.17896183412351238,0.08600998457800398]","[-1,-1,-1]","[0.004460401550245716,0.08187483366957432]","[1,1,1]","[-0.08438096564394403,-0.05433001691477819]","[-1,-1,-1]","[0.1637784563403796,-0.10798820571595513]","[1,1,1]","[-0.04941286879934682,0.15823614930024288]","[1,1,1]","[0.09275403370898286,-0.12080632615196853]","[1,1,1]","[0.09480090558239412,-0.07557578531941352]","[-1,-1,-1]","[-0.03709599590789616,-0.1303970614190433]","[-1,-1,-1]","[0.005058494393546643,-0.022422780046119875]","[1,1,1]","[0.02,0.02]",220.2929,0,44,44,70,1,,,,,,,
