right,left,explain.started,explain.stopped,key_resp_3.keys,key_resp_3.rt,key_resp_3.duration,participant,session,date,expName,psychopyVersion,OS,frameRate,study_id,explain_2.started,explain_2.stopped,key_resp_4.keys,key_resp_4.rt,key_resp_4.duration,explain_3.started,explain_3.stopped,key_resp_5.keys,key_resp_5.rt,key_resp_5.duration,fixation.started,fixation.stopped,practice.started,practice.stopped,response.started,response.stopped,key_resp.keys,feedback.started,feedback.stopped,trials_2.thisRepN,trials_2.thisTrialN,trials_2.thisN,trials_2.thisIndex,trials_2.ran,white_ratio,key_resp.rt,key_resp.duration,explain_4.started,explain_4.stopped,key_resp_6.keys,key_resp_6.rt,key_resp_6.duration,dotDisplay.started,dotDisplay.stopped,ITI.started,polygon_1.pos,polygon_1.color,polygon_2.pos,polygon_2.color,polygon_3.pos,polygon_3.color,polygon_4.pos,polygon_4.color,polygon_5.pos,polygon_5.color,polygon_6.pos,polygon_6.color,polygon_7.pos,polygon_7.color,polygon_8.pos,polygon_8.color,polygon_9.pos,polygon_9.color,polygon_10.pos,polygon_10.color,polygon_11.pos,polygon_11.color,polygon_12.pos,polygon_12.color,polygon_13.pos,polygon_13.color,polygon_14.pos,polygon_14.color,polygon_15.pos,polygon_15.color,polygon_16.pos,polygon_16.color,polygon_17.pos,polygon_17.color,polygon_18.pos,polygon_18.color,polygon_19.pos,polygon_19.color,polygon_20.pos,polygon_20.color,polygon_21.pos,polygon_21.color,polygon_22.pos,polygon_22.color,polygon_23.pos,polygon_23.color,polygon_24.pos,polygon_24.color,polygon_25.pos,polygon_25.color,polygon_26.pos,polygon_26.color,polygon_27.pos,polygon_27.color,polygon_28.pos,polygon_28.color,polygon_29.pos,polygon_29.color,polygon_30.pos,polygon_30.color,polygon_31.pos,polygon_31.color,polygon_32.pos,polygon_32.color,dot_size,ITI.stopped,trials.thisRepN,trials.thisTrialN,trials.thisN,trials.thisIndex,trials.ran,break_2.started,break_2.stopped,trials_3.thisRepN,trials_3.thisTrialN,trials_3.thisN,trials_3.thisIndex,trials_3.ran
subject chose black,subject chose white,0.0005,43.1552,space,28.141,,66031000461c44484ac359a8,682f0fb48d49f6a87dab403e,2025-05-22_14h51.48.513,cuing_paradigm_dot,2024.1.5,Win32,60.24096386,682d573fa47f1360d1451895,,,,,,,,,,,,,,,,,,,,,,,,,,,,,,,,,,,,,,,,,,,,,,,,,,,,,,,,,,,,,,,,,,,,,,,,,,,,,,,,,,,,,,,,,,,,,,,,,,,,,,,,,,,,,,,,,
,,,,,,,66031000461c44484ac359a8,682f0fb48d49f6a87dab403e,2025-05-22_14h51.48.513,cuing_paradigm_dot,2024.1.5,Win32,60.24096386,682d573fa47f1360d1451895,43.1558,74.5027,space,1.3347,,,,,,,,,,,,,,,,,,,,,,,,,,,,,,,,,,,,,,,,,,,,,,,,,,,,,,,,,,,,,,,,,,,,,,,,,,,,,,,,,,,,,,,,,,,,,,,,,,,,,,,,,,,,,
,,,,,,,66031000461c44484ac359a8,682f0fb48d49f6a87dab403e,2025-05-22_14h51.48.513,cuing_paradigm_dot,2024.1.5,Win32,60.24096386,682d573fa47f1360d1451895,,,,,,74.5028,79.0514,space,1.5356,,,,,,,,,,,,,,,,,,,,,,,,,,,,,,,,,,,,,,,,,,,,,,,,,,,,,,,,,,,,,,,,,,,,,,,,,,,,,,,,,,,,,,,,,,,,,,,,,,,,,,,,
,,,,,,,66031000461c44484ac359a8,682f0fb48d49f6a87dab403e,2025-05-22_14h51.48.513,cuing_paradigm_dot,2024.1.5,Win32,60.24096386,682d573fa47f1360d1451895,,,,,,,,,,,79.0914,79.5615,79.5619,79.812,79.8122,81.3112,,81.3115,82.4114,0,0,0,0,1,0.8,,,,,,,,,,,,,,,,,,,,,,,,,,,,,,,,,,,,,,,,,,,,,,,,,,,,,,,,,,,,,,,,,,,,,,,,,,,,,,,,,,,,,,,,
,,,,,,,66031000461c44484ac359a8,682f0fb48d49f6a87dab403e,2025-05-22_14h51.48.513,cuing_paradigm_dot,2024.1.5,Win32,60.24096386,682d573fa47f1360d1451895,,,,,,,,,,,82.4125,82.911,82.9111,83.1618,83.1619,83.6112,right,83.6114,84.7105,0,1,1,1,1,0.2,0.4255,,,,,,,,,,,,,,,,,,,,,,,,,,,,,,,,,,,,,,,,,,,,,,,,,,,,,,,,,,,,,,,,,,,,,,,,,,,,,,,,,,,,,,,
,,,,,,,66031000461c44484ac359a8,682f0fb48d49f6a87dab403e,2025-05-22_14h51.48.513,cuing_paradigm_dot,2024.1.5,Win32,60.24096386,682d573fa47f1360d1451895,,,,,,,,,,,,,,,,,,,,,,,,,,,,84.7112,89.2442,space,1.5142,,,,,,,,,,,,,,,,,,,,,,,,,,,,,,,,,,,,,,,,,,,,,,,,,,,,,,,,,,,,,,,,,,,,,,,,,,,,,,,,,,
,,,,,,,66031000461c44484ac359a8,682f0fb48d49f6a87dab403e,2025-05-22_14h51.48.513,cuing_paradigm_dot,2024.1.5,Win32,60.24096386,682d573fa47f1360d1451895,,,,,,,,,,,89.2809,89.7599,,,90.0144,90.5939,left,,,,,,,,0.5,0.5543,,,,,,,89.7604,90.0144,90.5951,"[0.0014938443928189703,-0.14259885719958615]","[1,1,1]","[0.1745577031218854,0.08827013388190816]","[1,1,1]","[-0.1477418324347595,-0.11099676679562338]","[-1,-1,-1]","[0.10882936471476481,0.010359100833459431]","[-1,-1,-1]","[-0.12175074315946015,-0.15235940347203167]","[-1,-1,-1]","[-0.166149016444008,0.06639887371120472]","[1,1,1]","[0.017103967413202494,0.06740065557265794]","[1,1,1]","[0.10353411014774831,0.15801670206565385]","[-1,-1,-1]","[0.15573518018215912,0.0422782241896877]","[1,1,1]","[0.05706592947566049,0.04858924738972644]","[1,1,1]","[-0.1834840770524931,-0.045040926583362624]","[1,1,1]","[-0.049624209781410356,-0.03046724329049247]","[-1,-1,-1]","[0.04270776147231152,-0.05703338176208015]","[-1,-1,-1]","[-0.07983846245498763,-0.10157623463477504]","[-1,-1,-1]","[-0.014236352389192424,0.14106672845180857]","[1,1,1]","[0.06407641145022443,-0.012729194000554]","[1,1,1]","[0.1671953657923228,-0.08294865620593346]","[-1,-1,-1]","[-0.11450691543542717,-0.010777469153721256]","[-1,-1,-1]","[0.07740793549222297,-0.14065300949790954]","[1,1,1]","[0.04633424181378953,0.1627454470622021]","[1,1,1]","[-0.05810860986419452,0.12433143667450636]","[1,1,1]","[0.10867153341509585,-0.10089160081652185]","[-1,-1,-1]","[-0.05685480730190763,-0.1547629254784204]","[1,1,1]","[-0.12086417126540747,0.04794871065316118]","[1,1,1]","[-0.16775788637530492,0.002871857249053321]","[1,1,1]","[-0.02890805424407486,0.046418675730099224]","[-1,-1,-1]","[0.008930787166088545,0.02444351336714702]","[-1,-1,-1]","[-0.0048688210184023775,-0.03128810960216325]","[-1,-1,-1]","[-0.028177759715250616,-0.11239048840817091]","[-1,-1,-1]","[0.049620647898521525,-0.1021900444352262]","[1,1,1]","[-0.10524016425936764,0.1471145392914722]","[-1,-1,-1]","[0.06323122234880357,0.10309396647330715]","[-1,-1,-1]","[0.02,0.02]",91.6931,0,0,0,111,1,,,,,,,
,,,,,,,66031000461c44484ac359a8,682f0fb48d49f6a87dab403e,2025-05-22_14h51.48.513,cuing_paradigm_dot,2024.1.5,Win32,60.24096386,682d573fa47f1360d1451895,,,,,,,,,,,91.6941,92.1929,,,92.4467,92.9963,left,,,,,,,,0.55,0.5331,,,,,,,92.1929,92.4466,92.9963,"[-0.15669060769646606,0.10720026412672516]","[1,1,1]","[-0.09520877547425542,-0.10715868738317127]","[-1,-1,-1]","[0.10121237138397428,0.14962421316960098]","[-1,-1,-1]","[0.009660731630675398,-0.023779576166556064]","[1,1,1]","[-0.09923030080807863,0.06242884943110749]","[1,1,1]","[0.08707344202211159,-0.009628096624121585]","[1,1,1]","[-0.006839592840403148,-0.07883374201707484]","[1,1,1]","[0.0727576799455957,-0.048774382010568045]","[1,1,1]","[0.12697022346756084,-0.05574051419496087]","[1,1,1]","[0.04321784030525346,0.0780525003775978]","[1,1,1]","[-0.09340961198005861,-0.1502838012722962]","[-1,-1,-1]","[-0.09858390077938549,0.14018296702468452]","[-1,-1,-1]","[0.13311547991508235,0.0811377275365714]","[-1,-1,-1]","[-0.06124146067101481,-0.04220334147922864]","[-1,-1,-1]","[0.12560886900131193,0.011466991884374608]","[1,1,1]","[-0.006700743672955696,0.04090325257820209]","[1,1,1]","[0.16438019186034353,0.04668201292337606]","[1,1,1]","[0.06081022101798237,0.0278163853941935]","[-1,-1,-1]","[-0.09009635729511824,0.00880201728524582]","[1,1,1]","[-0.0035201394334120895,0.1947503642919815]","[1,1,1]","[-0.14171310624490616,-0.06557015219956168]","[1,1,1]","[0.1141116921171672,-0.11788408135201463]","[-1,-1,-1]","[-0.01797993820071716,0.09866729683987724]","[-1,-1,-1]","[-0.13349548561478775,0.002303329440141398]","[1,1,1]","[-0.09472191931701916,-0.06490393810904942]","[-1,-1,-1]","[-0.028469300550189584,-0.011372533194881108]","[-1,-1,-1]","[0.16911307400048978,-0.09293239604256523]","[1,1,1]","[0.17100633702402973,-0.04196556145254865]","[1,1,1]","[-0.0424898562295507,0.06460751828947836]","[-1,-1,-1]","[0.08405892754797913,-0.17114627965462303]","[-1,-1,-1]","[0.19821994417316488,0.0091524886538615]","[1,1,1]","[-0.03718822873834478,-0.11621493803846322]","[-1,-1,-1]","[0.02,0.02]",94.0928,0,1,1,120,1,,,,,,,
,,,,,,,66031000461c44484ac359a8,682f0fb48d49f6a87dab403e,2025-05-22_14h51.48.513,cuing_paradigm_dot,2024.1.5,Win32,60.24096386,682d573fa47f1360d1451895,,,,,,,,,,,94.0937,94.5929,,,94.8436,95.5261,right,,,,,,,,0.45,0.6586,,,,,,,94.593,94.8436,95.5262,"[0.08929267284825418,-0.09386655655029767]","[1,1,1]","[0.19328279536208842,-0.051023251971199335]","[1,1,1]","[-0.10861730578991653,-0.11832658998667911]","[-1,-1,-1]","[-0.15038834564119216,0.04434886208814217]","[-1,-1,-1]","[-0.04851705597577581,0.11080356010679433]","[-1,-1,-1]","[-0.005723776752279533,-0.10929714478230626]","[1,1,1]","[0.04832927433857247,0.0601323643020896]","[-1,-1,-1]","[-0.0034979532581625493,0.15404070991013774]","[1,1,1]","[-0.022351150583577773,-0.03418278567453118]","[-1,-1,-1]","[0.11277194536813924,-0.15479854496036377]","[1,1,1]","[0.03728537948452059,0.13856158478122452]","[1,1,1]","[0.12197978878361998,-0.060911313717954337]","[-1,-1,-1]","[0.14305389100532553,-0.01576676054611347]","[-1,-1,-1]","[0.08188646439810732,-0.04944755663593714]","[-1,-1,-1]","[0.17959862930625117,0.052984275114114215]","[1,1,1]","[-0.14811998533068424,-0.04693043340177]","[-1,-1,-1]","[0.08617239664581364,0.1730616567774928]","[-1,-1,-1]","[-0.06201523502749888,0.06367010346318781]","[-1,-1,-1]","[0.04588732734515429,-0.006351874333968432]","[-1,-1,-1]","[0.0617302419988658,-0.17782730132961697]","[-1,-1,-1]","[0.017170308909896015,-0.17671997027661437]","[-1,-1,-1]","[-0.11822080198310024,-0.0133281249310776]","[1,1,1]","[-0.11208101415687896,-0.0746239721883073]","[-1,-1,-1]","[0.022178004868794513,0.09971061893793366]","[-1,-1,-1]","[-0.06320064044540318,-0.019610283962201627]","[1,1,1]","[0.14204698685203332,-0.11810900384565808]","[1,1,1]","[-0.04814883146045928,-0.1939815982868815]","[-1,-1,-1]","[-0.0471072972896716,-0.11418265848197948]","[1,1,1]","[-0.10356052538838184,0.10555144870744179]","[-1,-1,-1]","[-0.029582957699777836,0.012527021046124907]","[1,1,1]","[0.08671157475793803,0.1103011683998032]","[1,1,1]","[-0.04245801881428813,0.19392750568373981]","[1,1,1]","[0.02,0.02]",96.6257,0,2,2,75,1,,,,,,,
,,,,,,,66031000461c44484ac359a8,682f0fb48d49f6a87dab403e,2025-05-22_14h51.48.513,cuing_paradigm_dot,2024.1.5,Win32,60.24096386,682d573fa47f1360d1451895,,,,,,,,,,,96.6263,97.1258,,,97.3794,97.861,right,,,,,,,,0.45,0.4555,,,,,,,97.126,97.3792,97.8611,"[0.17986973217138227,-0.06308168743680005]","[1,1,1]","[-0.051932503863124854,0.04047337721274933]","[1,1,1]","[-0.023352950771969333,-0.09898962499420133]","[1,1,1]","[-0.03008312856615363,-0.13994010016323746]","[-1,-1,-1]","[0.1525551881860466,-0.0933078308612687]","[1,1,1]","[0.013409954028995417,0.08609606335238118]","[-1,-1,-1]","[0.13983454915610427,0.09681626890384777]","[-1,-1,-1]","[0.006633150940683957,-0.011033305078818393]","[-1,-1,-1]","[-0.08050480523232392,-0.1308196701775353]","[-1,-1,-1]","[-0.023958719498392043,-0.18890983873206482]","[-1,-1,-1]","[-0.07094140445868838,-0.17749313077965215]","[1,1,1]","[-0.17337730321579028,-0.08966170518276471]","[-1,-1,-1]","[0.04338861152126058,-0.18716290732497082]","[-1,-1,-1]","[-0.11280656839567069,-0.0533726855741246]","[-1,-1,-1]","[0.12769507025477647,-0.05493383214183082]","[1,1,1]","[0.10528735386455979,0.03452771175537487]","[-1,-1,-1]","[0.14208815685740556,-0.00018651746288831378]","[1,1,1]","[-0.061064315608984863,0.18067105571425307]","[1,1,1]","[0.011538556219544003,0.029909011510275557]","[-1,-1,-1]","[0.18424457867479754,0.01560223963187157]","[-1,-1,-1]","[-0.1518639728557266,0.02832347679684631]","[-1,-1,-1]","[0.01995910765015144,-0.11905308141285594]","[-1,-1,-1]","[0.08502563109010498,-0.17611812752706102]","[-1,-1,-1]","[0.06521373694312314,0.16942076778225315]","[1,1,1]","[0.08569700417930758,-0.054515770698467934]","[1,1,1]","[-0.041917772042463504,0.13217551992272425]","[1,1,1]","[-0.07913515257711669,-0.07534502764442466]","[-1,-1,-1]","[0.08284884192207792,0.13023427967715828]","[1,1,1]","[0.0021042027024716302,-0.05404861377517756]","[-1,-1,-1]","[0.07808794021769273,-0.12175020238570254]","[1,1,1]","[-0.11838159513955744,0.05880641578498656]","[-1,-1,-1]","[-0.13726268472035333,0.13395311481101765]","[1,1,1]","[0.02,0.02]",98.9588,0,3,3,67,1,,,,,,,
,,,,,,,66031000461c44484ac359a8,682f0fb48d49f6a87dab403e,2025-05-22_14h51.48.513,cuing_paradigm_dot,2024.1.5,Win32,60.24096386,682d573fa47f1360d1451895,,,,,,,,,,,98.9595,99.4588,,,99.7123,100.1592,left,,,,,,,,0.6,0.425,,,,,,,99.4589,99.7122,100.1593,"[0.1376948845383088,0.09022227718635094]","[1,1,1]","[-0.13251599246456192,0.08967659144171439]","[-1,-1,-1]","[0.03644507294325401,-0.03959193340717021]","[1,1,1]","[-0.045959289773697,-0.1080363137227638]","[1,1,1]","[0.1321352769013473,0.0494525730552132]","[-1,-1,-1]","[0.06799012683251925,0.028436153084301048]","[1,1,1]","[0.0330286758331647,-0.18275592936552548]","[-1,-1,-1]","[-0.04976324926965799,0.09068994868011777]","[-1,-1,-1]","[-0.07083063908433736,-0.15928653396289277]","[1,1,1]","[0.06679233345927095,-0.09285903948708107]","[-1,-1,-1]","[0.04679275706397041,0.13057733439330743]","[-1,-1,-1]","[-0.011911124947164224,0.14720521585573362]","[1,1,1]","[0.020183890732034544,0.06603093901859944]","[1,1,1]","[0.10810202093333843,-0.12103689232546726]","[-1,-1,-1]","[-0.13614316991573647,-0.01541571856960282]","[-1,-1,-1]","[-0.1766619454038191,0.055901367572786125]","[1,1,1]","[-0.15987645733676772,-0.0666023028828874]","[1,1,1]","[-0.06980796596356727,0.1699438494497567]","[1,1,1]","[0.005581779887556554,0.1984104946502134]","[-1,-1,-1]","[-0.0963595815376402,0.13082973497436176]","[1,1,1]","[-0.08876637094674165,0.020456977615113656]","[1,1,1]","[-0.11221521553129228,-0.15810548078680245]","[1,1,1]","[0.16978243323967307,-0.04494253897874501]","[1,1,1]","[-0.14228190612785063,-0.11267929300494603]","[-1,-1,-1]","[-0.13148318057080513,0.043083015813568895]","[1,1,1]","[0.019021703171615802,-0.1446260066934889]","[1,1,1]","[0.07215271586119774,0.083092740973888]","[-1,-1,-1]","[0.10688005549661214,0.00803064745007232]","[1,1,1]","[-0.08633548094637904,-0.05519672692879785]","[-1,-1,-1]","[-0.02176576967639925,-0.00984053470291791]","[1,1,1]","[0.007919229550402005,0.022261924886412036]","[-1,-1,-1]","[0.11163405046328356,0.16112596056717446]","[1,1,1]","[0.02,0.02]",101.2586,0,4,4,174,1,,,,,,,
,,,,,,,66031000461c44484ac359a8,682f0fb48d49f6a87dab403e,2025-05-22_14h51.48.513,cuing_paradigm_dot,2024.1.5,Win32,60.24096386,682d573fa47f1360d1451895,,,,,,,,,,,101.2596,101.7583,,,102.0112,102.2097,right,,,,,,,,0.5,0.1807,,,,,,,101.7583,102.0112,102.2098,"[-0.024564771838317657,0.09661194162273593]","[1,1,1]","[0.07245403621474795,0.16015968022138707]","[1,1,1]","[0.032852717136674564,0.12002230641344674]","[1,1,1]","[0.12549124966688915,0.054050193244447264]","[-1,-1,-1]","[0.0645448741181658,-0.1204746687140674]","[-1,-1,-1]","[0.0461202033768361,-0.0169452733497644]","[-1,-1,-1]","[0.056235092725418864,0.05696342315448845]","[-1,-1,-1]","[-0.06464086517729743,0.18628427253100727]","[-1,-1,-1]","[-0.04716043911189664,-0.12634962034144914]","[-1,-1,-1]","[0.0030014852864412977,-0.10120387714229767]","[1,1,1]","[-0.16342519220399634,0.0976058258288593]","[-1,-1,-1]","[-0.03041691428367374,0.04192044453057267]","[1,1,1]","[0.17344509620980983,0.06632369280821977]","[1,1,1]","[-0.11567821192069483,0.07413105600515849]","[1,1,1]","[-0.1404567736093605,-0.04071510641340276]","[-1,-1,-1]","[-0.007240566958547013,-0.19048418477835036]","[1,1,1]","[0.14956446540113766,-0.10449491203614097]","[-1,-1,-1]","[0.17621150646334208,-0.01445778935501557]","[-1,-1,-1]","[-0.08317430286840581,-0.03854049800625659]","[1,1,1]","[-0.09384005724323041,-0.13133291333774516]","[-1,-1,-1]","[0.1471292028325438,0.10044396009868667]","[-1,-1,-1]","[0.11103704662827098,-0.11963322902461157]","[1,1,1]","[-0.18667573207528282,-0.059647413300221226]","[1,1,1]","[0.011505576880791875,0.009799202130945012]","[-1,-1,-1]","[-0.08042409698683917,-0.08192606981579448]","[1,1,1]","[-0.02075251322763709,-0.03706982177806543]","[1,1,1]","[-0.1781018208528109,-0.008653873049632475]","[-1,-1,-1]","[-0.08546707643040344,0.1386939953248141]","[1,1,1]","[-0.0706707647146875,-0.17830414832520794]","[-1,-1,-1]","[-0.06939138654593667,0.0953586504881429]","[-1,-1,-1]","[-0.013777884316654365,0.1968165657969393]","[1,1,1]","[-0.08142917549662551,0.009558038333101367]","[1,1,1]","[0.02,0.02]",103.3081,0,5,5,95,1,,,,,,,
,,,,,,,66031000461c44484ac359a8,682f0fb48d49f6a87dab403e,2025-05-22_14h51.48.513,cuing_paradigm_dot,2024.1.5,Win32,60.24096386,682d573fa47f1360d1451895,,,,,,,,,,,103.3088,103.808,,,104.0586,104.4448,right,,,,,,,,0.5,0.3669,,,,,,,103.8081,104.0586,104.445,"[-0.05994341119442327,-0.00007463570091953732]","[1,1,1]","[0.022672107798970238,-0.09391977658997816]","[-1,-1,-1]","[-0.04804251528518756,0.07042873409090109]","[-1,-1,-1]","[0.014014891105012053,-0.014742340221858007]","[1,1,1]","[0.03082655864864585,0.05383567269864216]","[-1,-1,-1]","[-0.11446895767058646,-0.16375244924026894]","[1,1,1]","[0.1725559447484976,-0.09682144061527842]","[-1,-1,-1]","[0.1768083703434561,0.05197170811609015]","[1,1,1]","[0.07743523479817992,0.06334368689652202]","[1,1,1]","[-0.10693658438524005,0.07005330323372623]","[1,1,1]","[-0.03623886604613467,-0.1455458203635067]","[-1,-1,-1]","[0.09821053707860905,0.13533991005369575]","[1,1,1]","[0.125087363478799,-0.09092015715048607]","[-1,-1,-1]","[0.13850192888769416,0.09234151022821012]","[1,1,1]","[-0.05668421878747834,0.1751651318047775]","[-1,-1,-1]","[-0.16660717519616397,0.09818677233482508]","[1,1,1]","[-0.16057334150827665,-0.024259061099770777]","[-1,-1,-1]","[0.0810022131053579,-0.016407685253835784]","[1,1,1]","[-0.011717202789300083,0.044112065438991814]","[-1,-1,-1]","[-0.02690357713735174,-0.1913203739820844]","[1,1,1]","[-0.11999125849492671,-0.08406333395106912]","[-1,-1,-1]","[0.1090355862740432,-0.15892522194329584]","[1,1,1]","[-0.1824339760994066,0.05740261237391916]","[1,1,1]","[0.05154900175210813,0.09939025366003637]","[-1,-1,-1]","[-0.010741787567798231,0.12713224880829638]","[-1,-1,-1]","[0.15123789982162414,-0.04521006691579722]","[-1,-1,-1]","[-0.0882522763966003,-0.033137635217441785]","[-1,-1,-1]","[0.044873741699821244,-0.054732065897748566]","[1,1,1]","[0.14742384805695666,-0.12816890318817686]","[1,1,1]","[-0.05866967114844688,-0.10600759974441648]","[-1,-1,-1]","[-0.022308829269741936,-0.08817012260571337]","[1,1,1]","[0.09446489647339273,0.02209856343704393]","[-1,-1,-1]","[0.02,0.02]",105.5413,0,6,6,91,1,,,,,,,
,,,,,,,66031000461c44484ac359a8,682f0fb48d49f6a87dab403e,2025-05-22_14h51.48.513,cuing_paradigm_dot,2024.1.5,Win32,60.24096386,682d573fa47f1360d1451895,,,,,,,,,,,105.5419,106.0411,,,106.2948,106.5087,left,,,,,,,,0.6,0.1972,,,,,,,106.0411,106.2947,106.5088,"[0.028560394316194764,0.11685691771459691]","[1,1,1]","[-0.04352371692983158,-0.144816407794493]","[1,1,1]","[0.03903670943575964,0.02349851485369975]","[-1,-1,-1]","[0.08520126500910774,0.0021998488783826933]","[1,1,1]","[0.14985113145309867,-0.011532351592913312]","[1,1,1]","[-0.05514377055077753,0.06062883760853519]","[1,1,1]","[-0.15223020291693215,-0.07439597227567142]","[1,1,1]","[-0.059983365499141336,0.11233882175733577]","[-1,-1,-1]","[-0.028172958526107288,-0.006119692915263514]","[1,1,1]","[-0.17369798816724064,0.08834731243254063]","[1,1,1]","[0.00026641630033476254,-0.08866450188245102]","[1,1,1]","[-0.06155438883822696,0.1543606839896836]","[1,1,1]","[0.060046177902320565,0.18661347640395107]","[-1,-1,-1]","[-0.07398225341594544,-0.07102667485438968]","[-1,-1,-1]","[0.08883111360556012,-0.17465765702183236]","[-1,-1,-1]","[0.028262965119508352,0.0669097035093548]","[1,1,1]","[0.08810431091483684,-0.10752528999969095]","[-1,-1,-1]","[0.016423918207570328,-0.18640349656306648]","[1,1,1]","[-0.14958755856125291,-0.013196420915119841]","[-1,-1,-1]","[-0.0693823933670759,0.01910755139865165]","[-1,-1,-1]","[0.16141229888100045,-0.1045091030310939]","[1,1,1]","[0.18601192562563001,-0.03760139493579304]","[1,1,1]","[0.0962848907023275,0.07230552712541621]","[1,1,1]","[0.14374462464658563,0.1258595675075261]","[-1,-1,-1]","[0.16344773837503443,0.0355321144949062]","[1,1,1]","[0.10370524798122774,0.14081543558724838]","[-1,-1,-1]","[-0.03623987581162153,-0.1945317591293917]","[1,1,1]","[0.01948790112991313,0.1567822951182641]","[1,1,1]","[-0.10547249566282466,-0.019632428420114884]","[-1,-1,-1]","[0.0020782320838040208,0.19905135275026284]","[-1,-1,-1]","[-0.011797554120918216,0.12483702222092627]","[-1,-1,-1]","[0.04730539985003319,-0.06911589461137323]","[1,1,1]","[0.02,0.02]",107.6076,0,7,7,168,1,,,,,,,
,,,,,,,66031000461c44484ac359a8,682f0fb48d49f6a87dab403e,2025-05-22_14h51.48.513,cuing_paradigm_dot,2024.1.5,Win32,60.24096386,682d573fa47f1360d1451895,,,,,,,,,,,107.6081,108.1075,,,108.3606,109.2243,right,,,,,,,,0.5,0.8433,,,,,,,108.1075,108.3606,109.2244,"[-0.04440927349376986,0.18046594373782476]","[1,1,1]","[-0.10843560638800699,0.12476458376581494]","[1,1,1]","[-0.1127090042204209,-0.03241698104770596]","[-1,-1,-1]","[0.07151434038828468,-0.07368505206489456]","[1,1,1]","[-0.03804874872148131,-0.19244729687626103]","[-1,-1,-1]","[0.014238994418276082,-0.04322294323252008]","[-1,-1,-1]","[0.044940660305312484,-0.0008280159098193293]","[1,1,1]","[0.004486799222440122,0.08144226500297877]","[1,1,1]","[0.10293550439042881,0.12679511667816684]","[1,1,1]","[0.05938999819553201,0.08882712927142897]","[-1,-1,-1]","[-0.1868346334185034,-0.02087700874151497]","[-1,-1,-1]","[-0.0643062894544103,-0.07677284842353824]","[-1,-1,-1]","[0.1573910367236516,-0.10668054735564363]","[-1,-1,-1]","[-0.12803467803879343,0.08730364285784989]","[-1,-1,-1]","[0.030303909667354176,0.179414557396514]","[1,1,1]","[0.11620290806610582,0.05244208235328277]","[1,1,1]","[0.07325216144338861,-0.1305530850052105]","[1,1,1]","[0.19776060925065783,0.012283092275385977]","[-1,-1,-1]","[-0.14610295008661386,-0.11021693128176398]","[1,1,1]","[0.06998490709923513,0.15210105750258804]","[1,1,1]","[-0.08240956728541309,0.1617162926658834]","[-1,-1,-1]","[0.14733010611078276,0.02207261784804774]","[-1,-1,-1]","[0.1655696057326762,-0.047384562373850324]","[-1,-1,-1]","[0.11060265814221709,-0.052959454707603576]","[-1,-1,-1]","[-0.03784897312515853,-0.0287559128923461]","[-1,-1,-1]","[0.0382554974990016,-0.10258754254952172]","[1,1,1]","[-0.013624280344039846,0.13278371531073527]","[-1,-1,-1]","[-0.12470453877878152,0.01321618911939534]","[1,1,1]","[-0.0822246916334709,-0.14287287206946303]","[1,1,1]","[0.03827090035768821,-0.1806852876539982]","[1,1,1]","[0.17934184309926596,0.06158022805064452]","[1,1,1]","[0.1466319552569748,0.09695304148056581]","[-1,-1,-1]","[0.02,0.02]",110.3239,0,8,8,110,1,,,,,,,
,,,,,,,66031000461c44484ac359a8,682f0fb48d49f6a87dab403e,2025-05-22_14h51.48.513,cuing_paradigm_dot,2024.1.5,Win32,60.24096386,682d573fa47f1360d1451895,,,,,,,,,,,110.3244,110.8237,,,111.0764,111.5241,right,,,,,,,,0.1,0.4196,,,,,,,110.8238,111.0764,111.5243,"[-0.0549556277792351,-0.16075938621620162]","[-1,-1,-1]","[0.09599514246672014,0.15514562063217652]","[-1,-1,-1]","[-0.05841143464617591,0.1371044548511247]","[-1,-1,-1]","[-0.030915041895894176,0.18241541658652058]","[-1,-1,-1]","[0.025498239812305867,0.03507002270773461]","[-1,-1,-1]","[-0.07932191916995884,0.03455410615368601]","[-1,-1,-1]","[0.15412214739088873,0.06253525133266577]","[-1,-1,-1]","[-0.08415911215452013,0.09244669615942046]","[-1,-1,-1]","[0.14421693484682233,-0.06785837311954894]","[-1,-1,-1]","[0.03799321193535404,0.16436022289408145]","[-1,-1,-1]","[0.06262699983292003,0.07428900776116192]","[-1,-1,-1]","[-0.14093615830375483,-0.1149498612821695]","[-1,-1,-1]","[0.004983351194368639,-0.033778496905939745]","[-1,-1,-1]","[-0.19488054989821546,-0.007607844612211417]","[-1,-1,-1]","[-0.13349486971971963,-0.04251668693041906]","[-1,-1,-1]","[0.10546991667097246,-0.13489028838209852]","[-1,-1,-1]","[0.08314861628857147,0.0347246554020999]","[-1,-1,-1]","[-0.12801669185952022,0.05631834779367744]","[-1,-1,-1]","[0.16500718045081186,-0.10444628440419153]","[-1,-1,-1]","[-0.08177707112411958,-0.07608202691446769]","[1,1,1]","[-0.013430199722422997,0.013466255475762946]","[-1,-1,-1]","[0.15535459677216398,-0.025752609791802206]","[1,1,1]","[0.029214303462217133,-0.17119479453424066]","[-1,-1,-1]","[-0.05412694675730981,-0.02088500883926389]","[-1,-1,-1]","[-0.16747427200663362,0.07534898433218133]","[-1,-1,-1]","[-0.1941326298667874,0.04029064668562231]","[-1,-1,-1]","[0.0036424089593420526,-0.09611546696717939]","[-1,-1,-1]","[-0.12960274157371068,0.13686701867008677]","[1,1,1]","[0.06194038847123255,-0.08763654433590948]","[-1,-1,-1]","[0.0895177944186224,-0.017828020791865764]","[-1,-1,-1]","[-0.0631875347268804,-0.11986514440077412]","[-1,-1,-1]","[0.11415678440350012,0.113019431890646]","[-1,-1,-1]","[0.02,0.02]",112.6237,0,9,9,27,1,,,,,,,
,,,,,,,66031000461c44484ac359a8,682f0fb48d49f6a87dab403e,2025-05-22_14h51.48.513,cuing_paradigm_dot,2024.1.5,Win32,60.24096386,682d573fa47f1360d1451895,,,,,,,,,,,112.6246,113.1234,,,113.3778,114.1238,right,,,,,,,,0.5,0.7198,,,,,,,113.1235,113.3777,114.1239,"[0.10016239659275865,-0.12975793951465334]","[1,1,1]","[-0.14681129834273624,-0.03495843425605034]","[-1,-1,-1]","[0.10590986128297476,0.07855400724996578]","[1,1,1]","[-0.03820014470660578,-0.15877647581136486]","[1,1,1]","[-0.006537762245335173,0.15633759006770695]","[-1,-1,-1]","[0.15094450412963567,-0.0758527052905927]","[1,1,1]","[0.020328474989024597,0.04612219861294918]","[1,1,1]","[-0.03559555047889075,-0.057260664727275916]","[1,1,1]","[0.040838230262890934,0.18401827782719177]","[1,1,1]","[-0.08768482213295303,0.12082095401664987]","[1,1,1]","[-0.07139110151542605,0.08110906801581637]","[-1,-1,-1]","[0.0999366491273917,0.130201675875171]","[-1,-1,-1]","[0.06379144176782735,-0.023024357990133543]","[1,1,1]","[-0.14755102073073176,-0.10767174661196086]","[-1,-1,-1]","[0.1645888967212383,0.08893320528536879]","[-1,-1,-1]","[0.09881025621792139,0.01804452570741312]","[1,1,1]","[0.14522161150228857,0.035388809345854304]","[1,1,1]","[-0.05172266363594048,-0.007934343312570055]","[-1,-1,-1]","[-0.09438086039254708,-0.1704166607881411]","[-1,-1,-1]","[-0.10160584954289859,-0.06869633783723918]","[-1,-1,-1]","[0.044539313620723275,-0.13319721645913019]","[-1,-1,-1]","[-0.08705697084837843,-0.12552414721863372]","[-1,-1,-1]","[-0.016316674011426727,0.01609159631943296]","[1,1,1]","[0.11603850833230608,-0.052975393673718014]","[1,1,1]","[0.057539228510705503,-0.07931719107385696]","[-1,-1,-1]","[0.06086929691315892,0.033476758529227005]","[-1,-1,-1]","[-0.10018372123567172,0.1721543010534272]","[-1,-1,-1]","[-0.17744607880525076,0.0374086978654614]","[1,1,1]","[-0.13419730695602164,0.11282550110962347]","[-1,-1,-1]","[-0.007737607875063507,0.08360973228900552]","[1,1,1]","[0.1784284128921992,-0.008929818072775956]","[1,1,1]","[0.044627660371516,0.09364819323837746]","[-1,-1,-1]","[0.02,0.02]",115.2233,0,10,10,113,1,,,,,,,
,,,,,,,66031000461c44484ac359a8,682f0fb48d49f6a87dab403e,2025-05-22_14h51.48.513,cuing_paradigm_dot,2024.1.5,Win32,60.24096386,682d573fa47f1360d1451895,,,,,,,,,,,115.2238,115.7231,,,115.9736,116.3403,left,,,,,,,,0.6,0.3455,,,,,,,115.7232,115.9736,116.3405,"[0.12646798002345463,0.025522497167691737]","[1,1,1]","[-0.08540547591129444,-0.11183396278577967]","[-1,-1,-1]","[0.07697432641190932,0.016778211266806255]","[-1,-1,-1]","[-0.13482318324363204,-0.11894528683236225]","[1,1,1]","[-0.026938409038940802,0.09588512925624838]","[1,1,1]","[0.1474578096740074,-0.019167067177111537]","[1,1,1]","[0.0017462439790523472,-0.07874730229189288]","[-1,-1,-1]","[0.07751577796275358,0.08550368935125541]","[1,1,1]","[0.09356663945365004,-0.07647797854629837]","[-1,-1,-1]","[0.13595208800752334,0.12391136251991454]","[-1,-1,-1]","[0.06679801358584193,0.1627424500579656]","[1,1,1]","[0.10521681045648268,-0.13485468376491752]","[-1,-1,-1]","[0.030830941466841275,0.005774226872421738]","[1,1,1]","[0.1430164610378065,0.07874510306182034]","[1,1,1]","[-0.07153696622668976,-0.013996767771039972]","[-1,-1,-1]","[0.028626442455015905,0.12215527839382272]","[1,1,1]","[-0.18856799924775666,0.001605561882989601]","[-1,-1,-1]","[-0.01301687440856664,0.014536138684651473]","[1,1,1]","[-0.1391789285891954,0.06411215582970843]","[-1,-1,-1]","[0.03911461445094993,-0.16155367989540267]","[1,1,1]","[-0.135070404196361,0.1413152073339667]","[1,1,1]","[-0.03983509262007884,-0.1568950720991113]","[1,1,1]","[0.17849472216618925,-0.05980531982955893]","[-1,-1,-1]","[-0.007821030373027752,0.1869767785931784]","[-1,-1,-1]","[-0.09273530366590482,0.14754536910785773]","[1,1,1]","[0.18381333977115263,0.003652628528862303]","[1,1,1]","[-0.04788916580662458,0.15719658745140944]","[1,1,1]","[0.1362972716281593,-0.09421990636893508]","[1,1,1]","[0.18038896559376705,0.05950067233065051]","[1,1,1]","[-0.13993659622286592,-0.07098464307869305]","[-1,-1,-1]","[-0.0409848722605451,-0.06310832554339323]","[1,1,1]","[-0.14835505757797815,-0.018323418441419232]","[-1,-1,-1]","[0.02,0.02]",117.4399,0,11,11,164,1,,,,,,,
,,,,,,,66031000461c44484ac359a8,682f0fb48d49f6a87dab403e,2025-05-22_14h51.48.513,cuing_paradigm_dot,2024.1.5,Win32,60.24096386,682d573fa47f1360d1451895,,,,,,,,,,,117.4406,117.9395,,,118.1923,118.8233,right,,,,,,,,0.45,0.6134,,,,,,,117.9396,118.1922,118.8234,"[-0.00701835352387432,0.1187985984793001]","[1,1,1]","[0.11300677625235768,-0.010882151188580545]","[-1,-1,-1]","[0.12124659099971327,-0.1330800306356074]","[1,1,1]","[0.0377085475991899,0.1296627913960587]","[1,1,1]","[0.01599234687833467,0.1784264209984426]","[-1,-1,-1]","[-0.04360572287825027,-0.044764555780362834]","[1,1,1]","[0.03407765055018515,-0.09223657730833747]","[-1,-1,-1]","[0.043989069011737214,-0.18570752941884955]","[1,1,1]","[0.06010177172221594,0.0546884476750009]","[-1,-1,-1]","[-0.07421860918179332,-0.07732925664781534]","[-1,-1,-1]","[0.14497228331268322,-0.0928647203975163]","[1,1,1]","[-0.1223715982675776,-0.11923058424056292]","[-1,-1,-1]","[-0.005343005958633316,-0.17728287302197143]","[-1,-1,-1]","[-0.04823762185080518,0.01790465250734052]","[-1,-1,-1]","[0.12050984923542998,0.0435652090832181]","[1,1,1]","[-0.1246740965545715,-0.033236892991191855]","[-1,-1,-1]","[-0.06662990818596666,0.11392417908802858]","[-1,-1,-1]","[-0.08030985988665934,-0.01481874885822312]","[1,1,1]","[0.16766029240432878,0.09205624796201232]","[1,1,1]","[0.08504668776552565,-0.15652887921170006]","[1,1,1]","[-0.1104788374582122,0.047413591392209804]","[1,1,1]","[0.15402203088813396,-0.0037779505355947022]","[-1,-1,-1]","[0.012605639794659836,-0.008325173885765308]","[-1,-1,-1]","[0.13345445197301184,0.13524192361208268]","[-1,-1,-1]","[-0.1503670034320899,0.06067465125184612]","[-1,-1,-1]","[-0.05242140269389956,-0.16991644455350144]","[1,1,1]","[-0.04324816759289657,0.175149180787832]","[1,1,1]","[0.02320545079640918,0.07883927374344159]","[-1,-1,-1]","[-0.08021836599715217,-0.12800941398074003]","[1,1,1]","[0.12549691821326361,-0.053169577084573774]","[-1,-1,-1]","[-0.10655775356288057,0.1400971169665431]","[-1,-1,-1]","[0.09054602377261736,0.1531496920210405]","[-1,-1,-1]","[0.02,0.02]",119.9226,0,12,12,72,1,,,,,,,
,,,,,,,66031000461c44484ac359a8,682f0fb48d49f6a87dab403e,2025-05-22_14h51.48.513,cuing_paradigm_dot,2024.1.5,Win32,60.24096386,682d573fa47f1360d1451895,,,,,,,,,,,119.9233,120.4224,,,120.6755,120.9727,left,,,,,,,,0.6,0.2753,,,,,,,120.4225,120.6754,120.9728,"[0.09720616740389257,-0.083309293566431]","[1,1,1]","[-0.11815348329727275,0.06016034319174816]","[-1,-1,-1]","[0.10896234036365812,0.08380281987535132]","[1,1,1]","[-0.023494961346488666,-0.010520130190361065]","[1,1,1]","[0.0057220674604349575,-0.1805138306702325]","[1,1,1]","[0.16617361977215772,0.05534551587627218]","[-1,-1,-1]","[0.05122428049875847,0.1389824782804]","[1,1,1]","[0.03899303718805831,-0.1532595791816751]","[-1,-1,-1]","[0.002082556312794675,0.07453375357209735]","[1,1,1]","[-0.040603750216696745,-0.0510077493303872]","[1,1,1]","[0.15221176266035982,-0.029036536102793664]","[-1,-1,-1]","[-0.08352345071437409,-0.08057196945273834]","[-1,-1,-1]","[-0.05984046978282095,0.0999860478483668]","[1,1,1]","[0.11648264723830282,-0.12707484534054211]","[-1,-1,-1]","[0.10266673963679745,0.022133624100898672]","[1,1,1]","[-0.011080616592012314,0.02985610873979997]","[-1,-1,-1]","[-0.10516715875540927,0.11941149869025557]","[1,1,1]","[0.05675209163896147,0.07991397867409275]","[-1,-1,-1]","[-0.1661358079502165,-0.025738960157892322]","[-1,-1,-1]","[-0.16781240222337176,0.06324155565420726]","[1,1,1]","[0.013088004493565874,0.19253671043163434]","[1,1,1]","[0.10891313933116155,-0.04372643283247353]","[-1,-1,-1]","[0.002767922152828125,0.14126411386964535]","[1,1,1]","[-0.13152285380838702,-0.0845108726148599]","[1,1,1]","[0.04101112239492369,-0.01439103740801933]","[-1,-1,-1]","[0.11915877168449526,0.13836482607473655]","[1,1,1]","[0.15947472382487862,-0.08383493316422344]","[-1,-1,-1]","[-0.08643908363789203,-0.14352351655921913]","[1,1,1]","[0.038773918245845425,-0.09349630936394329]","[-1,-1,-1]","[-0.142415238867456,-0.12576361586602294]","[1,1,1]","[-0.028687053377916976,-0.11385966270590374]","[1,1,1]","[0.038162180042842817,0.02705344369043397]","[1,1,1]","[0.02,0.02]",122.0726,0,13,13,152,1,,,,,,,
,,,,,,,66031000461c44484ac359a8,682f0fb48d49f6a87dab403e,2025-05-22_14h51.48.513,cuing_paradigm_dot,2024.1.5,Win32,60.24096386,682d573fa47f1360d1451895,,,,,,,,,,,122.0735,122.5722,,,122.8255,123.1252,right,,,,,,,,0.4,0.2829,,,,,,,122.5723,122.8254,123.1252,"[0.056127863975722815,-0.1642434862061876]","[-1,-1,-1]","[-0.04920040413701019,-0.0753471574141451]","[1,1,1]","[-0.047380101991978486,0.05598295240049645]","[-1,-1,-1]","[-0.04649076262989933,0.005797974781345945]","[1,1,1]","[-0.14979167029718682,-0.023429439476283426]","[-1,-1,-1]","[0.07375995602128393,-0.02179322565138921]","[-1,-1,-1]","[0.041403231063512236,0.005305567278765485]","[1,1,1]","[0.03231807391542075,0.17907457945947083]","[-1,-1,-1]","[-0.10798630483618497,-0.05164926010824631]","[-1,-1,-1]","[-0.15725371055559886,0.10667043935647276]","[1,1,1]","[0.0179777705702608,-0.18154787162479566]","[-1,-1,-1]","[0.17380222797536463,-0.08131424379210417]","[-1,-1,-1]","[0.08098024711633499,-0.08849929678551238]","[-1,-1,-1]","[-0.08578786479471646,0.03662312811530922]","[1,1,1]","[0.10423408969619938,0.013879535977422251]","[1,1,1]","[0.14270027087274137,-0.0344396617468224]","[-1,-1,-1]","[-0.0079347716809794,-0.06479656682528404]","[-1,-1,-1]","[0.18034283801087184,0.04669689475432485]","[1,1,1]","[-0.06571142353761365,-0.14478946321847197]","[-1,-1,-1]","[0.1023132635216149,0.13089762945915803]","[1,1,1]","[-0.06474096400678193,0.12303751568366685]","[-1,-1,-1]","[0.12678136207847446,-0.1467081248665357]","[-1,-1,-1]","[0.12943819307366003,0.08539387221553454]","[-1,-1,-1]","[-0.019689766001529777,-0.15930747803637943]","[1,1,1]","[-0.18778924897112917,0.006497256514095965]","[1,1,1]","[-0.1505327318996645,-0.13072548953560376]","[1,1,1]","[0.04005339956814758,0.11563899852769782]","[1,1,1]","[0.07376860861231423,0.16681593918483673]","[-1,-1,-1]","[0.07160934114053087,0.05168161627791913]","[1,1,1]","[-0.0014970670583484707,0.1027628503540599]","[-1,-1,-1]","[-0.15496820943399245,0.03731564290662024]","[-1,-1,-1]","[-0.10518440885200146,0.1047451723797329]","[-1,-1,-1]","[0.02,0.02]",124.2223,0,14,14,48,1,,,,,,,
,,,,,,,66031000461c44484ac359a8,682f0fb48d49f6a87dab403e,2025-05-22_14h51.48.513,cuing_paradigm_dot,2024.1.5,Win32,60.24096386,682d573fa47f1360d1451895,,,,,,,,,,,124.2233,124.7219,,,124.9733,125.9234,right,,,,,,,,0.5,0.9308,,,,,,,124.722,124.9733,125.9234,"[-0.15684043691863317,-0.023368102880777706]","[1,1,1]","[-0.04569948119094837,0.15586397018936882]","[1,1,1]","[0.01602989083707135,0.16771049292947193]","[1,1,1]","[-0.01622034264833097,-0.039332959026186845]","[-1,-1,-1]","[-0.07595441830770035,-0.04565960246891826]","[1,1,1]","[-0.13575801768377427,-0.126255462820409]","[-1,-1,-1]","[0.13469499480233177,0.10633860504874099]","[1,1,1]","[-0.06813182007807139,0.10148919773412059]","[1,1,1]","[0.026545307069631784,-0.15749977975916146]","[-1,-1,-1]","[0.049379377482681244,0.19158843721930152]","[1,1,1]","[-0.018793232109761554,-0.08878759419205932]","[1,1,1]","[-0.17424370843058143,-0.08694871627504545]","[-1,-1,-1]","[0.11605692384699934,-0.03655516626844031]","[-1,-1,-1]","[-0.08319115276441844,-0.17929936315989614]","[-1,-1,-1]","[0.09920416946970516,-0.10962297074977986]","[1,1,1]","[0.17639841926845137,0.09214449406826374]","[1,1,1]","[-0.1752087380945503,0.05643941827275576]","[1,1,1]","[-0.11751970301146498,0.1482762920422254]","[1,1,1]","[0.046853441018183326,0.061134742523636335]","[-1,-1,-1]","[-0.0095910658508399,0.12825644872757175]","[-1,-1,-1]","[-0.10453106545574359,-0.08687911137913885]","[-1,-1,-1]","[0.09834420819131036,0.0628274605107121]","[-1,-1,-1]","[-0.1402446477138513,0.11296320170178348]","[1,1,1]","[0.005244907670122441,0.06326937499892102]","[-1,-1,-1]","[-0.08696648607373605,-0.002803548812296224]","[-1,-1,-1]","[0.047107087140319304,0.014977559998904546]","[-1,-1,-1]","[0.03627459205097772,-0.08496622959794796]","[-1,-1,-1]","[0.165282579684995,-0.06452455051598799]","[-1,-1,-1]","[-0.03669348461735754,-0.1793669398328691]","[1,1,1]","[-0.07457669503279254,0.05275926160417485]","[1,1,1]","[0.12480589912721086,-0.1426237997435704]","[-1,-1,-1]","[0.16681345044064125,0.04755954919194326]","[1,1,1]","[0.02,0.02]",127.0216,0,15,15,112,1,,,,,,,
,,,,,,,66031000461c44484ac359a8,682f0fb48d49f6a87dab403e,2025-05-22_14h51.48.513,cuing_paradigm_dot,2024.1.5,Win32,60.24096386,682d573fa47f1360d1451895,,,,,,,,,,,127.0223,127.5219,,,127.7723,128.1887,left,,,,,,,,0.6,0.3949,,,,,,,127.522,127.7722,128.1889,"[-0.02761863969053221,0.19006493458819484]","[1,1,1]","[0.09835318663115089,0.017806164950318278]","[-1,-1,-1]","[-0.045403387677874885,-0.17070775405845987]","[-1,-1,-1]","[0.09455448673258958,-0.16274015039762688]","[1,1,1]","[-0.02990142037626757,-0.11277658750038926]","[-1,-1,-1]","[-0.06194064930476732,0.017871814300624487]","[1,1,1]","[0.12051234225519965,-0.061984608851908346]","[-1,-1,-1]","[0.04977984549100493,-0.1351597061524183]","[1,1,1]","[-0.11752546989374263,-0.02251132423542346]","[-1,-1,-1]","[-0.0347676950167113,0.13232912824560422]","[1,1,1]","[-0.11622516807143991,0.10780113138680543]","[1,1,1]","[-0.00683164425781472,-0.07336741234758716]","[-1,-1,-1]","[-0.06624689211745288,0.1060830367632986]","[1,1,1]","[-0.10528836112434731,-0.10970834632226019]","[-1,-1,-1]","[-0.15451287710301767,0.08985118663794084]","[1,1,1]","[0.08371337176549454,0.0759654277777159]","[1,1,1]","[0.17953006899117405,0.01229117762592429]","[-1,-1,-1]","[-0.1756494552569063,0.011907129626032504]","[-1,-1,-1]","[-0.18243388518310838,-0.07454978194459908]","[1,1,1]","[0.032586878827376334,0.024262512125541508]","[1,1,1]","[0.17565469982328458,0.06554988991356407]","[1,1,1]","[0.059822140578543403,0.16728316082444233]","[1,1,1]","[-0.10579461307756584,0.01701547764671557]","[1,1,1]","[0.030377256192940454,0.09034585233647485]","[-1,-1,-1]","[0.009077358384170932,-0.12269665696315517]","[1,1,1]","[-0.04170985197896813,-0.04266249299019587]","[1,1,1]","[0.13030140588213912,0.10847446822077413]","[-1,-1,-1]","[-0.13983691172817847,-0.08815141722533772]","[-1,-1,-1]","[-0.010994824426110796,0.041369758840937014]","[1,1,1]","[0.130405703581651,0.06100204226450139]","[-1,-1,-1]","[-0.14114103409062795,0.04367361672551307]","[1,1,1]","[-0.05753731308530123,0.06601121046213107]","[1,1,1]","[0.02,0.02]",129.288,0,16,16,151,1,,,,,,,
,,,,,,,66031000461c44484ac359a8,682f0fb48d49f6a87dab403e,2025-05-22_14h51.48.513,cuing_paradigm_dot,2024.1.5,Win32,60.24096386,682d573fa47f1360d1451895,,,,,,,,,,,129.2886,129.788,,,130.0387,130.4216,right,,,,,,,,0.4,0.3551,,,,,,,129.788,130.0386,130.4217,"[0.14752030924986387,0.10887515327137465]","[-1,-1,-1]","[-0.14925604654775154,-0.060427200767695394]","[1,1,1]","[-0.010277207315432928,-0.19016700421768215]","[-1,-1,-1]","[0.1040597403083915,-0.10294605320309419]","[-1,-1,-1]","[-0.05588003935579244,0.17206786263860865]","[1,1,1]","[0.0879912937732905,0.17029542953438626]","[-1,-1,-1]","[-0.13187626393647994,0.036643447415979365]","[1,1,1]","[0.08200900743770681,0.0981123772416706]","[-1,-1,-1]","[-0.04036075362299344,0.09969873226740587]","[-1,-1,-1]","[0.08596836150216078,-0.056111692164510195]","[-1,-1,-1]","[-0.1635166631213111,0.07257043795370352]","[1,1,1]","[-0.08485885935722733,0.1380277035767401]","[-1,-1,-1]","[-0.045236189353329584,-0.1166098781041653]","[1,1,1]","[0.01612284185819704,0.1017276830867274]","[1,1,1]","[0.1480199194132853,0.045770816308437885]","[-1,-1,-1]","[0.05042264878075795,-0.09822881002974407]","[-1,-1,-1]","[0.05672300259969137,0.14285156098628404]","[1,1,1]","[0.007783390860793887,0.17064230695952215]","[-1,-1,-1]","[-0.024251436234058142,-0.030135605380123213]","[1,1,1]","[0.035996706911374424,-0.005150600695450057]","[-1,-1,-1]","[0.06248909158647669,-0.14805926304909917]","[-1,-1,-1]","[0.04592773101945222,-0.05420098773849196]","[-1,-1,-1]","[0.017346170772622398,-0.14943096455906593]","[1,1,1]","[0.10047024129075667,-0.004854585234123058]","[1,1,1]","[0.10381350937868865,-0.15729311893735162]","[1,1,1]","[-0.0012909887703594517,-0.08590886662066918]","[-1,-1,-1]","[-0.1375523282616269,0.1357201263149085]","[1,1,1]","[0.07616524508674387,0.04880032154287725]","[-1,-1,-1]","[-0.08822314791709143,0.09390540283951272]","[1,1,1]","[-0.10783529883457256,-0.0540937990878312]","[-1,-1,-1]","[-0.09767589735096881,0.007607839436677717]","[-1,-1,-1]","[-0.022052389377279817,0.044731081939449246]","[-1,-1,-1]","[0.02,0.02]",131.5211,0,17,17,31,1,,,,,,,
,,,,,,,66031000461c44484ac359a8,682f0fb48d49f6a87dab403e,2025-05-22_14h51.48.513,cuing_paradigm_dot,2024.1.5,Win32,60.24096386,682d573fa47f1360d1451895,,,,,,,,,,,131.5222,132.021,,,132.2717,133.0738,right,,,,,,,,0.5,0.7828,,,,,,,132.0211,132.2715,133.0739,"[-0.11487397439056601,-0.11832349276860805]","[-1,-1,-1]","[0.009539148414783583,0.1876058130647579]","[-1,-1,-1]","[0.11801798667818927,0.16064214787216702]","[1,1,1]","[-0.047897961720173986,-0.14070343225703816]","[1,1,1]","[-0.12144339092896526,-0.048151230243377155]","[-1,-1,-1]","[0.022700875297052846,-0.16080025774070125]","[1,1,1]","[-0.023755735149741167,0.029208507248927096]","[1,1,1]","[0.1233880188979201,-0.09322848131558278]","[1,1,1]","[0.11049723807129942,-0.15964541273459895]","[1,1,1]","[0.0689012845016988,0.0683020431274674]","[1,1,1]","[0.16924277663110443,-0.026683084123392545]","[1,1,1]","[0.13590531204567752,0.11612597166112452]","[1,1,1]","[-0.023575171269491782,0.09239672045711118]","[1,1,1]","[0.03746560539716546,-0.06679923307730895]","[1,1,1]","[-0.12350393906375101,0.05317240706226806]","[-1,-1,-1]","[-0.01611777345892393,-0.18425478374549897]","[1,1,1]","[-0.08959173101580849,0.1463292399408311]","[-1,-1,-1]","[0.15766295609563727,0.07271286746751526]","[-1,-1,-1]","[-0.047288960577601465,0.19090590487123088]","[-1,-1,-1]","[0.08134993712986043,0.10725896087263596]","[-1,-1,-1]","[-0.13635109146108396,0.12770271864380034]","[-1,-1,-1]","[-0.16937156113701016,-0.029103972012364945]","[-1,-1,-1]","[0.05764626239352773,-0.1329923464136295]","[-1,-1,-1]","[-0.08830141637278158,-0.01016219906498547]","[-1,-1,-1]","[0.09518845975271348,-0.009786253951790206]","[-1,-1,-1]","[-0.07868344983646737,-0.08705983735263274]","[-1,-1,-1]","[-0.0690744552693231,0.05741598520889937]","[1,1,1]","[0.145981207273998,-0.1273639662459753]","[1,1,1]","[0.18677712822325046,0.036366837128732725]","[-1,-1,-1]","[-0.008032676402122928,-0.1229923581260193]","[1,1,1]","[-0.04422922897813235,0.1359910436464535]","[1,1,1]","[0.1246577857169421,0.031212521242038573]","[-1,-1,-1]","[0.02,0.02]",134.1709,0,18,18,117,1,,,,,,,
,,,,,,,66031000461c44484ac359a8,682f0fb48d49f6a87dab403e,2025-05-22_14h51.48.513,cuing_paradigm_dot,2024.1.5,Win32,60.24096386,682d573fa47f1360d1451895,,,,,,,,,,,134.1717,134.6708,,,134.9211,135.3207,right,,,,,,,,0.4,0.3744,,,,,,,134.6709,134.921,135.3208,"[-0.07218484828451743,0.06655153222109779]","[1,1,1]","[0.17437881354857054,0.006897387729960574]","[-1,-1,-1]","[-0.09790127331192289,-0.06568654624103346]","[-1,-1,-1]","[-0.026333586401522096,0.15084424384729872]","[1,1,1]","[0.1793970292244421,0.07009257456631944]","[1,1,1]","[0.010312413416820184,-0.04027862167671607]","[1,1,1]","[0.12021405597818609,0.08802433704167198]","[1,1,1]","[0.013699543694439199,0.023886162835069325]","[-1,-1,-1]","[-0.00048446707849062517,-0.19679986190653345]","[-1,-1,-1]","[0.10446269713071092,0.02658338025098742]","[-1,-1,-1]","[-0.17731550395892615,0.02634560586933634]","[-1,-1,-1]","[-0.08034873707523969,-0.10912367051142187]","[-1,-1,-1]","[-0.15986319242640104,0.09040263217867459]","[-1,-1,-1]","[0.07328719822545364,-0.01956289422742054]","[-1,-1,-1]","[-0.13893554438072855,-0.012727993091091488]","[-1,-1,-1]","[0.08013833933417219,-0.07822763549822459]","[1,1,1]","[0.10728406542520737,0.13844457567037927]","[-1,-1,-1]","[0.06548923760697464,-0.18768837845187425]","[1,1,1]","[-0.08071153620350864,0.14375938160889143]","[-1,-1,-1]","[-0.01980820624290127,-0.12355707295990034]","[1,1,1]","[-0.04582118728266187,-0.18481997189042793]","[-1,-1,-1]","[0.1021246932627139,-0.12170098311817941]","[1,1,1]","[-0.1921364136276833,-0.03619983363806026]","[-1,-1,-1]","[-0.17779996219092623,-0.08029384705059325]","[1,1,1]","[-0.10822089394713011,0.045689564170085524]","[-1,-1,-1]","[0.12681100060116787,-0.06233939475418508]","[-1,-1,-1]","[0.07310621134884157,0.18098456059793397]","[-1,-1,-1]","[-0.04613308757211619,-0.05732362401281164]","[1,1,1]","[-0.005614939511766934,0.1943680348450379]","[1,1,1]","[-0.05294096646551603,-0.012813675722211893]","[1,1,1]","[0.18643374222761033,-0.031854055322313]","[-1,-1,-1]","[0.052815180989813075,-0.10951071195495345]","[-1,-1,-1]","[0.02,0.02]",136.4206,0,19,19,46,1,,,,,,,
,,,,,,,66031000461c44484ac359a8,682f0fb48d49f6a87dab403e,2025-05-22_14h51.48.513,cuing_paradigm_dot,2024.1.5,Win32,60.24096386,682d573fa47f1360d1451895,,,,,,,,,,,136.4213,136.9207,,,137.174,137.4705,right,,,,,,,,0.45,0.2784,,,,,,,136.9207,137.1739,137.4706,"[0.12442943281499382,0.08782687103759763]","[-1,-1,-1]","[-0.01720919874980394,-0.019076994351995072]","[1,1,1]","[0.009345568403146674,-0.09054306859360794]","[-1,-1,-1]","[0.04540380667152522,0.00807065989333606]","[1,1,1]","[-0.026674887251728768,-0.1940293203596739]","[1,1,1]","[-0.1102829496974741,0.0015340475389224353]","[-1,-1,-1]","[0.016587295431540347,0.14603583711642756]","[-1,-1,-1]","[-0.13277804764607767,-0.03941315439298316]","[-1,-1,-1]","[-0.13567821305896408,0.040889287121768446]","[-1,-1,-1]","[0.02154541931685797,-0.14268384519296032]","[1,1,1]","[-0.020593380922929592,-0.1408500769134054]","[-1,-1,-1]","[0.09217427972042083,-0.09115426188895906]","[1,1,1]","[0.1180899351455951,0.14843729356351365]","[-1,-1,-1]","[0.01956572686358268,0.08380234794672854]","[-1,-1,-1]","[-0.09494686292783734,0.06619114116314287]","[1,1,1]","[-0.0768715536944097,-0.15507835596667088]","[-1,-1,-1]","[-0.1841311108014415,-0.015717697999066006]","[1,1,1]","[-0.03691741607150497,0.035124589807731]","[-1,-1,-1]","[0.14542011573424016,-0.13257462829875255]","[-1,-1,-1]","[-0.01991139729047053,0.09342710386703268]","[1,1,1]","[-0.061971711969384446,0.11872940345063342]","[1,1,1]","[0.13354986469688884,-0.060986945505268335]","[-1,-1,-1]","[-0.1465750159427623,0.09111004033576721]","[1,1,1]","[-0.11304821627696306,-0.10660965992511585]","[1,1,1]","[0.15970852976517017,0.00391658339106846]","[-1,-1,-1]","[0.07611631988137373,0.15052132356965225]","[1,1,1]","[-0.12603365169840974,0.14150728741937688]","[-1,-1,-1]","[-0.17010054132970423,-0.07399033909652286]","[-1,-1,-1]","[-0.08832442359920022,-0.055331811463263374]","[1,1,1]","[0.08396460118028735,-0.050956429744499473]","[1,1,1]","[-0.034933105987007176,-0.0779966596551505]","[-1,-1,-1]","[0.08934556984175737,-0.15480996908223862]","[-1,-1,-1]","[0.02,0.02]",138.5703,0,20,20,84,1,,,,,,,
,,,,,,,66031000461c44484ac359a8,682f0fb48d49f6a87dab403e,2025-05-22_14h51.48.513,cuing_paradigm_dot,2024.1.5,Win32,60.24096386,682d573fa47f1360d1451895,,,,,,,,,,,138.571,139.0703,,,139.3209,139.6371,right,,,,,,,,0.4,0.2907,,,,,,,139.0703,139.3207,139.6371,"[0.01623090850385258,0.00982876018271874]","[1,1,1]","[0.14719147217861406,-0.024722147892158416]","[-1,-1,-1]","[0.09373645954148072,-0.15437975313324256]","[-1,-1,-1]","[-0.07256925639951117,-0.17761184876372907]","[-1,-1,-1]","[-0.04631948969479345,0.008060403393941476]","[1,1,1]","[0.05152409269575183,-0.08357308769793592]","[-1,-1,-1]","[-0.05917588239461453,0.10058881455690971]","[1,1,1]","[0.07856008832077306,0.03621840863636753]","[1,1,1]","[0.02002477922099554,-0.16338146733786188]","[-1,-1,-1]","[-0.14627619649277052,0.0010726181450372223]","[-1,-1,-1]","[0.1850271700252142,0.037199384327123435]","[-1,-1,-1]","[-0.11629499363513024,0.12511978855596803]","[1,1,1]","[-0.17571981702915684,-0.04031120124873688]","[-1,-1,-1]","[0.12704057634406613,0.07971578420432592]","[-1,-1,-1]","[0.0742470598002117,0.10660075053038034]","[1,1,1]","[-0.06199843926979126,0.179372174718774]","[-1,-1,-1]","[0.1650979633810183,-0.08683937744420228]","[-1,-1,-1]","[-0.1222086647450335,-0.07518465764763266]","[-1,-1,-1]","[0.16603925982858453,0.11005302733121136]","[1,1,1]","[-0.1493593921600244,0.06019213944743502]","[1,1,1]","[-0.11613890370451256,-0.11485548951688433]","[1,1,1]","[0.18827805062312566,-0.0388297381968356]","[-1,-1,-1]","[-0.02203083493226255,-0.1281616392981412]","[-1,-1,-1]","[0.009784317481904342,0.06593996120578138]","[1,1,1]","[-0.11011853766215536,0.023335991340048885]","[1,1,1]","[0.07372958702149915,-0.008615442081094542]","[-1,-1,-1]","[0.02660416977084416,0.19264051148087072]","[-1,-1,-1]","[-0.10676561410553354,0.08319414191395276]","[-1,-1,-1]","[-0.07665756191764575,-0.13760419407829358]","[-1,-1,-1]","[0.11161086312701726,0.15237080287983792]","[1,1,1]","[0.11139995571219513,-0.10119915365672681]","[-1,-1,-1]","[0.02433573621704626,-0.05353780777669817]","[1,1,1]","[0.02,0.02]",140.7365,0,21,21,51,1,,,,,,,
,,,,,,,66031000461c44484ac359a8,682f0fb48d49f6a87dab403e,2025-05-22_14h51.48.513,cuing_paradigm_dot,2024.1.5,Win32,60.24096386,682d573fa47f1360d1451895,,,,,,,,,,,140.7374,141.2364,,,141.4869,141.7866,right,,,,,,,,0.45,0.2693,,,,,,,141.2365,141.4868,141.7867,"[0.0461018335107008,-0.08382294536336161]","[1,1,1]","[0.06777377713795521,-0.02957325223817369]","[-1,-1,-1]","[-0.08783791841070193,0.08238880408192792]","[-1,-1,-1]","[0.05172394990354619,0.1731849384851558]","[1,1,1]","[0.17215077488707187,-0.019159180306305743]","[-1,-1,-1]","[-0.07222684020012328,-0.031129327884584772]","[1,1,1]","[-0.024947414411560224,0.13343758328820896]","[-1,-1,-1]","[-0.06744505533981457,-0.17850473828230354]","[1,1,1]","[0.05063200037423982,-0.1331905222498321]","[1,1,1]","[-0.0023718143721128443,-0.1860369865842356]","[-1,-1,-1]","[-0.10980587991088518,0.13956542619329074]","[-1,-1,-1]","[0.19595751313488646,0.03407074648043983]","[1,1,1]","[-0.0012470444852483381,0.0058928511915300194]","[1,1,1]","[0.10403739646292336,-0.11009031868794515]","[1,1,1]","[0.14895960085314736,-0.1314952546638965]","[1,1,1]","[0.07972739585274832,0.1306565584972931]","[1,1,1]","[-0.06110787759482046,0.048873749760995004]","[1,1,1]","[0.17916554415429925,0.07713586575589665]","[-1,-1,-1]","[0.013374819981602122,0.04322579662807114]","[1,1,1]","[-0.17552802780059168,-0.07876873884074391]","[-1,-1,-1]","[-0.11851155586451524,-0.15504003679663012]","[-1,-1,-1]","[-0.15759465473371592,-0.1203185732762937]","[-1,-1,-1]","[0.003367519843650174,-0.10393247187686316]","[-1,-1,-1]","[-0.040307322900428044,-0.12478567376225637]","[-1,-1,-1]","[0.13716450706368613,0.029801999164472227]","[-1,-1,-1]","[-0.15502451371828416,0.04591459855117467]","[-1,-1,-1]","[0.08606463958700776,0.016332089262225367]","[1,1,1]","[0.14545627807396125,-0.09108749800911596]","[-1,-1,-1]","[-0.18419076740263632,-0.024761560152129707]","[-1,-1,-1]","[0.1451978041438783,0.12599189165518526]","[-1,-1,-1]","[0.12755472793431882,-0.03123614556174094]","[1,1,1]","[-0.10815222692012778,0.019468024272517065]","[-1,-1,-1]","[0.02,0.02]",142.8863,0,22,22,66,1,,,,,,,
,,,,,,,66031000461c44484ac359a8,682f0fb48d49f6a87dab403e,2025-05-22_14h51.48.513,cuing_paradigm_dot,2024.1.5,Win32,60.24096386,682d573fa47f1360d1451895,,,,,,,,,,,142.8869,143.3861,,,143.6388,143.7699,right,,,,,,,,0.1,0.1118,,,,,,,143.3862,143.6388,143.77,"[0.08614517493252591,0.09251069500103239]","[-1,-1,-1]","[0.13873993801982476,0.09999275777848149]","[1,1,1]","[0.04590946285145848,-0.17358601227961676]","[-1,-1,-1]","[-0.1346782260371498,0.0745346952437339]","[-1,-1,-1]","[-0.196880318785766,-0.03075767309122557]","[-1,-1,-1]","[0.026219219146632524,0.026130781585793447]","[-1,-1,-1]","[-0.05715081795368469,0.06014693907495287]","[-1,-1,-1]","[0.018342725002040674,-0.12106772517661463]","[-1,-1,-1]","[-0.08082638767974523,-0.07045783847175431]","[1,1,1]","[-0.0880290232363297,0.12117854202699216]","[-1,-1,-1]","[0.18431166519530776,-0.055336625267940115]","[-1,-1,-1]","[-0.024928355319898152,0.0050710791373080885]","[-1,-1,-1]","[-0.06606290706983776,-0.1337297253497357]","[-1,-1,-1]","[0.16273423617269778,0.03890551452473629]","[-1,-1,-1]","[-0.1421820304885486,-0.09926161278404026]","[-1,-1,-1]","[0.04457178855268113,-0.0535306431176039]","[-1,-1,-1]","[-0.023644009346826193,-0.19621781635568383]","[-1,-1,-1]","[-0.18518603729977606,0.04887061024087209]","[-1,-1,-1]","[0.13693155167728205,-0.07648134643147872]","[-1,-1,-1]","[0.09045050086950876,-0.12357182702197106]","[-1,-1,-1]","[-0.01893111286498469,0.1460550536962078]","[-1,-1,-1]","[0.026227907591123638,0.16445626002285604]","[-1,-1,-1]","[0.1160967934680278,-0.0285055254562613]","[-1,-1,-1]","[0.0004436287183207164,0.09200974652614494]","[-1,-1,-1]","[-0.11013218311922174,-0.027270599809576013]","[-1,-1,-1]","[-0.17594353383347766,0.094559180704729]","[-1,-1,-1]","[0.12099116816597581,0.15625792759664148]","[-1,-1,-1]","[0.07184057937875486,0.16124574998487756]","[-1,-1,-1]","[0.05942379316831213,0.0027180805985071417]","[-1,-1,-1]","[0.09927900504282725,-0.1698212119661592]","[-1,-1,-1]","[0.07223431248381985,0.05143226376394005]","[1,1,1]","[-0.15268729176072243,0.013248821875368348]","[-1,-1,-1]","[0.02,0.02]",144.8697,0,23,23,25,1,,,,,,,
,,,,,,,66031000461c44484ac359a8,682f0fb48d49f6a87dab403e,2025-05-22_14h51.48.513,cuing_paradigm_dot,2024.1.5,Win32,60.24096386,682d573fa47f1360d1451895,,,,,,,,,,,144.8707,145.3693,,,145.6196,145.9577,right,,,,,,,,0.4,0.3186,,,,,,,145.3693,145.6195,145.9577,"[-0.141660928135492,-0.1043979675799015]","[-1,-1,-1]","[-0.02687758894510652,-0.17564020655064333]","[-1,-1,-1]","[0.07235567466889285,-0.08805675452748744]","[-1,-1,-1]","[-0.021993833582906124,0.1401248225185935]","[1,1,1]","[-0.07466028395544066,0.08836882567538273]","[1,1,1]","[0.1669040851738284,-0.06688608312035595]","[-1,-1,-1]","[-0.1136388030470137,0.027945960246514474]","[-1,-1,-1]","[-0.06664406136007149,-0.1685820082878744]","[-1,-1,-1]","[0.09735386647278912,0.07113785948630227]","[-1,-1,-1]","[0.040041674734669505,0.046307470080311365]","[1,1,1]","[0.1436621991479103,-0.11958136772937246]","[-1,-1,-1]","[0.10832386021102812,0.1102499095068056]","[-1,-1,-1]","[0.167943676110131,-0.015325796763984193]","[-1,-1,-1]","[-0.17504316586519222,0.043339697434508294]","[1,1,1]","[0.13365336224128282,0.03638202510475789]","[1,1,1]","[0.11550197878966768,-0.08728831794568691]","[1,1,1]","[-0.01745050605695223,0.034065273908914825]","[-1,-1,-1]","[0.0336356192097348,0.1668973351234608]","[1,1,1]","[0.03721309353378011,0.10979526333712171]","[-1,-1,-1]","[-0.010993619177735345,-0.11994507629846644]","[1,1,1]","[-0.006505133844947363,-0.05087920940986086]","[-1,-1,-1]","[-0.1693266863360786,-0.013277205450013776]","[-1,-1,-1]","[-0.11221940623309969,-0.07662309150222343]","[1,1,1]","[0.16070423418713323,0.07968327219295766]","[-1,-1,-1]","[-0.19152364941142225,-0.04707802370726706]","[-1,-1,-1]","[-0.14025587574872356,0.09029797708145637]","[-1,-1,-1]","[0.11439358909261103,0.16203652405076197]","[-1,-1,-1]","[-0.13315268194322877,-0.14743407866940328]","[1,1,1]","[-0.022710121386362244,-0.009876946148034499]","[1,1,1]","[0.03900814480746686,-0.15209293933503773]","[-1,-1,-1]","[0.08610579869644172,0.023649023646943382]","[1,1,1]","[0.010206406476542708,-0.19077896779857753]","[1,1,1]","[0.02,0.02]",147.0526,0,24,24,47,1,,,,,,,
,,,,,,,66031000461c44484ac359a8,682f0fb48d49f6a87dab403e,2025-05-22_14h51.48.513,cuing_paradigm_dot,2024.1.5,Win32,60.24096386,682d573fa47f1360d1451895,,,,,,,,,,,147.0532,147.5526,,,147.8026,148.186,right,,,,,,,,0.5,0.3598,,,,,,,147.5527,147.8026,148.186,"[0.15877537564237157,0.09349990455951093]","[-1,-1,-1]","[-0.07449295279944533,-0.11469808961769859]","[-1,-1,-1]","[-0.0309950578619268,0.14972329428185985]","[-1,-1,-1]","[0.11293965559382621,0.039063381034006785]","[1,1,1]","[-0.07292598004188378,0.07712275349698096]","[1,1,1]","[-0.12552610966918853,0.09269523341133225]","[-1,-1,-1]","[-0.09537743521734077,0.1731761060125346]","[1,1,1]","[0.04956769924520813,0.1763423158557607]","[1,1,1]","[-0.05900056155313811,0.036862707478375535]","[-1,-1,-1]","[0.008232449460396028,-0.1836180145722453]","[1,1,1]","[0.0898001617643872,-0.1265547816250682]","[1,1,1]","[0.12147666135208265,-0.039335241682531365]","[-1,-1,-1]","[-0.10731231595381586,0.055763501488696285]","[-1,-1,-1]","[0.022145396793794504,0.04036837005007439]","[1,1,1]","[-0.15364992178081024,-0.12231033632269928]","[-1,-1,-1]","[0.1325571409164739,-0.14376418600375437]","[-1,-1,-1]","[-0.16406885193567364,-0.08058377221549566]","[-1,-1,-1]","[-0.12732594569574024,0.00421679494985504]","[-1,-1,-1]","[0.14246669891391914,-0.08799325384753703]","[-1,-1,-1]","[-0.17231120837633288,0.003994365538210884]","[1,1,1]","[0.05887227693066989,0.1354009799897681]","[-1,-1,-1]","[-0.19008930348251227,0.046386624889571085]","[1,1,1]","[0.04171626188929329,-0.1513741489202272]","[1,1,1]","[-0.11305759465320085,-0.0451719667041636]","[1,1,1]","[-0.06976204878758961,-0.07419903948318922]","[1,1,1]","[-0.0351188445009769,0.0003791376282525224]","[-1,-1,-1]","[0.048197153970992404,-0.10358781313141668]","[1,1,1]","[0.08904551187978482,0.1628414022209536]","[-1,-1,-1]","[0.11062763900040201,0.11746520944298135]","[1,1,1]","[0.15961616139816215,0.010775833176956554]","[1,1,1]","[0.07602403718875607,0.023079043836438377]","[1,1,1]","[-0.09737141695989357,-0.16628901326369439]","[-1,-1,-1]","[0.02,0.02]",149.2855,0,25,25,90,1,,,,,,,
,,,,,,,66031000461c44484ac359a8,682f0fb48d49f6a87dab403e,2025-05-22_14h51.48.513,cuing_paradigm_dot,2024.1.5,Win32,60.24096386,682d573fa47f1360d1451895,,,,,,,,,,,149.2861,149.7854,,,150.0392,150.5212,left,,,,,,,,0.6,0.4656,,,,,,,149.7855,150.0391,150.5212,"[0.13144273302835777,-0.13542088080334233]","[1,1,1]","[0.07776630426181118,0.09902955552675842]","[-1,-1,-1]","[-0.04119120405199415,0.07374719892970244]","[1,1,1]","[0.1757509962110254,0.041578174750103405]","[1,1,1]","[0.00759245627597556,-0.19918320329663233]","[-1,-1,-1]","[0.06647584355954682,0.14861457616682444]","[1,1,1]","[0.006020715951200932,0.14945470019471824]","[1,1,1]","[0.0353345734912909,-0.09776804633118881]","[1,1,1]","[-0.09015924721834652,0.07526897393469895]","[-1,-1,-1]","[0.13805000939225093,-0.09253067891547541]","[-1,-1,-1]","[0.06159486236357655,-0.12886156934392753]","[1,1,1]","[-0.09565158409533837,0.1545330413370824]","[-1,-1,-1]","[-0.04227796595583233,-0.11714309291131571]","[1,1,1]","[-0.04501511185494309,-0.006368025776735597]","[-1,-1,-1]","[-0.05274469924504833,-0.16080835395480822]","[1,1,1]","[-0.15883743495774433,-0.11287038640550885]","[1,1,1]","[-0.00017268563205784135,-0.1344579191765625]","[-1,-1,-1]","[0.020981926452775215,0.00668411582546014]","[-1,-1,-1]","[-0.010446271202580522,-0.03686984952789138]","[1,1,1]","[-0.17513447000880059,-0.0752165972438294]","[1,1,1]","[-0.1125863203693002,-0.11936272923798143]","[-1,-1,-1]","[0.011404307174479753,0.1010693387369928]","[-1,-1,-1]","[-0.13343815381497695,0.09733185169081988]","[1,1,1]","[0.160471965188004,0.09020012205583376]","[-1,-1,-1]","[0.05588910501680906,0.040276392414086294]","[-1,-1,-1]","[0.1648032991009679,-0.03850184290077457]","[1,1,1]","[0.09755086876643561,0.02539899478994811]","[-1,-1,-1]","[0.11736576461876698,-0.05215831473536435]","[1,1,1]","[-0.01909193077518576,0.1932439842463115]","[1,1,1]","[0.10169547527633743,0.17123087396805017]","[1,1,1]","[0.10169587254238482,-0.16432313226356607]","[1,1,1]","[0.14594101615183572,0.0008462096523045476]","[1,1,1]","[0.02,0.02]",151.6183,0,26,26,171,1,,,,,,,
,,,,,,,66031000461c44484ac359a8,682f0fb48d49f6a87dab403e,2025-05-22_14h51.48.513,cuing_paradigm_dot,2024.1.5,Win32,60.24096386,682d573fa47f1360d1451895,,,,,,,,,,,151.619,152.1184,,,152.3689,152.7019,right,,,,,,,,0.4,0.3038,,,,,,,152.1185,152.3688,152.7019,"[0.04306717468917788,0.14041647360629445]","[-1,-1,-1]","[-0.16058370838645053,-0.0016202299140874407]","[-1,-1,-1]","[0.0262601421250469,0.07680875119250596]","[-1,-1,-1]","[-0.031769654340360075,0.07799276621149898]","[-1,-1,-1]","[0.06491553167103427,-0.15424271356587485]","[1,1,1]","[0.062255223550801646,-0.052604068504256224]","[1,1,1]","[-0.026371436092995984,0.17854952882779615]","[1,1,1]","[0.09016052430087837,-0.09429467884417933]","[1,1,1]","[-0.0807230865815074,-0.1384444577438693]","[-1,-1,-1]","[0.159035599182332,0.10846332875509136]","[1,1,1]","[-0.012108626680908324,-0.1543838670081464]","[1,1,1]","[-0.12942988711834208,-0.1279209507489363]","[1,1,1]","[0.09930861987334544,0.12376427581869999]","[-1,-1,-1]","[-0.06386182814625128,0.010004143394685997]","[-1,-1,-1]","[-0.04250395016939022,-0.10721770343579105]","[-1,-1,-1]","[-0.023288678277263747,-0.19561182445760125]","[-1,-1,-1]","[0.14685982581892415,-0.09848124624187017]","[-1,-1,-1]","[-0.14068509569850465,-0.05266250391768148]","[-1,-1,-1]","[-0.11850300727789781,0.07376107361228144]","[1,1,1]","[0.09583596192509283,0.013787435997288712]","[1,1,1]","[-0.17618425670400328,0.09227755067407424]","[-1,-1,-1]","[0.029077462834317586,0.0203863736513223]","[-1,-1,-1]","[-0.06332080072456159,0.12460562559123262]","[-1,-1,-1]","[-0.022001870492583207,0.11916171860886428]","[-1,-1,-1]","[-0.06376906299783333,-0.056612755533615444]","[-1,-1,-1]","[0.030260883532087383,-0.12843495969010632]","[-1,-1,-1]","[-0.193807466335489,0.026585874948970793]","[1,1,1]","[0.11820792275252237,-0.1498842144926207]","[-1,-1,-1]","[-0.11265478969106091,0.12952728456652593]","[-1,-1,-1]","[0.176803778317763,0.047545023517288044]","[1,1,1]","[-0.07652673206661778,0.07017557778821827]","[1,1,1]","[0.01759743242166951,-0.03544374658142295]","[1,1,1]","[0.02,0.02]",153.8014,0,27,27,43,1,,,,,,,
,,,,,,,66031000461c44484ac359a8,682f0fb48d49f6a87dab403e,2025-05-22_14h51.48.513,cuing_paradigm_dot,2024.1.5,Win32,60.24096386,682d573fa47f1360d1451895,,,,,,,,,,,153.8022,154.3013,,,154.5517,154.9025,left,,,,,,,,0.55,0.3267,,,,,,,154.3015,154.5516,154.9026,"[-0.07834746613089387,-0.16022105898235037]","[1,1,1]","[0.09386696890314893,0.04010872298428254]","[1,1,1]","[0.16111735556662116,0.09140993100923793]","[-1,-1,-1]","[-0.16210049560950718,0.010929361397586256]","[-1,-1,-1]","[-0.08249974085499323,0.08576972386307026]","[-1,-1,-1]","[0.08646424965028188,-0.16053153444355925]","[-1,-1,-1]","[-0.13611486714923357,0.04874915661697778]","[-1,-1,-1]","[0.007639869841251045,0.17872236568134725]","[-1,-1,-1]","[0.058187556027615876,0.16494561561836532]","[1,1,1]","[0.055384392031622175,-0.09863007481073327]","[1,1,1]","[-0.0019625286733340294,-0.12701542496851087]","[-1,-1,-1]","[0.10846348656922067,-0.012670347467378464]","[1,1,1]","[0.1821451593688381,-0.011996772494462165]","[1,1,1]","[0.05501095064449951,-0.03105254327240891]","[1,1,1]","[0.04701532883943709,0.08803037107002888]","[-1,-1,-1]","[0.15002556071288456,0.03672137642743694]","[1,1,1]","[-0.04574123728105463,0.18556221130254616]","[1,1,1]","[0.012553503096973498,0.1330296959429625]","[1,1,1]","[-0.15448863516164577,-0.09930171872656911]","[1,1,1]","[-0.02908665270791011,-0.03136166550456824]","[1,1,1]","[0.13413680351632712,0.12806701362580714]","[1,1,1]","[0.14596114190622825,-0.1252974222577462]","[-1,-1,-1]","[-0.04515653354950698,0.012280146051863464]","[1,1,1]","[0.08507228004941234,0.12677149747641236]","[1,1,1]","[-0.10639957443374086,0.12663609245550936]","[-1,-1,-1]","[-0.01624423792263819,0.08675220124416044]","[1,1,1]","[0.12364910661459041,-0.08818086418323524]","[1,1,1]","[-0.09299810697240764,-0.09217083107320709]","[-1,-1,-1]","[0.17776385657765065,-0.08821500753507591]","[-1,-1,-1]","[0.014553882093209125,-0.036643728206042135]","[-1,-1,-1]","[0.15894728172569927,-0.04985592342814872]","[-1,-1,-1]","[0.025657408301670983,0.037225048903752715]","[1,1,1]","[0.02,0.02]",156.0013,0,28,28,126,1,,,,,,,
,,,,,,,66031000461c44484ac359a8,682f0fb48d49f6a87dab403e,2025-05-22_14h51.48.513,cuing_paradigm_dot,2024.1.5,Win32,60.24096386,682d573fa47f1360d1451895,,,,,,,,,,,156.0022,156.5015,,,156.7552,156.9848,left,,,,,,,,0.9,0.2061,,,,,,,156.5015,156.7551,156.9849,"[-0.04732668702348314,-0.03344978793505694]","[1,1,1]","[0.19087364692039932,0.002675437473968491]","[1,1,1]","[-0.12533618318041462,-0.14606252140036521]","[1,1,1]","[-0.038253006259849086,0.15055143645983754]","[1,1,1]","[0.02622473734203113,0.03511180110401385]","[1,1,1]","[0.03474448025672838,-0.12387593278534247]","[-1,-1,-1]","[0.08828336834435264,-0.12518885208955477]","[1,1,1]","[-0.10199391878174127,0.009500148595968677]","[1,1,1]","[-0.06439620043896772,0.06412596902683289]","[1,1,1]","[0.1314895057249924,-0.02009112943377786]","[1,1,1]","[-0.12610067485827442,0.06779703542480409]","[1,1,1]","[0.11329999856658896,0.08742340668028473]","[1,1,1]","[0.09826597703418992,-0.07951734864657596]","[1,1,1]","[-0.01663594013155439,-0.14854639856572388]","[1,1,1]","[-0.08311966725223643,-0.1165125982793245]","[1,1,1]","[0.017177871052330256,0.13279447072625325]","[1,1,1]","[-0.03275475310755464,0.19240588626948027]","[1,1,1]","[-0.012007599290476055,-0.0614281652658974]","[1,1,1]","[0.11489240744742393,0.04673774907746403]","[1,1,1]","[-0.12940707162695395,-0.08526845515385251]","[1,1,1]","[0.06225347139772462,-0.04876172253916954]","[-1,-1,-1]","[0.0004558533481007427,0.07470586358757074]","[1,1,1]","[0.14226881584489556,-0.13702162002761278]","[1,1,1]","[-0.17556076943083498,0.05560002641337382]","[-1,-1,-1]","[-0.09201832579805724,0.17730494223457735]","[1,1,1]","[0.06485000945798222,0.07924994787057689]","[1,1,1]","[-0.14430745962100427,-0.010968293883321463]","[1,1,1]","[0.013792751008370593,-0.028886272490630503]","[1,1,1]","[0.006129411167362303,-0.19686957526623808]","[1,1,1]","[0.06549057247928608,0.18688803295987746]","[1,1,1]","[-0.11440354511648473,0.11201311298147502]","[1,1,1]","[0.027579135163488817,0.17265826056978878]","[1,1,1]","[0.02,0.02]",158.0843,0,29,29,199,1,,,,,,,
,,,,,,,66031000461c44484ac359a8,682f0fb48d49f6a87dab403e,2025-05-22_14h51.48.513,cuing_paradigm_dot,2024.1.5,Win32,60.24096386,682d573fa47f1360d1451895,,,,,,,,,,,158.085,158.5842,,,158.8354,159.0344,right,,,,,,,,0.5,0.1707,,,,,,,158.5843,158.8353,159.0345,"[-0.0814974021407648,-0.05105548845375294]","[-1,-1,-1]","[-0.024916118949069168,-0.011515312178891278]","[1,1,1]","[0.060838779711169244,-0.15999322303750152]","[-1,-1,-1]","[0.11435314034773648,-0.1049939266011445]","[1,1,1]","[0.17582113407784966,-0.0892915051927087]","[1,1,1]","[-0.00254547887588978,-0.06407605336434509]","[1,1,1]","[-0.04218414231381189,0.04005466687467222]","[-1,-1,-1]","[0.15605161071802195,0.10524575792270852]","[1,1,1]","[0.06784969138912088,0.06991819040363309]","[1,1,1]","[0.014794596245180286,0.19907336635712775]","[-1,-1,-1]","[0.018363831244769483,0.03210845384319853]","[-1,-1,-1]","[-0.15198146894731826,-0.014481812908999693]","[1,1,1]","[0.16951963970616601,0.06115973916301457]","[-1,-1,-1]","[0.04918101004073812,0.1530964601737145]","[1,1,1]","[-0.03584296942830513,0.11755826804636302]","[-1,-1,-1]","[-0.17666620659246393,-0.05626930847703705]","[-1,-1,-1]","[0.17621092130677776,-0.04272906406281664]","[-1,-1,-1]","[0.11367433622998849,-0.0051249151065003475]","[1,1,1]","[-0.13207851825966824,0.07823061527628627]","[-1,-1,-1]","[0.03777567707518538,-0.04761778376975032]","[-1,-1,-1]","[-0.010993680124613929,-0.15533959877480127]","[1,1,1]","[-0.10948491208282342,-0.002048040440786114]","[1,1,1]","[-0.12163369632848069,-0.10591013524475772]","[1,1,1]","[-0.055638560165523196,-0.12691688425573033]","[-1,-1,-1]","[0.012505976210058863,0.11758372657732266]","[-1,-1,-1]","[-0.06489177788830063,0.07684459916741436]","[1,1,1]","[0.10521258912475812,0.15009918365636277]","[-1,-1,-1]","[0.16853364438531496,0.01172146309199034]","[1,1,1]","[-0.00550336052262775,0.06754488339656137]","[1,1,1]","[0.05976691849065494,0.029379587790235296]","[-1,-1,-1]","[-0.07810359674759723,0.13991374483997296]","[1,1,1]","[0.050081046561045714,-0.11340874349076163]","[-1,-1,-1]","[0.02,0.02]",160.1341,0,30,30,94,1,,,,,,,
,,,,,,,66031000461c44484ac359a8,682f0fb48d49f6a87dab403e,2025-05-22_14h51.48.513,cuing_paradigm_dot,2024.1.5,Win32,60.24096386,682d573fa47f1360d1451895,,,,,,,,,,,160.1348,160.634,,,160.8846,161.3006,right,,,,,,,,0.45,0.3951,,,,,,,160.634,160.8845,161.3007,"[0.01944503111134924,-0.18422434014841535]","[-1,-1,-1]","[-0.11679647264959693,-0.015399370156946493]","[1,1,1]","[-0.04151659857277957,-0.14893648406006493]","[-1,-1,-1]","[-0.101251525908214,-0.17194292344516846]","[-1,-1,-1]","[0.0130574448169208,-0.07297564401166243]","[-1,-1,-1]","[-0.10399266169605738,0.16972134940031025]","[1,1,1]","[-0.09031351410162985,-0.09538870012948367]","[1,1,1]","[0.06868317856745398,0.08776375435009723]","[1,1,1]","[0.08649029900101787,-0.0707598051743891]","[1,1,1]","[-0.03477168609174693,0.15085343965918632]","[1,1,1]","[0.11479432400374023,0.11198806566756055]","[-1,-1,-1]","[-0.17970874893143785,-0.054409773766972716]","[1,1,1]","[-0.014169214875423473,0.08828166944575974]","[-1,-1,-1]","[-0.02635925952902613,-0.11157922574064719]","[1,1,1]","[0.011387407494100976,0.11995875157547732]","[-1,-1,-1]","[0.05884972463691429,0.04882693837462718]","[1,1,1]","[-0.08189173662975023,0.07210128460229483]","[1,1,1]","[0.034022889591318335,-0.12711971282350445]","[-1,-1,-1]","[0.1556472101699888,0.06266086084098435]","[1,1,1]","[0.09724047681371911,-0.02942532252652236]","[1,1,1]","[0.03616575923255926,0.18299497795406644]","[-1,-1,-1]","[-0.0037157001833730053,0.002832437916005075]","[1,1,1]","[-0.10425467245999578,-0.05376808162949175]","[-1,-1,-1]","[-0.16858573458595294,0.04467007073165828]","[-1,-1,-1]","[-0.13893113502839385,-0.09471990130612007]","[-1,-1,-1]","[-0.028331008179191316,-0.07011841022707198]","[-1,-1,-1]","[0.10523809488854619,0.16081117681918417]","[-1,-1,-1]","[-0.11491772463233525,0.10517045271955863]","[-1,-1,-1]","[0.10038037414658224,0.020961469366715967]","[-1,-1,-1]","[0.1349043917731862,-0.069432839801858]","[-1,-1,-1]","[0.06093649647901459,-0.01224592991656279]","[1,1,1]","[0.06910186708913045,-0.18748329454023377]","[-1,-1,-1]","[0.02,0.02]",162.4004,0,31,31,70,1,,,,,,,
,,,,,,,66031000461c44484ac359a8,682f0fb48d49f6a87dab403e,2025-05-22_14h51.48.513,cuing_paradigm_dot,2024.1.5,Win32,60.24096386,682d573fa47f1360d1451895,,,,,,,,,,,162.4014,162.9004,,,163.1515,163.3172,right,,,,,,,,0.1,0.1403,,,,,,,162.9004,163.1514,163.3173,"[-0.11161318736348005,-0.004445618367196301]","[-1,-1,-1]","[0.1679227634597829,0.08963153558206949]","[-1,-1,-1]","[0.031507659572381566,-0.0012762012962419078]","[-1,-1,-1]","[0.002790984299009248,-0.09162600473348605]","[-1,-1,-1]","[0.1818360519442737,0.03151494797805654]","[1,1,1]","[0.16788726461729864,-0.06530065458392231]","[1,1,1]","[-0.06825876064020983,0.12427233501590938]","[-1,-1,-1]","[0.046235962817304355,-0.14782170536504008]","[-1,-1,-1]","[-0.009153760853728982,-0.007394202045158713]","[-1,-1,-1]","[0.0505014341876788,0.12132914395336118]","[-1,-1,-1]","[-0.15364369082333007,-0.040218034226226745]","[-1,-1,-1]","[-0.020080658499109973,0.16813903061550262]","[-1,-1,-1]","[-0.042816655941182814,-0.1831268898723647]","[-1,-1,-1]","[0.054378288165202134,-0.187362149889311]","[-1,-1,-1]","[-0.15332137793045103,0.0232350508343073]","[-1,-1,-1]","[0.003387716481516184,0.06403848419117512]","[-1,-1,-1]","[-0.008356306292370237,0.12085274467891842]","[-1,-1,-1]","[0.12427762784930596,0.039503258242750396]","[-1,-1,-1]","[0.1478276046008286,-0.017450644426387243]","[-1,-1,-1]","[-0.1980309509833546,-0.0006186049040943585]","[-1,-1,-1]","[0.0841579690022674,-0.1293855689114204]","[-1,-1,-1]","[-0.06928111936614387,0.18352570646925315]","[-1,-1,-1]","[0.09870556023069996,-0.009895346714232587]","[-1,-1,-1]","[-0.06304543238131893,-0.1149819529146546]","[-1,-1,-1]","[-0.12996148055587858,0.0830786476276718]","[1,1,1]","[-0.039921758476733286,0.07183790258723594]","[-1,-1,-1]","[0.012673645287464135,-0.04166175307291918]","[-1,-1,-1]","[0.08387190752466112,0.18136074894004478]","[-1,-1,-1]","[-0.07455619685888946,0.0428036323619108]","[-1,-1,-1]","[0.05910506148015335,-0.0649163148948099]","[-1,-1,-1]","[-0.12016993086392674,-0.15027203018121973]","[-1,-1,-1]","[-0.04635028795490442,-0.06678033205735028]","[-1,-1,-1]","[0.02,0.02]",164.417,0,32,32,0,1,,,,,,,
,,,,,,,66031000461c44484ac359a8,682f0fb48d49f6a87dab403e,2025-05-22_14h51.48.513,cuing_paradigm_dot,2024.1.5,Win32,60.24096386,682d573fa47f1360d1451895,,,,,,,,,,,164.4178,164.9169,,,165.1674,165.4171,right,,,,,,,,0.4,0.2225,,,,,,,164.9169,165.1673,165.4172,"[-0.006371178905160573,-0.020739589934698103]","[-1,-1,-1]","[-0.07581127070650723,-0.15814887815988443]","[1,1,1]","[0.15362007203901634,-0.1138875371130189]","[-1,-1,-1]","[-0.09175645351701277,-0.05099770927028729]","[-1,-1,-1]","[-0.1986489813427916,0.017963581275792083]","[1,1,1]","[-0.09877133070181857,-0.09547466828564703]","[1,1,1]","[0.052716936898516975,0.0522848137537723]","[1,1,1]","[-0.11691792681710876,-0.0019667973595543053]","[1,1,1]","[0.09727585839601116,-0.049894942611950745]","[-1,-1,-1]","[-0.11814596027777367,0.125653375604373]","[-1,-1,-1]","[-0.14692809077619595,-0.09783932956570823]","[-1,-1,-1]","[0.014481925622583054,0.02397702969624053]","[1,1,1]","[0.14269400021044112,-0.018011731067675042]","[-1,-1,-1]","[0.03258538985000819,-0.12666722640096303]","[1,1,1]","[0.06541021470459449,0.14909337351223856]","[1,1,1]","[0.1596568603870123,0.025964814415949555]","[1,1,1]","[0.11295129127698593,0.10587544922221738]","[-1,-1,-1]","[0.0810398740179572,-0.1684877252784686]","[1,1,1]","[-0.0347846298385974,-0.10541827132880312]","[-1,-1,-1]","[-0.15602164177981195,0.017474830980422133]","[-1,-1,-1]","[-0.12096637287492903,0.050008651283932476]","[1,1,1]","[0.13175824458130497,0.057737082394471506]","[-1,-1,-1]","[-0.07638228852800942,0.14695190486575416]","[-1,-1,-1]","[0.18602324397915312,-0.02368790107555053]","[1,1,1]","[-0.16927043515632756,0.07431875707849758]","[-1,-1,-1]","[-0.0022146022827179753,-0.15648197000943057]","[-1,-1,-1]","[0.07019874736136562,0.006387572451922516]","[-1,-1,-1]","[0.029306512074088194,-0.05584018958874939]","[-1,-1,-1]","[0.0028667778096264918,0.08426989065305901]","[1,1,1]","[-0.018305391582960472,0.17100066594585664]","[-1,-1,-1]","[-0.18428947914242347,-0.023320856924187033]","[-1,-1,-1]","[-0.0532337110161112,-0.03702243176149526]","[-1,-1,-1]","[0.02,0.02]",166.5168,0,33,33,55,1,,,,,,,
,,,,,,,66031000461c44484ac359a8,682f0fb48d49f6a87dab403e,2025-05-22_14h51.48.513,cuing_paradigm_dot,2024.1.5,Win32,60.24096386,682d573fa47f1360d1451895,,,,,,,,,,,166.5175,167.0167,,,167.2672,167.6003,right,,,,,,,,0.5,0.3028,,,,,,,167.0167,167.2671,167.6007,"[0.12922825659219608,-0.12119564053317962]","[-1,-1,-1]","[0.08774094075144458,0.1456073326094885]","[-1,-1,-1]","[0.018607073428978157,0.06399861528536223]","[-1,-1,-1]","[-0.0635561996887824,0.16406869553182518]","[-1,-1,-1]","[-0.024866529299209142,0.1275813538896214]","[-1,-1,-1]","[0.037038482545472345,0.19292010399379203]","[-1,-1,-1]","[-0.05966064537035428,-0.08134409029030465]","[1,1,1]","[-0.022983677437290434,-0.13979045290180384]","[-1,-1,-1]","[-0.16035572191843353,0.06561312695611195]","[1,1,1]","[0.19575307624004126,0.016138203371663027]","[-1,-1,-1]","[-0.010220402407536572,-0.03296457591081432]","[1,1,1]","[0.07172762419319133,-0.1031003933021952]","[1,1,1]","[0.014966547859358782,-0.18494399491771377]","[1,1,1]","[-0.1578104765455674,-0.07301461035255567]","[-1,-1,-1]","[-0.09397292339520903,0.08848322766960981]","[-1,-1,-1]","[0.0014939335455870007,-0.10293173122332945]","[1,1,1]","[0.02055039583116625,0.001458061340012414]","[1,1,1]","[-0.04799882850778941,0.06734593107182704]","[-1,-1,-1]","[-0.16898259533545207,0.008529374263947618]","[1,1,1]","[-0.02755439500533472,0.19728967430349825]","[1,1,1]","[-0.06799901523924962,0.01234775391443472]","[-1,-1,-1]","[0.13618806289290417,0.09450061265749217]","[1,1,1]","[-0.1081520306096367,-0.08592495931530092]","[1,1,1]","[-0.09398090818660075,0.04417930281432748]","[1,1,1]","[-0.11285586128913955,-0.13444734740342446]","[1,1,1]","[-0.019514198533401726,0.02560896581818338]","[-1,-1,-1]","[0.14783469620163298,-0.0650453620993676]","[-1,-1,-1]","[-0.11513274609922136,0.15903154812889234]","[1,1,1]","[0.12089508848113421,0.04139245999497587]","[-1,-1,-1]","[0.023967297269106104,-0.13807757417218267]","[1,1,1]","[0.0769626839282789,-0.05837349512542054]","[-1,-1,-1]","[0.14707437652360705,-0.023762960157844158]","[1,1,1]","[0.02,0.02]",168.6995,0,34,34,97,1,,,,,,,
,,,,,,,66031000461c44484ac359a8,682f0fb48d49f6a87dab403e,2025-05-22_14h51.48.513,cuing_paradigm_dot,2024.1.5,Win32,60.24096386,682d573fa47f1360d1451895,,,,,,,,,,,168.7,169.1994,,,169.4504,169.7335,right,,,,,,,,0.4,0.2531,,,,,,,169.1995,169.4504,169.7336,"[0.04469881512925755,0.1522224255500958]","[1,1,1]","[0.16089948494130094,0.044852397647941106]","[1,1,1]","[0.021794105311664157,0.020388601471341434]","[-1,-1,-1]","[0.06362461982542104,0.08523425295496306]","[-1,-1,-1]","[-0.053139618130078496,0.010361316813783595]","[-1,-1,-1]","[-0.17861629007934632,-0.06515487643194603]","[1,1,1]","[0.16098907947433044,-0.11074757686107232]","[-1,-1,-1]","[0.1919033036399616,-0.03677272189530601]","[-1,-1,-1]","[0.056290699925617,-0.15315982766912]","[-1,-1,-1]","[0.02853586667345061,-0.09703314302544049]","[1,1,1]","[-0.011606539797040434,0.12350903726964838]","[-1,-1,-1]","[0.1124649838358091,-0.061358660528923616]","[1,1,1]","[-0.05305811105666595,-0.16978133470470708]","[-1,-1,-1]","[0.03746482361507628,-0.021546004249116225]","[-1,-1,-1]","[-0.0450816626423742,0.07189834218137788]","[1,1,1]","[-0.17274249872972222,0.04633041640644052]","[-1,-1,-1]","[-0.09974709822371633,0.04147298977464632]","[-1,-1,-1]","[-0.1376974230273047,0.01596857026997114]","[-1,-1,-1]","[-0.06860045161791774,-0.0700175188668821]","[1,1,1]","[0.0953066971074502,0.012102667252786381]","[-1,-1,-1]","[-0.11202763148539052,-0.0514661096366582]","[1,1,1]","[-0.0274971170068156,-0.0755536618278193]","[1,1,1]","[0.16692207162848433,-0.003655374377019469]","[-1,-1,-1]","[0.1180019507118231,0.1444612526401616]","[1,1,1]","[-0.11093279762809556,-0.10142016003392347]","[-1,-1,-1]","[0.057682219798264885,0.04066227620614384]","[-1,-1,-1]","[-0.14937461111947317,0.1238891453664031]","[-1,-1,-1]","[-0.16426776368081217,0.08548993299916152]","[-1,-1,-1]","[-0.004996360942840328,0.19002955335600136]","[-1,-1,-1]","[-0.10972949519813557,0.16296917574555284]","[1,1,1]","[-0.057429002220485165,0.12433804766788388]","[1,1,1]","[-0.04611627057528425,-0.11939366923246947]","[1,1,1]","[0.02,0.02]",170.8326,0,35,35,52,1,,,,,,,
,,,,,,,66031000461c44484ac359a8,682f0fb48d49f6a87dab403e,2025-05-22_14h51.48.513,cuing_paradigm_dot,2024.1.5,Win32,60.24096386,682d573fa47f1360d1451895,,,,,,,,,,,170.8334,171.3326,,,171.5829,171.9523,left,,,,,,,,0.6,0.3497,,,,,,,171.3327,171.5828,171.9524,"[-0.0477023685814791,0.18192171341975227]","[1,1,1]","[-0.008039158623108014,0.051810632163143105]","[1,1,1]","[0.05103570806065439,-0.15350187374034205]","[-1,-1,-1]","[0.06375832082137482,0.004316393136916679]","[1,1,1]","[0.13346348354894533,0.013808628129569522]","[-1,-1,-1]","[-0.15275673636910733,-0.03534888556009704]","[-1,-1,-1]","[0.04773989122136291,0.0769322106950436]","[1,1,1]","[0.11911428787550583,0.13866305273744053]","[-1,-1,-1]","[-0.11670112613296313,-0.11208836068857805]","[1,1,1]","[-0.08863602387478492,0.05583831126307708]","[-1,-1,-1]","[-0.004919991807556964,-0.04476901147166582]","[1,1,1]","[0.16903290735413237,0.03791338466936516]","[1,1,1]","[-0.19068474294081622,0.03240163367171217]","[1,1,1]","[0.02401815009526892,-0.011175528399749913]","[1,1,1]","[-0.009588130506695228,-0.1251081397950561]","[1,1,1]","[-0.015796323562913123,-0.17450672249948979]","[1,1,1]","[-0.08054100759033772,-0.017800709753142668]","[1,1,1]","[-0.08081948631409316,-0.07992996819928465]","[1,1,1]","[0.09026930584735308,-0.17480119251962536]","[1,1,1]","[-0.15392768673835758,-0.09597858408211325]","[1,1,1]","[0.18156687759931617,-0.07216346375264229]","[1,1,1]","[0.024361313145862998,-0.08937535120496638]","[-1,-1,-1]","[0.007200120947921883,0.18424413081489058]","[-1,-1,-1]","[0.1288904524516226,-0.10060902215828854]","[-1,-1,-1]","[0.13865868425136657,-0.03309827833081075]","[-1,-1,-1]","[0.09480862187507748,-0.05616549995003044]","[1,1,1]","[-0.13109559283925945,0.010131543112701757]","[-1,-1,-1]","[-0.1009877815296219,-0.1608908537407191]","[-1,-1,-1]","[0.0048107693078003645,0.11615906168546483]","[1,1,1]","[-0.047542021070222984,0.015388674427633756]","[1,1,1]","[0.12322101416481042,-0.14523702078229]","[-1,-1,-1]","[-0.056770723128522486,0.09933616449068462]","[-1,-1,-1]","[0.02,0.02]",173.0489,0,36,36,167,1,,,,,,,
,,,,,,,66031000461c44484ac359a8,682f0fb48d49f6a87dab403e,2025-05-22_14h51.48.513,cuing_paradigm_dot,2024.1.5,Win32,60.24096386,682d573fa47f1360d1451895,,,,,,,,,,,173.0494,173.5489,,,173.8015,174.0722,right,,,,,,,,0.55,0.253,,,,,,,173.549,173.8015,174.0722,"[0.06659224631168562,0.059437329383704364]","[-1,-1,-1]","[0.04643210812561594,-0.18656915697307133]","[1,1,1]","[0.1319227295818888,0.13724494036177584]","[1,1,1]","[-0.10421579961583743,-0.1298106837892966]","[1,1,1]","[0.09085958673739727,-0.11910288158842836]","[-1,-1,-1]","[-0.08211003038615551,-0.07416830675341703]","[-1,-1,-1]","[0.10817693053601365,0.08013105277957677]","[1,1,1]","[-0.04990627982039055,0.1590609350125488]","[-1,-1,-1]","[-0.02627931627156822,-0.06071812381251883]","[-1,-1,-1]","[-0.09363466802237237,0.15546928105961186]","[1,1,1]","[0.0014580046318001117,-0.19338666765253695]","[1,1,1]","[0.00208699214466798,0.09703470794485093]","[1,1,1]","[-0.17593865723920885,0.006027160087492277]","[-1,-1,-1]","[-0.03943750979455164,-0.11677174782187356]","[1,1,1]","[0.1434689689212417,-0.13788624804942506]","[1,1,1]","[0.08819023524694737,0.15581555060828867]","[-1,-1,-1]","[-0.03240663325791897,0.05735362501059506]","[-1,-1,-1]","[-0.11554573288333131,-0.028738739068172946]","[1,1,1]","[0.048903078155926004,-0.13678439957151273]","[-1,-1,-1]","[-0.14548945347078057,-0.1343454624584969]","[-1,-1,-1]","[0.19322021381986215,-0.022032881683702776]","[1,1,1]","[0.0020961037823242924,-0.13622082925573487]","[-1,-1,-1]","[0.09136725166370795,-0.031162932221887898]","[1,1,1]","[0.04247463026597474,0.00930654090311045]","[1,1,1]","[-0.08142607202937006,0.01936665822795153]","[1,1,1]","[-0.0325096706498035,-0.0035679892264843]","[1,1,1]","[-0.07128296222151463,-0.1564273536345771]","[1,1,1]","[0.008107752658288107,0.18116619179849186]","[-1,-1,-1]","[0.15261583468955037,-0.056360648445899525]","[1,1,1]","[0.07387501958804635,0.10252200977511301]","[1,1,1]","[-0.11003349645447016,0.08114640216529782]","[-1,-1,-1]","[0.11760045145327089,0.02492491187835479]","[-1,-1,-1]","[0.02,0.02]",175.1654,0,37,37,146,1,,,,,,,
,,,,,,,66031000461c44484ac359a8,682f0fb48d49f6a87dab403e,2025-05-22_14h51.48.513,cuing_paradigm_dot,2024.1.5,Win32,60.24096386,682d573fa47f1360d1451895,,,,,,,,,,,175.1662,175.6656,,,175.9158,176.0656,left,,,,,,,,0.9,0.1213,,,,,,,175.6657,175.9158,176.0658,"[0.1603211328023614,-0.09524297037840818]","[1,1,1]","[-0.09745609306138946,0.0649373829310992]","[1,1,1]","[0.017139045545079744,0.06055355706305119]","[1,1,1]","[0.17608524612679471,0.05174807220169918]","[1,1,1]","[-0.09641695561183786,-0.09198508809759513]","[1,1,1]","[0.10646768383060391,0.0366344925959686]","[1,1,1]","[-0.010591994470460787,-0.011720447294991058]","[1,1,1]","[0.07570316504620123,-0.032161109479313915]","[1,1,1]","[0.14172225632742158,-0.044548469519050726]","[1,1,1]","[0.008769400594253723,-0.11395853770017234]","[1,1,1]","[0.14698131885040833,0.1351739669523428]","[1,1,1]","[0.03485069579187244,0.17437940870645013]","[1,1,1]","[-0.06969176373957475,0.008812190421092764]","[1,1,1]","[-0.1737647395647092,-0.026233823874837577]","[1,1,1]","[0.07881843914012529,-0.08700713313210934]","[1,1,1]","[-0.059401426220566086,0.16021057219138546]","[1,1,1]","[-0.03144540137657548,0.043976319714935756]","[1,1,1]","[-0.04799710830107145,-0.15764371142290884]","[-1,-1,-1]","[-0.120928433475082,-0.028475149964775993]","[1,1,1]","[0.09478905407027531,-0.14707638527843597]","[-1,-1,-1]","[0.05388224761175904,-0.15702141445111828]","[-1,-1,-1]","[0.07877971116344935,0.12709673886374248]","[1,1,1]","[-0.17268843566140696,0.09044992974696409]","[1,1,1]","[0.019179168940224665,-0.1990737937065799]","[1,1,1]","[-0.14762535030415325,0.029825702735708896]","[1,1,1]","[-0.021807579059798,0.09097962007203983]","[1,1,1]","[-0.09922399095890942,-0.1595471166434267]","[1,1,1]","[-0.04293765853635244,-0.06767293274279876]","[1,1,1]","[0.14365501315866333,-0.13680711148265723]","[1,1,1]","[-0.020062336812200023,0.13951406261356622]","[1,1,1]","[0.17735430560376217,0.0035089356491879663]","[1,1,1]","[-0.13325344644663492,-0.12496091463354911]","[1,1,1]","[0.02,0.02]",177.1652,0,38,38,207,1,,,,,,,
,,,,,,,66031000461c44484ac359a8,682f0fb48d49f6a87dab403e,2025-05-22_14h51.48.513,cuing_paradigm_dot,2024.1.5,Win32,60.24096386,682d573fa47f1360d1451895,,,,,,,,,,,177.1658,177.6651,,,177.9158,178.0986,right,,,,,,,,0.55,0.1532,,,,,,,177.6652,177.9157,178.0987,"[-0.18894654786359255,-0.03084405314537496]","[1,1,1]","[-0.10425433800249101,-0.14418684988578695]","[1,1,1]","[0.017142986683773134,-0.055156720067167576]","[1,1,1]","[0.16772824915574353,-0.09408782244629654]","[1,1,1]","[0.007178777648026167,0.14374435863003265]","[-1,-1,-1]","[0.0718328322822537,0.17351901482098636]","[1,1,1]","[0.012677344114211887,-0.015079184427955484]","[-1,-1,-1]","[0.11190955193237008,-0.06281208091000903]","[1,1,1]","[-0.17618551833739204,0.09142104652671648]","[-1,-1,-1]","[0.1577394303693663,0.06355360298175215]","[1,1,1]","[-0.052170709311110175,0.02592202243657642]","[-1,-1,-1]","[-0.12478836010870535,-0.0956182742531404]","[-1,-1,-1]","[-0.17102247311379015,0.014038000744816948]","[1,1,1]","[0.13352912500972744,0.14852034853008733]","[-1,-1,-1]","[-0.16386979565981066,-0.0672300668089506]","[-1,-1,-1]","[-0.08528009868866625,-0.024873161195320036]","[-1,-1,-1]","[-0.04425329273596497,0.17691616390289516]","[1,1,1]","[0.03467708662868328,0.08838293288302847]","[1,1,1]","[-0.025334899788945167,0.08168539287350299]","[1,1,1]","[0.06587478609083142,-0.10138954741353297]","[-1,-1,-1]","[0.05732520395792486,0.05062275833677648]","[-1,-1,-1]","[0.12866742354855837,0.0341718045315654]","[1,1,1]","[-0.05662179220965289,-0.1083787829321272]","[-1,-1,-1]","[0.14625126278486847,-0.01160772878515644]","[1,1,1]","[-0.11232017213505799,0.11983785429426706]","[1,1,1]","[-0.0050964972869281455,-0.17756880228947425]","[1,1,1]","[0.0027002830972476023,0.18588175381547806]","[1,1,1]","[0.000043880094967672594,-0.12369391182866044]","[-1,-1,-1]","[0.09544198323416848,0.0905418667788282]","[-1,-1,-1]","[-0.01270242626307515,0.018992943750700018]","[1,1,1]","[0.1349581768337079,-0.11853186063479075]","[1,1,1]","[0.08798653331901012,-0.1770696204173902]","[-1,-1,-1]","[0.02,0.02]",179.1985,0,39,39,125,1,,,,,,,
,,,,,,,66031000461c44484ac359a8,682f0fb48d49f6a87dab403e,2025-05-22_14h51.48.513,cuing_paradigm_dot,2024.1.5,Win32,60.24096386,682d573fa47f1360d1451895,,,,,,,,,,,179.1993,179.6985,,,179.9525,180.3484,left,,,,,,,,0.6,0.3724,,,,,,,179.6985,179.9525,180.3485,"[0.14215981884636292,0.09020157940761332]","[-1,-1,-1]","[0.08131031326363454,-0.09478902667556784]","[1,1,1]","[0.020037884487562066,0.1624521610583148]","[1,1,1]","[0.041362530983986755,-0.12001972427084379]","[1,1,1]","[-0.10368002711770284,0.0076204176612228]","[1,1,1]","[-0.15137610455124278,-0.04267262504821892]","[-1,-1,-1]","[-0.03734613204834341,0.044602410025771894]","[1,1,1]","[-0.03712470967421714,-0.053932410152257096]","[1,1,1]","[0.06163594915644017,0.1206085302460283]","[-1,-1,-1]","[-0.14622131587736287,0.07552079886919726]","[1,1,1]","[-0.08361979158438529,0.16464696152697353]","[1,1,1]","[-0.0779774359703655,-0.02830325491449583]","[1,1,1]","[0.010447964950498214,0.09425083158919854]","[-1,-1,-1]","[-0.07579485449864291,0.08488541281200573]","[1,1,1]","[0.13905844968804043,-0.02363076212058633]","[-1,-1,-1]","[0.09184983220685096,-0.012432185801191983]","[1,1,1]","[0.0018797738310153246,-0.14540601210527127]","[1,1,1]","[0.035544667892695975,-0.16963792310881917]","[1,1,1]","[0.07757359815027108,-0.13975988600737174]","[-1,-1,-1]","[0.018702594661080575,0.005836869940832692]","[1,1,1]","[0.04334721716718485,0.04432408197131588]","[-1,-1,-1]","[0.12663336407326375,0.05309395446839127]","[1,1,1]","[0.12450294798334843,-0.12530508410069502]","[1,1,1]","[-0.026055780937028927,-0.1852014845385655]","[-1,-1,-1]","[0.09244371195800023,0.07809526711358178]","[1,1,1]","[0.18239561645464528,0.0352184237476056]","[-1,-1,-1]","[0.009747937372412686,-0.03526142642107355]","[-1,-1,-1]","[-0.024255987004717722,-0.005557493983022119]","[1,1,1]","[-0.05592254998339107,-0.09430913368429421]","[1,1,1]","[-0.09630270286597928,-0.1449129706340161]","[-1,-1,-1]","[-0.17449255836670052,0.04535927205308726]","[-1,-1,-1]","[0.1744015986176929,-0.06310087756950239]","[-1,-1,-1]","[0.02,0.02]",181.4479,0,40,40,172,1,,,,,,,
,,,,,,,66031000461c44484ac359a8,682f0fb48d49f6a87dab403e,2025-05-22_14h51.48.513,cuing_paradigm_dot,2024.1.5,Win32,60.24096386,682d573fa47f1360d1451895,,,,,,,,,,,181.4485,181.95,,,182.1984,182.5646,left,,,,,,,,0.55,0.346,,,,,,,181.95,182.1983,182.5647,"[0.12301014418011351,0.037569150019860185]","[-1,-1,-1]","[-0.11812394943892987,0.04926846279307809]","[-1,-1,-1]","[-0.049868903905286935,0.15887111807549464]","[-1,-1,-1]","[0.04079742336491399,-0.04713609732817174]","[-1,-1,-1]","[0.08666104403282587,-0.08410561421996035]","[1,1,1]","[-0.06568524738083638,-0.07881930002199954]","[1,1,1]","[0.12382118365124886,-0.1194438713667702]","[1,1,1]","[0.024255154744096293,0.06751093207036313]","[1,1,1]","[-0.14086632098604943,-0.12163697572084897]","[-1,-1,-1]","[0.11197930568007827,-0.0387733573013405]","[1,1,1]","[0.17643371428882262,0.04652535459851143]","[1,1,1]","[-0.005819121300985785,-0.07567365639327636]","[1,1,1]","[-0.06425002505892548,-0.17376723191962493]","[1,1,1]","[-0.02273221794743521,-0.03910460928889535]","[1,1,1]","[0.035087721317814034,0.006279759316562391]","[-1,-1,-1]","[0.019215150477544896,-0.16795518345335694]","[-1,-1,-1]","[0.03325604140909875,0.17590950546609144]","[-1,-1,-1]","[-0.18035999929758803,0.03512710933889015]","[-1,-1,-1]","[-0.05485501373187853,0.07174517549281004]","[-1,-1,-1]","[0.09994599115481848,0.14499544963369557]","[1,1,1]","[0.08859353158159455,0.0011909020946221387]","[-1,-1,-1]","[0.03746251504368321,-0.1309525057714529]","[-1,-1,-1]","[0.06373954075600842,-0.16497593208322942]","[1,1,1]","[0.07685626502736015,0.08760286324152414]","[1,1,1]","[-0.11129821687878882,-0.08222935795024283]","[1,1,1]","[-0.020427256996404446,0.19129218819467908]","[1,1,1]","[-0.18799955884587413,-0.022459245618826177]","[1,1,1]","[-0.06533974979435772,-0.1258299136993864]","[1,1,1]","[-0.15224625434916422,0.003990363631008909]","[1,1,1]","[-0.08459774867038078,-0.04144818283687271]","[1,1,1]","[-0.10564017332529796,-0.14101580730766453]","[-1,-1,-1]","[-0.01116534957362432,-0.13619197342665507]","[-1,-1,-1]","[0.02,0.02]",183.6641,0,41,41,123,1,,,,,,,
,,,,,,,66031000461c44484ac359a8,682f0fb48d49f6a87dab403e,2025-05-22_14h51.48.513,cuing_paradigm_dot,2024.1.5,Win32,60.24096386,682d573fa47f1360d1451895,,,,,,,,,,,183.6647,184.1642,,,184.4146,184.6828,right,,,,,,,,0.4,0.248,,,,,,,184.1643,184.4145,184.6828,"[0.06310463355372992,0.0011635768134985124]","[-1,-1,-1]","[-0.13145109384171896,0.10924912742040968]","[1,1,1]","[-0.03742365752243465,0.10972172088080408]","[1,1,1]","[-0.021330531204305142,0.021157117066702986]","[-1,-1,-1]","[-0.1739079760196266,-0.0683261298987605]","[1,1,1]","[0.06850932131210859,-0.041390210627209316]","[-1,-1,-1]","[0.007809202929983026,-0.18426383466884474]","[-1,-1,-1]","[-0.07717198613207371,0.12192504055117791]","[1,1,1]","[0.06894723025407141,0.05718627939809742]","[1,1,1]","[-0.12402406783159976,-0.11346924684445843]","[1,1,1]","[-0.037781850669587204,0.06177003905520844]","[-1,-1,-1]","[0.12043106448493493,0.05329992162848459]","[-1,-1,-1]","[0.026867722702626946,0.0770762041974316]","[1,1,1]","[-0.16481411015255212,0.040637073566692196]","[-1,-1,-1]","[0.1346622340918695,0.008001449242962096]","[-1,-1,-1]","[-0.05330030325956387,-0.07355028515147483]","[1,1,1]","[0.04650933990807114,0.14522469695393136]","[1,1,1]","[-0.13850359907173643,0.0069349069367584375]","[-1,-1,-1]","[-0.021621739928093398,-0.13796130733530207]","[-1,-1,-1]","[0.1665908045928451,0.09036208205864794]","[-1,-1,-1]","[0.09296759468608996,0.1680250125895005]","[1,1,1]","[-0.02734306246825025,-0.04234762395430199]","[-1,-1,-1]","[0.025056286254134953,-0.12603936581289646]","[-1,-1,-1]","[-0.06813192387346323,-0.029509516447357078]","[1,1,1]","[-0.1297058183560251,-0.049177620753431406]","[-1,-1,-1]","[-0.04324043495303245,0.1601967726585947]","[-1,-1,-1]","[-0.054856046789821165,-0.1618615627447052]","[-1,-1,-1]","[-0.1306978849184181,0.06596920089938173]","[-1,-1,-1]","[0.15958812945207773,-0.06882865065332151]","[1,1,1]","[0.08440105575143957,0.11684867662942852]","[-1,-1,-1]","[-0.08841697620235792,0.034153491092702215]","[1,1,1]","[0.13422522713940396,-0.1324841252759524]","[-1,-1,-1]","[0.02,0.02]",185.7806,0,42,42,39,1,,,,,,,
,,,,,,,66031000461c44484ac359a8,682f0fb48d49f6a87dab403e,2025-05-22_14h51.48.513,cuing_paradigm_dot,2024.1.5,Win32,60.24096386,682d573fa47f1360d1451895,,,,,,,,,,,185.7811,186.2808,,,186.5309,186.8473,left,,,,,,,,0.55,0.295,,,,,,,186.2809,186.5308,186.8474,"[0.09052857162285248,0.05277908931855539]","[-1,-1,-1]","[-0.0424189503156447,0.10622814894110139]","[-1,-1,-1]","[0.06366560575062974,-0.0834264995808371]","[-1,-1,-1]","[0.12398655270615738,0.020895061264994092]","[1,1,1]","[-0.04617784164277936,-0.04970090374124431]","[1,1,1]","[0.18482004912057454,-0.04835473868081363]","[1,1,1]","[-0.023272569163855325,-0.13298640886040372]","[1,1,1]","[-0.14402160210059614,0.03926340259727046]","[1,1,1]","[0.025359935925142324,0.11854159656428093]","[1,1,1]","[0.16697558502583618,0.012407467289792834]","[-1,-1,-1]","[-0.0020921036519040348,-0.17602049152775948]","[1,1,1]","[0.01943282655707847,-0.0687542169445956]","[1,1,1]","[0.0681965166820063,0.13549697148000137]","[-1,-1,-1]","[-0.04016859215419558,0.007211674025361654]","[-1,-1,-1]","[0.16066377766201437,0.07383164971363902]","[1,1,1]","[0.066849483260432,-0.1601093008244293]","[-1,-1,-1]","[-0.10451076630957815,0.023274231351905244]","[1,1,1]","[0.06035723252334994,0.09324655540593754]","[1,1,1]","[0.13657557725811995,-0.07523939679318303]","[1,1,1]","[-0.10954803127636709,-0.10239370836134987]","[-1,-1,-1]","[-0.14487527167184674,-0.07624978991768375]","[1,1,1]","[-0.13508137975773307,-0.005941492119850219]","[-1,-1,-1]","[-0.1017239846273221,-0.046365780914430124]","[1,1,1]","[-0.18138916726438556,-0.0241817297016062]","[1,1,1]","[-0.15988077516907545,-0.11336419785334566]","[-1,-1,-1]","[-0.18830638334340521,-0.06558621077871488]","[1,1,1]","[-0.007396559908127264,-0.026439358245576243]","[1,1,1]","[0.12856633561640096,-0.030755201178518793]","[-1,-1,-1]","[0.021056600587269624,-0.12548368707545232]","[-1,-1,-1]","[0.11553806796880121,0.16238245072571347]","[-1,-1,-1]","[0.087686841434915,-0.12513443293223922]","[-1,-1,-1]","[-0.18030828301935278,0.01928242908170697]","[1,1,1]","[0.02,0.02]",187.9471,0,43,43,134,1,,,,,,,
,,,,,,,66031000461c44484ac359a8,682f0fb48d49f6a87dab403e,2025-05-22_14h51.48.513,cuing_paradigm_dot,2024.1.5,Win32,60.24096386,682d573fa47f1360d1451895,,,,,,,,,,,187.9478,188.4471,,,188.6975,189.0973,left,,,,,,,,0.6,0.3698,,,,,,,188.4472,188.6974,189.0975,"[0.01928488693624029,-0.10039719143453431]","[-1,-1,-1]","[0.08385075867013535,-0.06754409838327499]","[1,1,1]","[-0.11715902812134947,0.11813822116129598]","[1,1,1]","[-0.1675330221162046,-0.012416194180365714]","[-1,-1,-1]","[-0.03214527591252552,0.045256770625502846]","[1,1,1]","[0.08518055176485095,0.15514107526808602]","[-1,-1,-1]","[0.14514190956110004,0.1317611407366044]","[1,1,1]","[-0.118482360701324,-0.12653811420209782]","[-1,-1,-1]","[-0.08047018259066059,-0.06113459976210651]","[1,1,1]","[0.07743299596168801,-0.1244067320005513]","[1,1,1]","[0.1454019475729432,-0.0454810551292657]","[1,1,1]","[-0.08051038228435245,0.13854123059451542]","[-1,-1,-1]","[-0.017534035757710783,-0.16295251208599085]","[1,1,1]","[0.16297022997640084,-0.1114742750935056]","[1,1,1]","[-0.08330839538371405,0.0880304120781488]","[1,1,1]","[0.04088891117069797,-0.1606211276713276]","[-1,-1,-1]","[0.13238650149974665,0.014899624333929981]","[-1,-1,-1]","[-0.011841581675655327,0.1361587226957422]","[-1,-1,-1]","[0.024903328244208035,-0.05513082623165514]","[1,1,1]","[0.16236821371596502,0.053204723684661934]","[-1,-1,-1]","[-0.14626725584121028,-0.07484216040213147]","[-1,-1,-1]","[0.05467868284465902,-0.018791584393596152]","[1,1,1]","[0.12690295498775803,0.07548907937967658]","[1,1,1]","[-0.17824190806913662,0.05693205229257046]","[1,1,1]","[0.1913152068974175,-0.034166814783064936]","[1,1,1]","[0.11967552426309437,-0.09389803265411889]","[-1,-1,-1]","[0.059189300212822864,0.0291496786312215]","[-1,-1,-1]","[-0.048608134873425295,0.18607293908044018]","[1,1,1]","[-0.043377866781473325,0.0019019298685339604]","[1,1,1]","[-0.03675398926689938,-0.04454749231089854]","[1,1,1]","[0.11875576780515454,-0.14808088754527576]","[-1,-1,-1]","[-0.024212759488245843,0.09420861134040619]","[1,1,1]","[0.02,0.02]",190.1971,0,44,44,163,1,,,,,,,
