right,left,explain.started,explain.stopped,key_resp_3.keys,key_resp_3.rt,key_resp_3.duration,participant,session,date,expName,psychopyVersion,OS,frameRate,study_id,explain_2.started,explain_2.stopped,key_resp_4.keys,key_resp_4.rt,key_resp_4.duration,explain_3.started,explain_3.stopped,key_resp_5.keys,key_resp_5.rt,key_resp_5.duration,fixation.started,fixation.stopped,practice.started,practice.stopped,response.started,response.stopped,key_resp.keys,feedback.started,feedback.stopped,trials_2.thisRepN,trials_2.thisTrialN,trials_2.thisN,trials_2.thisIndex,trials_2.ran,white_ratio,key_resp.rt,key_resp.duration,explain_4.started,explain_4.stopped,key_resp_6.keys,key_resp_6.rt,key_resp_6.duration,dotDisplay.started,dotDisplay.stopped,ITI.started,polygon_1.pos,polygon_1.color,polygon_2.pos,polygon_2.color,polygon_3.pos,polygon_3.color,polygon_4.pos,polygon_4.color,polygon_5.pos,polygon_5.color,polygon_6.pos,polygon_6.color,polygon_7.pos,polygon_7.color,polygon_8.pos,polygon_8.color,polygon_9.pos,polygon_9.color,polygon_10.pos,polygon_10.color,polygon_11.pos,polygon_11.color,polygon_12.pos,polygon_12.color,polygon_13.pos,polygon_13.color,polygon_14.pos,polygon_14.color,polygon_15.pos,polygon_15.color,polygon_16.pos,polygon_16.color,polygon_17.pos,polygon_17.color,polygon_18.pos,polygon_18.color,polygon_19.pos,polygon_19.color,polygon_20.pos,polygon_20.color,polygon_21.pos,polygon_21.color,polygon_22.pos,polygon_22.color,polygon_23.pos,polygon_23.color,polygon_24.pos,polygon_24.color,polygon_25.pos,polygon_25.color,polygon_26.pos,polygon_26.color,polygon_27.pos,polygon_27.color,polygon_28.pos,polygon_28.color,polygon_29.pos,polygon_29.color,polygon_30.pos,polygon_30.color,polygon_31.pos,polygon_31.color,polygon_32.pos,polygon_32.color,dot_size,ITI.stopped,trials.thisRepN,trials.thisTrialN,trials.thisN,trials.thisIndex,trials.ran,break_2.started,break_2.stopped,trials_3.thisRepN,trials_3.thisTrialN,trials_3.thisN,trials_3.thisIndex,trials_3.ran
subject chose black,subject chose white,0.0004,28.934,space,13.9182,,661ff24e9467d613b27d05ac,682f0fbb4c8f26e6ad97c067,2025-05-22_13h51.34.513,cuing_paradigm_dot,2024.1.5,Win32,60.24096386,682d573fa47f1360d1451895,,,,,,,,,,,,,,,,,,,,,,,,,,,,,,,,,,,,,,,,,,,,,,,,,,,,,,,,,,,,,,,,,,,,,,,,,,,,,,,,,,,,,,,,,,,,,,,,,,,,,,,,,,,,,,,,,
,,,,,,,661ff24e9467d613b27d05ac,682f0fbb4c8f26e6ad97c067,2025-05-22_13h51.34.513,cuing_paradigm_dot,2024.1.5,Win32,60.24096386,682d573fa47f1360d1451895,28.9344,73.1776,space,14.2179,,,,,,,,,,,,,,,,,,,,,,,,,,,,,,,,,,,,,,,,,,,,,,,,,,,,,,,,,,,,,,,,,,,,,,,,,,,,,,,,,,,,,,,,,,,,,,,,,,,,,,,,,,,,,
,,,,,,,661ff24e9467d613b27d05ac,682f0fbb4c8f26e6ad97c067,2025-05-22_13h51.34.513,cuing_paradigm_dot,2024.1.5,Win32,60.24096386,682d573fa47f1360d1451895,,,,,,73.1777,88.493,space,12.3121,,,,,,,,,,,,,,,,,,,,,,,,,,,,,,,,,,,,,,,,,,,,,,,,,,,,,,,,,,,,,,,,,,,,,,,,,,,,,,,,,,,,,,,,,,,,,,,,,,,,,,,,
,,,,,,,661ff24e9467d613b27d05ac,682f0fbb4c8f26e6ad97c067,2025-05-22_13h51.34.513,cuing_paradigm_dot,2024.1.5,Win32,60.24096386,682d573fa47f1360d1451895,,,,,,,,,,,88.5069,88.9933,88.9936,89.244,89.2441,90.7453,,90.7455,91.8464,0,0,0,0,1,0.8,,,,,,,,,,,,,,,,,,,,,,,,,,,,,,,,,,,,,,,,,,,,,,,,,,,,,,,,,,,,,,,,,,,,,,,,,,,,,,,,,,,,,,,,
,,,,,,,661ff24e9467d613b27d05ac,682f0fbb4c8f26e6ad97c067,2025-05-22_13h51.34.513,cuing_paradigm_dot,2024.1.5,Win32,60.24096386,682d573fa47f1360d1451895,,,,,,,,,,,91.8469,92.3464,92.3464,92.5972,92.5973,92.964,right,92.9641,94.0648,0,1,1,1,1,0.2,0.3506,,,,,,,,,,,,,,,,,,,,,,,,,,,,,,,,,,,,,,,,,,,,,,,,,,,,,,,,,,,,,,,,,,,,,,,,,,,,,,,,,,,,,,,
,,,,,,,661ff24e9467d613b27d05ac,682f0fbb4c8f26e6ad97c067,2025-05-22_13h51.34.513,cuing_paradigm_dot,2024.1.5,Win32,60.24096386,682d573fa47f1360d1451895,,,,,,,,,,,,,,,,,,,,,,,,,,,,94.0651,97.6524,space,0.5718,,,,,,,,,,,,,,,,,,,,,,,,,,,,,,,,,,,,,,,,,,,,,,,,,,,,,,,,,,,,,,,,,,,,,,,,,,,,,,,,,,
,,,,,,,661ff24e9467d613b27d05ac,682f0fbb4c8f26e6ad97c067,2025-05-22_13h51.34.513,cuing_paradigm_dot,2024.1.5,Win32,60.24096386,682d573fa47f1360d1451895,,,,,,,,,,,97.6623,98.1528,,,98.4032,98.8195,right,,,,,,,,0.5,0.403,,,,,,,98.1534,98.4032,98.8199,"[0.1420442610473483,0.0027966511207619623]","[1,1,1]","[-0.07503545263809719,0.16497987769519898]","[1,1,1]","[-0.09118784054798425,0.03828157642632905]","[1,1,1]","[-0.17893145086973464,0.0018802847387942958]","[-1,-1,-1]","[0.12773507435750206,-0.13044648909926146]","[-1,-1,-1]","[0.04056607392206084,-0.0026070156421475004]","[1,1,1]","[0.16572533680541301,0.050906915806235985]","[-1,-1,-1]","[0.03770327559361377,0.16293077708537654]","[-1,-1,-1]","[0.012856737217574726,0.09129027945612181]","[-1,-1,-1]","[0.19091020128392983,0.003996681209066587]","[1,1,1]","[-0.1792245949652686,0.08636710218384393]","[-1,-1,-1]","[-0.10559756523551216,-0.15227201586186834]","[-1,-1,-1]","[0.09830941435742958,-0.08470727019767202]","[-1,-1,-1]","[-0.1338636165813294,0.030048397874898398]","[-1,-1,-1]","[0.1370766385024765,-0.039896113750725305]","[-1,-1,-1]","[0.09858390313085937,0.15567842147434796]","[1,1,1]","[0.0016217522728427087,-0.13736456714012807]","[1,1,1]","[-0.06311754324488678,-0.17029952284537658]","[1,1,1]","[-0.12104639940842163,0.08786775634835316]","[1,1,1]","[0.14662111654966464,0.12325963975991919]","[-1,-1,-1]","[-0.10592829567404892,-0.029033897540261453]","[1,1,1]","[-0.056961496596350206,-0.0018700873248925596]","[-1,-1,-1]","[0.0029402494967220374,0.041456399009404794]","[1,1,1]","[0.05456393223767881,-0.17681686587344467]","[-1,-1,-1]","[0.026877958135022383,-0.06538625239605506]","[-1,-1,-1]","[0.06116859655651252,-0.10451682906572725]","[1,1,1]","[-0.034999355037163345,0.17626040955428324]","[-1,-1,-1]","[-0.19371450945014076,0.04873925873875437]","[1,1,1]","[0.016389197705638993,-0.1974760822303257]","[1,1,1]","[-0.10607785491965789,-0.09655660357343845]","[-1,-1,-1]","[-0.17193325022769945,-0.09275695218378725]","[1,1,1]","[0.09910639170222094,0.1054903550932348]","[1,1,1]","[0.02,0.02]",99.9212,0,0,0,94,1,,,,,,,
,,,,,,,661ff24e9467d613b27d05ac,682f0fbb4c8f26e6ad97c067,2025-05-22_13h51.34.513,cuing_paradigm_dot,2024.1.5,Win32,60.24096386,682d573fa47f1360d1451895,,,,,,,,,,,99.9218,100.4213,,,100.672,101.156,right,,,,,,,,0.6,0.4795,,,,,,,100.4214,100.672,101.1561,"[-0.03160335701727882,0.11347651449934688]","[-1,-1,-1]","[-0.10250540494685119,0.04847069188281666]","[-1,-1,-1]","[-0.1556814300436507,-0.032507037465050355]","[-1,-1,-1]","[0.09009690068513987,0.0005770800937858284]","[-1,-1,-1]","[-0.15762790001925975,-0.09140058145165672]","[1,1,1]","[-0.03508820865941548,-0.04082397246162725]","[1,1,1]","[0.061187966350265376,0.054444772599621175]","[-1,-1,-1]","[-0.10740299692419769,-0.06668005299195315]","[1,1,1]","[-0.013197727598714884,-0.14578253710285127]","[1,1,1]","[0.012630052220494873,0.18138314331450536]","[1,1,1]","[-0.09148241582550082,0.005158731410034389]","[-1,-1,-1]","[-0.043015927056425644,0.016523045216519025]","[-1,-1,-1]","[0.013989091660408454,-0.17761921019184587]","[1,1,1]","[-0.13968323181592077,0.12599180922550832]","[1,1,1]","[-0.18429672239891431,0.05517895890257785]","[-1,-1,-1]","[0.08099404364083625,-0.1063903071175839]","[1,1,1]","[0.06917925600474463,0.17208962452517884]","[1,1,1]","[0.13528843978542388,-0.12604736552367604]","[1,1,1]","[-0.06334311195170325,0.08069508387291878]","[-1,-1,-1]","[0.16178700607820498,-0.04138004619443652]","[-1,-1,-1]","[0.004475683413663695,-0.052143733605233986]","[1,1,1]","[-0.09750889225299568,0.16848985633552258]","[-1,-1,-1]","[-0.04572463028031982,0.19042249625055438]","[1,1,1]","[-0.05894997248915994,-0.1791556782941798]","[1,1,1]","[0.005816929571375054,0.006910005187089767]","[1,1,1]","[0.12915768765081717,0.05440992047723384]","[1,1,1]","[-0.11634432241085989,-0.13548127852035338]","[1,1,1]","[-0.06646015678240855,-0.06851379694113184]","[1,1,1]","[0.10724879853881904,-0.04124355368148487]","[-1,-1,-1]","[0.0998082154707531,0.10705665949678585]","[1,1,1]","[0.02508935530549699,0.12216012975275395]","[-1,-1,-1]","[-0.00009760734842945229,-0.09219262633590053]","[1,1,1]","[0.02,0.02]",102.2565,0,1,1,176,1,,,,,,,
,,,,,,,661ff24e9467d613b27d05ac,682f0fbb4c8f26e6ad97c067,2025-05-22_13h51.34.513,cuing_paradigm_dot,2024.1.5,Win32,60.24096386,682d573fa47f1360d1451895,,,,,,,,,,,102.2569,102.7571,,,103.0074,103.3912,right,,,,,,,,0.1,0.3761,,,,,,,102.7571,103.0073,103.3913,"[-0.09485164979459482,0.09237615983996522]","[-1,-1,-1]","[0.025086915783147676,-0.023900369945586832]","[-1,-1,-1]","[-0.16993281601925925,-0.048754259997830666]","[-1,-1,-1]","[-0.17858809249558086,0.012321428825781917]","[-1,-1,-1]","[0.15489330374452914,-0.07450958911001905]","[-1,-1,-1]","[-0.058082270936909965,0.1665441214247894]","[-1,-1,-1]","[0.03761178227320143,0.11910474109106627]","[-1,-1,-1]","[0.09250532768242409,-0.0027887784280865844]","[-1,-1,-1]","[0.009299852113047267,-0.1595624939634952]","[-1,-1,-1]","[0.18211847942350903,-0.000673740459945226]","[-1,-1,-1]","[-0.09911801386803418,-0.013479474624102629]","[-1,-1,-1]","[0.05631722153208677,0.016177608346524142]","[-1,-1,-1]","[-0.041233674665852184,-0.1819264859812225]","[-1,-1,-1]","[-0.09774384398866771,0.14813230236022587]","[-1,-1,-1]","[-0.086572061379342,-0.14231151528883174]","[-1,-1,-1]","[-0.13305146014777394,0.03931867443405272]","[-1,-1,-1]","[-0.1369120198957455,-0.07645997538397405]","[-1,-1,-1]","[-0.03550439492048585,-0.048432491509553366]","[1,1,1]","[-0.16146497190965886,0.10538059886549186]","[-1,-1,-1]","[0.0386064635546003,0.06154773291360715]","[-1,-1,-1]","[0.10360143241502177,0.0568947283057362]","[1,1,1]","[0.09032597686502727,-0.13555210377687876]","[-1,-1,-1]","[0.03529840284521277,-0.06644271692567706]","[-1,-1,-1]","[-0.033635521305311215,0.04052619890469566]","[-1,-1,-1]","[-0.03405722826364312,0.09297895890789337]","[-1,-1,-1]","[0.027399630019788204,0.1717941236932149]","[-1,-1,-1]","[0.07650632740296072,-0.047898224714725525]","[-1,-1,-1]","[0.06900533649829718,-0.17760539829072877]","[-1,-1,-1]","[-0.008693998262652563,-0.08584044538772978]","[-1,-1,-1]","[0.14181125132342595,-0.11337468330420175]","[-1,-1,-1]","[-0.17760625275448283,0.054419090432195706]","[-1,-1,-1]","[0.14144886740651763,0.08461528295343829]","[1,1,1]","[0.02,0.02]",104.4922,0,2,2,4,1,,,,,,,
,,,,,,,661ff24e9467d613b27d05ac,682f0fbb4c8f26e6ad97c067,2025-05-22_13h51.34.513,cuing_paradigm_dot,2024.1.5,Win32,60.24096386,682d573fa47f1360d1451895,,,,,,,,,,,104.4925,104.9927,,,105.2432,105.4433,right,,,,,,,,0.1,0.1861,,,,,,,104.9927,105.2432,105.4433,"[-0.03672361253856721,-0.13598054784339084]","[-1,-1,-1]","[0.0350050813221705,-0.12943367999317296]","[1,1,1]","[0.15355193889669463,-0.07068449376838136]","[-1,-1,-1]","[0.015231755255115092,0.1841038827977003]","[-1,-1,-1]","[-0.06618787713206507,-0.017533617022955226]","[-1,-1,-1]","[0.019489705157387457,-0.19789946159782448]","[-1,-1,-1]","[0.1316616905594567,0.05208986279841375]","[-1,-1,-1]","[-0.12345187465130973,-0.0490600318593251]","[-1,-1,-1]","[0.07790013027839608,-0.06447171666929996]","[-1,-1,-1]","[0.08091466365995667,0.13435244627886997]","[-1,-1,-1]","[-0.017298122684937994,-0.17434329931398268]","[-1,-1,-1]","[-0.029381184936069806,0.01190785429932991]","[-1,-1,-1]","[0.013287802629615125,0.09872484986391582]","[-1,-1,-1]","[-0.12761372019808429,0.1013927930154921]","[-1,-1,-1]","[0.174565709646589,0.046461166406510344]","[-1,-1,-1]","[-0.1494724038836919,0.026489698809554183]","[-1,-1,-1]","[0.12102825744979324,-0.11459515663809486]","[-1,-1,-1]","[-0.1286541549397231,-0.15306776657723403]","[-1,-1,-1]","[-0.19727743926558303,0.004954469166480453]","[-1,-1,-1]","[-0.16072354118516183,-0.06689668174868113]","[-1,-1,-1]","[-0.07707454154994553,0.06517078979470989]","[-1,-1,-1]","[0.04872514483099831,0.0368132979002608]","[-1,-1,-1]","[-0.06352376689705423,0.18697254653791764]","[1,1,1]","[0.024940033919448112,-0.0002740587774550301]","[-1,-1,-1]","[-0.044295949731427954,0.13239525765322294]","[-1,-1,-1]","[0.15103282531916992,-0.022359401866268867]","[-1,-1,-1]","[-0.10476806037572484,-0.10812738686850652]","[-1,-1,-1]","[0.1386748069329983,0.09851899476926658]","[-1,-1,-1]","[-0.15860530201203957,0.07004713069742899]","[-1,-1,-1]","[0.09301243058677684,0.0693414693668459]","[-1,-1,-1]","[-0.03346892599124653,0.08946514473159899]","[1,1,1]","[-0.052985942415129265,-0.08727751447597426]","[-1,-1,-1]","[0.02,0.02]",106.5442,0,3,3,5,1,,,,,,,
,,,,,,,661ff24e9467d613b27d05ac,682f0fbb4c8f26e6ad97c067,2025-05-22_13h51.34.513,cuing_paradigm_dot,2024.1.5,Win32,60.24096386,682d573fa47f1360d1451895,,,,,,,,,,,106.5444,107.0446,,,107.2953,107.6286,left,,,,,,,,0.6,0.3287,,,,,,,107.0447,107.2953,107.6287,"[0.005240218365052554,0.04172378197553791]","[1,1,1]","[0.006698968905682422,-0.15252920629238156]","[-1,-1,-1]","[0.08499132348038588,0.011033747455380823]","[1,1,1]","[0.0752625395874097,-0.04508911153166012]","[1,1,1]","[-0.14767587914220054,0.12936546025078283]","[-1,-1,-1]","[-0.05866668842683655,-0.13528671532459127]","[1,1,1]","[-0.10161324545903061,-0.05128576974295056]","[1,1,1]","[0.022395402135285514,0.07985163904297381]","[1,1,1]","[-0.09266025855869807,-0.004513113268086878]","[-1,-1,-1]","[0.14652688583990248,-0.08682123440773179]","[1,1,1]","[0.13016276445986877,0.04100942416283895]","[1,1,1]","[0.07487087500393225,0.08960542549283812]","[1,1,1]","[-0.12796763149049714,-0.14713171342706244]","[-1,-1,-1]","[0.029015074910183188,-0.014013636502025055]","[-1,-1,-1]","[-0.166827821288101,0.041884863759961276]","[-1,-1,-1]","[0.007277500343914542,-0.0871523852722827]","[1,1,1]","[-0.17095034056625458,-0.0019184120424680018]","[1,1,1]","[0.06976383975433073,-0.14751247994493102]","[-1,-1,-1]","[0.07597666206335855,0.17272550782410445]","[-1,-1,-1]","[-0.11920462765534008,0.029885101296429316]","[1,1,1]","[-0.07781930555216027,0.04737025785162997]","[-1,-1,-1]","[-0.12123075104483548,-0.08862619513031088]","[1,1,1]","[0.14006472278044269,-0.016652428555187927]","[-1,-1,-1]","[0.06560369527519833,-0.08655562950374754]","[-1,-1,-1]","[-0.0637554950727761,-0.0713737490428811]","[1,1,1]","[0.1825927138316597,0.06345225302407528]","[1,1,1]","[-0.05941138531318687,0.1011338111953307]","[1,1,1]","[-0.03024118054374076,-0.19265243070128515]","[-1,-1,-1]","[-0.036501312891511525,-0.03638581320324903]","[1,1,1]","[0.10747413188773519,0.13360497748609543]","[1,1,1]","[-0.11992995803108543,0.08571201386908812]","[1,1,1]","[-0.15979349989897793,-0.10239976047309984]","[-1,-1,-1]","[0.02,0.02]",108.7296,0,4,4,170,1,,,,,,,
,,,,,,,661ff24e9467d613b27d05ac,682f0fbb4c8f26e6ad97c067,2025-05-22_13h51.34.513,cuing_paradigm_dot,2024.1.5,Win32,60.24096386,682d573fa47f1360d1451895,,,,,,,,,,,108.7298,109.2303,,,109.4807,109.7643,left,,,,,,,,0.9,0.2798,,,,,,,109.2303,109.4807,109.7644,"[0.04085930624679216,0.03422212718262844]","[1,1,1]","[-0.10029331968045058,0.1072567479617818]","[1,1,1]","[-0.17005138958903013,-0.07332098585285358]","[-1,-1,-1]","[-0.004436422253889094,-0.10016229011488456]","[1,1,1]","[-0.04919694467417191,0.13197483547090413]","[-1,-1,-1]","[0.07730294646611831,-0.08661328048612692]","[1,1,1]","[-0.14616018536209846,0.010321850005211276]","[1,1,1]","[0.14546370861682778,-0.08624997381233383]","[1,1,1]","[-0.01971914763053522,0.09252360306519451]","[1,1,1]","[0.17160343825486263,0.023838829421662332]","[1,1,1]","[0.08106581300794082,-0.04523675784674665]","[1,1,1]","[0.09133733894569615,0.13542672096886443]","[1,1,1]","[-0.02533345348478153,-0.14281539970812418]","[1,1,1]","[0.05877490542554704,-0.15884741332494376]","[1,1,1]","[-0.042841317003157665,-0.023044621721595975]","[1,1,1]","[0.18849537084234605,0.06639915757979897]","[1,1,1]","[-0.0817382927266703,-0.03783028400114638]","[1,1,1]","[0.012719411163236157,0.12966197759332904]","[1,1,1]","[0.052768965217920495,0.1880546036543433]","[1,1,1]","[-0.01217679424975641,0.04753093870681936]","[1,1,1]","[-0.07310479186893785,0.04787683155066497]","[1,1,1]","[-0.16402900957468328,0.07635444463225396]","[1,1,1]","[-0.06371836242673884,-0.16335473826555372]","[1,1,1]","[0.16679579865813712,0.10334760125393791]","[1,1,1]","[0.0399207297933598,-0.035752121725751054]","[1,1,1]","[-0.028446870938268365,0.18961770112375462]","[1,1,1]","[0.1273621660292501,0.01881104907420787]","[-1,-1,-1]","[-0.14724102460971297,0.11885695195737495]","[1,1,1]","[0.08528281841307721,0.08960895830051001]","[1,1,1]","[0.1314663729453773,0.06799525819422321]","[1,1,1]","[0.09352557332904912,-0.13462880728640897]","[1,1,1]","[0.1473424453539076,-0.13178024464639293]","[1,1,1]","[0.02,0.02]",110.865,0,5,5,184,1,,,,,,,
,,,,,,,661ff24e9467d613b27d05ac,682f0fbb4c8f26e6ad97c067,2025-05-22_13h51.34.513,cuing_paradigm_dot,2024.1.5,Win32,60.24096386,682d573fa47f1360d1451895,,,,,,,,,,,110.8652,111.3655,,,111.6165,112.0496,right,,,,,,,,0.4,0.4235,,,,,,,111.3655,111.6164,112.0497,"[0.021662224211534954,0.18537420122654535]","[-1,-1,-1]","[-0.07954006490514602,0.1794051935810027]","[1,1,1]","[-0.06708363543186771,0.013976007522223492]","[1,1,1]","[0.10463894372871971,-0.08681906164757244]","[1,1,1]","[0.14367367264939893,-0.0034937615761893638]","[1,1,1]","[-0.0695974825147399,-0.0391706166413978]","[-1,-1,-1]","[-0.04973351912571753,-0.1567588407059563]","[1,1,1]","[-0.014036651508352883,0.07863931458781839]","[-1,-1,-1]","[0.08021453047031266,0.13256613074502466]","[-1,-1,-1]","[0.04459717856809564,0.07497148586676226]","[-1,-1,-1]","[0.07752827648659301,0.039325070071838074]","[-1,-1,-1]","[0.09001900524405322,-0.15970809139383468]","[1,1,1]","[0.17051517478411243,0.035122679847207156]","[-1,-1,-1]","[-0.13185780602841804,0.021722906997665516]","[1,1,1]","[-0.08161252784292816,-0.18227459053558048]","[1,1,1]","[-0.031109594602660346,0.15566299435190478]","[1,1,1]","[-0.08965653736811278,0.1013728094481656]","[-1,-1,-1]","[-0.18745444849243809,-0.04889983395646313]","[1,1,1]","[-0.08863522482904206,-0.08453884717509698]","[-1,-1,-1]","[0.06101981704414483,0.0023132665296600337]","[1,1,1]","[0.07047814730728671,-0.06144893955453906]","[-1,-1,-1]","[0.14410344655505924,-0.12052466681097827]","[-1,-1,-1]","[-0.18738990518680348,0.03735459002387416]","[-1,-1,-1]","[0.02530947445387316,-0.08609809307813092]","[-1,-1,-1]","[0.03434721135103002,0.14359860156999382]","[-1,-1,-1]","[-0.1287516052657513,-0.09585932949170206]","[-1,-1,-1]","[-0.19542785313153857,-0.00965027618300383]","[-1,-1,-1]","[-0.09712292225185187,0.06148172917254701]","[-1,-1,-1]","[0.006093058704752442,-0.025199051615987407]","[1,1,1]","[0.025013625542329793,-0.15141674434409214]","[1,1,1]","[-0.02361336462342648,-0.06711674389916722]","[-1,-1,-1]","[-0.04438533671440283,-0.11545413492529664]","[-1,-1,-1]","[0.02,0.02]",113.1507,0,6,6,36,1,,,,,,,
,,,,,,,661ff24e9467d613b27d05ac,682f0fbb4c8f26e6ad97c067,2025-05-22_13h51.34.513,cuing_paradigm_dot,2024.1.5,Win32,60.24096386,682d573fa47f1360d1451895,,,,,,,,,,,113.151,113.6514,,,113.9021,114.2351,left,,,,,,,,0.9,0.3161,,,,,,,113.6514,113.902,114.2352,"[-0.09160808722977372,0.1399159579449318]","[1,1,1]","[-0.15876730596008665,0.04884561420281004]","[1,1,1]","[0.1705410548472717,-0.015492891747225053]","[1,1,1]","[0.036792981817945984,0.04299043585442457]","[1,1,1]","[0.08670324544630918,-0.01831424553039509]","[1,1,1]","[-0.007662027638836066,0.07030840432085872]","[-1,-1,-1]","[-0.055933808791322814,-0.008493106756386414]","[1,1,1]","[-0.051693685679463294,-0.09753993857406949]","[1,1,1]","[-0.044852584978766145,-0.18171034314832185]","[1,1,1]","[-0.030705406341488207,0.1941648352909554]","[1,1,1]","[0.08345781097793453,-0.16715696276187345]","[1,1,1]","[-0.031112547544407124,-0.05671511241655333]","[1,1,1]","[-0.06242921738368641,0.16882836641635912]","[1,1,1]","[0.04117988939529314,0.16385446616343738]","[-1,-1,-1]","[-0.05344085022904836,0.03918811054350754]","[1,1,1]","[0.0029643838648675826,-0.033632024387274605]","[1,1,1]","[-0.17222979990066187,-0.057859070080900646]","[1,1,1]","[0.09865841672318923,0.10226126058515321]","[1,1,1]","[0.014673993679386807,-0.11537208425261904]","[1,1,1]","[-0.09206069474199674,-0.16191397435445043]","[1,1,1]","[0.08950838576296509,0.026632264351651416]","[1,1,1]","[0.08472696573956555,0.16805041818076824]","[1,1,1]","[-0.11408641497488514,0.0239613647899989]","[1,1,1]","[0.11811781995527168,0.054634957021170626]","[1,1,1]","[0.14683779196304866,-0.0790797576665459]","[1,1,1]","[0.015752393211781884,0.1099748110807221]","[1,1,1]","[0.11863606652718259,-0.044902993388438]","[1,1,1]","[0.12087234341456973,0.13560221729829555]","[1,1,1]","[-0.14097831889635468,0.09242942748660919]","[1,1,1]","[0.17482522271071016,0.08450024043806989]","[-1,-1,-1]","[-0.11857836411099913,-0.06185268875094684]","[1,1,1]","[0.1505174914007683,-0.12484772428352418]","[1,1,1]","[0.02,0.02]",115.3364,0,7,7,206,1,,,,,,,
,,,,,,,661ff24e9467d613b27d05ac,682f0fbb4c8f26e6ad97c067,2025-05-22_13h51.34.513,cuing_paradigm_dot,2024.1.5,Win32,60.24096386,682d573fa47f1360d1451895,,,,,,,,,,,115.337,115.8367,,,116.0875,117.205,left,,,,,,,,0.45,1.1005,,,,,,,115.8367,116.0875,117.205,"[-0.016580868429907615,-0.12173006447190543]","[1,1,1]","[0.10770575089942949,-0.1311681251028423]","[-1,-1,-1]","[-0.09406612421195097,0.05254041081157751]","[1,1,1]","[-0.08676714321939295,0.14553104856661567]","[1,1,1]","[-0.0188046623647798,-0.016854637485817028]","[-1,-1,-1]","[0.14754947396888735,-0.08457458454474495]","[1,1,1]","[0.08620014847604485,-0.03949459863723062]","[-1,-1,-1]","[0.1522995288771326,0.043566054434048505]","[1,1,1]","[0.13560585987078205,-0.0145033006289404]","[1,1,1]","[0.06942860689134017,0.032804570682468226]","[1,1,1]","[0.010664645126577502,0.06545643808292775]","[1,1,1]","[0.17864412613516398,0.07896516563751786]","[-1,-1,-1]","[0.11886549910445533,0.09190610067826048]","[1,1,1]","[0.07485824157274654,-0.08454885518521336]","[1,1,1]","[-0.03281092137648107,-0.19131372034437658]","[-1,-1,-1]","[-0.007108005534783861,-0.07775444337603495]","[-1,-1,-1]","[-0.11601327661733613,-0.0927966351111256]","[1,1,1]","[-0.17662227318009804,0.07370067085368046]","[-1,-1,-1]","[0.011509764819143143,0.14567132918613587]","[-1,-1,-1]","[0.052956667677192926,-0.15063407854493902]","[-1,-1,-1]","[0.01046755454831469,0.024444238223977212]","[-1,-1,-1]","[0.0419770868879866,-0.048352936279981454]","[-1,-1,-1]","[-0.13979616116420202,-0.12548974392455414]","[-1,-1,-1]","[0.06414424827297127,0.09844916957644163]","[1,1,1]","[-0.1410534058623592,-0.04109884375744585]","[1,1,1]","[-0.07280448305902273,-0.13661034301127736]","[-1,-1,-1]","[-0.03546949637374541,0.062195603540701846]","[-1,-1,-1]","[0.08815552833034206,0.13047139617584505]","[1,1,1]","[0.1950079874785016,0.04098120315666547]","[-1,-1,-1]","[0.12638437080725481,0.15160754761265183]","[-1,-1,-1]","[-0.1857622949347876,-0.005787074186926264]","[-1,-1,-1]","[0.005203147954145457,-0.16928264273438862]","[-1,-1,-1]","[0.02,0.02]",118.3059,0,8,8,79,1,,,,,,,
,,,,,,,661ff24e9467d613b27d05ac,682f0fbb4c8f26e6ad97c067,2025-05-22_13h51.34.513,cuing_paradigm_dot,2024.1.5,Win32,60.24096386,682d573fa47f1360d1451895,,,,,,,,,,,118.3063,118.8066,,,119.0569,119.6238,right,,,,,,,,0.1,0.5488,,,,,,,118.8066,119.0569,119.6238,"[0.003465201490565052,-0.11429890542285324]","[-1,-1,-1]","[0.1690190334744414,-0.07684663445819813]","[-1,-1,-1]","[0.07319750708961671,-0.12786304184321354]","[-1,-1,-1]","[0.18023438796411526,0.030409914720704905]","[-1,-1,-1]","[-0.09526076899228608,-0.018254983595723372]","[-1,-1,-1]","[0.08047109230543535,0.08349320603121202]","[1,1,1]","[-0.007919170112751017,-0.02089929745324443]","[-1,-1,-1]","[-0.0682639385319457,0.02762817765275198]","[-1,-1,-1]","[0.07811014091792856,-0.17060271767198204]","[-1,-1,-1]","[-0.15411177495299408,-0.11803903370883086]","[-1,-1,-1]","[-0.05071700244007761,-0.16329741309210893]","[-1,-1,-1]","[0.021400809527090336,-0.18268126103759352]","[-1,-1,-1]","[-0.10854190534086454,0.045093988082108946]","[-1,-1,-1]","[-0.0764687470524878,-0.1017488413323656]","[-1,-1,-1]","[-0.032185884481173974,0.1256599264414486]","[-1,-1,-1]","[0.050342391540437265,0.14318896805192938]","[-1,-1,-1]","[0.04882227399444623,-0.06633639482009107]","[-1,-1,-1]","[0.11563431030941397,-0.15179528630912234]","[-1,-1,-1]","[0.1250249778468901,-0.0729816008956829]","[-1,-1,-1]","[-0.08486598935546907,0.12851058758749226]","[-1,-1,-1]","[0.18531989655828163,-0.026244178577790996]","[1,1,1]","[0.08592731087990123,0.002832864090119795]","[-1,-1,-1]","[-0.11588460940985261,-0.08116357678946216]","[-1,-1,-1]","[-0.15225964522006769,0.10280466565637784]","[-1,-1,-1]","[0.1293780746108988,0.14108721596206886]","[-1,-1,-1]","[-0.09244471697381372,0.0884249289071365]","[-1,-1,-1]","[-0.0407811205612675,0.18221141535073232]","[-1,-1,-1]","[-0.19728507097908632,0.007139068769934333]","[-1,-1,-1]","[-0.14847803433549786,-0.03509272245909718]","[1,1,1]","[0.029179148396501906,0.02904164537471397]","[-1,-1,-1]","[0.16953674959485285,0.0695260191656174]","[-1,-1,-1]","[0.1390228117384624,-0.012543222294818046]","[-1,-1,-1]","[0.02,0.02]",120.7249,0,9,9,7,1,,,,,,,
,,,,,,,661ff24e9467d613b27d05ac,682f0fbb4c8f26e6ad97c067,2025-05-22_13h51.34.513,cuing_paradigm_dot,2024.1.5,Win32,60.24096386,682d573fa47f1360d1451895,,,,,,,,,,,120.7253,121.2254,,,121.4761,121.9764,left,,,,,,,,0.55,0.4839,,,,,,,121.2254,121.4761,121.9764,"[-0.12816880682028045,-0.004959419848403438]","[-1,-1,-1]","[-0.0011057577780755573,0.16678197912568202]","[1,1,1]","[0.014104475467869889,-0.16530146121817424]","[-1,-1,-1]","[-0.06970198896137175,0.03469593885308844]","[-1,-1,-1]","[-0.1982450378512492,0.001790979683042725]","[1,1,1]","[0.002006008608380389,-0.030665819612910816]","[-1,-1,-1]","[0.1430884769907022,-0.020012594901443897]","[1,1,1]","[-0.17150090477989735,-0.09007765036965314]","[1,1,1]","[0.013559657159065685,-0.09046188420037325]","[1,1,1]","[-0.11342448117250635,0.042516594633783496]","[-1,-1,-1]","[0.0406991795563299,-0.001194090114230561]","[-1,-1,-1]","[0.15328952382956343,-0.06259164158746439]","[-1,-1,-1]","[-0.1324272580508066,-0.04957611351101672]","[1,1,1]","[0.13237340232411143,0.03325231965436524]","[-1,-1,-1]","[0.0842838423345867,-0.022406798189578567]","[-1,-1,-1]","[0.14613844414309993,0.1111767612681101]","[1,1,1]","[0.0966241354661927,-0.12628150181513628]","[1,1,1]","[-0.10829207143202786,-0.15083304635672515]","[-1,-1,-1]","[0.10030287297624108,0.13387196387488215]","[1,1,1]","[0.04601089850095147,0.1172498784215855]","[1,1,1]","[0.0965760393417064,0.08612605726255555]","[1,1,1]","[-0.09005799646152284,-0.04548628000650123]","[1,1,1]","[-0.08785207955252854,-0.10346139550092048]","[1,1,1]","[-0.09752692831887175,0.09723077941534279]","[-1,-1,-1]","[-0.055147486467218815,0.09246488232453345]","[1,1,1]","[-0.03401585462628045,-0.15533945534573312]","[1,1,1]","[0.029908978420434874,0.04936399861237248]","[1,1,1]","[-0.18350329420763445,-0.044415113608268775]","[1,1,1]","[-0.0976596445760846,0.17311037192574133]","[-1,-1,-1]","[-0.02236047843555374,0.055866563468049586]","[-1,-1,-1]","[0.10785021942944614,-0.07034888442348583]","[-1,-1,-1]","[-0.17548086293989157,0.08430162573757562]","[1,1,1]","[0.02,0.02]",123.0771,0,10,10,148,1,,,,,,,
,,,,,,,661ff24e9467d613b27d05ac,682f0fbb4c8f26e6ad97c067,2025-05-22_13h51.34.513,cuing_paradigm_dot,2024.1.5,Win32,60.24096386,682d573fa47f1360d1451895,,,,,,,,,,,123.0775,123.5776,,,123.8282,124.2454,right,,,,,,,,0.4,0.4034,,,,,,,123.5776,123.8282,124.2454,"[0.08754980835914371,0.15437973236977312]","[-1,-1,-1]","[-0.09195360764666416,-0.1505869414048396]","[-1,-1,-1]","[-0.015559726492081578,0.18024315718994458]","[-1,-1,-1]","[-0.11342717923026732,0.12580247890636695]","[1,1,1]","[-0.03370709997906353,-0.13354794350812377]","[-1,-1,-1]","[0.13610622061875707,-0.040198359971870816]","[-1,-1,-1]","[-0.1726447279596961,-0.038196086216789264]","[1,1,1]","[0.053067707405519075,-0.05943413156198813]","[-1,-1,-1]","[0.0018510222824121689,0.06602275079028254]","[-1,-1,-1]","[-0.10141046675947382,-0.07162351331297087]","[1,1,1]","[0.02643173754382987,-0.15799803542912955]","[-1,-1,-1]","[0.19111694791622502,-0.009795920982997218]","[-1,-1,-1]","[-0.057224965196189144,-0.054416158942327215]","[1,1,1]","[0.11377284483754731,0.08269664384856897]","[-1,-1,-1]","[-0.1424264800505127,-0.10141347500397917]","[-1,-1,-1]","[-0.12725317169569356,0.03800001064039561]","[-1,-1,-1]","[-0.08333155200554009,-0.11071788018689008]","[-1,-1,-1]","[0.036392054325647946,-0.11405753688468036]","[1,1,1]","[0.07750607393527559,-0.09843090179222305]","[-1,-1,-1]","[0.04354103612174288,0.10377044312146406]","[-1,-1,-1]","[-0.13623159393536408,-0.013378682322996265]","[-1,-1,-1]","[-0.10011024253203313,0.0699387482099218]","[1,1,1]","[0.07342285696295203,0.019944989592397065]","[-1,-1,-1]","[-0.06616545458251774,0.11387324045620427]","[-1,-1,-1]","[-0.04490697064067246,0.040564387499870624]","[1,1,1]","[0.1393173410088051,-0.11498102347783336]","[1,1,1]","[0.12311187740768414,0.041859419579518053]","[1,1,1]","[-0.16734786700074994,0.06424728142826804]","[-1,-1,-1]","[0.022819402861673586,0.031820288247112485]","[1,1,1]","[-0.016722491548344674,-0.005701984166129054]","[1,1,1]","[-0.09135415249754253,-0.023058301084781883]","[1,1,1]","[0.11689369486275854,-0.15571243675001292]","[1,1,1]","[0.02,0.02]",125.3464,0,11,11,42,1,,,,,,,
,,,,,,,661ff24e9467d613b27d05ac,682f0fbb4c8f26e6ad97c067,2025-05-22_13h51.34.513,cuing_paradigm_dot,2024.1.5,Win32,60.24096386,682d573fa47f1360d1451895,,,,,,,,,,,125.3468,125.8468,,,126.0974,126.9978,right,,,,,,,,0.4,0.8836,,,,,,,125.8468,126.0974,126.9978,"[0.10623569313734281,-0.053727578501036447]","[1,1,1]","[-0.08628924182105294,-0.15134716732932]","[-1,-1,-1]","[0.032742081270997356,0.17916221252315812]","[-1,-1,-1]","[0.06354442625831556,-0.06593008706945358]","[-1,-1,-1]","[-0.009296955769605878,0.11940017789944248]","[-1,-1,-1]","[-0.11519015852965132,0.009636598333667284]","[-1,-1,-1]","[-0.15628444503170685,0.009530387581638062]","[1,1,1]","[-0.053586658870387834,0.032686027827847464]","[-1,-1,-1]","[-0.12530124991049102,0.1494806727022309]","[-1,-1,-1]","[0.04017445363873211,0.004526078641613331]","[-1,-1,-1]","[-0.16013875004637967,-0.10941888153880884]","[1,1,1]","[0.11937689838128145,0.049414324788745245]","[1,1,1]","[0.08418674266294386,-0.015397232928112813]","[-1,-1,-1]","[0.06741548240151136,-0.10869557435354951]","[-1,-1,-1]","[-0.08499532391606293,-0.02526193102554455]","[-1,-1,-1]","[-0.17971817667107717,-0.025903145776172243]","[-1,-1,-1]","[0.12313393186971858,-0.13811185116956542]","[1,1,1]","[-0.10933731595590396,-0.10206361321031217]","[1,1,1]","[-0.06277487648460607,0.15518315647674036]","[1,1,1]","[0.061599747009217776,0.14670222951274428]","[-1,-1,-1]","[-0.0442563256110401,-0.024556201144890252]","[-1,-1,-1]","[-0.007679897329051889,-0.0686708923667137]","[-1,-1,-1]","[0.15330823259798093,0.10325073277969206]","[1,1,1]","[-0.0003612569077138583,-0.1339264855478016]","[1,1,1]","[0.1566616024300141,-0.07148730246698703]","[1,1,1]","[-0.03405622826294261,-0.17601345162863707]","[-1,-1,-1]","[-0.12126648856890931,0.09011159193249872]","[-1,-1,-1]","[0.18158711928706592,0.07020798683954586]","[1,1,1]","[0.11984883004237348,0.13589877446027956]","[-1,-1,-1]","[0.10883361008747357,-0.09640396710696406]","[1,1,1]","[-0.06546656900789374,0.10153020840462637]","[-1,-1,-1]","[0.07263201946847722,-0.17960482627103888]","[1,1,1]","[0.02,0.02]",128.0992,0,12,12,40,1,,,,,,,
,,,,,,,661ff24e9467d613b27d05ac,682f0fbb4c8f26e6ad97c067,2025-05-22_13h51.34.513,cuing_paradigm_dot,2024.1.5,Win32,60.24096386,682d573fa47f1360d1451895,,,,,,,,,,,128.0995,128.5997,,,128.8496,129.667,left,,,,,,,,0.55,0.8057,,,,,,,128.5997,128.8496,129.6671,"[0.030009820353916864,0.07280936053322781]","[1,1,1]","[-0.06949958244840965,0.12116411189106634]","[1,1,1]","[-0.02163713369792283,0.18599536399605354]","[-1,-1,-1]","[-0.07701219219439204,0.00535299630650733]","[1,1,1]","[-0.17189399756320373,-0.0322876134018538]","[-1,-1,-1]","[0.13499566796169477,-0.13092366326202856]","[1,1,1]","[-0.038770337500533575,0.08405248068705067]","[-1,-1,-1]","[-0.003368955063953105,-0.13902967899250282]","[-1,-1,-1]","[0.05089434892943208,0.13961231859498266]","[1,1,1]","[0.08281888134126426,0.06980645489495306]","[1,1,1]","[-0.15044397586543146,0.06199276560747651]","[-1,-1,-1]","[-0.13386050575035924,-0.06548733892563764]","[1,1,1]","[-0.015680154075841415,-0.08760865371144735]","[1,1,1]","[-0.19643323433237955,0.01400669097687181]","[-1,-1,-1]","[0.115943093277463,0.1342662750130516]","[-1,-1,-1]","[0.0950662535016002,-0.06062740269491394]","[1,1,1]","[-0.07609490818481404,-0.07077880955306318]","[1,1,1]","[-0.11071171880687099,0.048166177187292436]","[-1,-1,-1]","[-0.08348917450176262,-0.1648811509949026]","[1,1,1]","[-0.15586277851678407,-0.12426427329342246]","[1,1,1]","[0.19191301939612798,-0.02533087421615065]","[1,1,1]","[-0.12854098100061898,0.13661237208698662]","[-1,-1,-1]","[0.15208783411163443,0.11570249424316317]","[-1,-1,-1]","[0.11750593538325597,-0.09484889065015506]","[-1,-1,-1]","[-0.11402688505328566,-0.11005433171976867]","[1,1,1]","[0.0191316907361505,-0.03458157154997175]","[-1,-1,-1]","[-0.18292953678017,-0.07532655180442643]","[-1,-1,-1]","[-0.10331024392033168,-0.030442118261460534]","[1,1,1]","[0.05074163887619163,-0.10952787713345079]","[1,1,1]","[0.18030777226265648,0.06459522589220495]","[1,1,1]","[0.1258680132174806,0.07386418265997213]","[1,1,1]","[0.02497884292350436,-0.1952342270979315]","[-1,-1,-1]","[0.02,0.02]",130.7684,0,13,13,134,1,,,,,,,
,,,,,,,661ff24e9467d613b27d05ac,682f0fbb4c8f26e6ad97c067,2025-05-22_13h51.34.513,cuing_paradigm_dot,2024.1.5,Win32,60.24096386,682d573fa47f1360d1451895,,,,,,,,,,,130.7687,131.2692,,,131.5194,131.9532,right,,,,,,,,0.4,0.4152,,,,,,,131.2692,131.5194,131.9532,"[0.11180532516981724,-0.0815782058416966]","[-1,-1,-1]","[0.008489555490965035,0.12073348161595994]","[1,1,1]","[-0.05192850965986561,0.17406565639279867]","[-1,-1,-1]","[0.08639725697172052,-0.026963870088779873]","[-1,-1,-1]","[0.07701738327166399,0.1341525072033189]","[1,1,1]","[-0.14841110505076166,0.08448798684924032]","[1,1,1]","[-0.19059942931928384,0.03221439658303315]","[-1,-1,-1]","[0.13015315685808476,0.025496799306715376]","[1,1,1]","[-0.035467900812623986,-0.0030190890802159025]","[-1,-1,-1]","[0.10118933568903689,0.06248725072159855]","[-1,-1,-1]","[-0.04675593136947027,-0.051545358077751686]","[-1,-1,-1]","[0.13975359859949682,0.12919760308932993]","[-1,-1,-1]","[-0.11606042838981777,0.060536181877012]","[1,1,1]","[-0.01869058122836037,-0.16505401347428209]","[1,1,1]","[0.0785801304902897,-0.18220355714715716]","[-1,-1,-1]","[0.07716034938950543,0.17612977014148196]","[-1,-1,-1]","[-0.11765841312082495,0.14860620363477375]","[1,1,1]","[0.02099384388381312,-0.026835356276275715]","[1,1,1]","[0.13852806686656852,0.08102072058724072]","[1,1,1]","[-0.09726288595875414,-0.06684806241558022]","[-1,-1,-1]","[-0.11553306228499861,0.00456632463376657]","[-1,-1,-1]","[0.05494343668323251,-0.12381499421329788]","[1,1,1]","[-0.13214371491684626,-0.10018580079126589]","[-1,-1,-1]","[-0.09347011354708358,-0.1279228427629296]","[-1,-1,-1]","[-0.11189479329242775,0.10366248868966497]","[1,1,1]","[-0.02753281757626081,-0.12375106556589095]","[-1,-1,-1]","[0.1773687694646295,-0.03292310460478123]","[1,1,1]","[-0.020981585242765482,0.05628798910239493]","[-1,-1,-1]","[0.04639589846546974,0.023282227535745114]","[1,1,1]","[-0.030956933151930502,0.09878878019741284]","[-1,-1,-1]","[0.00610452396907071,0.16391891589335533]","[-1,-1,-1]","[-0.16019550292845347,-0.05048711845348989]","[-1,-1,-1]","[0.02,0.02]",133.0539,0,14,14,41,1,,,,,,,
,,,,,,,661ff24e9467d613b27d05ac,682f0fbb4c8f26e6ad97c067,2025-05-22_13h51.34.513,cuing_paradigm_dot,2024.1.5,Win32,60.24096386,682d573fa47f1360d1451895,,,,,,,,,,,133.0542,133.5545,,,133.805,134.8224,left,,,,,,,,0.6,1.0019,,,,,,,133.5545,133.805,134.8224,"[0.0047636628513563805,0.1950782466621237]","[1,1,1]","[0.002375160614077968,0.04393976030889641]","[-1,-1,-1]","[0.08831538870612436,-0.016793990643747276]","[1,1,1]","[0.07180063983931337,-0.09697327415616412]","[-1,-1,-1]","[-0.12296389224249882,-0.07942252964305099]","[-1,-1,-1]","[-0.08376798538778302,0.032867784692703544]","[-1,-1,-1]","[-0.012302732080062018,-0.18763347606768244]","[-1,-1,-1]","[-0.023394410545000084,0.1364584985397746]","[1,1,1]","[0.06372712326030378,-0.1369559289177504]","[1,1,1]","[0.04353607466088681,0.10673685410930167]","[1,1,1]","[-0.0783379488609915,0.10719397973477007]","[-1,-1,-1]","[-0.1652438112257888,-0.11013763277928179]","[1,1,1]","[0.0060984114061623075,0.08476778605374913]","[1,1,1]","[0.14093511527060046,-0.007679612891390088]","[-1,-1,-1]","[0.1527462893306637,0.12642521312782573]","[1,1,1]","[-0.03482369345500567,-0.09274972460653273]","[1,1,1]","[0.0067200186739441925,-0.03164448227821235]","[-1,-1,-1]","[0.02531224760338418,-0.16348953875932132]","[-1,-1,-1]","[0.12890705396693294,-0.08598166900479626]","[1,1,1]","[-0.17495925730290743,0.02492635086345296]","[1,1,1]","[0.052937879634773255,0.013791841118432983]","[1,1,1]","[-0.16522321820388655,-0.028642643609003468]","[1,1,1]","[-0.045489144581049815,-0.15887843097759907]","[1,1,1]","[-0.14366662446164447,0.0584483477326146]","[-1,-1,-1]","[0.11300623413884715,0.14527366406888592]","[1,1,1]","[-0.07823705712412359,-0.048935017101759494]","[-1,-1,-1]","[0.18551325463905696,0.03884409147981658]","[1,1,1]","[0.09994927205423826,0.05900195997421237]","[1,1,1]","[0.017449382532401466,-0.095626619021968]","[-1,-1,-1]","[0.015508742135548106,0.1551800140075455]","[1,1,1]","[-0.13796602894260973,0.0033385007295960913]","[-1,-1,-1]","[-0.05143604800637908,-0.013821980426961335]","[1,1,1]","[0.02,0.02]",135.9236,0,15,15,175,1,,,,,,,
,,,,,,,661ff24e9467d613b27d05ac,682f0fbb4c8f26e6ad97c067,2025-05-22_13h51.34.513,cuing_paradigm_dot,2024.1.5,Win32,60.24096386,682d573fa47f1360d1451895,,,,,,,,,,,135.9239,136.4241,,,136.6747,137.2248,left,,,,,,,,0.55,0.5405,,,,,,,136.4241,136.6747,137.2248,"[-0.03743364975017284,0.19207342498632307]","[1,1,1]","[-0.04931815782350971,0.14637033213919545]","[1,1,1]","[0.055855823371113535,-0.16839285351473404]","[-1,-1,-1]","[0.031090268598618957,0.14976662680931]","[1,1,1]","[-0.0633859956088066,-0.17215688985865277]","[-1,-1,-1]","[-0.13299272413820004,0.018609830067694642]","[-1,-1,-1]","[0.12844231096885883,0.05301543632576655]","[1,1,1]","[0.026292294476462096,-0.05869504227690937]","[1,1,1]","[-0.002922011920556145,-0.020398262092659124]","[1,1,1]","[0.1541867059389701,-0.06083060321057005]","[1,1,1]","[-0.15474389917041834,0.10945397004400807]","[1,1,1]","[0.16798699321877525,0.020316603206500545]","[1,1,1]","[-0.003867267099657223,0.10033219715185004]","[-1,-1,-1]","[-0.06094809442059601,-0.07559978757767137]","[1,1,1]","[0.08766863362319428,-0.04987210103404848]","[-1,-1,-1]","[-0.07687389328487755,0.09783934956735725]","[1,1,1]","[-0.10217255412131673,0.06003044167186893]","[1,1,1]","[0.07280015833830418,0.02773841303743415]","[-1,-1,-1]","[-0.03497375904781818,-0.13606574122512846]","[1,1,1]","[-0.16404339555013647,-0.028127846022316702]","[1,1,1]","[-0.03745415246002662,0.00510571442108879]","[-1,-1,-1]","[0.015016022859660999,-0.18547057723063176]","[-1,-1,-1]","[0.1596388202128882,0.07890321576791041]","[1,1,1]","[-0.08186813610498744,-0.12472027062677297]","[-1,-1,-1]","[0.11676871718482673,0.13356037380516847]","[-1,-1,-1]","[-0.15741643804271635,-0.09984859193278428]","[1,1,1]","[-0.09281050749322863,0.1732112367976825]","[-1,-1,-1]","[0.0743920312604535,0.17544346642674552]","[1,1,1]","[0.04487507961057238,-0.10411101302207543]","[1,1,1]","[0.02399858559531995,0.040115497348431575]","[-1,-1,-1]","[0.14486546710056664,-0.10193859960356791]","[-1,-1,-1]","[0.06358494776106917,0.117052414989633]","[-1,-1,-1]","[0.02,0.02]",138.3259,0,16,16,133,1,,,,,,,
,,,,,,,661ff24e9467d613b27d05ac,682f0fbb4c8f26e6ad97c067,2025-05-22_13h51.34.513,cuing_paradigm_dot,2024.1.5,Win32,60.24096386,682d573fa47f1360d1451895,,,,,,,,,,,138.3264,138.8263,,,139.0769,140.4118,right,,,,,,,,0.6,1.3224,,,,,,,138.8263,139.0769,140.4118,"[0.07208679473298707,0.16805641354974665]","[1,1,1]","[-0.05358967487960468,-0.05735704929827604]","[-1,-1,-1]","[0.16583900345222455,0.056028320392003506]","[1,1,1]","[0.03331473322887247,-0.07488582108980826]","[-1,-1,-1]","[0.09332656227625802,0.09336566286446009]","[-1,-1,-1]","[0.007532029547817558,0.14064852610032968]","[-1,-1,-1]","[0.023934281523382502,-0.030074397124014492]","[1,1,1]","[-0.01340073128412164,0.07753446205336252]","[1,1,1]","[-0.05293011378976311,0.050273993302289155]","[-1,-1,-1]","[-0.12266603400590328,0.12867412167741732]","[1,1,1]","[0.04523859287064411,-0.1466733726369626]","[1,1,1]","[-0.1647124981785943,-0.0024664431649468843]","[-1,-1,-1]","[0.09785176188536092,-0.07318836776109003]","[1,1,1]","[-0.12022354922279964,0.062073659133992376]","[1,1,1]","[-0.12394930214190777,-0.088912142945373]","[-1,-1,-1]","[0.1570462141090275,-0.05378697138042943]","[1,1,1]","[0.05390448831150383,0.036688438819002245]","[1,1,1]","[-0.18948679269861887,-0.06292187521874223]","[1,1,1]","[0.1627244553345083,0.014647295005251876]","[-1,-1,-1]","[-0.07027790861403004,-0.10985336367528048]","[-1,-1,-1]","[0.09802006376998933,0.04180678902629128]","[1,1,1]","[0.06791921255446365,-0.039396745435801066]","[1,1,1]","[-0.0690082832990428,0.1612996169383788]","[-1,-1,-1]","[-0.09405759429436746,-0.004178869481068938]","[1,1,1]","[-0.0783965556632078,0.10649687147585804]","[1,1,1]","[-0.1555018661376482,0.09072449079312603]","[-1,-1,-1]","[-0.1254526351703371,-0.035566530257726395]","[1,1,1]","[0.13698321069045344,-0.11216027311749358]","[1,1,1]","[-0.010321910317325949,0.19226696744670302]","[-1,-1,-1]","[0.13486189827390577,-0.014504810161567487]","[-1,-1,-1]","[-0.0323830947206184,-0.1501117420595628]","[1,1,1]","[0.006663473541222718,-0.18906341067553695]","[1,1,1]","[0.02,0.02]",141.5123,0,17,17,167,1,,,,,,,
,,,,,,,661ff24e9467d613b27d05ac,682f0fbb4c8f26e6ad97c067,2025-05-22_13h51.34.513,cuing_paradigm_dot,2024.1.5,Win32,60.24096386,682d573fa47f1360d1451895,,,,,,,,,,,141.5126,142.0129,,,142.2634,142.8639,left,,,,,,,,0.6,0.582,,,,,,,142.0129,142.2633,142.8639,"[-0.04656774085239205,0.06915488150311057]","[1,1,1]","[-0.02888511278068167,0.13514540494973346]","[1,1,1]","[-0.019448818801174387,-0.16287628319991043]","[-1,-1,-1]","[-0.14367056052696073,0.052987395496008075]","[1,1,1]","[0.1496031542050158,-0.1050595681776588]","[1,1,1]","[0.08802425111097112,0.1329800381986647]","[1,1,1]","[0.03221222596616191,-0.1693060008456309]","[1,1,1]","[0.026019635001166688,0.10357982959986521]","[-1,-1,-1]","[-0.08138930002974476,-0.06726006397393491]","[1,1,1]","[0.03805615799893134,0.17423304278304752]","[-1,-1,-1]","[0.1250999712637749,0.09097679331247653]","[-1,-1,-1]","[0.15599372330655523,0.11903143735570787]","[1,1,1]","[0.039335572558313193,0.04582733876965162]","[-1,-1,-1]","[-0.06117384182528756,-0.10516512723616407]","[-1,-1,-1]","[0.002954364771839252,0.01993497678229458]","[-1,-1,-1]","[-0.18252730240066561,-0.0024482345186551593]","[-1,-1,-1]","[-0.0388251408906198,0.020750634280835213]","[-1,-1,-1]","[0.017573924760548035,-0.06568571244184408]","[-1,-1,-1]","[0.08718050890375768,-0.06564242091462558]","[1,1,1]","[-0.12425376881785259,-0.14854472571909133]","[1,1,1]","[0.14238368091045128,-0.05601226214389748]","[1,1,1]","[0.11373438561332051,0.05217764222890492]","[1,1,1]","[-0.07574266693053557,-0.0038201741363987655]","[1,1,1]","[-0.14932192380200973,0.12471934260101965]","[1,1,1]","[-0.06553761014256057,0.18561206683755943]","[-1,-1,-1]","[-0.11737844414691197,0.0063477281028091305]","[1,1,1]","[-0.003016112308964104,0.06837489113747097]","[1,1,1]","[-0.007566156658698452,-0.027273145777638744]","[1,1,1]","[-0.1524953415710218,-0.09165168461338521]","[-1,-1,-1]","[0.17563332537245038,-0.029993946441561784]","[-1,-1,-1]","[-0.09139670316197696,0.14588636243312655]","[1,1,1]","[0.13296098070061496,0.00939325721331571]","[1,1,1]","[0.02,0.02]",143.965,0,18,18,150,1,,,,,,,
,,,,,,,661ff24e9467d613b27d05ac,682f0fbb4c8f26e6ad97c067,2025-05-22_13h51.34.513,cuing_paradigm_dot,2024.1.5,Win32,60.24096386,682d573fa47f1360d1451895,,,,,,,,,,,143.9654,144.4656,,,144.7159,145.433,left,,,,,,,,0.6,0.7074,,,,,,,144.4656,144.7159,145.433,"[-0.15266543158267926,-0.08021036691201107]","[-1,-1,-1]","[-0.10209652742018473,0.17118070030341812]","[1,1,1]","[-0.028702239808281585,-0.08857500839048751]","[-1,-1,-1]","[0.06574702484843517,0.010148670075817491]","[-1,-1,-1]","[-0.06554305227241003,0.12418476996634778]","[1,1,1]","[-0.10805162194473579,0.015120066247993164]","[1,1,1]","[-0.10370854313880316,0.09340646642416808]","[-1,-1,-1]","[-0.057579474196929756,-0.17173469930147814]","[-1,-1,-1]","[0.02291308406648709,0.008390463006920399]","[1,1,1]","[-0.0026654131208621516,-0.13961556062848346]","[1,1,1]","[-0.053593839915364476,-0.03798963847734585]","[1,1,1]","[-0.040588083335758744,0.09027187306593554]","[1,1,1]","[0.028988345584446757,0.176067849884669]","[-1,-1,-1]","[0.1092289514805128,-0.05459063911141565]","[-1,-1,-1]","[-0.18120326115027935,-0.04944845402507562]","[1,1,1]","[0.06231514989064771,0.05488428283801547]","[1,1,1]","[0.035900395354792,0.12361502565176735]","[-1,-1,-1]","[0.015070493155413332,0.07369889352387268]","[-1,-1,-1]","[-0.146821393439164,0.11456198111638793]","[1,1,1]","[0.1540461775188757,0.054102128467680435]","[1,1,1]","[0.020395544359455824,-0.09933344969245252]","[1,1,1]","[-0.09017024870019565,-0.1478394909755466]","[-1,-1,-1]","[0.05600653578167864,-0.05664499647307513]","[1,1,1]","[0.01932530309641594,-0.1942814538951837]","[1,1,1]","[0.0935616389953078,0.09946591010811266]","[1,1,1]","[0.11011100339478096,0.15302688883479637]","[1,1,1]","[-0.05467570949488263,0.015373935876255166]","[1,1,1]","[-0.10913847288647172,-0.05563621485029841]","[-1,-1,-1]","[0.15742204092539386,-0.09853695816614316]","[1,1,1]","[-0.16571371410452157,0.03971762114738529]","[-1,-1,-1]","[0.17274469456708105,0.010028651428879778]","[1,1,1]","[-0.05386226034093965,0.16517738268255222]","[-1,-1,-1]","[0.02,0.02]",146.5343,0,19,19,169,1,,,,,,,
,,,,,,,661ff24e9467d613b27d05ac,682f0fbb4c8f26e6ad97c067,2025-05-22_13h51.34.513,cuing_paradigm_dot,2024.1.5,Win32,60.24096386,682d573fa47f1360d1451895,,,,,,,,,,,146.5345,147.0346,,,147.2851,147.9692,right,,,,,,,,0.55,0.6678,,,,,,,147.0347,147.2851,147.9692,"[-0.05022057844152667,-0.028592846934630493]","[-1,-1,-1]","[-0.06915007708800892,-0.09123024271700075]","[-1,-1,-1]","[0.04002287971695176,0.00951426984824734]","[1,1,1]","[-0.04247995159292547,0.10949773968106481]","[1,1,1]","[-0.12333195343326352,-0.09881434181750372]","[-1,-1,-1]","[0.11083418217803688,-0.016962911176900006]","[1,1,1]","[-0.00029227383138404804,-0.09950471472746387]","[-1,-1,-1]","[0.11661621935806096,0.09381429896450491]","[-1,-1,-1]","[0.06506813621751818,0.16679208018118413]","[-1,-1,-1]","[-0.10699282878579656,0.05393985974814308]","[-1,-1,-1]","[-0.18600531164001338,0.01567473559565067]","[1,1,1]","[0.0939025916634763,0.03533455296162876]","[1,1,1]","[-0.017047342231068966,0.019999700041374895]","[1,1,1]","[0.16052874612464374,-0.01684144497560275]","[1,1,1]","[0.060664419119646214,0.1259690418843004]","[1,1,1]","[0.19112824757831218,-0.054214082629018556]","[-1,-1,-1]","[-0.1108258827530269,-0.03215377366464854]","[1,1,1]","[-0.0643565823920617,-0.1573643539803521]","[1,1,1]","[0.08061789119530602,-0.09120778809710223]","[1,1,1]","[-0.15522195524348462,0.04796768571124644]","[-1,-1,-1]","[-0.016710375444221177,-0.155821251729044]","[1,1,1]","[-0.030245480131382077,0.196662391813011]","[-1,-1,-1]","[-0.14889851405909502,-0.004279606600577859]","[1,1,1]","[-0.0700331162442399,0.16766229144208913]","[-1,-1,-1]","[0.07476005685390832,-0.13549343611487735]","[-1,-1,-1]","[-0.012079573347289308,-0.05378126579453893]","[1,1,1]","[-0.15740805770432142,0.11777538828530704]","[1,1,1]","[0.13831427006972347,0.033343207581433075]","[1,1,1]","[0.020201201427249606,0.09751619220601201]","[1,1,1]","[-0.10746409701880065,0.10171860163617279]","[-1,-1,-1]","[-0.1545194916812337,-0.04572486612615714]","[-1,-1,-1]","[-0.08776941939627665,0.013263835920137239]","[1,1,1]","[0.02,0.02]",149.0701,0,20,20,139,1,,,,,,,
,,,,,,,661ff24e9467d613b27d05ac,682f0fbb4c8f26e6ad97c067,2025-05-22_13h51.34.513,cuing_paradigm_dot,2024.1.5,Win32,60.24096386,682d573fa47f1360d1451895,,,,,,,,,,,149.0704,149.5705,,,149.8211,150.672,right,,,,,,,,0.55,0.8428,,,,,,,149.5706,149.8211,150.6721,"[-0.13212938189817053,-0.0414436118318979]","[-1,-1,-1]","[0.11566074164146249,0.14130438444940732]","[-1,-1,-1]","[-0.14885116352973907,0.0305073138208477]","[1,1,1]","[-0.05833713651617548,0.13749844186460444]","[1,1,1]","[0.10989319733906072,-0.12725056604909527]","[-1,-1,-1]","[0.08574876789456223,-0.16264029147108647]","[-1,-1,-1]","[0.11387885832245845,0.08341873340449067]","[-1,-1,-1]","[0.00812996260634785,-0.01794485002482687]","[-1,-1,-1]","[-0.08526749127425304,-0.05010679833873251]","[1,1,1]","[-0.0447318177851061,0.07275912052383794]","[1,1,1]","[0.005386718538278842,0.06547391437046232]","[-1,-1,-1]","[-0.09416080848100555,0.019034837874715202]","[1,1,1]","[0.11509927052876831,-0.018021779137951704]","[1,1,1]","[0.02857193126158923,0.13340248988098272]","[-1,-1,-1]","[0.06979643215776155,0.02182349448000534]","[1,1,1]","[0.06034683940435088,0.08706368149157145]","[1,1,1]","[0.007631774463844169,-0.18459793890314788]","[-1,-1,-1]","[0.06585560872278813,-0.10016687120517663]","[1,1,1]","[0.037296042833049006,0.19282338121112683]","[-1,-1,-1]","[-0.14035041969075154,-0.1215695326817483]","[-1,-1,-1]","[0.11487677412362647,0.035838217237789044]","[1,1,1]","[0.18152350775937534,0.05649895044291681]","[1,1,1]","[0.15995792574824777,-0.03140937021235596]","[1,1,1]","[-0.04962878659093639,-0.10662289990450584]","[-1,-1,-1]","[0.04933742428072992,-0.021357441113354376]","[1,1,1]","[0.03571666469927897,-0.1371567164712154]","[1,1,1]","[-0.09380822480867194,0.07541813387723083]","[1,1,1]","[-0.03275806502939093,-0.15815400127532514]","[-1,-1,-1]","[-0.14910309352841886,0.09217022186939516]","[1,1,1]","[-0.03966652619580849,0.19312488743395628]","[1,1,1]","[-0.09173112935029311,-0.17708166663706212]","[1,1,1]","[-0.034000179249664794,0.03282151621316224]","[-1,-1,-1]","[0.02,0.02]",151.7729,0,21,21,144,1,,,,,,,
,,,,,,,661ff24e9467d613b27d05ac,682f0fbb4c8f26e6ad97c067,2025-05-22_13h51.34.513,cuing_paradigm_dot,2024.1.5,Win32,60.24096386,682d573fa47f1360d1451895,,,,,,,,,,,151.7733,152.2732,,,152.5239,153.7916,right,,,,,,,,0.5,1.2589,,,,,,,152.2732,152.5239,153.7917,"[-0.02069263875384642,0.04816946049280117]","[1,1,1]","[-0.0076414500119382405,0.004284993421062587]","[-1,-1,-1]","[-0.1397438789604889,0.035955457501172364]","[1,1,1]","[0.14976447097730333,-0.07619230614001196]","[-1,-1,-1]","[-0.0351148652292447,-0.13656820738277684]","[1,1,1]","[0.07524019674108015,0.109462369439151]","[1,1,1]","[-0.07775206131145457,-0.11461109213245162]","[1,1,1]","[0.104925647742625,-0.1590709501822866]","[-1,-1,-1]","[0.020331153719401328,0.05673265699372124]","[1,1,1]","[0.023718581038645544,-0.0918714842618523]","[1,1,1]","[-0.14097880823510794,-0.09261698331451121]","[-1,-1,-1]","[0.04271385933404163,0.013646680989828543]","[-1,-1,-1]","[-0.08771073763442454,0.02520011809045957]","[-1,-1,-1]","[0.09294676932680701,-0.03377752289792225]","[-1,-1,-1]","[-0.09068639157525459,-0.155746954772529]","[1,1,1]","[0.18193376939214348,-0.006989281279841051]","[-1,-1,-1]","[-0.11541877039641729,0.15536013188600759]","[1,1,1]","[-0.06427212520084657,0.17369422371859547]","[-1,-1,-1]","[-0.026712551501214724,0.1894925487917941]","[-1,-1,-1]","[0.035605386602562364,-0.048031570583739636]","[1,1,1]","[-0.1062814378504927,-0.049487461438246304]","[1,1,1]","[0.184819989856545,0.0647228055651158]","[-1,-1,-1]","[0.12198228276302524,0.10224290699833533]","[-1,-1,-1]","[-0.01131592222779495,-0.06765265305497005]","[-1,-1,-1]","[0.03595169316696082,0.18622331561739222]","[1,1,1]","[0.16264126998886955,0.09889262473992147]","[1,1,1]","[-0.000040089735046206954,0.1287995280743974]","[-1,-1,-1]","[0.03333786314900385,-0.1328338623143189]","[1,1,1]","[0.075451400518319,0.16665637150465973]","[1,1,1]","[-0.16905245631477497,-0.05861999258970109]","[-1,-1,-1]","[-0.1283424580808457,-0.004759575358263329]","[-1,-1,-1]","[-0.11904559537835799,0.08224385518505882]","[1,1,1]","[0.02,0.02]",154.8926,0,22,22,115,1,,,,,,,
,,,,,,,661ff24e9467d613b27d05ac,682f0fbb4c8f26e6ad97c067,2025-05-22_13h51.34.513,cuing_paradigm_dot,2024.1.5,Win32,60.24096386,682d573fa47f1360d1451895,,,,,,,,,,,154.8931,155.393,,,155.6435,156.1774,right,,,,,,,,0.1,0.5223,,,,,,,155.393,155.6435,156.1774,"[0.05553332587349673,-0.18421214312253403]","[-1,-1,-1]","[-0.1735179113516835,-0.07097516591182716]","[-1,-1,-1]","[-0.019132485691721834,0.16756934905609372]","[-1,-1,-1]","[0.09768149637575657,0.02147399348094447]","[-1,-1,-1]","[-0.08361561203734225,-0.11362166396736727]","[-1,-1,-1]","[0.09429843971290705,-0.11142992600755948]","[-1,-1,-1]","[-0.11871232373143158,0.1472023897808054]","[-1,-1,-1]","[0.1798576278004145,0.04502071745184269]","[-1,-1,-1]","[-0.058212454808215915,-0.0310873779326762]","[-1,-1,-1]","[0.053008118327240714,-0.11694050308651087]","[1,1,1]","[0.07773908086074828,0.16346275706634014]","[1,1,1]","[-0.05491487423180749,-0.1889615984053405]","[-1,-1,-1]","[-0.07717763663875184,0.03175145597036041]","[1,1,1]","[0.012748854981554503,0.006699482945217539]","[-1,-1,-1]","[0.060862217470493356,0.11331345601361113]","[-1,-1,-1]","[-0.032532805451181424,0.022417077157140024]","[-1,-1,-1]","[0.13939609646703274,0.14227831182259937]","[-1,-1,-1]","[-0.11328352918949136,0.08776091984271285]","[-1,-1,-1]","[-0.194415969783674,0.03311924384073332]","[-1,-1,-1]","[0.10702067806974931,0.1151989978237517]","[-1,-1,-1]","[0.03735943857669279,0.17079855921614756]","[-1,-1,-1]","[-0.11928169473156296,-0.1372290031083374]","[-1,-1,-1]","[0.12428665541093808,-0.03720378762266966]","[-1,-1,-1]","[-0.15932521884212525,0.06399308275890289]","[-1,-1,-1]","[0.16334319336467626,-0.05768013505260471]","[-1,-1,-1]","[0.0022043806907452125,-0.16736552573448474]","[-1,-1,-1]","[-0.10894768032486003,-0.03731773804996937]","[-1,-1,-1]","[0.06831479910346121,0.0602555482960499]","[-1,-1,-1]","[0.024367850214931555,-0.03464120760343363]","[-1,-1,-1]","[0.0006194390698163252,-0.12634632328058462]","[-1,-1,-1]","[-0.16152597050747217,0.00023762510697035376]","[-1,-1,-1]","[-0.054153429680234476,0.06844858114072712]","[-1,-1,-1]","[0.02,0.02]",157.2784,0,23,23,14,1,,,,,,,
,,,,,,,661ff24e9467d613b27d05ac,682f0fbb4c8f26e6ad97c067,2025-05-22_13h51.34.513,cuing_paradigm_dot,2024.1.5,Win32,60.24096386,682d573fa47f1360d1451895,,,,,,,,,,,157.2788,157.7787,,,158.0294,158.513,left,,,,,,,,0.9,0.4671,,,,,,,157.7788,158.0294,158.513,"[0.14094231187135087,0.11420350918780862]","[1,1,1]","[-0.1349924694219287,0.03101916511790845]","[1,1,1]","[0.04959981861688506,0.18613142537401836]","[1,1,1]","[0.03914875074406742,-0.03845512309380831]","[1,1,1]","[0.07451578485780613,-0.1491390437889533]","[1,1,1]","[-0.11767184455561211,-0.012403983088632728]","[1,1,1]","[0.10644360659793806,0.14254182123000486]","[-1,-1,-1]","[0.0202829375310033,0.06402023152317932]","[1,1,1]","[-0.09456344999607266,-0.16131473535479543]","[1,1,1]","[-0.1607758337259435,-0.06220140172778938]","[1,1,1]","[0.10319564581466567,0.03262732723940338]","[1,1,1]","[0.07682563263077359,-0.05304991133055579]","[1,1,1]","[0.06043580920320358,0.0340528308128453]","[1,1,1]","[-0.06779046494428256,-0.0480428584952343]","[1,1,1]","[-0.0560767052730867,0.08714727274148915]","[1,1,1]","[0.0008772937412326931,0.004093807607293884]","[1,1,1]","[-0.1559231648970641,0.12335219557528682]","[-1,-1,-1]","[-0.020732905502750393,-0.08472430938776442]","[1,1,1]","[-0.07054827760323959,-0.11192850556184794]","[1,1,1]","[-0.06318854864441802,0.004174356239836111]","[1,1,1]","[-0.09525630638290597,0.1620067210182897]","[1,1,1]","[-0.11594141743587379,-0.0682417580583453]","[1,1,1]","[0.14088306524458521,0.017777612902347736]","[1,1,1]","[0.12557514577931736,-0.03147550565603176]","[1,1,1]","[-0.023282387600960085,0.1512425431304859]","[-1,-1,-1]","[0.009172670334061687,-0.19968349476551137]","[1,1,1]","[-0.08904908398687592,0.062159394372888775]","[1,1,1]","[-0.05443670430519275,-0.1759521872602014]","[1,1,1]","[-0.18659121912987445,0.054227709417515556]","[1,1,1]","[0.10041033327362894,0.07369189053774816]","[1,1,1]","[0.07073415264849396,0.1037782204541296]","[1,1,1]","[0.024223058444880517,0.12646634049190972]","[1,1,1]","[0.02,0.02]",159.6139,0,24,24,196,1,,,,,,,
,,,,,,,661ff24e9467d613b27d05ac,682f0fbb4c8f26e6ad97c067,2025-05-22_13h51.34.513,cuing_paradigm_dot,2024.1.5,Win32,60.24096386,682d573fa47f1360d1451895,,,,,,,,,,,159.6143,160.1143,,,160.3655,161.2487,right,,,,,,,,0.45,0.8728,,,,,,,160.1143,160.3655,161.2488,"[0.1406971466214237,-0.09283511247236817]","[-1,-1,-1]","[-0.03451222451496721,0.046475851989003156]","[1,1,1]","[0.1795535988814119,0.046953489557874754]","[1,1,1]","[-0.16681335095258087,-0.09953513443813133]","[-1,-1,-1]","[-0.15979091233927475,-0.027444636183013488]","[1,1,1]","[-0.07481442023848965,0.1475672397163236]","[1,1,1]","[0.06909755748395988,-0.13126692785967373]","[-1,-1,-1]","[0.022118443630024163,0.04349389895175294]","[1,1,1]","[-0.03808639134130507,0.1793108727372242]","[-1,-1,-1]","[-0.14155452636698748,0.046019954951677176]","[-1,-1,-1]","[-0.0834208875676732,-0.1269643553757877]","[1,1,1]","[0.14766233641298346,-0.02452491984950709]","[-1,-1,-1]","[-0.001168644186544259,-0.12540913683513027]","[-1,-1,-1]","[0.09239546721113961,-0.06465186024218024]","[1,1,1]","[-0.09554278206752705,0.006403039573341549]","[1,1,1]","[-0.13675323468291514,-0.12738350756540784]","[-1,-1,-1]","[0.08815938664739909,0.16336115784952038]","[1,1,1]","[-0.017564465285581157,0.1347020127018392]","[-1,-1,-1]","[-0.04155776111133908,-0.1256947018743262]","[-1,-1,-1]","[-0.030400819122641396,-0.0784677807999892]","[-1,-1,-1]","[0.045677756453916335,-0.06580099820246177]","[-1,-1,-1]","[0.03762863799019007,0.11660691321745763]","[1,1,1]","[-0.060403730069970796,-0.03303306207970853]","[-1,-1,-1]","[0.04906212884834898,-0.18052153970819304]","[1,1,1]","[0.03830223451505506,0.0035841540850951852]","[-1,-1,-1]","[-0.08090295535527538,0.10009919248420258]","[-1,-1,-1]","[0.10302552437856038,0.013995000520667813]","[-1,-1,-1]","[0.1421936791706209,0.11573587386772802]","[1,1,1]","[0.07135569509319416,-0.024680345622593854]","[-1,-1,-1]","[0.06479446685665702,0.059392302922287095]","[-1,-1,-1]","[-0.151477256403651,0.09014749778931948]","[1,1,1]","[-0.13877513838986547,0.1420412078060417]","[1,1,1]","[0.02,0.02]",162.35,0,25,25,76,1,,,,,,,
,,,,,,,661ff24e9467d613b27d05ac,682f0fbb4c8f26e6ad97c067,2025-05-22_13h51.34.513,cuing_paradigm_dot,2024.1.5,Win32,60.24096386,682d573fa47f1360d1451895,,,,,,,,,,,162.3504,162.8505,,,163.1011,163.8352,right,,,,,,,,0.4,0.7175,,,,,,,162.8505,163.1011,163.8352,"[-0.035174748532961986,-0.05958389149743045]","[1,1,1]","[-0.039637240236237,0.15612238830951716]","[-1,-1,-1]","[-0.09884746409036142,0.10168918705137472]","[1,1,1]","[0.1757600879624577,0.03358347293473851]","[1,1,1]","[-0.05416120434744899,-0.1329743447951014]","[-1,-1,-1]","[0.025919457918077465,-0.11684718038318966]","[-1,-1,-1]","[0.0013164385400261805,0.09851652911927661]","[-1,-1,-1]","[-0.13664534118021013,0.14528469051038043]","[1,1,1]","[-0.013245452788847981,-0.007626500247457701]","[-1,-1,-1]","[0.1612536703594125,0.0753148859232256]","[-1,-1,-1]","[0.11784193680195823,0.0322704032223903]","[-1,-1,-1]","[0.08904413995913375,0.12372843651378326]","[1,1,1]","[-0.16382793949127983,0.05474838822723981]","[1,1,1]","[-0.0839697534548445,0.02891589865117505]","[-1,-1,-1]","[-0.09309135501629523,-0.10746521331677744]","[1,1,1]","[0.18485182626359647,-0.05462991361532723]","[-1,-1,-1]","[0.06826665044058267,-0.0726846928681854]","[1,1,1]","[-0.00044782069443642165,-0.19664404544188827]","[1,1,1]","[0.11213778744258632,-0.008433258743044474]","[-1,-1,-1]","[0.024909417872547114,-0.1574290608741977]","[1,1,1]","[0.010554111992054638,0.1508421723831114]","[1,1,1]","[0.13026366390691985,-0.056033154096090776]","[-1,-1,-1]","[-0.03736132478610123,0.07806996917181515]","[1,1,1]","[0.1583052487913327,-0.09349236462939316]","[-1,-1,-1]","[-0.08019187817247557,-0.010915879680895411]","[-1,-1,-1]","[-0.13537842828826646,-0.07554501324433052]","[-1,-1,-1]","[-0.14674626220096726,0.10436562820415832]","[-1,-1,-1]","[0.02856045562910965,0.05073422273276021]","[-1,-1,-1]","[0.03171092812801139,-0.007305323822045401]","[1,1,1]","[0.0739838067723136,0.16204595058152244]","[-1,-1,-1]","[0.11361068634247623,-0.10081266153740201]","[-1,-1,-1]","[-0.13189570753285243,-0.1500239296959786]","[-1,-1,-1]","[0.02,0.02]",164.9359,0,26,26,47,1,,,,,,,
,,,,,,,661ff24e9467d613b27d05ac,682f0fbb4c8f26e6ad97c067,2025-05-22_13h51.34.513,cuing_paradigm_dot,2024.1.5,Win32,60.24096386,682d573fa47f1360d1451895,,,,,,,,,,,164.9362,165.4366,,,165.687,166.1205,right,,,,,,,,0.1,0.4247,,,,,,,165.4366,165.687,166.1206,"[-0.14549017605313455,0.12382219431723106]","[-1,-1,-1]","[0.019830605280217066,0.022041715337599726]","[-1,-1,-1]","[-0.09336256358614346,0.0856952181033295]","[-1,-1,-1]","[-0.16499501871637334,0.0451705363513678]","[-1,-1,-1]","[-0.1512508728344801,-0.08565863866031463]","[-1,-1,-1]","[0.09989394620541524,0.0065312773890663246]","[-1,-1,-1]","[-0.03719488860471503,0.08018356910383795]","[-1,-1,-1]","[0.03208726785838429,0.06571159116784671]","[-1,-1,-1]","[0.04638371245638974,-0.15689839330105915]","[-1,-1,-1]","[-0.11307858855772292,-0.037122080273495985]","[-1,-1,-1]","[-0.15187499925549283,-0.025207348706887855]","[-1,-1,-1]","[-0.12875547963157657,-0.13663997284448257]","[-1,-1,-1]","[0.037466867025600065,-0.048029849451426486]","[-1,-1,-1]","[-0.040070555725566684,-0.008717464738979594]","[-1,-1,-1]","[-0.14316200876128046,0.0824431607421529]","[1,1,1]","[0.12919485911701825,-0.020780423009021044]","[-1,-1,-1]","[-0.004143010985743468,-0.05374654033602693]","[-1,-1,-1]","[-0.03627687305568152,-0.1855458813738492]","[-1,-1,-1]","[-0.015026071814463974,-0.11277849178605252]","[-1,-1,-1]","[-0.038811843377586,0.15018288313704983]","[-1,-1,-1]","[0.14387125531869469,0.07773100433206485]","[-1,-1,-1]","[-0.056358500096707995,-0.10044784306615688]","[1,1,1]","[0.17664714804181192,0.005812868238087048]","[1,1,1]","[0.07848342891299569,0.08404812912525075]","[-1,-1,-1]","[-0.19202238476627306,-0.0414947691567972]","[-1,-1,-1]","[0.05501088046832321,0.14373693555693587]","[-1,-1,-1]","[0.08521145331223992,-0.07677051298452273]","[-1,-1,-1]","[-0.0017117942387863468,-0.1613307714546512]","[-1,-1,-1]","[-0.09863103958256987,0.13539568048105513]","[-1,-1,-1]","[0.05888276687366857,0.18613691999971213]","[-1,-1,-1]","[0.022261340161796515,-0.0877664836516715]","[-1,-1,-1]","[-0.12946457322505636,0.021365104942749766]","[-1,-1,-1]","[0.02,0.02]",167.2217,0,27,27,9,1,,,,,,,
,,,,,,,661ff24e9467d613b27d05ac,682f0fbb4c8f26e6ad97c067,2025-05-22_13h51.34.513,cuing_paradigm_dot,2024.1.5,Win32,60.24096386,682d573fa47f1360d1451895,,,,,,,,,,,167.222,167.7221,,,167.9728,168.2227,left,,,,,,,,0.9,0.2431,,,,,,,167.7222,167.9727,168.2227,"[0.010195667002145678,0.06732162136983386]","[1,1,1]","[0.0707066153859754,0.05029332759146507]","[1,1,1]","[0.11446367007670993,0.12087984655191718]","[1,1,1]","[-0.1251720415689826,0.08529994969741159]","[1,1,1]","[-0.1886008487915947,0.0017189586946632013]","[1,1,1]","[-0.08250276392800157,0.010667569023407108]","[1,1,1]","[0.027946198293095977,0.11969166357877004]","[1,1,1]","[0.1900456876426811,-0.0537068031379823]","[-1,-1,-1]","[-0.033228875096006014,0.012128315680456367]","[1,1,1]","[-0.06929890189427339,-0.18533853537007816]","[1,1,1]","[0.055956136904021375,-0.08986697895922477]","[1,1,1]","[0.00804945192899594,-0.1286954464784673]","[1,1,1]","[-0.07243793639123083,0.1481736252779634]","[1,1,1]","[-0.132495931814138,-0.021033665209561223]","[1,1,1]","[-0.17708677146046517,0.05318520506128125]","[1,1,1]","[0.16321150955084315,0.01411005289088453]","[1,1,1]","[-0.026572434099564345,0.11937381665869991]","[-1,-1,-1]","[0.08539116415104638,-0.16348801065495386]","[1,1,1]","[-0.04769376457244389,-0.12117517987849194]","[1,1,1]","[-0.13694833203700776,-0.0900332766445088]","[1,1,1]","[0.1370270159117236,0.07870405199060619]","[1,1,1]","[-0.026579758985095844,-0.03764000394687679]","[1,1,1]","[0.09378296068514844,-0.1061782454800905]","[1,1,1]","[0.13916916635459337,-0.02445140727677478]","[1,1,1]","[0.030468430700956676,-0.17259842738961645]","[1,1,1]","[0.015453097785282704,-0.05414272790505414]","[1,1,1]","[-0.013988033228496727,-0.17627706996309953]","[-1,-1,-1]","[0.0769864653379998,0.10075213558991862]","[1,1,1]","[-0.10993422560133873,0.16598929265385173]","[1,1,1]","[0.14429796746719947,-0.08184952836425981]","[1,1,1]","[-0.03649042049837815,0.07235744935081716]","[1,1,1]","[-0.023217821835808613,0.1826156343415752]","[1,1,1]","[0.02,0.02]",169.3237,0,28,28,181,1,,,,,,,
,,,,,,,661ff24e9467d613b27d05ac,682f0fbb4c8f26e6ad97c067,2025-05-22_13h51.34.513,cuing_paradigm_dot,2024.1.5,Win32,60.24096386,682d573fa47f1360d1451895,,,,,,,,,,,169.324,169.8241,,,170.0742,170.3582,right,,,,,,,,0.1,0.2785,,,,,,,169.8242,170.0742,170.3583,"[0.011790487460292773,-0.06964554664410298]","[1,1,1]","[-0.06303052950511596,-0.17876447629676084]","[-1,-1,-1]","[0.006548786752987111,0.15569504147392174]","[-1,-1,-1]","[0.08309708935081542,-0.02604198051449106]","[-1,-1,-1]","[0.10791432482155908,0.09457967673854926]","[-1,-1,-1]","[0.1212732526368724,-0.15518840466159375]","[-1,-1,-1]","[0.09684864326857297,-0.09829151635714461]","[-1,-1,-1]","[-0.12289901913626024,-0.07621172012459826]","[-1,-1,-1]","[0.1278803354070456,0.005845559534905305]","[-1,-1,-1]","[-0.1600691934204572,0.08147821031833716]","[-1,-1,-1]","[-0.11717641553138398,0.062033115578862964]","[-1,-1,-1]","[-0.13643912443122577,0.00379471573382775]","[-1,-1,-1]","[-0.10049529109842839,0.11029288983642493]","[-1,-1,-1]","[-0.06515814854883055,-0.03368279867448474]","[-1,-1,-1]","[-0.08682857056161018,0.15827052669422687]","[-1,-1,-1]","[0.03425663130759396,0.045089610348505]","[-1,-1,-1]","[-0.0332092958867324,0.12979530209068615]","[-1,-1,-1]","[0.07172407112970358,-0.17792115532545902]","[-1,-1,-1]","[0.07463210270263552,0.04218867021396932]","[-1,-1,-1]","[0.14845900536405243,0.08924531024894687]","[1,1,1]","[-0.10803730912796737,-0.1467043866989141]","[-1,-1,-1]","[-0.04879497121088694,-0.12335447467014313]","[-1,-1,-1]","[0.18835216396235413,-0.034876733539837654]","[-1,-1,-1]","[-0.08816712595069631,-0.10513265714997748]","[-1,-1,-1]","[0.1469421175059848,-0.08829661715461239]","[-1,-1,-1]","[-0.18187934921100357,0.006555650468592412]","[-1,-1,-1]","[-0.07889194438519265,0.005440308818226256]","[-1,-1,-1]","[-0.03328471876831691,0.07452926017481228]","[-1,-1,-1]","[-0.164090055881125,-0.0802728619052156]","[-1,-1,-1]","[0.0009977958020297498,-0.1135527217359355]","[1,1,1]","[0.14055077570094368,-0.03679320603809746]","[-1,-1,-1]","[-0.013684659889562531,-0.01940622410935454]","[-1,-1,-1]","[0.02,0.02]",171.4588,0,29,29,22,1,,,,,,,
,,,,,,,661ff24e9467d613b27d05ac,682f0fbb4c8f26e6ad97c067,2025-05-22_13h51.34.513,cuing_paradigm_dot,2024.1.5,Win32,60.24096386,682d573fa47f1360d1451895,,,,,,,,,,,171.4591,171.9594,,,172.21,173.0104,right,,,,,,,,0.45,0.7832,,,,,,,171.9594,172.21,173.0104,"[0.1978220930667112,-0.026303177002687635]","[-1,-1,-1]","[-0.1946980503246128,0.034057015762497506]","[1,1,1]","[0.02622686736014444,0.014883566562162958]","[-1,-1,-1]","[0.11069145777746639,-0.15181612999705701]","[1,1,1]","[-0.07526931498585662,-0.15353080360612922]","[1,1,1]","[0.07796362777629003,0.1313975983969734]","[-1,-1,-1]","[0.05181847770349571,-0.15078664410254566]","[1,1,1]","[0.17531615771181772,0.04119065998795317]","[1,1,1]","[0.08666588620475195,-0.01271354792565462]","[1,1,1]","[0.00018265330108669005,0.0842897310276745]","[-1,-1,-1]","[-0.02723420655900912,-0.15970340551962242]","[-1,-1,-1]","[0.12888768464054293,0.060047252159247305]","[-1,-1,-1]","[-0.04627198355532597,-0.03288675126556502]","[-1,-1,-1]","[0.10429927957399976,-0.07480878944816337]","[-1,-1,-1]","[-0.023679351841100687,0.1380520260986154]","[-1,-1,-1]","[-0.148993400244905,0.04838175118116272]","[1,1,1]","[-0.1533162958600052,0.1082805118310211]","[-1,-1,-1]","[0.03855568666755291,0.11745988165156096]","[-1,-1,-1]","[-0.11387811661972597,0.12578786367193684]","[1,1,1]","[-0.1389408331012018,-0.056379790538813375]","[-1,-1,-1]","[0.16268703778678562,-0.06937903374942904]","[-1,-1,-1]","[0.12729816951010217,0.14035867706816738]","[-1,-1,-1]","[-0.023470942763384166,0.03322931073647006]","[-1,-1,-1]","[-0.06647825793913512,0.10026307292068]","[1,1,1]","[0.08008658958060284,-0.11723067915932585]","[1,1,1]","[-0.10880061947313449,-0.0165353560239033]","[-1,-1,-1]","[0.011842461578678673,-0.041720092000744065]","[1,1,1]","[-0.10001209158645706,0.03680606370156795]","[-1,-1,-1]","[-0.0864845638078584,0.1577768930438621]","[1,1,1]","[0.12195101064528754,0.09965742609414016]","[-1,-1,-1]","[-0.1238323402115684,-0.15190533290666394]","[1,1,1]","[0.014382157977535896,0.15841904253447328]","[1,1,1]","[0.02,0.02]",174.1117,0,30,30,67,1,,,,,,,
,,,,,,,661ff24e9467d613b27d05ac,682f0fbb4c8f26e6ad97c067,2025-05-22_13h51.34.513,cuing_paradigm_dot,2024.1.5,Win32,60.24096386,682d573fa47f1360d1451895,,,,,,,,,,,174.1119,174.6124,,,174.8628,176.3641,,,,,,,,,0.5,,,,,,,,174.6124,174.8628,176.3641,"[-0.0527958445772692,-0.020120514453979103]","[-1,-1,-1]","[0.09535236442360885,0.09188967747880232]","[1,1,1]","[0.09091374842936528,-0.08080997530726229]","[-1,-1,-1]","[-0.14488025268429774,0.12736211460692545]","[1,1,1]","[-0.007744347199567782,-0.1492713453323889]","[-1,-1,-1]","[0.015855113523970274,0.19596840051278805]","[-1,-1,-1]","[0.18122064812571514,0.019807653927706285]","[1,1,1]","[-0.04188812278750055,-0.115583572985718]","[1,1,1]","[-0.10446483159816503,-0.09468672287229582]","[-1,-1,-1]","[0.05886346492612449,0.044554693912932986]","[1,1,1]","[0.03910885491005042,0.15550120224178043]","[1,1,1]","[-0.11541627928364605,0.0010495348041558042]","[-1,-1,-1]","[0.1511441399736156,-0.00711522400971091]","[1,1,1]","[-0.07873640857979944,0.09900520980295696]","[1,1,1]","[0.11385647994584534,0.1321654836970089]","[-1,-1,-1]","[0.1320264098392983,-0.058590349216870286]","[-1,-1,-1]","[0.051176600328921094,-0.1747062182536172]","[-1,-1,-1]","[-0.08901536384141312,0.14684028479025152]","[1,1,1]","[0.12521111604785637,-0.12328642813206178]","[1,1,1]","[0.02146062068412417,0.026614604528510336]","[1,1,1]","[-0.0007754990358987369,-0.023460275905160744]","[1,1,1]","[-0.06861287265363188,0.0546736252602163]","[-1,-1,-1]","[0.016709222227967967,0.09823460536796984]","[-1,-1,-1]","[-0.004934000663898469,0.1357466993562637]","[-1,-1,-1]","[-0.1383700255250726,-0.0427465529163482]","[1,1,1]","[-0.06643112637760346,-0.07107670512080275]","[-1,-1,-1]","[0.05060599749854569,-0.08188475187208985]","[-1,-1,-1]","[-0.028415465210153736,-0.18360419101750264]","[-1,-1,-1]","[-0.13511852861243667,0.0683331521878492]","[-1,-1,-1]","[0.150374498937123,0.10571746439656904]","[1,1,1]","[-0.17405254008160403,0.037828174123815936]","[1,1,1]","[0.004935234713916345,-0.07818220663857778]","[1,1,1]","[0.02,0.02]",177.4652,0,31,31,95,1,,,,,,,
,,,,,,,661ff24e9467d613b27d05ac,682f0fbb4c8f26e6ad97c067,2025-05-22_13h51.34.513,cuing_paradigm_dot,2024.1.5,Win32,60.24096386,682d573fa47f1360d1451895,,,,,,,,,,,177.4656,177.9657,,,178.2162,178.5998,left,,,,,,,,0.9,0.3672,,,,,,,177.9658,178.2162,178.5999,"[0.05546332888733799,0.0058688073347582335]","[1,1,1]","[0.029851365927918802,0.0638758090918142]","[1,1,1]","[-0.052508205351239054,-0.1730307083429888]","[1,1,1]","[0.09621163173469877,-0.14277580501181728]","[1,1,1]","[-0.011967719418360001,-0.06378230768313749]","[-1,-1,-1]","[0.08686117424224803,0.120714494127263]","[1,1,1]","[0.15426280966255385,0.05721336993143642]","[-1,-1,-1]","[-0.1388182998750593,0.1416916690625912]","[1,1,1]","[0.15974210900953342,0.11138655443397197]","[1,1,1]","[0.1426216188763091,-0.08055055322979605]","[1,1,1]","[-0.036934316699666216,0.1826770527007611]","[1,1,1]","[-0.10599386970267055,-0.10000688109680694]","[1,1,1]","[0.1715088760151419,-0.04791551465495478]","[1,1,1]","[0.024227761739243146,0.14195254243041658]","[1,1,1]","[0.11256334125922662,-0.009281612474720868]","[1,1,1]","[-0.04575022254543511,0.06309225820092451]","[-1,-1,-1]","[-0.023252910692538105,0.01769811642547467]","[1,1,1]","[0.010239114885406665,-0.15459110865487202]","[1,1,1]","[-0.1471185917302591,-0.099560325947177]","[1,1,1]","[-0.10345764460564351,0.061496057732191085]","[1,1,1]","[-0.18431360502831054,-0.010292653476536033]","[1,1,1]","[-0.05465310600383711,0.14549049909348757]","[1,1,1]","[-0.16464922859681339,0.036303380793012464]","[1,1,1]","[-0.14234578253802105,-0.00828536689948442]","[1,1,1]","[0.044358841780684596,-0.06826724156633332]","[1,1,1]","[-0.10641419721798401,-0.036334205820373666]","[1,1,1]","[-0.026490704252361337,0.11377980511319126]","[1,1,1]","[0.10146464908321683,0.08010768606133255]","[1,1,1]","[0.11529103762347839,0.15838071636778892]","[1,1,1]","[-0.05429076964350517,-0.06591474943296863]","[1,1,1]","[0.07489726611836613,0.1743731599447297]","[1,1,1]","[-0.04636522811187085,-0.10685004136322719]","[1,1,1]","[0.02,0.02]",179.7009,0,32,32,182,1,,,,,,,
,,,,,,,661ff24e9467d613b27d05ac,682f0fbb4c8f26e6ad97c067,2025-05-22_13h51.34.513,cuing_paradigm_dot,2024.1.5,Win32,60.24096386,682d573fa47f1360d1451895,,,,,,,,,,,179.7012,180.2013,,,180.452,180.9188,left,,,,,,,,0.6,0.4593,,,,,,,180.2014,180.4519,180.9189,"[-0.09718133111690704,-0.012257345091226498]","[1,1,1]","[0.06815600921457965,-0.04229952022763438]","[1,1,1]","[0.011342533844186946,-0.15573889270182828]","[-1,-1,-1]","[0.1696735297746365,-0.07263115065707433]","[-1,-1,-1]","[-0.08662769018433888,0.07670246356948465]","[1,1,1]","[0.05737781376440459,-0.1225120726568499]","[1,1,1]","[-0.10568362676771774,-0.09058001788648049]","[-1,-1,-1]","[0.01593002138882793,-0.02079922100097017]","[1,1,1]","[0.022247404428277336,0.10995138927926426]","[1,1,1]","[-0.13788119696019832,0.05549690378086494]","[-1,-1,-1]","[-0.021384399326202383,-0.05707887607441285]","[-1,-1,-1]","[-0.035595314200816644,0.16996962821083672]","[1,1,1]","[0.09589376829360845,-0.10737292158462165]","[1,1,1]","[-0.18634763590928088,-0.0303925360663271]","[1,1,1]","[-0.06743963209738807,-0.18113270332379877]","[-1,-1,-1]","[0.09932025491450543,0.11487460919651517]","[-1,-1,-1]","[0.1340662624639924,0.08023498138627054]","[1,1,1]","[-0.09179755489986904,0.12905536665758163]","[-1,-1,-1]","[0.1080470964109772,0.02936716083593607]","[1,1,1]","[-0.13882640918652053,-0.05721479506761015]","[1,1,1]","[-0.1547212759937898,0.10897514473942445]","[1,1,1]","[0.11284762900731098,-0.03850179976375324]","[-1,-1,-1]","[-0.034816281357536734,-0.12579160989330165]","[-1,-1,-1]","[-0.008099758199264166,0.017035064300106716]","[1,1,1]","[0.04316334310368949,0.16873873401691214]","[1,1,1]","[0.08281998489816048,0.06325818818134687]","[-1,-1,-1]","[0.1379742011580103,0.12702949110371473]","[1,1,1]","[0.07854499281397671,-0.18120889802819884]","[1,1,1]","[0.15364047215986495,-0.028611376454951685]","[1,1,1]","[-0.04326095381244616,-0.020195808483545085]","[1,1,1]","[0.18462027444848708,0.07681566099199628]","[-1,-1,-1]","[0.15978728007565832,-0.11640706310161493]","[-1,-1,-1]","[0.02,0.02]",182.0197,0,33,33,168,1,,,,,,,
,,,,,,,661ff24e9467d613b27d05ac,682f0fbb4c8f26e6ad97c067,2025-05-22_13h51.34.513,cuing_paradigm_dot,2024.1.5,Win32,60.24096386,682d573fa47f1360d1451895,,,,,,,,,,,182.0199,182.5201,,,182.771,183.3213,left,,,,,,,,0.45,0.5331,,,,,,,182.5201,182.7709,183.3213,"[0.1908389593907831,0.045815143100593]","[-1,-1,-1]","[-0.17484685864531768,-0.03500134811298815]","[1,1,1]","[0.0548790621808611,-0.13388921353561414]","[1,1,1]","[-0.030055194908277887,-0.0638893021145971]","[1,1,1]","[0.04680041904309228,0.08633273787246784]","[1,1,1]","[0.04612580285101888,-0.014555892339866119]","[-1,-1,-1]","[-0.14505480975215748,0.10380574847576529]","[1,1,1]","[-0.13726154423150225,-0.09814494424692272]","[-1,-1,-1]","[0.11932953249472032,0.03182424432732529]","[1,1,1]","[-0.06835053197418949,-0.0782660077241834]","[1,1,1]","[0.028858211998526978,-0.08671709377173192]","[-1,-1,-1]","[-0.09272063528152605,0.03600668752889449]","[1,1,1]","[0.110704989927284,-0.1600714516247545]","[-1,-1,-1]","[0.12622713299461477,0.15023673689287484]","[-1,-1,-1]","[-0.005154338179094672,-0.17222696106623317]","[-1,-1,-1]","[0.10761400437035655,-0.11836868864544303]","[-1,-1,-1]","[0.04512614375043942,-0.18346822269898747]","[1,1,1]","[0.01275808991972556,0.020509217472661424]","[1,1,1]","[-0.07196968590003222,0.1298277933270099]","[-1,-1,-1]","[0.02446354214274575,0.19769218748542935]","[-1,-1,-1]","[0.15382103457937207,-0.12127533680686729]","[-1,-1,-1]","[0.10846964186494039,0.10677646002147213]","[-1,-1,-1]","[0.1706265062901674,-0.006087171340540267]","[1,1,1]","[-0.034564019618122374,0.010332914017333992]","[-1,-1,-1]","[0.13964971935693657,-0.0407727647146897]","[-1,-1,-1]","[-0.061200945601412565,-0.17435677287230766]","[-1,-1,-1]","[0.0008034482676946425,0.10398359854079067]","[1,1,1]","[-0.015192125753899551,0.17287223674864557]","[1,1,1]","[0.09543044972925012,-0.005866237069493023]","[1,1,1]","[0.17945985651081228,-0.048795930818891345]","[-1,-1,-1]","[0.1535187341384646,0.08590235173114173]","[-1,-1,-1]","[-0.05471928258585172,0.052552839705468896]","[-1,-1,-1]","[0.02,0.02]",184.4219,0,34,34,77,1,,,,,,,
,,,,,,,661ff24e9467d613b27d05ac,682f0fbb4c8f26e6ad97c067,2025-05-22_13h51.34.513,cuing_paradigm_dot,2024.1.5,Win32,60.24096386,682d573fa47f1360d1451895,,,,,,,,,,,184.4221,184.9228,,,185.1734,185.4064,right,,,,,,,,0.1,0.2153,,,,,,,184.9228,185.1733,185.4065,"[0.12156656756475334,-0.138347110091967]","[-1,-1,-1]","[-0.08471405063787425,-0.08020026310447259]","[-1,-1,-1]","[0.04504228986840461,0.1495980358245957]","[-1,-1,-1]","[-0.028382332929451533,0.13457345381500038]","[-1,-1,-1]","[-0.1191495078807676,0.03648865478335604]","[1,1,1]","[-0.07279892758727818,0.13102977447519026]","[-1,-1,-1]","[0.12758531321098274,-0.05454847062261303]","[-1,-1,-1]","[-0.19084517086187278,0.047226419590893506]","[-1,-1,-1]","[-0.05634982031011983,0.18033897946638494]","[-1,-1,-1]","[0.0033399867784305298,-0.17969564017878847]","[-1,-1,-1]","[0.04414696439385305,-0.09491234618236684]","[-1,-1,-1]","[0.14889050282279995,0.026482659432662915]","[-1,-1,-1]","[0.06915496116392485,-0.15182719167509418]","[-1,-1,-1]","[-0.08788123090030046,0.06646253894203175]","[-1,-1,-1]","[-0.009756009893844687,0.08158787756293803]","[-1,-1,-1]","[-0.10153584399902821,-0.16664431689530976]","[-1,-1,-1]","[-0.01382618899221873,-0.12386786916858686]","[-1,-1,-1]","[0.02704386774285455,0.01891336390142003]","[-1,-1,-1]","[-0.14712539984849451,0.005779830807975391]","[-1,-1,-1]","[-0.002839641988351565,-0.0697065548044333]","[-1,-1,-1]","[-0.0246877777532772,0.021848910471790352]","[-1,-1,-1]","[0.08611922535823202,0.02069545731337529]","[1,1,1]","[-0.13203096047891386,-0.07949187774806316]","[1,1,1]","[-0.14817553410144288,-0.03957283766648266]","[-1,-1,-1]","[-0.11260520644185634,0.14957330234776042]","[-1,-1,-1]","[-0.1925525620232141,-0.04985536679246383]","[-1,-1,-1]","[0.06437853672796873,-0.03168344727273453]","[-1,-1,-1]","[0.014330661792082996,-0.02506809703540865]","[-1,-1,-1]","[0.14847631892807947,-0.0931255187800041]","[-1,-1,-1]","[0.11124865368866445,0.12280156292966087]","[-1,-1,-1]","[-0.037602364268305995,-0.0341562675079777]","[-1,-1,-1]","[-0.17583610864438298,0.09298098712566742]","[-1,-1,-1]","[0.02,0.02]",186.5075,0,35,35,12,1,,,,,,,
,,,,,,,661ff24e9467d613b27d05ac,682f0fbb4c8f26e6ad97c067,2025-05-22_13h51.34.513,cuing_paradigm_dot,2024.1.5,Win32,60.24096386,682d573fa47f1360d1451895,,,,,,,,,,,186.508,187.0078,,,187.2585,187.4922,left,,,,,,,,0.9,0.2292,,,,,,,187.0079,187.2585,187.4923,"[0.1641479889046868,0.002717622312332025]","[1,1,1]","[-0.09865470905022321,0.15982094027113558]","[1,1,1]","[-0.04067408193377968,-0.1829896054335559]","[1,1,1]","[0.010804986629478194,-0.0594830975558257]","[1,1,1]","[0.018379025354925492,0.06566583748305803]","[1,1,1]","[-0.002670619754178828,-0.1395689801948352]","[1,1,1]","[-0.17283233509010182,0.013754790014488377]","[1,1,1]","[-0.16005467648207528,-0.025956315610244897]","[1,1,1]","[-0.09089420261291017,0.06115420251726919]","[1,1,1]","[0.023121993707704,-0.17533391110816846]","[1,1,1]","[-0.006248192578151117,0.17589574899523625]","[1,1,1]","[0.03487848762615981,-0.025275443321489385]","[1,1,1]","[0.04666925902024169,0.15983945477869319]","[1,1,1]","[0.17172384944071228,0.09548276140934331]","[1,1,1]","[0.09056021427891807,-0.16719799117312337]","[1,1,1]","[0.13608956601325917,-0.04437284413275172]","[1,1,1]","[-0.1252683275957527,-0.07144961855516781]","[1,1,1]","[-0.1496141449142474,0.130024091237485]","[1,1,1]","[-0.05783891553340891,0.09668786519567937]","[1,1,1]","[0.05739390693588534,-0.11544528597835745]","[1,1,1]","[-0.07834665017527362,-0.007517401930238686]","[1,1,1]","[-0.012023539534717728,-0.005906296438504697]","[-1,-1,-1]","[0.12055430970239017,0.09181467391298462]","[1,1,1]","[-0.17150750704298887,0.06243711149928509]","[1,1,1]","[-0.19130469155327098,-0.05126696852746938]","[1,1,1]","[-0.10006542993667684,-0.16670824717513483]","[-1,-1,-1]","[0.11218442076069346,0.020578266171798174]","[-1,-1,-1]","[-0.0433295992154272,0.05469515574884353]","[1,1,1]","[-0.066582208548291,-0.1414070498171723]","[1,1,1]","[-0.05902304519633306,-0.0619350576865739]","[1,1,1]","[-0.11974996677650594,0.01503741927955122]","[1,1,1]","[0.09803311540677727,0.15263036987475595]","[1,1,1]","[0.02,0.02]",188.593,0,36,36,195,1,,,,,,,
,,,,,,,661ff24e9467d613b27d05ac,682f0fbb4c8f26e6ad97c067,2025-05-22_13h51.34.513,cuing_paradigm_dot,2024.1.5,Win32,60.24096386,682d573fa47f1360d1451895,,,,,,,,,,,188.5934,189.0933,,,189.3438,189.9611,left,,,,,,,,0.5,0.6011,,,,,,,189.0933,189.3438,189.9612,"[0.06021726035304739,-0.010427134569625329]","[1,1,1]","[-0.05208646075072285,-0.1863495538295595]","[1,1,1]","[0.07302459838691494,-0.13999002451706322]","[-1,-1,-1]","[0.18996855407556304,0.033630156376039125]","[1,1,1]","[-0.17158243904872184,0.05470405556682995]","[1,1,1]","[0.12920981047325394,0.11415167723594108]","[-1,-1,-1]","[-0.14805587830294686,-0.10633699307268756]","[1,1,1]","[0.1152791750300322,-0.012191469912540257]","[-1,-1,-1]","[-0.11905401233222304,0.03913593975407113]","[-1,-1,-1]","[-0.024837933611004306,-0.10509752841713209]","[1,1,1]","[0.09476450617461976,0.06312288160724636]","[-1,-1,-1]","[0.027805734188464312,-0.18569968753850047]","[-1,-1,-1]","[0.006156136541083794,-0.018616802997529498]","[1,1,1]","[-0.08695689520045209,0.006962477634301345]","[-1,-1,-1]","[0.03319998645500796,-0.11749363939430255]","[1,1,1]","[-0.11569246911118228,0.11973048346614633]","[-1,-1,-1]","[-0.06849701782818603,-0.0390057056813419]","[-1,-1,-1]","[-0.06261589136282236,0.11987743120550384]","[1,1,1]","[0.007694267807352069,0.09930043123063231]","[1,1,1]","[-0.006671599104103447,0.17528894692215624]","[-1,-1,-1]","[-0.1806378734006035,-0.019101809435529134]","[-1,-1,-1]","[-0.021075263444134924,0.05350761889916987]","[-1,-1,-1]","[0.03483216719104137,0.05005860082528946]","[1,1,1]","[-0.01868627063980162,-0.14870308097195434]","[1,1,1]","[0.012210118995025289,-0.07896006808813294]","[1,1,1]","[0.11340706200196041,-0.10657562577807793]","[-1,-1,-1]","[-0.06941055498592905,-0.14999144198182215]","[1,1,1]","[-0.08214450446858325,-0.09385878582618129]","[-1,-1,-1]","[0.059935012431163844,0.08984888224579565]","[-1,-1,-1]","[-0.14661498644446372,0.004288820192234141]","[-1,-1,-1]","[0.14086089599067178,-0.06599224186373279]","[1,1,1]","[-0.11484489092373718,-0.1591818961357431]","[1,1,1]","[0.02,0.02]",191.0622,0,37,37,100,1,,,,,,,
,,,,,,,661ff24e9467d613b27d05ac,682f0fbb4c8f26e6ad97c067,2025-05-22_13h51.34.513,cuing_paradigm_dot,2024.1.5,Win32,60.24096386,682d573fa47f1360d1451895,,,,,,,,,,,191.0624,191.5629,,,191.8133,192.5304,left,,,,,,,,0.6,0.7066,,,,,,,191.5629,191.8133,192.5304,"[-0.19075496258334826,0.054255157430100835]","[1,1,1]","[-0.04982069025854707,0.16865881749439618]","[1,1,1]","[0.16737252917316942,0.04301173698874584]","[1,1,1]","[0.11480206968614105,-0.119494439704098]","[-1,-1,-1]","[0.002361395966319264,-0.1488094243581963]","[-1,-1,-1]","[0.07135281236488868,0.15367891910340503]","[-1,-1,-1]","[0.14803348428956403,-0.06955019709355545]","[-1,-1,-1]","[-0.16404698759030784,-0.03431111897957943]","[-1,-1,-1]","[0.1069609598412429,-0.0014217095970493119]","[-1,-1,-1]","[-0.10921862939610315,-0.04569145600073783]","[1,1,1]","[0.16785952343002106,0.10309188392921673]","[1,1,1]","[-0.13104242513687853,0.10556939564840499]","[1,1,1]","[-0.09819011920480784,0.07297387384725451]","[1,1,1]","[0.1060436634532132,0.07386014272687214]","[-1,-1,-1]","[0.02833183836763075,-0.04800698438335953]","[1,1,1]","[-0.06773212390036601,0.029237808716504672]","[-1,-1,-1]","[0.05170763474090116,-0.0006333785154340284]","[1,1,1]","[0.0008936889662602843,0.07308145216827076]","[1,1,1]","[-0.10240964153764921,-0.13751491063642804]","[1,1,1]","[0.18224146738868865,-0.038481056709359425]","[-1,-1,-1]","[0.19167110522332367,0.0059022204066381]","[-1,-1,-1]","[-0.0752783171630472,-0.09618634733138533]","[1,1,1]","[-0.0365817858562916,-0.042622209697870686]","[1,1,1]","[0.016592007995887184,0.13756816760167218]","[-1,-1,-1]","[0.06789902168263064,-0.13178620631127017]","[1,1,1]","[0.034045345929304575,0.176193634034599]","[1,1,1]","[0.0820664233703928,-0.0348675780717301]","[1,1,1]","[-0.015105539792804545,-0.08503906958068277]","[1,1,1]","[-0.046006046051118764,0.08473747207594018]","[1,1,1]","[0.04148826818456222,-0.1678343714069067]","[-1,-1,-1]","[-0.010412188661463135,-0.010220479566906252]","[-1,-1,-1]","[-0.17095074993620282,-0.09423702913930625]","[1,1,1]","[0.02,0.02]",193.6315,0,38,38,171,1,,,,,,,
,,,,,,,661ff24e9467d613b27d05ac,682f0fbb4c8f26e6ad97c067,2025-05-22_13h51.34.513,cuing_paradigm_dot,2024.1.5,Win32,60.24096386,682d573fa47f1360d1451895,,,,,,,,,,,193.6317,194.1319,,,194.3821,194.6325,right,,,,,,,,0.4,0.234,,,,,,,194.1319,194.3821,194.6326,"[-0.006157090353451748,0.06376048231595395]","[1,1,1]","[0.06968823220509505,0.051698590194853296]","[-1,-1,-1]","[-0.0783795487963444,-0.159980536447509]","[1,1,1]","[-0.09499185669421115,0.09070809112535799]","[1,1,1]","[0.07501669908782105,-0.02956193458380707]","[-1,-1,-1]","[0.11858685627656733,-0.14606728395654328]","[-1,-1,-1]","[0.017913910472594063,0.15257202243634443]","[-1,-1,-1]","[0.1233715853574025,0.016032367587867278]","[-1,-1,-1]","[-0.07591468723875057,-0.0759580191752983]","[1,1,1]","[0.07599668180059649,-0.08240137797328644]","[-1,-1,-1]","[-0.02254908679591416,-0.021276636461735964]","[1,1,1]","[0.08611518792673514,0.12233975020053119]","[1,1,1]","[0.1759820385228874,-0.054698626914428415]","[-1,-1,-1]","[-0.17353957805883502,-0.046482554794904686]","[1,1,1]","[0.16875873411565512,-0.002529410151674444]","[-1,-1,-1]","[-0.11952573178054147,-0.06785671964986545]","[1,1,1]","[-0.16435370236900343,0.07150534943989764]","[-1,-1,-1]","[0.16563957675972454,0.09301576085550106]","[-1,-1,-1]","[-0.1713144854799283,0.02302932210344242]","[-1,-1,-1]","[0.030918153828850457,-0.11307761050660899]","[-1,-1,-1]","[0.11548912739328025,0.07402602665980886]","[-1,-1,-1]","[-0.061935169522498716,0.004108277652821557]","[-1,-1,-1]","[0.016109127592934307,-0.05908161887603111]","[1,1,1]","[-0.04008797815574163,-0.14397999795960506]","[-1,-1,-1]","[0.0002663858500450585,-0.1690018026842768]","[-1,-1,-1]","[-0.10325464945998104,0.1321152713058199]","[-1,-1,-1]","[0.11058888971069097,-0.051086192626961374]","[-1,-1,-1]","[-0.04119322175264607,0.12503535685795805]","[-1,-1,-1]","[0.01733833381777067,0.09693216615987213]","[1,1,1]","[0.04153290620819514,-0.17718518701523547]","[1,1,1]","[0.04130312773300698,-0.005729066299687502]","[1,1,1]","[0.0808093589844509,-0.13074673734590536]","[1,1,1]","[0.02,0.02]",195.7333,0,39,39,38,1,,,,,,,
,,,,,,,661ff24e9467d613b27d05ac,682f0fbb4c8f26e6ad97c067,2025-05-22_13h51.34.513,cuing_paradigm_dot,2024.1.5,Win32,60.24096386,682d573fa47f1360d1451895,,,,,,,,,,,195.7336,196.2336,,,196.4844,196.9513,right,,,,,,,,0.4,0.4578,,,,,,,196.2337,196.4844,196.9513,"[-0.0648936856744832,-0.18867656118992238]","[-1,-1,-1]","[-0.09684529794194897,-0.1263934592886594]","[-1,-1,-1]","[-0.08973900823778114,0.14809644249077455]","[-1,-1,-1]","[-0.0074125174504320705,-0.04073594414688042]","[-1,-1,-1]","[-0.0005818086455113919,-0.08345161207946551]","[-1,-1,-1]","[-0.03716377074941952,0.17328269954691577]","[-1,-1,-1]","[0.060737281627022854,-0.09598640231466372]","[1,1,1]","[-0.0466809308359516,0.004390776917512402]","[-1,-1,-1]","[0.15399551835337005,0.06864441038558985]","[-1,-1,-1]","[0.0590371281876289,0.008913566186006281]","[-1,-1,-1]","[-0.0862541314416382,0.037506053147092114]","[-1,-1,-1]","[0.1088953730804969,-0.02722280187260434]","[1,1,1]","[-0.1835995148482991,-0.04323720636369457]","[-1,-1,-1]","[-0.01882593426785242,0.0902970454922068]","[1,1,1]","[0.045518236172641474,0.09226273540601564]","[-1,-1,-1]","[-0.04456142864853616,-0.07505818369116742]","[1,1,1]","[-0.13747336713312505,0.04016818414788642]","[1,1,1]","[0.08196487641164432,0.13069965834945454]","[1,1,1]","[0.13634814170904047,-0.09394228746362711]","[-1,-1,-1]","[-0.03737823734882152,-0.15619075380760122]","[-1,-1,-1]","[-0.1294924743642437,0.10036711400024641]","[1,1,1]","[0.18518142976798577,0.042342547234527204]","[1,1,1]","[0.18474673501435748,-0.06914989326965985]","[1,1,1]","[0.08572214991972242,0.08156481550565427]","[1,1,1]","[-0.08273094413441338,-0.08876348913003064]","[1,1,1]","[0.04681727397651964,-0.15937464762998127]","[1,1,1]","[-0.18415012788321555,0.03574073761870158]","[-1,-1,-1]","[0.14952937043229858,0.0028664593804200666]","[-1,-1,-1]","[0.021520402164922438,0.14109775915207207]","[-1,-1,-1]","[0.0075879608595600875,-0.18297376009219465]","[-1,-1,-1]","[-0.11977887832039155,-0.06944132311423151]","[1,1,1]","[0.11877009355662557,0.1608051431040303]","[-1,-1,-1]","[0.02,0.02]",198.0524,0,40,40,56,1,,,,,,,
,,,,,,,661ff24e9467d613b27d05ac,682f0fbb4c8f26e6ad97c067,2025-05-22_13h51.34.513,cuing_paradigm_dot,2024.1.5,Win32,60.24096386,682d573fa47f1360d1451895,,,,,,,,,,,198.0527,198.5531,,,198.8035,199.3701,right,,,,,,,,0.4,0.5495,,,,,,,198.5531,198.8035,199.3701,"[-0.08515096313951942,-0.09949594904489881]","[-1,-1,-1]","[-0.030872571007170977,-0.02018993522467843]","[1,1,1]","[-0.011929582807824211,-0.15672700013680768]","[1,1,1]","[-0.006062497168450158,-0.07725233350670137]","[-1,-1,-1]","[0.03928331939597331,-0.10363448774654772]","[1,1,1]","[-0.03163374779382044,-0.11733409874023633]","[-1,-1,-1]","[-0.163822812837465,0.09232365614831566]","[1,1,1]","[0.04991224690697939,0.07889683567753138]","[-1,-1,-1]","[-0.03582542599383623,0.10243253913903537]","[-1,-1,-1]","[0.06134316859103353,0.03947551769913678]","[-1,-1,-1]","[0.1467340325729591,-0.11892750045323813]","[-1,-1,-1]","[-0.04590165380102937,0.05243414077333442]","[-1,-1,-1]","[0.046644280507478535,-0.153965583208531]","[-1,-1,-1]","[-0.09900713723038684,0.16676620553424293]","[-1,-1,-1]","[0.12215978281994633,0.09297438779595799]","[-1,-1,-1]","[-0.17624119232720614,-0.08609632535307751]","[1,1,1]","[-0.11823010317785344,0.04418856335367124]","[-1,-1,-1]","[-0.11423573034926685,-0.15785093657855337]","[1,1,1]","[-0.1509418922275605,-0.0015160084188243586]","[-1,-1,-1]","[-0.10873999002347201,-0.02482886668771842]","[1,1,1]","[0.055702113311942004,0.12507382167414133]","[1,1,1]","[-0.05244365655301724,0.16335275861013457]","[1,1,1]","[0.16041189390484142,-0.05165173833089954]","[-1,-1,-1]","[0.05556991342422078,-0.037689608426386245]","[1,1,1]","[0.10855266403562872,-0.03694014330807817]","[-1,-1,-1]","[0.011473472533952136,0.19833912952183574]","[-1,-1,-1]","[0.06188161122721193,0.1698118850728928]","[-1,-1,-1]","[-0.006544682843997395,-0.19900345730389904]","[-1,-1,-1]","[-0.0464449725106204,-0.07649306724451749]","[1,1,1]","[0.1368854144249523,0.029386612377947662]","[-1,-1,-1]","[-0.17366263332110826,0.05289416747018476]","[1,1,1]","[0.0952811314891072,-0.08851735048300599]","[1,1,1]","[0.02,0.02]",200.4716,0,41,41,50,1,,,,,,,
,,,,,,,661ff24e9467d613b27d05ac,682f0fbb4c8f26e6ad97c067,2025-05-22_13h51.34.513,cuing_paradigm_dot,2024.1.5,Win32,60.24096386,682d573fa47f1360d1451895,,,,,,,,,,,200.472,200.9722,,,201.2225,201.6729,right,,,,,,,,0.45,0.4337,,,,,,,200.9722,201.2225,201.6729,"[-0.1425798695324811,-0.09809224657040493]","[-1,-1,-1]","[0.07083916990161386,-0.050400928635138655]","[-1,-1,-1]","[-0.043057265420583475,-0.10214990072680014]","[1,1,1]","[-0.08017489762191701,0.18303375984006134]","[-1,-1,-1]","[-0.02345080919095709,-0.033617713729992546]","[1,1,1]","[0.14236936908479908,-0.08318477844194223]","[1,1,1]","[0.05817881118488013,0.03135805916209067]","[1,1,1]","[-0.08867941608255123,0.040986592266684975]","[-1,-1,-1]","[0.012800899818809131,0.0014806314978525594]","[-1,-1,-1]","[-0.1892101477468173,0.04169305096884054]","[1,1,1]","[0.09339793405790278,0.10166223875754964]","[1,1,1]","[-0.14838638223034126,0.0586286766884879]","[-1,-1,-1]","[-0.05887470071166315,0.07278439997707767]","[1,1,1]","[0.012894971812530702,-0.10404639324002217]","[1,1,1]","[0.13878050014702165,-0.0074368010865220185]","[-1,-1,-1]","[0.13789582218256413,0.05129428636377284]","[-1,-1,-1]","[0.03326327183365868,0.19118215803288927]","[-1,-1,-1]","[-0.1337750935377577,-0.027318327951002204]","[1,1,1]","[-0.1830922442406366,-0.05607153040752328]","[-1,-1,-1]","[0.021426971647772717,-0.04167691372393007]","[-1,-1,-1]","[0.11305969188946757,-0.1367103235400681]","[1,1,1]","[-0.1310430829134155,0.15005912772870955]","[-1,-1,-1]","[-0.09798541541617327,-0.07526317902516325]","[1,1,1]","[-0.027593279778944865,-0.14114798892274277]","[1,1,1]","[-0.03884522883023219,0.022150897726508592]","[-1,-1,-1]","[-0.16975078385163775,0.003837571052557017]","[-1,-1,-1]","[0.03277520732939184,-0.19136974296534934]","[-1,-1,-1]","[-0.10126508250218619,0.11834242563627097]","[-1,-1,-1]","[0.08868878938644782,0.0016570308237947146]","[1,1,1]","[0.021459714223165876,0.08810391882293603]","[-1,-1,-1]","[-0.01262069860287795,0.18195617113601906]","[-1,-1,-1]","[-0.008507948459181588,-0.1961867652714248]","[1,1,1]","[0.02,0.02]",202.7737,0,42,42,74,1,,,,,,,
,,,,,,,661ff24e9467d613b27d05ac,682f0fbb4c8f26e6ad97c067,2025-05-22_13h51.34.513,cuing_paradigm_dot,2024.1.5,Win32,60.24096386,682d573fa47f1360d1451895,,,,,,,,,,,202.7738,203.2741,,,203.5251,204.4758,right,,,,,,,,0.45,0.937,,,,,,,203.2742,203.525,204.4758,"[-0.14071783744186123,0.12026010259560714]","[-1,-1,-1]","[-0.016410642221479862,-0.12791887016893885]","[-1,-1,-1]","[-0.1512352187968098,-0.05540674490758861]","[1,1,1]","[0.027817321190189932,-0.07010799664748632]","[-1,-1,-1]","[-0.1281159837459471,0.055699734388067454]","[-1,-1,-1]","[0.15794210730445987,-0.012449025706210422]","[1,1,1]","[-0.10656703943320033,-0.016508428613996158]","[-1,-1,-1]","[0.003859659295588691,0.06722009253623153]","[1,1,1]","[-0.07793708384273991,0.13489941261352617]","[1,1,1]","[-0.09466288976917182,-0.07847860197041841]","[1,1,1]","[-0.09117783606112272,-0.12155385973563157]","[1,1,1]","[-0.14712722699763475,-0.12658601300944866]","[1,1,1]","[0.1250544517878464,0.10117522188955283]","[1,1,1]","[0.0857361121430632,-0.0910120186584575]","[-1,-1,-1]","[-0.023942037729091783,-0.011186169847128212]","[1,1,1]","[0.003020030453132232,0.195412763044904]","[-1,-1,-1]","[0.08366355502825668,-0.14359394780303994]","[-1,-1,-1]","[-0.03086328810223165,-0.18550500502869688]","[-1,-1,-1]","[0.05918642230165357,-0.02680686931104307]","[1,1,1]","[0.11367572433017271,0.15086096972460505]","[-1,-1,-1]","[0.14171867120533907,-0.08433382628171265]","[-1,-1,-1]","[0.04784503663962675,0.11315654024589557]","[-1,-1,-1]","[0.05614176405887506,0.04249615057796444]","[-1,-1,-1]","[-0.07407636474545296,0.030115778423224448]","[1,1,1]","[0.14850415749267765,0.0629922940644042]","[-1,-1,-1]","[0.008081492476498125,0.13380997855893173]","[-1,-1,-1]","[0.052817653625343186,0.16611527179173183]","[1,1,1]","[0.009000573692974143,-0.1906533384454723]","[-1,-1,-1]","[0.17900191262189602,-0.05012028145648776]","[-1,-1,-1]","[0.10284622010567655,-0.008078515846902699]","[1,1,1]","[-0.039181924050674416,0.06938908647726809]","[1,1,1]","[-0.1672087212191778,0.08773297568315394]","[-1,-1,-1]","[0.02,0.02]",205.5766,0,43,43,60,1,,,,,,,
,,,,,,,661ff24e9467d613b27d05ac,682f0fbb4c8f26e6ad97c067,2025-05-22_13h51.34.513,cuing_paradigm_dot,2024.1.5,Win32,60.24096386,682d573fa47f1360d1451895,,,,,,,,,,,205.5769,206.0771,,,206.3275,206.8781,right,,,,,,,,0.4,0.5363,,,,,,,206.0771,206.3274,206.8781,"[0.009962967737676591,0.1779082981869101]","[1,1,1]","[0.04492443810368783,0.0765130790462704]","[-1,-1,-1]","[-0.16288651158332287,0.04836655172699576]","[-1,-1,-1]","[-0.0333482897312022,-0.048336233970605276]","[1,1,1]","[-0.12788281622985936,0.0947207890116111]","[1,1,1]","[-0.04593234778597719,-0.1367391725807864]","[1,1,1]","[0.13607739085612675,-0.08610452975085917]","[1,1,1]","[0.19168165340804105,-0.04840135673648171]","[-1,-1,-1]","[0.14216728541726945,0.030925284445812044]","[1,1,1]","[-0.15955361782505956,-0.03175671372469643]","[-1,-1,-1]","[0.12574024000086687,0.10099899217930716]","[-1,-1,-1]","[0.13613513648903924,-0.14523791878807588]","[1,1,1]","[0.08558671304053482,0.002005310954955676]","[-1,-1,-1]","[0.014879388384811313,0.12270805391393153]","[-1,-1,-1]","[0.06978616101645414,-0.17041814231885116]","[-1,-1,-1]","[-0.07776909613556125,-0.07704298466114051]","[1,1,1]","[0.18388440431246206,0.03616086375717535]","[1,1,1]","[-0.030940803344677293,0.027013966086369832]","[-1,-1,-1]","[-0.14708232320018771,-0.11777055523620172]","[-1,-1,-1]","[0.013819570972118042,-0.0695076488306353]","[-1,-1,-1]","[0.07035582390821149,0.18280520959599034]","[1,1,1]","[0.05634672032788368,-0.06835265914188626]","[-1,-1,-1]","[-0.01684580646356722,-0.0957193562731965]","[1,1,1]","[0.10889478015462004,0.14527797400525677]","[-1,-1,-1]","[-0.12248868404141136,-0.057883434883152715]","[-1,-1,-1]","[-0.19664623852035282,0.010292384203764954]","[1,1,1]","[0.12373945931602834,-0.02316918056796339]","[-1,-1,-1]","[-0.0905886123377862,0.12887762927805427]","[1,1,1]","[-0.07406847226680283,0.004076048617230339]","[-1,-1,-1]","[0.0037949508824019805,-0.14329661716762732]","[-1,-1,-1]","[-0.1751932810040064,-0.08070446904202555]","[-1,-1,-1]","[-0.1072882329281953,-0.11272439270233232]","[-1,-1,-1]","[0.02,0.02]",207.9791,0,44,44,32,1,,,,,,,
