right,left,explain.started,explain.stopped,key_resp_3.keys,key_resp_3.rt,key_resp_3.duration,participant,session,date,expName,psychopyVersion,OS,frameRate,study_id,explain_2.started,explain_2.stopped,key_resp_4.keys,key_resp_4.rt,key_resp_4.duration,explain_3.started,explain_3.stopped,key_resp_5.keys,key_resp_5.rt,key_resp_5.duration,fixation.started,fixation.stopped,practice.started,practice.stopped,response.started,response.stopped,key_resp.keys,key_resp.rt,key_resp.duration,feedback.started,feedback.stopped,trials_2.thisRepN,trials_2.thisTrialN,trials_2.thisN,trials_2.thisIndex,trials_2.ran,white_ratio,explain_4.started,explain_4.stopped,key_resp_6.keys,key_resp_6.rt,key_resp_6.duration,dotDisplay.started,dotDisplay.stopped,ITI.started,polygon_1.pos,polygon_1.color,polygon_2.pos,polygon_2.color,polygon_3.pos,polygon_3.color,polygon_4.pos,polygon_4.color,polygon_5.pos,polygon_5.color,polygon_6.pos,polygon_6.color,polygon_7.pos,polygon_7.color,polygon_8.pos,polygon_8.color,polygon_9.pos,polygon_9.color,polygon_10.pos,polygon_10.color,polygon_11.pos,polygon_11.color,polygon_12.pos,polygon_12.color,polygon_13.pos,polygon_13.color,polygon_14.pos,polygon_14.color,polygon_15.pos,polygon_15.color,polygon_16.pos,polygon_16.color,polygon_17.pos,polygon_17.color,polygon_18.pos,polygon_18.color,polygon_19.pos,polygon_19.color,polygon_20.pos,polygon_20.color,polygon_21.pos,polygon_21.color,polygon_22.pos,polygon_22.color,polygon_23.pos,polygon_23.color,polygon_24.pos,polygon_24.color,polygon_25.pos,polygon_25.color,polygon_26.pos,polygon_26.color,polygon_27.pos,polygon_27.color,polygon_28.pos,polygon_28.color,polygon_29.pos,polygon_29.color,polygon_30.pos,polygon_30.color,polygon_31.pos,polygon_31.color,polygon_32.pos,polygon_32.color,dot_size,ITI.stopped,trials.thisRepN,trials.thisTrialN,trials.thisN,trials.thisIndex,trials.ran,break_2.started,break_2.stopped,trials_3.thisRepN,trials_3.thisTrialN,trials_3.thisN,trials_3.thisIndex,trials_3.ran
subject chose white,subject chose black,0.0004,121.4676,space,106.4504,,662e3e72d494903379b6956a,682db46bf133c141ae048bf6,2025-05-21_12h10.47.162,cuing_paradigm_dot,2024.1.5,Win32,59.88023952,682d556593cb38ad0a074487,,,,,,,,,,,,,,,,,,,,,,,,,,,,,,,,,,,,,,,,,,,,,,,,,,,,,,,,,,,,,,,,,,,,,,,,,,,,,,,,,,,,,,,,,,,,,,,,,,,,,,,,,,,,,,,,,
,,,,,,,662e3e72d494903379b6956a,682db46bf133c141ae048bf6,2025-05-21_12h10.47.162,cuing_paradigm_dot,2024.1.5,Win32,59.88023952,682d556593cb38ad0a074487,121.4686,162.579,space,11.0882,,,,,,,,,,,,,,,,,,,,,,,,,,,,,,,,,,,,,,,,,,,,,,,,,,,,,,,,,,,,,,,,,,,,,,,,,,,,,,,,,,,,,,,,,,,,,,,,,,,,,,,,,,,,,
,,,,,,,662e3e72d494903379b6956a,682db46bf133c141ae048bf6,2025-05-21_12h10.47.162,cuing_paradigm_dot,2024.1.5,Win32,59.88023952,682d556593cb38ad0a074487,,,,,,162.5797,169.4782,space,3.8759,,,,,,,,,,,,,,,,,,,,,,,,,,,,,,,,,,,,,,,,,,,,,,,,,,,,,,,,,,,,,,,,,,,,,,,,,,,,,,,,,,,,,,,,,,,,,,,,,,,,,,,,
,,,,,,,662e3e72d494903379b6956a,682db46bf133c141ae048bf6,2025-05-21_12h10.47.162,cuing_paradigm_dot,2024.1.5,Win32,59.88023952,682d556593cb38ad0a074487,,,,,,,,,,,169.5208,169.9944,169.9958,170.2456,170.246,171.3447,left,1.0491,,171.3453,172.4439,0,0,0,1,1,0.2,,,,,,,,,,,,,,,,,,,,,,,,,,,,,,,,,,,,,,,,,,,,,,,,,,,,,,,,,,,,,,,,,,,,,,,,,,,,,,,,,,,,,,
,,,,,,,662e3e72d494903379b6956a,682db46bf133c141ae048bf6,2025-05-21_12h10.47.162,cuing_paradigm_dot,2024.1.5,Win32,59.88023952,682d556593cb38ad0a074487,,,,,,,,,,,172.4461,172.9432,172.9434,173.1943,173.1944,173.8602,right,0.6563,,173.8606,174.9599,0,1,1,0,1,0.8,,,,,,,,,,,,,,,,,,,,,,,,,,,,,,,,,,,,,,,,,,,,,,,,,,,,,,,,,,,,,,,,,,,,,,,,,,,,,,,,,,,,,,
,,,,,,,662e3e72d494903379b6956a,682db46bf133c141ae048bf6,2025-05-21_12h10.47.162,cuing_paradigm_dot,2024.1.5,Win32,59.88023952,682d556593cb38ad0a074487,,,,,,,,,,,,,,,,,,,,,,,,,,,,174.9612,179.4806,space,1.4998,,,,,,,,,,,,,,,,,,,,,,,,,,,,,,,,,,,,,,,,,,,,,,,,,,,,,,,,,,,,,,,,,,,,,,,,,,,,,,,,,,
,,,,,,,662e3e72d494903379b6956a,682db46bf133c141ae048bf6,2025-05-21_12h10.47.162,cuing_paradigm_dot,2024.1.5,Win32,59.88023952,682d556593cb38ad0a074487,,,,,,,,,,,179.5163,179.993,,,180.2446,180.8765,right,0.6242,,,,,,,,,0.9,,,,,,179.9943,180.2445,180.8785,"[-0.04712093005841582,-0.09086600343971644]","[-1,-1,-1]","[0.05864930150395413,-0.10730410819712742]","[1,1,1]","[-0.06439381417613388,0.12737831976281985]","[1,1,1]","[0.12987537556066292,-0.06285829680826488]","[1,1,1]","[-0.006780397453055293,-0.09957251675455366]","[1,1,1]","[-0.13866071200067845,-0.10341940933101079]","[1,1,1]","[0.12209749138608274,0.013132052775566937]","[1,1,1]","[0.11105080649957894,0.12494240251749796]","[1,1,1]","[0.09437678126569768,0.07146584043427484]","[-1,-1,-1]","[-0.11572088407723818,0.05340214508500282]","[1,1,1]","[0.03507372896114589,-0.0058010607287081]","[1,1,1]","[-0.08755334569794812,-0.14281646236752008]","[1,1,1]","[-0.015369356631916319,-0.018212580480233054]","[1,1,1]","[-0.08554223101608963,0.08665317066941183]","[1,1,1]","[0.07613282354291072,0.16314674397342352]","[1,1,1]","[0.05241750167020907,-0.1585206588365654]","[1,1,1]","[-0.18612881260945532,-0.053342255228643984]","[1,1,1]","[0.17587691886480825,0.08764446623873709]","[1,1,1]","[0.03809574095670876,0.12208890857063875]","[1,1,1]","[0.16935707831428318,0.030466033657129084]","[1,1,1]","[0.14238302786155027,0.06000802936793253]","[1,1,1]","[-0.1903790248747295,0.058341392732339736]","[-1,-1,-1]","[0.03842528754087211,0.17787787550684664]","[1,1,1]","[0.09322699580396321,-0.14453425554127367]","[1,1,1]","[-0.007021331914705057,0.11000360795915608]","[1,1,1]","[-0.06159361373262084,0.0511509619182535]","[1,1,1]","[0.04389885628775748,-0.06438951654886711]","[1,1,1]","[-0.014246687636451068,0.03232383230886301]","[1,1,1]","[0.04273214872444687,0.04339000163515522]","[1,1,1]","[-0.05263528650699428,-0.039491244750543844]","[1,1,1]","[-0.12454414758712586,0.12278360965415294]","[1,1,1]","[-0.004999734435347088,-0.14953623713384362]","[1,1,1]","[0.02,0.02]",181.9766,0,0,0,186,1,,,,,,,
,,,,,,,662e3e72d494903379b6956a,682db46bf133c141ae048bf6,2025-05-21_12h10.47.162,cuing_paradigm_dot,2024.1.5,Win32,59.88023952,682d556593cb38ad0a074487,,,,,,,,,,,181.9785,182.4761,,,182.7276,183.5097,left,0.7746,,,,,,,,,0.1,,,,,,182.4763,182.7275,183.5099,"[-0.022539633885937018,-0.028969609037854647]","[-1,-1,-1]","[0.13522274963410252,0.038666641844595305]","[-1,-1,-1]","[0.032559178296179145,-0.05972313680908869]","[-1,-1,-1]","[0.03391521147341311,-0.11469853216850374]","[-1,-1,-1]","[-0.10096697517979818,-0.15322010912881814]","[-1,-1,-1]","[-0.019498076600631086,-0.12252128886826838]","[-1,-1,-1]","[-0.029343289482299816,-0.17766852917681233]","[-1,-1,-1]","[-0.13370102829494457,-0.01055420892545918]","[1,1,1]","[0.10839292358667686,0.09352462611417704]","[-1,-1,-1]","[0.025011942409107844,0.05302465908123127]","[-1,-1,-1]","[0.03912819119950063,0.12778577545859351]","[-1,-1,-1]","[0.042892924086471065,0.1757147216332629]","[-1,-1,-1]","[0.08682772624742746,-0.025511711546164273]","[-1,-1,-1]","[-0.0753574253415202,-0.018037479716121366]","[-1,-1,-1]","[0.07469042657031179,-0.15851991450862887]","[-1,-1,-1]","[0.19056533161503816,0.029298009528430497]","[-1,-1,-1]","[0.05360296614171157,0.004419907217216788]","[-1,-1,-1]","[-0.1560718626016696,0.050872005150753095]","[-1,-1,-1]","[-0.061583827235331824,-0.11658192282174461]","[-1,-1,-1]","[-0.07558138527371623,0.15385087174881562]","[-1,-1,-1]","[-0.0837047930857721,0.040902577195704275]","[-1,-1,-1]","[0.1159065626971776,-0.058893347981350035]","[-1,-1,-1]","[-0.0491402680096329,0.020407989454239512]","[1,1,1]","[0.03145275137350544,-0.1656915762245642]","[-1,-1,-1]","[0.16705924013243717,0.09449286034016484]","[-1,-1,-1]","[0.1259272470612555,-0.1201556579882061]","[1,1,1]","[0.07337112387780771,0.056994395158545895]","[-1,-1,-1]","[0.00025443587321915097,0.11436694635898581]","[-1,-1,-1]","[-0.13006115829605278,-0.0791101827933638]","[-1,-1,-1]","[0.1576998106402541,-0.06992822772850711]","[-1,-1,-1]","[0.00240167265205206,0.18587107918825269]","[-1,-1,-1]","[-0.12005545726432396,0.10405515175874254]","[-1,-1,-1]","[0.02,0.02]",184.6088,0,1,1,26,1,,,,,,,
,,,,,,,662e3e72d494903379b6956a,682db46bf133c141ae048bf6,2025-05-21_12h10.47.162,cuing_paradigm_dot,2024.1.5,Win32,59.88023952,682d556593cb38ad0a074487,,,,,,,,,,,184.6093,185.1087,,,185.3592,186.2592,right,0.8874,,,,,,,,,0.6,,,,,,185.1087,185.3592,186.2593,"[-0.16128465758968238,0.0372175423625104]","[-1,-1,-1]","[0.012135894704684597,0.05123691948622858]","[1,1,1]","[-0.04892996936141253,0.0035008164906673088]","[1,1,1]","[0.1141766399667412,-0.04992850592136256]","[-1,-1,-1]","[-0.0115378913524577,-0.07511488556573571]","[1,1,1]","[-0.15581382648367437,-0.05606125280248875]","[1,1,1]","[-0.09912202932543321,0.03856238162266646]","[1,1,1]","[0.05385120421702818,-0.03819820714205625]","[1,1,1]","[0.054825877492431015,-0.11722470357909899]","[-1,-1,-1]","[0.15440141378861746,-0.04936315108842116]","[1,1,1]","[-0.07709596529298252,0.13563460164574503]","[1,1,1]","[-0.09363587323841378,-0.06287774692340851]","[1,1,1]","[0.008552449467503402,0.10452683820891231]","[-1,-1,-1]","[0.08095694475188521,0.030369076997382914]","[1,1,1]","[0.01205426513559869,0.1847484523573241]","[-1,-1,-1]","[-0.07056176937424327,-0.16507253098088695]","[-1,-1,-1]","[0.1071184011437966,0.07609587383815143]","[1,1,1]","[0.14835230424573542,0.12139081146875824]","[-1,-1,-1]","[-0.02814733231159127,0.04638375482910758]","[1,1,1]","[0.17959638221929447,0.04053894894461473]","[-1,-1,-1]","[0.128154607005741,-0.13135811151486604]","[1,1,1]","[0.05952985899734217,0.1610446931902844]","[1,1,1]","[-0.14487094709399773,-0.1060885569325216]","[1,1,1]","[0.00906872770710801,-0.1616570524327544]","[1,1,1]","[-0.12296393705378077,0.09769732506464458]","[-1,-1,-1]","[0.17378104297947533,0.08410358689904021]","[1,1,1]","[-0.09593788331763785,-0.021907455928820305]","[-1,-1,-1]","[-0.17793386784803356,0.08361383455153984]","[1,1,1]","[-0.02115621074479739,0.14800770941945002]","[1,1,1]","[-0.11161437209681518,-0.1325325653201938]","[-1,-1,-1]","[0.13591351629922285,0.002646778119546568]","[-1,-1,-1]","[-0.05195551890483029,0.08140381643027401]","[-1,-1,-1]","[0.02,0.02]",187.359,0,2,2,158,1,,,,,,,
,,,,,,,662e3e72d494903379b6956a,682db46bf133c141ae048bf6,2025-05-21_12h10.47.162,cuing_paradigm_dot,2024.1.5,Win32,59.88023952,682d556593cb38ad0a074487,,,,,,,,,,,187.3599,187.8585,,,188.1101,188.8093,left,0.6846,,,,,,,,,0.1,,,,,,187.8586,188.1101,188.8095,"[-0.09083980693537733,0.024217399427084327]","[-1,-1,-1]","[-0.06635902840369905,-0.015711142439859344]","[-1,-1,-1]","[0.0423307701485621,-0.15320528654061646]","[-1,-1,-1]","[-0.13979665927145632,0.07849298225070768]","[-1,-1,-1]","[0.17736105650380282,-0.0252420752185648]","[-1,-1,-1]","[-0.10944971342968252,0.126408440496574]","[-1,-1,-1]","[-0.09614078761304964,-0.10115210799054855]","[-1,-1,-1]","[-0.01621744480591786,-0.038529480842446055]","[-1,-1,-1]","[-0.013907254998529637,-0.13273904824662452]","[-1,-1,-1]","[-0.01169658748086543,0.10024967885189137]","[-1,-1,-1]","[0.043617470463509674,-0.05710677508512322]","[-1,-1,-1]","[0.03470770442151442,0.05900578517127407]","[-1,-1,-1]","[0.11049499352399621,-0.06941653841920441]","[-1,-1,-1]","[0.02158125214121706,0.1597292413906543]","[-1,-1,-1]","[-0.036063644281690545,0.020384107439886594]","[-1,-1,-1]","[0.15879423801321663,-0.08259522066046555]","[-1,-1,-1]","[-0.12664709808471092,-0.14638249204788606]","[-1,-1,-1]","[-0.15674748352866497,0.024549909111441212]","[-1,-1,-1]","[0.019126544402597444,-0.18624278703526775]","[-1,-1,-1]","[-0.1608643100158312,0.11779159896139316]","[1,1,1]","[0.13489845480254217,-0.13793317835120444]","[-1,-1,-1]","[0.1510186231734631,0.13038583225014005]","[-1,-1,-1]","[-0.08832340429273837,-0.15893157807692398]","[-1,-1,-1]","[0.05953858653704248,-0.009727199019604697]","[-1,-1,-1]","[-0.07130054396643859,-0.06831710749860617]","[-1,-1,-1]","[0.11204692048871036,0.12043971952449796]","[-1,-1,-1]","[-0.07629288266580564,0.09712691573910105]","[1,1,1]","[0.09085036352715738,0.06126871504846488]","[-1,-1,-1]","[-0.1159964487311894,-0.020396519984519967]","[-1,-1,-1]","[-0.049246341098697674,0.1901266796846677]","[1,1,1]","[0.007529051905165779,-0.09337236915045194]","[-1,-1,-1]","[0.08563933474164093,0.17167060027415412]","[-1,-1,-1]","[0.02,0.02]",189.9084,0,3,3,23,1,,,,,,,
,,,,,,,662e3e72d494903379b6956a,682db46bf133c141ae048bf6,2025-05-21_12h10.47.162,cuing_paradigm_dot,2024.1.5,Win32,59.88023952,682d556593cb38ad0a074487,,,,,,,,,,,189.9089,190.4088,,,190.6599,191.2925,left,0.6181,,,,,,,,,0.1,,,,,,190.4089,190.6598,191.2929,"[-0.14196102637032212,-0.08370894254561091]","[-1,-1,-1]","[0.10319474227561196,-0.06580751631193128]","[-1,-1,-1]","[-0.019383858368494215,0.13278111062917647]","[-1,-1,-1]","[-0.01586780755892412,0.03835980614311886]","[-1,-1,-1]","[-0.015279535804043636,-0.19176612700646148]","[-1,-1,-1]","[-0.06895041280370418,-0.12232207797983205]","[-1,-1,-1]","[0.06183984261781071,-0.1074782322219406]","[-1,-1,-1]","[-0.10232633720648066,0.038318326498458635]","[-1,-1,-1]","[0.031127748844645257,0.15615220909604174]","[1,1,1]","[-0.16278830642732003,0.018384626756970345]","[-1,-1,-1]","[0.07126987129600479,0.07456578559905574]","[-1,-1,-1]","[0.0891144440971128,0.15134804231738253]","[-1,-1,-1]","[0.12914019278694666,0.11643192120989404]","[1,1,1]","[-0.0078272335993683,-0.08715254335278882]","[-1,-1,-1]","[-0.0655486889925794,-0.023571164342529934]","[-1,-1,-1]","[0.04327578945716998,0.006371744927492939]","[-1,-1,-1]","[0.1881193708676718,0.015745460163155287]","[-1,-1,-1]","[-0.12270335129453479,-0.022048902988856593]","[-1,-1,-1]","[0.047640167614655955,-0.16741028679925352]","[-1,-1,-1]","[0.030320731960296686,-0.0591845255638778]","[-1,-1,-1]","[0.08056545666804457,-0.009494774987621577]","[-1,-1,-1]","[0.13310634924591203,-0.03000230053312057]","[-1,-1,-1]","[-0.11826955220816124,0.11919991554396012]","[-1,-1,-1]","[0.11450943818189127,0.023764066676870307]","[-1,-1,-1]","[0.0316250986241315,0.0470480877387415]","[-1,-1,-1]","[-0.1790356515663706,-0.03615952210553992]","[-1,-1,-1]","[0.13081226324823209,0.06641057170631684]","[1,1,1]","[0.11801572894002405,-0.14313277229429175]","[-1,-1,-1]","[-0.04862370351697171,-0.07358270334965478]","[-1,-1,-1]","[-0.10250471167208361,-0.15307783172235281]","[-1,-1,-1]","[-0.07048032570460706,0.15275382663004186]","[-1,-1,-1]","[-0.04848289546344588,0.09787926113639238]","[-1,-1,-1]","[0.02,0.02]",192.3919,0,4,4,12,1,,,,,,,
,,,,,,,662e3e72d494903379b6956a,682db46bf133c141ae048bf6,2025-05-21_12h10.47.162,cuing_paradigm_dot,2024.1.5,Win32,59.88023952,682d556593cb38ad0a074487,,,,,,,,,,,192.3934,192.8913,,,193.1433,193.7589,right,0.6035,,,,,,,,,0.5,,,,,,192.8914,193.1432,193.7592,"[0.0966912622995942,-0.15760530100443784]","[1,1,1]","[-0.002542951792751335,-0.04072300040867167]","[-1,-1,-1]","[0.15875039641770244,0.005626039717407287]","[1,1,1]","[0.1621529456644495,-0.09363402918321893]","[-1,-1,-1]","[-0.07363745895615983,0.103653309904997]","[1,1,1]","[-0.17165892118552958,-0.061488866776538045]","[-1,-1,-1]","[0.12502567491835145,0.07266134656871365]","[-1,-1,-1]","[-0.12754031750151715,-0.11057074767672638]","[-1,-1,-1]","[-0.01255470939173689,-0.09375614384062586]","[1,1,1]","[0.10279062293043911,-0.038266201683367355]","[1,1,1]","[-0.015891615949133398,-0.13391322300952435]","[1,1,1]","[-0.0013311560420489307,0.05491278969165186]","[-1,-1,-1]","[0.16048320438224933,0.10067242139981171]","[1,1,1]","[0.08386955125029567,0.15002440572357906]","[-1,-1,-1]","[0.021264862052496062,-0.15908961709515618]","[-1,-1,-1]","[0.05488998963708475,0.07813264273132614]","[1,1,1]","[-0.1252904082197097,-0.002467026128703311]","[-1,-1,-1]","[0.04790188032928652,-0.029881547564486383]","[1,1,1]","[0.02693079564011482,0.18890881564374185]","[1,1,1]","[-0.06999981368348067,-0.0377161316843331]","[-1,-1,-1]","[0.08838212837202808,-0.09380271166447188]","[1,1,1]","[-0.025499664998057427,0.17940444113304727]","[-1,-1,-1]","[-0.121657709477551,0.07921880294104883]","[1,1,1]","[-0.18182845177685278,-0.011174711975592225]","[-1,-1,-1]","[0.17737648011470014,0.05114428403437753]","[1,1,1]","[0.03835167624836358,-0.08750288739295775]","[-1,-1,-1]","[-0.003940580784646042,0.0962567276282409]","[-1,-1,-1]","[-0.0996955523538176,-0.1501207546299628]","[1,1,1]","[-0.08489762307257637,-0.09250168950465605]","[-1,-1,-1]","[0.031016310978550437,0.007841231672689996]","[1,1,1]","[-0.17407141412266683,0.03338035165893206]","[-1,-1,-1]","[-0.04592718455689364,0.0675878271491997]","[1,1,1]","[0.02,0.02]",194.8588,0,5,5,91,1,,,,,,,
,,,,,,,662e3e72d494903379b6956a,682db46bf133c141ae048bf6,2025-05-21_12h10.47.162,cuing_paradigm_dot,2024.1.5,Win32,59.88023952,682d556593cb38ad0a074487,,,,,,,,,,,194.8602,195.3589,,,195.61,196.2286,right,0.6094,,,,,,,,,0.9,,,,,,195.3591,195.6098,196.2287,"[-0.16870528943299246,0.002844655994981821]","[1,1,1]","[-0.042541287940718216,0.04806544978500315]","[1,1,1]","[-0.04735874052255984,0.1882386334539096]","[1,1,1]","[-0.007647366294809252,-0.18091633844743016]","[1,1,1]","[-0.03329228422170925,0.10260186446394202]","[1,1,1]","[-0.16665849349802578,0.04637786887229252]","[1,1,1]","[-0.09150265959533581,0.06134660274719742]","[1,1,1]","[-0.11467984058282549,-0.09490970151139169]","[1,1,1]","[0.061900269669810146,-0.024119037238892752]","[1,1,1]","[0.014353051487503684,0.13526282424237443]","[1,1,1]","[0.031138278609302766,-0.07782318154219217]","[-1,-1,-1]","[-0.11292513728053147,-0.1480878039759704]","[-1,-1,-1]","[-0.021513732398291012,-0.07491213555440149]","[1,1,1]","[0.09208963350992173,-0.05354426267871264]","[1,1,1]","[0.002276089465746663,-0.008344378690932516]","[1,1,1]","[0.06783160853450144,-0.13609235087181196]","[1,1,1]","[0.11776248467685174,-0.019061504677731177]","[1,1,1]","[0.11031383768387612,-0.16168702446861125]","[1,1,1]","[0.16792447974598357,0.07613629219594037]","[1,1,1]","[0.16588246715455401,-0.021203981507647393]","[1,1,1]","[-0.12144150138398827,0.10912231375771904]","[1,1,1]","[0.0392612487224865,0.09751576740842088]","[-1,-1,-1]","[0.198520109616689,0.0207048403521847]","[1,1,1]","[-0.165490988624051,-0.060259740097559404]","[1,1,1]","[0.10422455406826162,0.07053725139713805]","[1,1,1]","[0.07514540095006164,0.1519064775617805]","[1,1,1]","[0.17253712903701504,-0.08080329750138994]","[1,1,1]","[0.03021431991589983,0.17756977128155946]","[1,1,1]","[0.03863397210164958,0.054028067974394425]","[1,1,1]","[-0.06163046741743692,0.009348453664237194]","[1,1,1]","[-0.06431036596529742,-0.1723770774490744]","[1,1,1]","[0.12813955197594987,-0.09302142996711933]","[1,1,1]","[0.02,0.02]",197.325,0,6,6,202,1,,,,,,,
,,,,,,,662e3e72d494903379b6956a,682db46bf133c141ae048bf6,2025-05-21_12h10.47.162,cuing_paradigm_dot,2024.1.5,Win32,59.88023952,682d556593cb38ad0a074487,,,,,,,,,,,197.3269,197.8246,,,198.0763,198.4577,right,0.3666,,,,,,,,,0.9,,,,,,197.8246,198.0762,198.4578,"[0.05547346798126973,0.11375382322586704]","[1,1,1]","[0.13686377944584563,-0.029893600109955353]","[1,1,1]","[0.15014287921504588,-0.0720562107388869]","[1,1,1]","[-0.013505301858726044,0.09630767471824783]","[-1,-1,-1]","[-0.02245497631066042,-0.10580132736886591]","[1,1,1]","[0.08504829777397904,0.04483124317833472]","[1,1,1]","[-0.07517446006443104,0.018450076932905707]","[-1,-1,-1]","[-0.07175748756557612,0.07090515498919522]","[1,1,1]","[-0.11715033058188877,0.020944493373324217]","[1,1,1]","[0.03334668120548537,-0.18555623191901632]","[1,1,1]","[0.17718580715121698,0.07552525984609111]","[1,1,1]","[-0.1552113940471319,-0.1003490558293916]","[1,1,1]","[0.15585283484949677,0.006012553625900472]","[1,1,1]","[-0.00753059149909139,0.14676862865145723]","[1,1,1]","[-0.17289389282109568,-0.010286669561420192]","[1,1,1]","[0.0364222891676235,0.003072416249135829]","[1,1,1]","[0.08354283170794892,-0.14959959676603563]","[1,1,1]","[0.027372009809095876,0.052339731473641696]","[1,1,1]","[-0.011924831989647338,-0.011496383270613258]","[1,1,1]","[0.07855847725883332,-0.059289370570796994]","[1,1,1]","[0.01816834946146886,-0.03810666257071623]","[1,1,1]","[-0.08053069323978193,-0.16173018389763502]","[1,1,1]","[0.13161856838385083,0.07618516277162374]","[1,1,1]","[0.14365568588674477,0.12399444538214098]","[1,1,1]","[-0.132466961837979,0.08637593815221102]","[1,1,1]","[0.00872493339051383,0.1982056692716761]","[-1,-1,-1]","[0.07784520470541076,0.17176132214496054]","[1,1,1]","[0.03496525653809866,-0.1314390436840089]","[1,1,1]","[-0.09322804529529471,-0.03105747348124026]","[1,1,1]","[0.14060362452540517,-0.12438765758464276]","[1,1,1]","[-0.18870828182319588,0.031973332804661324]","[1,1,1]","[-0.14349281938574407,0.1353122496381136]","[1,1,1]","[0.02,0.02]",199.5575,0,7,7,183,1,,,,,,,
,,,,,,,662e3e72d494903379b6956a,682db46bf133c141ae048bf6,2025-05-21_12h10.47.162,cuing_paradigm_dot,2024.1.5,Win32,59.88023952,682d556593cb38ad0a074487,,,,,,,,,,,199.5579,200.0574,,,200.3081,200.9908,right,0.6659,,,,,,,,,0.55,,,,,,200.0575,200.3081,200.9908,"[0.08004207068469493,0.18110339849311075]","[1,1,1]","[0.1301615582403504,0.14030202061962838]","[1,1,1]","[0.1842145879307553,-0.053912786218281994]","[1,1,1]","[0.05100647178909509,-0.17417454345064332]","[-1,-1,-1]","[-0.06669085534323757,0.09926564992000998]","[-1,-1,-1]","[-0.09207334386786549,-0.10443930178457625]","[1,1,1]","[0.022501397157178776,0.006996066887127333]","[-1,-1,-1]","[-0.09689004285002449,-0.04704280065137346]","[-1,-1,-1]","[-0.12893315901945573,-0.15250222706073432]","[1,1,1]","[0.018291166325925312,-0.14582151359937018]","[1,1,1]","[0.14984337707845077,0.07791523636549644]","[-1,-1,-1]","[-0.022721031458000553,0.02793730063971188]","[1,1,1]","[0.08403345883095695,0.014022937525545464]","[1,1,1]","[-0.16758461449520776,-0.029492788149880805]","[-1,-1,-1]","[-0.07277406246664343,-0.1520322679102404]","[1,1,1]","[-0.1946401537399069,0.0012710270078324809]","[1,1,1]","[-0.1426137752182234,-0.10788456924339554]","[-1,-1,-1]","[-0.12278753797001289,0.002526866965352298]","[-1,-1,-1]","[-0.035591703329727054,-0.036829179224346906]","[1,1,1]","[0.07280521119871848,0.13970737818557324]","[-1,-1,-1]","[0.11212874904564582,-0.029931426041647415]","[-1,-1,-1]","[0.11804537850738277,-0.10305009214443082]","[1,1,1]","[-0.1775368201631506,0.04018187698735163]","[1,1,1]","[-0.09854731568007542,0.15850883309122965]","[-1,-1,-1]","[-0.0010763160080010596,-0.08196846316269524]","[-1,-1,-1]","[-0.05145922344202384,0.1537161575646444]","[1,1,1]","[0.03509771939231285,0.09629387694109359]","[1,1,1]","[-0.15364045232267348,0.09739034873226378]","[-1,-1,-1]","[0.06363387634991066,-0.025999109856228515]","[1,1,1]","[-0.02109838471130624,-0.1907708933107085]","[1,1,1]","[0.19779159115212838,-0.014541195186390257]","[-1,-1,-1]","[0.021140072437368738,0.14696247278964122]","[1,1,1]","[0.02,0.02]",202.0911,0,8,8,135,1,,,,,,,
,,,,,,,662e3e72d494903379b6956a,682db46bf133c141ae048bf6,2025-05-21_12h10.47.162,cuing_paradigm_dot,2024.1.5,Win32,59.88023952,682d556593cb38ad0a074487,,,,,,,,,,,202.0923,202.592,,,202.8411,203.4916,left,0.6345,,,,,,,,,0.4,,,,,,202.592,202.8411,203.4917,"[0.09045041053499452,-0.02174436648247771]","[-1,-1,-1]","[0.051929492351579475,-0.10214179547855581]","[1,1,1]","[0.013197421600220497,0.1663135926751286]","[-1,-1,-1]","[0.10667746917722902,-0.12779360080266525]","[-1,-1,-1]","[0.1457368605352812,0.04345237188536984]","[-1,-1,-1]","[-0.026459017053921202,-0.10501504021120701]","[1,1,1]","[-0.03801007641917325,0.051833280823134154]","[-1,-1,-1]","[0.14900074958015083,-0.02918525321969092]","[-1,-1,-1]","[-0.1261980329099995,-0.03552658631083457]","[-1,-1,-1]","[0.15398537936217968,-0.11964267180089225]","[-1,-1,-1]","[-0.06278906038987014,-0.06011740011800457]","[1,1,1]","[-0.011656913159793692,-0.19725479397593237]","[-1,-1,-1]","[-0.06883722585513184,-0.1432925544641398]","[-1,-1,-1]","[-0.1493931339914545,0.09730067226384533]","[-1,-1,-1]","[0.142613592690987,0.09922356356093902]","[1,1,1]","[0.04241577460518755,0.10496498712364982]","[1,1,1]","[0.12409141566353063,-0.09027541407623145]","[-1,-1,-1]","[0.03567463067753444,-0.17982799911955344]","[1,1,1]","[-0.055732803142594864,0.015010563009611653]","[-1,-1,-1]","[0.015405599131733288,0.06051753695853215]","[-1,-1,-1]","[-0.09501016308956671,0.15952770021526927]","[-1,-1,-1]","[0.023806807767866728,0.002160054869003486]","[1,1,1]","[-0.03148043491833477,0.12036326595369982]","[1,1,1]","[-0.19168265884248503,0.0389484602036071]","[1,1,1]","[-0.03913888352862397,0.16581482770454464]","[-1,-1,-1]","[-0.09831776174887583,0.0035436983036648047]","[-1,-1,-1]","[-0.12822581201432975,0.04984542854520575]","[1,1,1]","[0.027031167448238632,-0.04379393047814891]","[1,1,1]","[-0.14262547588881425,0.002286099929117838]","[1,1,1]","[0.08626070470142305,0.03095829560254761]","[-1,-1,-1]","[0.10646938310595462,0.07384679922075871]","[-1,-1,-1]","[-0.07857684473895027,0.10343841828528905]","[1,1,1]","[0.02,0.02]",204.5912,0,9,9,54,1,,,,,,,
,,,,,,,662e3e72d494903379b6956a,682db46bf133c141ae048bf6,2025-05-21_12h10.47.162,cuing_paradigm_dot,2024.1.5,Win32,59.88023952,682d556593cb38ad0a074487,,,,,,,,,,,204.5924,205.0911,,,205.3424,206.4405,left,1.0872,,,,,,,,,0.4,,,,,,205.0912,205.3423,206.4405,"[-0.09246265493996549,0.03296396887999477]","[-1,-1,-1]","[0.011756968537865726,0.17814348839583344]","[1,1,1]","[-0.17440819434636032,0.06385077647792815]","[-1,-1,-1]","[0.06253127466938825,-0.17586524684961052]","[1,1,1]","[-0.1926123555082541,-0.009001831358182964]","[1,1,1]","[-0.05725062043874636,0.005263889270663664]","[1,1,1]","[-0.09086025082599707,0.16487666301085133]","[1,1,1]","[-0.12933184288063032,-0.047023345647763184]","[-1,-1,-1]","[0.0340167490798635,0.03291930419403784]","[-1,-1,-1]","[0.1737299088379884,-0.04203861145732687]","[-1,-1,-1]","[-0.07943627141669411,-0.12307851946550198]","[-1,-1,-1]","[0.18874994955412394,0.06377376295227773]","[-1,-1,-1]","[0.12217790308687071,0.04335852894126367]","[-1,-1,-1]","[-0.0359413756662366,0.08234092499823988]","[-1,-1,-1]","[0.12309700420121113,0.1520301327847078]","[-1,-1,-1]","[0.05810187586203757,0.18618329396117325]","[-1,-1,-1]","[-0.17200472393942148,-0.04882409713376371]","[1,1,1]","[0.14542572079372698,-0.12052301226866714]","[-1,-1,-1]","[-0.02433069038129538,0.02859176529348598]","[-1,-1,-1]","[-0.13793729775946784,-0.11481177765046119]","[1,1,1]","[0.07778756316217417,0.06733943747330476]","[1,1,1]","[0.11691842175959563,-0.006832304534064069]","[1,1,1]","[0.010598551230323296,0.11156945255442388]","[-1,-1,-1]","[0.08760924907201342,0.11843669092826829]","[1,1,1]","[0.02358165763826908,-0.13606166524683283]","[1,1,1]","[0.05813788329627492,-0.06769196093629679]","[-1,-1,-1]","[-0.14603028778059085,0.10426815363382412]","[1,1,1]","[-0.03227076345913306,-0.046417323166173155]","[-1,-1,-1]","[-0.02687394108347653,-0.1596539095549132]","[-1,-1,-1]","[-0.05105972969000773,0.1919870929771153]","[1,1,1]","[-0.015696053022500496,-0.11361320955276406]","[-1,-1,-1]","[0.15113928820923486,0.09271378083534593]","[-1,-1,-1]","[0.02,0.02]",207.5411,0,10,10,46,1,,,,,,,
,,,,,,,662e3e72d494903379b6956a,682db46bf133c141ae048bf6,2025-05-21_12h10.47.162,cuing_paradigm_dot,2024.1.5,Win32,59.88023952,682d556593cb38ad0a074487,,,,,,,,,,,207.5423,208.0408,,,208.2918,208.824,right,0.5138,,,,,,,,,0.9,,,,,,208.0408,208.2918,208.8242,"[0.15449742028516433,-0.11880905725289156]","[1,1,1]","[-0.12955351009214958,0.02292344702395481]","[1,1,1]","[0.04638034797798024,0.18807759445478223]","[1,1,1]","[0.05120783912750816,-0.12219840040681593]","[1,1,1]","[0.11527198095602997,0.021776486687716715]","[1,1,1]","[0.11348110609153757,-0.14549054404700465]","[1,1,1]","[0.07744128427822218,-0.0431524225938213]","[1,1,1]","[0.00542851949231689,0.13377781036148842]","[1,1,1]","[0.19497436951785665,-0.0025347589595878933]","[1,1,1]","[0.055799647676979536,0.13111869355754732]","[1,1,1]","[-0.13850820807874575,-0.02496789676956343]","[1,1,1]","[-0.02854699359816942,0.07983347539535457]","[1,1,1]","[0.017249995112092714,-0.01665218505578494]","[1,1,1]","[-0.18213548433510213,-0.07618382079052889]","[-1,-1,-1]","[0.02785149906046187,0.033610853737029586]","[1,1,1]","[-0.01388519560833053,-0.04834395896275036]","[-1,-1,-1]","[0.14230655137929732,-0.04743375505640319]","[1,1,1]","[0.004144423625387103,0.17890768338519492]","[1,1,1]","[-0.04905297052965983,-0.1447919944819284]","[1,1,1]","[-0.10022347719988958,0.1013696403258666]","[1,1,1]","[0.18804914035729142,-0.0601484317476775]","[1,1,1]","[0.07597388113057418,0.0066428045390327815]","[1,1,1]","[0.08840109722686956,0.17087861290528855]","[1,1,1]","[-0.01224367365333941,-0.17253631313559334]","[1,1,1]","[-0.08409018888886316,0.15402857294178]","[1,1,1]","[-0.07724571397859921,0.02381361476154274]","[1,1,1]","[-0.05290570068251473,-0.058919885306967776]","[1,1,1]","[-0.1303289823493672,-0.14020915818275972]","[1,1,1]","[0.028293277699141084,0.08635507693461711]","[1,1,1]","[0.07383641528681366,0.08686758799739311]","[1,1,1]","[0.02826029326647232,-0.16001807264381487]","[-1,-1,-1]","[-0.10210525281077476,0.05904611275154225]","[1,1,1]","[0.02,0.02]",209.9238,0,11,11,194,1,,,,,,,
,,,,,,,662e3e72d494903379b6956a,682db46bf133c141ae048bf6,2025-05-21_12h10.47.162,cuing_paradigm_dot,2024.1.5,Win32,59.88023952,682d556593cb38ad0a074487,,,,,,,,,,,209.9246,210.4238,,,210.6761,211.2255,right,0.5419,,,,,,,,,0.6,,,,,,210.424,210.6759,211.2256,"[0.0006323288497593987,-0.1129098384473836]","[-1,-1,-1]","[0.002097019366660724,0.09394303958199524]","[-1,-1,-1]","[-0.03485807526485667,-0.18503296708164738]","[1,1,1]","[0.15451592436679287,0.10237173075771246]","[1,1,1]","[0.12190203062437407,-0.077333777695238]","[-1,-1,-1]","[0.03903296278153484,-0.16829281195970872]","[-1,-1,-1]","[-0.006220962817142073,0.04845474503531107]","[1,1,1]","[-0.0963124897868496,0.11959376851270383]","[1,1,1]","[-0.14514810327977132,-0.02695840749290024]","[-1,-1,-1]","[0.041802564428404486,-0.009810755818044792]","[1,1,1]","[-0.1425946176982463,-0.11185424352840795]","[-1,-1,-1]","[-0.1305922164283972,0.032600012081736615]","[1,1,1]","[-0.03469651619923904,-0.06380654722231818]","[1,1,1]","[-0.04327003600926714,0.17984681346534273]","[1,1,1]","[-0.09552529669905425,-0.0408457876969956]","[1,1,1]","[0.17585629401630398,-0.012861934346203729]","[1,1,1]","[0.08928095838297591,0.04134843166418846]","[1,1,1]","[-0.08654541062878214,0.03345290270561841]","[-1,-1,-1]","[0.06395277471684654,-0.12484916020728672]","[1,1,1]","[0.11955055406865295,-0.12960872821111516]","[1,1,1]","[0.09570557018503305,-0.03023256979430656]","[-1,-1,-1]","[0.05278785248296435,-0.05981668784389953]","[-1,-1,-1]","[0.05683023153973041,0.16083931497500004]","[1,1,1]","[0.15988456326857955,-0.09461065836066407]","[1,1,1]","[0.0033096444171294443,0.14929660966741357]","[1,1,1]","[0.0709528067314085,0.11477725339290673]","[1,1,1]","[-0.1272457110486015,0.08088455705805059]","[-1,-1,-1]","[0.11505910266258189,0.1513299250709935]","[1,1,1]","[-0.07208611786657972,0.07257911693488789]","[-1,-1,-1]","[-0.18937884806732203,0.003062613626143041]","[1,1,1]","[0.09434012111207171,-0.1746437713647599]","[-1,-1,-1]","[-0.09061835278928992,-0.10143577872648542]","[-1,-1,-1]","[0.02,0.02]",212.3239,0,12,12,173,1,,,,,,,
,,,,,,,662e3e72d494903379b6956a,682db46bf133c141ae048bf6,2025-05-21_12h10.47.162,cuing_paradigm_dot,2024.1.5,Win32,59.88023952,682d556593cb38ad0a074487,,,,,,,,,,,212.3252,212.8239,,,213.0751,213.6072,right,0.5232,,,,,,,,,0.9,,,,,,212.824,213.0749,213.6073,"[0.014429164902766347,-0.19179906112284442]","[1,1,1]","[-0.055120329449179446,-0.16116452147754526]","[1,1,1]","[-0.05782087954479265,-0.08529699274699912]","[1,1,1]","[0.01945416189183445,0.19601078018533755]","[-1,-1,-1]","[0.16289988251580514,-0.03187971412077913]","[1,1,1]","[-0.08889477723732181,0.04948448075214758]","[1,1,1]","[-0.014099437670144457,-0.010880699445317834]","[1,1,1]","[0.14663284835034068,0.03589945665613793]","[1,1,1]","[-0.0036661139991695903,0.14782609818910503]","[1,1,1]","[-0.16837619993841918,0.025915022828630813]","[1,1,1]","[0.09745938927574671,-0.14117398543234494]","[1,1,1]","[0.04849706348485397,0.023124189445695192]","[1,1,1]","[-0.006839989283725106,-0.13576549022716433]","[1,1,1]","[0.10816169671240672,-0.07275346255818789]","[1,1,1]","[-0.06954452215709389,0.14502854170902527]","[1,1,1]","[0.1529585005943871,0.0765834532902885]","[1,1,1]","[-0.14467717204808103,0.10522146353052696]","[-1,-1,-1]","[0.15515404070885197,-0.07254791260642617]","[1,1,1]","[0.037179969062271334,-0.06464195416485165]","[1,1,1]","[-0.015363339602602553,0.0896127725184621]","[1,1,1]","[-0.08623316373926042,-0.12721964487131707]","[-1,-1,-1]","[0.09709516029724395,0.14601361345723335]","[1,1,1]","[0.08596252138784201,0.06827115227344807]","[1,1,1]","[-0.014539224821905514,0.037522873741404235]","[1,1,1]","[-0.07657010946240873,-0.005433365740890625]","[1,1,1]","[0.11773718834048014,0.003021313017714728]","[1,1,1]","[-0.15525668923929117,-0.02583821374688343]","[1,1,1]","[-0.18510255484630528,0.07371340683700439]","[1,1,1]","[-0.036197546712294255,0.1887404600784628]","[1,1,1]","[-0.12931602631232939,-0.10805390552032144]","[1,1,1]","[-0.17363349662786268,-0.08955721618502856]","[1,1,1]","[-0.06798317127979424,0.09442602833047814]","[1,1,1]","[0.02,0.02]",214.7071,0,13,13,203,1,,,,,,,
,,,,,,,662e3e72d494903379b6956a,682db46bf133c141ae048bf6,2025-05-21_12h10.47.162,cuing_paradigm_dot,2024.1.5,Win32,59.88023952,682d556593cb38ad0a074487,,,,,,,,,,,214.7084,215.2073,,,215.4573,216.1407,left,0.6701,,,,,,,,,0.4,,,,,,215.2074,215.4573,216.1408,"[0.10951603506788139,0.003109150121472984]","[-1,-1,-1]","[0.1613911980849409,0.08507907737300942]","[1,1,1]","[-0.06835373818473701,-0.10460193057366247]","[-1,-1,-1]","[0.031813285325884406,0.1721023640803721]","[1,1,1]","[0.1346880572694114,-0.0897224096348257]","[-1,-1,-1]","[0.010488976326604279,0.032911728580665954]","[1,1,1]","[0.18575946991191325,-0.05116905072450811]","[-1,-1,-1]","[-0.038184986602992924,0.08036073586992443]","[-1,-1,-1]","[-0.10799643966977454,0.021320249893094365]","[-1,-1,-1]","[0.005047076022020699,-0.06178357803136491]","[-1,-1,-1]","[-0.09992419755107255,0.16969577271184536]","[-1,-1,-1]","[0.12425594279713192,0.04545889464167151]","[-1,-1,-1]","[0.06352577346515263,0.056074318511009885]","[-1,-1,-1]","[-0.16274292812054866,-0.10267546095303427]","[1,1,1]","[-0.016650275098927584,0.1346286131357241]","[-1,-1,-1]","[0.011051722495212158,0.09827186443152158]","[-1,-1,-1]","[0.1672680671032211,0.019292478829433087]","[1,1,1]","[-0.1382010533394043,-0.06517512541904277]","[-1,-1,-1]","[0.06335524750558628,-0.09092648754035612]","[1,1,1]","[0.01142167521164766,-0.1835126329641316]","[-1,-1,-1]","[0.07662479250600115,0.13526684301067182]","[1,1,1]","[0.14525750606302804,0.12473840914911154]","[-1,-1,-1]","[-0.1315680310237631,0.07246898195311241]","[-1,-1,-1]","[-0.04230899000399068,-0.13651702348698525]","[1,1,1]","[0.04320974189904177,-0.00513696471697203]","[1,1,1]","[-0.07243173545915352,0.11744642509513654]","[1,1,1]","[0.07571287846089628,-0.05152254941322228]","[-1,-1,-1]","[-0.1364074744441728,0.14194515393744314]","[1,1,1]","[-0.09996888143928083,-0.16834174916357547]","[1,1,1]","[-0.04437942131706916,-0.18939870202603826]","[-1,-1,-1]","[-0.004964622114557394,-0.10074048239377896]","[1,1,1]","[-0.17648888798181517,0.026142293888347847]","[-1,-1,-1]","[0.02,0.02]",217.2398,0,14,14,33,1,,,,,,,
,,,,,,,662e3e72d494903379b6956a,682db46bf133c141ae048bf6,2025-05-21_12h10.47.162,cuing_paradigm_dot,2024.1.5,Win32,59.88023952,682d556593cb38ad0a074487,,,,,,,,,,,217.2404,217.7405,,,217.9912,218.6564,right,0.6507,,,,,,,,,0.9,,,,,,217.7407,217.9912,218.6565,"[0.07013408076184058,-0.16670629533836184]","[1,1,1]","[-0.18863708888538092,0.0071387427207643996]","[1,1,1]","[0.018937655314151543,0.04634683597503259]","[1,1,1]","[0.0692186861913236,0.10192431577096885]","[1,1,1]","[-0.13663323614305636,0.12980486273714137]","[1,1,1]","[0.03307218754228186,0.1804322206456247]","[1,1,1]","[-0.016678396655310318,-0.09283623982029891]","[1,1,1]","[0.15066311169486368,-0.06591150680220371]","[1,1,1]","[0.061832247079228464,0.14547741623946286]","[1,1,1]","[-0.022968618288067184,0.07507656071088187]","[1,1,1]","[0.03277141431478484,-0.004254151026082174]","[1,1,1]","[-0.03921110754998473,-0.1950829415313481]","[1,1,1]","[0.10607572878737166,0.15052548414330563]","[1,1,1]","[-0.03495055606655163,-0.02836081358370273]","[1,1,1]","[0.023482139064817255,0.1331153674936463]","[1,1,1]","[0.12441488908486067,0.06419443712894707]","[1,1,1]","[0.08936914614539603,0.019279597252592765]","[-1,-1,-1]","[-0.06001089445818698,0.1502490469999402]","[1,1,1]","[0.04045028967942502,-0.052588563688658246]","[1,1,1]","[-0.02684558482836437,0.1977716828964101]","[1,1,1]","[0.19180966118077517,0.04021227516492558]","[1,1,1]","[-0.08115426324171322,-0.04253686124076739]","[1,1,1]","[-0.15084411595864505,-0.08042410601875019]","[1,1,1]","[0.026836782635946386,-0.1750729242029549]","[1,1,1]","[-0.11713523664129734,-0.14196251572537594]","[1,1,1]","[0.13103503304017883,-0.009702148024599223]","[-1,-1,-1]","[0.07975564066974104,-0.04318494927571565]","[1,1,1]","[-0.18913074669448396,-0.04922112401441192]","[1,1,1]","[-0.09594439178188849,0.11557241581021266]","[1,1,1]","[0.02024928749291743,-0.1261157140715764]","[1,1,1]","[-0.19204688957883884,0.05084345554891412]","[1,1,1]","[-0.08818061281897759,0.04009161844984205]","[-1,-1,-1]","[0.02,0.02]",219.7567,0,15,15,204,1,,,,,,,
,,,,,,,662e3e72d494903379b6956a,682db46bf133c141ae048bf6,2025-05-21_12h10.47.162,cuing_paradigm_dot,2024.1.5,Win32,59.88023952,682d556593cb38ad0a074487,,,,,,,,,,,219.7585,220.2567,,,220.5077,221.7905,right,1.2673,,,,,,,,,0.45,,,,,,220.2567,220.5077,221.7905,"[0.13340979870767541,0.13931829674325408]","[1,1,1]","[0.16128893091031524,0.02618782792675312]","[-1,-1,-1]","[-0.10033577506977846,0.08582666897948261]","[-1,-1,-1]","[0.03519607235359551,-0.1651642084924101]","[1,1,1]","[0.11727399761043525,0.05954782899199501]","[-1,-1,-1]","[-0.012576241201297664,0.14904645798642258]","[-1,-1,-1]","[0.10820485457591295,-0.1446474012699518]","[1,1,1]","[0.021709841868265908,0.18404154516427307]","[-1,-1,-1]","[-0.1620669489665491,-0.08302052199069809]","[1,1,1]","[0.17582452626046213,0.06872390159700685]","[1,1,1]","[-0.1605825258070325,-0.008169158865773355]","[-1,-1,-1]","[-0.06473165838584578,0.017994234343043754]","[-1,-1,-1]","[0.06577791072121425,-0.008089751149247823]","[-1,-1,-1]","[-0.1906296501882696,0.03357656677185004]","[1,1,1]","[-0.06966702548208571,-0.1037384276617342]","[1,1,1]","[0.014418131600183591,0.07870747548448899]","[-1,-1,-1]","[0.11105129159133863,-0.06576939920978025]","[-1,-1,-1]","[0.001376258527888913,0.02093093293567508]","[-1,-1,-1]","[-0.11770567209089451,-0.06805165285455383]","[-1,-1,-1]","[-0.02379844758749255,-0.19543096151208925]","[-1,-1,-1]","[-0.040794604887733,0.11238937223363105]","[-1,-1,-1]","[-0.12015046784908517,0.14658636817334475]","[1,1,1]","[0.05949779717031166,-0.08761775012301085]","[1,1,1]","[0.10898483199255272,-0.013423794068789678]","[-1,-1,-1]","[0.14635325179378605,-0.08942817581799088]","[-1,-1,-1]","[-0.0020028869082562083,-0.05131228997666349]","[1,1,1]","[-0.09898412515878881,-0.14922293360238864]","[1,1,1]","[-0.11946397465650468,-0.11441259489779469]","[-1,-1,-1]","[-0.04624881263332596,-0.022225284071345237]","[1,1,1]","[-0.17013355920567774,0.0940307494240552]","[1,1,1]","[0.1467644220963035,-0.030536450607092654]","[1,1,1]","[0.06006485612372053,0.1356835793355453]","[-1,-1,-1]","[0.02,0.02]",222.8891,0,16,16,83,1,,,,,,,
,,,,,,,662e3e72d494903379b6956a,682db46bf133c141ae048bf6,2025-05-21_12h10.47.162,cuing_paradigm_dot,2024.1.5,Win32,59.88023952,682d556593cb38ad0a074487,,,,,,,,,,,222.8895,223.3891,,,223.6393,224.8395,left,1.1926,,,,,,,,,0.45,,,,,,223.3891,223.6393,224.8395,"[0.0015687985596271803,0.05847998982455372]","[1,1,1]","[0.09663430603154649,-0.11766592509535574]","[-1,-1,-1]","[0.05850428446135419,0.0481495550269206]","[-1,-1,-1]","[0.18768882816853025,0.03270318876044697]","[-1,-1,-1]","[-0.013516724407851028,-0.15736026875697093]","[-1,-1,-1]","[-0.05373330447494757,-0.09646580168148215]","[1,1,1]","[-0.09955728135948662,0.0646171788088737]","[1,1,1]","[0.11437489802881325,-0.15837850069511136]","[-1,-1,-1]","[-0.025316983090345968,0.1193331317466613]","[-1,-1,-1]","[-0.05193842450962316,0.031255819914326084]","[1,1,1]","[0.06545629661299687,0.10182495834554152]","[1,1,1]","[-0.08469329162604108,0.0007435274487798125]","[-1,-1,-1]","[-0.1035636861288729,-0.1563263747211982]","[-1,-1,-1]","[-0.0375788308455011,-0.008847474999512507]","[1,1,1]","[-0.14460620508645491,-0.06383915018449207]","[1,1,1]","[0.1421165345869742,-0.12713137402065675]","[1,1,1]","[-0.18844123884879144,0.054953885319854796]","[1,1,1]","[-0.08605035070703491,0.1180667634545786]","[-1,-1,-1]","[0.1171361408596273,0.025159131039736934]","[1,1,1]","[-0.10809899333171213,-0.034022378041400674]","[-1,-1,-1]","[0.1359906337467336,-0.037836227039399574]","[-1,-1,-1]","[0.17043885919841645,-0.08925004428965855]","[-1,-1,-1]","[-0.1304241815425308,-0.10176777924903146]","[1,1,1]","[0.045659006261844125,-0.17684424289929862]","[1,1,1]","[0.13121908868210963,0.07730399106888164]","[-1,-1,-1]","[0.06116492133287406,-0.025707159081556796]","[-1,-1,-1]","[-0.04902314128130504,0.19329954072389446]","[1,1,1]","[-0.1456000453698603,0.05783831639818602]","[1,1,1]","[0.07828476881443952,0.16089996304159523]","[-1,-1,-1]","[0.029391070536065905,-0.07475575170727726]","[-1,-1,-1]","[-0.0887213449494449,-0.11622214845145337]","[-1,-1,-1]","[-0.04945217930411957,0.0795977993023024]","[-1,-1,-1]","[0.02,0.02]",225.9394,0,17,17,69,1,,,,,,,
,,,,,,,662e3e72d494903379b6956a,682db46bf133c141ae048bf6,2025-05-21_12h10.47.162,cuing_paradigm_dot,2024.1.5,Win32,59.88023952,682d556593cb38ad0a074487,,,,,,,,,,,225.9404,226.4395,,,226.6899,227.9565,left,1.2517,,,,,,,,,0.4,,,,,,226.4396,226.6898,227.9566,"[-0.109993467547854,0.05057058888179404]","[-1,-1,-1]","[0.10390393418304321,-0.0690436330932505]","[1,1,1]","[-0.010796270665621338,0.1800504262513164]","[-1,-1,-1]","[-0.15249884649453657,-0.11550024637467349]","[1,1,1]","[-0.07206345506227618,-0.0074333021127962265]","[1,1,1]","[-0.024061894221162047,-0.18120133217671042]","[1,1,1]","[-0.07278150978927429,-0.1699656073290727]","[-1,-1,-1]","[0.1299757697295215,0.12158603009443528]","[-1,-1,-1]","[0.1435005895115792,-0.10191602926231877]","[1,1,1]","[-0.1508630831712669,0.1104609886777167]","[-1,-1,-1]","[-0.03432326975541026,0.018680439629399515]","[-1,-1,-1]","[0.09275347412746228,-0.012857861929871638]","[1,1,1]","[-0.15419286187779824,-0.07248773399631515]","[-1,-1,-1]","[0.002674563938648394,-0.056711069096616225]","[1,1,1]","[-0.11036303923790326,-0.029029778866287836]","[-1,-1,-1]","[0.17919280354742495,-0.028348759145040807]","[-1,-1,-1]","[0.05681526094954346,0.1855847099728622]","[-1,-1,-1]","[-0.036025779734914415,-0.10869608424521927]","[-1,-1,-1]","[0.05644253460975734,-0.0716076216759869]","[-1,-1,-1]","[0.06522401261231778,0.11046489000496582]","[1,1,1]","[-0.005057050398348037,-0.009116371334148611]","[-1,-1,-1]","[-0.048596751625641366,0.1171966366141476]","[1,1,1]","[0.030546347813811724,0.03502053237242958]","[1,1,1]","[0.0027791600319184836,-0.12068612549856293]","[-1,-1,-1]","[0.13409785096702134,0.07186035872037067]","[-1,-1,-1]","[0.04499260072178269,-0.026326912673582822]","[-1,-1,-1]","[0.1748020209128099,0.025930791337026422]","[-1,-1,-1]","[-0.07481657150681105,0.15636733748297516]","[-1,-1,-1]","[-0.18383251130179543,-0.026281442897665385]","[1,1,1]","[-0.02268859485583542,0.062060592800112536]","[1,1,1]","[-0.09910275107460798,-0.10717212582415006]","[1,1,1]","[-0.04727730814648375,-0.0429855036639121]","[-1,-1,-1]","[0.02,0.02]",229.0562,0,18,18,47,1,,,,,,,
,,,,,,,662e3e72d494903379b6956a,682db46bf133c141ae048bf6,2025-05-21_12h10.47.162,cuing_paradigm_dot,2024.1.5,Win32,59.88023952,682d556593cb38ad0a074487,,,,,,,,,,,229.0575,229.556,,,229.8061,230.7731,right,0.9534,,,,,,,,,0.55,,,,,,229.5561,229.806,230.7732,"[-0.05595200085137009,-0.11244800446411057]","[1,1,1]","[-0.04123481852788883,0.17055041494595646]","[-1,-1,-1]","[0.19173087340873154,0.01034119678827225]","[1,1,1]","[-0.18787750296343148,-0.037999205383209285]","[1,1,1]","[0.04108579646753154,-0.09299038990614494]","[1,1,1]","[0.016588047009137488,-0.1651928890947486]","[-1,-1,-1]","[-0.1699998445654361,0.08118795503297292]","[-1,-1,-1]","[0.10963397631102961,-0.10673645125472471]","[1,1,1]","[-0.10136621456839638,0.025286704682720273]","[-1,-1,-1]","[0.12713425175230972,0.028474447157762303]","[1,1,1]","[-0.04052727928448015,0.0737882437720148]","[1,1,1]","[-0.14838673961183918,-0.12487197687056181]","[-1,-1,-1]","[0.003410816521905045,0.1971662616251796]","[1,1,1]","[0.08756897556367685,-0.15511963747097318]","[-1,-1,-1]","[0.1642283208124568,0.06560921186952591]","[-1,-1,-1]","[0.15497298507325247,-0.011704463094402534]","[-1,-1,-1]","[-0.02462683369189905,-0.016249138017664047]","[-1,-1,-1]","[-0.07573865962544092,0.12158085874884264]","[1,1,1]","[0.07626727028957332,0.012626820783031609]","[1,1,1]","[-0.13892220343192585,0.010570430345806866]","[-1,-1,-1]","[0.03954349624332749,0.16719435318352194]","[-1,-1,-1]","[-0.02793663470778295,-0.07016468327097025]","[1,1,1]","[0.00019766176743230481,0.0687449327363879]","[1,1,1]","[0.061568226020405105,-0.04340177706805935]","[1,1,1]","[0.0809011111870036,0.05355471235128006]","[1,1,1]","[0.012985296914686542,0.11793367278732876]","[1,1,1]","[-0.022690980300105943,-0.1383465943408117]","[-1,-1,-1]","[0.16268339196001144,-0.11174342660544699]","[1,1,1]","[-0.10639935922559923,-0.10029650587024523]","[1,1,1]","[-0.10871308405212626,-0.162054436001704]","[1,1,1]","[-0.0886280066988636,-0.018001825461096802]","[-1,-1,-1]","[-0.12672289186781482,0.11275247756515573]","[-1,-1,-1]","[0.02,0.02]",231.8725,0,19,19,121,1,,,,,,,
,,,,,,,662e3e72d494903379b6956a,682db46bf133c141ae048bf6,2025-05-21_12h10.47.162,cuing_paradigm_dot,2024.1.5,Win32,59.88023952,682d556593cb38ad0a074487,,,,,,,,,,,231.8735,232.3725,,,232.6237,233.5405,left,0.909,,,,,,,,,0.4,,,,,,232.3726,232.6235,233.5406,"[0.06931264645716437,-0.14231799465325007]","[-1,-1,-1]","[-0.1394100965440291,-0.08318903237665894]","[-1,-1,-1]","[0.008937902389857049,0.025648348173166628]","[-1,-1,-1]","[0.1799545100291892,-0.009717320271792399]","[-1,-1,-1]","[-0.14686569593677265,0.08846373521744494]","[1,1,1]","[0.05733348566439347,0.05638268651068846]","[-1,-1,-1]","[-0.06360896679902615,0.17831742474949094]","[1,1,1]","[-0.021918851474752556,-0.0363371081824146]","[1,1,1]","[0.13907933934018876,-0.0638583757474661]","[-1,-1,-1]","[-0.054546755018990124,-0.10140562136629648]","[-1,-1,-1]","[0.04015017170057286,0.16562211882074473]","[-1,-1,-1]","[-0.035689514606158955,0.04355445021623308]","[1,1,1]","[-0.12332818616967088,-0.1364779310072719]","[-1,-1,-1]","[0.03104111584076113,-0.029921424520713245]","[1,1,1]","[0.020373851687717135,-0.16762673092719219]","[-1,-1,-1]","[-0.056255985491073454,0.08711033264362533]","[1,1,1]","[0.09026721761683497,-0.033316835924354506]","[-1,-1,-1]","[-0.09919959280193542,-0.040763950084601965]","[1,1,1]","[-0.06009782218202077,-0.16585752614733362]","[1,1,1]","[0.13140225663418093,-0.008182067429378739]","[1,1,1]","[-0.07118426186349482,0.011141399792583696]","[-1,-1,-1]","[0.020325023921532164,-0.07092802971757334]","[-1,-1,-1]","[-0.13919081327874808,0.03231596580169541]","[-1,-1,-1]","[0.1530005151257566,0.028791245738410926]","[1,1,1]","[-0.16615378564063793,-0.022074403185871862]","[1,1,1]","[0.1646217788417215,-0.10532577704189276]","[-1,-1,-1]","[-0.18087380735463482,0.016340006160421028]","[-1,-1,-1]","[-0.0168331288256311,0.10944982326585445]","[1,1,1]","[-0.09681358119076731,0.08527840789498634]","[-1,-1,-1]","[0.1504858371568605,0.11645812118277872]","[-1,-1,-1]","[0.09137721000204017,0.1534234289936952]","[1,1,1]","[0.09187559334961087,0.10866983066957017]","[-1,-1,-1]","[0.02,0.02]",234.639,0,20,20,40,1,,,,,,,
,,,,,,,662e3e72d494903379b6956a,682db46bf133c141ae048bf6,2025-05-21_12h10.47.162,cuing_paradigm_dot,2024.1.5,Win32,59.88023952,682d556593cb38ad0a074487,,,,,,,,,,,234.6402,235.1389,,,235.3901,236.1892,right,0.7843,,,,,,,,,0.9,,,,,,235.139,235.3899,236.1894,"[0.09276155912669308,-0.09542554857344755]","[1,1,1]","[0.05557417443859,-0.17146680490544708]","[1,1,1]","[0.0232269819578377,0.1891849229027004]","[1,1,1]","[-0.07799764658809927,-0.011377407750690316]","[1,1,1]","[0.06772441454001393,0.02990654209059791]","[1,1,1]","[0.11140569392634744,-0.02748811885585929]","[1,1,1]","[-0.19508994650993633,-0.01799692848281468]","[1,1,1]","[-0.12329643273718444,0.08110321737031231]","[1,1,1]","[0.11110532242039366,-0.13655649846014645]","[1,1,1]","[-0.08199578531273134,0.10434892191956956]","[1,1,1]","[-0.04296771030766886,0.17486727488495496]","[-1,-1,-1]","[-0.06658150939701,-0.18544196234964927]","[1,1,1]","[-0.13101347674576866,-0.0010056028923299948]","[-1,-1,-1]","[0.1327583199015422,0.1109036232342215]","[1,1,1]","[0.004507900252170126,0.06263639514245929]","[1,1,1]","[0.07603924266142903,0.1555002667708027]","[-1,-1,-1]","[-0.014465860649519246,0.1006261903820222]","[1,1,1]","[0.008719285247571741,-0.19476769203634015]","[1,1,1]","[0.04936788229817699,0.08178388480919534]","[1,1,1]","[0.14539316997999638,-0.06507390976903173]","[1,1,1]","[-0.1787520284233908,-0.05711340087429709]","[1,1,1]","[-0.025326175037831845,0.008767122378921615]","[1,1,1]","[0.17991436537528457,-0.02886256982953812]","[1,1,1]","[-0.025874616461048834,-0.16949267270053167]","[1,1,1]","[-0.09863300982513246,0.15806894953250025]","[1,1,1]","[0.1093533232412216,0.05762656454844353]","[1,1,1]","[0.019429317965622965,-0.10153352599505183]","[1,1,1]","[0.1183146453491843,0.1555472334060815]","[1,1,1]","[0.0429728459577792,-0.009466583232455668]","[1,1,1]","[-0.0997552112535731,-0.15056613320655388]","[1,1,1]","[-0.1667683573438236,-0.09611739558348059]","[1,1,1]","[-0.0371309476378399,-0.04890097447418307]","[1,1,1]","[0.02,0.02]",237.2888,0,21,21,196,1,,,,,,,
,,,,,,,662e3e72d494903379b6956a,682db46bf133c141ae048bf6,2025-05-21_12h10.47.162,cuing_paradigm_dot,2024.1.5,Win32,59.88023952,682d556593cb38ad0a074487,,,,,,,,,,,237.2901,237.7888,,,238.039,239.189,right,1.1385,,,,,,,,,0.55,,,,,,237.789,238.0389,239.1892,"[0.04799673858793772,0.060033915584360824]","[1,1,1]","[0.15687500616413805,0.08335129584626322]","[-1,-1,-1]","[0.10381208214476788,-0.1368757732698209]","[1,1,1]","[-0.04372105559537245,0.08652407983502278]","[-1,-1,-1]","[-0.04997778442716239,-0.14258200076020172]","[-1,-1,-1]","[-0.08962385515625257,0.1534150489211643]","[-1,-1,-1]","[-0.02689329390365094,-0.03245783043145714]","[1,1,1]","[-0.0955073746591245,-0.06269746091451535]","[1,1,1]","[-0.10389177738819787,-0.16076205976924343]","[1,1,1]","[-0.12434404357684,0.11744847543826398]","[1,1,1]","[-0.08445020530276484,0.0748701524622941]","[1,1,1]","[0.17982071148623313,-0.04504613604225224]","[-1,-1,-1]","[-0.17529726437708057,0.08074417885919853]","[-1,-1,-1]","[0.015256379792386287,-0.14391238646393698]","[1,1,1]","[-0.18481973028289925,0.030063144597024485]","[1,1,1]","[0.10948293158364125,0.1595986033746959]","[1,1,1]","[0.10001579062195139,-0.09346765319676094]","[-1,-1,-1]","[0.13385840482572336,0.017060761537158024]","[1,1,1]","[0.059151411683035074,-0.03706110139589968]","[-1,-1,-1]","[-0.0315069250456321,0.16986716871795665]","[-1,-1,-1]","[-0.055097838143982704,-0.06244862666365628]","[1,1,1]","[-0.1472266909840705,-0.02390619694721808]","[1,1,1]","[0.1462334141317156,-0.13299809692422707]","[-1,-1,-1]","[0.021914572898060168,-0.05306713494117249]","[1,1,1]","[-0.014063874171132262,0.01617733165442548]","[-1,-1,-1]","[0.17337436703342132,-0.0006076704100429927]","[1,1,1]","[0.029017914883042818,-0.18586895187903396]","[-1,-1,-1]","[-0.012491405933408578,-0.19814331722831113]","[1,1,1]","[-0.12388067890133651,0.0501966629756373]","[1,1,1]","[-0.02160995940025191,-0.09536983422672658]","[-1,-1,-1]","[-0.16172533653141796,-0.10434625242521096]","[1,1,1]","[0.06968507942779323,0.009168904887274204]","[-1,-1,-1]","[0.02,0.02]",240.2888,0,22,22,147,1,,,,,,,
,,,,,,,662e3e72d494903379b6956a,682db46bf133c141ae048bf6,2025-05-21_12h10.47.162,cuing_paradigm_dot,2024.1.5,Win32,59.88023952,682d556593cb38ad0a074487,,,,,,,,,,,240.29,240.7886,,,241.0389,241.689,left,0.6362,,,,,,,,,0.1,,,,,,240.7888,241.0388,241.6891,"[-0.15501705255738926,-0.12287630569730511]","[-1,-1,-1]","[0.12750141029671389,0.1469193482525277]","[-1,-1,-1]","[-0.028873075055885575,-0.032877166176214875]","[-1,-1,-1]","[0.1104205382797867,-0.09705129064316083]","[-1,-1,-1]","[-0.06473150681483934,-0.12330634316411349]","[-1,-1,-1]","[0.17104141789644234,-0.034579991791671254]","[-1,-1,-1]","[-0.009549612846087883,0.04610217375637159]","[-1,-1,-1]","[-0.08779279178395684,0.03185261186493566]","[-1,-1,-1]","[-0.05857258676234213,0.11812648864733617]","[-1,-1,-1]","[0.08882678014479037,0.11833242942368992]","[-1,-1,-1]","[0.12582205508728017,0.053750685997804845]","[-1,-1,-1]","[0.13586109239150015,-0.06276757666256987]","[-1,-1,-1]","[-0.08891755825399107,-0.07266311373830578]","[-1,-1,-1]","[-0.02824804507333743,0.19672369245795598]","[1,1,1]","[0.03398014056852029,0.03824716832714918]","[-1,-1,-1]","[-0.08203868775236264,-0.17816651197638164]","[-1,-1,-1]","[-0.1654592981316279,-0.08178166530455513]","[-1,-1,-1]","[0.062042389558452184,-0.05575181974764259]","[1,1,1]","[-0.17620946862219872,0.00689008947429903]","[-1,-1,-1]","[0.08545123639968162,0.03669759211032147]","[-1,-1,-1]","[0.053065456745351736,0.07415814155457523]","[-1,-1,-1]","[0.04491611218477879,0.14873669016065302]","[-1,-1,-1]","[0.053776176456715334,-0.18933920113026803]","[-1,-1,-1]","[-0.12495324030036682,0.1449146627033561]","[-1,-1,-1]","[0.17199837225683506,0.030299929548379283]","[-1,-1,-1]","[0.020593983882120623,0.09933289112068441]","[-1,-1,-1]","[0.16957949656606894,-0.10447656971170972]","[-1,-1,-1]","[0.002610286083866725,-0.13762731547671095]","[-1,-1,-1]","[0.06846702650210186,0.18141754247408629]","[1,1,1]","[-0.07838482063452606,0.1622532185153782]","[-1,-1,-1]","[-0.17538475469431444,0.048410082662435704]","[-1,-1,-1]","[-0.016415289582215414,-0.17601127039987344]","[-1,-1,-1]","[0.02,0.02]",242.7883,0,23,23,27,1,,,,,,,
,,,,,,,662e3e72d494903379b6956a,682db46bf133c141ae048bf6,2025-05-21_12h10.47.162,cuing_paradigm_dot,2024.1.5,Win32,59.88023952,682d556593cb38ad0a074487,,,,,,,,,,,242.7895,243.2883,,,243.5394,244.1885,left,0.638,,,,,,,,,0.1,,,,,,243.2885,243.5392,244.1887,"[0.01718415925936078,0.0922178803781147]","[-1,-1,-1]","[0.13850415549446826,-0.09563279444025362]","[-1,-1,-1]","[0.09844176188657933,0.06631661373752538]","[-1,-1,-1]","[0.17518488925787032,-0.012233258739435043]","[-1,-1,-1]","[-0.0010132768814679438,0.03264983949594265]","[-1,-1,-1]","[-0.01320331505269112,-0.04147524070804328]","[-1,-1,-1]","[0.12037243742424673,-0.014561840698786658]","[-1,-1,-1]","[0.07128418542209151,-0.16091410955465532]","[-1,-1,-1]","[-0.05531922230941614,0.16173975406781388]","[-1,-1,-1]","[0.07774531905162077,-0.11707676417992076]","[-1,-1,-1]","[0.13842183064954722,0.10234396773160706]","[-1,-1,-1]","[-0.06679793101441983,-0.12475762157041644]","[-1,-1,-1]","[-0.1579363709582957,-0.012417355976313776]","[-1,-1,-1]","[-0.05308505086428688,0.08912181502035123]","[-1,-1,-1]","[0.18577808926764575,-0.05895228619505228]","[-1,-1,-1]","[-0.006122600902024227,-0.1285843589321151]","[-1,-1,-1]","[0.05098365590780881,-0.03383208608533992]","[-1,-1,-1]","[-0.09625017075022338,-0.06359495624575111]","[-1,-1,-1]","[0.03594214392460742,-0.10291632841767775]","[-1,-1,-1]","[-0.07421088724472322,0.004739290939327848]","[-1,-1,-1]","[-0.10555741004565704,0.12387186776871804]","[-1,-1,-1]","[-0.1888965737497738,-0.0420782586602675]","[1,1,1]","[-0.18762413295878208,0.022264981836998272]","[-1,-1,-1]","[0.1577874426293739,0.05832144123786639]","[1,1,1]","[0.06468366907066805,0.15210847182414658]","[-1,-1,-1]","[0.13686324207926082,-0.13677324006357086]","[-1,-1,-1]","[-0.10580330028301071,-0.1644935417283867]","[-1,-1,-1]","[-0.10667735835531912,0.05432692146065841]","[-1,-1,-1]","[-0.0129040534142892,-0.17183159694909264]","[1,1,1]","[-0.051180824626989814,-0.028436539782537816]","[-1,-1,-1]","[-0.13532278584760885,0.024103009295891403]","[-1,-1,-1]","[-0.1415055847231675,-0.0661976817732948]","[-1,-1,-1]","[0.02,0.02]",245.2875,0,24,24,14,1,,,,,,,
,,,,,,,662e3e72d494903379b6956a,682db46bf133c141ae048bf6,2025-05-21_12h10.47.162,cuing_paradigm_dot,2024.1.5,Win32,59.88023952,682d556593cb38ad0a074487,,,,,,,,,,,245.2881,245.7881,,,246.039,247.1384,right,1.0851,,,,,,,,,0.45,,,,,,245.7881,246.0389,247.1386,"[0.1533578340627345,-0.00801616153250087]","[1,1,1]","[-0.01689051275031038,0.15738376910280624]","[-1,-1,-1]","[0.055723922936855026,0.10506529138508823]","[-1,-1,-1]","[0.17563954762594441,0.03450175788770711]","[1,1,1]","[-0.05758327559436773,0.10798915532847798]","[1,1,1]","[0.09235084047417727,-0.14077080465003963]","[-1,-1,-1]","[0.10144142017033457,-0.026742293093666943]","[1,1,1]","[-0.06311192350435307,-0.03599502856150709]","[-1,-1,-1]","[0.002296929783632403,0.006782460870277338]","[-1,-1,-1]","[-0.1572350138534703,0.03911604218672209]","[1,1,1]","[-0.1042666545963327,-0.0976445346982782]","[-1,-1,-1]","[-0.1776904214046451,-0.09149428296378312]","[1,1,1]","[0.058866927728832126,-0.1138424388990034]","[-1,-1,-1]","[-0.08045816567702724,0.1624524357297545]","[1,1,1]","[-0.14263330435978705,-0.06290682427245921]","[-1,-1,-1]","[0.13797978147298606,-0.11600922710277381]","[1,1,1]","[0.011607361261091369,0.1933300853934472]","[-1,-1,-1]","[0.024189981164238813,-0.18444084450871093]","[-1,-1,-1]","[-0.03399028248416471,0.06594624747279576]","[-1,-1,-1]","[-0.10715849862067031,-0.017950878048249973]","[1,1,1]","[0.03446583461369731,-0.0496122332532707]","[-1,-1,-1]","[-0.16327061027406573,0.10736507129707405]","[-1,-1,-1]","[-0.021882361723564767,-0.17337536968064385]","[-1,-1,-1]","[-0.015004685130628713,-0.10028031683946996]","[1,1,1]","[-0.10386292889706447,0.1214054966266799]","[-1,-1,-1]","[0.011340029250498724,0.07794501235170193]","[1,1,1]","[-0.1898196813412851,-0.03597346128236676]","[-1,-1,-1]","[-0.10619326555954173,0.07995543037279393]","[1,1,1]","[-0.07241923462134928,0.014659782833304214]","[1,1,1]","[0.13496487274221447,-0.05698701826579939]","[1,1,1]","[-0.025449308276165296,-0.04989697684838659]","[-1,-1,-1]","[0.08021946570673198,-0.06561629555219585]","[-1,-1,-1]","[0.02,0.02]",248.2379,0,25,25,76,1,,,,,,,
,,,,,,,662e3e72d494903379b6956a,682db46bf133c141ae048bf6,2025-05-21_12h10.47.162,cuing_paradigm_dot,2024.1.5,Win32,59.88023952,682d556593cb38ad0a074487,,,,,,,,,,,248.2389,248.7378,,,248.989,250.0214,right,1.0187,,,,,,,,,0.5,,,,,,248.7378,248.9889,250.0215,"[0.005504195155285531,0.15329215430493331]","[1,1,1]","[0.002554401419426924,0.1936259567429057]","[1,1,1]","[0.059338072673247054,0.049931780288734594]","[1,1,1]","[-0.1838227384797541,-0.06235913950227725]","[1,1,1]","[0.19649212439760452,-0.03004067606868433]","[-1,-1,-1]","[0.13552403023673248,0.1119281737224635]","[1,1,1]","[-0.1254064763521216,0.012630736086326177]","[1,1,1]","[0.17318905555594577,0.08587253069568124]","[-1,-1,-1]","[-0.09714743891935183,0.15961949925213045]","[-1,-1,-1]","[-0.09949781454716375,-0.026581424137692215]","[-1,-1,-1]","[0.10147050431157398,0.023807668856975897]","[-1,-1,-1]","[0.12442033381029531,-0.15081986419124835]","[-1,-1,-1]","[0.16382318584723335,0.0035923562293992263]","[1,1,1]","[0.06496853770871709,0.1388825195692267]","[-1,-1,-1]","[-0.054727476847630616,0.1826814212318822]","[1,1,1]","[-0.02200320405222567,-0.04980660088517184]","[1,1,1]","[-0.13401206453988385,-0.12255923960278495]","[-1,-1,-1]","[0.10464476364870016,0.14505481865054795]","[1,1,1]","[-0.17575101500940035,0.011431479995929566]","[-1,-1,-1]","[0.057713081839169025,-0.05338230701151864]","[1,1,1]","[-0.13810087670677482,-0.03955392807553325]","[1,1,1]","[-0.075199239195356,0.042687580119098074]","[-1,-1,-1]","[0.13905038468437836,-0.10648700016820621]","[1,1,1]","[0.08269607244284881,-0.17477904317740386]","[-1,-1,-1]","[-0.11288282642584185,0.07745522889726884]","[-1,-1,-1]","[-0.0011234302694481594,-0.19537534649262533]","[-1,-1,-1]","[0.02617917460440324,-0.1569809075729521]","[1,1,1]","[0.13899968927642187,-0.0661020638316973]","[-1,-1,-1]","[0.020913204450990756,-0.034459766891634006]","[-1,-1,-1]","[0.05000946383037376,-0.10980633519542009]","[-1,-1,-1]","[-0.08594493543626615,-0.09377034174597577]","[1,1,1]","[-0.0012966254076701676,0.10946171374021776]","[1,1,1]","[0.02,0.02]",251.1211,0,26,26,102,1,,,,,,,
,,,,,,,662e3e72d494903379b6956a,682db46bf133c141ae048bf6,2025-05-21_12h10.47.162,cuing_paradigm_dot,2024.1.5,Win32,59.88023952,682d556593cb38ad0a074487,,,,,,,,,,,251.1225,251.6211,,,251.871,252.8208,right,0.9385,,,,,,,,,0.6,,,,,,251.6212,251.871,252.8208,"[-0.18304015790529465,-0.05839312877113872]","[-1,-1,-1]","[-0.1488234227938814,-0.08093671883185505]","[1,1,1]","[0.08325067597571056,0.1062125294108127]","[-1,-1,-1]","[0.05649502528927979,0.18202898744885732]","[1,1,1]","[0.03733276616993878,0.12742608646649145]","[1,1,1]","[0.13932982613042427,0.13469626079972163]","[1,1,1]","[0.1934988245729607,0.0448417426942654]","[-1,-1,-1]","[0.07388468223012043,0.010913676802684846]","[1,1,1]","[0.09325622789335289,-0.04763373946821242]","[1,1,1]","[0.14978047686799265,0.040898577700674836]","[-1,-1,-1]","[-0.052043834641219554,0.08287185341858899]","[-1,-1,-1]","[0.01153964441822868,0.08585431237956495]","[1,1,1]","[-0.17312677238029714,0.038208397023026176]","[1,1,1]","[0.10844529408628023,-0.1326701647115311]","[1,1,1]","[-0.005565389803953588,0.16670412714077706]","[1,1,1]","[0.10839632958675496,0.0466058335087178]","[-1,-1,-1]","[-0.1156884284319013,-0.02179698820632191]","[-1,-1,-1]","[0.03691323793285713,0.03177226091934953]","[-1,-1,-1]","[0.14330627075926183,0.08916409169378535]","[-1,-1,-1]","[0.156019846050765,-0.012752190647422623]","[1,1,1]","[0.026414935899522728,-0.09297897721045395]","[-1,-1,-1]","[-0.1324115710888621,0.1459643161941146]","[1,1,1]","[0.011491739979688156,-0.03524260794476846]","[-1,-1,-1]","[-0.06055144058952406,-0.14013722162171408]","[1,1,1]","[0.08919096929804922,0.158946560999711]","[1,1,1]","[-0.043922671105710964,-0.19397926583591]","[-1,-1,-1]","[-0.1386352081667219,0.06044420899971005]","[1,1,1]","[0.00560056197598753,-0.1433997573846276]","[-1,-1,-1]","[-0.03359138459960388,-0.10360898341885481]","[1,1,1]","[0.07316827127573229,-0.08305510374871461]","[1,1,1]","[-0.04301485504277479,0.19485384668227912]","[1,1,1]","[0.1612983259517771,-0.09619253717453743]","[1,1,1]","[0.02,0.02]",253.9206,0,27,27,167,1,,,,,,,
,,,,,,,662e3e72d494903379b6956a,682db46bf133c141ae048bf6,2025-05-21_12h10.47.162,cuing_paradigm_dot,2024.1.5,Win32,59.88023952,682d556593cb38ad0a074487,,,,,,,,,,,253.9217,254.4208,,,254.6715,255.6043,right,0.9212,,,,,,,,,0.6,,,,,,254.4209,254.6715,255.6045,"[0.08256307822343961,0.048690798656746574]","[-1,-1,-1]","[-0.046120966623567974,0.01219076941726229]","[1,1,1]","[-0.13507733364215252,-0.11831875980608854]","[-1,-1,-1]","[-0.0841606814682363,-0.16219977751021775]","[-1,-1,-1]","[0.1732233751086176,-0.00033558042615625897]","[-1,-1,-1]","[-0.1075773554582108,0.01508307933030899]","[1,1,1]","[0.06756726891987602,0.14489229633253398]","[1,1,1]","[-0.0002628130824085472,-0.1684600562221341]","[1,1,1]","[-0.14267165429010678,0.13695262680776404]","[1,1,1]","[0.08613779460641341,-0.03855960751662241]","[-1,-1,-1]","[0.08044766875863117,-0.1643839724063523]","[1,1,1]","[0.13854046744043247,0.07075685870998834]","[-1,-1,-1]","[-0.10500493887055073,-0.0880709163823122]","[1,1,1]","[-0.11916248175919274,0.07707902969675899]","[1,1,1]","[0.008454752525402363,-0.11661472508478031]","[1,1,1]","[-0.19106911197896054,0.021902624574399374]","[-1,-1,-1]","[0.11113487374445588,0.13162026781260258]","[-1,-1,-1]","[-0.1772144847410067,-0.03337458254398814]","[1,1,1]","[0.08688917795479056,-0.08533170784417868]","[1,1,1]","[-0.04804272167398371,0.054663620058669204]","[1,1,1]","[0.09242639784254948,0.1767234889749933]","[1,1,1]","[0.024087382374025273,0.13350380861210037]","[-1,-1,-1]","[-0.07589551233858405,-0.0283918552368671]","[-1,-1,-1]","[-0.002988017518217457,0.05941061885678375]","[1,1,1]","[-0.010064581903173029,-0.05537678802364515]","[1,1,1]","[0.0006386484960087693,0.18829788348094456]","[1,1,1]","[-0.07275011091320463,0.10603678052183574]","[-1,-1,-1]","[0.15957028992722677,0.1050954208153316]","[-1,-1,-1]","[-0.03952487648681593,0.1883466075804069]","[-1,-1,-1]","[0.008505266697157511,0.019698693636745687]","[1,1,1]","[0.02806747684474781,-0.01984934301532453]","[1,1,1]","[-0.03195015750311027,-0.11510521539403905]","[1,1,1]","[0.02,0.02]",256.7039,0,28,28,179,1,,,,,,,
,,,,,,,662e3e72d494903379b6956a,682db46bf133c141ae048bf6,2025-05-21_12h10.47.162,cuing_paradigm_dot,2024.1.5,Win32,59.88023952,682d556593cb38ad0a074487,,,,,,,,,,,256.7053,257.2039,,,257.4552,258.9543,,,,,,,,,,,0.45,,,,,,257.204,257.4552,258.9545,"[0.020137082950406688,0.16316878039210175]","[-1,-1,-1]","[-0.08819446058204572,0.0366322724753122]","[-1,-1,-1]","[0.0060601256765914725,0.004123314245116264]","[1,1,1]","[-0.07490873231432912,-0.18310833553486947]","[-1,-1,-1]","[0.0453011187250397,0.06896694497336404]","[-1,-1,-1]","[0.0866928339423012,-0.07822905121088249]","[1,1,1]","[0.13771305943679213,-0.10253111072586928]","[-1,-1,-1]","[-0.07917100657817934,-0.05614675563932525]","[1,1,1]","[0.04251777000773938,-0.10079045224626823]","[1,1,1]","[0.048286014505720315,-0.017415882406220055]","[-1,-1,-1]","[-0.08535973646142127,-0.10487119460612795]","[-1,-1,-1]","[0.1146334183837507,-0.044993460790858995]","[1,1,1]","[-0.08760945482367478,0.08020920415899131]","[-1,-1,-1]","[-0.166640497959113,-0.013223280816768377]","[1,1,1]","[0.09442165970303679,0.14131352338659517]","[1,1,1]","[0.10169456770885185,0.09294524033081158]","[-1,-1,-1]","[0.11092958152982436,-0.15450466076121272]","[-1,-1,-1]","[-0.04909003216351857,0.18879712050944866]","[1,1,1]","[-0.10890320127202534,-0.027824188727461483]","[-1,-1,-1]","[-0.1423688267737227,-0.05298188170413387]","[1,1,1]","[-0.09089597009047869,0.12344855409479276]","[1,1,1]","[-0.17960304784215714,0.03458908005868093]","[1,1,1]","[-0.15441842467838002,0.09839493918589128]","[-1,-1,-1]","[-0.022670458924390697,0.09818762547986978]","[-1,-1,-1]","[0.18951848694513201,-0.02304610995640169]","[-1,-1,-1]","[0.04557930152308965,0.10944898624668666]","[1,1,1]","[-0.05009563388059802,0.052638613735192095]","[-1,-1,-1]","[0.14984989110213603,0.07589389586199818]","[-1,-1,-1]","[0.15278299283908137,0.12325699307840579]","[1,1,1]","[0.13956152712880623,-0.0009709286974556396]","[1,1,1]","[-0.01682659821108733,-0.10971511979605648]","[-1,-1,-1]","[0.057192696679959985,0.17909969494185762]","[-1,-1,-1]","[0.02,0.02]",260.0536,0,29,29,88,1,,,,,,,
,,,,,,,662e3e72d494903379b6956a,682db46bf133c141ae048bf6,2025-05-21_12h10.47.162,cuing_paradigm_dot,2024.1.5,Win32,59.88023952,682d556593cb38ad0a074487,,,,,,,,,,,260.0542,260.5534,,,260.8053,262.0703,left,1.2442,,,,,,,,,0.5,,,,,,260.5534,260.8052,262.0704,"[-0.0966615384670617,0.008178179723916962]","[-1,-1,-1]","[-0.054161122998429526,0.10829571403267951]","[-1,-1,-1]","[0.07635923550633336,-0.14929212465153258]","[1,1,1]","[-0.14598162525346434,-0.045183558532452844]","[-1,-1,-1]","[0.15609578082222064,-0.0989550758407777]","[1,1,1]","[-0.035632785276131534,-0.007373145540561537]","[-1,-1,-1]","[-0.044002766839317524,0.06756944447675244]","[1,1,1]","[-0.01945801137990195,0.17390353933891853]","[1,1,1]","[-0.09931718559894219,-0.09730487377893374]","[-1,-1,-1]","[0.17576168044235294,0.0663552840152466]","[1,1,1]","[0.005728337454883189,-0.11696372300184096]","[-1,-1,-1]","[0.17471662985528927,-0.04803292348945044]","[1,1,1]","[0.18720754159910558,0.027762333203948625]","[1,1,1]","[-0.08147993631524882,0.049276242933214504]","[-1,-1,-1]","[0.09054906304682986,0.15575259315314266]","[1,1,1]","[0.07078144872827072,0.006411856543287034]","[-1,-1,-1]","[0.040038438723653515,0.09033843385789964]","[1,1,1]","[0.11612495735560983,-0.03956812471715797]","[-1,-1,-1]","[0.06630897769514417,0.04921695772611676]","[1,1,1]","[-0.18866060098682516,0.03647372934654135]","[-1,-1,-1]","[0.13469488657621076,0.06957713971457229]","[-1,-1,-1]","[-0.12682920309275197,-0.13297703725820492]","[-1,-1,-1]","[-0.10173201402515165,-0.05010257664647757]","[1,1,1]","[0.021081579117590257,-0.173972073739207]","[1,1,1]","[0.051620526487896105,-0.08870038723931087]","[1,1,1]","[-0.14459074835657965,0.05159890624424431]","[1,1,1]","[0.033242230208542584,0.15253126655659452]","[-1,-1,-1]","[0.008662095402362313,0.03994283394758752]","[-1,-1,-1]","[-0.025372702897986054,-0.1717976408193655]","[1,1,1]","[-0.16048719367062667,0.0920396451623792]","[-1,-1,-1]","[0.016855583591307028,-0.012660826488568786]","[-1,-1,-1]","[-0.09596423143824623,0.10240087958500796]","[1,1,1]","[0.02,0.02]",263.1704,0,30,30,104,1,,,,,,,
,,,,,,,662e3e72d494903379b6956a,682db46bf133c141ae048bf6,2025-05-21_12h10.47.162,cuing_paradigm_dot,2024.1.5,Win32,59.88023952,682d556593cb38ad0a074487,,,,,,,,,,,263.1722,263.6703,,,263.921,264.5868,right,0.6505,,,,,,,,,0.55,,,,,,263.6704,263.9209,264.5869,"[-0.14632267181338793,0.09934256731304786]","[1,1,1]","[-0.04233258584625853,-0.013509422998008388]","[1,1,1]","[0.1871088606267089,-0.03892901886146344]","[-1,-1,-1]","[-0.05979952999135792,0.1633346356304743]","[-1,-1,-1]","[0.1727994752250465,0.023922793409031196]","[-1,-1,-1]","[-0.04273819802188909,-0.17288914511881903]","[1,1,1]","[-0.12173823603358128,0.1407111149029114]","[-1,-1,-1]","[0.027450322224099426,0.02302818564322312]","[1,1,1]","[0.07739341838260858,-0.18151067407108357]","[1,1,1]","[-0.17168465911444078,0.0006082436328250271]","[-1,-1,-1]","[0.054251166592662235,-0.11304018181330332]","[1,1,1]","[0.09250855367540453,-0.10129335988649342]","[-1,-1,-1]","[0.13194782286812762,0.08189840503758651]","[-1,-1,-1]","[0.10688936756803678,0.14748028208726388]","[-1,-1,-1]","[-0.18311939679891723,0.052596861560915385]","[1,1,1]","[-0.14320700138644418,-0.06237250676567921]","[1,1,1]","[0.04085390924007721,0.07675437360674163]","[1,1,1]","[-0.0703382859459776,-0.12152840234335281]","[1,1,1]","[0.010540616115328446,-0.10049205736702532]","[-1,-1,-1]","[-0.08109142371956171,-0.06024617277762687]","[-1,-1,-1]","[-0.11892664800338229,0.026655353171576725]","[1,1,1]","[-0.11773871038103063,-0.09465883118388062]","[1,1,1]","[0.0635088834842386,0.1306626623972055]","[1,1,1]","[-0.04355414014347218,-0.08625881997592419]","[-1,-1,-1]","[0.02174371668928362,0.13960482560957613]","[-1,-1,-1]","[0.03287830029195321,-0.06374295546542302]","[1,1,1]","[-0.01914286649169162,0.12540417505291787]","[1,1,1]","[0.13103694193444193,-0.13421362954787647]","[1,1,1]","[0.17546440138085734,0.0787509968947145]","[-1,-1,-1]","[-0.04762614214142046,0.046763511111176985]","[-1,-1,-1]","[-0.09345081826399024,-0.17397846491198707]","[1,1,1]","[0.0862019347939355,0.006123856673108861]","[1,1,1]","[0.02,0.02]",265.6868,0,31,31,143,1,,,,,,,
,,,,,,,662e3e72d494903379b6956a,682db46bf133c141ae048bf6,2025-05-21_12h10.47.162,cuing_paradigm_dot,2024.1.5,Win32,59.88023952,682d556593cb38ad0a074487,,,,,,,,,,,265.6882,266.1868,,,266.4374,267.4695,left,1.0175,,,,,,,,,0.4,,,,,,266.1869,266.4373,267.4695,"[-0.016727723932514333,-0.12335562217363628]","[1,1,1]","[-0.15977385237382244,-0.0909317264434795]","[1,1,1]","[-0.1180415875041668,0.09047740450938657]","[-1,-1,-1]","[0.062015596298696476,-0.13228416857404834]","[-1,-1,-1]","[0.102213141844467,0.02147760795259434]","[1,1,1]","[-0.06565693110950037,0.0801396996128448]","[-1,-1,-1]","[0.06781402459956883,-0.06133294864849338]","[1,1,1]","[0.16608797736084596,0.012861602718346328]","[-1,-1,-1]","[-0.04601596334138257,0.13902348727382866]","[-1,-1,-1]","[0.02346715288669668,-0.10102776000316396]","[-1,-1,-1]","[0.05952969398251141,0.07167457363593015]","[1,1,1]","[-0.0650101406468338,-0.03205044832407575]","[1,1,1]","[-0.1681078955455051,0.07922376450509486]","[1,1,1]","[0.1896196967934928,0.050982514099189656]","[-1,-1,-1]","[-0.18616327382943432,-0.009349745817770134]","[-1,-1,-1]","[-0.01669756230882584,0.07689312071767036]","[1,1,1]","[0.15659813556116672,0.11499183689583925]","[-1,-1,-1]","[0.03177704497999762,0.006222701669606119]","[1,1,1]","[0.11034891932088063,0.1650163129101487]","[-1,-1,-1]","[-0.023920220934842824,-0.0796463767358886]","[1,1,1]","[-0.11221594770638364,0.03129713754657897]","[-1,-1,-1]","[0.00448863371388903,0.13177025306052736]","[-1,-1,-1]","[-0.05345584760567281,0.18767744353650817]","[-1,-1,-1]","[-0.11285998705244842,-0.1333152555697411]","[1,1,1]","[-0.01905029679829758,-0.03434066042486112]","[-1,-1,-1]","[0.12150298786529048,-0.0983361321828153]","[-1,-1,-1]","[-0.023831572852620452,0.008575982403738278]","[-1,-1,-1]","[0.1147784019123689,-0.14476466628119916]","[-1,-1,-1]","[0.16317691058568656,-0.050145703464490564]","[-1,-1,-1]","[0.03617164521178566,-0.18684709797705726]","[1,1,1]","[0.10355056636961586,0.07204858755716001]","[1,1,1]","[0.1651068343670698,-0.10133135083581725]","[-1,-1,-1]","[0.02,0.02]",268.5693,0,32,32,50,1,,,,,,,
,,,,,,,662e3e72d494903379b6956a,682db46bf133c141ae048bf6,2025-05-21_12h10.47.162,cuing_paradigm_dot,2024.1.5,Win32,59.88023952,682d556593cb38ad0a074487,,,,,,,,,,,268.5697,269.0692,,,269.3195,270.2194,right,0.885,,,,,,,,,0.5,,,,,,269.0692,269.3194,270.2195,"[-0.04710989603559508,0.05443910952595568]","[-1,-1,-1]","[0.016644189461027747,-0.16666290992895447]","[1,1,1]","[-0.08549441649923607,0.17480062581186862]","[-1,-1,-1]","[0.18923273952342512,0.002523470553002461]","[-1,-1,-1]","[-0.12933756334971322,0.09803190401828638]","[1,1,1]","[0.14501720136154378,0.04510382042399739]","[1,1,1]","[-0.012719153519343612,-0.050854087255249265]","[-1,-1,-1]","[0.06427225968610106,-0.14206433362909596]","[-1,-1,-1]","[0.09726360043088945,-0.04937847178067158]","[1,1,1]","[0.08015743070871426,0.1175561787594435]","[1,1,1]","[-0.1260867394650312,0.014833086586479515]","[1,1,1]","[0.11697187398721622,0.09967860726378247]","[1,1,1]","[-0.06590828131546071,0.12390192156528762]","[-1,-1,-1]","[-0.1651125669978454,-0.014243125979422329]","[1,1,1]","[-0.15891020213192078,0.060334483528739546]","[-1,-1,-1]","[-0.0965497780580683,-0.16661866983083964]","[-1,-1,-1]","[-0.0037983141883542815,0.15910071188422964]","[1,1,1]","[-0.0525329702697949,-0.13006899945329783]","[-1,-1,-1]","[-0.13918263227172212,-0.1028462071089172]","[1,1,1]","[0.06167938159220183,-0.009393675239328452]","[-1,-1,-1]","[0.005195797535606635,0.010457669947765999]","[-1,-1,-1]","[0.16923048946173422,-0.04623068709797123]","[-1,-1,-1]","[0.06788727659366739,0.16446692976710467]","[1,1,1]","[0.04861400295313236,0.09256657014635675]","[1,1,1]","[-0.06676739571090254,0.004843902223603215]","[1,1,1]","[0.027788568374237918,-0.11480101922651341]","[-1,-1,-1]","[0.027504574806943082,0.058142043443684684]","[-1,-1,-1]","[-0.10815655386852925,0.13397927952533967]","[1,1,1]","[-0.05648945381845902,-0.0801465863747263]","[1,1,1]","[-0.039777991648283106,-0.19109787342220824]","[-1,-1,-1]","[0.14416416126403128,-0.12232486188681152]","[-1,-1,-1]","[-0.12384148969223364,-0.05820278789160391]","[1,1,1]","[0.02,0.02]",271.3198,0,33,33,97,1,,,,,,,
,,,,,,,662e3e72d494903379b6956a,682db46bf133c141ae048bf6,2025-05-21_12h10.47.162,cuing_paradigm_dot,2024.1.5,Win32,59.88023952,682d556593cb38ad0a074487,,,,,,,,,,,271.3206,271.8193,,,272.0701,273.304,right,1.2191,,,,,,,,,0.55,,,,,,271.8194,272.0701,273.3041,"[-0.025303216059358924,-0.15092753606316528]","[-1,-1,-1]","[-0.09948540604970042,-0.03927842535791117]","[1,1,1]","[0.03201875681195746,0.07314647861231827]","[-1,-1,-1]","[0.11721203573985065,0.11472759085189875]","[-1,-1,-1]","[-0.17309492094207202,-0.006677766761806148]","[-1,-1,-1]","[0.01391169723275634,-0.06532761778637232]","[-1,-1,-1]","[0.11151709844273265,0.16191614731197798]","[-1,-1,-1]","[0.034638416667382994,-0.014085408776284567]","[1,1,1]","[0.18869397920009348,0.04389823439190138]","[1,1,1]","[-0.062447319262972534,-0.01010595709300153]","[-1,-1,-1]","[0.11444449152694908,-0.02597548067584668]","[1,1,1]","[0.09783220336775265,-0.07538367756424712]","[-1,-1,-1]","[-0.018028700919958947,0.07176167275656273]","[1,1,1]","[-0.13562180966935705,-0.13690397625857187]","[1,1,1]","[-0.17577344176804907,0.07263935005173572]","[1,1,1]","[-0.020859311887949053,-0.10141778632598805]","[-1,-1,-1]","[0.1677660482504281,-0.03447512919137466]","[1,1,1]","[-0.17364725661989938,-0.06781144129952164]","[1,1,1]","[-0.08312757561418634,-0.08977397108030612]","[1,1,1]","[-0.05473170414681925,-0.18333352635815817]","[-1,-1,-1]","[0.04439393265343582,-0.1652064194173378]","[1,1,1]","[0.05331352218700176,-0.10941959676291264]","[1,1,1]","[0.07425769100636308,0.12184938258675289]","[1,1,1]","[-0.03165703327801588,0.1691954481231376]","[1,1,1]","[-0.1026385002304208,0.10511981682519429]","[-1,-1,-1]","[-0.09140807994101496,0.05913639576791062]","[-1,-1,-1]","[0.1186398708984848,0.04160793853871426]","[1,1,1]","[0.12703471052956744,-0.11678275183275798]","[1,1,1]","[-0.01804907944782063,0.1218968469966192]","[1,1,1]","[-0.05822435985127823,0.13540771940020782]","[-1,-1,-1]","[0.15813265333623094,-0.07476137635098895]","[1,1,1]","[-0.14659550616077577,0.11650213894680432]","[-1,-1,-1]","[0.02,0.02]",274.4025,0,34,34,148,1,,,,,,,
,,,,,,,662e3e72d494903379b6956a,682db46bf133c141ae048bf6,2025-05-21_12h10.47.162,cuing_paradigm_dot,2024.1.5,Win32,59.88023952,682d556593cb38ad0a074487,,,,,,,,,,,274.4034,274.9025,,,275.1537,276.3195,left,1.1512,,,,,,,,,0.4,,,,,,274.9026,275.1537,276.3195,"[0.13348472152770516,-0.016683546930573112]","[1,1,1]","[-0.04410422103666281,-0.13166495800855338]","[-1,-1,-1]","[0.021419346066795453,0.056285676075254955]","[1,1,1]","[0.04157972191964507,-0.03410302513572662]","[1,1,1]","[-0.12923183170858182,0.008276646502972586]","[-1,-1,-1]","[0.10131967835670308,-0.10492646689770667]","[-1,-1,-1]","[0.008270492223550896,-0.19036531124523587]","[1,1,1]","[0.1297446879019417,0.07727952253131064]","[-1,-1,-1]","[-0.05679464007396703,0.0763272939531039]","[-1,-1,-1]","[-0.015272601473836987,0.1987149030859477]","[-1,-1,-1]","[-0.06382156635815758,0.14354171232050725]","[1,1,1]","[0.07286983197817516,0.06957300992279104]","[1,1,1]","[0.015497175891502953,-0.09864232509991476]","[-1,-1,-1]","[-0.13706345785223376,-0.04808589224477225]","[-1,-1,-1]","[0.018901529682157067,0.004279941103757095]","[-1,-1,-1]","[0.19386690689967948,0.047871675459624896]","[-1,-1,-1]","[-0.09254528004548578,-0.16037805024734467]","[1,1,1]","[-0.10931762125922774,0.15653887430281496]","[1,1,1]","[-0.13395996712710917,0.11153897803927931]","[-1,-1,-1]","[0.07522418960199867,-0.1397876659697006]","[-1,-1,-1]","[-0.17560196940022205,-0.07770447901554146]","[-1,-1,-1]","[0.0682228481561437,0.18771053876538957]","[-1,-1,-1]","[-0.028665636317888158,-0.07421142310741445]","[1,1,1]","[0.14091252333156035,0.1398404635975542]","[-1,-1,-1]","[-0.13693098683249202,-0.11261055519355434]","[1,1,1]","[0.04906479729392547,0.13232246859189964]","[-1,-1,-1]","[-0.06426890713157349,0.015981160871770407]","[-1,-1,-1]","[0.11963129676104908,0.02430285945289521]","[1,1,1]","[-0.185624107955545,-0.03743245931565701]","[1,1,1]","[-0.15128384627774827,0.07465275857129113]","[-1,-1,-1]","[0.08833296215736226,-0.043626405837721496]","[-1,-1,-1]","[0.01107453491356735,0.10169223056616995]","[1,1,1]","[0.02,0.02]",277.4191,0,35,35,57,1,,,,,,,
,,,,,,,662e3e72d494903379b6956a,682db46bf133c141ae048bf6,2025-05-21_12h10.47.162,cuing_paradigm_dot,2024.1.5,Win32,59.88023952,682d556593cb38ad0a074487,,,,,,,,,,,277.4199,277.9193,,,278.1703,279.3859,left,1.2048,,,,,,,,,0.55,,,,,,277.9194,278.1702,279.3861,"[0.1323350799646408,0.034369532833304905]","[1,1,1]","[0.012617143311477206,-0.10988481029912356]","[1,1,1]","[0.05131470129528616,0.033050129293252135]","[1,1,1]","[-0.10569475222136418,0.10849445100499354]","[1,1,1]","[0.02100433327014106,0.17687797316561316]","[-1,-1,-1]","[-0.0407849452950848,0.03132453784861605]","[-1,-1,-1]","[0.055530679009143206,0.08239348417092197]","[1,1,1]","[0.06653821107556328,-0.14610570517523946]","[1,1,1]","[-0.08041125267551934,0.05011969552135543]","[-1,-1,-1]","[0.10671700271272931,-0.13241682357917126]","[-1,-1,-1]","[-0.18322180569864144,0.028796030462932512]","[-1,-1,-1]","[-0.1304077472057557,-0.12286886112943651]","[1,1,1]","[0.05909459496772299,-0.09483550328050833]","[1,1,1]","[-0.17087641217953672,-0.026443377852274852]","[1,1,1]","[-0.0024703041646378264,0.012999373396252518]","[-1,-1,-1]","[0.18204229760889237,0.017896924776010428]","[-1,-1,-1]","[0.03803319029260996,-0.18669092658710887]","[-1,-1,-1]","[0.028082527506212384,-0.056539382600755216]","[1,1,1]","[0.17368546868753182,-0.07743727469571876]","[-1,-1,-1]","[0.1054949011524424,-0.05800574038647658]","[-1,-1,-1]","[-0.07412940869800995,0.13704324036718696]","[-1,-1,-1]","[0.14767588049321276,0.1259624578036811]","[-1,-1,-1]","[-0.04786958204100967,-0.07888834249214742]","[-1,-1,-1]","[-0.08425661420738745,-0.049841261852780275]","[-1,-1,-1]","[-0.023659625312505626,0.1067960722698159]","[1,1,1]","[-0.07159288639588472,0.18430937584267645]","[1,1,1]","[-0.09521297592439536,-0.14612555433409893]","[1,1,1]","[-0.13553996380992137,-0.06894371766914394]","[1,1,1]","[0.06849333416920098,0.1633002130623607]","[1,1,1]","[-0.08423252045919068,-0.10479040287001047]","[1,1,1]","[0.09361843450970153,0.0019322860368548441]","[1,1,1]","[0.14913867681692275,-0.005614219479316611]","[1,1,1]","[0.02,0.02]",280.4854,0,36,36,136,1,,,,,,,
,,,,,,,662e3e72d494903379b6956a,682db46bf133c141ae048bf6,2025-05-21_12h10.47.162,cuing_paradigm_dot,2024.1.5,Win32,59.88023952,682d556593cb38ad0a074487,,,,,,,,,,,280.4865,280.9857,,,281.2371,281.9022,right,0.6477,,,,,,,,,0.9,,,,,,280.9859,281.2371,281.9024,"[-0.08448054541439641,0.017798028286519815]","[1,1,1]","[-0.019402687886195865,0.06360533745093973]","[1,1,1]","[-0.10969784136646381,-0.1329783162748484]","[1,1,1]","[-0.04506472120046785,-0.13321263382261442]","[1,1,1]","[0.09679946136889458,0.1347744809630431]","[1,1,1]","[0.04301619783461704,0.007745688439066524]","[1,1,1]","[0.08348261810277399,-0.15763896266298005]","[1,1,1]","[0.07308294695018902,-0.040555557643295666]","[1,1,1]","[0.07297993638753446,0.07863728181584959]","[1,1,1]","[0.025723709041705067,0.0836655030959578]","[1,1,1]","[-0.04274862158663546,-0.00401527292831697]","[-1,-1,-1]","[0.1952237809260913,-0.03315559277171211]","[1,1,1]","[-0.07423585101930859,0.15382922906895333]","[1,1,1]","[0.15224504692776394,0.04984522450849659]","[1,1,1]","[-0.16812294053301005,-0.04368251984291708]","[1,1,1]","[0.04875977058601818,-0.08917737500371688]","[1,1,1]","[0.1450528005299288,-0.07948034998246002]","[1,1,1]","[-0.12787999954171833,0.10472409218972412]","[1,1,1]","[-0.1473616193247535,-0.1172578057459734]","[1,1,1]","[0.034633420583213795,0.13556935459274394]","[1,1,1]","[0.08713749774975423,-0.10412174557802141]","[1,1,1]","[-0.01885174220504787,0.1807017641174956]","[-1,-1,-1]","[0.10300699339449865,0.039734210077616225]","[1,1,1]","[0.18679891432947818,0.006750649598794009]","[1,1,1]","[-0.13453665028283646,0.06445604979204952]","[1,1,1]","[-0.09938427247724234,-0.0358359736789551]","[-1,-1,-1]","[-0.021307752878210198,0.12916842650019225]","[1,1,1]","[-0.13567139980647588,0.14457553768604017]","[1,1,1]","[0.06415297153461268,0.18126454444890727]","[1,1,1]","[0.01866615076385119,-0.02978686644917467]","[1,1,1]","[-0.0060198711714657205,-0.0693572180622652]","[1,1,1]","[-0.17330686247066565,0.028648953870510255]","[1,1,1]","[0.02,0.02]",283.0025,0,37,37,200,1,,,,,,,
,,,,,,,662e3e72d494903379b6956a,682db46bf133c141ae048bf6,2025-05-21_12h10.47.162,cuing_paradigm_dot,2024.1.5,Win32,59.88023952,682d556593cb38ad0a074487,,,,,,,,,,,283.0035,283.5022,,,283.753,285.1519,right,1.3865,,,,,,,,,0.6,,,,,,283.5024,283.7529,285.152,"[0.025489905934338874,-0.09295557885160653]","[-1,-1,-1]","[-0.024539865734468976,-0.18442509669668117]","[-1,-1,-1]","[-0.1535718132241664,-0.03342971855990655]","[-1,-1,-1]","[0.14820920447398467,-0.06450386631845054]","[-1,-1,-1]","[0.17201329093631548,-0.004340822107770199]","[-1,-1,-1]","[0.006904865565048869,0.18151006704070424]","[1,1,1]","[-0.06167391142694529,-0.07911560623125605]","[-1,-1,-1]","[0.06111636655121264,0.02536456439617975]","[-1,-1,-1]","[0.043850547990292546,-0.04167393499480623]","[1,1,1]","[0.051480960030369095,0.12199494910971104]","[1,1,1]","[-0.10272752490471039,0.15376612423632355]","[1,1,1]","[0.14409009511188972,-0.12305911035246969]","[1,1,1]","[-0.13264373747958733,-0.11439705067900453]","[-1,-1,-1]","[-0.07625875015837953,-0.12198393225769104]","[1,1,1]","[-0.007619625325288174,-0.042583132941039284]","[1,1,1]","[0.10890596183218607,-0.08597208511592991]","[1,1,1]","[-0.04420486098141603,0.11275051044617657]","[-1,-1,-1]","[0.004595334051278108,0.009849828215088613]","[1,1,1]","[-0.07017417221620405,-0.03759090416014212]","[1,1,1]","[0.11690583292082606,0.15019130800025943]","[1,1,1]","[0.010469044651634951,-0.15319184781432713]","[1,1,1]","[-0.0660058171407286,-0.16373648267054577]","[1,1,1]","[0.03130151987525713,0.06014648270785164]","[1,1,1]","[-0.04321722890885432,0.16776985361193272]","[1,1,1]","[0.15770282288379023,0.0355875863416908]","[1,1,1]","[-0.19114964683470664,0.008628083607499181]","[1,1,1]","[-0.03187701639520716,-0.13088998005451252]","[-1,-1,-1]","[0.06703106336179396,0.18260861211547]","[1,1,1]","[-0.052743180033772805,0.04473627486804768]","[-1,-1,-1]","[0.1151261671005989,-0.16271633906418279]","[-1,-1,-1]","[0.00987098635254721,0.13393685860432988]","[-1,-1,-1]","[-0.11658480152216748,-0.06963576300449115]","[1,1,1]","[0.02,0.02]",286.2521,0,38,38,161,1,,,,,,,
,,,,,,,662e3e72d494903379b6956a,682db46bf133c141ae048bf6,2025-05-21_12h10.47.162,cuing_paradigm_dot,2024.1.5,Win32,59.88023952,682d556593cb38ad0a074487,,,,,,,,,,,286.2534,286.752,,,287.003,287.5358,right,0.5165,,,,,,,,,0.6,,,,,,286.7521,287.0028,287.536,"[0.15452005338914232,-0.08243881105339214]","[1,1,1]","[0.006427677481805618,0.16406612032321444]","[-1,-1,-1]","[-0.058765921054432256,-0.08458574112308408]","[1,1,1]","[-0.07132317669012962,-0.0007092043571608215]","[1,1,1]","[-0.0838922209189459,-0.15756250193875845]","[1,1,1]","[-0.07822452150924802,0.18321113362188488]","[-1,-1,-1]","[0.1131710397590145,0.10458620018716432]","[1,1,1]","[-0.04232701939140157,-0.04513318211312783]","[-1,-1,-1]","[-0.02746388362157344,-0.14214481346995134]","[-1,-1,-1]","[-0.08772624351497656,-0.11389121837450207]","[-1,-1,-1]","[-0.19040124135278277,-0.015202205877835034]","[-1,-1,-1]","[-0.13263434681779848,0.04557882853059958]","[1,1,1]","[0.1541537395079122,-0.12653438904867473]","[-1,-1,-1]","[0.09342955980685808,0.062185257589452286]","[-1,-1,-1]","[0.014327002343289255,-0.022637457581186852]","[1,1,1]","[-0.030996036088730482,-0.0051425352274017105]","[1,1,1]","[0.023458914671695072,-0.06483977922503521]","[1,1,1]","[-0.1258397917570148,-0.09280566159797479]","[1,1,1]","[-0.14151312989646736,-0.009739728877872575]","[-1,-1,-1]","[-0.0003144452715812301,0.05892942906672971]","[1,1,1]","[0.06849547520226264,0.11980963227121484]","[-1,-1,-1]","[-0.15789168082545751,-0.06332003657891713]","[1,1,1]","[-0.04404991476008014,-0.17902314625314172]","[-1,-1,-1]","[0.1693233840166178,-0.029252613642876995]","[1,1,1]","[0.04316007808641825,0.014714761299919096]","[1,1,1]","[0.16907692871648267,0.07160918223487028]","[1,1,1]","[-0.0864932646731545,0.09039032740708194]","[-1,-1,-1]","[-0.054523686146489204,0.13214451480759798]","[1,1,1]","[0.10455309091816088,-0.010422815746368134]","[1,1,1]","[0.19935645032098429,-0.0008269824193116577]","[1,1,1]","[0.11205591735825227,-0.11249406417829191]","[-1,-1,-1]","[0.015785965014289194,0.1150520788417101]","[1,1,1]","[0.02,0.02]",288.6353,0,39,39,177,1,,,,,,,
,,,,,,,662e3e72d494903379b6956a,682db46bf133c141ae048bf6,2025-05-21_12h10.47.162,cuing_paradigm_dot,2024.1.5,Win32,59.88023952,682d556593cb38ad0a074487,,,,,,,,,,,288.6367,289.1352,,,289.3856,289.9355,right,0.5355,,,,,,,,,0.9,,,,,,289.1352,289.3855,289.9356,"[-0.05355913014062178,-0.03222260575924287]","[1,1,1]","[0.03085534361816367,0.19723947621410323]","[1,1,1]","[0.022443131544712225,0.0275971350568232]","[1,1,1]","[-0.08190891018297808,0.14095453701586055]","[1,1,1]","[-0.15771657288125873,-0.05593819196067167]","[1,1,1]","[0.10393315771116542,0.059330474527898434]","[1,1,1]","[0.12989667305875166,-0.12590323283956129]","[-1,-1,-1]","[0.13159049496578207,0.11725466665625654]","[1,1,1]","[0.032011180019316805,0.09700982719150907]","[1,1,1]","[0.018160385514988924,-0.10446029744603266]","[1,1,1]","[0.08884614850361147,-0.0809420395598791]","[1,1,1]","[-0.10655075925115831,-0.1548565524446513]","[1,1,1]","[-0.16789013930197355,0.10239183575905432]","[1,1,1]","[-0.02965026014706839,0.02617770413666055]","[1,1,1]","[-0.0076995383540230345,0.16637409914568027]","[1,1,1]","[0.05115171028779023,-0.031149099465156385]","[1,1,1]","[0.08017341982520657,0.0003029439806509351]","[1,1,1]","[-0.13387681469243193,0.014079796890553317]","[1,1,1]","[-0.040736896740577525,-0.16083177309697164]","[1,1,1]","[-0.08407692197628308,0.009610247989396173]","[1,1,1]","[-0.11027418288787154,0.06847651389201058]","[-1,-1,-1]","[-0.09428936792939613,-0.09665677355640322]","[-1,-1,-1]","[0.12568326550058007,0.01519378758270554]","[1,1,1]","[-0.00678342467455112,-0.03423545217867209]","[1,1,1]","[-0.15943739747116095,0.06210421510843517]","[1,1,1]","[0.005203679700571164,0.06636265053690214]","[1,1,1]","[0.060172809403142055,-0.1728214196824784]","[1,1,1]","[0.09403883208600006,0.13433805196409385]","[1,1,1]","[0.06983466894663894,0.17328110142754188]","[1,1,1]","[0.004078142314608849,-0.17960677356943594]","[1,1,1]","[-0.028940175879889618,-0.10359063882842172]","[1,1,1]","[0.15934029178149747,-0.09754942132003616]","[1,1,1]","[0.02,0.02]",291.0347,0,40,40,185,1,,,,,,,
,,,,,,,662e3e72d494903379b6956a,682db46bf133c141ae048bf6,2025-05-21_12h10.47.162,cuing_paradigm_dot,2024.1.5,Win32,59.88023952,682d556593cb38ad0a074487,,,,,,,,,,,291.0356,291.5343,,,291.7847,292.9176,right,1.1172,,,,,,,,,0.5,,,,,,291.5343,291.7847,292.9176,"[0.031235664492651333,-0.18550038628243368]","[1,1,1]","[0.08912978154507663,-0.11438764130997163]","[1,1,1]","[0.07501909227754103,0.18170970630280098]","[1,1,1]","[0.12959197952156065,0.12230116764617512]","[-1,-1,-1]","[-0.048126088185402316,-0.049951346009032255]","[1,1,1]","[-0.04556733242079447,-0.1349447243277049]","[-1,-1,-1]","[-0.045992919858657395,0.05628895162566763]","[-1,-1,-1]","[0.08353101395839226,-0.043061316714713534]","[-1,-1,-1]","[-0.10830611481844954,0.07481859677118445]","[-1,-1,-1]","[0.07817364761633955,-0.0033178706161058292]","[-1,-1,-1]","[-0.013748951613070567,0.008137591912336949]","[1,1,1]","[-0.09855363087622245,-0.0662309447353788]","[-1,-1,-1]","[-0.16971610040954968,-0.10453687606385083]","[1,1,1]","[-0.009562835723285649,0.17964273513634563]","[1,1,1]","[-0.005371271839997595,0.0995865451517849]","[1,1,1]","[0.042955728125942304,0.0809981372090083]","[-1,-1,-1]","[-0.09313263890976195,0.12117004980106089]","[-1,-1,-1]","[0.03254937030375908,-0.002919634225563175]","[1,1,1]","[0.19492560056996658,0.002641639242099005]","[1,1,1]","[-0.10722271297917947,-0.13134488848495027]","[1,1,1]","[-0.1217217623710196,0.0063271865970655075]","[1,1,1]","[0.18634428412211942,-0.039755124293320857]","[-1,-1,-1]","[0.12605515256427258,-0.08048390997403437]","[1,1,1]","[-0.07520250073878212,-0.012793295931787685]","[-1,-1,-1]","[0.09663000639961725,-0.15967171984007333]","[-1,-1,-1]","[-0.1466191480627597,-0.038129100377773416]","[-1,-1,-1]","[0.04107469347966973,-0.05181679248280181]","[-1,-1,-1]","[0.13878259411679375,0.06613223711243602]","[1,1,1]","[0.014383417171252676,-0.14150970801887605]","[-1,-1,-1]","[0.13039967984497877,-0.038150856541357275]","[1,1,1]","[-0.03747970991801276,0.1310546393517278]","[-1,-1,-1]","[-0.07548314106918046,0.0280650727173278]","[1,1,1]","[0.02,0.02]",294.0181,0,41,41,90,1,,,,,,,
,,,,,,,662e3e72d494903379b6956a,682db46bf133c141ae048bf6,2025-05-21_12h10.47.162,cuing_paradigm_dot,2024.1.5,Win32,59.88023952,682d556593cb38ad0a074487,,,,,,,,,,,294.0191,294.518,,,294.7684,295.335,right,0.5544,,,,,,,,,0.9,,,,,,294.5181,294.7684,295.3352,"[0.02540021911600973,-0.19754341070013987]","[1,1,1]","[0.1561578062107547,0.08962633970787948]","[1,1,1]","[0.04366444789123138,0.10476692682684233]","[1,1,1]","[0.12694326854143065,-0.11505725877214752]","[1,1,1]","[-0.1055374939963743,-0.09490679960541909]","[-1,-1,-1]","[0.17383749211025282,0.02362472899988091]","[1,1,1]","[-0.1253657302582656,0.10097218353936446]","[1,1,1]","[0.07618661913671569,0.0163079798054142]","[1,1,1]","[0.01732761549631872,-0.12476540661406874]","[1,1,1]","[0.004550711693651407,0.19296156386920965]","[1,1,1]","[0.17210014927416453,-0.017755840123025314]","[1,1,1]","[0.1438708060894928,-0.07144410861202004]","[1,1,1]","[-0.08168753288990498,0.17765541966254866]","[1,1,1]","[0.001706480035629331,-0.08571637813810404]","[1,1,1]","[0.09970412390529519,0.0757966040717535]","[1,1,1]","[-0.06422883888612728,-0.02050724264016756]","[1,1,1]","[-0.0816319702802661,-0.15582228446434682]","[1,1,1]","[-0.06840385324529283,0.0924608080462668]","[1,1,1]","[-0.1701233617196655,-0.057854273513829456]","[1,1,1]","[-0.03077722102609035,-0.05865281478117663]","[1,1,1]","[-0.050049909845883735,0.15138582857684604]","[1,1,1]","[0.07956875814667165,-0.12669104799000896]","[-1,-1,-1]","[0.03266662123928855,0.03879125172436555]","[1,1,1]","[-0.10598194607324754,0.04095809513593475]","[1,1,1]","[-0.18637865537823453,0.015286466531398426]","[1,1,1]","[0.07097438122979342,-0.08640802258204143]","[1,1,1]","[-0.10359028374249878,-0.007621318409100272]","[1,1,1]","[0.0011857841834814586,0.013111265665264814]","[1,1,1]","[-0.02802960653417084,0.04893090724525134]","[1,1,1]","[0.032882849426799206,-0.024150054751189757]","[-1,-1,-1]","[0.11589801086400624,0.14725231620932452]","[1,1,1]","[0.10812688181804411,-0.1614532369860988]","[1,1,1]","[0.02,0.02]",296.4346,0,42,42,191,1,,,,,,,
,,,,,,,662e3e72d494903379b6956a,682db46bf133c141ae048bf6,2025-05-21_12h10.47.162,cuing_paradigm_dot,2024.1.5,Win32,59.88023952,682d556593cb38ad0a074487,,,,,,,,,,,296.436,296.9344,,,297.1859,298.6849,,,,,,,,,,,0.5,,,,,,296.9344,297.1859,298.685,"[0.11386109437009795,-0.12958951379389802]","[-1,-1,-1]","[0.036281590951260566,0.16748218324766273]","[-1,-1,-1]","[-0.13149202678152347,-0.07505081999468693]","[-1,-1,-1]","[-0.1533030821354277,0.07253544836278625]","[1,1,1]","[-0.012232539930660542,0.006561559117452945]","[-1,-1,-1]","[-0.038313105808723304,-0.07431767587787778]","[1,1,1]","[-0.007040530208322182,0.08090103161044383]","[1,1,1]","[0.04019540904358149,0.12578360563844285]","[1,1,1]","[0.02655063650265676,-0.024938552989675452]","[-1,-1,-1]","[0.0366587390236198,-0.10463273909990553]","[1,1,1]","[0.08123706280143948,-0.06647491925300564]","[1,1,1]","[-0.10871541014374456,0.06016228699282055]","[1,1,1]","[-0.046729396162969734,-0.12078257625560337]","[-1,-1,-1]","[0.010108884273941956,-0.16583764756259964]","[1,1,1]","[0.11955371314594594,-0.007410257549896226]","[1,1,1]","[-0.15552782180106542,0.12236443539816239]","[1,1,1]","[-0.0015986289224176541,-0.11767974873057938]","[-1,-1,-1]","[-0.15885629622794956,0.009713658515880562]","[1,1,1]","[0.09061153521228422,0.05996437082944002]","[-1,-1,-1]","[0.13691768844024158,0.0380882155310144]","[-1,-1,-1]","[-0.09191444234131983,-0.10608680653399702]","[1,1,1]","[0.11464976352995239,0.1128017437827398]","[1,1,1]","[-0.05459979767758699,0.11841640051914538]","[-1,-1,-1]","[-0.02250995889909736,0.17147447267463994]","[1,1,1]","[-0.12404522096262592,0.1550738934852592]","[-1,-1,-1]","[0.18194126219160178,0.03538705413003996]","[-1,-1,-1]","[-0.11910261762096658,-0.1529138549182456]","[-1,-1,-1]","[0.14708501057692072,-0.07086366661943368]","[-1,-1,-1]","[0.07548972220030431,0.15667595279047491]","[-1,-1,-1]","[-0.1661393537591268,-0.03015277724341589]","[1,1,1]","[0.05453635985103459,0.03620936427194265]","[-1,-1,-1]","[0.1714747448821193,0.10035154147613244]","[1,1,1]","[0.02,0.02]",299.7851,0,43,43,95,1,,,,,,,
,,,,,,,662e3e72d494903379b6956a,682db46bf133c141ae048bf6,2025-05-21_12h10.47.162,cuing_paradigm_dot,2024.1.5,Win32,59.88023952,682d556593cb38ad0a074487,,,,,,,,,,,299.7872,300.2854,,,300.5346,301.268,left,0.7183,,,,,,,,,0.4,,,,,,300.2856,300.5345,301.2681,"[0.10908105923962128,-0.03650551804333794]","[1,1,1]","[-0.056142253618123715,-0.12343235147964454]","[1,1,1]","[0.016373944068430155,-0.19507009210905524]","[1,1,1]","[0.07631955227243258,0.006021278641381049]","[-1,-1,-1]","[-0.08634034716251163,0.036924365429100096]","[-1,-1,-1]","[-0.12573716768852566,0.14810113433054217]","[-1,-1,-1]","[0.03602548057752385,-0.06555836443122348]","[-1,-1,-1]","[0.010976679875546519,-0.11417109044221109]","[-1,-1,-1]","[0.023360947692250805,0.116724817266859]","[-1,-1,-1]","[0.17014353911331198,-0.08616646874382282]","[-1,-1,-1]","[-0.02206675048326805,-0.02806024665893915]","[-1,-1,-1]","[0.06774416201732729,0.0824946772581779]","[-1,-1,-1]","[-0.14139117170790558,0.08161561411557634]","[-1,-1,-1]","[-0.06927893944910787,-0.07952640263830381]","[-1,-1,-1]","[0.0954655572974471,-0.170360612868956]","[-1,-1,-1]","[0.1325903527962396,0.07953186434394079]","[1,1,1]","[0.05320299782459417,-0.13590150174935048]","[-1,-1,-1]","[-0.19321573437499517,-0.042868245394291786]","[-1,-1,-1]","[-0.1436083627053896,-0.061212144172053805]","[1,1,1]","[-0.13166978283445566,-0.12889212044710838]","[-1,-1,-1]","[0.09800278958230241,0.1447316542518158]","[1,1,1]","[-0.17686119315073606,0.004317101630835048]","[-1,-1,-1]","[0.16861670262640344,0.05724606773555098]","[1,1,1]","[-0.025947777224502075,0.0787575908479151]","[-1,-1,-1]","[-0.050252568006012806,0.15318471875478235]","[1,1,1]","[-0.12932290678331074,-0.023674217504432736]","[1,1,1]","[0.005327840568729213,0.009039590437468601]","[-1,-1,-1]","[-0.05704178981218408,0.008085473612009902]","[-1,-1,-1]","[0.021053862943143126,0.16355013910578403]","[1,1,1]","[-0.026359947429185886,-0.07701549200617816]","[1,1,1]","[-0.0342783148949599,-0.1884748677916897]","[1,1,1]","[-0.054772097951997493,0.1118520077795435]","[1,1,1]","[0.02,0.02]",302.3675,0,44,44,30,1,,,,,,,
