right,left,explain.started,explain.stopped,key_resp_3.keys,key_resp_3.rt,key_resp_3.duration,participant,session,date,expName,psychopyVersion,OS,frameRate,study_id,explain_2.started,explain_2.stopped,key_resp_4.keys,key_resp_4.rt,key_resp_4.duration,explain_3.started,explain_3.stopped,key_resp_5.keys,key_resp_5.rt,key_resp_5.duration,fixation.started,fixation.stopped,practice.started,practice.stopped,response.started,response.stopped,key_resp.keys,key_resp.rt,key_resp.duration,feedback.started,feedback.stopped,trials_2.thisRepN,trials_2.thisTrialN,trials_2.thisN,trials_2.thisIndex,trials_2.ran,white_ratio,explain_4.started,explain_4.stopped,key_resp_6.keys,key_resp_6.rt,key_resp_6.duration,dotDisplay.started,dotDisplay.stopped,ITI.started,polygon_1.pos,polygon_1.color,polygon_2.pos,polygon_2.color,polygon_3.pos,polygon_3.color,polygon_4.pos,polygon_4.color,polygon_5.pos,polygon_5.color,polygon_6.pos,polygon_6.color,polygon_7.pos,polygon_7.color,polygon_8.pos,polygon_8.color,polygon_9.pos,polygon_9.color,polygon_10.pos,polygon_10.color,polygon_11.pos,polygon_11.color,polygon_12.pos,polygon_12.color,polygon_13.pos,polygon_13.color,polygon_14.pos,polygon_14.color,polygon_15.pos,polygon_15.color,polygon_16.pos,polygon_16.color,polygon_17.pos,polygon_17.color,polygon_18.pos,polygon_18.color,polygon_19.pos,polygon_19.color,polygon_20.pos,polygon_20.color,polygon_21.pos,polygon_21.color,polygon_22.pos,polygon_22.color,polygon_23.pos,polygon_23.color,polygon_24.pos,polygon_24.color,polygon_25.pos,polygon_25.color,polygon_26.pos,polygon_26.color,polygon_27.pos,polygon_27.color,polygon_28.pos,polygon_28.color,polygon_29.pos,polygon_29.color,polygon_30.pos,polygon_30.color,polygon_31.pos,polygon_31.color,polygon_32.pos,polygon_32.color,dot_size,ITI.stopped,trials.thisRepN,trials.thisTrialN,trials.thisN,trials.thisIndex,trials.ran,break_2.started,break_2.stopped,trials_3.thisRepN,trials_3.thisTrialN,trials_3.thisN,trials_3.thisIndex,trials_3.ran
subject chose white,subject chose black,0.0005,1263.1245,space,1248.1011,,6630ec10efe9f6624eb24482,682db3a42fc17d186799f38d,2025-05-21_13h06.31.300,cuing_paradigm_dot,2024.1.5,Win32,59.88023952,682d556593cb38ad0a074487,,,,,,,,,,,,,,,,,,,,,,,,,,,,,,,,,,,,,,,,,,,,,,,,,,,,,,,,,,,,,,,,,,,,,,,,,,,,,,,,,,,,,,,,,,,,,,,,,,,,,,,,,,,,,,,,,
,,,,,,,6630ec10efe9f6624eb24482,682db3a42fc17d186799f38d,2025-05-21_13h06.31.300,cuing_paradigm_dot,2024.1.5,Win32,59.88023952,682d556593cb38ad0a074487,1263.125,1293.8604,space,0.7289,,,,,,,,,,,,,,,,,,,,,,,,,,,,,,,,,,,,,,,,,,,,,,,,,,,,,,,,,,,,,,,,,,,,,,,,,,,,,,,,,,,,,,,,,,,,,,,,,,,,,,,,,,,,,
,,,,,,,6630ec10efe9f6624eb24482,682db3a42fc17d186799f38d,2025-05-21_13h06.31.300,cuing_paradigm_dot,2024.1.5,Win32,59.88023952,682d556593cb38ad0a074487,,,,,,1293.861,1297.6272,space,0.7366,,,,,,,,,,,,,,,,,,,,,,,,,,,,,,,,,,,,,,,,,,,,,,,,,,,,,,,,,,,,,,,,,,,,,,,,,,,,,,,,,,,,,,,,,,,,,,,,,,,,,,,,
,,,,,,,6630ec10efe9f6624eb24482,682db3a42fc17d186799f38d,2025-05-21_13h06.31.300,cuing_paradigm_dot,2024.1.5,Win32,59.88023952,682d556593cb38ad0a074487,,,,,,,,,,,1297.6736,1298.1424,1298.1429,1298.3792,1298.3794,1299.1088,right,0.6814,,1299.109,1300.2089,0,0,0,0,1,0.8,,,,,,,,,,,,,,,,,,,,,,,,,,,,,,,,,,,,,,,,,,,,,,,,,,,,,,,,,,,,,,,,,,,,,,,,,,,,,,,,,,,,,,
,,,,,,,6630ec10efe9f6624eb24482,682db3a42fc17d186799f38d,2025-05-21_13h06.31.300,cuing_paradigm_dot,2024.1.5,Win32,59.88023952,682d556593cb38ad0a074487,,,,,,,,,,,1300.2095,1300.708,1300.708,1300.9584,1300.9584,1301.4079,left,0.4381,,1301.4081,1302.5081,0,1,1,1,1,0.2,,,,,,,,,,,,,,,,,,,,,,,,,,,,,,,,,,,,,,,,,,,,,,,,,,,,,,,,,,,,,,,,,,,,,,,,,,,,,,,,,,,,,,
,,,,,,,6630ec10efe9f6624eb24482,682db3a42fc17d186799f38d,2025-05-21_13h06.31.300,cuing_paradigm_dot,2024.1.5,Win32,59.88023952,682d556593cb38ad0a074487,,,,,,,,,,,,,,,,,,,,,,,,,,,,1302.5086,1306.6077,space,1.0765,,,,,,,,,,,,,,,,,,,,,,,,,,,,,,,,,,,,,,,,,,,,,,,,,,,,,,,,,,,,,,,,,,,,,,,,,,,,,,,,,,
,,,,,,,6630ec10efe9f6624eb24482,682db3a42fc17d186799f38d,2025-05-21_13h06.31.300,cuing_paradigm_dot,2024.1.5,Win32,59.88023952,682d556593cb38ad0a074487,,,,,,,,,,,1306.6332,1307.1235,,,1307.3744,1307.7736,left,0.3911,,,,,,,,,0.1,,,,,,1307.124,1307.3743,1307.7741,"[-0.001441199790234652,0.07429809477005725]","[-1,-1,-1]","[-0.06562326893179346,-0.1722844517835752]","[-1,-1,-1]","[-0.15084989769802343,0.003866713030670868]","[-1,-1,-1]","[0.0431192853049271,-0.13530708974030636]","[-1,-1,-1]","[0.10004031204767443,-0.016531749098020923]","[1,1,1]","[0.020928828278638418,-0.025374390253381958]","[-1,-1,-1]","[0.12782589104969275,-0.0898335455519444]","[-1,-1,-1]","[0.18267708702338017,0.010918717502164256]","[-1,-1,-1]","[0.004969559351527101,-0.15929173150056122]","[-1,-1,-1]","[-0.04112977476127419,-0.025974163290018778]","[-1,-1,-1]","[-0.14394994881465656,-0.11637566700794186]","[-1,-1,-1]","[-0.10605920976293186,-0.15572680122785162]","[-1,-1,-1]","[0.16684432503966887,-0.03398724612434686]","[-1,-1,-1]","[-0.12088989541863085,-0.048604060129922425]","[-1,-1,-1]","[0.05518782313260541,0.09195156509687076]","[-1,-1,-1]","[0.10198936823601018,0.14514775711950612]","[-1,-1,-1]","[0.003238044297833808,-0.11300627945279809]","[-1,-1,-1]","[0.04909536267670124,0.1855169522177902]","[-1,-1,-1]","[0.0007186659373943836,0.14123327842776573]","[-1,-1,-1]","[-0.08829150825947076,-0.10483645031984287]","[-1,-1,-1]","[-0.1887413842478977,0.05446464123419613]","[-1,-1,-1]","[0.14603300482148654,0.06559099422032062]","[-1,-1,-1]","[-0.0595455217226085,0.13922473818808795]","[-1,-1,-1]","[-0.09134066163414062,0.04257326717314561]","[-1,-1,-1]","[-0.10608994036564103,0.12639923155754468]","[1,1,1]","[-0.14053753842793668,0.10220424009664067]","[-1,-1,-1]","[0.10295071360101825,0.09911070516274988]","[-1,-1,-1]","[0.03821519411728297,0.04095455815395079]","[-1,-1,-1]","[0.09741127524999292,-0.12820006511583754]","[1,1,1]","[0.10027906300670153,0.038537286168748686]","[-1,-1,-1]","[-0.1936419681119558,-0.04800091397730751]","[-1,-1,-1]","[0.06525583033385268,0.010703562125635363]","[-1,-1,-1]","[0.02,0.02]",1308.8736,0,0,0,23,1,,,,,,,
,,,,,,,6630ec10efe9f6624eb24482,682db3a42fc17d186799f38d,2025-05-21_13h06.31.300,cuing_paradigm_dot,2024.1.5,Win32,59.88023952,682d556593cb38ad0a074487,,,,,,,,,,,1308.8741,1309.3733,,,1309.6237,1309.9066,right,0.2669,,,,,,,,,0.9,,,,,,1309.3733,1309.6236,1309.9066,"[0.0849773923280945,0.0998669366586676]","[1,1,1]","[0.11620959172384217,-0.11810538321134548]","[1,1,1]","[-0.04469458999722258,0.06150037200819275]","[1,1,1]","[-0.08065532213258507,-0.14819594942759567]","[1,1,1]","[-0.014884100926701331,-0.14482137133134254]","[1,1,1]","[-0.016351489848650154,-0.19551683623632993]","[1,1,1]","[0.18624590265686183,0.042364021658421236]","[1,1,1]","[-0.14175040237632308,-0.021144872045136067]","[1,1,1]","[0.07835204461753682,-0.18032153225781392]","[1,1,1]","[0.012974268586335137,0.017498602886696846]","[1,1,1]","[-0.048796378516181564,0.12374856669812229]","[1,1,1]","[-0.09004271840183296,-0.014051490231220678]","[1,1,1]","[-0.031168439623148275,0.009228733350627792]","[1,1,1]","[-0.18582898447739946,-0.034547822740699154]","[1,1,1]","[0.06444149637377122,0.023030402858386832]","[1,1,1]","[0.05428738419348508,0.12700559569512976]","[1,1,1]","[-0.05613072030566476,-0.056577074696699564]","[1,1,1]","[0.14613461769554978,-0.03046983805150745]","[1,1,1]","[0.02737296799911386,-0.156733391988698]","[-1,-1,-1]","[-0.117418494292601,0.07591211318665142]","[1,1,1]","[-0.008269462347898564,-0.042254039158917386]","[-1,-1,-1]","[0.03637889003793997,0.0739053929959662]","[-1,-1,-1]","[0.1797069072438096,-0.061586178851029016]","[1,1,1]","[0.06806456361252788,-0.11027900140048691]","[1,1,1]","[-0.036367367134358196,0.1864459472141928]","[1,1,1]","[-0.11327212107213394,0.02176056824802926]","[1,1,1]","[-0.08529243118528088,0.10527908689977507]","[1,1,1]","[-0.12125079093300409,-0.11823020321879063]","[1,1,1]","[-0.14531497547469424,0.1291795650831277]","[1,1,1]","[-0.002903239710952883,0.13174791274875958]","[1,1,1]","[-0.14681029686423483,-0.07460920220617827]","[1,1,1]","[0.1966545363038059,-0.020316043874993486]","[1,1,1]","[0.02,0.02]",1311.0062,0,1,1,191,1,,,,,,,
,,,,,,,6630ec10efe9f6624eb24482,682db3a42fc17d186799f38d,2025-05-21_13h06.31.300,cuing_paradigm_dot,2024.1.5,Win32,59.88023952,682d556593cb38ad0a074487,,,,,,,,,,,1311.0066,1311.5061,,,1311.7565,1312.4725,right,0.7079,,,,,,,,,0.5,,,,,,1311.5061,1311.7565,1312.4725,"[0.029149059140590818,-0.06602131345836237]","[-1,-1,-1]","[0.1485627756342043,-0.009738887761068583]","[1,1,1]","[-0.11602072181920911,-0.10961554218095951]","[1,1,1]","[0.02314680188577385,0.15594344917187883]","[-1,-1,-1]","[0.04470315744145841,0.08284229569664402]","[-1,-1,-1]","[0.1969233315882634,0.01651884090751396]","[1,1,1]","[-0.014680118786925864,-0.07030436141298821]","[1,1,1]","[-0.06697970411754578,-0.03955220588429249]","[-1,-1,-1]","[-0.15655934287591441,0.07903282076439123]","[1,1,1]","[-0.09882619435698299,0.02199596638687933]","[-1,-1,-1]","[-0.029721304973840432,0.038930933960569396]","[-1,-1,-1]","[-0.15633345788421818,-0.03747125054568062]","[-1,-1,-1]","[0.030290748305525365,-0.1746187525260129]","[1,1,1]","[0.09489688757896536,0.05351023234355283]","[-1,-1,-1]","[-0.036342391276166425,-0.18308597666772608]","[1,1,1]","[0.009250547734317908,-0.10260642538788767]","[1,1,1]","[0.15826772232527284,0.10203162532418127]","[1,1,1]","[0.05819150559842124,0.17970520477545252]","[-1,-1,-1]","[-0.026174538505310225,0.08518502905789341]","[-1,-1,-1]","[0.10741226591803013,-0.07004169007556896]","[1,1,1]","[0.10155631260940556,-0.14331442864121888]","[-1,-1,-1]","[0.08050098667785185,-0.1000255053638594]","[-1,-1,-1]","[-0.004241078375875356,-0.011412127293790441]","[1,1,1]","[-0.08253959939536071,0.15625621523629973]","[1,1,1]","[-0.027974272482969024,0.19801601683675318]","[-1,-1,-1]","[-0.14725870800077415,0.11856342022390833]","[-1,-1,-1]","[-0.10769825408129828,-0.03622949910408715]","[1,1,1]","[0.08564114283579857,0.14418961484277926]","[1,1,1]","[-0.17175410839395835,0.004448740292737014]","[1,1,1]","[-0.06021586111075216,-0.08144035635164806]","[-1,-1,-1]","[-0.0973397842997637,-0.15270297682129547]","[1,1,1]","[-0.03266126003370756,0.15014852363418937]","[-1,-1,-1]","[0.02,0.02]",1313.5724,0,2,2,111,1,,,,,,,
,,,,,,,6630ec10efe9f6624eb24482,682db3a42fc17d186799f38d,2025-05-21_13h06.31.300,cuing_paradigm_dot,2024.1.5,Win32,59.88023952,682d556593cb38ad0a074487,,,,,,,,,,,1313.5728,1314.0723,,,1314.3227,1314.8557,right,0.5235,,,,,,,,,0.55,,,,,,1314.0723,1314.3226,1314.8557,"[0.07256336568489602,-0.002790764243356329]","[1,1,1]","[-0.04151494284081079,-0.09627897072481074]","[1,1,1]","[0.12711587036172214,-0.0453602609522554]","[-1,-1,-1]","[0.01009719808323735,0.12770668698156318]","[1,1,1]","[-0.1287679365945029,0.07949624340350388]","[-1,-1,-1]","[0.17544131120293896,-0.048258243231072064]","[1,1,1]","[0.03464991120042043,-0.027786392490393545]","[-1,-1,-1]","[-0.14606707656190793,0.03280550214149388]","[1,1,1]","[0.1140849549051599,0.09201774003134754]","[1,1,1]","[-0.14227046560684561,-0.061519318627496454]","[1,1,1]","[-0.046158176523409464,0.158716798133274]","[1,1,1]","[0.04180275033994402,-0.1917753196811894]","[-1,-1,-1]","[-0.11802382732162862,0.0025762803765488826]","[1,1,1]","[-0.08667389296726181,0.1515833737551716]","[-1,-1,-1]","[0.08329682623100826,0.16761295460608736]","[-1,-1,-1]","[0.13592218161688632,0.0576510870039348]","[1,1,1]","[-0.010701988526708506,-0.18621547728366988]","[-1,-1,-1]","[0.16864062513380718,-0.0037478594544021588]","[-1,-1,-1]","[0.09374188673002863,-0.13247026027008277]","[-1,-1,-1]","[0.14593722209637497,-0.1303031887266642]","[-1,-1,-1]","[-0.10343477771113599,-0.15150083557161165]","[-1,-1,-1]","[-0.18598474050861702,-0.004530108508821731]","[1,1,1]","[-0.008705529207603863,0.08563360736109006]","[-1,-1,-1]","[-0.19000009112625557,-0.050617114775461644]","[1,1,1]","[-0.09723867907143416,-0.052124144105996896]","[1,1,1]","[0.017879322382844575,0.015031638396406711]","[1,1,1]","[0.050404833459020235,0.11226416393370127]","[1,1,1]","[-0.04011926827957858,-0.005493098588143193]","[-1,-1,-1]","[-0.015803485897995913,-0.1451991613917622]","[1,1,1]","[-0.014976261393899223,0.037937979463613415]","[-1,-1,-1]","[-0.05723484332810785,-0.1369908676113039]","[1,1,1]","[-0.09816677341200096,-0.095725939402037]","[1,1,1]","[0.02,0.02]",1315.9553,0,3,3,129,1,,,,,,,
,,,,,,,6630ec10efe9f6624eb24482,682db3a42fc17d186799f38d,2025-05-21_13h06.31.300,cuing_paradigm_dot,2024.1.5,Win32,59.88023952,682d556593cb38ad0a074487,,,,,,,,,,,1315.9557,1316.4551,,,1316.7055,1316.9053,left,0.1837,,,,,,,,,0.45,,,,,,1316.4552,1316.7055,1316.9053,"[0.09593001150920957,-0.06039027848354373]","[1,1,1]","[-0.01486691609261887,0.027949518735486737]","[-1,-1,-1]","[0.10892621989274924,-0.12573850927350905]","[1,1,1]","[0.035558090361310905,0.10890178236092116]","[-1,-1,-1]","[-0.016906460130129163,-0.18914200509160325]","[1,1,1]","[-0.06033074261066845,-0.011473298077998765]","[1,1,1]","[-0.010568047228919701,0.1414920762680804]","[1,1,1]","[0.06537439402796705,-0.13534571408425816]","[1,1,1]","[0.08477402297529167,0.04454901518824219]","[-1,-1,-1]","[0.19613525551568015,0.006733955846954988]","[-1,-1,-1]","[-0.1708124985473378,-0.017188866345040132]","[1,1,1]","[0.0042456646911678145,-0.13458181110544534]","[-1,-1,-1]","[-0.052820946833622595,0.16470969163021318]","[-1,-1,-1]","[0.10541073729643609,0.09699994379728787]","[-1,-1,-1]","[-0.11076712083169893,-0.1257131248971708]","[1,1,1]","[0.02776805494818988,0.19267343550578434]","[1,1,1]","[-0.12629830005509513,-0.02521687253708264]","[-1,-1,-1]","[-0.04324352912765587,0.09736629466073551]","[1,1,1]","[-0.07039503489796982,-0.0657835961922765]","[-1,-1,-1]","[-0.15283908125096185,0.10343748322417166]","[-1,-1,-1]","[0.025851117199116855,-0.057591034794665326]","[-1,-1,-1]","[-0.12596548111880723,0.06473028644188832]","[-1,-1,-1]","[0.17649626249671102,-0.08181141673140388]","[1,1,1]","[-0.08356695681528004,0.06724746514443268]","[-1,-1,-1]","[0.0574948741671623,-0.026784676393585827]","[-1,-1,-1]","[0.1373154204667612,0.12887190613051427]","[-1,-1,-1]","[-0.1836223177549906,0.027249862013843842]","[1,1,1]","[-0.012701255094846898,-0.029721817261255327]","[-1,-1,-1]","[0.03902705288948316,-0.19037723400526854]","[-1,-1,-1]","[-0.10741337377831107,0.16644102939318764]","[-1,-1,-1]","[0.07381238695305148,0.13885898218373313]","[1,1,1]","[0.18744194752406623,0.05479593348625992]","[1,1,1]","[0.02,0.02]",1318.0044,0,4,4,62,1,,,,,,,
,,,,,,,6630ec10efe9f6624eb24482,682db3a42fc17d186799f38d,2025-05-21_13h06.31.300,cuing_paradigm_dot,2024.1.5,Win32,59.88023952,682d556593cb38ad0a074487,,,,,,,,,,,1318.0049,1318.5046,,,1318.755,1319.1215,left,0.3521,,,,,,,,,0.1,,,,,,1318.5046,1318.755,1319.1215,"[-0.09256714817700636,-0.16741776099174868]","[-1,-1,-1]","[0.1800223182091638,-0.08696310150281343]","[1,1,1]","[0.040685603643322035,-0.11557655411357345]","[-1,-1,-1]","[-0.002249100520351097,0.06055222595161909]","[-1,-1,-1]","[0.14727698951540255,-0.04997180195067694]","[-1,-1,-1]","[-0.14452358394126577,-0.053513649084479024]","[-1,-1,-1]","[-0.13540484271820183,-0.12956054394110333]","[-1,-1,-1]","[0.04378313226185529,0.17216160549020448]","[-1,-1,-1]","[-0.10375736320060479,-0.052852367271597464]","[-1,-1,-1]","[0.11034427564640659,0.06817319845650227]","[-1,-1,-1]","[0.024765956152406215,-0.16547968186218245]","[-1,-1,-1]","[0.022245904715526416,-0.07321266975860792]","[-1,-1,-1]","[-0.04361166349832865,-0.16075953775261032]","[1,1,1]","[0.14648725710072152,0.025911725325488858]","[-1,-1,-1]","[0.08073933431017927,-0.16551919127067974]","[-1,-1,-1]","[0.09582981561579924,-0.09568972949620469]","[-1,-1,-1]","[-0.09280069992119568,-0.1052717447802712]","[-1,-1,-1]","[0.06393890420793799,0.0033185613669301016]","[-1,-1,-1]","[0.046674185704227183,0.04900036680751325]","[-1,-1,-1]","[-0.13463943032289982,0.005367557635062971]","[-1,-1,-1]","[0.15242879004446208,-0.12023294153206292]","[-1,-1,-1]","[-0.04862128819990014,-0.05094662477957967]","[-1,-1,-1]","[-0.097135999651161,0.09727215666573916]","[-1,-1,-1]","[0.04355440002991594,0.10611551865815812]","[-1,-1,-1]","[-0.1825468534677654,0.016978138161881335]","[1,1,1]","[0.16478949472960963,0.08112786309842984]","[-1,-1,-1]","[-0.0986749496478644,0.15305857509307166]","[-1,-1,-1]","[-0.1722867409901294,0.06781690729045892]","[-1,-1,-1]","[-0.04230118859740859,0.0162050834118728]","[-1,-1,-1]","[0.1351508610662026,0.11622288294987534]","[-1,-1,-1]","[0.018430709549171566,-0.023029017237781217]","[-1,-1,-1]","[-0.1458930831053467,0.1342081618230295]","[-1,-1,-1]","[0.02,0.02]",1320.2211,0,5,5,14,1,,,,,,,
,,,,,,,6630ec10efe9f6624eb24482,682db3a42fc17d186799f38d,2025-05-21_13h06.31.300,cuing_paradigm_dot,2024.1.5,Win32,59.88023952,682d556593cb38ad0a074487,,,,,,,,,,,1320.2215,1320.7208,,,1320.9714,1321.3044,left,0.3173,,,,,,,,,0.1,,,,,,1320.7208,1320.9713,1321.3044,"[-0.12052481410097447,0.08783187993215433]","[-1,-1,-1]","[-0.026072049410825988,0.08406421003094186]","[-1,-1,-1]","[-0.02069113644137178,-0.1549898364864058]","[-1,-1,-1]","[0.14633068560369009,-0.09067916118559177]","[-1,-1,-1]","[0.09160303100462876,-0.012319397524431893]","[-1,-1,-1]","[-0.03593504110999264,0.04368427830168435]","[-1,-1,-1]","[-0.09031611779815713,0.02010147674578683]","[-1,-1,-1]","[0.0693837834824571,-0.17751011202397518]","[-1,-1,-1]","[0.01080470997679331,-0.014659114691220474]","[-1,-1,-1]","[-0.11803780771496508,-0.061774144471418956]","[-1,-1,-1]","[0.03512462036450773,0.0694406311495755]","[-1,-1,-1]","[0.12397201361900162,0.0751690203610014]","[-1,-1,-1]","[0.029807964708070428,-0.16513114705344273]","[-1,-1,-1]","[-0.07188501212311078,-0.17786363862552962]","[-1,-1,-1]","[-0.16571693520124992,0.05187156600795278]","[-1,-1,-1]","[0.09965791592673942,-0.15007435215979067]","[1,1,1]","[-0.0363851928579414,0.16346923280527162]","[1,1,1]","[-0.15863133641472582,-0.04465606751558916]","[-1,-1,-1]","[0.07187055546457706,-0.07949662806103813]","[1,1,1]","[0.1251405434177531,-0.03782079225687279]","[-1,-1,-1]","[0.0036776345399473754,-0.08408300403201581]","[-1,-1,-1]","[0.020853317074906823,0.03130503350682185]","[-1,-1,-1]","[-0.0644188338030097,-0.05653292153269105]","[-1,-1,-1]","[0.10123991936621912,0.16699393797576012]","[-1,-1,-1]","[-0.16233522182612112,-0.10365930362877977]","[-1,-1,-1]","[0.14268183143064697,-0.13871164465234115]","[-1,-1,-1]","[-0.07589927285282774,-0.09890874132257954]","[-1,-1,-1]","[-0.042778586332793765,-0.010606652553797669]","[-1,-1,-1]","[-0.04108649782963208,-0.11997694500143188]","[-1,-1,-1]","[0.1721279679091746,-0.02905675971686916]","[-1,-1,-1]","[0.1532310110261385,0.12088903633435309]","[-1,-1,-1]","[0.053499879072284255,0.17544522331264395]","[-1,-1,-1]","[0.02,0.02]",1322.404,0,6,6,3,1,,,,,,,
,,,,,,,6630ec10efe9f6624eb24482,682db3a42fc17d186799f38d,2025-05-21_13h06.31.300,cuing_paradigm_dot,2024.1.5,Win32,59.88023952,682d556593cb38ad0a074487,,,,,,,,,,,1322.4044,1322.9039,,,1323.1538,1323.6371,right,0.4676,,,,,,,,,0.45,,,,,,1322.904,1323.1538,1323.6372,"[-0.10200087490483578,0.04985841709468565]","[-1,-1,-1]","[-0.03293120688363111,0.138824208557263]","[-1,-1,-1]","[-0.05798652702932327,0.10178691773717569]","[-1,-1,-1]","[0.10980917010650527,0.15447886460175253]","[-1,-1,-1]","[0.003968586119689263,0.04491034897510576]","[-1,-1,-1]","[-0.02463195132308745,-0.15680258681403628]","[1,1,1]","[0.035289062027609196,-0.019497160430828]","[-1,-1,-1]","[-0.16638841360311668,0.011261867358337374]","[-1,-1,-1]","[0.055852548639670985,-0.0572315124727137]","[1,1,1]","[-0.11446900002601415,0.09352585137044153]","[-1,-1,-1]","[-0.0912467561333442,-0.026003734907193665]","[1,1,1]","[0.04414577606476851,-0.18295117121353668]","[1,1,1]","[0.14576881615876291,-0.018747724536765913]","[-1,-1,-1]","[-0.10375039299628287,-0.10882748139276659]","[-1,-1,-1]","[-0.10290408595660772,0.16612571047604796]","[1,1,1]","[-0.15600249236603747,0.07689759089682086]","[-1,-1,-1]","[0.06074381466024348,0.11356288907522304]","[1,1,1]","[0.12369817663955053,0.056062559174434604]","[1,1,1]","[0.00651991093795796,0.10798285819382242]","[-1,-1,-1]","[0.0825784021484911,0.07621953837708582]","[1,1,1]","[0.15090161101906904,-0.08677077895858556]","[-1,-1,-1]","[-0.03189663935836969,-0.006700955069696173]","[-1,-1,-1]","[0.1189321799149186,-0.052178559727398266]","[-1,-1,-1]","[0.028825532397697667,-0.13006806994234413]","[1,1,1]","[-0.008964628545315427,-0.19383733216618868]","[-1,-1,-1]","[0.18525616753783536,-0.045200907639965225]","[-1,-1,-1]","[-0.0622326027341509,0.18509208632493782]","[1,1,1]","[-0.1586527770892824,-0.11488677259229398]","[1,1,1]","[0.02108654155316107,0.19706793184164334]","[1,1,1]","[-0.1414107685334472,-0.03457302139845939]","[1,1,1]","[0.11177232840241007,-0.12065982893787643]","[-1,-1,-1]","[-0.06771361110669519,-0.130463349345361]","[1,1,1]","[0.02,0.02]",1324.7369,0,7,7,65,1,,,,,,,
,,,,,,,6630ec10efe9f6624eb24482,682db3a42fc17d186799f38d,2025-05-21_13h06.31.300,cuing_paradigm_dot,2024.1.5,Win32,59.88023952,682d556593cb38ad0a074487,,,,,,,,,,,1324.7372,1325.2368,,,1325.4869,1325.8535,left,0.357,,,,,,,,,0.4,,,,,,1325.2368,1325.4869,1325.8535,"[-0.0881962283533007,0.05836926089670316]","[1,1,1]","[-0.14647174546304328,0.11431582552556077]","[1,1,1]","[0.03587195877241944,-0.1194677820837801]","[-1,-1,-1]","[-0.028027597395651405,0.08614758233110797]","[-1,-1,-1]","[-0.01708319407880292,-0.19408378394848025]","[1,1,1]","[0.18067215383364887,0.046122263232899544]","[1,1,1]","[-0.01601199340348502,0.016111984381741936]","[1,1,1]","[-0.026230311269201133,-0.10422417660097688]","[-1,-1,-1]","[-0.05858312869833832,0.18867605805058163]","[1,1,1]","[0.023469371087273594,0.00025249086103321686]","[-1,-1,-1]","[-0.06543403225706827,-0.0297404488318562]","[1,1,1]","[0.11048921546262795,-0.05513203300228416]","[1,1,1]","[0.05230834629579172,-0.04273030532862029]","[-1,-1,-1]","[-0.10154899596307253,0.09708413324635688]","[-1,-1,-1]","[0.11509591561652398,0.11010885888835471]","[-1,-1,-1]","[-0.1620647446824097,0.02510198749348779]","[-1,-1,-1]","[0.15936510100580673,-0.10336546215489323]","[-1,-1,-1]","[0.05638807497049058,0.1718045393432539]","[-1,-1,-1]","[0.015784936116076304,0.06284145348865226]","[1,1,1]","[-0.020989567724278936,-0.031892923443811234]","[-1,-1,-1]","[-0.05629986685329922,-0.1716218841628757]","[-1,-1,-1]","[0.060096262132622216,0.11454461805373219]","[-1,-1,-1]","[-0.10877881800152764,-0.08315062688440901]","[-1,-1,-1]","[0.11667010327940872,-0.15391658160348537]","[-1,-1,-1]","[-0.11049581393075898,0.1639868105111483]","[-1,-1,-1]","[-0.0978574240742807,0.008228965039402448]","[-1,-1,-1]","[0.06417607672266233,0.034744031024497295]","[-1,-1,-1]","[-0.1211858653749774,-0.13533140158210333]","[1,1,1]","[0.09628801256490965,-0.11737498804904985]","[-1,-1,-1]","[-0.09985569185407923,-0.17194434764944241]","[1,1,1]","[-0.1690127590208972,-0.10526757151395943]","[1,1,1]","[-0.07404162941682696,0.14314332546214847]","[1,1,1]","[0.02,0.02]",1326.9528,0,8,8,31,1,,,,,,,
,,,,,,,6630ec10efe9f6624eb24482,682db3a42fc17d186799f38d,2025-05-21_13h06.31.300,cuing_paradigm_dot,2024.1.5,Win32,59.88023952,682d556593cb38ad0a074487,,,,,,,,,,,1326.9532,1327.4526,,,1327.7033,1327.9527,right,0.2442,,,,,,,,,0.9,,,,,,1327.4527,1327.7033,1327.9528,"[0.02241690352359342,-0.07745802677330244]","[1,1,1]","[0.13314474832122378,-0.08495011175483826]","[1,1,1]","[-0.10621606722475771,-0.1068486538003257]","[1,1,1]","[-0.00524874455845115,-0.13632025077185764]","[1,1,1]","[0.07342058041533993,-0.07683873384869588]","[1,1,1]","[0.10425951335595503,0.0505734868414908]","[1,1,1]","[-0.13009246686302406,-0.05708428659028143]","[1,1,1]","[0.00832922715175574,0.190451493233708]","[1,1,1]","[-0.17520946617109628,0.0275113480728409]","[1,1,1]","[0.08228950466576838,-0.016514884065015258]","[1,1,1]","[0.004896173138339406,0.05740295561868791]","[-1,-1,-1]","[-0.022786078088627777,-0.021284798678671085]","[1,1,1]","[-0.014123646592335387,-0.19111991809706336]","[-1,-1,-1]","[0.03126457686768115,0.09733413614076117]","[1,1,1]","[-0.0843707039270907,0.16812078539348232]","[1,1,1]","[0.035821848409424165,-0.02789203243162463]","[1,1,1]","[0.1540359962931653,0.018699696257830477]","[1,1,1]","[-0.05833248395063027,0.09418264057300085]","[1,1,1]","[0.09016911906330746,-0.1441618024540672]","[1,1,1]","[0.08092118539946028,0.09319151296409293]","[1,1,1]","[-0.1308465746864513,0.1326571310941314]","[1,1,1]","[0.17833939888560818,-0.06314391728915882]","[1,1,1]","[-0.0900090202547869,-0.04681564464026124]","[1,1,1]","[-0.07933473266635323,-0.14870439316466574]","[1,1,1]","[-0.05739684172142998,0.016616947136481142]","[1,1,1]","[-0.09845332543688724,0.10910998722880592]","[1,1,1]","[-0.1492809685340097,-0.010174863008996438]","[-1,-1,-1]","[0.16684863949321196,0.09876996766256779]","[1,1,1]","[-0.05167785042386576,0.14031975911609326]","[1,1,1]","[-0.14214147174445818,0.0911214098577811]","[1,1,1]","[0.1304749318975789,0.12646884319455984]","[1,1,1]","[0.07772262940100348,0.1445120853873751]","[1,1,1]","[0.02,0.02]",1329.0524,0,9,9,189,1,,,,,,,
,,,,,,,6630ec10efe9f6624eb24482,682db3a42fc17d186799f38d,2025-05-21_13h06.31.300,cuing_paradigm_dot,2024.1.5,Win32,59.88023952,682d556593cb38ad0a074487,,,,,,,,,,,1329.0528,1329.5525,,,1329.8028,1330.4521,left,0.6415,,,,,,,,,0.5,,,,,,1329.5526,1329.8027,1330.4521,"[0.11311321344201755,-0.13595636840417677]","[1,1,1]","[0.12858122768143254,0.10161471015494193]","[1,1,1]","[0.007422669425740922,0.057712000458566226]","[-1,-1,-1]","[0.17029305714900309,0.054152028200088874]","[1,1,1]","[0.04209048617775886,0.1414403371239351]","[1,1,1]","[-0.10631452260185052,0.09521955272337128]","[1,1,1]","[-0.12486612844443389,-0.1444839152882833]","[-1,-1,-1]","[-0.06054963721491381,0.17324297828772361]","[-1,-1,-1]","[-0.08885738848710643,-0.12311553032318437]","[1,1,1]","[0.055942835433144135,-0.11141616225931948]","[1,1,1]","[0.04483977425442246,-0.17976532832268974]","[-1,-1,-1]","[0.05482836798954161,-0.005725399633643583]","[1,1,1]","[-0.00804872505853632,0.17024609806490576]","[-1,-1,-1]","[0.015718096188996153,-0.08129942622886178]","[-1,-1,-1]","[0.1705309845044517,0.09759936870921725]","[1,1,1]","[0.06735902745695888,-0.06327781890727018]","[-1,-1,-1]","[-0.04342625962463418,-0.02009032959944117]","[-1,-1,-1]","[0.12482409691312983,0.04477420501232681]","[-1,-1,-1]","[-0.05401942855838684,0.0833447543271779]","[-1,-1,-1]","[0.17521082050764503,-0.010443527522329493]","[1,1,1]","[-0.19479158884768805,-0.033349065383560826]","[1,1,1]","[-0.10045791331292599,0.15027701340173966]","[1,1,1]","[0.1112706740546993,-0.08700210503169493]","[-1,-1,-1]","[-0.13362960658422632,-0.05019796516870219]","[-1,-1,-1]","[0.006916622128068704,-0.1543696532280999]","[-1,-1,-1]","[-0.09153915076664365,0.010839115935652153]","[1,1,1]","[-0.019831315582438815,0.02333744702252717]","[1,1,1]","[0.0565309934721389,0.0343576636835466]","[-1,-1,-1]","[0.014819488620713915,-0.012162802225566358]","[-1,-1,-1]","[-0.13417247695565104,-0.09668996881924317]","[-1,-1,-1]","[0.10139763207292994,-0.006183215761118778]","[1,1,1]","[0.08692284016935888,0.10421234950134267]","[1,1,1]","[0.02,0.02]",1331.5522,0,10,10,105,1,,,,,,,
,,,,,,,6630ec10efe9f6624eb24482,682db3a42fc17d186799f38d,2025-05-21_13h06.31.300,cuing_paradigm_dot,2024.1.5,Win32,59.88023952,682d556593cb38ad0a074487,,,,,,,,,,,1331.5527,1332.0518,,,1332.3025,1333.0183,left,0.7081,,,,,,,,,0.45,,,,,,1332.0518,1332.3024,1333.0183,"[-0.14337707067717417,-0.0953251425684951]","[-1,-1,-1]","[-0.002871680641987676,0.16962422780733755]","[1,1,1]","[0.06682291992774514,0.1649001235688735]","[-1,-1,-1]","[-0.07950703669877297,-0.016320821933109977]","[-1,-1,-1]","[-0.03871644547056982,-0.008101530648427228]","[-1,-1,-1]","[0.006760037119633244,-0.08299611502967309]","[1,1,1]","[-0.1836582081152708,-0.007512158877806504]","[-1,-1,-1]","[0.02449186161731143,0.02219306409408549]","[-1,-1,-1]","[0.008343615693091094,-0.15493524029675415]","[1,1,1]","[-0.10709769565834902,-0.1465060161019653]","[-1,-1,-1]","[-0.0191744691414128,-0.04611063687869544]","[-1,-1,-1]","[-0.12826995229825663,0.02323169391496171]","[-1,-1,-1]","[0.0840057912798568,0.11860400653215696]","[1,1,1]","[0.030517511767888552,0.09369265962269833]","[1,1,1]","[0.19092997267156644,-0.047166008549715345]","[-1,-1,-1]","[0.18145281598171947,0.05660313588732958]","[-1,-1,-1]","[-0.07613103901984711,-0.07296316679924932]","[1,1,1]","[0.08733449022126345,-0.1636245769419834]","[-1,-1,-1]","[0.06406675638234482,-0.03685791041737923]","[-1,-1,-1]","[0.0826238905835837,0.04294350908763212]","[-1,-1,-1]","[-0.1357596894965279,-0.028966194597328566]","[1,1,1]","[-0.05894676672712488,0.061229399353929057]","[-1,-1,-1]","[0.12016853601115939,-0.023656789717362087]","[1,1,1]","[-0.15301553651695066,0.09702151591665847]","[1,1,1]","[-0.060868631277460485,-0.12398325921631777]","[-1,-1,-1]","[-0.006869166334451895,0.06288336622663682]","[1,1,1]","[-0.1936486567140941,0.04361892630385471]","[1,1,1]","[-0.04521701955678499,0.1941771706473114]","[1,1,1]","[0.16211633000409298,0.0008334385199608701]","[-1,-1,-1]","[-0.10605504300480796,0.15314015912808532]","[1,1,1]","[0.13104152147738507,0.15077872252138178]","[-1,-1,-1]","[-0.0666149529624593,0.10576704054076738]","[1,1,1]","[0.02,0.02]",1334.1183,0,11,11,64,1,,,,,,,
,,,,,,,6630ec10efe9f6624eb24482,682db3a42fc17d186799f38d,2025-05-21_13h06.31.300,cuing_paradigm_dot,2024.1.5,Win32,59.88023952,682d556593cb38ad0a074487,,,,,,,,,,,1334.1188,1334.6182,,,1334.8687,1335.2015,left,0.3211,,,,,,,,,0.4,,,,,,1334.6183,1334.8686,1335.2017,"[0.15123388764860426,0.09594335663549329]","[-1,-1,-1]","[-0.003687190041962966,-0.13863102656817272]","[1,1,1]","[-0.0630192976715244,0.1737238881090032]","[-1,-1,-1]","[-0.16470806633921084,-0.052804611047176174]","[-1,-1,-1]","[0.15196785798643933,-0.1294172807095529]","[1,1,1]","[-0.12560665346500324,0.12790076975396839]","[-1,-1,-1]","[-0.05606400707871738,-0.04126530795126542]","[-1,-1,-1]","[0.16128915320695397,-0.07666862207760834]","[-1,-1,-1]","[0.022541528498631194,0.1016561879874658]","[-1,-1,-1]","[-0.0036391248070263343,-0.08971744983279893]","[1,1,1]","[-0.0261121072334354,0.037733240513156394]","[1,1,1]","[0.06472683370226648,-0.18471071857186258]","[-1,-1,-1]","[-0.0572331200347465,0.08229230056218277]","[1,1,1]","[0.12162192252124956,-0.0859671615097534]","[-1,-1,-1]","[-0.15647510777983287,0.07732362961981291]","[1,1,1]","[0.15674318293673317,-0.00988126693847246]","[1,1,1]","[-0.14540276107489147,-0.013482374800142515]","[-1,-1,-1]","[0.06615970377873268,-0.10236880066791318]","[1,1,1]","[-0.13495778207678294,-0.13386563122792883]","[-1,-1,-1]","[-0.07151527839072584,0.01826793018589673]","[-1,-1,-1]","[0.03524652952948021,-0.05462670842665526]","[1,1,1]","[0.0672594031416521,0.014478530813085281]","[-1,-1,-1]","[0.19282862623691321,0.05080169902527796]","[1,1,1]","[0.1121435571190201,-0.024251811111219167]","[-1,-1,-1]","[0.045459621710146246,0.04964252944644083]","[1,1,1]","[-0.10033538953522832,-0.09640996151791176]","[1,1,1]","[-0.10974349265091682,-0.047996590314730206]","[-1,-1,-1]","[0.011870593122404486,0.19816190978748718]","[-1,-1,-1]","[-0.026584065292755674,-0.17924017854242486]","[1,1,1]","[0.05799518304403635,0.17324204967685924]","[-1,-1,-1]","[0.0061941092081511705,-0.010938886131737538]","[-1,-1,-1]","[0.12183593952473466,0.14964243779797942]","[-1,-1,-1]","[0.02,0.02]",1336.3009,0,12,12,41,1,,,,,,,
,,,,,,,6630ec10efe9f6624eb24482,682db3a42fc17d186799f38d,2025-05-21_13h06.31.300,cuing_paradigm_dot,2024.1.5,Win32,59.88023952,682d556593cb38ad0a074487,,,,,,,,,,,1336.3013,1336.801,,,1337.0514,1337.3175,left,0.2527,,,,,,,,,0.1,,,,,,1336.801,1337.0514,1337.3176,"[0.03052720588527303,-0.04182065976478843]","[-1,-1,-1]","[0.09849738703557391,-0.11926850947276633]","[-1,-1,-1]","[-0.12559540430043797,-0.13487084625881932]","[-1,-1,-1]","[-0.061297062493489624,0.18512628340897913]","[-1,-1,-1]","[0.019390533725206636,-0.15916356591794326]","[-1,-1,-1]","[0.1007129375642718,-0.03883735192782977]","[-1,-1,-1]","[-0.07698236117004036,0.03110223335097385]","[-1,-1,-1]","[0.15582088901641283,-0.06796322485178596]","[-1,-1,-1]","[0.06547386503028482,0.004051566897744976]","[-1,-1,-1]","[0.022809356573298287,0.1451430241810156]","[-1,-1,-1]","[0.1480488899374455,-0.11035310281846482]","[-1,-1,-1]","[-0.01891676343268517,0.0478281826342528]","[-1,-1,-1]","[-0.1900848731680799,-0.050592370212598506]","[-1,-1,-1]","[-0.015803980909874386,-0.07771065400048396]","[-1,-1,-1]","[-0.12120531819796712,0.029179030687645123]","[1,1,1]","[-0.12931732156266207,-0.025465172405372327]","[-1,-1,-1]","[0.16021739556948414,-0.024793469428656525]","[-1,-1,-1]","[-0.17874842815205258,0.03287875221465219]","[-1,-1,-1]","[-0.1268440223340457,-0.07453510464908507]","[-1,-1,-1]","[-0.07496830910275151,-0.048434491359974845]","[-1,-1,-1]","[-0.01775686734919198,-0.0290201885695429]","[-1,-1,-1]","[0.04447271299452159,-0.0829230898984604]","[-1,-1,-1]","[0.13392506868988208,0.09077451699337874]","[-1,-1,-1]","[-0.1324316997476168,0.11656518846908995]","[1,1,1]","[-0.08571852941217498,0.1069133522528374]","[-1,-1,-1]","[-0.07407074390547494,-0.17969264278000166]","[-1,-1,-1]","[0.030391972382597447,0.06988020658107315]","[-1,-1,-1]","[-0.0211124368727285,0.09026448683665206]","[-1,-1,-1]","[0.11199610718981881,0.04541269654303577]","[-1,-1,-1]","[0.16533893790248244,0.01623286534490558]","[1,1,1]","[-0.0167315282033238,0.1721414464049535]","[-1,-1,-1]","[0.07453973991170446,0.17568326950025523]","[-1,-1,-1]","[0.02,0.02]",1338.4172,0,13,13,12,1,,,,,,,
,,,,,,,6630ec10efe9f6624eb24482,682db3a42fc17d186799f38d,2025-05-21_13h06.31.300,cuing_paradigm_dot,2024.1.5,Win32,59.88023952,682d556593cb38ad0a074487,,,,,,,,,,,1338.4175,1338.9172,,,1339.1674,1339.7169,right,0.5387,,,,,,,,,0.45,,,,,,1338.9172,1339.1673,1339.717,"[-0.11838581164558074,-0.08117415379238262]","[1,1,1]","[-0.08710765904124969,0.11050487761850683]","[-1,-1,-1]","[0.07315361345086531,-0.13809935379558114]","[1,1,1]","[0.1612428174678633,-0.11310119219368103]","[-1,-1,-1]","[-0.1737120738460037,0.07264106565588993]","[-1,-1,-1]","[0.10695760525523897,0.06973028368004694]","[1,1,1]","[-0.031793352089607284,-0.18482715162844054]","[1,1,1]","[-0.13963855998183597,0.0226940368389377]","[1,1,1]","[0.020231198506334133,-0.07463506760780549]","[-1,-1,-1]","[0.09992891590804003,-0.04579612436997266]","[1,1,1]","[-0.042049223138478246,0.0784353068753963]","[1,1,1]","[-0.08307199169568798,0.1606593611034322]","[-1,-1,-1]","[-0.03304604160970069,0.13321667120968253]","[-1,-1,-1]","[-0.10817956801314055,-0.1483252252287424]","[-1,-1,-1]","[0.02331428390814056,0.07605368558696297]","[1,1,1]","[0.010681273216934836,0.00957577908115178]","[-1,-1,-1]","[-0.05777749689350938,0.0027296176542852897]","[1,1,1]","[-0.1892699375674238,-0.02782088630749614]","[-1,-1,-1]","[0.06909995121647942,0.097693811024756]","[-1,-1,-1]","[0.062383169081150866,0.15920873525946658]","[1,1,1]","[0.11289388027088026,0.006780506939118254]","[-1,-1,-1]","[-0.0818057488070184,0.0595900583045812]","[-1,-1,-1]","[0.17522739214198196,-0.06352814602960344]","[-1,-1,-1]","[0.05392357536895464,-0.028272152022507484]","[-1,-1,-1]","[-0.1754444729491274,-0.08795967346604201]","[-1,-1,-1]","[0.12193559588535281,-0.13548764906092056]","[1,1,1]","[0.1919111211208137,0.04705757929642965]","[-1,-1,-1]","[-0.08267603127245929,-0.036332902021588905]","[1,1,1]","[0.13666304527949913,0.13969370661605368]","[-1,-1,-1]","[0.01167419806443847,-0.11433663499359208]","[-1,-1,-1]","[-0.1274360980725829,0.0920790580113443]","[1,1,1]","[-0.12290478623406477,-0.03719958747446882]","[1,1,1]","[0.02,0.02]",1340.8165,0,14,14,76,1,,,,,,,
,,,,,,,6630ec10efe9f6624eb24482,682db3a42fc17d186799f38d,2025-05-21_13h06.31.300,cuing_paradigm_dot,2024.1.5,Win32,59.88023952,682d556593cb38ad0a074487,,,,,,,,,,,1340.8171,1341.3167,,,1341.5673,1341.8498,left,0.2759,,,,,,,,,0.45,,,,,,1341.3168,1341.5673,1341.8499,"[-0.007912145387025518,-0.08392472816060127]","[1,1,1]","[-0.006973763388547288,0.014919274867281923]","[-1,-1,-1]","[-0.10129828647259131,-0.11082080391494797]","[-1,-1,-1]","[0.05389978126293164,-0.14152391942610687]","[-1,-1,-1]","[0.041312749877000655,0.17979105093393385]","[-1,-1,-1]","[-0.030457817240294022,0.1465945560103421]","[-1,-1,-1]","[0.06583614795518226,-0.07123415179043119]","[-1,-1,-1]","[0.146451787968877,-0.0027285639518478846]","[-1,-1,-1]","[-0.12019410539591228,0.13191205693354313]","[-1,-1,-1]","[-0.0602795718804187,-0.1300117634128613]","[-1,-1,-1]","[0.13041817157673605,-0.11016102961360325]","[1,1,1]","[0.12188226718459735,0.07387352776532947]","[1,1,1]","[-0.04864862179681813,-0.1910555357488683]","[1,1,1]","[-0.16602484000954817,0.09825264567330412]","[-1,-1,-1]","[0.011787700836951189,0.05583354714875856]","[1,1,1]","[0.19856329427216413,-0.005079349261089007]","[1,1,1]","[-0.05517424463704305,0.02867257606741869]","[-1,-1,-1]","[-0.033278593454393206,-0.05044794609122319]","[-1,-1,-1]","[0.18139090754340062,0.06291481178723368]","[1,1,1]","[-0.09731134142349189,0.08135396468051366]","[-1,-1,-1]","[-0.14196036497596687,-0.004824615206543226]","[1,1,1]","[-0.07280889974538474,0.13281718168702658]","[1,1,1]","[0.10934360254887564,-0.15536239718427958]","[-1,-1,-1]","[-0.11049803681330894,-0.15689092669349367]","[-1,-1,-1]","[0.0315985644084608,-0.02984470031593037]","[1,1,1]","[-0.08187427056445581,-0.014535314720790178]","[1,1,1]","[-0.16714695134301255,0.030615978228624618]","[1,1,1]","[-0.14224688489803958,-0.10288510877965387]","[-1,-1,-1]","[0.11418219465373504,0.1522415582473289]","[1,1,1]","[0.09443304335145024,-0.007094763595819769]","[-1,-1,-1]","[-0.05147125751148979,0.07115042170366032]","[1,1,1]","[-0.05065100441225383,-0.08690771806641666]","[-1,-1,-1]","[0.02,0.02]",1342.9498,0,15,15,87,1,,,,,,,
,,,,,,,6630ec10efe9f6624eb24482,682db3a42fc17d186799f38d,2025-05-21_13h06.31.300,cuing_paradigm_dot,2024.1.5,Win32,59.88023952,682d556593cb38ad0a074487,,,,,,,,,,,1342.9502,1343.4496,,,1343.7005,1344.1332,left,0.4202,,,,,,,,,0.45,,,,,,1343.4496,1343.7004,1344.1333,"[0.044958209928212964,-0.06990299808169509]","[1,1,1]","[-0.13574689917564534,0.05271593582676196]","[-1,-1,-1]","[-0.09321512612619075,0.06950363232252214]","[1,1,1]","[-0.09176514406424228,0.024883048965476152]","[-1,-1,-1]","[-0.10105209914202273,-0.1433096159178092]","[-1,-1,-1]","[-0.16288664808057282,-0.10239666101525158]","[1,1,1]","[-0.03235548249047335,0.06937778304330797]","[-1,-1,-1]","[-0.055017514943437616,-0.03437779902015488]","[-1,-1,-1]","[0.16413929764160437,0.08314557824751506]","[-1,-1,-1]","[-0.006627052927892403,0.19397956616515083]","[1,1,1]","[0.03417425505306317,0.1288633494030431]","[1,1,1]","[-0.010858356360103615,-0.11810917359394137]","[-1,-1,-1]","[-0.146833272309163,-0.05785217410355303]","[-1,-1,-1]","[-0.06374096216872159,-0.1150574328664745]","[-1,-1,-1]","[0.15112804667268925,0.01949238038990757]","[1,1,1]","[0.15367796838381445,-0.07251248873502769]","[-1,-1,-1]","[-0.061846158208627974,0.15125811134226144]","[1,1,1]","[0.11791606301578422,0.06908218331045261]","[1,1,1]","[0.0823752439720794,-0.033506690799399344]","[1,1,1]","[0.08545565601169086,-0.18041761641673207]","[-1,-1,-1]","[0.02136189271581294,0.08916344716016336]","[-1,-1,-1]","[-0.16427200037299255,-0.021535762770340326]","[-1,-1,-1]","[0.1238698094720073,0.154706371596097]","[-1,-1,-1]","[-0.022025623925782042,0.030376953123195494]","[-1,-1,-1]","[0.03578424129784832,0.020208900830211776]","[-1,-1,-1]","[0.03427772125077691,-0.16739193568673016]","[-1,-1,-1]","[-0.09986690325401212,0.13425363112284533]","[1,1,1]","[-0.18061511256970317,0.06535599379736441]","[1,1,1]","[-0.07220600505103743,-0.07429813761648213]","[-1,-1,-1]","[0.10683924204843512,0.02960368739910905]","[1,1,1]","[0.12239490509460436,-0.10457657396867003]","[1,1,1]","[0.07706719748775838,0.10300273862995929]","[1,1,1]","[0.02,0.02]",1345.2323,0,16,16,89,1,,,,,,,
,,,,,,,6630ec10efe9f6624eb24482,682db3a42fc17d186799f38d,2025-05-21_13h06.31.300,cuing_paradigm_dot,2024.1.5,Win32,59.88023952,682d556593cb38ad0a074487,,,,,,,,,,,1345.2328,1345.7325,,,1345.9825,1346.4324,right,0.4421,,,,,,,,,0.6,,,,,,1345.7326,1345.9825,1346.4325,"[-0.08649654080555928,0.14111892590006303]","[-1,-1,-1]","[0.13437263426621807,0.10888633794054868]","[1,1,1]","[0.03694684088702146,-0.074951976788694]","[1,1,1]","[-0.029735073523371142,-0.07123841014492091]","[1,1,1]","[0.13791587993743187,-0.134395928224746]","[-1,-1,-1]","[-0.14488588856943843,-0.04984511034501577]","[-1,-1,-1]","[-0.13434280986874458,-0.010495545006246167]","[1,1,1]","[0.038107629089511666,0.0055796397215721666]","[-1,-1,-1]","[0.19408026694515995,-0.0281676143373699]","[1,1,1]","[-0.17869119445207585,0.04755586817415782]","[1,1,1]","[0.03740409454828583,0.049998962836092675]","[1,1,1]","[0.1790987229643768,0.04535696320702287]","[1,1,1]","[-0.12938416690975352,-0.13220918870848833]","[-1,-1,-1]","[0.11242359975726393,0.060269647391097164]","[1,1,1]","[0.13734336912883668,0.009143003938479085]","[-1,-1,-1]","[0.01361588250513583,0.10527909082602768]","[-1,-1,-1]","[0.03010784868716849,-0.17170099668535288]","[1,1,1]","[-0.048637606440364266,0.07827164937717299]","[1,1,1]","[0.017949405852971532,0.15789612119091292]","[-1,-1,-1]","[0.136689026242522,-0.08688327498567423]","[1,1,1]","[0.055248987310684464,0.13730926824009068]","[1,1,1]","[-0.13208394131734333,0.09148859944663655]","[1,1,1]","[-0.06422103136295136,0.0022306619654988203]","[1,1,1]","[0.09351126579653396,-0.11452980763360557]","[-1,-1,-1]","[-0.0917432380655811,0.05887375066271348]","[-1,-1,-1]","[-0.0896088768655891,-0.14247245591059557]","[1,1,1]","[-0.18225953421319702,-0.030779893808631022]","[-1,-1,-1]","[-0.12549779659597518,0.13108016718521556]","[1,1,1]","[-0.07511618473617204,0.1828160154074567]","[1,1,1]","[-0.023633180802156643,-0.15573942422690118]","[-1,-1,-1]","[-0.003574998495765294,0.1985863355124878]","[1,1,1]","[-0.12368714322947108,-0.08515611375333935]","[-1,-1,-1]","[0.02,0.02]",1347.5322,0,17,17,155,1,,,,,,,
,,,,,,,6630ec10efe9f6624eb24482,682db3a42fc17d186799f38d,2025-05-21_13h06.31.300,cuing_paradigm_dot,2024.1.5,Win32,59.88023952,682d556593cb38ad0a074487,,,,,,,,,,,1347.5325,1348.0318,,,1348.2825,1348.7483,right,0.4584,,,,,,,,,0.55,,,,,,1348.0319,1348.2825,1348.7485,"[-0.11901151432640746,-0.07893746572520088]","[-1,-1,-1]","[-0.08848701845392272,0.13336289605412383]","[-1,-1,-1]","[-0.10897792823230487,0.0019079257064761978]","[1,1,1]","[-0.15441009027301336,0.05783859885515192]","[-1,-1,-1]","[0.1567913154324859,-0.08484881078991344]","[1,1,1]","[0.07652495092284518,-0.09970683461436718]","[-1,-1,-1]","[0.19043742280878695,0.011442773675323497]","[-1,-1,-1]","[0.08463665079272742,-0.14844784142151823]","[1,1,1]","[0.048484614891856515,-0.06827825833669326]","[1,1,1]","[0.03809523010782168,0.18387918067594572]","[1,1,1]","[-0.08491210181770274,-0.1335078846856656]","[-1,-1,-1]","[0.03905524775009702,0.06016067822112801]","[1,1,1]","[-0.08043740630542548,0.04970745665254128]","[1,1,1]","[-0.03340887098205778,-0.03714185987307753]","[-1,-1,-1]","[0.14562886464484734,0.06575089084863281]","[1,1,1]","[-0.036982174784833254,0.19543792886295733]","[1,1,1]","[-0.01778962333917614,-0.1428430178700128]","[1,1,1]","[0.03098947280813533,0.1338286765624811]","[1,1,1]","[-0.1665625271187954,-0.05949465730931653]","[-1,-1,-1]","[0.156088606766994,-0.03728717693791409]","[1,1,1]","[-0.13923755537217233,-0.0281446547567133]","[1,1,1]","[0.12343950694624008,0.10435637960858146]","[1,1,1]","[-0.17373961987563408,0.016304446267073548]","[1,1,1]","[-0.048345885332919336,-0.16995671016599434]","[-1,-1,-1]","[0.046327334841236696,-0.18874156787815535]","[-1,-1,-1]","[0.11946543600740282,0.026559635121891422]","[-1,-1,-1]","[0.00035364694443865374,-0.1854837114038973]","[1,1,1]","[-0.12722688649412733,0.15300138366313948]","[1,1,1]","[0.02570543754272259,0.014261419326034551]","[-1,-1,-1]","[-0.1269184224999084,0.10841170301368194]","[-1,-1,-1]","[0.005440784819063959,-0.04924407449205515]","[1,1,1]","[0.07922329009427503,0.09326820154688942]","[-1,-1,-1]","[0.02,0.02]",1349.848,0,18,18,136,1,,,,,,,
,,,,,,,6630ec10efe9f6624eb24482,682db3a42fc17d186799f38d,2025-05-21_13h06.31.300,cuing_paradigm_dot,2024.1.5,Win32,59.88023952,682d556593cb38ad0a074487,,,,,,,,,,,1349.8485,1350.3484,,,1350.5983,1351.0816,left,0.4765,,,,,,,,,0.45,,,,,,1350.3484,1350.5982,1351.0816,"[-0.032900807702356226,0.02281757259117551]","[1,1,1]","[0.1475193137014443,0.12160699691328346]","[1,1,1]","[0.0260643395008686,0.07576696155375795]","[-1,-1,-1]","[0.10187761620259612,0.15022171666924425]","[1,1,1]","[-0.18095933586574153,0.03391690691590849]","[-1,-1,-1]","[-0.08173683594509201,0.031872995280126125]","[1,1,1]","[-0.12729279484411893,-0.13814636704349806]","[-1,-1,-1]","[0.19826133226712792,-0.020114607484917356]","[-1,-1,-1]","[0.03983351435739038,0.19598320663406388]","[-1,-1,-1]","[-0.004055861905400863,0.18560603075352708]","[1,1,1]","[0.12773868073497166,0.05551923008308928]","[-1,-1,-1]","[-0.12837656784362483,0.11478459731217282]","[-1,-1,-1]","[-0.024741244885381534,0.07265946109992039]","[-1,-1,-1]","[-0.08855255711103703,-0.01946207259471555]","[-1,-1,-1]","[0.1465556076477681,-0.13511621533974644]","[-1,-1,-1]","[-0.06439260082032333,0.11693390341480955]","[-1,-1,-1]","[0.06372562903728585,0.05008536577114395]","[1,1,1]","[0.05449615831372449,-0.0493250933013903]","[-1,-1,-1]","[0.07044978289608186,-0.13230568627621495]","[1,1,1]","[-0.005869763652891688,-0.044241609687746986]","[1,1,1]","[0.1026252687272474,-0.07983050760420443]","[1,1,1]","[0.023041335305370617,-0.09796138082216989]","[-1,-1,-1]","[0.18528197443993433,0.04708534736178727]","[1,1,1]","[0.14785568140962088,0.010296913622076019]","[-1,-1,-1]","[0.13553643494323162,-0.051189787952233584]","[1,1,1]","[0.03807388227351364,0.14861090148941583]","[1,1,1]","[-0.10015310982526143,-0.1699968060794999]","[1,1,1]","[-0.13195221389356426,0.011448362616861893]","[1,1,1]","[-0.02766799020175126,-0.12838583697105937]","[-1,-1,-1]","[0.103313308642782,0.023472966994996146]","[-1,-1,-1]","[-0.14931997397863764,0.06175781994857265]","[-1,-1,-1]","[-0.08018607405121203,-0.05960513205718756]","[-1,-1,-1]","[0.02,0.02]",1352.1809,0,19,19,61,1,,,,,,,
,,,,,,,6630ec10efe9f6624eb24482,682db3a42fc17d186799f38d,2025-05-21_13h06.31.300,cuing_paradigm_dot,2024.1.5,Win32,59.88023952,682d556593cb38ad0a074487,,,,,,,,,,,1352.1813,1352.6809,,,1352.9313,1353.3312,right,0.3861,,,,,,,,,0.5,,,,,,1352.681,1352.9311,1353.3313,"[-0.013940153728452748,0.011922061786967218]","[-1,-1,-1]","[-0.030025954597070397,0.1707290486514974]","[-1,-1,-1]","[0.08625023277701131,-0.16797068732111728]","[-1,-1,-1]","[0.11257789102901575,-0.07388208849200839]","[1,1,1]","[0.046136828884196956,0.1661897910987005]","[1,1,1]","[-0.14482229332042768,0.13283891209880405]","[-1,-1,-1]","[-0.19668800011808257,-0.003824828837112974]","[1,1,1]","[-0.09306528817418551,-0.04071297373292391]","[-1,-1,-1]","[-0.053724303387586825,-0.027270551893429962]","[1,1,1]","[-0.09616781029349296,-0.10657485011994185]","[1,1,1]","[-0.09693578223537214,0.08000427625728507]","[-1,-1,-1]","[0.05971965934049319,0.05310228567986725]","[-1,-1,-1]","[-0.04686637703165706,0.09543755606493515]","[-1,-1,-1]","[-0.05346120374262246,-0.13431946699857328]","[1,1,1]","[-0.15928897972505734,0.07453051685282656]","[1,1,1]","[0.11371265148944766,0.11466562110482136]","[1,1,1]","[0.03992104840603658,-0.03903833942328815]","[-1,-1,-1]","[-0.09350337083237031,0.13508281974271422]","[-1,-1,-1]","[0.010111470695834476,0.08117665438593322]","[1,1,1]","[0.07668462763467755,0.13153947919423575]","[-1,-1,-1]","[-0.04370451031964625,-0.08568944538938221]","[1,1,1]","[-0.15017043761777352,-0.023313363131721672]","[1,1,1]","[-0.08775792623899455,-0.16063871894597215]","[-1,-1,-1]","[0.18221195958936662,-0.052082499308920754]","[1,1,1]","[0.13729582923813477,-0.02384168448740414]","[-1,-1,-1]","[-0.18754465888536967,-0.060291778963028314]","[1,1,1]","[0.13283314519251221,-0.12334476336626697]","[1,1,1]","[-0.06451210798514594,0.03855787063499241]","[1,1,1]","[-0.0153576658330158,-0.19313360003472332]","[-1,-1,-1]","[0.03679920255408642,-0.15400990705734371]","[-1,-1,-1]","[0.005037493130653689,0.12090242889146689]","[-1,-1,-1]","[0.050224601079181405,0.009232224585939695]","[1,1,1]","[0.02,0.02]",1354.4306,0,20,20,96,1,,,,,,,
,,,,,,,6630ec10efe9f6624eb24482,682db3a42fc17d186799f38d,2025-05-21_13h06.31.300,cuing_paradigm_dot,2024.1.5,Win32,59.88023952,682d556593cb38ad0a074487,,,,,,,,,,,1354.431,1354.9308,,,1355.1811,1355.6306,left,0.441,,,,,,,,,0.5,,,,,,1354.9308,1355.181,1355.6306,"[0.18671222586290975,-0.0595392185039962]","[-1,-1,-1]","[-0.15207421038577307,-0.10177143647248575]","[-1,-1,-1]","[-0.07637539364782481,-0.18154229697637891]","[1,1,1]","[-0.10749909789754965,-0.11986413300423186]","[-1,-1,-1]","[0.12106978171755717,0.10855088347337712]","[-1,-1,-1]","[0.1424564860867102,0.04405013150066938]","[1,1,1]","[-0.029227826168939847,-0.0053954538475374375]","[1,1,1]","[-0.016124496129659837,0.11427271083463353]","[-1,-1,-1]","[0.00833183926780615,0.1758652211762389]","[-1,-1,-1]","[0.1394406368485518,-0.038593888332937414]","[1,1,1]","[-0.06348588044886945,0.0568704621596118]","[-1,-1,-1]","[-0.18493787409801776,-0.06018039498376878]","[-1,-1,-1]","[-0.07851310338051319,0.1676612585493901]","[1,1,1]","[0.040530210351338934,-0.06412041819723206]","[-1,-1,-1]","[0.0684656240051263,0.03558207620831223]","[-1,-1,-1]","[-0.10839426400271412,0.018095950917009176]","[-1,-1,-1]","[-0.012064506979274978,-0.1722009240335741]","[1,1,1]","[0.19518941951829655,0.023248806316357583]","[-1,-1,-1]","[-0.04427087335503797,-0.0490531841373337]","[1,1,1]","[0.03850008663126481,-0.1694041220024601]","[-1,-1,-1]","[0.07645277299387206,0.17495853736633474]","[1,1,1]","[-0.150488328906434,0.0405615988537882]","[1,1,1]","[0.14632706353953304,-0.08302283368935152]","[1,1,1]","[-0.1395297890293755,0.13641407973836261]","[1,1,1]","[0.12763698335424953,-0.13897034945509537]","[1,1,1]","[0.07940281347111491,0.10113074861233587]","[-1,-1,-1]","[-0.07425018757458643,0.10899131467459802]","[1,1,1]","[0.01952882340179032,-0.02995669248308192]","[1,1,1]","[0.01198699145112722,0.06560613998418836]","[-1,-1,-1]","[0.03608587319308124,0.13282756545957672]","[-1,-1,-1]","[-0.10987431923162287,-0.03964865548200456]","[1,1,1]","[-0.005463091806200838,-0.12349526454020084]","[1,1,1]","[0.02,0.02]",1356.7299,0,21,21,98,1,,,,,,,
,,,,,,,6630ec10efe9f6624eb24482,682db3a42fc17d186799f38d,2025-05-21_13h06.31.300,cuing_paradigm_dot,2024.1.5,Win32,59.88023952,682d556593cb38ad0a074487,,,,,,,,,,,1356.7305,1357.23,,,1357.4807,1357.93,right,0.4423,,,,,,,,,0.45,,,,,,1357.23,1357.4807,1357.93,"[-0.035260198233330285,0.14509568766314496]","[-1,-1,-1]","[0.0897678570620815,0.012679270301402937]","[-1,-1,-1]","[-0.0913624303263634,0.06888272623235868]","[-1,-1,-1]","[0.10632913290078527,-0.02599552235587719]","[1,1,1]","[-0.02259374059688755,0.039431418748137756]","[1,1,1]","[-0.008705408470433622,0.08671578955761468]","[-1,-1,-1]","[0.1621031620153784,-0.043739763892579275]","[-1,-1,-1]","[-0.10189548481070004,0.16075513235260744]","[-1,-1,-1]","[0.017202560664836223,-0.1637515290059718]","[1,1,1]","[0.020740809702768457,0.05442967055980804]","[-1,-1,-1]","[-0.04974150678284067,-0.06340406189366737]","[1,1,1]","[0.045826154596792804,0.008748261215712603]","[1,1,1]","[0.08823374479669571,-0.13077961197042703]","[-1,-1,-1]","[0.018359624189073883,-0.08298134035321414]","[-1,-1,-1]","[0.13548831075299209,0.08211530499429681]","[1,1,1]","[-0.17575261633492073,0.013799413589172508]","[1,1,1]","[-0.060994189870679415,0.10565768313996424]","[-1,-1,-1]","[0.0372868506504931,-0.12035033301912429]","[1,1,1]","[0.05451276656013782,0.0979486233317148]","[-1,-1,-1]","[0.1642609883216004,0.1121625220398712]","[-1,-1,-1]","[0.18317093945637916,0.019263556943052658]","[-1,-1,-1]","[0.08691834254703056,-0.08006692673099383]","[-1,-1,-1]","[0.010802112896371436,0.1756283887240473]","[1,1,1]","[-0.10578323508005462,0.007897038550958795]","[-1,-1,-1]","[-0.06806120826888956,0.18707929673643545]","[1,1,1]","[0.1318521179294183,0.03721934690590758]","[1,1,1]","[-0.0515424506499885,-0.15082646213232995]","[-1,-1,-1]","[-0.11365131194230724,-0.150507201214245]","[-1,-1,-1]","[-0.13186510577890403,-0.08232678980530116]","[1,1,1]","[-0.16957865534675365,-0.10369492598295443]","[-1,-1,-1]","[-0.16522312670410713,0.0689703174881904]","[1,1,1]","[0.11608063936629777,0.16283151069565885]","[1,1,1]","[0.02,0.02]",1359.03,0,22,22,67,1,,,,,,,
,,,,,,,6630ec10efe9f6624eb24482,682db3a42fc17d186799f38d,2025-05-21_13h06.31.300,cuing_paradigm_dot,2024.1.5,Win32,59.88023952,682d556593cb38ad0a074487,,,,,,,,,,,1359.0305,1359.5293,,,1359.7797,1360.0133,right,0.2184,,,,,,,,,0.9,,,,,,1359.5294,1359.7797,1360.0134,"[-0.1127144987580264,0.0901060862711469]","[1,1,1]","[0.1206814663958751,-0.052852287889018794]","[1,1,1]","[0.12446753569153181,0.011173833173427]","[-1,-1,-1]","[-0.15829723079620245,0.0021732461177171696]","[1,1,1]","[-0.13570780274676086,-0.04338981581957519]","[1,1,1]","[0.021104463713832768,0.1784640241768528]","[1,1,1]","[0.17825836390696567,0.06889192060378026]","[1,1,1]","[-0.04818240177360122,-0.020894664895293766]","[1,1,1]","[-0.015751838466719327,-0.05676824050604087]","[1,1,1]","[-0.04861244686457312,-0.12358569466816807]","[1,1,1]","[-0.02836755993544291,0.16844478538753893]","[1,1,1]","[0.005005872544382593,-0.17115396741399286]","[1,1,1]","[-0.01648645617567934,0.038289744217842356]","[1,1,1]","[-0.008033375203028787,-0.12195225375253606]","[1,1,1]","[0.1700939874384116,-0.08684813261657648]","[1,1,1]","[-0.08415833982174495,0.015123203426273423]","[1,1,1]","[0.054941162716568806,-0.1568467150943648]","[1,1,1]","[-0.1356387082058442,-0.10199987594319769]","[1,1,1]","[0.047825756169500085,-0.07953898893221167]","[-1,-1,-1]","[-0.1563986683112879,0.07192247232258092]","[1,1,1]","[-0.18919553506125214,-0.05630676653877504]","[-1,-1,-1]","[0.0871033076356369,0.0618368022790771]","[1,1,1]","[0.19696974970046352,0.003929622727897211]","[1,1,1]","[-0.08520891287955129,0.1277859343156067]","[1,1,1]","[0.09117159679863528,0.11768545867865292]","[1,1,1]","[0.1363420245761766,0.0862056795825544]","[1,1,1]","[0.04002598042051623,0.10557494375734332]","[1,1,1]","[0.09020438838280372,-0.09827704649083062]","[1,1,1]","[-0.09538310001933134,-0.11874809703720474]","[1,1,1]","[-0.07149908931914827,-0.16852182928020817]","[1,1,1]","[0.043224859149253045,0.05097156258363974]","[1,1,1]","[0.15674886678519825,-0.0222329976752411]","[1,1,1]","[0.02,0.02]",1361.1127,0,23,23,183,1,,,,,,,
,,,,,,,6630ec10efe9f6624eb24482,682db3a42fc17d186799f38d,2025-05-21_13h06.31.300,cuing_paradigm_dot,2024.1.5,Win32,59.88023952,682d556593cb38ad0a074487,,,,,,,,,,,1361.1132,1361.6127,,,1361.863,1362.0291,right,0.16,,,,,,,,,0.6,,,,,,1361.6127,1361.8629,1362.0292,"[-0.1605382588777057,-0.0022761813106521468]","[1,1,1]","[-0.06569357440786158,0.0860142015809897]","[1,1,1]","[0.15905721385231697,-0.0757724598555054]","[1,1,1]","[0.12016276111860594,0.03246073860067585]","[-1,-1,-1]","[-0.07124121942255902,0.14561990725325116]","[1,1,1]","[0.07156031134866642,0.14407207041999096]","[1,1,1]","[-0.14947403074375212,-0.042141408987323666]","[1,1,1]","[-0.08924686243511153,-0.06742277513095679]","[1,1,1]","[0.15899207723607958,-0.019900778025803784]","[-1,-1,-1]","[-0.11005310250171992,-0.15110999105186323]","[1,1,1]","[-0.1609024868350859,0.05207010795692201]","[1,1,1]","[0.05221233388049357,0.045290419370675926]","[1,1,1]","[0.11862397081670524,-0.06438144525180825]","[-1,-1,-1]","[-0.009888714440652938,0.12004251988281514]","[1,1,1]","[0.08327521625993996,-0.1538850033308141]","[-1,-1,-1]","[-0.10914569032565423,0.10155313774325456]","[-1,-1,-1]","[-0.013751387158383314,-0.042059904781278544]","[-1,-1,-1]","[-0.03334268176667965,-0.18043136939904814]","[1,1,1]","[-0.0030352164265849864,-0.13596625344177396]","[1,1,1]","[0.003858209761449601,0.03430731089583805]","[-1,-1,-1]","[-0.14936456941193715,-0.09782057064866394]","[1,1,1]","[0.012580104826147496,0.1620347506905163]","[1,1,1]","[-0.07631026595168454,-0.02535626205020033]","[1,1,1]","[0.08315362691914721,0.09956556356710503]","[1,1,1]","[0.15498468903783394,0.08779182005388202]","[-1,-1,-1]","[0.10114508456289949,-0.026494262834489395]","[1,1,1]","[-0.11212442713697017,0.15377032498046286]","[-1,-1,-1]","[-0.1177176979898259,0.009347486831528726]","[1,1,1]","[0.031402318888251325,-0.038195949074545474]","[-1,-1,-1]","[-0.03889824236123828,-0.09070378001900212]","[-1,-1,-1]","[0.014428953786620657,-0.18483444661596599]","[-1,-1,-1]","[-0.045792155911489024,0.04165166027877602]","[-1,-1,-1]","[0.02,0.02]",1363.1287,0,24,24,173,1,,,,,,,
,,,,,,,6630ec10efe9f6624eb24482,682db3a42fc17d186799f38d,2025-05-21_13h06.31.300,cuing_paradigm_dot,2024.1.5,Win32,59.88023952,682d556593cb38ad0a074487,,,,,,,,,,,1363.1292,1363.6287,,,1363.879,1364.229,left,0.3381,,,,,,,,,0.4,,,,,,1363.6288,1363.8789,1364.229,"[-0.015236119218299836,-0.18346640746573184]","[1,1,1]","[0.105668452030992,0.0029737875519454506]","[1,1,1]","[-0.09975979463306796,-0.1412319364134943]","[-1,-1,-1]","[0.14066683843655264,-0.09363331426144643]","[1,1,1]","[-0.1835904740241964,-0.008277998709398014]","[1,1,1]","[0.12124464208194816,-0.1547649773334154]","[-1,-1,-1]","[0.18900563789376787,0.027822707638204974]","[-1,-1,-1]","[-0.07544949905184678,-0.061159327047256816]","[-1,-1,-1]","[-0.07943141109441437,0.041189710245585404]","[-1,-1,-1]","[-0.12509967750357473,-0.0989982481846995]","[-1,-1,-1]","[-0.015393860231882463,0.1580800602563068]","[1,1,1]","[-0.12833989717168925,0.1225124496843226]","[-1,-1,-1]","[0.0699749334664612,0.18495099465291368]","[-1,-1,-1]","[0.009110596444965017,-0.06705660300784738]","[1,1,1]","[-0.042352939015360934,0.0935151393535341]","[-1,-1,-1]","[-0.0477322583933279,0.13441129786808137]","[1,1,1]","[-0.025589438714127076,0.00804994563764692]","[-1,-1,-1]","[-0.11478362854894548,-0.050612341390951505]","[-1,-1,-1]","[0.03683240239822505,-0.1605340808117075]","[1,1,1]","[0.07839990826643886,0.09220167612775275]","[-1,-1,-1]","[0.022753145021782814,0.12204865775568068]","[-1,-1,-1]","[0.18710743339248648,-0.0414319304798722]","[-1,-1,-1]","[0.02725232566986736,-0.009108364890799492]","[-1,-1,-1]","[0.11410001576834256,0.16129188974196385]","[1,1,1]","[0.14412182932737833,0.0931948716012158]","[1,1,1]","[-0.1519206646204906,0.07933638171415079]","[1,1,1]","[0.08360269019586641,-0.08351618325513893]","[-1,-1,-1]","[0.12915186025871453,-0.04530922224799353]","[1,1,1]","[0.102455317005334,0.05183054642542609]","[-1,-1,-1]","[-0.043827597510313815,-0.1284548194038931]","[-1,-1,-1]","[-0.044210724229962306,-0.028575608460345545]","[-1,-1,-1]","[0.14545538478172923,0.01630640758296334]","[1,1,1]","[0.02,0.02]",1365.3283,0,25,25,36,1,,,,,,,
,,,,,,,6630ec10efe9f6624eb24482,682db3a42fc17d186799f38d,2025-05-21_13h06.31.300,cuing_paradigm_dot,2024.1.5,Win32,59.88023952,682d556593cb38ad0a074487,,,,,,,,,,,1365.3288,1365.8282,,,1366.0785,1366.3452,right,0.2505,,,,,,,,,0.9,,,,,,1365.8282,1366.0785,1366.3453,"[-0.007388860954322694,0.19445812441446225]","[1,1,1]","[0.17822215137793973,-0.05306820569727461]","[1,1,1]","[-0.06689152276052805,0.048472308059218226]","[1,1,1]","[-0.08481261689902501,-0.14145958181116974]","[1,1,1]","[0.14120800092459798,0.08976284550369967]","[1,1,1]","[0.10515012409718832,0.01873125108568106]","[-1,-1,-1]","[-0.1488798309553293,0.13274273080689888]","[1,1,1]","[0.1685620733178695,0.01342089632719411]","[1,1,1]","[-0.032217242921692375,-0.18802545772433366]","[1,1,1]","[-0.13272149123086374,0.0010541570367801783]","[-1,-1,-1]","[0.0878462883814499,-0.09948844028855275]","[1,1,1]","[0.13508893131959548,-0.08038663183088883]","[1,1,1]","[-0.07426527077797289,0.12418529742611205]","[1,1,1]","[0.02798390457639236,-0.19668774165337505]","[1,1,1]","[-0.16819384786292943,-0.06355264847718473]","[1,1,1]","[0.10166996921270664,0.16276980131802687]","[1,1,1]","[-0.1231068946184311,-0.0847243688206314]","[1,1,1]","[-0.004307355092151328,-0.1148692688039852]","[1,1,1]","[-0.03374379075872927,0.15673592016729626]","[1,1,1]","[0.000242511718064343,-0.02426802149348628]","[1,1,1]","[-0.1354119385986882,-0.13601117484956332]","[1,1,1]","[-0.0008357397038479059,0.0676226157312315]","[1,1,1]","[-0.05353156034170012,-0.08364075800809351]","[1,1,1]","[0.13434178758216714,-0.12723110365603907]","[1,1,1]","[-0.1590588540591786,0.09398351666766216]","[-1,-1,-1]","[0.06717969701573633,0.1096494829385805]","[1,1,1]","[0.05882731110630956,-0.027100007245791372]","[1,1,1]","[0.05127750463301996,0.028400104901248252]","[1,1,1]","[-0.11850158074299154,0.07435690300076929]","[1,1,1]","[0.06513513580652401,-0.18119191810177995]","[1,1,1]","[0.16875245867479136,0.057353165971285286]","[1,1,1]","[-0.03894513640628293,0.09901096253995287]","[1,1,1]","[0.02,0.02]",1367.4449,0,26,26,207,1,,,,,,,
,,,,,,,6630ec10efe9f6624eb24482,682db3a42fc17d186799f38d,2025-05-21_13h06.31.300,cuing_paradigm_dot,2024.1.5,Win32,59.88023952,682d556593cb38ad0a074487,,,,,,,,,,,1367.4453,1367.9447,,,1368.1954,1368.6277,right,0.4268,,,,,,,,,0.9,,,,,,1367.9447,1368.1953,1368.6278,"[0.090077581415181,-0.060538410556957176]","[1,1,1]","[-0.0876403929317282,0.08690943270473747]","[-1,-1,-1]","[-0.02117228202933939,-0.10222718505629838]","[1,1,1]","[0.044049755748300674,0.04625910294953267]","[1,1,1]","[0.07804804649002704,0.08375675404409172]","[1,1,1]","[0.07998248267153277,-0.14013124492663187]","[1,1,1]","[0.16449580843752484,-0.0536993619965216]","[1,1,1]","[-0.060347122343173014,-0.03503762250951406]","[1,1,1]","[-0.06643798644667154,-0.09144363805408474]","[1,1,1]","[-0.13019100827433105,0.005313149064850281]","[1,1,1]","[-0.15789887404251,0.03682126302242122]","[1,1,1]","[0.03196086472085552,-0.1380666836919099]","[1,1,1]","[0.14955265674315113,-0.097412707668296]","[1,1,1]","[-0.01216105383547883,0.11830065653262031]","[1,1,1]","[-0.17934443940948366,0.0008663000837443889]","[1,1,1]","[-0.03410885691361437,0.1575957093228755]","[1,1,1]","[-0.11769774335018761,0.05954964905350831]","[1,1,1]","[-0.02771212328377724,-0.002754157986858886]","[1,1,1]","[0.02320963799389623,0.09402194148021388]","[1,1,1]","[0.16223085058449313,0.06172694423333729]","[1,1,1]","[-0.09376436662675813,0.1315593127373381]","[1,1,1]","[0.13615309821769098,0.022847608943880073]","[1,1,1]","[-0.10581699075038505,-0.06033159509242467]","[-1,-1,-1]","[0.10790010599279647,0.15431700789741945]","[-1,-1,-1]","[-0.008431390325364217,-0.19528310119833917]","[1,1,1]","[0.0312634444764916,0.1965212603498318]","[1,1,1]","[0.11883147175217551,0.06844012529128467]","[1,1,1]","[0.06413531514628122,0.15171550013085877]","[1,1,1]","[-0.1027577229547627,-0.12963053263982202]","[1,1,1]","[-0.14136782214581387,-0.08732575588569415]","[1,1,1]","[0.09239526032062259,0.024597334528212104]","[1,1,1]","[-0.052656323859095626,0.0638970021808059]","[1,1,1]","[0.02,0.02]",1369.7279,0,27,27,199,1,,,,,,,
,,,,,,,6630ec10efe9f6624eb24482,682db3a42fc17d186799f38d,2025-05-21_13h06.31.300,cuing_paradigm_dot,2024.1.5,Win32,59.88023952,682d556593cb38ad0a074487,,,,,,,,,,,1369.7284,1370.2278,,,1370.4779,1370.9109,right,0.4239,,,,,,,,,0.5,,,,,,1370.2278,1370.4778,1370.9109,"[0.05485258789663489,0.07056505150402463]","[-1,-1,-1]","[0.1331970869436694,-0.02780981088817851]","[-1,-1,-1]","[-0.09926473629678347,0.010274942565464008]","[1,1,1]","[0.10890747592068882,0.09149631654330231]","[-1,-1,-1]","[-0.024571553907319247,-0.17022750851304164]","[1,1,1]","[-0.15883848715263393,0.04055324569612642]","[-1,-1,-1]","[0.009801188919427632,0.1182090601695783]","[1,1,1]","[0.14568122174135192,-0.075388803204494]","[1,1,1]","[0.15269632332998226,0.026869242761617822]","[1,1,1]","[-0.03167945772074857,-0.05325878834929948]","[1,1,1]","[-0.07695950882844031,-0.09507295674149692]","[1,1,1]","[0.19028574662860376,-0.0008855051759438954]","[-1,-1,-1]","[-0.14560034437859762,-0.03184623573087238]","[1,1,1]","[-0.15033176008277743,-0.07410179523675164]","[-1,-1,-1]","[0.0624510499103185,-0.13069871406939065]","[-1,-1,-1]","[-0.00974303738685972,0.03023029566451269]","[1,1,1]","[-0.07924677129818114,0.15907478333196054]","[-1,-1,-1]","[0.04471831097029673,-0.020177715069550572]","[1,1,1]","[0.09790990178476675,0.1334131143879173]","[-1,-1,-1]","[0.07333925859780066,0.020601871512875316]","[-1,-1,-1]","[0.02547603939290063,0.1616924918123889]","[-1,-1,-1]","[-0.19084771239768653,-0.016813096592106582]","[1,1,1]","[-0.11168772345917106,-0.13621848309230877]","[1,1,1]","[0.0846090325683584,0.1801692635181917]","[1,1,1]","[-0.062059067318505474,0.08937597332488276]","[1,1,1]","[-0.022148477862185687,0.08088763859044691]","[1,1,1]","[0.025831605580332786,-0.16144312918167564]","[-1,-1,-1]","[-0.15610918224301296,0.12297261767659326]","[-1,-1,-1]","[-0.03243228131920909,0.14323671998810228]","[-1,-1,-1]","[0.0904809492389156,-0.04943242678579168]","[-1,-1,-1]","[-0.05208013645758784,-0.1277337790717782]","[-1,-1,-1]","[0.04922418607641157,-0.08300983553544197]","[1,1,1]","[0.02,0.02]",1372.0103,0,28,28,118,1,,,,,,,
,,,,,,,6630ec10efe9f6624eb24482,682db3a42fc17d186799f38d,2025-05-21_13h06.31.300,cuing_paradigm_dot,2024.1.5,Win32,59.88023952,682d556593cb38ad0a074487,,,,,,,,,,,1372.0108,1372.5105,,,1372.7608,1373.2605,left,0.4842,,,,,,,,,0.5,,,,,,1372.5105,1372.7608,1373.2606,"[-0.04472872145016511,0.14123974576684553]","[-1,-1,-1]","[-0.16868940866204257,0.008639758456421303]","[1,1,1]","[-0.13970993228588327,-0.0599972545854859]","[1,1,1]","[0.1545756731264157,-0.11839227947910118]","[-1,-1,-1]","[0.056293536637109204,-0.024285354741044072]","[1,1,1]","[0.12289645599525909,-0.14909893909541283]","[1,1,1]","[0.025507167568944104,-0.06650222457680047]","[1,1,1]","[0.18312333001273226,-0.05465807383767079]","[-1,-1,-1]","[0.026018875693575635,-0.1646811931165716]","[1,1,1]","[-0.10234540572124402,0.12871247086510273]","[1,1,1]","[0.11539889698570825,0.032912632405343895]","[1,1,1]","[-0.07834564842537035,0.16362492079631807]","[-1,-1,-1]","[-0.009221394077326972,0.16610954823784638]","[1,1,1]","[-0.020136392514494447,-0.07959325026623956]","[-1,-1,-1]","[0.13862968704186462,-0.0714846896722944]","[1,1,1]","[0.07366894189353611,0.09197941195501355]","[1,1,1]","[-0.06117242802517307,0.029414418585159596]","[-1,-1,-1]","[-0.08550428061947989,-0.14716267977163586]","[-1,-1,-1]","[0.01489809744289987,0.12566649228484814]","[1,1,1]","[-0.033277147430647434,-0.13480415362424766]","[-1,-1,-1]","[0.16014694595481507,0.008244538164916092]","[-1,-1,-1]","[0.14070979162972785,0.07883429620377205]","[-1,-1,-1]","[0.09246396306895777,-0.05723130929414322]","[-1,-1,-1]","[-0.030320143150147243,0.09490720802702382]","[1,1,1]","[-0.07457140636804223,-0.01260707061353985]","[1,1,1]","[-0.11505607843483136,-0.09268823362980773]","[-1,-1,-1]","[0.06239998106957265,-0.11610045794150028]","[-1,-1,-1]","[0.07927033019470084,0.15882738774867308]","[1,1,1]","[-0.12732586891633327,0.06594610097388212]","[-1,-1,-1]","[-0.009943223612134976,-0.19253893582145395]","[-1,-1,-1]","[0.00979133679917792,0.039139018015399034]","[-1,-1,-1]","[0.11726649402102815,0.12819124997632644]","[1,1,1]","[0.02,0.02]",1374.3599,0,29,29,102,1,,,,,,,
,,,,,,,6630ec10efe9f6624eb24482,682db3a42fc17d186799f38d,2025-05-21_13h06.31.300,cuing_paradigm_dot,2024.1.5,Win32,59.88023952,682d556593cb38ad0a074487,,,,,,,,,,,1374.3604,1374.8603,,,1375.1103,1375.3599,right,0.2334,,,,,,,,,0.9,,,,,,1374.8604,1375.1102,1375.36,"[-0.15353448086298946,0.08331406298725524]","[1,1,1]","[0.042514803433004296,-0.11746037128916728]","[1,1,1]","[-0.1713471733914078,-0.08513572704821899]","[1,1,1]","[0.0743127131422044,0.1728017853850753]","[1,1,1]","[0.04468694837352867,0.005741544546597115]","[1,1,1]","[-0.11496061732377491,0.005508332699047958]","[1,1,1]","[0.10903764936172572,0.06539540645841628]","[1,1,1]","[-0.057021532604770615,0.0824914609528505]","[1,1,1]","[0.1334030831448339,-0.0625229082440604]","[-1,-1,-1]","[0.015126542463188935,0.15371490157535736]","[1,1,1]","[0.024955427679910134,-0.18157315096056467]","[1,1,1]","[-0.012991586702429479,-0.006420455568821305]","[1,1,1]","[-0.05385335062715883,-0.1905282642088804]","[1,1,1]","[0.1254494634246364,-0.12605366695251435]","[1,1,1]","[-0.06483116108838591,0.1328179925326143]","[1,1,1]","[0.0591855179685156,-0.07731458730077252]","[1,1,1]","[-0.12546184849099193,-0.08559720726977274]","[-1,-1,-1]","[0.06714941931036143,-0.17583958207615102]","[1,1,1]","[0.1784367440664506,0.06636896108107276]","[1,1,1]","[0.05858592830844467,0.05841095376010743]","[1,1,1]","[-0.10984948343763098,0.055872368430206]","[1,1,1]","[-0.08072914606463122,0.026670144742787876]","[1,1,1]","[-0.08401746566874391,-0.15794730775427687]","[1,1,1]","[-0.1637553743033042,-0.022183116108082823]","[1,1,1]","[-0.1256974406492355,0.1441899867033055]","[-1,-1,-1]","[-0.08545527788150047,-0.11388799924632348]","[1,1,1]","[0.1422526696025219,0.018962718648235375]","[1,1,1]","[0.011080981742883,0.04887361014462576]","[1,1,1]","[-0.056117332755826484,-0.07520331619968666]","[1,1,1]","[0.1536920331690558,0.09817611672800396]","[1,1,1]","[0.012911397474875628,-0.04446392133241317]","[1,1,1]","[-0.12357838427413007,-0.1438952718668213]","[1,1,1]","[0.02,0.02]",1376.4598,0,30,30,180,1,,,,,,,
,,,,,,,6630ec10efe9f6624eb24482,682db3a42fc17d186799f38d,2025-05-21_13h06.31.300,cuing_paradigm_dot,2024.1.5,Win32,59.88023952,682d556593cb38ad0a074487,,,,,,,,,,,1376.4604,1376.9593,,,1377.2099,1377.493,left,0.2675,,,,,,,,,0.1,,,,,,1376.9594,1377.2098,1377.493,"[-0.0917023183057823,-0.17182943864751538]","[-1,-1,-1]","[0.1255277886237546,0.06672259677552592]","[-1,-1,-1]","[0.0716557189376028,-0.12657927547510736]","[1,1,1]","[-0.004076801651850524,-0.03381246648668219]","[-1,-1,-1]","[-0.06982520643853914,-0.018470162059014805]","[-1,-1,-1]","[0.18268255451923998,-0.01779834254301453]","[-1,-1,-1]","[-0.07113608776431812,0.13615060340913507]","[-1,-1,-1]","[-0.006762060059287229,-0.14624391844237]","[-1,-1,-1]","[0.049858139647385794,0.1422998189117398]","[-1,-1,-1]","[-0.18408476298054643,-0.004328697403539327]","[-1,-1,-1]","[-0.01627501664170247,0.10744314682617824]","[-1,-1,-1]","[0.08571850380370255,-0.04022069261132579]","[-1,-1,-1]","[0.08481262003242263,0.10707666777502174]","[-1,-1,-1]","[-0.1398511735268075,0.006588629841597391]","[-1,-1,-1]","[-0.09794819436235282,-0.10976631187613253]","[-1,-1,-1]","[0.10017441833941254,-0.002822243019395125]","[-1,-1,-1]","[0.016250620004942776,-0.19106260243034479]","[-1,-1,-1]","[-0.16172854687303898,-0.06089180378418971]","[-1,-1,-1]","[-0.16588538751081683,0.046304763018047174]","[-1,-1,-1]","[0.14141059988133495,-0.029865699988793116]","[-1,-1,-1]","[-0.1523915422654185,-0.12707334017180985]","[-1,-1,-1]","[0.040552874675312094,-0.062466473349041006]","[-1,-1,-1]","[0.12491159851137076,-0.14275079355506307]","[-1,-1,-1]","[0.003432463099887935,0.14828114990425487]","[-1,-1,-1]","[-0.006409581086496229,0.03778091797827383]","[1,1,1]","[0.058704307885130966,-0.18824176155276925]","[1,1,1]","[0.16564351604312305,0.05793814632801987]","[-1,-1,-1]","[0.10654887295563424,0.15743458907526311]","[-1,-1,-1]","[-0.08559417811672425,0.09090181216112012]","[-1,-1,-1]","[-0.13267232175739382,0.07477281666313217]","[-1,-1,-1]","[-0.03827275224762032,-0.08508091270260687]","[-1,-1,-1]","[0.08990962309070782,0.041486278541558994]","[-1,-1,-1]","[0.02,0.02]",1378.5922,0,31,31,11,1,,,,,,,
,,,,,,,6630ec10efe9f6624eb24482,682db3a42fc17d186799f38d,2025-05-21_13h06.31.300,cuing_paradigm_dot,2024.1.5,Win32,59.88023952,682d556593cb38ad0a074487,,,,,,,,,,,1378.5926,1379.0924,,,1379.3425,1379.8089,right,0.4531,,,,,,,,,0.9,,,,,,1379.0924,1379.3424,1379.809,"[-0.19900618533123593,-0.0008603890065708949]","[1,1,1]","[-0.08967549366039469,0.10451934784890918]","[1,1,1]","[0.09302450728900853,0.17236678031398758]","[1,1,1]","[0.027181670587128465,-0.01824136580343925]","[1,1,1]","[0.12864847385523906,0.11226282883887516]","[1,1,1]","[-0.1296240407267697,-0.11012865546134142]","[1,1,1]","[-0.025904845535629557,-0.17937486430590155]","[1,1,1]","[0.12296783365089586,-0.105257170623571]","[1,1,1]","[-0.11654239759024292,-0.03384278039762914]","[1,1,1]","[-0.05203098665748075,0.14142810521850174]","[1,1,1]","[-0.030815583254530404,-0.1281917509501581]","[1,1,1]","[0.14683095214229758,0.03147285312288762]","[1,1,1]","[-0.14324537481174748,0.11799189012194598]","[1,1,1]","[0.10911196143093747,0.07577376323026289]","[1,1,1]","[0.016282989408951735,-0.1709056337226034]","[1,1,1]","[-0.10793622343574953,0.03999421176594517]","[1,1,1]","[0.07540646721592957,-0.03699786852006866]","[-1,-1,-1]","[0.10815501674306005,0.00890413993302611]","[1,1,1]","[-0.16496350333579934,0.07020588684733538]","[1,1,1]","[0.05197748572386688,-0.12825292173647354]","[1,1,1]","[0.1333213860441261,-0.04488798418617019]","[1,1,1]","[0.06389091802549643,-0.08800654724694643]","[-1,-1,-1]","[-0.044511652450149514,0.07363754139413486]","[1,1,1]","[0.09262749826416813,-0.1675387274645069]","[1,1,1]","[-0.06586142956268934,0.006659979701534149]","[1,1,1]","[0.04338588766007017,0.022892462314494495]","[1,1,1]","[0.16818427457845747,0.09922690055352798]","[1,1,1]","[0.003956817409068017,0.07752052148934442]","[1,1,1]","[0.04988527227070819,0.1521502239219451]","[1,1,1]","[0.19350095000130332,0.016787725699552985]","[-1,-1,-1]","[0.17718784738518462,-0.08162230238597738]","[1,1,1]","[-0.07735767443037232,0.1768141521939681]","[1,1,1]","[0.02,0.02]",1380.9089,0,32,32,206,1,,,,,,,
,,,,,,,6630ec10efe9f6624eb24482,682db3a42fc17d186799f38d,2025-05-21_13h06.31.300,cuing_paradigm_dot,2024.1.5,Win32,59.88023952,682d556593cb38ad0a074487,,,,,,,,,,,1380.9092,1381.4084,,,1381.6588,1382.1251,right,0.4602,,,,,,,,,0.55,,,,,,1381.4084,1381.6588,1382.1251,"[-0.0233846135373484,0.10476878156533949]","[-1,-1,-1]","[0.17408003813679943,-0.08636112042655167]","[-1,-1,-1]","[0.08521885097384506,-0.14156960084604087]","[1,1,1]","[0.11262310206633157,0.1499271047798445]","[1,1,1]","[-0.028594564950835323,-0.1694675029908342]","[-1,-1,-1]","[-0.06446881644665711,-0.05559299866393375]","[-1,-1,-1]","[-0.1952220307243123,0.011039217476254288]","[1,1,1]","[0.004626020391790728,-0.06824556873539513]","[-1,-1,-1]","[-0.06860265372078019,-0.014088086380770666]","[-1,-1,-1]","[-0.0997379425081959,-0.13017529255013782]","[1,1,1]","[0.035402016662447015,-0.12495825531326463]","[-1,-1,-1]","[0.10015264495341301,-0.06337667522043271]","[1,1,1]","[-0.13234595741635816,-0.08641953464156368]","[1,1,1]","[-0.1333611824380491,-0.02893159844675551]","[1,1,1]","[-0.1103878451281682,0.03174047194956995]","[1,1,1]","[0.0667470998572212,-0.18582295792192338]","[-1,-1,-1]","[0.09480057700634456,0.023360180640188622]","[1,1,1]","[-0.04859009072340325,0.05934503213571942]","[-1,-1,-1]","[-0.0000461852305614968,0.1498164563640716]","[1,1,1]","[0.11062600172090453,-0.015183575217060999]","[-1,-1,-1]","[0.010631710018218549,0.03678111351112416]","[-1,-1,-1]","[-0.08443674090696714,0.13330124889548614]","[-1,-1,-1]","[0.07294426687212252,0.16136451378159153]","[1,1,1]","[-0.06016630530681294,-0.1388213210653997]","[1,1,1]","[-0.11624520157216843,0.09336727455873355]","[1,1,1]","[0.013061280531067337,-0.1905416955338252]","[1,1,1]","[-0.05734521276399557,0.17477141204373994]","[-1,-1,-1]","[-0.13536511582087057,0.1466757367937591]","[1,1,1]","[0.17914467555692568,-0.02077342366272025]","[1,1,1]","[-0.1612959690185342,0.09377487956603016]","[1,1,1]","[0.0195907412596544,-0.012305439230235795]","[-1,-1,-1]","[0.12893488960702104,0.09152924622727555]","[1,1,1]","[0.02,0.02]",1383.2252,0,33,33,124,1,,,,,,,
,,,,,,,6630ec10efe9f6624eb24482,682db3a42fc17d186799f38d,2025-05-21_13h06.31.300,cuing_paradigm_dot,2024.1.5,Win32,59.88023952,682d556593cb38ad0a074487,,,,,,,,,,,1383.2256,1383.7249,,,1383.9752,1384.3578,left,0.3781,,,,,,,,,0.4,,,,,,1383.725,1383.9751,1384.3579,"[0.018768967034748844,0.18122011229403068]","[-1,-1,-1]","[0.07043167555329131,-0.06081747268332581]","[-1,-1,-1]","[0.052601662478329356,0.13200165051285867]","[1,1,1]","[0.016142087999304153,-0.05755728103934144]","[1,1,1]","[-0.04177101886721322,0.1384933847756854]","[-1,-1,-1]","[-0.11045155091444246,-0.14558745703229192]","[-1,-1,-1]","[0.12921179404993105,-0.018401177017308323]","[-1,-1,-1]","[-0.10177098431700092,0.12110944095172536]","[-1,-1,-1]","[0.14778619012852218,0.10456002852606618]","[1,1,1]","[0.07327089734237918,-0.11756234313076916]","[-1,-1,-1]","[0.03697476315848277,0.09049446896902777]","[-1,-1,-1]","[-0.10721081754213063,-0.07059535308387847]","[-1,-1,-1]","[-0.155942157266169,0.03450040624760589]","[1,1,1]","[-0.08435897109175133,-0.028826059119553122]","[-1,-1,-1]","[-0.020767229071658913,0.0017675905819820171]","[1,1,1]","[-0.03243944260433151,0.08513552969008256]","[1,1,1]","[0.07209511586382539,-0.15873902679309876]","[-1,-1,-1]","[0.12042154823047208,-0.09778389870158068]","[1,1,1]","[-0.09410986393381972,0.168195709779147]","[-1,-1,-1]","[-0.032595103233288736,-0.05320130252168986]","[-1,-1,-1]","[-0.19444963846037053,-0.008755834521873802]","[1,1,1]","[-0.05199513494780977,-0.12384483053887242]","[-1,-1,-1]","[0.1595152581120814,-0.08449619452703276]","[-1,-1,-1]","[0.03493800978939351,-0.18990293980881276]","[1,1,1]","[-0.0645966935248366,0.008388903890205444]","[-1,-1,-1]","[-0.16089243921495186,-0.06948924367091118]","[1,1,1]","[-0.005344725048658207,-0.09493091800436844]","[-1,-1,-1]","[-0.08559062993187383,0.05118134520786802]","[1,1,1]","[0.02977148371452568,0.04719891051739767]","[-1,-1,-1]","[0.0025490165772428077,0.11852706794556797]","[1,1,1]","[-0.004291141272435551,-0.15624627714447875]","[-1,-1,-1]","[0.10001040822218238,0.12069876303843685]","[1,1,1]","[0.02,0.02]",1385.458,0,34,34,58,1,,,,,,,
,,,,,,,6630ec10efe9f6624eb24482,682db3a42fc17d186799f38d,2025-05-21_13h06.31.300,cuing_paradigm_dot,2024.1.5,Win32,59.88023952,682d556593cb38ad0a074487,,,,,,,,,,,1385.4584,1385.9575,,,1386.2077,1386.6578,left,0.4421,,,,,,,,,0.45,,,,,,1385.9575,1386.2077,1386.6579,"[-0.07868033083117959,0.1557922106427478]","[-1,-1,-1]","[-0.06469828609956912,-0.09898576409368579]","[1,1,1]","[0.17945305214664387,-0.07736341392152142]","[-1,-1,-1]","[0.14380751834140265,-0.015411747657453267]","[-1,-1,-1]","[-0.16761676934245814,-0.031007763078703524]","[-1,-1,-1]","[0.09269971630440124,0.09352180208901717]","[1,1,1]","[0.032269727865194324,0.01870715342405987]","[-1,-1,-1]","[0.014017850492034986,-0.03965276832910177]","[1,1,1]","[0.008275127584264226,0.06561468289960207]","[1,1,1]","[0.12363733239564703,-0.08890303201911139]","[1,1,1]","[-0.04857458085905697,0.1211896031857697]","[-1,-1,-1]","[0.08174763540715956,0.020619504998283716]","[-1,-1,-1]","[0.0094404086067087,0.17940589630308323]","[1,1,1]","[0.0008841118935814901,0.13494786857537017]","[1,1,1]","[0.05330280710955226,-0.05175173113471256]","[-1,-1,-1]","[-0.06812858439835129,-0.016058488460844806]","[-1,-1,-1]","[-0.023172416936935433,-0.14382042537925208]","[-1,-1,-1]","[-0.14850076649576693,-0.09171907551826303]","[1,1,1]","[-0.12428533206732419,-0.05644806092160436]","[-1,-1,-1]","[0.17753783242692533,0.052211849743624125]","[1,1,1]","[0.045946000737607184,-0.13810869589304745]","[-1,-1,-1]","[-0.08545246717825725,-0.13695482561248282]","[-1,-1,-1]","[0.08165360584261488,0.14994158767488014]","[1,1,1]","[0.15788068046485662,-0.11410867482205385]","[1,1,1]","[-0.11509547546395082,0.13783757143796452]","[-1,-1,-1]","[0.11598677498762858,-0.13364126407840202]","[1,1,1]","[-0.14118157500297293,0.05074464318977524]","[-1,-1,-1]","[-0.09319365235210522,0.027103126020552485]","[1,1,1]","[0.10940416480921125,-0.0435561988433733]","[-1,-1,-1]","[0.004492089782523716,-0.08192040138042082]","[-1,-1,-1]","[-0.01691796971889916,-0.19116710040350007]","[-1,-1,-1]","[-0.031062207277534455,0.19265940022733732]","[1,1,1]","[0.02,0.02]",1387.7577,0,35,35,68,1,,,,,,,
,,,,,,,6630ec10efe9f6624eb24482,682db3a42fc17d186799f38d,2025-05-21_13h06.31.300,cuing_paradigm_dot,2024.1.5,Win32,59.88023952,682d556593cb38ad0a074487,,,,,,,,,,,1387.7581,1388.2573,,,1388.5076,1388.8569,left,0.3434,,,,,,,,,0.1,,,,,,1388.2573,1388.5075,1388.857,"[0.07267749767222383,-0.11602127939832942]","[-1,-1,-1]","[-0.10813439750256551,-0.029930490405695984]","[-1,-1,-1]","[-0.14150092006636505,0.029763183446876715]","[-1,-1,-1]","[-0.14541647519400155,-0.056746139242229]","[-1,-1,-1]","[0.17469251167944502,-0.07567574501552564]","[-1,-1,-1]","[0.1392862669622689,-0.025710812518630426]","[-1,-1,-1]","[0.09854886577212629,0.14072186079185692]","[-1,-1,-1]","[0.12268395980655486,-0.0896248120869975]","[-1,-1,-1]","[-0.0774410257333758,-0.17100638247858704]","[-1,-1,-1]","[-0.07951610918944611,-0.06944555352992669]","[1,1,1]","[-0.18399435298639066,0.019577946761583462]","[-1,-1,-1]","[0.00693918796843441,0.13266288925927633]","[-1,-1,-1]","[-0.05337857423252533,0.05146719446904843]","[1,1,1]","[0.00959137202322014,-0.06388751889675989]","[-1,-1,-1]","[0.09243674180091037,-0.022549040090599416]","[-1,-1,-1]","[0.17259893630355527,0.07134159759101735]","[-1,-1,-1]","[-0.11790121624828807,0.066314283161589]","[-1,-1,-1]","[0.055265102739009635,0.1752451268043877]","[-1,-1,-1]","[0.03549106890321475,0.06504799610725423]","[-1,-1,-1]","[0.1165640919451354,0.06224659677062184]","[1,1,1]","[-0.1275654680856458,-0.12496612493868128]","[-1,-1,-1]","[0.02401101231367379,-0.13646156796533823]","[-1,-1,-1]","[-0.05679615227642939,0.00027902637933413895]","[-1,-1,-1]","[-0.16997522078419003,0.06302944748726921]","[-1,-1,-1]","[0.07929992256710865,-0.17642543294278443]","[-1,-1,-1]","[-0.004346006942771964,-0.17596204153201175]","[-1,-1,-1]","[-0.06578059152405918,0.1786475665964101]","[-1,-1,-1]","[0.01484327065565195,-0.0020313428914463276]","[-1,-1,-1]","[0.053348967466860506,-0.07466086298187376]","[-1,-1,-1]","[0.13122457488306194,0.11649957294472077]","[-1,-1,-1]","[-0.06851990788126741,0.09760486476186739]","[-1,-1,-1]","[0.1154147002460609,-0.13198877370274686]","[-1,-1,-1]","[0.02,0.02]",1389.9569,0,36,36,28,1,,,,,,,
,,,,,,,6630ec10efe9f6624eb24482,682db3a42fc17d186799f38d,2025-05-21_13h06.31.300,cuing_paradigm_dot,2024.1.5,Win32,59.88023952,682d556593cb38ad0a074487,,,,,,,,,,,1389.9572,1390.4569,,,1390.7072,1391.1065,right,0.393,,,,,,,,,0.45,,,,,,1390.4569,1390.7071,1391.1066,"[-0.10388574795052696,0.08616472027975247]","[-1,-1,-1]","[0.1537428975623642,-0.07507965179360974]","[-1,-1,-1]","[-0.12137746837302515,-0.08661269277124288]","[-1,-1,-1]","[0.1200423934819764,-0.045935848713156466]","[1,1,1]","[-0.0108366225131508,0.12237722380754264]","[-1,-1,-1]","[0.0006765939213745744,-0.18592838284069801]","[1,1,1]","[-0.05396033697913253,-0.1887130332830456]","[1,1,1]","[-0.1448367449382038,-0.015958864303000607]","[1,1,1]","[0.07635919208891817,0.14743514345747777]","[-1,-1,-1]","[-0.030262361729219627,-0.10359414510382595]","[-1,-1,-1]","[-0.12636543595977512,0.04317949168032607]","[-1,-1,-1]","[-0.16680675025260944,-0.0554041905224579]","[1,1,1]","[-0.042294971344960644,0.15656238276070492]","[-1,-1,-1]","[0.05215544580200505,0.09705554547294877]","[-1,-1,-1]","[-0.07405853665550946,-0.11810748772858576]","[-1,-1,-1]","[-0.05697152972629356,0.1083307903399166]","[-1,-1,-1]","[0.07219028638381624,-0.13058741967403442]","[-1,-1,-1]","[-0.017088519967799993,-0.050398882036750046]","[-1,-1,-1]","[-0.10106731313739686,-0.05090332137085574]","[1,1,1]","[0.12391872445586297,0.050073111307039855]","[1,1,1]","[0.06902709486713232,0.040621124458225216]","[-1,-1,-1]","[0.11760347785923804,-0.13544465111649268]","[1,1,1]","[-0.002248935265204273,0.07615434395158026]","[1,1,1]","[-0.06978002673191604,-0.07602317208905304]","[-1,-1,-1]","[0.018794759006232384,0.03301254483552074]","[1,1,1]","[0.14119360736198996,0.11015048536414283]","[-1,-1,-1]","[0.02052035814511376,0.1595085556930845]","[-1,-1,-1]","[-0.19908393497972432,-0.006598631506969054]","[-1,-1,-1]","[-0.10389382864392327,-0.0025535648405265008]","[1,1,1]","[0.0634462015429572,-0.07884066419762802]","[1,1,1]","[-0.15027398572820874,0.10834596759384288]","[1,1,1]","[0.18063335909968195,-0.0022950192631386915]","[1,1,1]","[0.02,0.02]",1392.2065,0,37,37,73,1,,,,,,,
,,,,,,,6630ec10efe9f6624eb24482,682db3a42fc17d186799f38d,2025-05-21_13h06.31.300,cuing_paradigm_dot,2024.1.5,Win32,59.88023952,682d556593cb38ad0a074487,,,,,,,,,,,1392.207,1392.7063,,,1392.9567,1393.1232,left,0.1528,,,,,,,,,0.1,,,,,,1392.7063,1392.9567,1393.1233,"[-0.048725715633424566,0.05479182367802987]","[-1,-1,-1]","[0.049276893765592085,-0.007035798575543969]","[-1,-1,-1]","[-0.10078177496953034,-0.13920359954196926]","[-1,-1,-1]","[0.017265563965117352,0.15181796407260859]","[-1,-1,-1]","[0.06005533670674216,0.06075374763183999]","[-1,-1,-1]","[-0.02124392461242773,-0.09421047294664445]","[-1,-1,-1]","[0.10370511117742805,-0.03094780453060347]","[-1,-1,-1]","[-0.06093546270213102,0.16980767285341863]","[-1,-1,-1]","[-0.07113606182087404,-0.09795690284872494]","[1,1,1]","[-0.09009406804600915,0.09814214547485722]","[-1,-1,-1]","[0.17308489956383558,-0.07358891351250993]","[-1,-1,-1]","[-0.010372807521710443,0.010423795775923455]","[-1,-1,-1]","[0.07061316708822239,-0.062220322852868874]","[-1,-1,-1]","[-0.14299816613811298,0.0066914858331792015]","[-1,-1,-1]","[-0.08112478981805188,-0.027765658177067026]","[-1,-1,-1]","[-0.018563095998892276,-0.048685865004157856]","[-1,-1,-1]","[0.0710701509315692,0.18636760751037607]","[-1,-1,-1]","[-0.051037093486974154,0.11846730884033126]","[-1,-1,-1]","[0.15567938862280112,0.1099203867981632]","[-1,-1,-1]","[0.08271515275752274,-0.14855794260308045]","[-1,-1,-1]","[0.02981299875729185,-0.18115678867597412]","[-1,-1,-1]","[0.12038627728952524,0.014670870411176085]","[1,1,1]","[-0.16006135667052707,0.09245413094523547]","[-1,-1,-1]","[0.03133450322473443,-0.0785736281660588]","[-1,-1,-1]","[-0.13889114373373704,-0.0670119108398187]","[-1,-1,-1]","[0.18620322354678048,0.0638658120496414]","[-1,-1,-1]","[0.05554119108778809,0.13551011083511527]","[1,1,1]","[0.11011864294565028,0.08860631874717012]","[-1,-1,-1]","[-0.19590117399579907,-0.03658179893007156]","[-1,-1,-1]","[-0.18924826549825607,0.011463373424853174]","[-1,-1,-1]","[0.02061384904318888,0.08516022677663973]","[-1,-1,-1]","[0.14077894411970265,0.050614820145937225]","[-1,-1,-1]","[0.02,0.02]",1394.2228,0,38,38,5,1,,,,,,,
,,,,,,,6630ec10efe9f6624eb24482,682db3a42fc17d186799f38d,2025-05-21_13h06.31.300,cuing_paradigm_dot,2024.1.5,Win32,59.88023952,682d556593cb38ad0a074487,,,,,,,,,,,1394.2233,1394.7227,,,1394.973,1395.1891,right,0.2002,,,,,,,,,0.5,,,,,,1394.7228,1394.973,1395.1891,"[0.019598555795551486,0.11805212322322584]","[-1,-1,-1]","[0.1526874156689574,-0.08961200808628521]","[-1,-1,-1]","[-0.04386663971178894,-0.17188574627958625]","[1,1,1]","[-0.10791675920110652,0.16692153404639293]","[1,1,1]","[0.07804850366920461,0.06645733166581823]","[1,1,1]","[0.19372828142600526,-0.0019316936827812488]","[1,1,1]","[0.04088240713155498,0.1612373269707449]","[-1,-1,-1]","[-0.12926299923315546,-0.12196552504929277]","[-1,-1,-1]","[0.13390544009306196,0.11017819856526771]","[-1,-1,-1]","[0.1853848453663254,0.06980159168876322]","[1,1,1]","[0.16713891007421963,0.0337647510650902]","[1,1,1]","[-0.1423481064028762,0.010544291676766366]","[1,1,1]","[-0.03359657849769036,0.19581326271212593]","[-1,-1,-1]","[0.00430596346788163,0.037875036009864305]","[1,1,1]","[-0.009371383993313437,-0.10681155857839299]","[1,1,1]","[0.02824505210103626,-0.08572220742183491]","[-1,-1,-1]","[0.07397238586787733,-0.1810294622947628]","[-1,-1,-1]","[-0.09661908234002933,-0.01263764065495804]","[1,1,1]","[0.11136465417127266,-0.126894563553627]","[-1,-1,-1]","[-0.0786169369783017,-0.1260254698047029]","[1,1,1]","[0.1313086689389046,-0.02788481164336327]","[-1,-1,-1]","[-0.13673961099497153,0.09726522061453023]","[-1,-1,-1]","[-0.05521559658832729,-0.01289432729057914]","[1,1,1]","[-0.07360237338242763,-0.06181838640939063]","[-1,-1,-1]","[-0.13423798434436082,-0.04835667812395695]","[1,1,1]","[0.07554498381831175,-0.015959002482617283]","[-1,-1,-1]","[-0.044065607068329564,0.09681864321434806]","[-1,-1,-1]","[0.08777317580985103,-0.0787367076143418]","[-1,-1,-1]","[-0.08538954267613436,0.1065513661797239]","[1,1,1]","[-0.03526166712004186,0.027597215464384775]","[1,1,1]","[0.014710601385295834,-0.18301448264337675]","[1,1,1]","[-0.17891887884480537,0.059015920438623484]","[-1,-1,-1]","[0.02,0.02]",1396.2893,0,39,39,97,1,,,,,,,
,,,,,,,6630ec10efe9f6624eb24482,682db3a42fc17d186799f38d,2025-05-21_13h06.31.300,cuing_paradigm_dot,2024.1.5,Win32,59.88023952,682d556593cb38ad0a074487,,,,,,,,,,,1396.2899,1396.789,,,1397.0392,1397.2887,right,0.2341,,,,,,,,,0.55,,,,,,1396.7891,1397.0392,1397.2887,"[-0.024554508003082197,0.13374434343095928]","[1,1,1]","[-0.1578794342053817,0.06821805087135079]","[1,1,1]","[-0.0849342961418587,0.05506097181266999]","[1,1,1]","[-0.01326811457550182,-0.0630560113427328]","[1,1,1]","[-0.05974563546890261,0.09920601292417691]","[-1,-1,-1]","[-0.09699651499435104,-0.1378804436609736]","[-1,-1,-1]","[0.0674832199112146,0.18813477269959303]","[1,1,1]","[0.14436955356743708,0.06228080451861838]","[1,1,1]","[0.14199109171035493,0.13267320514898684]","[-1,-1,-1]","[0.1910688936701901,-0.027523530386664153]","[-1,-1,-1]","[0.15422840526506393,0.019704640162832205]","[-1,-1,-1]","[0.0753209713986314,-0.11422033838453663]","[-1,-1,-1]","[-0.19420494967391563,0.035135986506277896]","[-1,-1,-1]","[-0.17023470276705419,-0.0774784797931594]","[-1,-1,-1]","[-0.023227935954463933,-0.12986296805549455]","[-1,-1,-1]","[-0.1269285156592174,0.09385201449334528]","[-1,-1,-1]","[0.10283770521429773,-6.275360388664217e-7]","[-1,-1,-1]","[-0.15796907691187956,-0.015235296942932996]","[1,1,1]","[0.10092815714562375,0.15908341546859361]","[-1,-1,-1]","[0.0017060185991730988,0.027330434216135988]","[1,1,1]","[0.026592738836604766,-0.12557490160190352]","[1,1,1]","[0.13915756587250916,-0.138364521819468]","[1,1,1]","[0.09081340140518737,0.0869751164052827]","[1,1,1]","[-0.06083387647410572,-0.1578332087172388]","[-1,-1,-1]","[0.10015305420207495,0.04381843768920395]","[1,1,1]","[-0.04458356238346014,0.1842616677414838]","[1,1,1]","[0.016471100845628524,0.0863464051814134]","[1,1,1]","[-0.009496802149582893,-0.1684380455532771]","[1,1,1]","[0.05438880883425087,-0.04137876486719274]","[1,1,1]","[-0.1283507488768907,0.15250159508689234]","[-1,-1,-1]","[-0.11762115246045389,-0.0807872499371872]","[1,1,1]","[0.015449409976757061,-0.029772090497916088]","[1,1,1]","[0.02,0.02]",1398.3883,0,40,40,138,1,,,,,,,
,,,,,,,6630ec10efe9f6624eb24482,682db3a42fc17d186799f38d,2025-05-21_13h06.31.300,cuing_paradigm_dot,2024.1.5,Win32,59.88023952,682d556593cb38ad0a074487,,,,,,,,,,,1398.3888,1398.8885,,,1399.1386,1399.5383,left,0.3912,,,,,,,,,0.4,,,,,,1398.8886,1399.1386,1399.5383,"[0.045571744260894956,-0.050205268394608454]","[-1,-1,-1]","[-0.025981201002931643,0.12763681485219366]","[-1,-1,-1]","[-0.08526119147556886,-0.05983396340117718]","[1,1,1]","[-0.1643735407777805,-0.010007398182156214]","[1,1,1]","[0.10464197754619729,-0.029793384475452423]","[1,1,1]","[-0.06571847621280827,-0.13366423274157965]","[-1,-1,-1]","[0.05750448267020725,-0.1496523663169913]","[1,1,1]","[-0.18163661275470774,0.037415565132630856]","[-1,-1,-1]","[0.05988802285913377,-0.011787191010838369]","[-1,-1,-1]","[-0.07459109289979161,0.12182850008092742]","[1,1,1]","[0.0485366000391858,0.1881589104158481]","[1,1,1]","[0.12170509486582938,-0.1272708194779469]","[1,1,1]","[-0.01786407787091132,-0.008076497860006526]","[-1,-1,-1]","[0.14994980118403195,0.09208135255319519]","[-1,-1,-1]","[0.08554236995779942,0.049319382819416675]","[-1,-1,-1]","[-0.03183828239986533,-0.15964313761334786]","[-1,-1,-1]","[-0.06347990998638905,0.03429909308389793]","[1,1,1]","[0.18649260161235637,-0.06087803763789619]","[-1,-1,-1]","[-0.0013092211044597889,-0.19595338473044202]","[-1,-1,-1]","[0.05430215750708355,-0.09237738507459392]","[1,1,1]","[0.09340529718254048,0.12695644113956034]","[-1,-1,-1]","[-0.022967337742896388,-0.05594860334500557]","[-1,-1,-1]","[-0.0021999214995828617,0.053525473955424265]","[1,1,1]","[0.005809839079108436,-0.12392261485487442]","[-1,-1,-1]","[-0.13179392722861216,0.03527625713340921]","[-1,-1,-1]","[0.1838319139849438,0.02831141069590888]","[-1,-1,-1]","[-0.1668513491739239,0.09701222483889645]","[-1,-1,-1]","[-0.07809039681714944,-0.004353506598531908]","[-1,-1,-1]","[-0.17922035039560288,-0.08552706463998352]","[1,1,1]","[-0.004698000750537593,0.18517743143096982]","[-1,-1,-1]","[0.011760903573458006,0.14768344727357938]","[1,1,1]","[0.14684454796771795,-0.030036403158326907]","[1,1,1]","[0.02,0.02]",1400.6378,0,41,41,39,1,,,,,,,
,,,,,,,6630ec10efe9f6624eb24482,682db3a42fc17d186799f38d,2025-05-21_13h06.31.300,cuing_paradigm_dot,2024.1.5,Win32,59.88023952,682d556593cb38ad0a074487,,,,,,,,,,,1400.6383,1401.1378,,,1401.3885,1401.7048,right,0.3003,,,,,,,,,0.6,,,,,,1401.1378,1401.3885,1401.7049,"[0.10024695054070817,-0.006099834184323599]","[1,1,1]","[-0.1825170136262907,0.029360453584933444]","[-1,-1,-1]","[0.13998315172691417,-0.031988831011992055]","[1,1,1]","[-0.09915351141739796,-0.025190415268589148]","[1,1,1]","[-0.005660839880512066,0.1801993435920905]","[-1,-1,-1]","[0.17061566328722358,-0.06497306589259952]","[1,1,1]","[-0.05866611869695723,-0.02499157326312877]","[1,1,1]","[0.13747463221336056,0.09282924144726791]","[1,1,1]","[-0.0545664278944421,0.021222101558636637]","[-1,-1,-1]","[0.0886642235928992,-0.0981173829292558]","[1,1,1]","[0.05285016323188189,0.059700908782936414]","[1,1,1]","[0.10840979704371549,-0.1430437586865843]","[1,1,1]","[-0.020452251122746477,0.13170188207943556]","[1,1,1]","[-0.13512442114821288,0.10576943297800348]","[1,1,1]","[-0.0721543030159691,0.134285704865895]","[1,1,1]","[0.14416272538397407,0.13454460256806144]","[1,1,1]","[0.008628584917846413,-0.09001008942563456]","[-1,-1,-1]","[-0.0011873739499654078,0.04404219691485382]","[-1,-1,-1]","[0.03254373153851312,0.014670482546350682]","[1,1,1]","[-0.06382802103991138,-0.10872793189169008]","[-1,-1,-1]","[-0.051102552818960006,0.06344891338622527]","[-1,-1,-1]","[0.17411357641711034,0.034029434891365895]","[-1,-1,-1]","[-0.1503997687818305,-0.021664568871506053]","[-1,-1,-1]","[-0.13382791167882868,0.037031392307713296]","[-1,-1,-1]","[0.014615439963572618,-0.029769426669299045]","[-1,-1,-1]","[-0.11001582351828085,-0.14464682732224282]","[-1,-1,-1]","[0.08223268591510412,0.11088244720346907]","[1,1,1]","[0.13344629265921276,-0.10253900839864577]","[1,1,1]","[-0.06379303116744912,0.17495901859312904]","[1,1,1]","[-0.026285498070576268,-0.170361741990323]","[-1,-1,-1]","[-0.014152183190885051,0.08810567881023472]","[1,1,1]","[0.03443369292217102,0.14044737019958944]","[1,1,1]","[0.02,0.02]",1402.8045,0,42,42,156,1,,,,,,,
,,,,,,,6630ec10efe9f6624eb24482,682db3a42fc17d186799f38d,2025-05-21_13h06.31.300,cuing_paradigm_dot,2024.1.5,Win32,59.88023952,682d556593cb38ad0a074487,,,,,,,,,,,1402.8049,1403.3043,,,1403.5543,1403.8541,left,0.2845,,,,,,,,,0.4,,,,,,1403.3044,1403.5542,1403.8542,"[-0.12959698532695751,-0.010072068451542827]","[1,1,1]","[0.04530027315576604,0.17255184401639448]","[-1,-1,-1]","[-0.17064475031881132,-0.03165049808206834]","[-1,-1,-1]","[-0.02183364151204053,0.026370655697463302]","[1,1,1]","[0.1658834463289267,0.017217729386774266]","[-1,-1,-1]","[-0.14551229011014247,0.03943528654510169]","[-1,-1,-1]","[0.10076706307705476,0.11073644053148529]","[-1,-1,-1]","[-0.08141156253651984,-0.06801155171232352]","[1,1,1]","[0.040206834055333936,0.016855396033260122]","[-1,-1,-1]","[-0.09949194273388837,-0.1415900617209159]","[-1,-1,-1]","[-0.13025269013691343,0.12930239512201258]","[-1,-1,-1]","[-0.17308861051448077,0.07935619817112664]","[1,1,1]","[0.13024602678239702,-0.0859062747814648]","[1,1,1]","[0.0896435570614902,0.06941576665339946]","[1,1,1]","[0.07183471167012306,-0.10873183340873017]","[1,1,1]","[-0.07955437605141628,0.1341181138536214]","[-1,-1,-1]","[0.05278515314219045,-0.06093246180482118]","[1,1,1]","[0.1980258221307947,-0.01899965661005161]","[-1,-1,-1]","[-0.026906412077527822,0.10606581340167895]","[-1,-1,-1]","[-0.13829083208365348,-0.05604666487530631]","[1,1,1]","[-0.16463862169251087,-0.08947905459603367]","[-1,-1,-1]","[-0.032475884590404826,-0.08723811579421382]","[-1,-1,-1]","[0.008412867201335338,-0.1982633965759744]","[-1,-1,-1]","[0.16185741718054292,-0.05061797228168933]","[-1,-1,-1]","[0.08699070695129583,0.0073546114334691794]","[1,1,1]","[-0.05172438059901425,-0.15371245974805298]","[-1,-1,-1]","[-0.00721778229442172,0.17699163383566646]","[1,1,1]","[0.14404093134361096,0.07288873953785018]","[1,1,1]","[0.03383958882836642,-0.15498872019473525]","[-1,-1,-1]","[-0.007377714231887507,-0.026272349857177177]","[-1,-1,-1]","[-0.07332280769949584,-0.02438613601839008]","[1,1,1]","[-0.09103487773335577,0.17774962262715202]","[-1,-1,-1]","[0.02,0.02]",1404.9538,0,43,43,57,1,,,,,,,
,,,,,,,6630ec10efe9f6624eb24482,682db3a42fc17d186799f38d,2025-05-21_13h06.31.300,cuing_paradigm_dot,2024.1.5,Win32,59.88023952,682d556593cb38ad0a074487,,,,,,,,,,,1404.9543,1405.4536,,,1405.7044,1405.937,left,0.2282,,,,,,,,,0.1,,,,,,1405.4536,1405.7043,1405.937,"[0.010718437240902899,0.1139513195203556]","[-1,-1,-1]","[0.08102545897576802,0.04589707875469812]","[-1,-1,-1]","[0.11947023194207389,-0.09310490371263049]","[1,1,1]","[-0.14212511578108772,-0.06605120925217274]","[-1,-1,-1]","[-0.1167215360041062,0.13629320087430416]","[-1,-1,-1]","[-0.07206906856741065,0.14857999965333488]","[-1,-1,-1]","[0.011916135426481664,-0.120672019896194]","[-1,-1,-1]","[-0.04395636784455144,-0.034912536718908545]","[-1,-1,-1]","[0.16307910275274062,-0.04441157453657265]","[-1,-1,-1]","[-0.08371867394214955,0.06921854940323244]","[-1,-1,-1]","[0.08174291719082663,-0.16344762549527397]","[-1,-1,-1]","[0.13060744985864306,0.042133576780927266]","[-1,-1,-1]","[-0.0594487842616213,-0.13992433860731912]","[-1,-1,-1]","[-0.005226516802987653,-0.1604192134740617]","[-1,-1,-1]","[0.0033120601958709283,0.038938435501676284]","[-1,-1,-1]","[0.057837229650949104,0.12190135722323607]","[-1,-1,-1]","[-0.039974671212071385,0.060245238469333426]","[-1,-1,-1]","[-0.026217315170013515,0.15500653692763838]","[-1,-1,-1]","[0.1879847127646875,0.02508173137955933]","[-1,-1,-1]","[0.056299814665634745,0.004645165620013542]","[-1,-1,-1]","[0.008487409197959279,-0.020326606001647388]","[-1,-1,-1]","[-0.09324547695363525,-0.013896883664670569]","[-1,-1,-1]","[-0.1983400849067418,-0.0181430862713723]","[-1,-1,-1]","[0.11043088819215556,0.13876033610606858]","[-1,-1,-1]","[-0.17227442022066594,0.06194397689530728]","[-1,-1,-1]","[-0.08815080801016391,-0.08616696861101256]","[1,1,1]","[0.0950117397127024,-0.043569832689366025]","[-1,-1,-1]","[0.03451154296131768,-0.17573878668942194]","[1,1,1]","[-0.16450936707749078,-0.1001352331693988]","[-1,-1,-1]","[0.17719365483177754,0.07020406888571003]","[-1,-1,-1]","[0.0016998432207462975,-0.06751289568401378]","[-1,-1,-1]","[0.13055410692269515,-0.0008425593838870762]","[-1,-1,-1]","[0.02,0.02]",1407.0366,0,44,44,15,1,,,,,,,
