right,left,explain.started,explain.stopped,key_resp_3.keys,key_resp_3.rt,key_resp_3.duration,participant,session,date,expName,psychopyVersion,OS,frameRate,study_id,explain_2.started,explain_2.stopped,key_resp_4.keys,key_resp_4.rt,key_resp_4.duration,explain_3.started,explain_3.stopped,key_resp_5.keys,key_resp_5.rt,key_resp_5.duration,fixation.started,fixation.stopped,practice.started,practice.stopped,response.started,response.stopped,key_resp.keys,key_resp.rt,key_resp.duration,feedback.started,feedback.stopped,trials_2.thisRepN,trials_2.thisTrialN,trials_2.thisN,trials_2.thisIndex,trials_2.ran,white_ratio,explain_4.started,explain_4.stopped,key_resp_6.keys,key_resp_6.rt,key_resp_6.duration,dotDisplay.started,dotDisplay.stopped,ITI.started,polygon_1.pos,polygon_1.color,polygon_2.pos,polygon_2.color,polygon_3.pos,polygon_3.color,polygon_4.pos,polygon_4.color,polygon_5.pos,polygon_5.color,polygon_6.pos,polygon_6.color,polygon_7.pos,polygon_7.color,polygon_8.pos,polygon_8.color,polygon_9.pos,polygon_9.color,polygon_10.pos,polygon_10.color,polygon_11.pos,polygon_11.color,polygon_12.pos,polygon_12.color,polygon_13.pos,polygon_13.color,polygon_14.pos,polygon_14.color,polygon_15.pos,polygon_15.color,polygon_16.pos,polygon_16.color,polygon_17.pos,polygon_17.color,polygon_18.pos,polygon_18.color,polygon_19.pos,polygon_19.color,polygon_20.pos,polygon_20.color,polygon_21.pos,polygon_21.color,polygon_22.pos,polygon_22.color,polygon_23.pos,polygon_23.color,polygon_24.pos,polygon_24.color,polygon_25.pos,polygon_25.color,polygon_26.pos,polygon_26.color,polygon_27.pos,polygon_27.color,polygon_28.pos,polygon_28.color,polygon_29.pos,polygon_29.color,polygon_30.pos,polygon_30.color,polygon_31.pos,polygon_31.color,polygon_32.pos,polygon_32.color,dot_size,ITI.stopped,trials.thisRepN,trials.thisTrialN,trials.thisN,trials.thisIndex,trials.ran,break_2.started,break_2.stopped,trials_3.thisRepN,trials_3.thisTrialN,trials_3.thisN,trials_3.thisIndex,trials_3.ran
subject chose black,subject chose white,0.0003,18.1906,space,3.168,,6634e4d4f1950b4dcd44d4d9,682f0323449051f9731f198e,2025-05-22_13h01.42.982,cuing_paradigm_dot,2024.1.5,Win32,59.52380952,682d556593cb38ad0a074487,,,,,,,,,,,,,,,,,,,,,,,,,,,,,,,,,,,,,,,,,,,,,,,,,,,,,,,,,,,,,,,,,,,,,,,,,,,,,,,,,,,,,,,,,,,,,,,,,,,,,,,,,,,,,,,,,
,,,,,,,6634e4d4f1950b4dcd44d4d9,682f0323449051f9731f198e,2025-05-22_13h01.42.982,cuing_paradigm_dot,2024.1.5,Win32,59.52380952,682d556593cb38ad0a074487,18.1908,81.826,space,6.1445,,,,,,,,,,,,,,,,,,,,,,,,,,,,,,,,,,,,,,,,,,,,,,,,,,,,,,,,,,,,,,,,,,,,,,,,,,,,,,,,,,,,,,,,,,,,,,,,,,,,,,,,,,,,,
,,,,,,,6634e4d4f1950b4dcd44d4d9,682f0323449051f9731f198e,2025-05-22_13h01.42.982,cuing_paradigm_dot,2024.1.5,Win32,59.52380952,682d556593cb38ad0a074487,,,,,,81.8263,85.726,space,0.8706,,,,,,,,,,,,,,,,,,,,,,,,,,,,,,,,,,,,,,,,,,,,,,,,,,,,,,,,,,,,,,,,,,,,,,,,,,,,,,,,,,,,,,,,,,,,,,,,,,,,,,,,
,,,,,,,6634e4d4f1950b4dcd44d4d9,682f0323449051f9731f198e,2025-05-22_13h01.42.982,cuing_paradigm_dot,2024.1.5,Win32,59.52380952,682d556593cb38ad0a074487,,,,,,,,,,,85.7415,86.2427,86.2429,86.4973,86.4974,86.9268,left,0.4022,,86.927,88.0293,0,0,0,0,1,0.8,,,,,,,,,,,,,,,,,,,,,,,,,,,,,,,,,,,,,,,,,,,,,,,,,,,,,,,,,,,,,,,,,,,,,,,,,,,,,,,,,,,,,,
,,,,,,,6634e4d4f1950b4dcd44d4d9,682f0323449051f9731f198e,2025-05-22_13h01.42.982,cuing_paradigm_dot,2024.1.5,Win32,59.52380952,682d556593cb38ad0a074487,,,,,,,,,,,88.0297,88.526,88.5261,88.7771,88.7773,89.3764,right,0.5917,,89.3765,90.4759,0,1,1,1,1,0.2,,,,,,,,,,,,,,,,,,,,,,,,,,,,,,,,,,,,,,,,,,,,,,,,,,,,,,,,,,,,,,,,,,,,,,,,,,,,,,,,,,,,,,
,,,,,,,6634e4d4f1950b4dcd44d4d9,682f0323449051f9731f198e,2025-05-22_13h01.42.982,cuing_paradigm_dot,2024.1.5,Win32,59.52380952,682d556593cb38ad0a074487,,,,,,,,,,,,,,,,,,,,,,,,,,,,90.4763,94.3599,space,0.8571,,,,,,,,,,,,,,,,,,,,,,,,,,,,,,,,,,,,,,,,,,,,,,,,,,,,,,,,,,,,,,,,,,,,,,,,,,,,,,,,,,
,,,,,,,6634e4d4f1950b4dcd44d4d9,682f0323449051f9731f198e,2025-05-22_13h01.42.982,cuing_paradigm_dot,2024.1.5,Win32,59.52380952,682d556593cb38ad0a074487,,,,,,,,,,,94.3723,94.8763,,,95.13,95.8601,right,0.7003,,,,,,,,,0.45,,,,,,94.8767,95.1299,95.8605,"[0.021087596893879207,0.005063909689526685]","[-1,-1,-1]","[0.07887009357834476,0.03005096396486477]","[-1,-1,-1]","[-0.05800817334490419,0.14997662910445697]","[-1,-1,-1]","[0.09030546978907499,0.14394346629156965]","[-1,-1,-1]","[0.04084697706724859,-0.1927041367917849]","[-1,-1,-1]","[0.10159472768253625,0.07976400514073999]","[-1,-1,-1]","[0.10467013184685767,-0.11590349806188806]","[1,1,1]","[-0.11066023201078601,-0.01956066784546977]","[-1,-1,-1]","[-0.030731133525817782,-0.17731554438995345]","[-1,-1,-1]","[0.06161776796818447,-0.09057984861826815]","[-1,-1,-1]","[0.10098143757028369,-0.06706092265115278]","[1,1,1]","[0.17302283779005603,0.09886934067569259]","[1,1,1]","[-0.07864539341928393,-0.09405629728415696]","[1,1,1]","[0.1435782767149819,-0.13539297015769]","[-1,-1,-1]","[0.16784525762706673,0.02415690883207458]","[1,1,1]","[-0.031884574459315994,-0.013302915056185851]","[1,1,1]","[-0.11341273852972922,-0.15352063300946434]","[1,1,1]","[-0.16019661137893437,0.07018189767170221]","[-1,-1,-1]","[-0.1776448000938251,-0.021354926520245687]","[-1,-1,-1]","[-0.00390689462625273,0.1686787905194714]","[1,1,1]","[-0.14500005549316142,0.030492921494680855]","[1,1,1]","[0.04350083545953313,-0.1395119870752074]","[-1,-1,-1]","[-0.02081265556583569,-0.0531602394305923]","[1,1,1]","[-0.12006180973846747,0.13619431266802115]","[1,1,1]","[0.09697977100199237,-0.02444329673693436]","[1,1,1]","[0.16153856817851706,-0.05663768504541482]","[1,1,1]","[-0.05878774751064406,0.09535002733813132]","[-1,-1,-1]","[0.01155328737248483,0.07101257036625057]","[1,1,1]","[-0.07246041763078238,-0.13792140037200265]","[-1,-1,-1]","[-0.18059705240767657,-0.06999669995591401]","[-1,-1,-1]","[0.12548002096988498,0.03440291045939111]","[-1,-1,-1]","[0.13559879569793568,0.12703673144497152]","[-1,-1,-1]","[0.02,0.02]",96.9594,0,0,0,85,1,,,,,,,
,,,,,,,6634e4d4f1950b4dcd44d4d9,682f0323449051f9731f198e,2025-05-22_13h01.42.982,cuing_paradigm_dot,2024.1.5,Win32,59.52380952,682d556593cb38ad0a074487,,,,,,,,,,,96.9597,97.4598,,,97.71,98.1765,right,0.4469,,,,,,,,,0.1,,,,,,97.4599,97.71,98.1765,"[-0.03160019487959217,0.12202260911871453]","[-1,-1,-1]","[-0.0992906350928985,0.1103638774923989]","[-1,-1,-1]","[0.15843618021189268,-0.0983928576765774]","[-1,-1,-1]","[0.044190936794540184,0.18076781101331896]","[-1,-1,-1]","[0.0212201770062559,-0.1474207943900118]","[-1,-1,-1]","[0.12464283808839935,-0.058267852210620474]","[-1,-1,-1]","[0.046160742770548206,0.020032556694668503]","[-1,-1,-1]","[0.13250977249165957,0.008512028496543492]","[-1,-1,-1]","[0.09840094400106258,-0.01396762822207226]","[-1,-1,-1]","[0.11626381370394095,-0.10691721513039867]","[-1,-1,-1]","[-0.07482430944027259,0.06330485072222992]","[-1,-1,-1]","[-0.037544459999621145,-0.04816936371846447]","[-1,-1,-1]","[-0.07884401911952657,0.15536454433720884]","[-1,-1,-1]","[-0.18409856515737455,0.0736339064033038]","[1,1,1]","[0.05149268560364143,-0.05752688916142924]","[-1,-1,-1]","[-0.008384196894837104,0.010048657153284516]","[-1,-1,-1]","[0.01998888091452829,-0.1981357919654479]","[-1,-1,-1]","[-0.0787573777135216,-0.14851299093971518]","[-1,-1,-1]","[0.09565228121737177,-0.1451597053552299]","[-1,-1,-1]","[-0.1446745112899795,0.09935982138000746]","[-1,-1,-1]","[-0.026603686683391907,0.08071640058578652]","[-1,-1,-1]","[-0.08937106958513023,0.02446333997745736]","[-1,-1,-1]","[-0.04968633881210701,0.18981057361915452]","[-1,-1,-1]","[-0.0025688459649854064,0.18807058829851475]","[-1,-1,-1]","[0.016074136253850867,0.13087489172546263]","[1,1,1]","[-0.09227667269028166,-0.02246244034318928]","[-1,-1,-1]","[0.18620868341410834,0.05454462325229268]","[-1,-1,-1]","[0.11240231039226256,0.15578323285260665]","[-1,-1,-1]","[-0.1140750879293683,-0.09488552370274529]","[-1,-1,-1]","[0.014317595582766835,-0.02765511429486219]","[-1,-1,-1]","[-0.14907421325488837,-0.06544677596826083]","[-1,-1,-1]","[-0.1879430573524341,-0.0317680303162839]","[1,1,1]","[0.02,0.02]",99.2766,0,1,1,12,1,,,,,,,
,,,,,,,6634e4d4f1950b4dcd44d4d9,682f0323449051f9731f198e,2025-05-22_13h01.42.982,cuing_paradigm_dot,2024.1.5,Win32,59.52380952,682d556593cb38ad0a074487,,,,,,,,,,,99.2769,99.7806,,,100.0268,100.727,right,0.6662,,,,,,,,,0.5,,,,,,99.7806,100.0268,100.7271,"[0.08077328198895735,0.15930066551601071]","[-1,-1,-1]","[0.07318866049733516,-0.09080790685469198]","[1,1,1]","[-0.0009217997597055976,0.08427441384486514]","[-1,-1,-1]","[-0.0839154758395052,0.05877244070602397]","[1,1,1]","[0.16336603065596128,0.0726414552773597]","[-1,-1,-1]","[0.12589338056892332,-0.02377387748309449]","[1,1,1]","[0.0033723720079451157,-0.10975515060413177]","[1,1,1]","[-0.13307307870820503,0.04312864257832289]","[1,1,1]","[-0.07181538637387702,-0.12496243757986997]","[1,1,1]","[-0.15696508558648897,-0.016755035942886676]","[-1,-1,-1]","[-0.09758399183602524,0.017312548319252902]","[1,1,1]","[-0.0501946844618577,-0.0008098959263215617]","[1,1,1]","[-0.04071354973337886,-0.04309728932093073]","[1,1,1]","[0.11809253616500236,0.048670276659152044]","[-1,-1,-1]","[-0.012143640465037976,0.14825629131665416]","[-1,-1,-1]","[0.18896685798554572,-0.036911123297337874]","[1,1,1]","[-0.17345138126671136,-0.088068780432356]","[-1,-1,-1]","[0.040682331489932604,-0.13029586403201718]","[-1,-1,-1]","[0.15399144740499965,0.12433683097253433]","[-1,-1,-1]","[0.06665407515283583,-0.019131716145771978]","[1,1,1]","[-0.09585873555071261,-0.16183072138991364]","[1,1,1]","[-0.014916332066365522,-0.181919988309897]","[1,1,1]","[0.15178339527859203,-0.0607515294082234]","[1,1,1]","[0.17734872849342337,0.0066065885368546936]","[-1,-1,-1]","[-0.0000347519802242267,0.03349293017989138]","[-1,-1,-1]","[0.09818774944293167,-0.13392621450999814]","[-1,-1,-1]","[-0.09476378618018942,-0.07557202543040187]","[-1,-1,-1]","[-0.11930919167221467,0.10539809364829404]","[-1,-1,-1]","[-0.07502619695589378,0.14036939841864476]","[-1,-1,-1]","[-0.041525207109381304,0.04136343856200584]","[1,1,1]","[0.023132047198707817,0.18822718390002577]","[-1,-1,-1]","[0.059890132210276184,0.10072511927113634]","[1,1,1]","[0.02,0.02]",101.8263,0,2,2,90,1,,,,,,,
,,,,,,,6634e4d4f1950b4dcd44d4d9,682f0323449051f9731f198e,2025-05-22_13h01.42.982,cuing_paradigm_dot,2024.1.5,Win32,59.52380952,682d556593cb38ad0a074487,,,,,,,,,,,101.8268,102.3265,,,102.5769,102.9766,left,0.3846,,,,,,,,,0.6,,,,,,102.3265,102.5769,102.9767,"[0.02008959213330324,0.01697603640242256]","[1,1,1]","[-0.034190124859174234,0.08376870135671591]","[-1,-1,-1]","[-0.04698348885998383,0.18977925166717038]","[1,1,1]","[-0.024861553344029765,-0.056462262252912586]","[1,1,1]","[0.05935240354005563,0.08576794843608282]","[-1,-1,-1]","[0.08071505919572404,-0.032376065383652855]","[-1,-1,-1]","[0.19354790000961314,-0.010880284006187752]","[-1,-1,-1]","[0.08723293521229936,0.11699835981894523]","[-1,-1,-1]","[-0.02673464886400329,-0.00869977230919357]","[1,1,1]","[0.03966349424698031,-0.06029513176199169]","[-1,-1,-1]","[-0.0665659890868919,-0.07193492425581702]","[1,1,1]","[-0.08170580099124944,0.007650304525734572]","[1,1,1]","[-0.10597179905999539,-0.14717584444718204]","[-1,-1,-1]","[-0.040462943851063846,-0.12180987726590482]","[1,1,1]","[0.015547603827854152,-0.0956750564331832]","[1,1,1]","[0.13968357545320081,0.10754526933737214]","[-1,-1,-1]","[-0.010383894379794468,0.15604125241701464]","[1,1,1]","[-0.15317808088726054,0.03367530592051714]","[1,1,1]","[-0.15962350521122665,0.10990538240372116]","[1,1,1]","[0.08148261423338901,0.1569047819622449]","[1,1,1]","[0.01896695547298693,0.12797279587663954]","[1,1,1]","[-0.07738223333273647,0.13734449927093992]","[-1,-1,-1]","[0.024885347216223142,-0.17705999587464047]","[1,1,1]","[-0.18998389317763414,0.010519357110141514]","[-1,-1,-1]","[0.12901090640192386,-0.08566047290219798]","[-1,-1,-1]","[-0.12203242067984588,0.15523081137240977]","[1,1,1]","[0.12290405840184548,-0.13263081198102183]","[-1,-1,-1]","[0.16228293677334216,0.03663245156440384]","[-1,-1,-1]","[-0.15621614594749708,-0.014948356435917349]","[1,1,1]","[0.09127437495760878,-0.16104738535568028]","[1,1,1]","[-0.12994343852712392,-0.07519455580714678]","[1,1,1]","[0.03616047142566701,0.19647977571311517]","[1,1,1]","[0.02,0.02]",104.0764,0,3,3,178,1,,,,,,,
,,,,,,,6634e4d4f1950b4dcd44d4d9,682f0323449051f9731f198e,2025-05-22_13h01.42.982,cuing_paradigm_dot,2024.1.5,Win32,59.52380952,682d556593cb38ad0a074487,,,,,,,,,,,104.0767,104.5766,,,104.8267,105.5101,left,0.6659,,,,,,,,,0.55,,,,,,104.5767,104.8266,105.5103,"[0.12400310009372241,0.03207478161910009]","[1,1,1]","[0.08200956216893736,0.1569693336589307]","[1,1,1]","[-0.06875984683976,0.05179077634811808]","[-1,-1,-1]","[-0.0992726093243129,0.1601662784925093]","[-1,-1,-1]","[-0.14810489892040032,0.11221858299821313]","[1,1,1]","[0.02482561034871477,-0.08446347621054667]","[1,1,1]","[-0.13190881220715267,0.038874469264452795]","[-1,-1,-1]","[0.010653718375232718,0.13166922603945153]","[-1,-1,-1]","[-0.19196007802134768,-0.020801878094219274]","[1,1,1]","[0.15728090663419972,0.10960732186528746]","[1,1,1]","[0.058675347373259426,-0.14478275610861036]","[1,1,1]","[-0.17607464682232205,0.0832238778591001]","[1,1,1]","[-0.05791818655386542,-0.021805518558095583]","[-1,-1,-1]","[-0.06397850191034084,-0.07144351327350958]","[-1,-1,-1]","[-0.13187046754692744,-0.09002117676228083]","[1,1,1]","[0.14841639584852365,-0.10865173381268498]","[-1,-1,-1]","[0.12410290510988294,-0.036520706778849873]","[-1,-1,-1]","[-0.04779197427190073,0.1249848398897358]","[1,1,1]","[-0.04114296393511405,-0.18928791046191573]","[1,1,1]","[-0.011891428374758631,0.01736452769943087]","[1,1,1]","[-0.10936262277604288,-0.014417818299553865]","[1,1,1]","[0.1718214384121679,-0.0712748713935877]","[1,1,1]","[-0.01964060900201193,-0.13790542442085085]","[1,1,1]","[-0.07930752404770534,-0.11397690752881301]","[-1,-1,-1]","[0.015296181263637187,0.1986648387390035]","[-1,-1,-1]","[0.16328501484835523,0.06151866585370467]","[-1,-1,-1]","[0.03729269984929537,0.16309685483859288]","[1,1,1]","[0.07097136894595014,0.11507264918564558]","[-1,-1,-1]","[0.03761838876566787,0.038011507609041435]","[1,1,1]","[0.1740322259308799,0.0012167153837241884]","[-1,-1,-1]","[-0.09989928978461449,0.10316904563319851]","[-1,-1,-1]","[0.06432876923714846,-0.0637763147683626]","[1,1,1]","[0.02,0.02]",106.6099,0,4,4,149,1,,,,,,,
,,,,,,,6634e4d4f1950b4dcd44d4d9,682f0323449051f9731f198e,2025-05-22_13h01.42.982,cuing_paradigm_dot,2024.1.5,Win32,59.52380952,682d556593cb38ad0a074487,,,,,,,,,,,106.6102,107.1099,,,107.3602,107.8933,left,0.5277,,,,,,,,,0.6,,,,,,107.1099,107.3601,107.8934,"[0.057111504914571475,0.12574796472159003]","[1,1,1]","[-0.13879713452427145,0.02477950515064226]","[1,1,1]","[0.08929916829077829,0.08436620568225126]","[1,1,1]","[0.08282573079557258,-0.17852828489074227]","[-1,-1,-1]","[0.01817689856921571,-0.09480856052814494]","[-1,-1,-1]","[-0.08320127485230483,-0.06981739896115752]","[1,1,1]","[0.09957105255315128,0.17065663632608036]","[1,1,1]","[-0.19385745093048148,-0.0017884093913036743]","[1,1,1]","[0.11964164920923698,0.04511983503542455]","[1,1,1]","[-0.16039151597271784,-0.07462075743389977]","[-1,-1,-1]","[-0.0767149420888002,-0.1672141980976724]","[-1,-1,-1]","[0.18685342872316169,-0.003996410444780673]","[1,1,1]","[0.005316379948754457,-0.030183427063159123]","[1,1,1]","[0.11428539720630569,-0.05800955817445005]","[-1,-1,-1]","[-0.10452315013545302,-0.12335600137716798]","[-1,-1,-1]","[-0.18233068707744937,0.06782285926697719]","[1,1,1]","[0.05648792848435602,0.004227391450768672]","[-1,-1,-1]","[-0.023071788549886903,0.15249380072518076]","[1,1,1]","[-0.0980227178957305,0.14013080283376522]","[1,1,1]","[0.12191553418898168,-0.15514920964399564]","[-1,-1,-1]","[0.058560459509540544,0.17896284739837123]","[1,1,1]","[0.14296185723186272,0.003273774005166483]","[1,1,1]","[0.14861478477249915,-0.12109745558059527]","[1,1,1]","[-0.13270171102857198,-0.03304025293572727]","[-1,-1,-1]","[0.004586273197482431,0.08867353311713413]","[1,1,1]","[-0.09970681283836075,0.05957989663835874]","[-1,-1,-1]","[0.0792239413522868,-0.12876603348685947]","[1,1,1]","[0.032692660989450915,-0.13280808976464845]","[1,1,1]","[-0.04108713303569774,0.11379341198317729]","[-1,-1,-1]","[0.16657119438124807,0.07165795169689217]","[-1,-1,-1]","[0.03008614725776106,0.03640454316728925]","[1,1,1]","[0.18113148176051783,-0.07713776947786345]","[-1,-1,-1]","[0.02,0.02]",108.9935,0,5,5,164,1,,,,,,,
,,,,,,,6634e4d4f1950b4dcd44d4d9,682f0323449051f9731f198e,2025-05-22_13h01.42.982,cuing_paradigm_dot,2024.1.5,Win32,59.52380952,682d556593cb38ad0a074487,,,,,,,,,,,108.9939,109.4933,,,109.7436,110.1436,left,0.3809,,,,,,,,,0.6,,,,,,109.4933,109.7436,110.1437,"[0.153421184022279,0.10441284551811332]","[1,1,1]","[0.18482560953831073,-0.07022859124545786]","[-1,-1,-1]","[0.0609642884982434,-0.11092924151422309]","[-1,-1,-1]","[0.04727986995963813,0.08007896098071048]","[-1,-1,-1]","[0.0049747167408153055,-0.011271605526579936]","[-1,-1,-1]","[-0.1017032699993342,-0.04812817509497085]","[1,1,1]","[-0.014724920186282056,-0.1557123119772991]","[1,1,1]","[0.07099316910800806,-0.1588441417468035]","[1,1,1]","[0.0686183800821711,-0.057955503141314084]","[1,1,1]","[-0.06946824305335592,-0.0033048218163697685]","[1,1,1]","[-0.0777135209081732,0.12599860731261942]","[-1,-1,-1]","[0.060541959984068416,0.1305455363279295]","[-1,-1,-1]","[0.1328008070123694,-0.0910648684824076]","[1,1,1]","[0.10738407659260103,0.09288722742405527]","[1,1,1]","[-0.044728478552163324,-0.0360677073761252]","[-1,-1,-1]","[-0.05126327290440104,-0.10927399245528187]","[-1,-1,-1]","[0.05816020616355431,0.02606200226657179]","[1,1,1]","[0.018313640685164015,-0.10851170290958397]","[1,1,1]","[-0.1461231207382575,-0.06883063132195268]","[-1,-1,-1]","[0.18366853357545188,0.06203130104933419]","[1,1,1]","[-0.0372408781130115,0.11893561119335272]","[-1,-1,-1]","[0.015340416858068596,-0.06736693278332836]","[1,1,1]","[-0.19297981597875932,0.02006154025825144]","[1,1,1]","[0.13187613132205472,0.02733902535898987]","[1,1,1]","[0.07357816966149044,0.17890263154902936]","[-1,-1,-1]","[0.18650255028863702,0.021082583570996755]","[1,1,1]","[-0.1510113926318615,0.059292379408868424]","[1,1,1]","[0.0012779636962177458,0.03066947971601972]","[1,1,1]","[-0.15095542566177922,-0.10939224712884998]","[-1,-1,-1]","[-0.14222651702820638,0.12528616194267433]","[-1,-1,-1]","[-0.13426393235879758,-0.004411080380338752]","[1,1,1]","[-0.041511674088116374,-0.1897947365194012]","[1,1,1]","[0.02,0.02]",111.2434,0,6,6,156,1,,,,,,,
,,,,,,,6634e4d4f1950b4dcd44d4d9,682f0323449051f9731f198e,2025-05-22_13h01.42.982,cuing_paradigm_dot,2024.1.5,Win32,59.52380952,682d556593cb38ad0a074487,,,,,,,,,,,111.2437,111.7432,,,111.9936,112.5272,right,0.5165,,,,,,,,,0.45,,,,,,111.7433,111.9935,112.5272,"[0.03771269240331868,0.054573506301411105]","[1,1,1]","[0.05860080425516901,0.12681386788002683]","[-1,-1,-1]","[-0.02341858824785689,-0.18092078676369025]","[1,1,1]","[0.022891910002379015,0.14993972543529127]","[-1,-1,-1]","[0.01221832107971193,0.10806653707161283]","[1,1,1]","[0.1402677280287839,-0.009807052153112937]","[1,1,1]","[0.17163356462758408,0.07434139380150873]","[-1,-1,-1]","[-0.14921825848647746,0.10334335531844312]","[-1,-1,-1]","[0.1111904193365673,0.02345743065031967]","[-1,-1,-1]","[0.07519919483309814,-0.0701636421547536]","[-1,-1,-1]","[0.17893256021625029,-0.08518845276545282]","[1,1,1]","[0.0951227753743878,-0.16010008571074033]","[-1,-1,-1]","[-0.13930819624681604,-0.02120662889122973]","[-1,-1,-1]","[-0.07253215969553728,-0.007565202993132859]","[-1,-1,-1]","[-0.08543917340080114,0.07408806120830133]","[-1,-1,-1]","[-0.08383680828983585,-0.12926032137373247]","[-1,-1,-1]","[-0.13029544447045172,-0.11125581934427656]","[-1,-1,-1]","[0.019053223124863072,-0.12353113418695666]","[1,1,1]","[0.11963829545533035,-0.08773976684089341]","[-1,-1,-1]","[-0.06965849127298318,0.12521377352764834]","[1,1,1]","[-0.17455493425671328,0.058283494687050234]","[-1,-1,-1]","[-0.03688558830117454,0.09848096743956286]","[-1,-1,-1]","[-0.02725382103928415,-0.12365959783923726]","[1,1,1]","[0.019259046241928153,-0.020874966611982605]","[1,1,1]","[0.11387607041384351,0.08808204437814175]","[1,1,1]","[0.1589354328587253,0.11642627163857786]","[1,1,1]","[-0.11491206241754864,-0.16159973581679615]","[-1,-1,-1]","[-0.1579883948246367,-0.06947324896762647]","[1,1,1]","[-0.0550666800396659,-0.06835531129377552]","[-1,-1,-1]","[-0.1250014278853575,0.022438414106515533]","[-1,-1,-1]","[0.07821918424113757,-0.02007262851073386]","[1,1,1]","[-0.031018379496141862,0.019684649524572256]","[1,1,1]","[0.02,0.02]",113.627,0,7,7,77,1,,,,,,,
,,,,,,,6634e4d4f1950b4dcd44d4d9,682f0323449051f9731f198e,2025-05-22_13h01.42.982,cuing_paradigm_dot,2024.1.5,Win32,59.52380952,682d556593cb38ad0a074487,,,,,,,,,,,113.6273,114.1269,,,114.377,117.2507,,,,,,,,,,,0.1,,,,,,114.1269,114.377,117.2508,"[0.07772139628591139,0.0328166944795119]","[-1,-1,-1]","[0.131374336758414,0.09115758758390342]","[-1,-1,-1]","[-0.10123492939578761,0.1094344645222825]","[-1,-1,-1]","[0.03698120313453544,0.07275379170280974]","[-1,-1,-1]","[-0.15086792460460532,-0.0684093216001136]","[-1,-1,-1]","[-0.031232991065649893,-0.09913372481860934]","[-1,-1,-1]","[0.05923797470000545,-0.09606879056933075]","[-1,-1,-1]","[-0.05016204167761632,0.13547717222362737]","[-1,-1,-1]","[0.09382734658482825,0.13577411086107535]","[-1,-1,-1]","[-0.1073787468797491,0.020089977253910863]","[-1,-1,-1]","[0.1872201621475715,-0.039039586582353424]","[-1,-1,-1]","[0.09905290441948536,-0.06340912360875668]","[-1,-1,-1]","[0.032100637258589436,-0.058339112770405675]","[-1,-1,-1]","[0.18704847383604847,0.013506882332035336]","[-1,-1,-1]","[-0.005513619899784238,0.14305699086560547]","[-1,-1,-1]","[-0.08446538597880696,-0.060458259845888464]","[-1,-1,-1]","[-0.0768611494309312,0.04949120165669485]","[-1,-1,-1]","[-0.15002107900514117,-0.027942684251068113]","[-1,-1,-1]","[0.11985843977561089,-0.014545567898307759]","[1,1,1]","[0.03877503353123168,-0.15333277630434544]","[-1,-1,-1]","[-0.06191885961448469,0.17607293699296533]","[-1,-1,-1]","[0.16623881448593486,0.060623430368104]","[-1,-1,-1]","[-0.04690174621317575,0.01653154813841735]","[-1,-1,-1]","[-0.15405301681184996,0.07933964321448117]","[-1,-1,-1]","[0.04320080788039725,0.18103810947553656]","[1,1,1]","[-0.007051634919961457,0.07947174957957605]","[-1,-1,-1]","[0.04980789182056134,0.11955494556798572]","[-1,-1,-1]","[0.003230487096098625,-0.1769143012775277]","[1,1,1]","[-0.11868985769811569,-0.11767551696256909]","[-1,-1,-1]","[0.12564969055254763,-0.12000213259359553]","[-1,-1,-1]","[-0.15065202465588967,0.02746561120966908]","[-1,-1,-1]","[-0.000518926490931478,-0.011728400689588423]","[-1,-1,-1]","[0.02,0.02]",117.2512,0,8,8,17,1,,,,,,,
,,,,,,,6634e4d4f1950b4dcd44d4d9,682f0323449051f9731f198e,2025-05-22_13h01.42.982,cuing_paradigm_dot,2024.1.5,Win32,59.52380952,682d556593cb38ad0a074487,,,,,,,,,,,117.2517,117.2606,,,117.2669,118.7606,,,,,,,,,,,0.5,,,,,,117.2607,117.2669,118.7606,"[0.00938859863771738,0.08936771149573806]","[-1,-1,-1]","[-0.056747106590815395,0.0019460447040662977]","[-1,-1,-1]","[0.005830257363270668,-0.052508688873904474]","[-1,-1,-1]","[-0.08289369279738522,-0.0985293781882873]","[1,1,1]","[-0.12209866062864205,-0.12729267362664048]","[1,1,1]","[0.1451671544988372,0.055939350246808746]","[1,1,1]","[-0.005353952462338473,-0.10704431680751839]","[-1,-1,-1]","[0.12815813764105322,-0.03742805533780945]","[-1,-1,-1]","[0.13777029722433312,0.09992022720486486]","[-1,-1,-1]","[-0.048463447981746094,0.09414210902983784]","[-1,-1,-1]","[-0.008369965227426291,-0.01364262414895589]","[-1,-1,-1]","[0.03635984105118265,-0.17570895495617095]","[1,1,1]","[0.06251146572369044,0.03319448466383201]","[-1,-1,-1]","[-0.13192869037444802,-0.062354273051908694]","[1,1,1]","[0.09535563966680022,-0.008355663511885493]","[1,1,1]","[-0.08457287390176897,0.04560335079885085]","[1,1,1]","[0.009062069490891713,0.16216781865517774]","[1,1,1]","[0.10159831638297664,0.05138551984287793]","[1,1,1]","[0.19406343368025983,-0.010826861400239437]","[1,1,1]","[0.14871336451535475,0.00967572034539797]","[1,1,1]","[0.04612560394593164,-0.01164209604528549]","[-1,-1,-1]","[-0.0938429153598622,0.12614462365625556]","[1,1,1]","[-0.0828012265334102,0.1711404020430196]","[-1,-1,-1]","[-0.14111192816574838,0.04091612347767371]","[1,1,1]","[-0.06960930665438947,-0.14252222404938078]","[-1,-1,-1]","[-0.04025603258601689,0.18086114489878663]","[-1,-1,-1]","[-0.1369655747582019,0.10227214753950747]","[-1,-1,-1]","[-0.1852732200165083,0.040044583467983445]","[1,1,1]","[0.0782681256922982,-0.12216657367386212]","[-1,-1,-1]","[0.08519729134045369,-0.06005919966219318]","[1,1,1]","[0.12192271701024082,-0.07753354216125741]","[-1,-1,-1]","[-0.007511164008348824,0.05255271952103656]","[1,1,1]","[0.02,0.02]",119.8604,0,9,9,97,1,,,,,,,
,,,,,,,6634e4d4f1950b4dcd44d4d9,682f0323449051f9731f198e,2025-05-22_13h01.42.982,cuing_paradigm_dot,2024.1.5,Win32,59.52380952,682d556593cb38ad0a074487,,,,,,,,,,,119.8608,120.3605,,,120.6167,121.3939,right,0.762,,,,,,,,,0.4,,,,,,120.3606,120.6167,121.3939,"[-0.004231439842628448,-0.1659130337521053]","[-1,-1,-1]","[0.18324724068471385,0.04633192769178693]","[-1,-1,-1]","[-0.042652195399880216,0.18190860096034767]","[-1,-1,-1]","[-0.10064888898558194,0.04663973799838856]","[1,1,1]","[-0.09140372633745056,0.1670543894501199]","[-1,-1,-1]","[-0.08500051543667314,-0.1336966744555079]","[-1,-1,-1]","[0.10607923595320946,-0.04065305770416807]","[-1,-1,-1]","[-0.05042678777087473,-0.11272935102816026]","[-1,-1,-1]","[-0.0012086368177882615,0.10134995050399725]","[-1,-1,-1]","[-0.10403043764992662,-0.08490504562193658]","[1,1,1]","[0.10255407109663327,-0.14395762728859193]","[-1,-1,-1]","[-0.1491086431803633,-0.048360104838736484]","[-1,-1,-1]","[0.18824479680817624,-0.007571759498978459]","[1,1,1]","[0.1211000168564537,0.14804409959356896]","[-1,-1,-1]","[-0.09513258277502494,-0.04566733980400602]","[1,1,1]","[0.1339853824437771,-0.09931577701843226]","[1,1,1]","[-0.14527899460675048,-0.10594855482863036]","[1,1,1]","[0.029621810912218598,0.030484036859472943]","[1,1,1]","[0.054016332532106325,0.14466121629346504]","[-1,-1,-1]","[0.05014596495937456,-0.18719343905361305]","[1,1,1]","[0.010925845286579026,0.19663189848366677]","[-1,-1,-1]","[0.132651348983968,0.06073374291778441]","[-1,-1,-1]","[-0.019169714561912767,0.03039972190442135]","[1,1,1]","[-0.06929825669668938,0.09532105811695228]","[-1,-1,-1]","[0.09180157162988782,0.07514867418265425]","[-1,-1,-1]","[0.12194640832247762,0.014745143530052521]","[1,1,1]","[-0.061723067942116,0.00789192463818802]","[-1,-1,-1]","[0.025765227782526805,-0.10214844814520187]","[-1,-1,-1]","[0.15750292195243878,0.10535514300417431]","[1,1,1]","[-0.056362256524342666,-0.1701583175982303]","[1,1,1]","[-0.16573024014287505,0.0009989973248926982]","[-1,-1,-1]","[0.0028359189985018717,-0.045020092854559476]","[1,1,1]","[0.02,0.02]",122.4938,0,10,10,53,1,,,,,,,
,,,,,,,6634e4d4f1950b4dcd44d4d9,682f0323449051f9731f198e,2025-05-22_13h01.42.982,cuing_paradigm_dot,2024.1.5,Win32,59.52380952,682d556593cb38ad0a074487,,,,,,,,,,,122.4941,122.9938,,,123.244,123.7607,left,0.5003,,,,,,,,,0.9,,,,,,122.9938,123.244,123.7607,"[-0.16265860848059924,0.07397324171601954]","[-1,-1,-1]","[0.020440942140146315,-0.00389884511050158]","[1,1,1]","[-0.07298370265026691,0.061809517206479106]","[1,1,1]","[-0.12316530456082113,-0.01709475199240124]","[1,1,1]","[0.12106241280470885,0.07033708014717299]","[1,1,1]","[0.022996891761182105,-0.09688865771116144]","[1,1,1]","[-0.11115264324518856,-0.12396336505321515]","[1,1,1]","[0.13518500889154342,-0.12532121040606395]","[1,1,1]","[0.04702742919677555,0.1160099859873187]","[1,1,1]","[-0.02426149656571343,0.08834611722307947]","[1,1,1]","[0.06457381101128676,-0.0795979495305833]","[1,1,1]","[0.13801504726532435,0.12045640207050748]","[1,1,1]","[-0.03965892236979809,0.15820864064107773]","[1,1,1]","[-0.08503836839687531,0.005073657294378229]","[1,1,1]","[-0.0674291313323263,-0.0778649431442147]","[1,1,1]","[0.009698580419718791,0.18620493362370946]","[1,1,1]","[-0.16132601780821718,-0.07568043534724127]","[1,1,1]","[0.038988726707706124,-0.1906432470527985]","[1,1,1]","[-0.03497273247240643,0.01001326843434896]","[1,1,1]","[0.08775249695976539,0.12710775818620101]","[1,1,1]","[-0.09702320890756955,0.12745704576570024]","[1,1,1]","[0.05427337875664652,0.1787694291185066]","[1,1,1]","[0.17426501175920847,0.05814707714665128]","[1,1,1]","[0.1552603881784507,-0.04713417512855207]","[1,1,1]","[-0.05584046442030798,-0.16943632107788836]","[-1,-1,-1]","[-0.13967643883406583,0.1071269136035315]","[1,1,1]","[0.015174600841283411,-0.048063887093002765]","[1,1,1]","[0.08285557183671523,0.02695066033453015]","[1,1,1]","[0.08497831573555112,-0.16082530829406608]","[1,1,1]","[0.19184422287817934,-0.010575505087830546]","[1,1,1]","[0.10912691725963598,-0.039043249375955755]","[1,1,1]","[0.09016649957090932,-0.11449967885737396]","[-1,-1,-1]","[0.02,0.02]",124.8606,0,11,11,200,1,,,,,,,
,,,,,,,6634e4d4f1950b4dcd44d4d9,682f0323449051f9731f198e,2025-05-22_13h01.42.982,cuing_paradigm_dot,2024.1.5,Win32,59.52380952,682d556593cb38ad0a074487,,,,,,,,,,,124.861,125.3607,,,125.611,127.1105,,,,,,,,,,,0.5,,,,,,125.3607,125.6109,127.1105,"[0.09661137397703791,-0.1361527904473165]","[1,1,1]","[-0.011953230088941514,0.08162322392669445]","[1,1,1]","[0.10000181487517236,0.05566479572917795]","[-1,-1,-1]","[-0.17230358880995258,0.08965691491707325]","[-1,-1,-1]","[-0.07875753603951006,-0.18303920075317853]","[1,1,1]","[-0.043024832209439604,-0.09723409002942308]","[1,1,1]","[0.03492528976746074,0.060113725799847834]","[-1,-1,-1]","[-0.16369493497940354,-0.03773850878341457]","[-1,-1,-1]","[-0.13050345744806555,-0.14791892344117719]","[1,1,1]","[-0.048406415314343615,-0.017026194691282436]","[1,1,1]","[-0.06877725403301999,0.1446905328650898]","[-1,-1,-1]","[0.17450761429774772,0.05887313796845653]","[-1,-1,-1]","[-0.056168291416372654,0.08194672412064702]","[-1,-1,-1]","[0.05010307563327151,0.1355710935109485]","[1,1,1]","[0.12382954885745177,0.14342994854369837]","[-1,-1,-1]","[0.11515386155107074,-0.0800477687505496]","[-1,-1,-1]","[0.05107459592619922,-0.1600935411017632]","[-1,-1,-1]","[0.17413169344962745,0.003701170767551886]","[1,1,1]","[-0.10394904003166217,0.16558883926764562]","[1,1,1]","[-0.04192554781851735,0.18656006545688478]","[-1,-1,-1]","[0.08950660105842634,-0.0033422054711414236]","[1,1,1]","[0.032416462474192435,-0.029887992839484994]","[1,1,1]","[-0.09280607011801634,0.06035067360329297]","[1,1,1]","[-0.14334916752537546,0.03818601858587777]","[1,1,1]","[0.1307410053445484,-0.02030457371578403]","[-1,-1,-1]","[-0.022628895324041994,-0.18011913449558198]","[1,1,1]","[0.01417950739000064,-0.12141790912850965]","[1,1,1]","[-0.0038996166646348357,-0.00788010342823464]","[-1,-1,-1]","[0.13979546958369682,-0.14206122178480232]","[1,1,1]","[-0.09861206550631987,0.008785346140114133]","[-1,-1,-1]","[0.06499923513994542,-0.062223321633059485]","[-1,-1,-1]","[-0.13167864792130515,-0.06980449508274279]","[-1,-1,-1]","[0.02,0.02]",128.2107,0,12,12,108,1,,,,,,,
,,,,,,,6634e4d4f1950b4dcd44d4d9,682f0323449051f9731f198e,2025-05-22_13h01.42.982,cuing_paradigm_dot,2024.1.5,Win32,59.52380952,682d556593cb38ad0a074487,,,,,,,,,,,128.211,128.7106,,,128.9622,129.661,right,0.6703,,,,,,,,,0.6,,,,,,128.7106,128.9622,129.6611,"[-0.1248333450840588,-0.08292420920525968]","[1,1,1]","[-0.05327014601119631,-0.06455265046170408]","[-1,-1,-1]","[-0.17968333281552235,-0.08781356492321273]","[-1,-1,-1]","[-0.1677133767075626,0.06745475715154874]","[-1,-1,-1]","[-0.09947898449300009,0.0314680457295064]","[1,1,1]","[0.0437120650832372,0.08048583865171449]","[1,1,1]","[0.1370487684881955,0.06942045538605669]","[1,1,1]","[0.012396526406749443,0.025476001945900113]","[1,1,1]","[0.07040110581119434,0.030418809919995737]","[-1,-1,-1]","[0.1922808547259435,-0.02878920118351469]","[1,1,1]","[-0.005368599051393983,-0.06841364704036126]","[-1,-1,-1]","[0.05471013876359597,-0.13608808893493182]","[1,1,1]","[0.11428234449175256,0.028307289364015324]","[1,1,1]","[0.09067309267348649,-0.006530061871084659]","[-1,-1,-1]","[0.14492660648914635,-0.0662593451036356]","[1,1,1]","[-0.08708219114099713,0.07933947164673105]","[1,1,1]","[-0.04545746392959853,-0.1651460307869494]","[1,1,1]","[-0.025909309979137568,0.1117892241426037]","[1,1,1]","[0.14468376920635556,-0.11023790410800044]","[-1,-1,-1]","[-0.04802049150827629,0.045409927454115845]","[1,1,1]","[-0.03565523392679727,0.16969770279025143]","[-1,-1,-1]","[0.005434497435537761,-0.1111445154741707]","[1,1,1]","[0.07992938028554408,-0.08089386984316395]","[-1,-1,-1]","[0.006548391719084645,0.18710906330669527]","[1,1,1]","[-0.02058804877211889,-0.0019698831578144004]","[-1,-1,-1]","[-0.1547551412703384,-0.03217023642151135]","[-1,-1,-1]","[-0.14422822686726092,0.02219508158166802]","[-1,-1,-1]","[-0.0828281578628896,0.16449266952414798]","[1,1,1]","[-0.10612584785778376,-0.1647556933845563]","[1,1,1]","[-0.1440871965346531,-0.12619894383283545]","[1,1,1]","[-0.019236930924046172,-0.19888860878061929]","[1,1,1]","[-0.07055669698351096,0.1239645803184401]","[-1,-1,-1]","[0.02,0.02]",130.7606,0,13,13,175,1,,,,,,,
,,,,,,,6634e4d4f1950b4dcd44d4d9,682f0323449051f9731f198e,2025-05-22_13h01.42.982,cuing_paradigm_dot,2024.1.5,Win32,59.52380952,682d556593cb38ad0a074487,,,,,,,,,,,130.761,131.2606,,,131.5109,132.0777,left,0.5431,,,,,,,,,0.1,,,,,,131.2606,131.5109,132.0778,"[0.1995751966084831,-0.003812151255478954]","[-1,-1,-1]","[0.13511125118726725,0.041514991421902486]","[-1,-1,-1]","[-0.10635919941218858,0.12060184952752138]","[-1,-1,-1]","[-0.0653060021022981,-0.15754656713765638]","[-1,-1,-1]","[-0.014796633145340635,-0.17618935571851588]","[-1,-1,-1]","[-0.03990196255104122,-0.08985695773538216]","[-1,-1,-1]","[-0.043072756388830014,0.08157151134616625]","[-1,-1,-1]","[0.11242515985083924,-0.07446033843405286]","[-1,-1,-1]","[0.011785339691882783,0.1686165166513157]","[1,1,1]","[0.06524034336014418,-0.029115809260412576]","[-1,-1,-1]","[0.00619339262895606,-0.012920524178108291]","[-1,-1,-1]","[0.13801505671442457,0.11255331532918719]","[-1,-1,-1]","[0.12748582701930866,-0.11339784273514403]","[-1,-1,-1]","[-0.16646289383812943,-0.02035893059112967]","[-1,-1,-1]","[0.04637178372524703,0.08185544283684905]","[-1,-1,-1]","[-0.09278031172218562,-0.05187626920709092]","[-1,-1,-1]","[0.09467766149952529,0.01701673814014316]","[1,1,1]","[-0.10382272933470851,-0.10238276019959845]","[-1,-1,-1]","[0.00982790341870004,-0.0581174119670714]","[1,1,1]","[-0.18681144948168443,0.02725866372850134]","[-1,-1,-1]","[-0.06126049192261785,0.1305293482943721]","[-1,-1,-1]","[-0.1260769889721626,-0.002371322376689076]","[-1,-1,-1]","[-0.09119520649752554,0.05057937374740017]","[-1,-1,-1]","[0.08481768577722848,-0.14942087309331323]","[-1,-1,-1]","[-0.1595766646922946,0.06955817376817465]","[-1,-1,-1]","[0.024782624823268894,-0.10008166662104355]","[-1,-1,-1]","[0.08105307649904643,0.13755280558345276]","[-1,-1,-1]","[-0.04495445943920521,-0.02256158357036744]","[-1,-1,-1]","[0.049933455379995384,0.037917924192893464]","[-1,-1,-1]","[-0.022997878675718928,0.19005252408091067]","[-1,-1,-1]","[-0.11452596554683568,-0.1541952845982599]","[-1,-1,-1]","[-0.1494250809606712,-0.08561014690056852]","[-1,-1,-1]","[0.02,0.02]",133.1776,0,14,14,8,1,,,,,,,
,,,,,,,6634e4d4f1950b4dcd44d4d9,682f0323449051f9731f198e,2025-05-22_13h01.42.982,cuing_paradigm_dot,2024.1.5,Win32,59.52380952,682d556593cb38ad0a074487,,,,,,,,,,,133.178,133.6775,,,133.931,135.0943,right,1.1339,,,,,,,,,0.45,,,,,,133.6775,133.931,135.0943,"[0.12766565159594687,-0.09378113491985339]","[-1,-1,-1]","[-0.07847188024200856,0.10773756013307301]","[1,1,1]","[-0.038936481181900094,0.015519280293168337]","[1,1,1]","[0.009447559730613233,0.19951959488991672]","[-1,-1,-1]","[0.09672422999772187,0.05006532738495145]","[1,1,1]","[-0.10002298386363458,-0.12193573941843137]","[-1,-1,-1]","[0.04347688825577743,0.01607405177560844]","[-1,-1,-1]","[0.06479694663909939,-0.12449900293935412]","[1,1,1]","[0.08347866000811681,-0.016174274194032296]","[-1,-1,-1]","[-0.1639821596795866,0.035067806318002305]","[1,1,1]","[-0.14313245683275924,-0.03958439901439685]","[1,1,1]","[0.0506613830831099,-0.1901297717629365]","[1,1,1]","[-0.010084495662124887,-0.16645276678338006]","[1,1,1]","[-0.0001045074396583097,-0.06917915892991384]","[-1,-1,-1]","[-0.024828451647754934,0.08871526745152783]","[1,1,1]","[0.18598662208237882,0.04528766671522003]","[-1,-1,-1]","[-0.14228245850613486,-0.1202919728982658]","[-1,-1,-1]","[0.10497639896994353,0.16876750613630329]","[-1,-1,-1]","[0.09161493721041046,-0.06300969021096392]","[-1,-1,-1]","[0.015236889585075691,0.05161661050954807]","[-1,-1,-1]","[0.13342620832782862,-0.0075166881069464175]","[1,1,1]","[-0.021988588596781686,0.1463767670697031]","[-1,-1,-1]","[0.14159025989956942,0.09730551570550221]","[1,1,1]","[-0.0005792392937164977,-0.011496328036149535]","[-1,-1,-1]","[0.001984751439185039,-0.12763931216307609]","[1,1,1]","[0.046164360467676795,0.09397448725052833]","[-1,-1,-1]","[-0.03879334875290741,-0.09523306710955111]","[1,1,1]","[-0.08820045502048596,-0.07831230479487654]","[-1,-1,-1]","[0.08229655373612943,0.12023706624276137]","[1,1,1]","[0.19133490430565733,-0.04765610380343537]","[-1,-1,-1]","[-0.1624026050514607,0.106747504437328]","[-1,-1,-1]","[-0.1954871466412797,-0.03821303752445773]","[-1,-1,-1]","[0.02,0.02]",136.1942,0,15,15,86,1,,,,,,,
,,,,,,,6634e4d4f1950b4dcd44d4d9,682f0323449051f9731f198e,2025-05-22_13h01.42.982,cuing_paradigm_dot,2024.1.5,Win32,59.52380952,682d556593cb38ad0a074487,,,,,,,,,,,136.1945,136.6941,,,136.9489,138.2609,right,1.3016,,,,,,,,,0.55,,,,,,136.6941,136.9489,138.2609,"[-0.001702235876267089,0.01676314075673226]","[1,1,1]","[0.010370835375023695,-0.1407909426635158]","[-1,-1,-1]","[-0.08051619926329759,-0.07708236808641018]","[1,1,1]","[0.04032864497217835,-0.016561898792812144]","[-1,-1,-1]","[-0.19036833331042924,-0.025281820252394463]","[-1,-1,-1]","[-0.12418318289268764,-0.10988601320056825]","[1,1,1]","[0.03200101522781888,0.1485717590350847]","[1,1,1]","[0.13410273726578323,-0.040522522551292565]","[1,1,1]","[-0.019622718325187926,-0.18177018725115343]","[-1,-1,-1]","[-0.16803840819755533,-0.08063676554311526]","[-1,-1,-1]","[0.09549278406165146,-0.17474216417166755]","[1,1,1]","[0.031924564289932345,-0.17570657892141223]","[-1,-1,-1]","[-0.015233485155076026,0.11655894277689265]","[1,1,1]","[0.17998948779774404,0.047913021690072645]","[1,1,1]","[-0.1081208866557622,-0.03629237290484682]","[1,1,1]","[0.07606245861397529,0.0966413561531917]","[-1,-1,-1]","[-0.04901741289983584,0.06118332971926771]","[1,1,1]","[-0.08083130136620147,-0.14532081409789727]","[1,1,1]","[0.0794523913476276,0.03196320072504949]","[-1,-1,-1]","[-0.12029888530094406,0.028089461253257186]","[-1,-1,-1]","[0.07738617487527354,-0.12519114112889376]","[1,1,1]","[-0.08876648879562668,0.15502734210999966]","[-1,-1,-1]","[-0.13975558366119997,-0.01095260054153836]","[1,1,1]","[-0.01638299132157542,-0.11010284404632649]","[1,1,1]","[0.03376611542251944,0.19018435211681645]","[1,1,1]","[0.08140172462995035,-0.010799646634406026]","[-1,-1,-1]","[-0.0019159002992434886,-0.06681347039289257]","[1,1,1]","[-0.06879438696226411,0.023697180942031056]","[1,1,1]","[-0.009227168463593966,0.07582892580693404]","[-1,-1,-1]","[0.07410497294644658,0.15118902588399222]","[1,1,1]","[-0.01851442461246463,0.17782735800453583]","[-1,-1,-1]","[0.1238813234631375,-0.13304622010866787]","[-1,-1,-1]","[0.02,0.02]",139.361,0,16,16,142,1,,,,,,,
,,,,,,,6634e4d4f1950b4dcd44d4d9,682f0323449051f9731f198e,2025-05-22_13h01.42.982,cuing_paradigm_dot,2024.1.5,Win32,59.52380952,682d556593cb38ad0a074487,,,,,,,,,,,139.3613,139.8612,,,140.1112,140.7444,right,0.6278,,,,,,,,,0.4,,,,,,139.8612,140.1112,140.7445,"[0.06753279915273212,0.1583723978711911]","[-1,-1,-1]","[-0.026146482626177147,0.1435133554488766]","[-1,-1,-1]","[0.09410314734599665,0.10561544516214022]","[1,1,1]","[0.1316108173193066,0.007739348661256793]","[-1,-1,-1]","[-0.023575528227993015,0.03848359534282761]","[-1,-1,-1]","[0.06141013881368897,0.014461571123948896]","[-1,-1,-1]","[0.006059228792536962,0.08168852480202543]","[1,1,1]","[-0.17271728218498858,-0.021729807905772374]","[-1,-1,-1]","[0.10103161414154743,-0.07762780999193389]","[-1,-1,-1]","[-0.09430985195497887,-0.031862043454388284]","[-1,-1,-1]","[-0.08307613313160829,0.16553513277194842]","[-1,-1,-1]","[-0.015736040048168625,-0.11725975389476011]","[1,1,1]","[0.000777261294199816,-0.1967011836023225]","[-1,-1,-1]","[-0.08872664729913936,0.09180308774246589]","[-1,-1,-1]","[0.1896262105250509,0.0021089490869125598]","[-1,-1,-1]","[0.16483811262006332,0.11114632699730649]","[1,1,1]","[-0.18898748034661508,0.020697341294400286]","[-1,-1,-1]","[-0.12939350162363208,-0.009458702976383987]","[-1,-1,-1]","[-0.06633882341468461,-0.07416754746880401]","[1,1,1]","[0.00652298555880273,-0.009310275864093375]","[1,1,1]","[-0.14670235737765885,0.1339682336152294]","[1,1,1]","[0.05243805317435873,0.0695768684976241]","[1,1,1]","[-0.05762102359683391,-0.1569632510582636]","[1,1,1]","[-0.17577736188975204,-0.08108764224286884]","[-1,-1,-1]","[-0.14798588851695454,-0.12219444057029763]","[-1,-1,-1]","[0.12291821789718532,0.1409796224044136]","[-1,-1,-1]","[0.011724360325652602,-0.15685938780517275]","[1,1,1]","[0.048702605672951454,-0.04109020928815237]","[-1,-1,-1]","[-0.1517282864744136,0.048231278901124726]","[1,1,1]","[0.1758184781868435,0.04134150717224618]","[1,1,1]","[-0.03494070515541713,-0.005504995449170548]","[-1,-1,-1]","[0.06698640187875608,-0.14994144535784013]","[1,1,1]","[0.02,0.02]",141.8444,0,17,17,56,1,,,,,,,
,,,,,,,6634e4d4f1950b4dcd44d4d9,682f0323449051f9731f198e,2025-05-22_13h01.42.982,cuing_paradigm_dot,2024.1.5,Win32,59.52380952,682d556593cb38ad0a074487,,,,,,,,,,,141.8448,142.3445,,,142.5948,143.0613,right,0.4494,,,,,,,,,0.4,,,,,,142.3445,142.5947,143.0613,"[0.09369450655337257,-0.17513707377154836]","[-1,-1,-1]","[0.19062753930379475,-0.023516482572410947]","[-1,-1,-1]","[0.10334398113557709,-0.00384938387258279]","[1,1,1]","[-0.1742358249392028,-0.07457167714955977]","[-1,-1,-1]","[0.11508117888595736,-0.05066376417375699]","[-1,-1,-1]","[0.07153560158827059,0.09884752323194379]","[-1,-1,-1]","[0.05401802147218147,0.01760762283795158]","[1,1,1]","[0.15153205344089843,-0.09906640749472416]","[1,1,1]","[-0.05460103106040489,-0.00493863993347493]","[-1,-1,-1]","[0.15792516645877777,0.008969497178900481]","[-1,-1,-1]","[-0.1280840944240959,0.015600415911760656]","[-1,-1,-1]","[-0.008910895563863087,0.09247438212845269]","[1,1,1]","[-0.18296622683439692,0.015536860422195866]","[-1,-1,-1]","[0.17572393757219307,0.06200270408325076]","[1,1,1]","[0.028418163128761012,0.16197426450172675]","[-1,-1,-1]","[-0.054580278943908406,-0.18166034842132847]","[1,1,1]","[0.029067911460119496,-0.041510672074231536]","[1,1,1]","[-0.02688842707078832,-0.12071623192104469]","[-1,-1,-1]","[-0.08048187572979922,-0.08988512504500544]","[1,1,1]","[0.1318748874349894,0.10919875436415112]","[1,1,1]","[0.01270387618326464,0.04810843461867784]","[-1,-1,-1]","[0.07544100848557814,-0.07659528383731598]","[1,1,1]","[-0.04366136746888944,0.04061936719512108]","[-1,-1,-1]","[0.052351911593823366,-0.163116805444306]","[-1,-1,-1]","[-0.04223008588272037,-0.07732499803853025]","[1,1,1]","[-0.04109292224185924,0.12758518323992765]","[-1,-1,-1]","[0.01780261992882067,-0.0813649197653426]","[-1,-1,-1]","[-0.13052074733271976,-0.13001533245814728]","[1,1,1]","[0.07997526103855439,0.17027556220208417]","[-1,-1,-1]","[0.09718072318712134,-0.12400072178992703]","[-1,-1,-1]","[0.12443684855128885,0.1500773981230856]","[1,1,1]","[-0.16673529941701778,-0.021700786732760744]","[-1,-1,-1]","[0.02,0.02]",144.1615,0,18,18,50,1,,,,,,,
,,,,,,,6634e4d4f1950b4dcd44d4d9,682f0323449051f9731f198e,2025-05-22_13h01.42.982,cuing_paradigm_dot,2024.1.5,Win32,59.52380952,682d556593cb38ad0a074487,,,,,,,,,,,144.162,144.6612,,,144.9115,145.4279,right,0.4995,,,,,,,,,0.5,,,,,,144.6612,144.9114,145.428,"[-0.0067131072055446606,0.10029840676538618]","[-1,-1,-1]","[-0.16916893149717963,0.04944611177993291]","[-1,-1,-1]","[-0.04103889480680503,0.07177299789453798]","[-1,-1,-1]","[0.10764491083360271,0.09787233031139829]","[-1,-1,-1]","[-0.154683747072253,0.002696704978930337]","[-1,-1,-1]","[0.09579744220000812,-0.12647299619760569]","[-1,-1,-1]","[-0.16097817202050113,-0.09938385991853078]","[-1,-1,-1]","[0.09256997499386378,0.1460362749768749]","[-1,-1,-1]","[0.07626981489891323,0.03140742976773685]","[-1,-1,-1]","[0.09633751842292347,-0.02855841573983018]","[1,1,1]","[0.0008127113160619903,0.029268718324970848]","[1,1,1]","[0.02803359584150627,-0.019542127700499113]","[1,1,1]","[-0.033751126791659924,0.1339026724261526]","[-1,-1,-1]","[-0.04518463251543852,-0.06927459521623484]","[-1,-1,-1]","[-0.16652885126430242,-0.0490946851315411]","[1,1,1]","[-0.047902522788319295,-0.16500681391292052]","[1,1,1]","[0.0393522262067838,0.1571259353724852]","[1,1,1]","[-0.17048683357738753,0.10408933062722137]","[-1,-1,-1]","[-0.006073919844813807,-0.0531617717288968]","[1,1,1]","[0.02194157937543623,-0.1702653772267485]","[-1,-1,-1]","[0.17245629723091307,0.01465862938948588]","[1,1,1]","[0.05191141591801948,-0.08247158031541169]","[1,1,1]","[-0.006215653491545652,0.17347812291989795]","[1,1,1]","[-0.07801189391163268,-0.010652708418617502]","[1,1,1]","[-0.06631547968810451,-0.12363247220223737]","[-1,-1,-1]","[0.07757808774834975,-0.18247982861079196]","[-1,-1,-1]","[0.14592909423546238,0.13020924166610423]","[1,1,1]","[0.042036441364658145,0.05945218828363885]","[1,1,1]","[-0.011777582103367632,-0.09379625693829843]","[1,1,1]","[-0.1156890379087998,0.12992261936384]","[1,1,1]","[0.163900506510092,-0.11459508775263706]","[-1,-1,-1]","[0.16766190310508436,-0.04484813870258125]","[1,1,1]","[0.02,0.02]",146.5278,0,19,19,115,1,,,,,,,
,,,,,,,6634e4d4f1950b4dcd44d4d9,682f0323449051f9731f198e,2025-05-22_13h01.42.982,cuing_paradigm_dot,2024.1.5,Win32,59.52380952,682d556593cb38ad0a074487,,,,,,,,,,,146.5281,147.0279,,,147.2783,147.7612,left,0.4766,,,,,,,,,0.6,,,,,,147.028,147.2783,147.7613,"[-0.004968506799857513,-0.10412149788478259]","[-1,-1,-1]","[-0.009372499306256037,0.11605976965097804]","[1,1,1]","[0.05087022736369943,0.07909816764099857]","[-1,-1,-1]","[-0.0834809089106404,-0.16293705359311186]","[-1,-1,-1]","[0.13164798868569103,-0.026137914372861813]","[1,1,1]","[-0.07514341088464871,-0.05523672261687789]","[1,1,1]","[-0.07437423008326431,0.12646401522906497]","[1,1,1]","[-0.11198183631289677,-0.010859790888595617]","[1,1,1]","[-0.19079540415471466,-0.018099322885503977]","[1,1,1]","[0.037259509278211804,-0.02072344856197523]","[-1,-1,-1]","[-0.023996495680237113,-0.1437635575825632]","[-1,-1,-1]","[-0.11190146288712806,-0.09797299689207321]","[1,1,1]","[-0.031013478429696158,0.15607732942069338]","[1,1,1]","[0.1049347828543344,0.12788035591448413]","[1,1,1]","[0.17574868548464842,0.08068936978762933]","[-1,-1,-1]","[-0.10917747725780792,0.10419537321474731]","[-1,-1,-1]","[-0.12852465101494207,0.05433930205229318]","[1,1,1]","[0.03507280376907606,-0.16945262690328597]","[1,1,1]","[-0.11630087880957776,0.14614231910194594]","[-1,-1,-1]","[-0.03408783096545721,0.0806078194169937]","[1,1,1]","[-0.17778855072663804,-0.07253454627461119]","[-1,-1,-1]","[0.027988745186570442,0.14856995706037504]","[1,1,1]","[-0.13686490797791437,-0.05317574695002207]","[1,1,1]","[-0.02154287512786531,-0.06715146652071532]","[1,1,1]","[0.15381982605909253,-0.09098368028161]","[-1,-1,-1]","[-0.15250025086105062,-0.11652837173870385]","[-1,-1,-1]","[-0.025654771809770643,0.0182018428821088]","[1,1,1]","[0.10875258352294145,-0.08842533069044071]","[1,1,1]","[-0.0067897150132290385,-0.02992284353286705]","[-1,-1,-1]","[0.10991421002563012,-0.13795472513953946]","[-1,-1,-1]","[0.08951685426557271,-0.04312011934573228]","[1,1,1]","[0.07264980609764334,0.01816001932207115]","[1,1,1]","[0.02,0.02]",148.8614,0,20,20,161,1,,,,,,,
,,,,,,,6634e4d4f1950b4dcd44d4d9,682f0323449051f9731f198e,2025-05-22_13h01.42.982,cuing_paradigm_dot,2024.1.5,Win32,59.52380952,682d556593cb38ad0a074487,,,,,,,,,,,148.8617,149.3615,,,149.6156,150.2616,left,0.6316,,,,,,,,,0.55,,,,,,149.3615,149.6156,150.2617,"[0.11755782644654578,-0.07316461623518233]","[-1,-1,-1]","[0.07092210664745051,0.07468755639188528]","[1,1,1]","[0.1785762173903434,0.036153004243823415]","[-1,-1,-1]","[-0.09317139721046026,0.014365807315776212]","[-1,-1,-1]","[-0.16992393930368985,0.09666682820903931]","[-1,-1,-1]","[-0.030681451037317935,-0.15134351695535478]","[-1,-1,-1]","[0.057255886252045085,-0.11219656111857325]","[-1,-1,-1]","[-0.12674335120826813,-0.03674410699771743]","[1,1,1]","[-0.008284958895459403,0.035702940608674655]","[1,1,1]","[0.1508673364400478,0.10395971626758205]","[-1,-1,-1]","[-0.0038142650262275347,-0.048768503048990754]","[-1,-1,-1]","[-0.04894026508854522,0.012707771425647219]","[-1,-1,-1]","[0.14425212562417308,-0.13837396037646194]","[1,1,1]","[-0.15554856561401503,0.029064407180130942]","[1,1,1]","[-0.08100650815479324,0.14468593388597542]","[1,1,1]","[-0.1305206665110718,-0.11988786637060399]","[1,1,1]","[0.05865134597621362,-0.18252879976215355]","[1,1,1]","[0.12941057231246933,0.016740235100046488]","[-1,-1,-1]","[-0.0632311660145873,-0.04370891693605907]","[-1,-1,-1]","[-0.15576099237443602,-0.06859728976351195]","[-1,-1,-1]","[-0.021776831019639162,0.08432234303642404]","[1,1,1]","[0.06277922652276052,0.13794689402136007]","[1,1,1]","[-0.01909847887011388,0.18852915264364217]","[1,1,1]","[0.0009020768010968928,-0.11704445080152209]","[1,1,1]","[0.07882456283976357,-0.04765868756008937]","[-1,-1,-1]","[0.026018668262944095,0.16997949952442884]","[-1,-1,-1]","[-0.0929961836762848,-0.1522533035616226]","[1,1,1]","[-0.06562297022584271,0.07048092252972075]","[1,1,1]","[-0.06353178123012708,-0.09873285704664303]","[1,1,1]","[0.0802124224942245,0.17661335362113828]","[1,1,1]","[-0.017262803576663842,0.12576834157947725]","[1,1,1]","[0.15730304020580277,-0.08547506972492917]","[1,1,1]","[0.02,0.02]",151.3613,0,21,21,126,1,,,,,,,
,,,,,,,6634e4d4f1950b4dcd44d4d9,682f0323449051f9731f198e,2025-05-22_13h01.42.982,cuing_paradigm_dot,2024.1.5,Win32,59.52380952,682d556593cb38ad0a074487,,,,,,,,,,,151.3617,151.8615,,,152.1118,152.9614,left,0.8278,,,,,,,,,0.55,,,,,,151.8616,152.1118,152.9614,"[-0.11760349495128353,0.053717828929925465]","[-1,-1,-1]","[0.10331139655410479,0.11921286408477817]","[1,1,1]","[0.0005614740561452926,-0.10341374663582255]","[1,1,1]","[-0.03482201108922451,0.10240034170665635]","[-1,-1,-1]","[-0.09503614826541971,0.17029733416846934]","[-1,-1,-1]","[0.06718111011416829,-0.11945051942344706]","[1,1,1]","[-0.07036841123014742,-0.05577954877098385]","[1,1,1]","[0.09904740318861022,-0.05005139573056094]","[-1,-1,-1]","[0.18503840145868086,0.05080686326516059]","[1,1,1]","[0.06406911193657865,0.03350335885504044]","[-1,-1,-1]","[-0.005833172872421907,-0.16047951196795296]","[-1,-1,-1]","[-0.013984002792485383,0.1870552724730168]","[1,1,1]","[-0.09697054824190755,0.10336896473877158]","[1,1,1]","[0.01611559966786207,-0.05459260048512735]","[1,1,1]","[0.05334904794255235,0.12841376958432743]","[1,1,1]","[-0.1898052955162076,0.012237088094954746]","[1,1,1]","[-0.1585303514431727,0.10612780693536587]","[-1,-1,-1]","[0.022524632388197036,0.08969194891160642]","[1,1,1]","[-0.03338168893925123,-0.0012981230148535836]","[-1,-1,-1]","[0.1489134565624795,-0.07670536413897783]","[1,1,1]","[0.04909836774479766,0.17261234162876873]","[-1,-1,-1]","[0.1750849494259158,0.004336525580124143]","[-1,-1,-1]","[-0.12393147723977298,-0.09215405928880947]","[1,1,1]","[0.09742900955210422,0.06012546255982077]","[1,1,1]","[-0.13009576948936688,0.14628996080251103]","[-1,-1,-1]","[-0.07322416558362935,0.06149188765138073]","[1,1,1]","[0.13848731866946773,0.03596263592745032]","[-1,-1,-1]","[-0.08909820092662991,-0.1287104769150562]","[1,1,1]","[0.11925925099479877,-0.1114988867425289]","[1,1,1]","[-0.1055683418507577,-0.022961790747385566]","[1,1,1]","[0.052486245766792304,-0.036511749438163106]","[-1,-1,-1]","[0.027771142419777444,-0.18880851177939606]","[-1,-1,-1]","[0.02,0.02]",154.0616,0,22,22,123,1,,,,,,,
,,,,,,,6634e4d4f1950b4dcd44d4d9,682f0323449051f9731f198e,2025-05-22_13h01.42.982,cuing_paradigm_dot,2024.1.5,Win32,59.52380952,682d556593cb38ad0a074487,,,,,,,,,,,154.062,154.5615,,,154.8117,155.3616,right,0.5213,,,,,,,,,0.4,,,,,,154.5615,154.8117,155.3616,"[-0.0044022627646311575,0.12118132947282606]","[-1,-1,-1]","[0.013565839362569311,-0.0904937019437369]","[1,1,1]","[0.046485319190148644,-0.1551055164947404]","[1,1,1]","[0.0678849040918625,0.1835625209360744]","[-1,-1,-1]","[-0.058744239960461214,-0.06512766875710861]","[-1,-1,-1]","[-0.15335021654020348,0.06003838472609796]","[1,1,1]","[0.06147783462949813,0.1293434212228247]","[-1,-1,-1]","[-0.14163234249866685,0.01220564505235312]","[1,1,1]","[-0.09891721559371068,0.12545116569987874]","[-1,-1,-1]","[-0.15777033068077057,-0.06117952383162878]","[-1,-1,-1]","[0.04153979523562969,0.08572612889766897]","[-1,-1,-1]","[0.1276071011774533,-0.03474908363629356]","[1,1,1]","[0.10868119914383893,-0.1200416402236965]","[-1,-1,-1]","[0.07994648868220433,0.030419688531845995]","[-1,-1,-1]","[-0.04612492665478953,-0.1628988516742665]","[1,1,1]","[-0.0182957359385205,0.1646598893279818]","[1,1,1]","[0.016422081065274482,-0.017135250952498574]","[1,1,1]","[-0.05695379259206164,-0.004160951191832369]","[-1,-1,-1]","[0.037631924618825696,-0.05147984683628181]","[-1,-1,-1]","[-0.027209108523788782,-0.030942869486341923]","[1,1,1]","[-0.09749110068115421,-0.018940099925019504]","[-1,-1,-1]","[0.07151314913935272,-0.08542837544779507]","[-1,-1,-1]","[0.169152121314858,0.020852529682208767]","[1,1,1]","[-0.09155365440649343,-0.1566370779127124]","[-1,-1,-1]","[-0.06687888953904367,0.1752795455284923]","[-1,-1,-1]","[0.17520817866269842,0.08594715108056304]","[1,1,1]","[-0.05464457285448703,0.03578891110471768]","[1,1,1]","[-0.044991214768612266,0.1079706281046692]","[-1,-1,-1]","[0.0022265373312577506,0.07474169953314402]","[1,1,1]","[0.07592354202276543,-0.024818151379027122]","[-1,-1,-1]","[0.13106047160118225,0.09570362290380575]","[-1,-1,-1]","[0.02676670312049135,0.17832280381989685]","[-1,-1,-1]","[0.02,0.02]",156.4617,0,23,23,46,1,,,,,,,
,,,,,,,6634e4d4f1950b4dcd44d4d9,682f0323449051f9731f198e,2025-05-22_13h01.42.982,cuing_paradigm_dot,2024.1.5,Win32,59.52380952,682d556593cb38ad0a074487,,,,,,,,,,,156.4621,156.9615,,,157.2121,157.8287,right,0.5987,,,,,,,,,0.4,,,,,,156.9615,157.2121,157.8288,"[-0.09773332193134429,0.06942882042449164]","[-1,-1,-1]","[0.02585125767143701,-0.022369802399860608]","[-1,-1,-1]","[-0.044362737247632525,0.1156029554573612]","[1,1,1]","[0.00544869791115605,-0.1177371218346762]","[1,1,1]","[0.08866621275276029,0.09149451475913269]","[-1,-1,-1]","[0.041979074873983224,0.03192263556026714]","[-1,-1,-1]","[-0.12803318527025012,-0.01982550435367532]","[1,1,1]","[-0.05006597520949725,0.04844460872297028]","[-1,-1,-1]","[-0.1785070744423107,0.02036921858402359]","[1,1,1]","[-0.023546493407929255,-0.1823626318226813]","[-1,-1,-1]","[-0.09345274311667205,0.0264244858458402]","[1,1,1]","[0.16712603590700323,-0.047721334299512995]","[1,1,1]","[0.1767542465321494,0.007762093404836971]","[1,1,1]","[0.08079510719498013,-0.17792045143159063]","[-1,-1,-1]","[-0.18798190136465123,-0.030960414551022625]","[-1,-1,-1]","[-0.16141518751381395,-0.08128030636843221]","[-1,-1,-1]","[-0.17143037359695823,0.09293900802026303]","[-1,-1,-1]","[0.11832140367435988,-0.14021492469139651]","[-1,-1,-1]","[-0.08675363382623583,-0.02103547776076837]","[-1,-1,-1]","[0.08614659239932453,0.13717900102306038]","[-1,-1,-1]","[0.020227354665640466,-0.16441945829006735]","[-1,-1,-1]","[0.1820922579873771,0.08039149828599712]","[1,1,1]","[-0.06579000540428602,-0.1562757216089756]","[-1,-1,-1]","[0.0783512249264989,-0.02559353697699271]","[-1,-1,-1]","[-0.1373107639884536,0.13283244878784958]","[1,1,1]","[0.042547426611097956,0.16125457435962287]","[1,1,1]","[0.002249847024417531,-0.05630909256665322]","[-1,-1,-1]","[-0.026835889099625726,0.18770874164292461]","[1,1,1]","[-0.012117887018525855,-0.003060529491835807]","[1,1,1]","[0.0607084335432481,-0.13906670498576348]","[1,1,1]","[0.12536544958744342,-0.018110071176376953]","[-1,-1,-1]","[-0.09331244284811498,-0.06624276556082091]","[-1,-1,-1]","[0.02,0.02]",158.9283,0,24,24,57,1,,,,,,,
,,,,,,,6634e4d4f1950b4dcd44d4d9,682f0323449051f9731f198e,2025-05-22_13h01.42.982,cuing_paradigm_dot,2024.1.5,Win32,59.52380952,682d556593cb38ad0a074487,,,,,,,,,,,158.9286,159.4284,,,159.6882,160.8118,right,1.107,,,,,,,,,0.4,,,,,,159.4285,159.6881,160.8118,"[-0.012695685356483436,-0.11179381690522588]","[-1,-1,-1]","[0.06816220096663392,0.08435255670922077]","[-1,-1,-1]","[-0.06655405030325548,0.046972099838823445]","[-1,-1,-1]","[0.02973778779171139,0.07163176509871276]","[-1,-1,-1]","[0.0929350883597775,0.012933750266830637]","[-1,-1,-1]","[-0.09492857513591664,-0.12784480390833958]","[-1,-1,-1]","[-0.04263237003991092,0.12633236514441093]","[-1,-1,-1]","[0.057913012866131486,0.12561432920935817]","[1,1,1]","[0.004469111636449406,0.19415482103839915]","[-1,-1,-1]","[0.004515438904360941,0.1210843315910212]","[1,1,1]","[0.04063681090364684,-0.04928952872960103]","[1,1,1]","[-0.01369823498793012,0.011227594180225403]","[1,1,1]","[0.17909258100133008,-0.087271803789949]","[1,1,1]","[-0.062764458327705,0.17202539261009303]","[-1,-1,-1]","[-0.018315560886520824,-0.052338255129186946]","[-1,-1,-1]","[0.08698775182486383,-0.10301101386449588]","[1,1,1]","[-0.13528807894660755,0.058220461513616296]","[1,1,1]","[0.0696432595712435,0.17522772358900984]","[-1,-1,-1]","[0.16721330311356855,0.10471186582505851]","[1,1,1]","[-0.1877471842906519,0.04469841032115497]","[-1,-1,-1]","[-0.11129922302730283,-0.1645921237746718]","[-1,-1,-1]","[-0.0011895561600071276,-0.15752811070575068]","[-1,-1,-1]","[-0.09014941075629325,-0.011920907546510104]","[1,1,1]","[0.011688485261163522,-0.1974816420166979]","[1,1,1]","[0.021183127151629785,0.031315438026149924]","[-1,-1,-1]","[-0.05450159491730193,0.007895134542102314]","[-1,-1,-1]","[0.15606063728743438,0.04539375349847632]","[-1,-1,-1]","[-0.11657560850312175,0.10807802091740909]","[-1,-1,-1]","[0.07380623635775754,-0.02640395926694078]","[1,1,1]","[-0.07296874083266039,-0.18096870104463328]","[-1,-1,-1]","[-0.1267626399970761,0.016614411573694022]","[1,1,1]","[-0.12060089359522082,-0.09213863877564267]","[1,1,1]","[0.02,0.02]",161.9117,0,25,25,36,1,,,,,,,
,,,,,,,6634e4d4f1950b4dcd44d4d9,682f0323449051f9731f198e,2025-05-22_13h01.42.982,cuing_paradigm_dot,2024.1.5,Win32,59.52380952,682d556593cb38ad0a074487,,,,,,,,,,,161.912,162.4118,,,162.6624,163.3122,right,0.6328,,,,,,,,,0.45,,,,,,162.4118,162.6624,163.3122,"[0.035603152144077575,0.1769950365606885]","[1,1,1]","[-0.0941976704479136,-0.0904975361219541]","[-1,-1,-1]","[0.06000939208924257,-0.13287535813327758]","[1,1,1]","[-0.05734254999461036,-0.03761975309379052]","[1,1,1]","[0.07860553595796475,-0.00741096172928701]","[-1,-1,-1]","[-0.012017345675255623,-0.11970306561180658]","[1,1,1]","[0.04902528916154424,0.04549318841316377]","[-1,-1,-1]","[-0.14072287075540774,-0.11955268624312265]","[-1,-1,-1]","[-0.00500973463700743,0.1078395142311603]","[1,1,1]","[0.09846561946494067,0.09462385025479053]","[1,1,1]","[0.15589776151894325,-0.07778161021293567]","[1,1,1]","[0.12652994126246475,0.021271627603919395]","[-1,-1,-1]","[0.07721863437055007,0.1692481721014514]","[1,1,1]","[-0.07363195348691369,-0.17120854548655132]","[-1,-1,-1]","[-0.08553524158963488,0.1176393338565746]","[-1,-1,-1]","[0.007491936039052144,0.006324688662734219]","[-1,-1,-1]","[-0.04272820035102335,0.1686669862269528]","[1,1,1]","[-0.14941177690174487,0.03112480681715251]","[1,1,1]","[-0.19043204828970822,0.05581870813142843]","[1,1,1]","[0.11541618602127877,-0.07054471548922332]","[1,1,1]","[0.18817996598528527,-0.03392390839040647]","[-1,-1,-1]","[-0.027735221570505265,0.06889426430958283]","[-1,-1,-1]","[-0.19181319677721734,-0.01160021842945239]","[1,1,1]","[-0.16626754446327657,0.09823081868905874]","[-1,-1,-1]","[-0.18040296997325106,-0.05201594564611861]","[1,1,1]","[0.011876729677893043,-0.19453225649240757]","[-1,-1,-1]","[0.11227564918559162,-0.1326955963477183]","[-1,-1,-1]","[0.13701871541414162,-0.02946681155156184]","[-1,-1,-1]","[-0.06776027879783837,-0.13024493962657838]","[-1,-1,-1]","[-0.11408826288397422,0.15062425060881218]","[-1,-1,-1]","[0.054459480308969556,-0.06330482673565091]","[-1,-1,-1]","[0.18761377981986332,0.008801446262057354]","[-1,-1,-1]","[0.02,0.02]",164.412,0,26,26,80,1,,,,,,,
,,,,,,,6634e4d4f1950b4dcd44d4d9,682f0323449051f9731f198e,2025-05-22_13h01.42.982,cuing_paradigm_dot,2024.1.5,Win32,59.52380952,682d556593cb38ad0a074487,,,,,,,,,,,164.4124,164.9118,,,165.1621,165.9151,left,0.7306,,,,,,,,,0.55,,,,,,164.9119,165.1621,165.9152,"[0.10259399018361996,-0.05052946441785387]","[1,1,1]","[0.09474625517601207,-0.11143499693127032]","[-1,-1,-1]","[-0.13235614350637206,-0.11943447962589897]","[-1,-1,-1]","[-0.032562265123862934,-0.10180704727191313]","[1,1,1]","[0.14408513341413745,-0.1107539131050034]","[-1,-1,-1]","[0.05748358826173674,-0.14636656276356513]","[-1,-1,-1]","[-0.06133812157533208,-0.15969160090724357]","[1,1,1]","[0.017264609812504477,0.020877083234438928]","[1,1,1]","[0.0035774756658608613,-0.024458079251054674]","[-1,-1,-1]","[0.15487478244535838,0.02666489406398679]","[1,1,1]","[-0.10777757922080151,0.15915469200092763]","[-1,-1,-1]","[0.0521861705148704,0.04622133601039283]","[-1,-1,-1]","[0.022459752117716746,0.18461487300435458]","[1,1,1]","[-0.16509164210250343,-0.004283547687824521]","[-1,-1,-1]","[-0.09130417665212216,0.11553415154173521]","[-1,-1,-1]","[0.10254151004766189,0.14991051406571484]","[1,1,1]","[-0.09999906527305852,-0.050790115569963434]","[-1,-1,-1]","[0.06328618914623141,-0.030698313192939784]","[-1,-1,-1]","[0.07447160546708306,0.11335921834568248]","[1,1,1]","[0.041969607055832026,-0.10536047515968051]","[1,1,1]","[0.14622295270017657,0.09385860036679458]","[-1,-1,-1]","[-0.06570238149671107,0.017392929695970664]","[1,1,1]","[-0.006702485988118323,-0.16807326722766786]","[1,1,1]","[0.005380728832849382,-0.06742620781538043]","[1,1,1]","[-0.10232107005640981,-0.1603556019113575]","[1,1,1]","[-0.006072465351288353,0.11169339211506742]","[1,1,1]","[0.12903135626475642,-0.0053600782150566096]","[1,1,1]","[-0.04532040145709045,0.062310561439012487]","[-1,-1,-1]","[-0.11556723227821185,-0.012755454745735582]","[1,1,1]","[0.09238691435635797,0.02144605255310557]","[-1,-1,-1]","[-0.1193969733433395,0.043026239653754364]","[1,1,1]","[0.18977394973250436,-0.0014477884473592048]","[1,1,1]","[0.02,0.02]",167.0119,0,27,27,138,1,,,,,,,
,,,,,,,6634e4d4f1950b4dcd44d4d9,682f0323449051f9731f198e,2025-05-22_13h01.42.982,cuing_paradigm_dot,2024.1.5,Win32,59.52380952,682d556593cb38ad0a074487,,,,,,,,,,,167.0121,167.5121,,,167.7517,168.8786,left,1.1137,,,,,,,,,0.6,,,,,,167.5122,167.7516,168.8786,"[0.1550250399138558,-0.030969197867782447]","[-1,-1,-1]","[-0.05930205839943135,-0.017822712187728296]","[1,1,1]","[0.026644593613377458,0.018464210593254954]","[-1,-1,-1]","[0.10182456495487709,-0.026467373116179013]","[1,1,1]","[-0.001510747579836472,0.1538706864457774]","[1,1,1]","[-0.1356700034766281,0.013189431996895389]","[1,1,1]","[-0.19303034810662784,0.03381111843285961]","[1,1,1]","[0.0824962138366807,0.11461465787258136]","[1,1,1]","[-0.02712666020994077,0.10297060754632163]","[-1,-1,-1]","[-0.06224772847251952,-0.15276650444765885]","[-1,-1,-1]","[-0.1375998765635583,-0.07908977850609436]","[1,1,1]","[-0.15313649198245763,0.04998800459991433]","[-1,-1,-1]","[0.1973788780208278,-0.0026615036256407002]","[-1,-1,-1]","[-0.09795994773234203,0.028143344040207543]","[1,1,1]","[0.07038645643848565,-0.1514689777166427]","[1,1,1]","[-0.01505606314834399,-0.08995433773181208]","[-1,-1,-1]","[0.06509602180218918,-0.06544937010704574]","[1,1,1]","[0.09822550865552584,-0.1219895916637129]","[1,1,1]","[0.17205000740285986,0.02891240398239783]","[1,1,1]","[-0.158936752140545,0.10072306775771492]","[1,1,1]","[-0.057360765049883945,0.14394057290611523]","[-1,-1,-1]","[-0.10362498873520619,-0.15335401555893352]","[1,1,1]","[-0.12565035069860314,0.1317839859342461]","[1,1,1]","[0.040055104799077354,-0.11306774942485003]","[-1,-1,-1]","[-0.011569261475170393,-0.1671124127410992]","[-1,-1,-1]","[0.044919933247953014,-0.019098550556565872]","[1,1,1]","[0.04021844404835805,-0.18905640671133572]","[1,1,1]","[0.11316886603504114,0.04650362304777376]","[-1,-1,-1]","[0.1660862704681401,-0.10420964188934116]","[-1,-1,-1]","[0.12314047469920336,0.15402202758800887]","[1,1,1]","[0.008561861815072475,-0.036136046709714015]","[-1,-1,-1]","[-0.1718788782886862,-0.020097206930988286]","[1,1,1]","[0.02,0.02]",169.9787,0,28,28,177,1,,,,,,,
,,,,,,,6634e4d4f1950b4dcd44d4d9,682f0323449051f9731f198e,2025-05-22_13h01.42.982,cuing_paradigm_dot,2024.1.5,Win32,59.52380952,682d556593cb38ad0a074487,,,,,,,,,,,169.9789,170.4786,,,170.7168,171.7789,right,1.037,,,,,,,,,0.5,,,,,,170.4786,170.7168,171.7789,"[-0.10736394268111495,0.15213721374586214]","[-1,-1,-1]","[0.03307242091624595,0.08747117669387319]","[1,1,1]","[-0.14066539506813255,-0.0693999233066647]","[1,1,1]","[0.10320916246197283,0.09762301021208875]","[1,1,1]","[-0.08425667920882592,0.0674655997668279]","[-1,-1,-1]","[-0.18984768168128005,-0.008273369456021158]","[1,1,1]","[-0.1467925285492979,0.005824299516695615]","[-1,-1,-1]","[-0.015441651760210114,-0.19262237809934518]","[-1,-1,-1]","[0.044738646150392455,0.1581468010542258]","[-1,-1,-1]","[-0.026074276016797373,0.14855114911318754]","[-1,-1,-1]","[-0.03784178069218002,0.008526802340055864]","[1,1,1]","[0.07680852406374072,-0.03278488830396992]","[-1,-1,-1]","[-0.09750444434068263,-0.12021870075389275]","[1,1,1]","[-0.09465288344269762,-0.0785188007265184]","[-1,-1,-1]","[0.14768090738984557,0.030362082817128377]","[1,1,1]","[0.02808703840775416,-0.12821648021273177]","[-1,-1,-1]","[-0.07517295210859326,0.12720674599796414]","[-1,-1,-1]","[0.1257070796689341,-0.10754593487106333]","[1,1,1]","[-0.00011491804868423428,0.06444489651788046]","[1,1,1]","[-0.14076527826652613,0.1244341566127301]","[-1,-1,-1]","[0.06500267052430923,0.027120415781901833]","[1,1,1]","[-0.09357583361295982,-0.02898411654541118]","[-1,-1,-1]","[0.08459885174142019,0.17675821987883203]","[1,1,1]","[0.1978926303756948,-0.005077061544168708]","[-1,-1,-1]","[0.14283228226001699,-0.053004141777993175]","[1,1,1]","[0.04791848748307432,-0.1745769754074655]","[-1,-1,-1]","[-0.05174171599537025,-0.13777080611037068]","[1,1,1]","[-0.01882387381303096,-0.028387154999010202]","[-1,-1,-1]","[0.1705677355949232,0.07544828524904436]","[-1,-1,-1]","[-0.04955073450347274,-0.07964028730816955]","[1,1,1]","[-0.08861907628921276,-0.1606976200139986]","[1,1,1]","[0.020931384041798798,-0.06310245840807086]","[1,1,1]","[0.02,0.02]",172.8789,0,29,29,95,1,,,,,,,
,,,,,,,6634e4d4f1950b4dcd44d4d9,682f0323449051f9731f198e,2025-05-22_13h01.42.982,cuing_paradigm_dot,2024.1.5,Win32,59.52380952,682d556593cb38ad0a074487,,,,,,,,,,,172.8792,173.3787,,,173.6291,174.1956,left,0.56,,,,,,,,,0.9,,,,,,173.3788,173.6291,174.1956,"[0.04245804990477302,-0.02571018783149077]","[1,1,1]","[0.1073490678572455,0.1631064521725238]","[1,1,1]","[-0.03279884647971057,0.027763648735800898]","[1,1,1]","[0.15014857834802842,0.012660635783118691]","[1,1,1]","[0.022765001443707016,-0.08347638389532361]","[1,1,1]","[0.02005514923362387,-0.15727048545228575]","[1,1,1]","[-0.10986758238997042,0.15673611150749323]","[1,1,1]","[0.05762130475083631,-0.18787840195943348]","[1,1,1]","[-0.058799661740307506,-0.1657789646215393]","[1,1,1]","[0.048492127415741854,0.018334678116578226]","[1,1,1]","[0.04282348451111567,0.06143582719824206]","[1,1,1]","[0.14779343777248263,0.12141619155161515]","[1,1,1]","[-0.1722086552468582,0.014336334321545957]","[1,1,1]","[-0.035851843275894316,0.08026044347855575]","[1,1,1]","[-0.15433766714445912,0.09006454237432394]","[1,1,1]","[-0.15934151281884282,-0.07380815384579571]","[1,1,1]","[-0.06113349628958848,-0.041372432412488946]","[1,1,1]","[-0.1000889232093977,-0.12058268214622384]","[1,1,1]","[0.07986814186093241,0.11688605115673814]","[1,1,1]","[0.009709124142900035,0.11082165900350126]","[1,1,1]","[-0.10317862369901704,0.09884645107966165]","[1,1,1]","[-0.10234527579553454,0.04664153217087001]","[-1,-1,-1]","[-0.10270895518113217,-0.07492599350778222]","[1,1,1]","[-0.17604361848585243,-0.031122196730190513]","[1,1,1]","[0.14829734888273371,0.06365185767858206]","[1,1,1]","[-0.10468515708993224,-0.002454705062870663]","[1,1,1]","[0.06325850352757381,-0.12063073893858536]","[1,1,1]","[0.10719734282974103,-0.12951376272976622]","[-1,-1,-1]","[0.09521887147882674,-0.014241982926551367]","[1,1,1]","[-0.05975670267658208,-0.11263348417909903]","[-1,-1,-1]","[0.0068496248133640475,0.16198087284145754]","[1,1,1]","[0.1349689076429933,-0.032474759604328135]","[1,1,1]","[0.02,0.02]",175.2955,0,30,30,185,1,,,,,,,
,,,,,,,6634e4d4f1950b4dcd44d4d9,682f0323449051f9731f198e,2025-05-22_13h01.42.982,cuing_paradigm_dot,2024.1.5,Win32,59.52380952,682d556593cb38ad0a074487,,,,,,,,,,,175.2958,175.7956,,,176.0457,177.4456,right,1.3825,,,,,,,,,0.55,,,,,,175.7957,176.0457,177.4456,"[-0.04349725337434782,0.13792665558744924]","[-1,-1,-1]","[0.06079787002594151,-0.042107662590085755]","[-1,-1,-1]","[-0.027076131221363535,0.10021148608256591]","[1,1,1]","[-0.13978053434455645,-0.058961628975426505]","[-1,-1,-1]","[-0.07874900954962522,-0.14298383216952618]","[-1,-1,-1]","[-0.02323041984670508,-0.08737726860845614]","[-1,-1,-1]","[0.12608114402090717,0.05347380891240556]","[1,1,1]","[0.15668433774882062,0.02760672116325307]","[1,1,1]","[0.024639522341445945,-0.02389334262330158]","[-1,-1,-1]","[0.18393444295293163,-0.04076974156452336]","[1,1,1]","[-0.1720901808558711,0.06162104519824454]","[-1,-1,-1]","[0.03005287095759433,0.04297370494130712]","[1,1,1]","[0.12771841421732472,-0.1482150338616084]","[1,1,1]","[-0.039095698145588456,0.18551663321754502]","[-1,-1,-1]","[0.049854231087461294,0.12121173833800136]","[1,1,1]","[0.11099649362786801,0.13339358456169823]","[1,1,1]","[0.06447494406581654,-0.11567447925979708]","[1,1,1]","[0.057218273105123514,0.17706932775311293]","[1,1,1]","[-0.14640931789710243,-0.1252200080212283]","[-1,-1,-1]","[0.07020271455161835,0.015047688205980948]","[1,1,1]","[0.16666566014699696,-0.08568879779575471]","[1,1,1]","[0.12415471673427274,-0.06704012033220234]","[1,1,1]","[0.07812322010105138,-0.16650477521228638]","[1,1,1]","[0.09340453219641588,0.09040089981120143]","[1,1,1]","[-0.08596450849692527,0.03866833768043258]","[1,1,1]","[-0.13067638216276653,-0.009184155504894983]","[-1,-1,-1]","[0.028398165127128644,-0.0923142107470094]","[1,1,1]","[-0.1508993377188954,0.11816506697119081]","[-1,-1,-1]","[-0.10256393611288016,0.12421580894770999]","[-1,-1,-1]","[-0.043382836139983214,-0.19236163980093685]","[-1,-1,-1]","[0.010625153178054077,0.14680518589391148]","[1,1,1]","[-0.10458089537076559,-0.09511711534936783]","[-1,-1,-1]","[0.02,0.02]",178.5458,0,31,31,140,1,,,,,,,
,,,,,,,6634e4d4f1950b4dcd44d4d9,682f0323449051f9731f198e,2025-05-22_13h01.42.982,cuing_paradigm_dot,2024.1.5,Win32,59.52380952,682d556593cb38ad0a074487,,,,,,,,,,,178.5463,179.0457,,,179.2992,180.0458,right,0.7308,,,,,,,,,0.1,,,,,,179.0458,179.2991,180.0459,"[-0.13430657229286633,0.03654948929318997]","[-1,-1,-1]","[0.14449150590967305,-0.11837002658611055]","[-1,-1,-1]","[-0.014887391198056944,0.17154779561406233]","[-1,-1,-1]","[-0.044077788309391644,-0.10001964904048026]","[-1,-1,-1]","[-0.08368750265273675,-0.1070419998176526]","[-1,-1,-1]","[-0.10149774610343934,0.08321760224324233]","[-1,-1,-1]","[-0.0565098824947406,-0.0216001054053209]","[-1,-1,-1]","[0.06929461416813033,-0.03389552207265482]","[-1,-1,-1]","[0.04616593135191656,-0.12567856937191435]","[1,1,1]","[-0.01703110369240337,0.11676552083533703]","[-1,-1,-1]","[-0.14391734777127074,0.11116093483576833]","[-1,-1,-1]","[-0.004536944038722345,-0.19388982004550606]","[-1,-1,-1]","[-0.09362557521390756,0.14425099263823207]","[-1,-1,-1]","[-0.009357728184459815,-0.039039405372524164]","[-1,-1,-1]","[-0.18305284955198714,-0.00809634255291511]","[-1,-1,-1]","[-0.03179438633860955,-0.15013973126159297]","[-1,-1,-1]","[0.1727709609582284,-0.0427097967970024]","[-1,-1,-1]","[0.03820112626664124,0.0217808837456938]","[-1,-1,-1]","[0.1216166312981723,0.11467768673200823]","[-1,-1,-1]","[-0.1005302056442382,-0.06518364772692894]","[1,1,1]","[0.037540772533971645,-0.196401220425612]","[1,1,1]","[-0.08770429910039344,0.022983589638462563]","[-1,-1,-1]","[-0.04989799304922784,0.05343629717653758]","[-1,-1,-1]","[0.07450715055468597,0.04233469311474688]","[-1,-1,-1]","[0.011848119137492456,-0.1024067253077066]","[-1,-1,-1]","[0.028689610424948945,0.10538078391623414]","[-1,-1,-1]","[-0.17441543193655362,0.07446051973832395]","[-1,-1,-1]","[0.12101514740596699,0.043539392430383274]","[-1,-1,-1]","[0.1617494933106512,0.10886308260108357]","[-1,-1,-1]","[0.08863226252986588,0.0019749998060885213]","[-1,-1,-1]","[0.16435527910540046,0.0052109913883992606]","[-1,-1,-1]","[-0.1304549835124111,-0.1248616831956539]","[-1,-1,-1]","[0.02,0.02]",181.1456,0,32,32,16,1,,,,,,,
,,,,,,,6634e4d4f1950b4dcd44d4d9,682f0323449051f9731f198e,2025-05-22_13h01.42.982,cuing_paradigm_dot,2024.1.5,Win32,59.52380952,682d556593cb38ad0a074487,,,,,,,,,,,181.1459,181.6365,,,181.8794,182.5291,right,0.6204,,,,,,,,,0.45,,,,,,181.6365,181.8793,182.5291,"[-0.032702253660297026,0.02908123703184709]","[-1,-1,-1]","[0.027224231927825564,-0.08607843369613388]","[1,1,1]","[0.1421190510939167,0.029251808820235918]","[1,1,1]","[0.13221564900257704,-0.10419410674640853]","[1,1,1]","[-0.03281910293812961,-0.1764205732267064]","[1,1,1]","[0.08355324253329036,0.0959595771151907]","[-1,-1,-1]","[0.11852418149734519,0.11588231185308837]","[1,1,1]","[0.019971494085976482,0.16168191793359177]","[-1,-1,-1]","[-0.019644424385534286,0.07887297955138944]","[1,1,1]","[0.08214717936931118,-0.17033285314251156]","[-1,-1,-1]","[-0.0011771254675202454,0.199419783729337]","[1,1,1]","[-0.16265736591521374,0.09793114368213192]","[-1,-1,-1]","[-0.1684577662517066,-0.07484695090500576]","[-1,-1,-1]","[-0.06243543809365848,0.1189256835790408]","[1,1,1]","[-0.12397066010794221,0.02265931465810317]","[-1,-1,-1]","[-0.06244965894416442,-0.03336922577595669]","[-1,-1,-1]","[-0.15627388126133746,-0.00993456933461933]","[-1,-1,-1]","[-0.0836585655427631,-0.14239795348839393]","[1,1,1]","[-0.08875177030051613,0.170031412695827]","[1,1,1]","[0.1827100829554059,0.02015108057504078]","[-1,-1,-1]","[0.09634939097053423,-0.12543091578577337]","[-1,-1,-1]","[0.09703370312633389,0.013472120739782831]","[1,1,1]","[0.05169064792652172,0.05668120652268998]","[-1,-1,-1]","[-0.0074210993838837655,-0.020515884245792305]","[-1,-1,-1]","[-0.11801458224773365,-0.06550269610407755]","[1,1,1]","[0.15304752554842874,-0.04085669204470212]","[-1,-1,-1]","[-0.1239653163524065,-0.11568308952011615]","[-1,-1,-1]","[0.09964079111898236,-0.06982861385403596]","[-1,-1,-1]","[-0.09436832333495658,0.07457450122827919]","[1,1,1]","[-0.016444488548746444,0.12269097692124806]","[1,1,1]","[0.03504753167675369,-0.14885904125183616]","[-1,-1,-1]","[0.07801362416277056,0.15757141674102282]","[-1,-1,-1]","[0.02,0.02]",183.6291,0,33,33,83,1,,,,,,,
,,,,,,,6634e4d4f1950b4dcd44d4d9,682f0323449051f9731f198e,2025-05-22_13h01.42.982,cuing_paradigm_dot,2024.1.5,Win32,59.52380952,682d556593cb38ad0a074487,,,,,,,,,,,183.6295,184.1292,,,184.3796,185.2296,left,0.8327,,,,,,,,,0.5,,,,,,184.1292,184.3796,185.2296,"[0.08076426473077601,0.08295127986610505]","[-1,-1,-1]","[-0.04997450260286241,0.03498390971527424]","[-1,-1,-1]","[0.02994606615765555,-0.0806852735948769]","[1,1,1]","[0.07824198449712377,-0.1243310474522916]","[1,1,1]","[-0.10667080528942019,-0.10986186388100003]","[1,1,1]","[-0.05405020128816319,-0.1890596586274352]","[1,1,1]","[-0.0656385160602741,0.10056363180951287]","[1,1,1]","[0.11336002282960783,0.005892755008701928]","[-1,-1,-1]","[0.11707515927054446,0.1354001659353999]","[-1,-1,-1]","[-0.020238149062556342,-0.12102473792544867]","[1,1,1]","[0.02751843580315788,0.16490897505809504]","[-1,-1,-1]","[-0.006624889859329191,0.09300240482079764]","[-1,-1,-1]","[-0.11811305332864787,0.11893714064865875]","[1,1,1]","[-0.03519814449972721,0.13246470883315578]","[1,1,1]","[-0.07752953569114451,0.0040330503901019]","[1,1,1]","[-0.17823838605988007,0.0038221390279760243]","[-1,-1,-1]","[0.010088168426812318,-0.03597190372603467]","[1,1,1]","[0.004333880546125181,0.04327642155257946]","[1,1,1]","[0.13290921200238037,0.05040805107227621]","[-1,-1,-1]","[0.16234403461127558,-0.04070108578256223]","[1,1,1]","[-0.1352019269269242,0.03867260016403564]","[-1,-1,-1]","[-0.0958222462619965,0.15880319436045684]","[-1,-1,-1]","[0.0662115071226003,-0.052151275194159505]","[-1,-1,-1]","[-0.16054768316240386,-0.09577312804612319]","[-1,-1,-1]","[0.10455280093257126,-0.0916097768985281]","[1,1,1]","[0.17086331260182985,-0.08461566187505386]","[-1,-1,-1]","[-0.09543720253623339,-0.1650096947828093]","[-1,-1,-1]","[-0.014049429481108539,-0.19176107575126444]","[1,1,1]","[0.03733327225270817,0.08659017774686302]","[1,1,1]","[0.1670363868831198,0.10584631946974206]","[-1,-1,-1]","[-0.07110538580552092,-0.08931684476783967]","[-1,-1,-1]","[-0.017003488471771168,0.18921243010457964]","[1,1,1]","[0.02,0.02]",186.3292,0,34,34,92,1,,,,,,,
,,,,,,,6634e4d4f1950b4dcd44d4d9,682f0323449051f9731f198e,2025-05-22_13h01.42.982,cuing_paradigm_dot,2024.1.5,Win32,59.52380952,682d556593cb38ad0a074487,,,,,,,,,,,186.3294,186.8292,,,187.0803,188.3459,left,1.2478,,,,,,,,,0.55,,,,,,186.8293,187.0803,188.346,"[0.06102697796824848,0.0064500485143140045]","[1,1,1]","[-0.08491503590399191,0.014647863459204371]","[-1,-1,-1]","[0.1369577577810072,0.05449525987342374]","[1,1,1]","[0.1263327833839014,-0.08787091046408559]","[1,1,1]","[0.04913091969247514,-0.046713774875560006]","[1,1,1]","[0.03092964807406411,-0.1493874408749513]","[1,1,1]","[0.0886591599483968,-0.10154113591844643]","[1,1,1]","[0.017301520021992367,0.1223801867417173]","[-1,-1,-1]","[-0.12471328056484433,0.10256561471126471]","[-1,-1,-1]","[0.0499250171548988,0.16031239065421155]","[1,1,1]","[-0.023001894711767557,0.14105178802041132]","[-1,-1,-1]","[-0.13373920560759647,0.020655139458134977]","[-1,-1,-1]","[-0.14204899596996165,-0.1228570456381979]","[1,1,1]","[0.12577313235826143,0.11993141153599342]","[1,1,1]","[0.05510122802513032,0.047892309697470804]","[-1,-1,-1]","[0.10292355053096894,0.011132714872250251]","[1,1,1]","[-0.02322958261784109,0.08649810365022356]","[1,1,1]","[0.013303102604721359,0.025745774876839204]","[-1,-1,-1]","[-0.17469056159208665,0.03247375022924495]","[1,1,1]","[-0.17164082778770204,-0.09028251336398098]","[-1,-1,-1]","[0.1855778041903388,0.04387284127544765]","[1,1,1]","[0.1325806562947781,-0.1370368405271049]","[1,1,1]","[-0.07248032819538386,-0.11534860227895405]","[-1,-1,-1]","[0.09134288016468141,-0.04027542255149965]","[1,1,1]","[-0.1591875339897029,-0.04937884461625938]","[-1,-1,-1]","[-0.0797338970167973,0.13091481371197802]","[1,1,1]","[-0.01827752616046287,0.19760178827117578]","[-1,-1,-1]","[0.0012247819292547709,-0.19063657818353086]","[-1,-1,-1]","[0.041797983804476635,-0.09304975238400362]","[1,1,1]","[0.18666927400632477,-0.06692213415959115]","[-1,-1,-1]","[0.15366096131374318,-0.017628653011737883]","[1,1,1]","[-0.031013778107375885,-0.16224959638746173]","[-1,-1,-1]","[0.02,0.02]",189.4464,0,35,35,144,1,,,,,,,
,,,,,,,6634e4d4f1950b4dcd44d4d9,682f0323449051f9731f198e,2025-05-22_13h01.42.982,cuing_paradigm_dot,2024.1.5,Win32,59.52380952,682d556593cb38ad0a074487,,,,,,,,,,,189.4468,189.9461,,,190.1964,190.8962,right,0.6763,,,,,,,,,0.45,,,,,,189.9461,190.1964,190.8962,"[-0.09301946258608133,-0.11335842319884966]","[-1,-1,-1]","[0.005016390382492162,0.10649500447314353]","[-1,-1,-1]","[-0.17501654734489727,-0.08840493144247269]","[-1,-1,-1]","[0.16301951531623687,0.10859309418466336]","[1,1,1]","[0.042543131981929994,-0.13698547590861196]","[-1,-1,-1]","[0.11970531233728483,-0.12411235402856385]","[-1,-1,-1]","[-0.1319758388920125,0.1346380173420748]","[1,1,1]","[-0.00620391868783473,0.18237057953999802]","[-1,-1,-1]","[-0.018635099289612277,0.04773040333696406]","[-1,-1,-1]","[0.002890130489772467,-0.11906104782073634]","[-1,-1,-1]","[0.007008507831132627,-0.1720206918109617]","[1,1,1]","[-0.13857866160308815,-0.0034161705278399897]","[1,1,1]","[0.11256326184435789,0.1370185449587784]","[-1,-1,-1]","[0.049067194765096175,0.16079498901435188]","[-1,-1,-1]","[-0.025311726021947773,-0.017520445930240217]","[1,1,1]","[0.16339415814058722,0.05240897756920759]","[-1,-1,-1]","[-0.006863850637650337,-0.07226693277556998]","[-1,-1,-1]","[0.1805035166982612,0.01113651301351479]","[-1,-1,-1]","[-0.17725449215609326,0.00997863951563555]","[1,1,1]","[-0.0742933456632165,-0.02162069237867021]","[1,1,1]","[-0.10932873137155678,-0.15938463268918207]","[-1,-1,-1]","[0.10264919815928283,-0.06187062852876488]","[1,1,1]","[0.024898934272019096,-0.0055672418207729215]","[1,1,1]","[0.06764083915385033,0.030674357808937378]","[1,1,1]","[-0.0587819507548393,0.18941381826150155]","[1,1,1]","[-0.11104375289724883,0.03634271050745438]","[-1,-1,-1]","[-0.15704057086236464,0.06433552980933425]","[-1,-1,-1]","[-0.08771821303174408,0.10901067313830176]","[-1,-1,-1]","[0.09215860174130151,0.07442678110921902]","[1,1,1]","[-0.12717104750219704,-0.052586464098493525]","[1,1,1]","[0.19383369624278474,-0.028285757652240916]","[-1,-1,-1]","[0.07217860364685416,-0.014837844615481788]","[1,1,1]","[0.02,0.02]",191.996,0,36,36,74,1,,,,,,,
,,,,,,,6634e4d4f1950b4dcd44d4d9,682f0323449051f9731f198e,2025-05-22_13h01.42.982,cuing_paradigm_dot,2024.1.5,Win32,59.52380952,682d556593cb38ad0a074487,,,,,,,,,,,191.9963,192.4963,,,192.7299,193.3464,left,0.6005,,,,,,,,,0.9,,,,,,192.4963,192.7299,193.3464,"[-0.010382677624635727,-0.04883538932977214]","[1,1,1]","[-0.019294231754649883,0.09417960310866079]","[1,1,1]","[0.18668498175748513,-0.008675759639064713]","[1,1,1]","[-0.04534842213432712,0.17979701151781796]","[1,1,1]","[-0.012676001653026257,-0.12080762037253527]","[1,1,1]","[-0.16007077323698254,0.09653624208738953]","[1,1,1]","[0.05431005740582647,-0.1623747093895891]","[1,1,1]","[0.03858008600586916,0.13604246627656663]","[1,1,1]","[-0.01371795067706325,0.012434080304363755]","[1,1,1]","[-0.16787617612317193,0.008373698513370487]","[-1,-1,-1]","[0.07636370076502029,0.02641129684207996]","[1,1,1]","[-0.1685003725867646,-0.04999328392152905]","[1,1,1]","[0.08201683405916434,-0.059824381562373505]","[1,1,1]","[-0.14477208091699698,-0.09886812827828237]","[1,1,1]","[0.14100114158926405,-0.021658943877320983]","[1,1,1]","[0.08838497818868539,0.11562510101812654]","[1,1,1]","[-0.07280239219718754,-0.18242867469868554]","[1,1,1]","[0.04250091797705566,-0.12040074739586869]","[1,1,1]","[-0.08682635210504024,-0.1335770981485553]","[1,1,1]","[-0.10893787029080977,0.06251950734914576]","[1,1,1]","[0.15742727674160725,0.08483155924668423]","[1,1,1]","[0.14305238138703188,-0.07695992217676875]","[1,1,1]","[-0.10921081994128629,-0.0015948648875766288]","[1,1,1]","[-0.132621027093018,0.13523217075716099]","[-1,-1,-1]","[0.03976371047507046,0.07103912654777872]","[1,1,1]","[0.12228741216778097,0.016776555119523466]","[1,1,1]","[-0.07970251133535747,0.13993752472243037]","[1,1,1]","[0.10149016725855364,-0.1516093674316439]","[1,1,1]","[0.17838686620607994,-0.057672805251992997]","[1,1,1]","[-0.062049805308320764,-0.09310893141691425]","[1,1,1]","[-0.009609046717362166,-0.1781568353629938]","[1,1,1]","[0.12217414060889076,0.05787896632937383]","[-1,-1,-1]","[0.02,0.02]",194.4461,0,37,37,202,1,,,,,,,
,,,,,,,6634e4d4f1950b4dcd44d4d9,682f0323449051f9731f198e,2025-05-22_13h01.42.982,cuing_paradigm_dot,2024.1.5,Win32,59.52380952,682d556593cb38ad0a074487,,,,,,,,,,,194.4466,194.9465,,,195.1976,196.3465,right,1.1229,,,,,,,,,0.5,,,,,,194.9466,195.1976,196.3466,"[-0.08688642104586494,-0.12699930908727106]","[-1,-1,-1]","[-0.07653291895129373,-0.07039875080598894]","[1,1,1]","[0.1865204959996166,0.041589778179723924]","[-1,-1,-1]","[0.09993007887752617,-0.05971902854372572]","[1,1,1]","[-0.05495890651175608,0.09431281154780106]","[-1,-1,-1]","[0.039370879462119965,-0.062180457562529455]","[-1,-1,-1]","[0.007836958197650512,-0.17196281296686344]","[-1,-1,-1]","[-0.09553773677477162,0.11761368651408832]","[1,1,1]","[0.005969538655986853,-0.03796928925803757]","[-1,-1,-1]","[0.13873680934546256,-0.10254024409406182]","[-1,-1,-1]","[0.0027699757962821336,0.13643314003070223]","[1,1,1]","[-0.013145739701954534,0.1839708014523917]","[1,1,1]","[0.08461779717656924,0.17469891814438168]","[1,1,1]","[-0.13774517165114974,-0.08076057854459043]","[1,1,1]","[0.054858010530294155,0.09198528702639118]","[-1,-1,-1]","[-0.03482592350076026,-0.03300394127326006]","[-1,-1,-1]","[-0.1353380724105538,0.026425510181441434]","[-1,-1,-1]","[0.0820654332675918,-0.15024662563717786]","[-1,-1,-1]","[0.05982112123201188,-0.11273768975524218]","[1,1,1]","[0.08660438438005158,0.020125702492923586]","[1,1,1]","[-0.007497315465022008,-0.13214398880537012]","[-1,-1,-1]","[-0.052807927157753856,0.04382175750437889]","[-1,-1,-1]","[-0.07636463384671201,-0.000925801233304737]","[1,1,1]","[-0.1821678509294874,-0.05162514809184877]","[-1,-1,-1]","[-0.13842264884668729,0.09671052578326234]","[1,1,1]","[0.05425766659447885,0.14320056035127393]","[1,1,1]","[0.1699424862073767,-0.06120173838320937]","[-1,-1,-1]","[-0.09308528766810736,-0.16702828621276794]","[1,1,1]","[0.15144611396148558,-0.02554078292551593]","[1,1,1]","[-0.04675087707935444,0.13734652346873386]","[1,1,1]","[0.09391858638668964,0.10087784695323568]","[-1,-1,-1]","[-0.17248872361341774,0.06112763218923142]","[1,1,1]","[0.02,0.02]",197.4462,0,38,38,118,1,,,,,,,
,,,,,,,6634e4d4f1950b4dcd44d4d9,682f0323449051f9731f198e,2025-05-22_13h01.42.982,cuing_paradigm_dot,2024.1.5,Win32,59.52380952,682d556593cb38ad0a074487,,,,,,,,,,,197.4465,197.9463,,,198.1966,199.5132,left,1.3047,,,,,,,,,0.5,,,,,,197.9464,198.1965,199.5133,"[-0.0024911670376082736,-0.06349768065924095]","[-1,-1,-1]","[0.17341835930662577,0.040554086792164545]","[-1,-1,-1]","[0.04084822904419219,-0.14094646011580408]","[-1,-1,-1]","[-0.15019487454715333,-0.10712423691591874]","[-1,-1,-1]","[-0.12840718261236217,0.030210614722143758]","[-1,-1,-1]","[0.09494743660993972,0.01818561661008565]","[1,1,1]","[-0.10447255347908789,-0.10802092595866276]","[1,1,1]","[0.07235477354351955,0.09234271446984395]","[-1,-1,-1]","[0.049147242245283364,0.1341521631680658]","[1,1,1]","[0.15890284433533228,-0.009562054523465223]","[1,1,1]","[0.1020199221960973,-0.04692463546869229]","[1,1,1]","[-0.036383671602577924,-0.007054504559310111]","[1,1,1]","[-0.0684032250638783,0.12692182169252192]","[1,1,1]","[0.02199619011108148,0.02411951616317109]","[-1,-1,-1]","[0.14133860324875475,-0.06791912862794527]","[1,1,1]","[0.04166007062027014,-0.027478555866757227]","[-1,-1,-1]","[-0.10634745222028953,-0.024012401363554956]","[1,1,1]","[-0.08571100442657226,-0.1587261030867631]","[1,1,1]","[-0.04522079774232503,0.08351374815171839]","[1,1,1]","[0.05333262933701695,-0.18564268814182439]","[-1,-1,-1]","[-0.16329328223811912,0.09732869141561488]","[-1,-1,-1]","[0.14521362627522438,0.0984412889682081]","[-1,-1,-1]","[0.008828422461834438,0.08333639347527301]","[1,1,1]","[-0.01537177521312371,-0.10893957621939868]","[1,1,1]","[-0.04934815297960881,-0.06441897926765898]","[1,1,1]","[0.10547157881018822,0.058114095609128384]","[1,1,1]","[-0.04659712638562454,-0.14785185852453211]","[-1,-1,-1]","[-0.03336927413078866,0.19424778366238787]","[-1,-1,-1]","[-0.15059563923781027,-0.03787594103046439]","[-1,-1,-1]","[0.004735686661705668,-0.18878455586478943]","[1,1,1]","[0.05483722454001176,-0.08898519092246011]","[-1,-1,-1]","[0.12728807897105807,0.15360137625777834]","[-1,-1,-1]","[0.02,0.02]",200.613,0,39,39,106,1,,,,,,,
,,,,,,,6634e4d4f1950b4dcd44d4d9,682f0323449051f9731f198e,2025-05-22_13h01.42.982,cuing_paradigm_dot,2024.1.5,Win32,59.52380952,682d556593cb38ad0a074487,,,,,,,,,,,200.6134,201.1131,,,201.3635,202.2465,right,0.8554,,,,,,,,,0.5,,,,,,201.1131,201.3635,202.2465,"[-0.031366374889686,-0.023256288853909724]","[1,1,1]","[-0.18293569137697907,0.009443884386328906]","[-1,-1,-1]","[-0.03764618080020519,0.05234948825743965]","[-1,-1,-1]","[0.14669431367670413,0.07033016546167188]","[-1,-1,-1]","[-0.06333452390800257,0.18001769834301076]","[1,1,1]","[0.15218967227326247,0.0026934436971089086]","[1,1,1]","[-0.00857888496286692,-0.08229949920890972]","[1,1,1]","[0.06825619476973063,0.07000726619866482]","[-1,-1,-1]","[-0.09387916011847165,0.11828328837149267]","[-1,-1,-1]","[0.003764588705453766,0.08651249140562278]","[-1,-1,-1]","[0.09445008694924403,0.1368287835787814]","[1,1,1]","[-0.1289415870988286,0.005965090068106663]","[1,1,1]","[-0.0018115350251757957,-0.1310914128486596]","[-1,-1,-1]","[-0.11784472648770086,-0.07509310144960812]","[1,1,1]","[0.10267953482886517,-0.10908392598416707]","[-1,-1,-1]","[-0.10177667832691938,-0.02838225644845423]","[-1,-1,-1]","[0.026980698901584672,0.034891026264393235]","[1,1,1]","[-0.14345551509510215,0.10969711438679783]","[1,1,1]","[-0.0572392045471902,-0.10748767169503332]","[1,1,1]","[-0.13953564838551163,-0.12626053650347607]","[-1,-1,-1]","[-0.01509134880112565,0.16048325011436834]","[-1,-1,-1]","[-0.08270451205265926,0.022093552571165912]","[-1,-1,-1]","[0.05327131853685831,-0.18675054013647133]","[-1,-1,-1]","[0.19543757844398243,0.02636499213671713]","[1,1,1]","[0.10780388250679873,-0.059421046965980766]","[1,1,1]","[-0.1884580338623218,-0.03250430174299489]","[-1,-1,-1]","[0.04502519046538314,0.17194705887641445]","[1,1,1]","[-0.06914754585411811,0.07720126258974266]","[-1,-1,-1]","[0.0932027736103383,-0.013362901252126948]","[1,1,1]","[0.13002802383535889,0.10843157629375143]","[1,1,1]","[-0.11178218062153739,0.059235091372623526]","[1,1,1]","[-0.042090834086977016,-0.15525550033002067]","[-1,-1,-1]","[0.02,0.02]",203.3466,0,40,40,104,1,,,,,,,
,,,,,,,6634e4d4f1950b4dcd44d4d9,682f0323449051f9731f198e,2025-05-22_13h01.42.982,cuing_paradigm_dot,2024.1.5,Win32,59.52380952,682d556593cb38ad0a074487,,,,,,,,,,,203.3468,203.8465,,,204.0968,204.6466,left,0.539,,,,,,,,,0.6,,,,,,203.8465,204.0968,204.6467,"[-0.07083120839546023,0.14686998269892526]","[1,1,1]","[-0.1648158010293687,-0.1088244567456703]","[1,1,1]","[-0.1950437379999705,0.00662569066358965]","[-1,-1,-1]","[-0.04303911921176463,-0.08258784701682846]","[1,1,1]","[-0.12389333449738757,0.03482142052775235]","[1,1,1]","[0.07660966245575052,0.15744301432129348]","[1,1,1]","[-0.10953426765841388,-0.06505607769263065]","[-1,-1,-1]","[0.027574349307362647,-0.02578865931059562]","[-1,-1,-1]","[-0.0043029614024843975,0.15350086091802845]","[-1,-1,-1]","[0.010095487578713692,0.057497832223879046]","[1,1,1]","[-0.0815047951070519,-0.14407561871320929]","[1,1,1]","[0.17485358415656602,-0.001068109133939591]","[1,1,1]","[-0.18578916569520473,-0.040143692947577574]","[-1,-1,-1]","[0.12957129597832737,-0.014988736913937815]","[-1,-1,-1]","[-0.10582740290289361,0.07845059528926092]","[1,1,1]","[0.01255499795196644,-0.14815698134973862]","[1,1,1]","[-0.15234873264260013,-0.017172901425729397]","[1,1,1]","[0.05921605267542009,-0.07034157399509047]","[-1,-1,-1]","[-0.07859428421914015,0.02571378441174578]","[1,1,1]","[0.07846570119108069,0.06265224005659742]","[1,1,1]","[0.07262391493069191,-0.18284756368708346]","[1,1,1]","[0.12493391200853977,0.07981489608232437]","[1,1,1]","[-0.053962639402249025,-0.18536029734201204]","[1,1,1]","[-0.1827803540491227,0.0518989411295176]","[1,1,1]","[-0.038154133581307224,0.12262125522281266]","[-1,-1,-1]","[0.15733040669577383,-0.11102759369191655]","[1,1,1]","[-0.018487594294526077,0.0005728132416007818]","[-1,-1,-1]","[0.17147340580358128,0.04355439458896848]","[-1,-1,-1]","[-0.08109411096527717,-0.031212538131061493]","[-1,-1,-1]","[0.08908391995858658,-0.10135915486578885]","[1,1,1]","[-0.004322320342504256,-0.06090083500732859]","[-1,-1,-1]","[0.03469336912959047,0.018894347859797864]","[-1,-1,-1]","[0.02,0.02]",205.7467,0,41,41,166,1,,,,,,,
,,,,,,,6634e4d4f1950b4dcd44d4d9,682f0323449051f9731f198e,2025-05-22_13h01.42.982,cuing_paradigm_dot,2024.1.5,Win32,59.52380952,682d556593cb38ad0a074487,,,,,,,,,,,205.7471,206.2466,,,206.4968,206.9801,right,0.4497,,,,,,,,,0.45,,,,,,206.2467,206.4968,206.9802,"[-0.17564299564653318,-0.03550955969921034]","[-1,-1,-1]","[0.14921886604158918,0.06416906156015639]","[-1,-1,-1]","[0.1622994892861014,-0.0869662008694117]","[-1,-1,-1]","[-0.1535055975323758,0.015767978094662606]","[-1,-1,-1]","[-0.11931501361389722,-0.015391467748108347]","[1,1,1]","[0.07757414406179709,0.05212006204033782]","[-1,-1,-1]","[0.09333861802426023,-0.07957735168700121]","[-1,-1,-1]","[-0.025408330591261755,0.10951017916226562]","[1,1,1]","[-0.07745599626272426,-0.04511751619950908]","[-1,-1,-1]","[0.08922214802546462,0.133272020837991]","[-1,-1,-1]","[-0.09310510152205916,0.08929005072040232]","[-1,-1,-1]","[0.050902020077687606,-0.09363378051632006]","[1,1,1]","[-0.15027734449319607,0.130011596862241]","[1,1,1]","[-0.12458034413168056,-0.1031178638111584]","[1,1,1]","[0.03669291262506641,0.172271047102215]","[1,1,1]","[0.004235135457413272,0.04175255535294458]","[-1,-1,-1]","[-0.042261953041887575,-0.08943425956916638]","[1,1,1]","[-0.005904922341899777,-0.18788659219578666]","[1,1,1]","[0.1358303933711214,-0.12101134379184139]","[1,1,1]","[0.19487611055623552,-0.028003119050920094]","[-1,-1,-1]","[-0.10705140081020821,0.02581043913715632]","[-1,-1,-1]","[0.07418888658098474,-0.010836101693540672]","[1,1,1]","[0.01772165128239437,-0.11714166963025091]","[-1,-1,-1]","[0.034100176297360965,-0.02080010872473308]","[-1,-1,-1]","[-0.07549132818051184,0.1277135393976054]","[-1,-1,-1]","[-0.05553672794114236,0.01659128141989358]","[-1,-1,-1]","[-0.16566870164903413,0.05846959296023564]","[1,1,1]","[0.04160056438829175,-0.16948474378181622]","[1,1,1]","[0.1141929847490501,0.016904537119398672]","[1,1,1]","[0.11955724626330783,-0.16000369586576096]","[-1,-1,-1]","[-0.05618607116325596,-0.1313172657825427]","[1,1,1]","[-0.04511008621608506,0.18732940688242927]","[-1,-1,-1]","[0.02,0.02]",208.0799,0,42,42,75,1,,,,,,,
,,,,,,,6634e4d4f1950b4dcd44d4d9,682f0323449051f9731f198e,2025-05-22_13h01.42.982,cuing_paradigm_dot,2024.1.5,Win32,59.52380952,682d556593cb38ad0a074487,,,,,,,,,,,208.0802,208.58,,,208.8187,209.5802,left,0.7443,,,,,,,,,0.55,,,,,,208.5801,208.8187,209.5802,"[-0.018529021485742845,-0.08759675663983055]","[-1,-1,-1]","[0.15316609418277746,-0.08692373489441192]","[-1,-1,-1]","[0.09009193735804238,0.1558797566393304]","[1,1,1]","[0.07524169542197783,-0.1419085425447797]","[-1,-1,-1]","[0.09819398124353888,0.030722716402650535]","[-1,-1,-1]","[-0.014138204208470704,0.07005075205727591]","[1,1,1]","[0.0584029327582481,-0.0007481335658703278]","[1,1,1]","[-0.044609782362085876,-0.002983552648348618]","[1,1,1]","[-0.01837201592238479,0.1848730175733922]","[-1,-1,-1]","[-0.16032247098051158,-0.06317727532314912]","[-1,-1,-1]","[0.04855062950084745,-0.10095144495845072]","[1,1,1]","[-0.10247789440499352,0.1173409646136776]","[-1,-1,-1]","[-0.060556118420573776,-0.16372988838854882]","[-1,-1,-1]","[0.019723379083599647,-0.025316409580497346]","[1,1,1]","[0.15452616518767556,0.059969645558732805]","[1,1,1]","[0.033113926157671766,-0.18705416538987044]","[1,1,1]","[-0.020768176620002854,-0.04641078879482947]","[-1,-1,-1]","[0.08751460269501095,0.07570911518395394]","[1,1,1]","[-0.1442729249090334,-0.10105430384938688]","[-1,-1,-1]","[0.10746791881904186,-0.05711450673040374]","[-1,-1,-1]","[-0.10091597990039196,-0.06400230056541599]","[-1,-1,-1]","[0.13542821373386432,-0.12476834541975057]","[1,1,1]","[0.10484838659232075,0.11706516923562502]","[1,1,1]","[0.03336727674495549,0.16739310421612436]","[1,1,1]","[-0.09777153061786008,0.0370731435180791]","[1,1,1]","[-0.14119535299025912,0.13275074870039832]","[-1,-1,-1]","[0.045492457075665314,0.1260015481719546]","[-1,-1,-1]","[-0.04939331298412681,0.1480507529576508]","[1,1,1]","[-0.18246589069336047,0.019786276207142534]","[1,1,1]","[0.16939400297801746,0.10053838439423145]","[1,1,1]","[-0.1588364611550933,0.08133936115667312]","[1,1,1]","[0.05497265066059878,0.04344573831055038]","[1,1,1]","[0.02,0.02]",210.6803,0,43,43,127,1,,,,,,,
,,,,,,,6634e4d4f1950b4dcd44d4d9,682f0323449051f9731f198e,2025-05-22_13h01.42.982,cuing_paradigm_dot,2024.1.5,Win32,59.52380952,682d556593cb38ad0a074487,,,,,,,,,,,210.6806,211.1801,,,211.4303,212.6635,right,1.222,,,,,,,,,0.55,,,,,,211.1801,211.4303,212.6635,"[0.06489009407981483,0.1194797457870245]","[1,1,1]","[-0.04160937684732947,-0.021158072002165185]","[1,1,1]","[-0.09703589503379376,-0.15216560065003457]","[1,1,1]","[0.047171169198340884,0.18051572683648456]","[1,1,1]","[0.0850658909439956,-0.006808477754189013]","[1,1,1]","[-0.005085403990344401,0.0771338939628219]","[1,1,1]","[-0.0876741841755835,-0.11274872972521469]","[-1,-1,-1]","[-0.10674477800584353,0.12213421134164495]","[-1,-1,-1]","[-0.1281959702380455,0.023865779514363698]","[-1,-1,-1]","[-0.027338838430149132,0.19611887076442394]","[-1,-1,-1]","[0.010889215212505556,0.011058542707440791]","[-1,-1,-1]","[0.1176015346359203,0.14473116796309696]","[-1,-1,-1]","[0.16599972717877742,0.11102428997962188]","[1,1,1]","[0.018963304261238594,-0.13923970384258677]","[-1,-1,-1]","[-0.017033254485449987,-0.07863049151576725]","[1,1,1]","[0.15084739609763798,0.07048319046235728]","[1,1,1]","[0.02258610124564169,0.11230343373430295]","[1,1,1]","[-0.035476607272878054,0.025691392491402214]","[-1,-1,-1]","[-0.16512406691818005,-0.052213382760299576]","[1,1,1]","[0.18344510885093343,-0.0070833909129387985]","[1,1,1]","[0.12569923244216255,-0.1513625946824546]","[-1,-1,-1]","[0.16062911664073629,-0.10251802819903535]","[1,1,1]","[0.0337471917523221,-0.19282530103389042]","[1,1,1]","[-0.01607153349469432,0.12695181294567653]","[-1,-1,-1]","[-0.03999246118756633,-0.14135439971940986]","[-1,-1,-1]","[-0.13188452705039805,-0.1283825327594991]","[1,1,1]","[-0.027415185824461705,-0.18871657397027178]","[-1,-1,-1]","[-0.07676831517989505,0.15264260346848887]","[1,1,1]","[-0.11832547642175341,-0.08468151338677755]","[1,1,1]","[-0.17878172484383895,0.030275387076546163]","[1,1,1]","[-0.197772312716693,-0.021256790713281237]","[-1,-1,-1]","[0.10115405525435454,0.039373578127233445]","[-1,-1,-1]","[0.02,0.02]",213.7635,0,44,44,148,1,,,,,,,
