right,left,explain.started,explain.stopped,key_resp_3.keys,key_resp_3.rt,key_resp_3.duration,participant,session,date,expName,psychopyVersion,OS,frameRate,study_id,explain_2.started,explain_2.stopped,key_resp_4.keys,key_resp_4.rt,key_resp_4.duration,explain_3.started,explain_3.stopped,key_resp_5.keys,key_resp_5.rt,key_resp_5.duration,fixation.started,fixation.stopped,practice.started,practice.stopped,response.started,response.stopped,key_resp.keys,key_resp.rt,key_resp.duration,feedback.started,feedback.stopped,trials_2.thisRepN,trials_2.thisTrialN,trials_2.thisN,trials_2.thisIndex,trials_2.ran,white_ratio,explain_4.started,explain_4.stopped,key_resp_6.keys,key_resp_6.rt,key_resp_6.duration,dotDisplay.started,dotDisplay.stopped,ITI.started,polygon_1.pos,polygon_1.color,polygon_2.pos,polygon_2.color,polygon_3.pos,polygon_3.color,polygon_4.pos,polygon_4.color,polygon_5.pos,polygon_5.color,polygon_6.pos,polygon_6.color,polygon_7.pos,polygon_7.color,polygon_8.pos,polygon_8.color,polygon_9.pos,polygon_9.color,polygon_10.pos,polygon_10.color,polygon_11.pos,polygon_11.color,polygon_12.pos,polygon_12.color,polygon_13.pos,polygon_13.color,polygon_14.pos,polygon_14.color,polygon_15.pos,polygon_15.color,polygon_16.pos,polygon_16.color,polygon_17.pos,polygon_17.color,polygon_18.pos,polygon_18.color,polygon_19.pos,polygon_19.color,polygon_20.pos,polygon_20.color,polygon_21.pos,polygon_21.color,polygon_22.pos,polygon_22.color,polygon_23.pos,polygon_23.color,polygon_24.pos,polygon_24.color,polygon_25.pos,polygon_25.color,polygon_26.pos,polygon_26.color,polygon_27.pos,polygon_27.color,polygon_28.pos,polygon_28.color,polygon_29.pos,polygon_29.color,polygon_30.pos,polygon_30.color,polygon_31.pos,polygon_31.color,polygon_32.pos,polygon_32.color,dot_size,ITI.stopped,trials.thisRepN,trials.thisTrialN,trials.thisN,trials.thisIndex,trials.ran,break_2.started,break_2.stopped,trials_3.thisRepN,trials_3.thisTrialN,trials_3.thisN,trials_3.thisIndex,trials_3.ran
subject chose black,subject chose white,1E-04,70.6186,space,55.6148,,664a70b48ff64eb6fa5d8b05,682f032d1e9589676c61ccea,2025-05-22_13h02.39.489,cuing_paradigm_dot,2024.1.5,Win32,238.0952381,682d556593cb38ad0a074487,,,,,,,,,,,,,,,,,,,,,,,,,,,,,,,,,,,,,,,,,,,,,,,,,,,,,,,,,,,,,,,,,,,,,,,,,,,,,,,,,,,,,,,,,,,,,,,,,,,,,,,,,,,,,,,,,
,,,,,,,664a70b48ff64eb6fa5d8b05,682f032d1e9589676c61ccea,2025-05-22_13h02.39.489,cuing_paradigm_dot,2024.1.5,Win32,238.0952381,682d556593cb38ad0a074487,70.6187,105.4395,space,4.8169,,,,,,,,,,,,,,,,,,,,,,,,,,,,,,,,,,,,,,,,,,,,,,,,,,,,,,,,,,,,,,,,,,,,,,,,,,,,,,,,,,,,,,,,,,,,,,,,,,,,,,,,,,,,,
,,,,,,,664a70b48ff64eb6fa5d8b05,682f032d1e9589676c61ccea,2025-05-22_13h02.39.489,cuing_paradigm_dot,2024.1.5,Win32,238.0952381,682d556593cb38ad0a074487,,,,,,105.4396,123.1582,space,14.7168,,,,,,,,,,,,,,,,,,,,,,,,,,,,,,,,,,,,,,,,,,,,,,,,,,,,,,,,,,,,,,,,,,,,,,,,,,,,,,,,,,,,,,,,,,,,,,,,,,,,,,,,
,,,,,,,664a70b48ff64eb6fa5d8b05,682f032d1e9589676c61ccea,2025-05-22_13h02.39.489,cuing_paradigm_dot,2024.1.5,Win32,238.0952381,682d556593cb38ad0a074487,,,,,,,,,,,123.1647,123.6623,123.6624,123.9097,123.9097,124.3707,left,0.4452,,124.3707,125.4706,0,0,0,0,1,0.8,,,,,,,,,,,,,,,,,,,,,,,,,,,,,,,,,,,,,,,,,,,,,,,,,,,,,,,,,,,,,,,,,,,,,,,,,,,,,,,,,,,,,,
,,,,,,,664a70b48ff64eb6fa5d8b05,682f032d1e9589676c61ccea,2025-05-22_13h02.39.489,cuing_paradigm_dot,2024.1.5,Win32,238.0952381,682d556593cb38ad0a074487,,,,,,,,,,,125.4708,125.9705,125.9705,126.2195,126.2195,126.4986,right,0.2725,,126.4986,127.5994,0,1,1,1,1,0.2,,,,,,,,,,,,,,,,,,,,,,,,,,,,,,,,,,,,,,,,,,,,,,,,,,,,,,,,,,,,,,,,,,,,,,,,,,,,,,,,,,,,,,
,,,,,,,664a70b48ff64eb6fa5d8b05,682f032d1e9589676c61ccea,2025-05-22_13h02.39.489,cuing_paradigm_dot,2024.1.5,Win32,238.0952381,682d556593cb38ad0a074487,,,,,,,,,,,,,,,,,,,,,,,,,,,,127.5996,132.2735,space,1.6702,,,,,,,,,,,,,,,,,,,,,,,,,,,,,,,,,,,,,,,,,,,,,,,,,,,,,,,,,,,,,,,,,,,,,,,,,,,,,,,,,,
,,,,,,,664a70b48ff64eb6fa5d8b05,682f032d1e9589676c61ccea,2025-05-22_13h02.39.489,cuing_paradigm_dot,2024.1.5,Win32,238.0952381,682d556593cb38ad0a074487,,,,,,,,,,,132.2773,132.7754,,,133.0259,133.694,right,0.6599,,,,,,,,,0.5,,,,,,132.7755,133.0259,133.6941,"[-0.05314834304607562,-0.13454555130139978]","[1,1,1]","[0.1406717876964431,-0.13278260274314976]","[1,1,1]","[-0.015462729604669635,-0.11081341106347078]","[1,1,1]","[-0.05332290851167774,-0.07760267352139245]","[1,1,1]","[-0.15839711919888788,0.09770933233055906]","[-1,-1,-1]","[0.15203634937844898,0.11210178950160092]","[1,1,1]","[-0.1849903971944444,0.02772173689863315]","[-1,-1,-1]","[-0.00001012113038824972,-0.0448614704306363]","[-1,-1,-1]","[0.09190122613594034,0.010405446528635499]","[-1,-1,-1]","[-0.06112452963058676,0.020268027706981558]","[-1,-1,-1]","[0.09662760099402501,-0.045518535111757685]","[1,1,1]","[-0.16972625832093818,-0.0731511851450113]","[-1,-1,-1]","[0.01672201058261279,-0.0870116563584652]","[1,1,1]","[0.1872493061330459,-0.02470213419430929]","[-1,-1,-1]","[-0.1420404973175347,0.006416395379211958]","[1,1,1]","[-0.07833585231895165,0.1436717857863388]","[1,1,1]","[0.06028514345381124,0.038484005080899476]","[1,1,1]","[-0.07070328904506487,-0.18124439503395395]","[-1,-1,-1]","[-0.00975679298375589,0.18998499266486119]","[-1,-1,-1]","[0.1293298150767087,-0.021527300079179253]","[1,1,1]","[-0.0998682204202556,-0.08072830007129121]","[1,1,1]","[0.04993487328282147,-0.06152921730482959]","[-1,-1,-1]","[0.0177297443751894,0.02990715871444041]","[-1,-1,-1]","[0.05728887050862699,-0.13206982162518424]","[1,1,1]","[0.007612255681462654,0.12280097651486074]","[1,1,1]","[0.017264505869480702,-0.14415166511810615]","[1,1,1]","[0.058575843977315606,0.14353817406807276]","[-1,-1,-1]","[0.09127879380850702,0.10274333449821768]","[-1,-1,-1]","[-0.02430139324188429,-0.18831618123536153]","[1,1,1]","[0.16932115666764133,-0.08258758822495539]","[-1,-1,-1]","[-0.10551348345838414,-0.14209593256642147]","[-1,-1,-1]","[0.09523405247490371,-0.11493086208629058]","[-1,-1,-1]","[0.02,0.02]",134.7931,0,0,0,109,1,,,,,,,
,,,,,,,664a70b48ff64eb6fa5d8b05,682f032d1e9589676c61ccea,2025-05-22_13h02.39.489,cuing_paradigm_dot,2024.1.5,Win32,238.0952381,682d556593cb38ad0a074487,,,,,,,,,,,134.7933,135.2959,,,135.544,136.1496,left,0.6045,,,,,,,,,0.6,,,,,,135.2959,135.544,136.1496,"[0.17543901579605498,-0.03410839814354475]","[-1,-1,-1]","[0.11768758532424713,0.08564634243482444]","[1,1,1]","[0.10383978784549618,-0.0420330127381406]","[-1,-1,-1]","[-0.06145746239085033,-0.026890337254746537]","[1,1,1]","[-0.12925239783372194,-0.045308742050840484]","[-1,-1,-1]","[0.07137599325609835,-0.12113636197093636]","[1,1,1]","[0.01849413094666362,-0.10674123819183426]","[1,1,1]","[0.06985343996696569,-0.001661032510208692]","[1,1,1]","[0.15615792275669102,0.005082664103526159]","[1,1,1]","[0.03996081916589355,0.06042666919222565]","[-1,-1,-1]","[-0.04915875498668529,-0.16018529860090394]","[1,1,1]","[0.08087441219972098,0.06760081388182472]","[-1,-1,-1]","[-0.032495151857004814,0.09131166977103268]","[1,1,1]","[0.10349833081184122,-0.14641221439645066]","[1,1,1]","[-0.11842731337698291,-0.15898268716710343]","[1,1,1]","[-0.06745634482616092,-0.09572948306259844]","[1,1,1]","[-0.13170622726191492,-0.003339537444772136]","[1,1,1]","[-0.16258308534319052,0.10200782427192906]","[1,1,1]","[-0.05838186888083166,0.056700422383043604]","[-1,-1,-1]","[-0.02258339485117822,0.1637805537467113]","[-1,-1,-1]","[0.035610123754453826,-0.1738912360543862]","[-1,-1,-1]","[0.049796815883558894,0.1179151973426184]","[-1,-1,-1]","[-0.13302569813208984,0.056948620998609256]","[-1,-1,-1]","[0.008799933115062728,-0.05423610801164073]","[1,1,1]","[-0.005619383448604969,-0.14246463918107125]","[-1,-1,-1]","[0.009175721974140379,0.007020221740530268]","[1,1,1]","[-0.08673484036822439,0.11583290805573238]","[-1,-1,-1]","[0.05460473962725118,0.183932902043197]","[1,1,1]","[-0.19631484243400513,-0.01816775961855826]","[1,1,1]","[0.1744054340368041,0.05117630394455704]","[1,1,1]","[0.05746318758317183,-0.046013449614040615]","[1,1,1]","[0.15825737812723187,-0.07383935671724932]","[-1,-1,-1]","[0.02,0.02]",137.2486,0,1,1,162,1,,,,,,,
,,,,,,,664a70b48ff64eb6fa5d8b05,682f032d1e9589676c61ccea,2025-05-22_13h02.39.489,cuing_paradigm_dot,2024.1.5,Win32,238.0952381,682d556593cb38ad0a074487,,,,,,,,,,,137.2487,137.7486,,,137.9985,138.4194,right,0.4159,,,,,,,,,0.4,,,,,,137.7486,137.9985,138.4194,"[0.10124848305714729,-0.054742483868383304]","[1,1,1]","[-0.11695505652421104,-0.11597173721944674]","[-1,-1,-1]","[-0.0760876306517468,-0.12090805499896631]","[-1,-1,-1]","[-0.010834451937656482,0.1575431748145205]","[-1,-1,-1]","[0.12762454336260678,0.05167812517486715]","[1,1,1]","[0.024741436394243924,0.181075872149368]","[-1,-1,-1]","[0.10557595884854146,-0.14791165355045202]","[-1,-1,-1]","[-0.017841246154953215,-0.1659519389156432]","[-1,-1,-1]","[0.0095153273902911,0.0727253001440327]","[-1,-1,-1]","[-0.10508604788888108,0.05941957867350015]","[1,1,1]","[0.1495198458767852,-0.07535155150565084]","[1,1,1]","[0.10213711790697906,-0.0034181582894502564]","[1,1,1]","[0.05099151317948371,-0.010823439496233813]","[-1,-1,-1]","[-0.07922687841933088,-0.009623435843884543]","[-1,-1,-1]","[0.1749127604108692,0.06483747209596598]","[1,1,1]","[-0.15001202960819238,0.06408972225465218]","[1,1,1]","[-0.05347663331369055,-0.06060347517111318]","[1,1,1]","[0.074358544420176,-0.17865248829863498]","[1,1,1]","[0.1968867619255135,0.01087142700548204]","[-1,-1,-1]","[-0.13865102918776054,-0.08045677984499904]","[1,1,1]","[-0.019637815404737666,-0.12120084793805254]","[-1,-1,-1]","[0.18864725580076988,-0.044611448019675336]","[-1,-1,-1]","[-0.1708852176582743,-0.049355057860339405]","[-1,-1,-1]","[0.0578617442170744,0.13423929130939397]","[-1,-1,-1]","[-0.14569863685334586,0.02165754666748393]","[-1,-1,-1]","[-0.028299647789242967,0.05505073005182707]","[-1,-1,-1]","[0.020535922712840757,-0.11296283910998675]","[-1,-1,-1]","[0.11518280279250102,0.12734033496187164]","[1,1,1]","[0.150170021307499,-0.013216590489967182]","[-1,-1,-1]","[-0.17872542909213157,-0.00706114280471423]","[1,1,1]","[0.031312849887821854,-0.07285497785412397]","[-1,-1,-1]","[0.0008139902267535182,0.009510143403142208]","[1,1,1]","[0.02,0.02]",139.5178,0,2,2,58,1,,,,,,,
,,,,,,,664a70b48ff64eb6fa5d8b05,682f032d1e9589676c61ccea,2025-05-22_13h02.39.489,cuing_paradigm_dot,2024.1.5,Win32,238.0952381,682d556593cb38ad0a074487,,,,,,,,,,,139.5179,140.0178,,,140.2666,140.8808,left,0.6085,,,,,,,,,0.9,,,,,,140.0179,140.2666,140.8808,"[0.15639674442952076,-0.005776712066321784]","[1,1,1]","[0.12159027916463738,0.07436102662328777]","[1,1,1]","[-0.03878530753091174,0.18540586044004104]","[1,1,1]","[0.14925399520606702,-0.09395204438222497]","[1,1,1]","[0.017306279169643085,-0.19611736752188397]","[1,1,1]","[-0.11913258351891425,-0.06350698407169009]","[1,1,1]","[-0.025467775026486592,0.048204567725207176]","[1,1,1]","[0.16700011854941568,0.04654654751460986]","[1,1,1]","[-0.005723827232082371,0.0006625670645196201]","[1,1,1]","[-0.12341421441531414,0.13402223902050528]","[-1,-1,-1]","[-0.0614671790940116,-0.05906927034485831]","[-1,-1,-1]","[-0.17902135548167797,-0.08185006986769039]","[1,1,1]","[0.05779458050014066,-0.10187413789670377]","[1,1,1]","[-0.10612110259751656,-0.1584059930500228]","[1,1,1]","[0.07460277977868907,0.1780109242045521]","[1,1,1]","[-0.056559978985054854,-0.1736384393604944]","[1,1,1]","[0.017211508477545063,0.096386556456879]","[1,1,1]","[0.09947619391808797,-0.09679405425308801]","[-1,-1,-1]","[0.08845042700780043,-0.007246462716241487]","[1,1,1]","[-0.11105733291808344,0.026939473581121736]","[1,1,1]","[0.13153880909801494,-0.14223190942067307]","[1,1,1]","[0.10905222634881398,0.15583741066996945]","[1,1,1]","[-0.03662899028615861,0.10560347922884541]","[1,1,1]","[-0.07528815879258051,-0.0029620959029329407]","[1,1,1]","[0.0514103322246552,0.06148394247255876]","[1,1,1]","[0.08626587937720281,-0.15602799038298543]","[1,1,1]","[-0.0017132007630553934,-0.12407572872710668]","[1,1,1]","[0.09479324985602106,0.03420426731338236]","[1,1,1]","[-0.10498303293761818,-0.11382825516348638]","[1,1,1]","[-0.16699193678816215,0.09849217881676378]","[1,1,1]","[-0.06967730381910772,0.05467359715942292]","[1,1,1]","[-0.06723570913687676,0.15695822166882784]","[1,1,1]","[0.02,0.02]",141.9795,0,3,3,207,1,,,,,,,
,,,,,,,664a70b48ff64eb6fa5d8b05,682f032d1e9589676c61ccea,2025-05-22_13h02.39.489,cuing_paradigm_dot,2024.1.5,Win32,238.0952381,682d556593cb38ad0a074487,,,,,,,,,,,141.9796,142.4794,,,142.7295,143.3503,right,0.6166,,,,,,,,,0.55,,,,,,142.4794,142.7295,143.3503,"[-0.052054168211746674,0.09276947252001592]","[-1,-1,-1]","[-0.010488147926443871,-0.09292124932275093]","[-1,-1,-1]","[0.03484380569557033,-0.1580908539366579]","[-1,-1,-1]","[-0.00516449067019278,0.19512411609395142]","[1,1,1]","[0.1843921958127796,0.024624927225336917]","[1,1,1]","[0.04112439245507901,0.06586539411914724]","[-1,-1,-1]","[0.12518282915667853,-0.08397957996048144]","[1,1,1]","[0.17592357025075808,-0.06690972482811366]","[-1,-1,-1]","[-0.05175858414839937,0.04247616423689414]","[1,1,1]","[0.08797709173436104,0.013145339916770256]","[1,1,1]","[0.13296971046492084,-0.007725832661521379]","[1,1,1]","[-0.12924801354982096,0.07786288528363576]","[-1,-1,-1]","[0.10632379036370267,0.16712869970826116]","[-1,-1,-1]","[-0.08009813276381622,-0.0962447709682116]","[-1,-1,-1]","[-0.1035327212372475,0.04151132708013564]","[1,1,1]","[-0.15837562351288378,-0.06680009076892938]","[1,1,1]","[-0.08316323462670076,0.0012245094182340664]","[1,1,1]","[-0.10505492673207416,-0.14053726337060796]","[-1,-1,-1]","[-0.0459302934443163,-0.1756063523892675]","[-1,-1,-1]","[0.03756820469490833,0.00041198303689436467]","[1,1,1]","[-0.02362520719917744,0.15366640244433546]","[1,1,1]","[0.03944064532665126,-0.07395988737952258]","[-1,-1,-1]","[0.07768891347006447,0.13214884764743576]","[-1,-1,-1]","[0.08357775836595914,-0.0968712052839249]","[1,1,1]","[0.09264586027842499,-0.17274297112202355]","[1,1,1]","[-0.1302549252899365,0.008893087651192313]","[-1,-1,-1]","[0.04865650196286857,0.16484176386987964]","[1,1,1]","[0.017779909331504747,0.13741716449804905]","[1,1,1]","[-0.1000126602813388,0.16770842253958174]","[1,1,1]","[0.08932806341459648,-0.027661056942321155]","[-1,-1,-1]","[-0.051729554199515006,-0.05804106082304877]","[1,1,1]","[-0.10055968425468115,-0.05073908459545504]","[1,1,1]","[0.02,0.02]",144.4491,0,4,4,140,1,,,,,,,
,,,,,,,664a70b48ff64eb6fa5d8b05,682f032d1e9589676c61ccea,2025-05-22_13h02.39.489,cuing_paradigm_dot,2024.1.5,Win32,238.0952381,682d556593cb38ad0a074487,,,,,,,,,,,144.4492,144.9444,,,145.1935,145.9841,right,0.7834,,,,,,,,,0.4,,,,,,144.9444,145.1935,145.9841,"[-0.10371488699190196,0.09876792638604087]","[1,1,1]","[0.02715461176643447,0.021077080573069878]","[1,1,1]","[-0.10666457691327648,-0.13978265712728669]","[-1,-1,-1]","[-0.09347909378028761,-0.07333452204789093]","[1,1,1]","[-0.010385525530596866,-0.06055424397756924]","[1,1,1]","[-0.026400969906238653,-0.17668936679253572]","[1,1,1]","[-0.15279107134467193,0.007958281272194534]","[-1,-1,-1]","[0.13716811118806826,-0.14135340845905392]","[-1,-1,-1]","[0.15469547317276514,0.08899401277216534]","[1,1,1]","[0.17115206746363598,-0.10083534969144689]","[-1,-1,-1]","[0.06407993380864127,0.05727773077576148]","[-1,-1,-1]","[0.03149591155663226,0.08427326584336813]","[1,1,1]","[0.13548709218793573,-0.00892941267388319]","[1,1,1]","[-0.09834149841998718,0.15230045174480705]","[-1,-1,-1]","[0.042211990566986296,-0.05434858215763866]","[-1,-1,-1]","[-0.005499391398042816,0.10219023275873143]","[-1,-1,-1]","[-0.19416341315784535,-0.015206450161068495]","[1,1,1]","[0.05034750179467214,-0.15422641443324225]","[-1,-1,-1]","[0.09630328536384006,-0.03283140518421433]","[-1,-1,-1]","[0.005386360630179903,0.18266643921813078]","[1,1,1]","[0.1562248784158135,0.03287904839387778]","[-1,-1,-1]","[0.04393130146567925,-0.10719706040419544]","[1,1,1]","[-0.056114891072418356,-0.05350700483689168]","[-1,-1,-1]","[0.12267973015086615,-0.07157311505659086]","[-1,-1,-1]","[-0.057325583095653776,0.05346522829556217]","[1,1,1]","[-0.09925539074261779,-0.021092498908584372]","[-1,-1,-1]","[-0.06133657787911433,-0.09929424989869982]","[-1,-1,-1]","[0.07873186917031197,0.16726000922297674]","[-1,-1,-1]","[0.06740966506317218,-0.00023964201120315871]","[-1,-1,-1]","[0.10780240691402909,0.09161231492889385]","[-1,-1,-1]","[-0.06084760868524459,0.12849092098271583]","[-1,-1,-1]","[-0.01883446614024807,-0.1354338491540277]","[1,1,1]","[0.02,0.02]",147.084,0,5,5,36,1,,,,,,,
,,,,,,,664a70b48ff64eb6fa5d8b05,682f032d1e9589676c61ccea,2025-05-22_13h02.39.489,cuing_paradigm_dot,2024.1.5,Win32,238.0952381,682d556593cb38ad0a074487,,,,,,,,,,,147.0841,147.584,,,147.834,148.7105,left,0.8708,,,,,,,,,0.55,,,,,,147.584,147.834,148.7106,"[-0.053000858698956634,0.07136261816566764]","[-1,-1,-1]","[-0.08397362749586086,0.10603143265328444]","[1,1,1]","[-0.15349246429884167,-0.10914135608344928]","[1,1,1]","[-0.14479376805563457,0.06121938537581722]","[-1,-1,-1]","[-0.0023676059835300856,-0.023260580842565014]","[1,1,1]","[-0.17705098064759897,-0.03562503475476319]","[-1,-1,-1]","[0.10196208943268441,-0.06335790433636909]","[-1,-1,-1]","[-0.021762350722743025,0.11563924402803938]","[1,1,1]","[0.05196147001617616,0.04763479003400541]","[1,1,1]","[0.05976610831464134,-0.17487313905964091]","[1,1,1]","[-0.03180424344878059,0.19736042924138986]","[1,1,1]","[-0.06782345290249829,-0.1152795827048858]","[-1,-1,-1]","[0.016240707641715046,0.16977303527680723]","[1,1,1]","[0.14189928843422567,-0.13883731652487577]","[-1,-1,-1]","[0.11018507962236812,0.10034039227934255]","[-1,-1,-1]","[-0.055590171222995644,-0.18376771339786474]","[1,1,1]","[-0.028228968899881374,0.03121295183551006]","[1,1,1]","[0.13164403194502178,0.13905117822290505]","[-1,-1,-1]","[0.053211899082737046,-0.12010490616321345]","[1,1,1]","[-0.07750438553048561,-0.009167573464445878]","[1,1,1]","[0.07138172873831848,0.13209524675533502]","[-1,-1,-1]","[0.18529602784164984,-0.06556241482515825]","[1,1,1]","[0.14304836677406196,0.05806604640264823]","[1,1,1]","[-0.1743033953955222,0.030186536656810356]","[-1,-1,-1]","[-0.08826262031218739,-0.05713437161904069]","[-1,-1,-1]","[0.01742323156704764,-0.14845958633321274]","[-1,-1,-1]","[-0.027600920498314165,-0.08399358365335456]","[1,1,1]","[-0.11352723712052686,-0.15614481328546279]","[-1,-1,-1]","[0.02780897401547835,0.0875162410833359]","[-1,-1,-1]","[-0.10887997008485967,-0.09866688367165648]","[1,1,1]","[0.11985494595195452,-0.016244181691828962]","[1,1,1]","[0.08981367415126872,0.026687318617665243]","[1,1,1]","[0.02,0.02]",149.8111,0,6,6,126,1,,,,,,,
,,,,,,,664a70b48ff64eb6fa5d8b05,682f032d1e9589676c61ccea,2025-05-22_13h02.39.489,cuing_paradigm_dot,2024.1.5,Win32,238.0952381,682d556593cb38ad0a074487,,,,,,,,,,,149.8112,150.3089,,,150.5578,150.9703,left,0.405,,,,,,,,,0.9,,,,,,150.309,150.5578,150.9704,"[0.1330260212734693,-0.08596263260545856]","[-1,-1,-1]","[0.08980087788396458,-0.051107968181307264]","[1,1,1]","[-0.004581209739482762,0.11273946928871069]","[1,1,1]","[-0.08130304196754609,0.13297583650720682]","[1,1,1]","[-0.03874598012926625,0.18479775291414194]","[1,1,1]","[0.0629100622187213,-0.13134385110372945]","[1,1,1]","[0.15291916930476018,-0.044012090788209605]","[1,1,1]","[-0.11413169971737623,0.05815725441151549]","[1,1,1]","[0.044398721355451316,0.15734669935024143]","[1,1,1]","[-0.1320772167303505,-0.12006478198204026]","[1,1,1]","[-0.1933575527408366,0.0023503684146083236]","[1,1,1]","[0.05547849342593788,-0.023113279420713888]","[1,1,1]","[-0.11804433988890731,-0.07715781540165075]","[1,1,1]","[0.10263802293832384,-0.1619986631069384]","[-1,-1,-1]","[0.03848920842868618,0.08187841305471706]","[1,1,1]","[-0.06537990122249906,-0.08679940833600575]","[1,1,1]","[-0.00543202259411107,-0.1633066089510788]","[1,1,1]","[0.08748007961579209,0.062446599415994085]","[-1,-1,-1]","[0.176209096898435,0.059485277635569135]","[1,1,1]","[-0.06946281576209455,0.07559544315050008]","[1,1,1]","[0.011871918881932493,-0.001029662046317485]","[1,1,1]","[-0.12584460261561575,-0.002305286038672771]","[1,1,1]","[-0.053791194097781485,0.005745123392706873]","[1,1,1]","[0.04452114050933606,-0.1785396091306609]","[1,1,1]","[0.1619060895665414,0.015200349282929949]","[1,1,1]","[0.0411898585171271,0.03746807763418372]","[1,1,1]","[0.0613279247525378,-0.0794305722345183]","[1,1,1]","[0.1119240195004034,0.02771555192468233]","[1,1,1]","[-0.1043095175571646,-0.1617538148053067]","[1,1,1]","[0.1419368534279133,0.13503099682713104]","[1,1,1]","[-0.025706683214979778,-0.0731693947340871]","[1,1,1]","[-0.18121972062284195,0.05995907936712467]","[1,1,1]","[0.02,0.02]",152.0691,0,7,7,209,1,,,,,,,
,,,,,,,664a70b48ff64eb6fa5d8b05,682f032d1e9589676c61ccea,2025-05-22_13h02.39.489,cuing_paradigm_dot,2024.1.5,Win32,238.0952381,682d556593cb38ad0a074487,,,,,,,,,,,152.0692,152.5692,,,152.8172,153.4462,right,0.6246,,,,,,,,,0.55,,,,,,152.5692,152.8172,153.4462,"[-0.06402043396281343,0.034685018139364206]","[1,1,1]","[0.11372099350171687,0.05075494226331623]","[-1,-1,-1]","[0.16362864515674153,-0.02511685300184979]","[1,1,1]","[0.011265258838076348,0.05038779320770169]","[-1,-1,-1]","[-0.1658883947902913,-0.052950034204251345]","[1,1,1]","[-0.14902362562926974,0.059873556006413794]","[1,1,1]","[0.13770731159103963,-0.06685346849011325]","[1,1,1]","[-0.06562208483449014,-0.11176601698624868]","[-1,-1,-1]","[0.07451869424910602,-0.05309978154167903]","[1,1,1]","[0.15803063763038036,0.07874179071913309]","[1,1,1]","[0.11258792566181516,-0.003091298408276134]","[1,1,1]","[0.06688839946148796,0.10948704699000199]","[1,1,1]","[-0.1374829080195841,-0.12288181942431445]","[-1,-1,-1]","[0.09047907210595738,-0.13786593720539653]","[-1,-1,-1]","[0.08359732663381653,0.15830453382560794]","[1,1,1]","[0.026147246989739643,-0.19654703010460983]","[-1,-1,-1]","[-0.044568502315490525,0.12674896639932817]","[-1,-1,-1]","[0.012316646288272316,-0.10634026832824657]","[1,1,1]","[-0.1315517658161998,0.14848966118127388]","[-1,-1,-1]","[0.07319900659687288,0.040190123111147516]","[-1,-1,-1]","[-0.07047124432957932,-0.007245727638247346]","[-1,-1,-1]","[-0.006652036891309606,0.1863942672891519]","[1,1,1]","[-0.18936301799049668,0.009479422365342476]","[1,1,1]","[-0.032281533623677694,-0.020499312991670987]","[-1,-1,-1]","[0.0890933090121924,-0.09694009711743348]","[1,1,1]","[0.06442087091178755,-0.182605874489278]","[-1,-1,-1]","[0.031227439855878104,-0.051094278220017504]","[-1,-1,-1]","[0.01158743124448165,-0.0134605344446743]","[-1,-1,-1]","[0.04722465696228829,-0.14081890858499696]","[1,1,1]","[-0.037402767938899725,-0.07067777669649636]","[1,1,1]","[-0.12743312761700903,-0.02465849866082757]","[1,1,1]","[-0.12612463978691402,0.10644344100057679]","[1,1,1]","[0.02,0.02]",154.5459,0,8,8,147,1,,,,,,,
,,,,,,,664a70b48ff64eb6fa5d8b05,682f032d1e9589676c61ccea,2025-05-22_13h02.39.489,cuing_paradigm_dot,2024.1.5,Win32,238.0952381,682d556593cb38ad0a074487,,,,,,,,,,,154.546,155.0464,,,155.3003,155.8393,right,0.5266,,,,,,,,,0.4,,,,,,155.0464,155.3003,155.8393,"[0.012379439239801305,-0.11622296168637686]","[-1,-1,-1]","[-0.0918331098643811,0.012932954013815771]","[-1,-1,-1]","[0.0873648864653052,0.12451175147096187]","[-1,-1,-1]","[0.10963473503050117,0.0030730357023687773]","[-1,-1,-1]","[0.040861948289394705,-0.16489405651440936]","[1,1,1]","[0.13612698441744434,0.03721611789835579]","[1,1,1]","[-0.11336043225566876,0.07332246431366937]","[-1,-1,-1]","[0.1211045619925281,-0.079982598180455]","[-1,-1,-1]","[0.17255247742620147,-0.0877416047243253]","[-1,-1,-1]","[-0.08398280461722837,0.11820825099020668]","[-1,-1,-1]","[0.0860932423431262,0.07186694727366955]","[1,1,1]","[-0.05925058617440367,-0.01186784091863008]","[-1,-1,-1]","[0.05996962615481809,-0.07731720756035704]","[-1,-1,-1]","[-0.05656014878147571,-0.1680530238224455]","[1,1,1]","[-0.11777980033212314,-0.12465330167015355]","[-1,-1,-1]","[0.017849957982074175,0.12490887547844348]","[1,1,1]","[0.08155371397284537,-0.1818336705284918]","[1,1,1]","[0.1369370209865385,0.13198780063521115]","[-1,-1,-1]","[-0.15688217578079405,-0.005749983718919399]","[-1,-1,-1]","[0.15870184069348423,0.08934945171584241]","[1,1,1]","[-0.04429616196299485,0.10472661246403407]","[-1,-1,-1]","[0.16163979073543847,-0.021894624870305517]","[-1,-1,-1]","[-0.1665799567826969,-0.056233584972968466]","[1,1,1]","[0.006146966982237871,0.0513844858693561]","[-1,-1,-1]","[-0.1459117960021582,0.03756938275375708]","[1,1,1]","[-0.07031344435371226,0.06772777014743431]","[1,1,1]","[0.08956793484037313,0.17357514976954055]","[1,1,1]","[0.058064599615139545,0.04055449314616044]","[1,1,1]","[0.025832422247983322,0.1772280633733172]","[-1,-1,-1]","[-0.018469698623498624,-0.18238994448366974]","[-1,-1,-1]","[-0.034903147060618825,-0.054471687760066265]","[1,1,1]","[-0.07262085396139475,-0.11409924863330101]","[-1,-1,-1]","[0.02,0.02]",156.9376,0,9,9,49,1,,,,,,,
,,,,,,,664a70b48ff64eb6fa5d8b05,682f032d1e9589676c61ccea,2025-05-22_13h02.39.489,cuing_paradigm_dot,2024.1.5,Win32,238.0952381,682d556593cb38ad0a074487,,,,,,,,,,,156.9378,157.435,,,157.6863,158.1646,left,0.4746,,,,,,,,,0.55,,,,,,157.435,157.6863,158.1646,"[-0.179420910447631,-0.034806560711330134]","[-1,-1,-1]","[0.01582509886259178,0.14163846608286584]","[-1,-1,-1]","[0.07369702242004864,-0.10507671628521532]","[-1,-1,-1]","[0.09919178931655986,-0.04547997494681944]","[-1,-1,-1]","[0.1481355526370322,0.12870075302688025]","[-1,-1,-1]","[-0.0998719103005144,0.06844199448144218]","[1,1,1]","[-0.003325818956547911,-0.032481352634164566]","[-1,-1,-1]","[-0.15328196163361968,0.09342616745612523]","[-1,-1,-1]","[-0.09468390401363663,-0.02462304074013129]","[-1,-1,-1]","[0.16015407968293935,-0.07524147219799403]","[1,1,1]","[0.03460659529534861,-0.018451710471372167]","[1,1,1]","[-0.018371020465308825,-0.09972625306317065]","[1,1,1]","[0.10368932968555847,0.0914814004233101]","[1,1,1]","[-0.0987288703000818,-0.1453826706510106]","[1,1,1]","[0.12846514014704533,-0.11554724954840273]","[-1,-1,-1]","[0.10234099852197379,-0.15012361940067848]","[1,1,1]","[0.06879367376728991,0.0250087220289316]","[-1,-1,-1]","[-0.08179336058508453,0.018806268143044546]","[1,1,1]","[-0.1332462498426964,-0.09757089061036452]","[-1,-1,-1]","[0.17808160397174982,0.027003034176436014]","[1,1,1]","[-0.09139643202715977,0.11134523182271676]","[1,1,1]","[-0.1830597948366569,0.04857359681248677]","[1,1,1]","[0.030143666175354453,0.03672981421589631]","[-1,-1,-1]","[-0.027946823758594776,0.0811092951555097]","[1,1,1]","[-0.04831448765648425,0.1333031337161369]","[1,1,1]","[0.12512504821601764,0.017983078753516974]","[1,1,1]","[-0.06533893845740221,-0.05977376390166396]","[1,1,1]","[-0.14071273416551341,0.015692148247537563]","[1,1,1]","[-0.007951184112552044,-0.13872363396539242]","[-1,-1,-1]","[0.032275093213018635,-0.1292992212955553]","[-1,-1,-1]","[-0.19871804027493373,0.0013334165031139212]","[1,1,1]","[0.0873081538769142,0.17501641758479766]","[1,1,1]","[0.02,0.02]",159.2657,0,10,10,148,1,,,,,,,
,,,,,,,664a70b48ff64eb6fa5d8b05,682f032d1e9589676c61ccea,2025-05-22_13h02.39.489,cuing_paradigm_dot,2024.1.5,Win32,238.0952381,682d556593cb38ad0a074487,,,,,,,,,,,159.2657,159.766,,,160.0146,160.6395,left,0.6219,,,,,,,,,0.9,,,,,,159.766,160.0146,160.6395,"[0.02676669785397415,-0.00358637314863056]","[1,1,1]","[0.026213647420173368,0.11699805080777374]","[1,1,1]","[0.02573442879462844,-0.12716328461087664]","[1,1,1]","[0.1115588282059599,0.1517089222340836]","[1,1,1]","[-0.09265735907776604,0.11716854312878398]","[1,1,1]","[0.14081737395484178,-0.0388055623315593]","[1,1,1]","[-0.0803362229303568,0.1788893351123922]","[1,1,1]","[0.1892239669800436,0.013375820955069942]","[1,1,1]","[-0.16097010334724116,-0.0773105478368891]","[-1,-1,-1]","[0.12006158601031264,-0.12156794074828661]","[1,1,1]","[-0.05651631018526548,0.03686650032578135]","[1,1,1]","[0.03125290386925306,0.18344416066469735]","[-1,-1,-1]","[-0.016432120554260823,0.020707265747475497]","[1,1,1]","[0.10238040005950833,0.08136484895820124]","[1,1,1]","[0.06206104126107808,-0.07766711269613875]","[1,1,1]","[0.12367707132795984,0.0469912461664287]","[1,1,1]","[-0.04551517894878728,0.10978170855695922]","[1,1,1]","[-0.10402326056604058,0.0009686524903635785]","[1,1,1]","[-0.005448464019281291,-0.05288425566476045]","[1,1,1]","[-0.04030414326725216,-0.10457670234289466]","[1,1,1]","[-0.13291038593911073,0.11976698771782392]","[1,1,1]","[0.15700463953277743,-0.10363910729650665]","[1,1,1]","[-0.08338883620857472,-0.06780418012152013]","[1,1,1]","[0.0744866618537621,-0.033175103778588365]","[1,1,1]","[0.16580474069071474,0.07342522981570815]","[1,1,1]","[-0.17042964052161286,0.07122300327909681]","[1,1,1]","[-0.023276909133690425,0.16557293303997583]","[-1,-1,-1]","[-0.01292430653354588,-0.18486873823661448]","[1,1,1]","[0.06621881206024131,0.11614669679925463]","[1,1,1]","[-0.07718975772415956,0.07453313657267077]","[1,1,1]","[-0.18592284105477752,-0.017290139902824943]","[1,1,1]","[0.09298380672926163,0.010461367863635279]","[1,1,1]","[0.02,0.02]",161.7396,0,11,11,205,1,,,,,,,
,,,,,,,664a70b48ff64eb6fa5d8b05,682f032d1e9589676c61ccea,2025-05-22_13h02.39.489,cuing_paradigm_dot,2024.1.5,Win32,238.0952381,682d556593cb38ad0a074487,,,,,,,,,,,161.7396,162.2369,,,162.4842,162.8936,right,0.4044,,,,,,,,,0.1,,,,,,162.2369,162.4842,162.8936,"[-0.1589865305537737,-0.07281905416164612]","[-1,-1,-1]","[0.09785222716242785,-0.1707170863850871]","[-1,-1,-1]","[-0.07037772190658599,-0.15992436464360374]","[-1,-1,-1]","[0.11741032672918131,0.04256990792820214]","[-1,-1,-1]","[-0.11511876032405523,0.037014318977941496]","[1,1,1]","[-0.1225343195871365,0.13040827770945262]","[-1,-1,-1]","[0.02379689307614809,0.11886155068220824]","[-1,-1,-1]","[0.07864780447597075,-0.018241690041947485]","[-1,-1,-1]","[-0.03462402892771929,0.07867207907322041]","[-1,-1,-1]","[-0.15739573143933797,0.04888812636227573]","[-1,-1,-1]","[0.05314334838231219,-0.18650315443694981]","[-1,-1,-1]","[0.17094856385503113,-0.09650641971794113]","[1,1,1]","[0.19741892592199387,0.008510815756226801]","[-1,-1,-1]","[-0.09822559012162554,0.09614621978022268]","[-1,-1,-1]","[0.06669261411653066,-0.13223820085020532]","[-1,-1,-1]","[0.12183239849127776,-0.046250145801281874]","[-1,-1,-1]","[-0.017992679706139096,0.12624840728293582]","[-1,-1,-1]","[-0.07139937323628912,-0.04965823282990239]","[-1,-1,-1]","[0.013144939521162182,-0.038765955373976126]","[-1,-1,-1]","[0.009730599096039811,0.06241641595315538]","[-1,-1,-1]","[0.03741454995706446,0.19337782655044258]","[-1,-1,-1]","[-0.04508194069125746,-0.19195623581677904]","[-1,-1,-1]","[0.09896522772073826,0.13608832072793775]","[-1,-1,-1]","[0.006456478679712635,-0.13950277729201566]","[-1,-1,-1]","[0.11480527967944562,-0.12205114786996395]","[-1,-1,-1]","[-0.029004239330114513,-0.030245113626845004]","[-1,-1,-1]","[-0.0656235520818105,-0.11192993474748256]","[-1,-1,-1]","[-0.004943981433568826,-0.083171513169078]","[-1,-1,-1]","[0.13963528558892194,0.10575289521559296]","[-1,-1,-1]","[0.15256161834695178,-0.013253587131237057]","[-1,-1,-1]","[-0.15308735156101994,-0.12412211550293573]","[1,1,1]","[-0.19810462152839842,-0.005746451606430365]","[-1,-1,-1]","[0.02,0.02]",163.9939,0,12,12,8,1,,,,,,,
,,,,,,,664a70b48ff64eb6fa5d8b05,682f032d1e9589676c61ccea,2025-05-22_13h02.39.489,cuing_paradigm_dot,2024.1.5,Win32,238.0952381,682d556593cb38ad0a074487,,,,,,,,,,,163.994,164.4937,,,164.7429,165.0929,right,0.3447,,,,,,,,,0.1,,,,,,164.4937,164.7429,165.093,"[0.04028067267517769,-0.14340403174622637]","[-1,-1,-1]","[0.07961420251501057,-0.0444683951685711]","[-1,-1,-1]","[0.10680845295354127,0.04224600635201165]","[-1,-1,-1]","[-0.1523790608022304,0.118490561544904]","[-1,-1,-1]","[-0.014849582602978108,0.1757923441831847]","[-1,-1,-1]","[-0.04376715237491101,0.09588709880011499]","[-1,-1,-1]","[0.1240713393085553,-0.026536260206714297]","[-1,-1,-1]","[-0.15255309199494085,-0.026559573195608505]","[-1,-1,-1]","[-0.14444725215525794,-0.09333789976146935]","[-1,-1,-1]","[-0.06793310972739512,-0.08723527272062566]","[1,1,1]","[0.040836173783285815,0.18040263729331324]","[-1,-1,-1]","[-0.022169284341766474,0.03261314251862256]","[-1,-1,-1]","[0.007227632251477654,-0.1910324055246456]","[-1,-1,-1]","[0.05851477312977557,0.03136056142308821]","[-1,-1,-1]","[-0.06744765507562814,0.17080673227994633]","[-1,-1,-1]","[0.15750877940112315,-0.08085706468201187]","[-1,-1,-1]","[-0.12675239489205264,-0.15104766678119297]","[-1,-1,-1]","[-0.11101947424960294,0.04292474279521555]","[1,1,1]","[-0.037031923340022734,-0.1552554108413795]","[-1,-1,-1]","[0.012008904067484087,0.07535708133894442]","[-1,-1,-1]","[0.18573269793408678,-0.049524343818809546]","[-1,-1,-1]","[0.08851345200177194,-0.09118699726439702]","[-1,-1,-1]","[-0.020553542992244444,-0.03433592019919415]","[-1,-1,-1]","[0.15116125952634482,0.08295229596534194]","[-1,-1,-1]","[0.04487336245863971,-0.09500713154594688]","[-1,-1,-1]","[0.14371316100965134,0.12908225570877369]","[-1,-1,-1]","[0.014112815011384408,-0.006665284040233037]","[-1,-1,-1]","[-0.06545267565115756,0.01936483647101763]","[-1,-1,-1]","[0.09426332027897691,-0.15406077551114036]","[1,1,1]","[-0.01736480325286272,0.13540265477797345]","[-1,-1,-1]","[0.1094888226768669,0.1570873093753031]","[-1,-1,-1]","[0.18533772783189267,0.0077442683331986695]","[-1,-1,-1]","[0.02,0.02]",166.1899,0,13,13,25,1,,,,,,,
,,,,,,,664a70b48ff64eb6fa5d8b05,682f032d1e9589676c61ccea,2025-05-22_13h02.39.489,cuing_paradigm_dot,2024.1.5,Win32,238.0952381,682d556593cb38ad0a074487,,,,,,,,,,,166.1901,166.6902,,,166.9423,167.6287,right,0.6791,,,,,,,,,0.55,,,,,,166.6902,166.9423,167.6287,"[0.0502910039364064,0.14026986493081722]","[1,1,1]","[0.0325226880594146,-0.07791752578482629]","[1,1,1]","[0.087070886369008,-0.1475408871929218]","[1,1,1]","[0.18397467578770746,-0.02694906940996288]","[1,1,1]","[0.16880199140149127,0.05474490713449178]","[1,1,1]","[0.04736654958538132,-0.014035254654229626]","[-1,-1,-1]","[-0.05105715592880368,-0.11103485782362216]","[-1,-1,-1]","[-0.10064549907012983,-0.04189169517895353]","[-1,-1,-1]","[-0.08445968887491874,0.14047797884533755]","[-1,-1,-1]","[-0.09280579870814884,0.014559841558439637]","[-1,-1,-1]","[0.0069323727564765325,0.18470065769036842]","[-1,-1,-1]","[-0.031159542848993176,0.030344939902652034]","[1,1,1]","[0.11702709245289555,0.004427803778795016]","[1,1,1]","[-0.023360316639867425,0.07825328157631466]","[-1,-1,-1]","[-0.14518251187446116,-0.01407486208508562]","[1,1,1]","[-0.18827129474674037,0.050536303798268095]","[-1,-1,-1]","[0.022934616959888427,-0.13606327429917478]","[1,1,1]","[0.13461931286567913,0.12964652037507604]","[1,1,1]","[0.00449744686694203,-0.028494652256584787]","[-1,-1,-1]","[-0.04917753277808153,-0.03646570919913906]","[1,1,1]","[0.048609117073675,0.18622630469571752]","[1,1,1]","[-0.04509261760963015,-0.17342471612947877]","[1,1,1]","[-0.16597358263404047,-0.07196188227547323]","[1,1,1]","[0.03399344338423811,0.07815146014092561]","[1,1,1]","[0.007914666298461277,0.12348934536719652]","[-1,-1,-1]","[0.18658164685484224,0.014965178916799727]","[-1,-1,-1]","[0.13819790707755475,-0.11686347574435822]","[-1,-1,-1]","[-0.13165157201284444,-0.1258470430303622]","[-1,-1,-1]","[-0.029473709083933593,0.1473260792209931]","[-1,-1,-1]","[0.07370278330778797,-0.09617104981059191]","[1,1,1]","[0.08914635328815854,0.04202279032943753]","[1,1,1]","[0.13862439644144894,-0.06400308823391554]","[1,1,1]","[0.02,0.02]",168.7265,0,14,14,146,1,,,,,,,
,,,,,,,664a70b48ff64eb6fa5d8b05,682f032d1e9589676c61ccea,2025-05-22_13h02.39.489,cuing_paradigm_dot,2024.1.5,Win32,238.0952381,682d556593cb38ad0a074487,,,,,,,,,,,168.7267,169.2246,,,169.4724,169.9809,right,0.5071,,,,,,,,,0.4,,,,,,169.2247,169.4724,169.9809,"[-0.07060296138446238,-0.16107734107486077]","[-1,-1,-1]","[0.08910950229082946,-0.016753684631712288]","[-1,-1,-1]","[0.13326655630251794,-0.13293160179402969]","[1,1,1]","[0.006554817555104034,0.19274078839211653]","[1,1,1]","[0.1396679901078834,0.07245175621421807]","[-1,-1,-1]","[0.1427394868282886,-0.04107161385994117]","[1,1,1]","[0.030387299086499404,0.11661576550969273]","[-1,-1,-1]","[0.012839027310917274,-0.10910975436117379]","[-1,-1,-1]","[-0.07784825689648694,0.1394524654715786]","[-1,-1,-1]","[-0.12994667044283906,0.09095270053054047]","[-1,-1,-1]","[0.03957250321789081,0.16568874439954784]","[1,1,1]","[0.050463392079632526,-0.1321677041173405]","[1,1,1]","[-0.173801478973544,0.04747992668092788]","[-1,-1,-1]","[0.02772328896458323,-0.06227787937339528]","[1,1,1]","[-0.06863568913224208,0.04762140781477701]","[-1,-1,-1]","[0.028458801516306205,-0.006408746020529509]","[-1,-1,-1]","[-0.12148834081095719,0.15548690557619235]","[-1,-1,-1]","[-0.023000291452941326,0.05587094965753069]","[-1,-1,-1]","[0.07543289977808976,0.043823793337584224]","[1,1,1]","[-0.03518728246336517,-0.04746392170964878]","[-1,-1,-1]","[-0.13732188145841365,-0.0810918445774831]","[-1,-1,-1]","[-0.14333977436998063,-0.029079611541914553]","[1,1,1]","[0.07171078067038954,0.12252620764933811]","[-1,-1,-1]","[-0.040080437984354,-0.12819559644720183]","[1,1,1]","[-0.08246333233704646,-0.07461463736545419]","[-1,-1,-1]","[-0.03030772519094767,0.007987154966166678]","[1,1,1]","[-0.08385536997903051,-0.004429741689725055]","[1,1,1]","[0.12171799553843893,0.14072536206173847]","[-1,-1,-1]","[-0.04223752624753494,0.17412762604209184]","[-1,-1,-1]","[0.07208228579690645,-0.08902177633637316]","[1,1,1]","[0.13644063966681727,0.022599240215883745]","[1,1,1]","[0.08817190107241366,-0.16978043955524724]","[-1,-1,-1]","[0.02,0.02]",171.0806,0,15,15,40,1,,,,,,,
,,,,,,,664a70b48ff64eb6fa5d8b05,682f032d1e9589676c61ccea,2025-05-22_13h02.39.489,cuing_paradigm_dot,2024.1.5,Win32,238.0952381,682d556593cb38ad0a074487,,,,,,,,,,,171.0807,171.581,,,171.8296,172.2391,left,0.4039,,,,,,,,,0.6,,,,,,171.581,171.8296,172.2391,"[-0.011505967205633091,0.1269431667237268]","[1,1,1]","[0.08510328666246343,0.04963643514086086]","[1,1,1]","[-0.16129535633879694,-0.09833763527838954]","[1,1,1]","[-0.08955964011703917,-0.024798007613588715]","[1,1,1]","[-0.06529719668162749,-0.08759118448351745]","[-1,-1,-1]","[-0.19137008616230372,-0.020674780041230776]","[-1,-1,-1]","[-0.14767546831430692,0.02647103010287292]","[1,1,1]","[0.12309927793646822,-0.10971622549752086]","[-1,-1,-1]","[0.0886865434817616,0.09854782569174815]","[1,1,1]","[0.17209635816887295,-0.09522945976232457]","[1,1,1]","[0.06501876823158481,-0.16365756887410213]","[1,1,1]","[-0.01282272168783382,-0.14050518705966553]","[1,1,1]","[0.03538321095186082,-0.13027761452373451]","[-1,-1,-1]","[-0.026406055147608305,-0.03473465022293365]","[1,1,1]","[0.04648400661508903,-0.07743539777607049]","[1,1,1]","[-0.11306308546686018,-0.1585197669367416]","[1,1,1]","[0.13939487942149104,-0.06559818215027828]","[-1,-1,-1]","[-0.07026251007439273,0.0746899286241783]","[-1,-1,-1]","[-0.019965591674573544,0.06635410989548246]","[-1,-1,-1]","[-0.16530444213793655,0.10411757236782819]","[1,1,1]","[-0.004884367782554507,-0.07277230693562052]","[-1,-1,-1]","[0.043589314109198994,0.035192901389447646]","[1,1,1]","[0.04864952041063559,-0.03193623391023024]","[-1,-1,-1]","[0.09009898767118246,-0.029187409994918603]","[1,1,1]","[0.1408846119989383,0.029983987171779494]","[1,1,1]","[-0.13147192741038363,-0.03736278484710257]","[-1,-1,-1]","[-0.1440928377769254,0.13824263395491454]","[1,1,1]","[-0.004021959148291029,0.1689818327730004]","[1,1,1]","[0.0805601800427836,0.15552250266051598]","[-1,-1,-1]","[-0.10887254710848474,0.10187415990244814]","[-1,-1,-1]","[0.19374905265167658,-0.015515833504431583]","[1,1,1]","[-0.0635415739327579,0.11726699622376001]","[-1,-1,-1]","[0.02,0.02]",173.3407,0,16,16,178,1,,,,,,,
,,,,,,,664a70b48ff64eb6fa5d8b05,682f032d1e9589676c61ccea,2025-05-22_13h02.39.489,cuing_paradigm_dot,2024.1.5,Win32,238.0952381,682d556593cb38ad0a074487,,,,,,,,,,,173.3407,173.8406,,,174.0856,174.7532,right,0.662,,,,,,,,,0.45,,,,,,173.8406,174.0856,174.7532,"[-0.007378788845534057,0.11956422345967681]","[-1,-1,-1]","[-0.16262294603543262,0.035555378622997826]","[-1,-1,-1]","[-0.025469321537459906,0.16094631504709342]","[-1,-1,-1]","[0.1641971019533034,0.04770081452311598]","[1,1,1]","[-0.10838582398906706,-0.0842729652192231]","[1,1,1]","[-0.1844095902457742,-0.02882274287179761]","[1,1,1]","[0.13372840769581915,-0.12707129773616027]","[1,1,1]","[0.1260597674979784,-0.04442921426029651]","[-1,-1,-1]","[-0.03603850922406185,-0.06940756002290256]","[1,1,1]","[-0.1473379971440296,-0.002846012554507886]","[-1,-1,-1]","[0.006155938498846773,-0.1708965099845837]","[-1,-1,-1]","[-0.1131317234452308,0.06138714950692053]","[1,1,1]","[0.10730152795202497,0.09172726364877255]","[-1,-1,-1]","[0.1820595207877401,-0.033916824936190346]","[-1,-1,-1]","[-0.0733983219408284,0.10663549872656837]","[1,1,1]","[-0.004677883106284197,-0.11236743224988122]","[1,1,1]","[0.04641567663930972,0.11556764105845259]","[1,1,1]","[-0.019947102523793257,-0.004769027626914296]","[-1,-1,-1]","[0.07803106458886631,-0.12210707216673088]","[-1,-1,-1]","[0.06629682817190577,-0.17483935135189155]","[-1,-1,-1]","[0.10140919758407405,0.1518656590585523]","[1,1,1]","[-0.060490550342181676,0.04083261181432898]","[1,1,1]","[-0.047748941477936784,-0.18545797523021698]","[-1,-1,-1]","[0.03160337686003659,0.030568572566161693]","[-1,-1,-1]","[-0.094614700513814,0.14455642825320622]","[1,1,1]","[0.10411108454130706,0.03826170537959159]","[-1,-1,-1]","[0.041492979909922394,-0.07679867786227171]","[-1,-1,-1]","[-0.045916997706227126,-0.11719614274775576]","[-1,-1,-1]","[-0.11457356025712813,-0.1598122357573492]","[-1,-1,-1]","[-0.15907631679291884,0.08888488855104457]","[1,1,1]","[0.033531139513935805,-0.02400235997439755]","[1,1,1]","[-0.12611070033163685,-0.04719733810423618]","[-1,-1,-1]","[0.02,0.02]",175.8532,0,17,17,83,1,,,,,,,
,,,,,,,664a70b48ff64eb6fa5d8b05,682f032d1e9589676c61ccea,2025-05-22_13h02.39.489,cuing_paradigm_dot,2024.1.5,Win32,238.0952381,682d556593cb38ad0a074487,,,,,,,,,,,175.8532,176.3526,,,176.6013,177.6848,right,1.0739,,,,,,,,,0.6,,,,,,176.3526,176.6012,177.6848,"[-0.17243865947132098,-0.07610133759407366]","[1,1,1]","[0.10620224005251216,0.14922062839153602]","[1,1,1]","[0.008086389786050415,0.03265676338491194]","[1,1,1]","[-0.029539128720710236,0.050951722920304816]","[-1,-1,-1]","[-0.12594030146169066,-0.08784528253360636]","[1,1,1]","[0.06731543084005191,0.11193542387527003]","[-1,-1,-1]","[-0.1291380634250973,-0.1279511704154563]","[1,1,1]","[0.02595366491325571,-0.05635640144451863]","[1,1,1]","[-0.10309943970366742,0.0040817468015203725]","[-1,-1,-1]","[-0.07055949631527374,0.08647888135681872]","[1,1,1]","[-0.057839153233516696,-0.11890221002713112]","[-1,-1,-1]","[0.09904183374861915,0.06306933913660581]","[1,1,1]","[0.0366791272603283,-0.16988576157764648]","[1,1,1]","[0.10087407559368843,0.022785286667342884]","[1,1,1]","[-0.19185980872370523,-0.02960371331706983]","[1,1,1]","[0.10551191378058034,-0.13130883482963854]","[-1,-1,-1]","[0.09656952505772773,-0.09182913536669852]","[1,1,1]","[0.13599637857260063,-0.03171513557068461]","[1,1,1]","[0.018636008721738095,0.1331646268525789]","[1,1,1]","[-0.04680476135822637,-0.040175384386875936]","[-1,-1,-1]","[0.08744737499019055,-0.04426313419128757]","[1,1,1]","[0.19082030371220002,-0.04102971738789832]","[-1,-1,-1]","[0.06637273538984868,0.16268448035679373]","[1,1,1]","[-0.08976737914494289,0.160988116910111]","[-1,-1,-1]","[-0.14876364905105152,-0.04114614919508642]","[1,1,1]","[-0.13383889413080974,0.040845746844166864]","[-1,-1,-1]","[-0.04468261123356649,0.14256854501358698]","[-1,-1,-1]","[-0.009528855382082915,-0.10553574224388822]","[1,1,1]","[-0.04137210069780231,0.19235818464174304]","[-1,-1,-1]","[0.14838797797180306,0.08866648892724768]","[1,1,1]","[-0.17638313059033842,0.08674103996527417]","[-1,-1,-1]","[0.1884636425077804,0.05443338167402859]","[-1,-1,-1]","[0.02,0.02]",178.7842,0,18,18,167,1,,,,,,,
,,,,,,,664a70b48ff64eb6fa5d8b05,682f032d1e9589676c61ccea,2025-05-22_13h02.39.489,cuing_paradigm_dot,2024.1.5,Win32,238.0952381,682d556593cb38ad0a074487,,,,,,,,,,,178.7843,179.2822,,,179.5295,180.0572,left,0.5211,,,,,,,,,0.4,,,,,,179.2822,179.5295,180.0572,"[-0.15693201437895435,-0.03547658375014081]","[-1,-1,-1]","[0.18200858753955104,0.078958535558057]","[1,1,1]","[-0.12157833859808845,-0.13772696931101025]","[-1,-1,-1]","[0.13951882576387453,0.07741772883545452]","[-1,-1,-1]","[0.04677999468878306,0.058199502652599884]","[-1,-1,-1]","[0.07032680304892316,0.1438677891179118]","[-1,-1,-1]","[0.02982885852324338,-0.00193495672331657]","[-1,-1,-1]","[-0.18563243279038855,0.02661944551087597]","[-1,-1,-1]","[0.020873389682021314,-0.042765020344869786]","[-1,-1,-1]","[-0.11630713583582877,0.042720221125700335]","[1,1,1]","[0.12140814678989188,-0.07198343760953117]","[-1,-1,-1]","[-0.03363070257168529,0.16216022475546035]","[-1,-1,-1]","[-0.032035848478633534,-0.16684411821393547]","[1,1,1]","[-0.01722282558745496,-0.10063511845697763]","[-1,-1,-1]","[0.18823321107564756,-0.01103478602896923]","[1,1,1]","[-0.016178008793520843,-0.021610047391184967]","[-1,-1,-1]","[0.02114335276482822,-0.1595926578508985]","[-1,-1,-1]","[0.09194086133004424,0.048690157419908536]","[-1,-1,-1]","[0.06318831986443821,-0.030830289509796105]","[1,1,1]","[-0.013684978637979614,0.053892745606380896]","[1,1,1]","[-0.07578614511011253,-0.053661023301982684]","[1,1,1]","[-0.07434671622251551,-0.15039078891119811]","[1,1,1]","[-0.011171585861561835,0.1086687612240413]","[-1,-1,-1]","[-0.08491306928557461,0.15007787600535494]","[1,1,1]","[-0.081850543414274,0.08297223454181431]","[-1,-1,-1]","[0.10851328646364229,-0.113372241722929]","[-1,-1,-1]","[0.1526572231237871,0.0252681229836298]","[1,1,1]","[-0.1072179128593521,-0.01598422836459737]","[1,1,1]","[-0.08061536604836553,0.01943839233977271]","[1,1,1]","[0.17708024737806535,-0.08816689500324394]","[1,1,1]","[0.058259906968746326,-0.143711046837898]","[-1,-1,-1]","[-0.160337318139317,0.10488893047709777]","[-1,-1,-1]","[0.02,0.02]",181.1577,0,19,19,43,1,,,,,,,
,,,,,,,664a70b48ff64eb6fa5d8b05,682f032d1e9589676c61ccea,2025-05-22_13h02.39.489,cuing_paradigm_dot,2024.1.5,Win32,238.0952381,682d556593cb38ad0a074487,,,,,,,,,,,181.1578,181.6569,,,181.906,182.9382,left,1.0307,,,,,,,,,0.45,,,,,,181.6569,181.906,182.9382,"[0.08263594401206414,0.03348615328119423]","[-1,-1,-1]","[-0.00929698156829553,0.05332834663581267]","[1,1,1]","[-0.08095925155343646,-0.17871902867963205]","[-1,-1,-1]","[0.10862186773404454,0.1635260368359445]","[1,1,1]","[-0.026042096282823883,-0.03190362034404959]","[1,1,1]","[-0.07561083297501053,0.14914024615557675]","[-1,-1,-1]","[0.04162702019729165,0.19385888217580036]","[1,1,1]","[0.05013480727743422,0.06417769243897546]","[1,1,1]","[-0.09151953540137607,0.10776223495129782]","[-1,-1,-1]","[0.12545906834885157,0.08379504929500037]","[1,1,1]","[-0.08477033041663512,0.005515356875406234]","[-1,-1,-1]","[0.0717032831414521,-0.11014433227617038]","[-1,-1,-1]","[0.03099682678769489,-0.17749536446275246]","[-1,-1,-1]","[0.1292371210162742,-0.022993036257324677]","[1,1,1]","[-0.10666222552120164,-0.13951046813370166]","[1,1,1]","[0.016919518394615557,-0.10087214535336243]","[-1,-1,-1]","[0.10915940133277384,-0.08643361141281626]","[1,1,1]","[0.1906623656618684,0.015917313425421836]","[-1,-1,-1]","[-0.02995518862100849,0.13162206633609574]","[1,1,1]","[-0.007039560180551066,0.09742686634394494]","[-1,-1,-1]","[0.16354343642069194,-0.07160239041269967]","[-1,-1,-1]","[-0.14711979068530495,-0.027232978416464704]","[-1,-1,-1]","[-0.006225358997999673,0.19824554018793086]","[1,1,1]","[-0.15928399628539572,-0.1194367645632388]","[-1,-1,-1]","[-0.15954914142571863,0.12006104649640674]","[-1,-1,-1]","[-0.1906291414507941,0.007502173500546951]","[1,1,1]","[-0.0838975415552737,-0.060077526626654776]","[-1,-1,-1]","[0.06153458223833251,-0.06318294898912807]","[-1,-1,-1]","[-0.1205957286306309,0.15370006379992407]","[1,1,1]","[0.08568681564129312,-0.17550444203012983]","[1,1,1]","[-0.17739132176920877,0.0720175871020809]","[-1,-1,-1]","[0.05384983639001827,0.1483231065061814]","[-1,-1,-1]","[0.02,0.02]",184.0373,0,20,20,67,1,,,,,,,
,,,,,,,664a70b48ff64eb6fa5d8b05,682f032d1e9589676c61ccea,2025-05-22_13h02.39.489,cuing_paradigm_dot,2024.1.5,Win32,238.0952381,682d556593cb38ad0a074487,,,,,,,,,,,184.0374,184.5382,,,184.7882,185.4995,left,0.7089,,,,,,,,,0.5,,,,,,184.5382,184.7882,185.4995,"[0.10570378853182462,-0.010398510586029162]","[1,1,1]","[0.03873920668911528,0.1935458088169312]","[1,1,1]","[-0.06459337064987365,-0.0548699270662997]","[1,1,1]","[-0.046095849904353996,0.1928585054985958]","[-1,-1,-1]","[0.08744575656551572,0.09434367043234429]","[-1,-1,-1]","[-0.050122714091986036,-0.1275852002679807]","[1,1,1]","[0.1581432996326064,-0.03498857363671741]","[-1,-1,-1]","[0.12289918888945155,-0.09089416041889996]","[-1,-1,-1]","[-0.1003345329250491,0.002938490728717655]","[-1,-1,-1]","[-0.1720996064866068,0.06134147923616826]","[1,1,1]","[-0.023196278294347176,-0.03607323110195196]","[-1,-1,-1]","[-0.1217961781376196,0.043572403368082796]","[-1,-1,-1]","[0.06955465550064645,-0.07397578004266246]","[-1,-1,-1]","[-0.17410981809632764,-0.0968425583846191]","[1,1,1]","[0.1793677786682807,-0.06932397491018272]","[-1,-1,-1]","[-0.14400311572427357,-0.021113976365963755]","[1,1,1]","[-0.03838515895939973,0.0740849388214694]","[1,1,1]","[-0.09766434666259113,0.15784331650891875]","[-1,-1,-1]","[0.12339808858438919,0.15423490939335177]","[1,1,1]","[0.040324171159648696,-0.13360414669007323]","[-1,-1,-1]","[-0.006567712502537808,-0.16711893572193204]","[-1,-1,-1]","[0.03485790060244414,0.01971100384871758]","[1,1,1]","[-0.12745335962335025,-0.10652740289216123]","[-1,-1,-1]","[-0.06002202532417356,-0.16815597774838378]","[1,1,1]","[0.012725688976736869,-0.08167496978514321]","[1,1,1]","[0.022616848846832887,0.0797421270884489]","[-1,-1,-1]","[0.09387324347790214,-0.16121347474857461]","[1,1,1]","[-0.06143484000584121,0.13548369858782397]","[1,1,1]","[-0.024720222306091034,0.026521241967689933]","[-1,-1,-1]","[-0.0992575538624767,0.07866436847651542]","[1,1,1]","[-0.15045951812624256,0.11945949681780824]","[1,1,1]","[-0.18248343203785003,-0.05371938207195941]","[-1,-1,-1]","[0.02,0.02]",186.6003,0,21,21,90,1,,,,,,,
,,,,,,,664a70b48ff64eb6fa5d8b05,682f032d1e9589676c61ccea,2025-05-22_13h02.39.489,cuing_paradigm_dot,2024.1.5,Win32,238.0952381,682d556593cb38ad0a074487,,,,,,,,,,,186.6005,187.0984,,,187.3489,188.4274,right,1.0773,,,,,,,,,0.45,,,,,,187.0984,187.3489,188.4274,"[0.11768389323799347,0.11212731291653688]","[-1,-1,-1]","[0.021677829306668405,0.1192518132466864]","[-1,-1,-1]","[-0.16051347422944856,0.10195664257703917]","[1,1,1]","[-0.07274370027001885,0.09541391056338826]","[1,1,1]","[-0.03884605445862317,-0.08946814655746178]","[1,1,1]","[0.014949738726033177,-0.009940412392090389]","[1,1,1]","[0.08476272628315366,-0.05210397446187756]","[-1,-1,-1]","[0.027527233199875864,-0.09344283387359262]","[1,1,1]","[-0.13336608707312686,-0.053426416165438036]","[-1,-1,-1]","[0.09413237799670594,0.15011916125259017]","[-1,-1,-1]","[-0.00804779880745233,-0.19801402483344302]","[1,1,1]","[0.15938574005487757,0.0842257438777351]","[1,1,1]","[0.06466795140067365,0.008541312873230391]","[-1,-1,-1]","[-0.07492662444076302,0.04572921403607615]","[-1,-1,-1]","[0.048398260560584945,0.16110037942891453]","[-1,-1,-1]","[-0.11629185318921473,-0.10376279153068456]","[-1,-1,-1]","[0.111058593598991,-0.00730980704843875]","[-1,-1,-1]","[0.158241964190434,-0.07126409607883166]","[-1,-1,-1]","[0.028713785891130852,0.06703533397720422]","[1,1,1]","[-0.007762640653704267,0.1848217055502372]","[1,1,1]","[0.08119482259865124,0.05059330653700077]","[1,1,1]","[-0.19084103509504052,-0.004290761758604353]","[1,1,1]","[-0.14836685980031422,0.022335751213764556]","[-1,-1,-1]","[-0.06785114526707522,-0.03228850115293007]","[-1,-1,-1]","[0.03464609684863655,-0.1777796816501874]","[-1,-1,-1]","[0.155014665361582,-0.017774909892234767]","[1,1,1]","[-0.07845972931854003,-0.13827923009395743]","[1,1,1]","[0.010132712441379792,-0.050080485300352764]","[-1,-1,-1]","[-0.10977790653838478,0.15021292268369743]","[-1,-1,-1]","[-0.02276778612896165,-0.023614596692808295]","[-1,-1,-1]","[-0.1601702069382509,-0.09876029067578625]","[1,1,1]","[-0.11169120051927445,0.10728958128499627]","[-1,-1,-1]","[0.02,0.02]",189.5272,0,22,22,79,1,,,,,,,
,,,,,,,664a70b48ff64eb6fa5d8b05,682f032d1e9589676c61ccea,2025-05-22_13h02.39.489,cuing_paradigm_dot,2024.1.5,Win32,238.0952381,682d556593cb38ad0a074487,,,,,,,,,,,189.5273,190.0263,,,190.2753,190.7852,left,0.5083,,,,,,,,,0.9,,,,,,190.0263,190.2752,190.7852,"[0.17532089500893527,-0.06505543969335925]","[1,1,1]","[0.08278579186977539,-0.107554713915788]","[1,1,1]","[0.11461467255280386,0.057763494041334525]","[-1,-1,-1]","[-0.0010229463395016614,0.0929507416369269]","[1,1,1]","[-0.10563456916077074,0.09663212702349708]","[1,1,1]","[0.006734295527709946,-0.1703057190393283]","[1,1,1]","[-0.03299179571185944,-0.04454506705327781]","[1,1,1]","[0.15459870418460706,-0.10753447614024682]","[1,1,1]","[0.0314895974458198,0.016163089169666425]","[1,1,1]","[-0.07542605777299478,-0.07071312558237496]","[-1,-1,-1]","[-0.12077113296825372,0.13992419816839058]","[1,1,1]","[0.1450572640263901,0.11017679778275385]","[1,1,1]","[-0.17211412119587813,0.042323135210297916]","[1,1,1]","[0.031661551799141666,0.12322440692727081]","[1,1,1]","[0.07125927803613877,0.16701678390751887]","[1,1,1]","[-0.1098548045242432,0.041541988288049315]","[1,1,1]","[-0.08205419661668853,0.17281880236898028]","[1,1,1]","[-0.0463268507095211,0.14339935331756246]","[-1,-1,-1]","[-0.013824547860008276,0.17551659402740374]","[1,1,1]","[0.029058343670913075,0.1929889078956883]","[1,1,1]","[0.06982274668524148,-0.04908135850536373]","[1,1,1]","[-0.14666035429020474,-0.1278525556926489]","[1,1,1]","[0.11511896804584519,0.004295302899100607]","[1,1,1]","[-0.02991177688381656,0.040349469771183546]","[1,1,1]","[0.11926382997040351,-0.05221575050935338]","[1,1,1]","[0.15533541375695978,0.03870118627647515]","[1,1,1]","[-0.07510986786283749,-0.02449662997547]","[1,1,1]","[-0.055341499665499956,-0.1332928272161375]","[1,1,1]","[-0.12785984723774318,-0.017110785492497133]","[1,1,1]","[-0.07424269665590034,-0.1808525909871362]","[1,1,1]","[0.18355136480578638,-0.011367417749589109]","[1,1,1]","[0.016987225305235488,-0.04251333187927992]","[1,1,1]","[0.02,0.02]",191.8843,0,23,23,185,1,,,,,,,
,,,,,,,664a70b48ff64eb6fa5d8b05,682f032d1e9589676c61ccea,2025-05-22_13h02.39.489,cuing_paradigm_dot,2024.1.5,Win32,238.0952381,682d556593cb38ad0a074487,,,,,,,,,,,191.8844,192.3832,,,192.6324,193.2562,right,0.6182,,,,,,,,,0.5,,,,,,192.3832,192.6324,193.2562,"[-0.03866694574776913,-0.1901780468472229]","[1,1,1]","[-0.1499113721636929,0.09563246960731027]","[-1,-1,-1]","[-0.01020388657038495,-0.1390485344325781]","[1,1,1]","[0.10112362849168595,-0.14687612189701413]","[-1,-1,-1]","[0.15372004003463577,0.03987645799769075]","[-1,-1,-1]","[0.14060212214273834,-0.029193216099628463]","[-1,-1,-1]","[0.052799222905696865,-0.09275092141697366]","[1,1,1]","[-0.05837027029417673,0.060855222099937316]","[1,1,1]","[0.10084830300200655,0.1231867983329413]","[1,1,1]","[0.005033920991421376,-0.05033179480702603]","[-1,-1,-1]","[-0.19603966665814299,-0.0208209554151846]","[-1,-1,-1]","[-0.10348346469488709,0.04504765868671596]","[1,1,1]","[-0.14976627410362603,-0.12764349263575522]","[1,1,1]","[0.06172663261649072,0.156511496879642]","[-1,-1,-1]","[-0.07196197876487113,0.12149003248388672]","[1,1,1]","[0.038062510904438095,-0.1299975718265372]","[-1,-1,-1]","[-0.12865640612598836,-0.07463724528963325]","[-1,-1,-1]","[0.12609687659170996,-0.09125192059611588]","[1,1,1]","[-0.0329169405063983,0.18706945051638785]","[-1,-1,-1]","[0.022138152726876966,0.10513553562250241]","[1,1,1]","[-0.036648493415370104,0.026471188380473038]","[-1,-1,-1]","[-0.11112246797008885,0.1064929492583214]","[1,1,1]","[-0.0006710673219065658,0.15695982426748545]","[-1,-1,-1]","[-0.032211763384599156,0.11651411341552574]","[-1,-1,-1]","[0.052179510234976134,0.07014632579773997]","[-1,-1,-1]","[0.026464734452842278,-0.009970395345536698]","[1,1,1]","[0.08013003482404485,-0.048357040379439116]","[1,1,1]","[-0.16370406881171878,0.022205401102841776]","[-1,-1,-1]","[0.07244126097680555,-0.007246534071050584]","[1,1,1]","[-0.061234390199290036,-0.005715363383081194]","[1,1,1]","[-0.07741186626210073,-0.17492658311796136]","[-1,-1,-1]","[-0.1409155623567647,0.14004204465960152]","[1,1,1]","[0.02,0.02]",194.3562,0,24,24,106,1,,,,,,,
,,,,,,,664a70b48ff64eb6fa5d8b05,682f032d1e9589676c61ccea,2025-05-22_13h02.39.489,cuing_paradigm_dot,2024.1.5,Win32,238.0952381,682d556593cb38ad0a074487,,,,,,,,,,,194.3564,194.8563,,,195.1063,195.8775,left,0.7649,,,,,,,,,0.5,,,,,,194.8563,195.1063,195.8775,"[-0.10493880538671539,-0.00679464652966061]","[1,1,1]","[-0.0029882855090784958,-0.024208712025880885]","[1,1,1]","[0.04884775608856694,-0.1814467870786895]","[1,1,1]","[-0.01678720930253909,0.1281238338609609]","[1,1,1]","[-0.03732739995091342,0.046265565703163126]","[-1,-1,-1]","[-0.014434516814590072,-0.10889617155058058]","[-1,-1,-1]","[0.006873513262817443,0.06289050734443136]","[-1,-1,-1]","[0.09689777425051507,-0.03310495740929561]","[1,1,1]","[-0.0360037454842432,0.18365272207102312]","[-1,-1,-1]","[0.020166278292086406,-0.061635640534520836]","[-1,-1,-1]","[0.07632749697993546,-0.08329615921385705]","[-1,-1,-1]","[-0.05778521488083146,-0.04508330906732789]","[1,1,1]","[-0.10069273204955409,0.12808587019281192]","[1,1,1]","[-0.10635633215244239,-0.05086993910752624]","[1,1,1]","[-0.18212891770572612,-0.00712599400340573]","[1,1,1]","[-0.09676004332736961,0.03897874627525713]","[-1,-1,-1]","[0.07279322076706456,0.1180019161313946]","[-1,-1,-1]","[-0.1546830249029454,0.116459942072073]","[-1,-1,-1]","[-0.1484485202192754,-0.0778719599195851]","[1,1,1]","[-0.12784934623638394,-0.1152768679601803]","[-1,-1,-1]","[-0.04941908148197547,-0.1783328126306747]","[-1,-1,-1]","[-0.1148178595204681,0.08554589388617155]","[1,1,1]","[-0.00945492855716306,-0.1552819078420667]","[-1,-1,-1]","[0.1448220489621396,0.03455811712391185]","[-1,-1,-1]","[0.12844682432836818,-0.12750078561923395]","[-1,-1,-1]","[0.19704818026429324,-0.011426672083764666]","[1,1,1]","[0.05679398673818015,0.002171180073620909]","[1,1,1]","[0.1274098492499694,0.11151062991548999]","[-1,-1,-1]","[-0.03742977681438896,0.09006977529377372]","[1,1,1]","[0.019984136531801498,0.19449536679853924]","[1,1,1]","[0.06654299039843506,-0.12851318321856273]","[-1,-1,-1]","[-0.14131607897745266,0.0323107818877987]","[1,1,1]","[0.02,0.02]",196.9767,0,25,25,105,1,,,,,,,
,,,,,,,664a70b48ff64eb6fa5d8b05,682f032d1e9589676c61ccea,2025-05-22_13h02.39.489,cuing_paradigm_dot,2024.1.5,Win32,238.0952381,682d556593cb38ad0a074487,,,,,,,,,,,196.9768,197.4768,,,197.7248,197.9915,right,0.2652,,,,,,,,,0.1,,,,,,197.4768,197.7248,197.9915,"[0.18625000007882905,-0.06226424402520141]","[1,1,1]","[0.06479090900649971,-0.09829003120846092]","[-1,-1,-1]","[0.006943585211160377,0.0031345086718423676]","[-1,-1,-1]","[-0.17840966627469246,-0.04226017473348669]","[-1,-1,-1]","[-0.016765207521278094,-0.15936299997099843]","[-1,-1,-1]","[-0.15319532013166792,-0.008015005372328105]","[-1,-1,-1]","[0.096677202885923,0.16664776141424967]","[-1,-1,-1]","[0.08504763525104589,-0.0629801640437566]","[-1,-1,-1]","[-0.06955535136943346,0.1538608711143263]","[-1,-1,-1]","[-0.03804191598945304,0.11950795583983126]","[-1,-1,-1]","[-0.16384275394576206,0.08068580723688183]","[-1,-1,-1]","[0.04729793195636521,-0.04327841088019854]","[-1,-1,-1]","[-0.049592650135930776,0.0229790969739361]","[-1,-1,-1]","[0.04884799836187301,-0.1815196888584038]","[-1,-1,-1]","[0.0566347603661824,0.10288200484883847]","[-1,-1,-1]","[0.022132648224997033,0.07778240850676069]","[-1,-1,-1]","[0.09741064573493277,0.010099381044701426]","[-1,-1,-1]","[-0.09726084000588078,-0.17027909557469956]","[-1,-1,-1]","[0.002381623293723838,-0.19624726425160777]","[-1,-1,-1]","[-0.11768505804534969,0.1405521965867717]","[-1,-1,-1]","[-0.12216205207016086,-0.11047894858842144]","[-1,-1,-1]","[0.16980034603036223,0.09243935263415433]","[-1,-1,-1]","[0.03567691634331705,0.1680428117550479]","[-1,-1,-1]","[-0.17295961094650802,-0.08542040238892434]","[1,1,1]","[0.14811677473411777,-0.03202902132939389]","[-1,-1,-1]","[0.13040137916703531,-0.07569979511146686]","[-1,-1,-1]","[-0.016344915893723222,0.15963036004061337]","[-1,-1,-1]","[0.10078112329377266,0.0538206025687402]","[-1,-1,-1]","[-0.0616197683133592,-0.08167216638742317]","[-1,-1,-1]","[-0.0828971145843494,0.0941779985515164]","[-1,-1,-1]","[0.11576641517627173,0.12435109796732201]","[-1,-1,-1]","[-0.12530805034838416,-0.054878419705227936]","[1,1,1]","[0.02,0.02]",199.0914,0,26,26,22,1,,,,,,,
,,,,,,,664a70b48ff64eb6fa5d8b05,682f032d1e9589676c61ccea,2025-05-22_13h02.39.489,cuing_paradigm_dot,2024.1.5,Win32,238.0952381,682d556593cb38ad0a074487,,,,,,,,,,,199.0916,199.5914,,,199.8414,200.3793,right,0.5315,,,,,,,,,0.45,,,,,,199.5914,199.8414,200.3794,"[0.09216713981742997,0.170986918430539]","[-1,-1,-1]","[0.08234845026287196,0.0013533842762562778]","[-1,-1,-1]","[-0.15176927719503697,0.07147366296075064]","[1,1,1]","[-0.1649225166292999,-0.08705313208850897]","[1,1,1]","[0.1316435919321928,-0.1387187839346339]","[-1,-1,-1]","[0.011991096162500282,0.0716968116138683]","[-1,-1,-1]","[0.023334372338810482,-0.06866122598724063]","[-1,-1,-1]","[0.05250721948453573,0.14747050771850678]","[-1,-1,-1]","[-0.11279352719984628,-0.12506631402227542]","[1,1,1]","[-0.12690021157430798,0.13809838301369304]","[1,1,1]","[-0.016608413816717228,0.14689641736722223]","[-1,-1,-1]","[-0.04371307415032635,-0.07493266809099648]","[-1,-1,-1]","[-0.19481661529254493,-0.02897949688335866]","[1,1,1]","[-0.09252359555712475,0.16358196357514038]","[1,1,1]","[-0.07579643230482909,0.005001465344051832]","[1,1,1]","[0.15821136718339668,0.11722498677178907]","[-1,-1,-1]","[-0.11087526500690123,-0.046211261359874245]","[-1,-1,-1]","[-0.05858589924252059,0.05317706189757018]","[1,1,1]","[-0.01570187081835195,-0.12187737563437047]","[-1,-1,-1]","[0.1703084528089777,-0.0527432389503979]","[-1,-1,-1]","[0.040148605213175995,-0.18536613584769054]","[-1,-1,-1]","[0.14201474577915704,0.011576339923263615]","[-1,-1,-1]","[0.03616869314566718,-0.10736210532071919]","[1,1,1]","[0.006772747248772973,0.19043763258559698]","[1,1,1]","[-0.04544091650847921,-0.1618625665167882]","[1,1,1]","[-0.11045058873784808,0.0397515179403197]","[-1,-1,-1]","[0.013202761722905293,-0.0025150668470790174]","[-1,-1,-1]","[0.10649520897956567,0.043220344556762276]","[-1,-1,-1]","[-0.09302298710717871,0.07812433042716393]","[1,1,1]","[0.07770824103320613,-0.09979938676828962]","[1,1,1]","[0.1830806356470934,-0.007677118760485421]","[-1,-1,-1]","[0.08119640161059154,-0.04774963627838159]","[1,1,1]","[0.02,0.02]",201.4777,0,27,27,64,1,,,,,,,
,,,,,,,664a70b48ff64eb6fa5d8b05,682f032d1e9589676c61ccea,2025-05-22_13h02.39.489,cuing_paradigm_dot,2024.1.5,Win32,238.0952381,682d556593cb38ad0a074487,,,,,,,,,,,201.4779,201.9777,,,202.2267,202.8457,right,0.6135,,,,,,,,,0.4,,,,,,201.9777,202.2267,202.8457,"[0.0023598888598015903,0.06704218884656235]","[-1,-1,-1]","[-0.03585648349086443,-0.19265258660111897]","[-1,-1,-1]","[0.038008129136748746,0.18279235264404398]","[-1,-1,-1]","[-0.07757791012715096,-0.17706548969200325]","[1,1,1]","[0.16206533116734745,-0.09127142737934518]","[1,1,1]","[0.08626217320072319,0.06932797949613682]","[-1,-1,-1]","[0.06898571445435984,-0.13822401555126504]","[1,1,1]","[0.07435558591631149,-0.03203145952146172]","[1,1,1]","[0.19558161357706827,-0.008752972287170592]","[-1,-1,-1]","[-0.08556306411456971,-0.12076091861960614]","[1,1,1]","[0.030741598056461244,0.13763944744369103]","[-1,-1,-1]","[-0.12854771295830994,-0.03324462855146135]","[-1,-1,-1]","[-0.1660799823668856,0.043898688035001056]","[1,1,1]","[-0.13808629809051284,0.12213379557373412]","[1,1,1]","[-0.18337418884369672,-0.06392075072425418]","[1,1,1]","[0.008575458081627916,-0.06530539536249057]","[-1,-1,-1]","[0.11963611547269996,-0.007927248485637533]","[1,1,1]","[0.02556300349789976,-0.12316237627397736]","[1,1,1]","[-0.09642676908238519,0.038641437444177314]","[-1,-1,-1]","[0.03744828162131311,-0.19067776893795046]","[-1,-1,-1]","[0.16076788529226577,0.05260286131123859]","[1,1,1]","[-0.021066897945809054,-0.14780419205063328]","[-1,-1,-1]","[-0.06888318171541695,0.1349649359699211]","[1,1,1]","[-0.12845377060570712,0.06611681649731065]","[-1,-1,-1]","[-0.11469860676764217,0.16257265451408046]","[-1,-1,-1]","[-0.062249530674103014,0.007547219344220453]","[1,1,1]","[-0.18925077214391545,-0.005636805568196028]","[-1,-1,-1]","[-0.04991257508372053,0.17071323000361263]","[-1,-1,-1]","[-0.018940480846862322,0.014570213709027178]","[-1,-1,-1]","[-0.17596102094323096,0.08719449890527954]","[-1,-1,-1]","[-0.05850038713953589,-0.042804664025010125]","[-1,-1,-1]","[-0.01488798413689799,-0.0982087191347442]","[-1,-1,-1]","[0.02,0.02]",203.9447,0,28,28,51,1,,,,,,,
,,,,,,,664a70b48ff64eb6fa5d8b05,682f032d1e9589676c61ccea,2025-05-22_13h02.39.489,cuing_paradigm_dot,2024.1.5,Win32,238.0952381,682d556593cb38ad0a074487,,,,,,,,,,,203.9448,204.443,,,204.6922,205.3348,right,0.6333,,,,,,,,,0.5,,,,,,204.443,204.6922,205.3348,"[-0.020174883597744903,0.027419788247399338]","[-1,-1,-1]","[-0.059779481671636464,-0.056059113398302926]","[-1,-1,-1]","[0.16636473950869554,-0.006293685224234175]","[-1,-1,-1]","[-0.000060590770590098067,0.07336596498622248]","[1,1,1]","[-0.025491277337969017,-0.1276553225740556]","[-1,-1,-1]","[0.14041797224650393,0.12334896768638924]","[1,1,1]","[-0.14434977526450563,0.04993422852111275]","[-1,-1,-1]","[-0.11900398202344242,-0.14528820406236684]","[1,1,1]","[-0.13000586724550522,0.11274070770011824]","[1,1,1]","[0.028381053602852296,0.003209123432604736]","[1,1,1]","[-0.11329076028650015,-0.10355241506574368]","[1,1,1]","[-0.045453859238366645,0.11172390480432497]","[1,1,1]","[0.04487037131646491,0.1843962164095649]","[1,1,1]","[-0.08339867712378679,-0.177793975160374]","[-1,-1,-1]","[0.1128252977233449,0.011029316232659939]","[-1,-1,-1]","[0.10416017735270683,0.10182743656109684]","[-1,-1,-1]","[0.0728102132166412,0.056391563180348006]","[-1,-1,-1]","[-0.09652151632528548,0.053533355147356985]","[-1,-1,-1]","[0.03139572472596358,0.12858456123230363]","[1,1,1]","[0.08213665389681207,-0.12169735693179663]","[1,1,1]","[-0.12267977786776421,0.011942378420693296]","[-1,-1,-1]","[0.014506826825553456,-0.10823064611734724]","[-1,-1,-1]","[0.1763288717496286,0.0847859245343475]","[1,1,1]","[-0.10512991240861755,0.1528758201772473]","[1,1,1]","[0.10481844705114222,0.1418553070536648]","[-1,-1,-1]","[-0.16361170660641033,0.00047220088046423173]","[-1,-1,-1]","[-0.01998977403273526,-0.022006173209598735]","[1,1,1]","[0.0066416415218798035,-0.17017147183776074]","[-1,-1,-1]","[0.15978133612662684,-0.09806768617196343]","[-1,-1,-1]","[-0.021340029632612445,-0.07590592665405288]","[1,1,1]","[0.08006402009507119,-0.06983304681366533]","[1,1,1]","[0.1441415808299299,0.05178808864025924]","[1,1,1]","[0.02,0.02]",206.4326,0,29,29,94,1,,,,,,,
,,,,,,,664a70b48ff64eb6fa5d8b05,682f032d1e9589676c61ccea,2025-05-22_13h02.39.489,cuing_paradigm_dot,2024.1.5,Win32,238.0952381,682d556593cb38ad0a074487,,,,,,,,,,,206.4327,206.9299,,,207.1784,207.626,right,0.4431,,,,,,,,,0.4,,,,,,206.9299,207.1784,207.6261,"[0.12639350436455152,-0.06622365141654098]","[1,1,1]","[-0.16134325847673328,-0.04152698148105611]","[-1,-1,-1]","[-0.05674668455802112,-0.007013555898269271]","[1,1,1]","[0.15248295893276775,0.055719418185626375]","[1,1,1]","[-0.060858258566557556,-0.10140147465851722]","[1,1,1]","[-0.0745591753708138,-0.14506433676036132]","[1,1,1]","[0.044893690393914595,-0.06266812824708778]","[1,1,1]","[0.019961679642710055,0.1348878275091369]","[-1,-1,-1]","[0.09540040991616172,0.05887153876426806]","[1,1,1]","[0.056963453707704684,0.07190316408935588]","[-1,-1,-1]","[-0.10865344990180927,-0.12095509699664854]","[1,1,1]","[0.1508622629887169,0.004691966421324262]","[1,1,1]","[-0.014155455484314723,-0.14596199193578613]","[-1,-1,-1]","[-0.07835233601202889,0.07393266055995895]","[-1,-1,-1]","[0.058139276211819337,0.18597948490621885]","[-1,-1,-1]","[-0.1484200159424067,0.0868589889848184]","[-1,-1,-1]","[-0.004380521432006713,-0.08053895755332482]","[1,1,1]","[-0.031390471350371756,0.08599068583983088]","[-1,-1,-1]","[-0.01076659115175738,-0.006196134364659464]","[-1,-1,-1]","[-0.057840984524683135,0.039059698627223]","[-1,-1,-1]","[-0.1314034975879733,0.030773290504785344]","[-1,-1,-1]","[0.08340515453229348,-0.1278712944131826]","[-1,-1,-1]","[-0.0942114358043587,-0.063040759750823]","[1,1,1]","[-0.0908123835886811,0.15195670553180785]","[1,1,1]","[0.12714010751018542,-0.13585627000088588]","[1,1,1]","[0.07092220192657984,0.12043865305888675]","[-1,-1,-1]","[-0.02964019695949479,0.1529435329957555]","[-1,-1,-1]","[0.14661913409474886,0.10943637133004512]","[-1,-1,-1]","[0.05646846947999671,0.025826468035719665]","[-1,-1,-1]","[-0.060133053851393156,0.11460434893603534]","[-1,-1,-1]","[0.1093312506301962,0.15724314757695024]","[-1,-1,-1]","[0.05863702501959632,-0.18239063901872882]","[-1,-1,-1]","[0.02,0.02]",208.7265,0,30,30,35,1,,,,,,,
,,,,,,,664a70b48ff64eb6fa5d8b05,682f032d1e9589676c61ccea,2025-05-22_13h02.39.489,cuing_paradigm_dot,2024.1.5,Win32,238.0952381,682d556593cb38ad0a074487,,,,,,,,,,,208.7266,209.2241,,,209.4732,209.9123,left,0.4341,,,,,,,,,0.6,,,,,,209.2241,209.4732,209.9123,"[0.12438137304785292,-0.13217974531865442]","[1,1,1]","[-0.028158624445761015,-0.07147597887664328]","[1,1,1]","[-0.022191641421574225,-0.19323556567583905]","[-1,-1,-1]","[0.03700296893894303,0.09455716994345117]","[1,1,1]","[0.11276813225164503,-0.03602515528931161]","[1,1,1]","[0.054801813204258996,-0.01148549895149142]","[-1,-1,-1]","[-0.06296530234461468,-0.021453277042174524]","[1,1,1]","[0.07662433884441663,0.1506756434642019]","[-1,-1,-1]","[-0.1691760172940324,0.054530074068705574]","[-1,-1,-1]","[-0.06088830323776318,0.0936125754005107]","[1,1,1]","[-0.04124142552297354,0.1602656967893229]","[1,1,1]","[0.07392860652379833,0.04242937564029528]","[1,1,1]","[0.07408471706691978,-0.12660546823016192]","[-1,-1,-1]","[-0.04060644395008596,0.015225361696520933]","[1,1,1]","[-0.02397557614216922,0.07393669902053898]","[-1,-1,-1]","[0.12229758769392743,0.06473951650255766]","[-1,-1,-1]","[0.08046066301157032,-0.08693005212059401]","[1,1,1]","[0.03429326194264628,0.04870907960686035]","[1,1,1]","[-0.0021908435001535055,0.10873973856328581]","[1,1,1]","[-0.14222050794826785,0.017722012919369583]","[-1,-1,-1]","[0.12611463631479808,0.15340576499500014]","[1,1,1]","[-0.12046998729743287,0.11566006308574489]","[-1,-1,-1]","[-0.0008954205583475476,-0.1420848800010693]","[1,1,1]","[-0.14553223609894628,-0.09796807682282038]","[-1,-1,-1]","[0.18201522799675643,-0.05105338993310629]","[1,1,1]","[-0.10418806319063158,0.04015300033714055]","[-1,-1,-1]","[0.13477960290437882,-0.0013733132178316563]","[-1,-1,-1]","[-0.18784097510907508,0.017573736789940512]","[1,1,1]","[0.03932717373837781,-0.07777937401077566]","[1,1,1]","[-0.07941916486725709,-0.1663811662087539]","[1,1,1]","[0.020967308254665664,0.1894058883842687]","[-1,-1,-1]","[-0.13315732837841884,-0.04807178564525796]","[1,1,1]","[0.02,0.02]",211.0095,0,31,31,157,1,,,,,,,
,,,,,,,664a70b48ff64eb6fa5d8b05,682f032d1e9589676c61ccea,2025-05-22_13h02.39.489,cuing_paradigm_dot,2024.1.5,Win32,238.0952381,682d556593cb38ad0a074487,,,,,,,,,,,211.0096,211.5084,,,211.7595,212.336,right,0.5751,,,,,,,,,0.5,,,,,,211.5084,211.7595,212.336,"[-0.09449916011576637,-0.11485111842755086]","[1,1,1]","[0.16501976808072827,-0.09578441182317059]","[1,1,1]","[0.1666273587127006,0.02808164732585984]","[1,1,1]","[0.14772914776264373,-0.051822970429823]","[-1,-1,-1]","[-0.0016680248440722923,0.14938167260375207]","[1,1,1]","[-0.08616297767346837,0.0022885569875582706]","[-1,-1,-1]","[0.14706515865635378,0.10693442816978353]","[1,1,1]","[-0.019250381063296792,-0.10427003182595902]","[1,1,1]","[0.0954729907451575,-0.16667305405833932]","[-1,-1,-1]","[-0.1564947153404447,-0.014754116441201934]","[-1,-1,-1]","[0.036785435832687896,-0.09518862497005383]","[-1,-1,-1]","[-0.061025293953808527,-0.0543891883078819]","[-1,-1,-1]","[0.027759465099243805,0.04909947750765217]","[1,1,1]","[0.1157677737511182,0.1543476348683395]","[1,1,1]","[-0.013966787557685722,0.014326275179118103]","[-1,-1,-1]","[0.04916688528129465,0.18051910210711125]","[1,1,1]","[-0.05442121705761755,0.14506334617972702]","[-1,-1,-1]","[0.10911897632551394,0.045994104765576235]","[-1,-1,-1]","[-0.14531559381330345,-0.0737332371055858]","[1,1,1]","[0.07861113198862837,-0.02526627210456125]","[-1,-1,-1]","[-0.1357602874375951,-0.11931013134663383]","[-1,-1,-1]","[-0.09461277703385237,0.1309906174463192]","[-1,-1,-1]","[-0.05254302083391464,-0.12780605320169644]","[1,1,1]","[-0.18563501585149228,0.02191023099541006]","[1,1,1]","[0.09612260111667562,-0.11346879482448169]","[1,1,1]","[0.030653177782707156,-0.19044496941697414]","[-1,-1,-1]","[0.07894572173566547,0.13831824875637216]","[1,1,1]","[-0.06900702994656802,0.05591610072090351]","[-1,-1,-1]","[-0.04895445647323113,-0.18800037241580872]","[-1,-1,-1]","[-0.14427195522469446,0.052903415679631575]","[-1,-1,-1]","[-0.1372582049103353,0.10987273410539534]","[1,1,1]","[0.18730951437828064,-0.010643635685708794]","[1,1,1]","[0.02,0.02]",213.4332,0,32,32,115,1,,,,,,,
,,,,,,,664a70b48ff64eb6fa5d8b05,682f032d1e9589676c61ccea,2025-05-22_13h02.39.489,cuing_paradigm_dot,2024.1.5,Win32,238.0952381,682d556593cb38ad0a074487,,,,,,,,,,,213.4335,213.9348,,,214.1849,214.6659,left,0.477,,,,,,,,,0.9,,,,,,213.9348,214.1849,214.666,"[0.05240367355158795,0.13152826577398785]","[1,1,1]","[-0.06127638932273192,-0.08656030411362149]","[1,1,1]","[-0.14089553540958016,0.06318564261153667]","[1,1,1]","[-0.13449423195863014,-0.03487234437813798]","[1,1,1]","[0.053751382675451376,-0.10805793542017914]","[1,1,1]","[-0.10611276529060971,0.039645533603538216]","[1,1,1]","[0.09145533959834728,-0.051428921913571235]","[1,1,1]","[0.09871474703042521,-0.12179124564880578]","[1,1,1]","[0.0644997267520269,0.008988115220224208]","[1,1,1]","[0.02528343668291249,0.0733987007642914]","[1,1,1]","[0.0489169981920658,-0.03597763037034936]","[1,1,1]","[0.011762354872153505,-0.051556933028624706]","[1,1,1]","[-0.06349744512656705,0.017073636501532027]","[1,1,1]","[-0.04621746438605119,0.08783826809803513]","[1,1,1]","[-0.027167681972802817,-0.019047175540212662]","[1,1,1]","[0.17517300596385282,0.049243347795985264]","[1,1,1]","[0.15322628781445027,-0.0685465580821359]","[1,1,1]","[-0.12755185083395856,-0.11049986566193952]","[1,1,1]","[0.13764287711153653,0.0005053244114996395]","[1,1,1]","[0.14325126506312352,0.11287534931965067]","[1,1,1]","[0.10496279797086355,0.1594650487620445]","[1,1,1]","[-0.19657355086640033,0.015001830789813271]","[1,1,1]","[-0.07752801738899451,0.1470615896978107]","[1,1,1]","[0.012756999568300339,0.1703971124036709]","[1,1,1]","[0.10863120849626104,0.059395353739443775]","[1,1,1]","[-0.03516171779031415,0.12641161488892844]","[-1,-1,-1]","[-0.012014293220444292,-0.18191774192990584]","[-1,-1,-1]","[-0.03832187276673183,-0.15164883059740897]","[1,1,1]","[-0.052842195779799934,0.1815572634779918]","[1,1,1]","[-0.12133115814169165,0.14058621273235353]","[1,1,1]","[0.14363067747685304,-0.10855336840527917]","[-1,-1,-1]","[-0.005373109352374223,0.020988634090810924]","[1,1,1]","[0.02,0.02]",215.7675,0,33,33,198,1,,,,,,,
,,,,,,,664a70b48ff64eb6fa5d8b05,682f032d1e9589676c61ccea,2025-05-22_13h02.39.489,cuing_paradigm_dot,2024.1.5,Win32,238.0952381,682d556593cb38ad0a074487,,,,,,,,,,,215.7677,216.2667,,,216.5169,217.1928,right,0.6713,,,,,,,,,0.55,,,,,,216.2668,216.5168,217.1928,"[0.1269898701893323,0.02170365775608965]","[1,1,1]","[0.15907440156737593,-0.1210096231042008]","[1,1,1]","[0.10770991834165078,0.09029620570767127]","[1,1,1]","[0.11157427065391579,-0.0874340232443462]","[-1,-1,-1]","[-0.043220706392320174,-0.0322006963732404]","[1,1,1]","[0.014528264653886942,-0.026007762246236115]","[-1,-1,-1]","[0.19901449257574663,0.015362923543275953]","[-1,-1,-1]","[-0.11794102130276765,0.07989840049588058]","[-1,-1,-1]","[-0.17926709757522738,-0.010644152658421318]","[-1,-1,-1]","[0.08277434622519181,0.12608836517728098]","[1,1,1]","[-0.014325708015414568,0.029539744768149273]","[-1,-1,-1]","[0.1538334365129616,0.06548397761148175]","[-1,-1,-1]","[-0.12900848285766087,-0.01481290332026395]","[1,1,1]","[-0.16724206294975516,-0.07203283553479106]","[-1,-1,-1]","[0.08621227271141146,-0.027525855142069004]","[-1,-1,-1]","[-0.051767679821250835,0.12448692830023636]","[-1,-1,-1]","[0.01639142763486864,0.14031662609405035]","[1,1,1]","[0.008198749202822531,0.07086310039312799]","[1,1,1]","[0.014644610590785426,0.19918096065598137]","[1,1,1]","[-0.12388723719319611,-0.1486853769315589]","[1,1,1]","[-0.04985181044587296,0.07118612775286173]","[1,1,1]","[0.031544306204221266,-0.16980633093440783]","[-1,-1,-1]","[0.15369446204153783,-0.01197204998428094]","[1,1,1]","[-0.16769231962167908,0.10638752029374982]","[1,1,1]","[-0.08639060352560264,0.01911221863857295]","[1,1,1]","[-0.18341949443417224,0.042999467219870885]","[-1,-1,-1]","[-0.0728881797142669,-0.16700540145668444]","[1,1,1]","[-0.010813100161784108,-0.1356875640775795]","[-1,-1,-1]","[0.04796358798364817,-0.09709770241875437]","[1,1,1]","[-0.040527006842783944,0.1794116779390132]","[-1,-1,-1]","[0.08438813067162315,-0.11703107389189178]","[1,1,1]","[-0.1359612182935238,0.02781412290277467]","[1,1,1]","[0.02,0.02]",218.2934,0,34,34,132,1,,,,,,,
,,,,,,,664a70b48ff64eb6fa5d8b05,682f032d1e9589676c61ccea,2025-05-22_13h02.39.489,cuing_paradigm_dot,2024.1.5,Win32,238.0952381,682d556593cb38ad0a074487,,,,,,,,,,,218.2936,218.7943,,,219.0454,219.6101,right,0.5543,,,,,,,,,0.5,,,,,,218.7943,219.0453,219.6101,"[0.014195918841631372,0.12279439951158364]","[-1,-1,-1]","[0.028149927208169553,0.012781068923827922]","[-1,-1,-1]","[-0.0001217408216717445,-0.14671237969927167]","[-1,-1,-1]","[0.1714916066476129,-0.07830855147621775]","[-1,-1,-1]","[-0.17939844061223423,-0.06250224149904728]","[1,1,1]","[0.08274334387947448,0.029595114765445806]","[1,1,1]","[0.08187818517571017,-0.14176033472120264]","[-1,-1,-1]","[-0.05595725780495909,-0.024677566326459753]","[1,1,1]","[-0.028627332753378552,-0.08505080185368938]","[1,1,1]","[0.05345299050549646,0.171425856488655]","[-1,-1,-1]","[-0.09693125308432705,-0.10520046759458714]","[-1,-1,-1]","[-0.16597003113575917,0.026857683556595825]","[-1,-1,-1]","[0.052498736335286386,0.07570590300295413]","[-1,-1,-1]","[0.096105803763527,0.15018246830508242]","[1,1,1]","[-0.11098898331329914,0.03241235862904784]","[1,1,1]","[0.12010883752237185,-0.0025347683518500207]","[1,1,1]","[0.13271084785832193,-0.043594208308490125]","[1,1,1]","[-0.07095226033868442,0.14247692453283406]","[1,1,1]","[0.024939268240737247,-0.061538139765176456]","[-1,-1,-1]","[0.14587130467121354,0.11641815899329284]","[-1,-1,-1]","[-0.07763434592801441,-0.06712848532174982]","[-1,-1,-1]","[0.09454657643324127,-0.0706526549854621]","[1,1,1]","[-0.042262850708064334,-0.14064427964103407]","[1,1,1]","[-0.10878499359777698,0.10022539467967209]","[-1,-1,-1]","[0.10900040281948999,0.09226979430378972]","[1,1,1]","[-0.029944600728528014,0.14481868248850038]","[1,1,1]","[-0.1014763225108889,0.1722742707595034]","[1,1,1]","[0.16326126680087072,0.02529160064837324]","[-1,-1,-1]","[-0.047996215596513764,0.019016895586875054]","[-1,-1,-1]","[-0.011423234371442867,0.08304889336042764]","[-1,-1,-1]","[-0.18326478784566475,0.07523830037126149]","[1,1,1]","[-0.14029427360866129,-0.08946914431434311]","[1,1,1]","[0.02,0.02]",220.709,0,35,35,117,1,,,,,,,
,,,,,,,664a70b48ff64eb6fa5d8b05,682f032d1e9589676c61ccea,2025-05-22_13h02.39.489,cuing_paradigm_dot,2024.1.5,Win32,238.0952381,682d556593cb38ad0a074487,,,,,,,,,,,220.7092,221.209,,,221.459,222.5078,right,1.0459,,,,,,,,,0.55,,,,,,221.209,221.459,222.5079,"[-0.060911687183508985,0.09339102472357047]","[-1,-1,-1]","[0.04350000650996236,0.006998151687123819]","[1,1,1]","[0.11416394886212519,-0.14562885288299054]","[1,1,1]","[-0.17802810849712136,-0.08824134891626975]","[1,1,1]","[0.04546140685361951,0.05461925566139029]","[1,1,1]","[-0.11424231915795224,-0.11897784247584649]","[-1,-1,-1]","[-0.07291350830438022,-0.18271089444170108]","[-1,-1,-1]","[0.12898030588121853,-0.04055034281186531]","[1,1,1]","[-0.12846114986903842,-0.02264709541304362]","[1,1,1]","[0.016001781728151823,0.10395093380849943]","[1,1,1]","[0.06782487823562107,-0.10460131589752189]","[1,1,1]","[-0.07589615508845256,-0.056413885608463]","[-1,-1,-1]","[0.07012617563113903,-0.029840270830459262]","[1,1,1]","[-0.1822958199306861,0.08075447866572635]","[1,1,1]","[-0.04496074860116449,-0.10143937181717472]","[-1,-1,-1]","[0.003408550061342609,0.004046179315083143]","[-1,-1,-1]","[0.02182569355801468,0.1882278639518566]","[1,1,1]","[0.1670943067758006,-0.008753084978498554]","[-1,-1,-1]","[-0.006545786896059609,-0.17986014351944607]","[-1,-1,-1]","[-0.14019737361565854,-0.06183516785702429]","[1,1,1]","[0.09275696585536379,0.1678684778675622]","[-1,-1,-1]","[0.004517152221292581,-0.12065175970735868]","[1,1,1]","[0.12844423219052092,-0.08318545097650186]","[1,1,1]","[0.12894370280421513,0.08372722634442581]","[1,1,1]","[-0.06653754424371076,0.15437362507895122]","[1,1,1]","[0.10834575072108485,0.007114618531740718]","[-1,-1,-1]","[0.15171251045972264,0.11756141650617508]","[-1,-1,-1]","[-0.15170541205199645,0.12352659278423941]","[-1,-1,-1]","[0.033552936089335204,-0.07865256051781763]","[-1,-1,-1]","[0.178001566014907,0.050064252032797865]","[-1,-1,-1]","[-0.08193624302809897,0.00501396888131367]","[1,1,1]","[0.05018139825230289,-0.14578150617538832]","[1,1,1]","[0.02,0.02]",223.6087,0,36,36,138,1,,,,,,,
,,,,,,,664a70b48ff64eb6fa5d8b05,682f032d1e9589676c61ccea,2025-05-22_13h02.39.489,cuing_paradigm_dot,2024.1.5,Win32,238.0952381,682d556593cb38ad0a074487,,,,,,,,,,,223.6088,224.1067,,,224.3567,224.744,left,0.379,,,,,,,,,0.9,,,,,,224.1067,224.3567,224.744,"[0.1478055525227293,0.06307556114073884]","[1,1,1]","[0.0020761140987576748,-0.13718230004550183]","[1,1,1]","[0.15668628942612498,-0.10506103315774516]","[1,1,1]","[-0.04346816637964882,-0.11429564531184674]","[1,1,1]","[0.13706017471453433,0.015141992072713342]","[1,1,1]","[-0.08704633262203079,0.14501859899869887]","[-1,-1,-1]","[0.05765094728827398,0.05223348308996754]","[1,1,1]","[-0.09191922347917707,-0.0831232968071101]","[1,1,1]","[-0.14969663305769013,0.0283507981790902]","[1,1,1]","[-0.1417124333682268,-0.09813651202351872]","[1,1,1]","[0.0005441618481282264,0.14860408986818335]","[1,1,1]","[-0.11017642905362075,-0.015491864252536257]","[1,1,1]","[-0.051900346171389646,0.09211294421507799]","[1,1,1]","[0.020811763455017337,0.105742666253646]","[1,1,1]","[-0.10256439359050541,-0.16862098207215956]","[1,1,1]","[0.019824817828599045,0.029648204848274008]","[1,1,1]","[0.09835431332114337,-0.06545207972092985]","[1,1,1]","[-0.049982726604610665,-0.1771776701834517]","[1,1,1]","[0.08209530545313236,0.0025036017306225853]","[1,1,1]","[-0.11250768300144944,-0.12702854261177035]","[-1,-1,-1]","[0.148910398523912,0.12582161871536926]","[1,1,1]","[0.05184477779596616,-0.07920933080209973]","[1,1,1]","[0.05323838961560505,0.18594569179837725]","[1,1,1]","[0.10422634128948234,0.10402760026061342]","[-1,-1,-1]","[0.07664748738945051,-0.1770018172443372]","[1,1,1]","[0.04138355878081387,-0.12705768617665664]","[1,1,1]","[0.13928697299027235,-0.03467022884430387]","[1,1,1]","[-0.011343845654810149,-0.012389768519372476]","[1,1,1]","[-0.004049466367008433,-0.0715783192928574]","[1,1,1]","[0.05446475609456408,0.13217276717879473]","[1,1,1]","[-0.11235466634104753,0.0528636419640276]","[1,1,1]","[0.08257549926846633,-0.10614230479522202]","[1,1,1]","[0.02,0.02]",225.8437,0,37,37,202,1,,,,,,,
,,,,,,,664a70b48ff64eb6fa5d8b05,682f032d1e9589676c61ccea,2025-05-22_13h02.39.489,cuing_paradigm_dot,2024.1.5,Win32,238.0952381,682d556593cb38ad0a074487,,,,,,,,,,,225.8438,226.342,,,226.593,227.1278,left,0.534,,,,,,,,,0.55,,,,,,226.3421,226.593,227.1278,"[0.019153319354032024,-0.17328839594410259]","[-1,-1,-1]","[0.11258690046448006,0.1219624064364421]","[-1,-1,-1]","[0.059424016544975505,-0.08118323358833612]","[1,1,1]","[-0.17907538863061068,-0.05802357417047711]","[-1,-1,-1]","[-0.1874201202859366,-0.009815356345068476]","[1,1,1]","[-0.07535856296515193,0.14879222750243315]","[-1,-1,-1]","[-0.06703851266812727,-0.12106819455094811]","[1,1,1]","[0.06895792296779622,0.06852947684251756]","[1,1,1]","[-0.14060748672316742,0.0979919889341165]","[1,1,1]","[-0.14552160329359373,-0.016829721928518254]","[1,1,1]","[0.12275328843446653,0.07595777999501196]","[1,1,1]","[-0.11622430667622749,-0.1566302082824602]","[-1,-1,-1]","[-0.0855480286708113,0.0030293358437644105]","[1,1,1]","[0.1470940591517124,-0.11027335757565924]","[-1,-1,-1]","[-0.16548093595394844,-0.10717964259643367]","[1,1,1]","[-0.01701910416330538,0.13645613555323816]","[1,1,1]","[0.036179678993194304,-0.03441411814806546]","[-1,-1,-1]","[-0.034841704701451516,0.05104339558863781]","[1,1,1]","[-0.042231660614132235,-0.1657251206919613]","[1,1,1]","[0.10884311341093719,-0.0380028035063141]","[-1,-1,-1]","[0.16341579887974017,-0.009502220076537466]","[-1,-1,-1]","[0.01261034696525582,0.09417291711004629]","[1,1,1]","[0.19256562349662656,-0.04953062742171207]","[1,1,1]","[0.15054954390395903,0.041790840062837356]","[1,1,1]","[-0.006496436451676541,0.18585788570157372]","[1,1,1]","[0.07291147874585835,0.18049530262661415]","[-1,-1,-1]","[0.04534925289124803,-0.1292234938519001]","[-1,-1,-1]","[-0.016135755612147095,-0.05540485574434793]","[1,1,1]","[0.10043994843464625,-0.11475375805137589]","[-1,-1,-1]","[-0.10970789663231079,-0.09314658554300896]","[1,1,1]","[0.02947150102204035,0.037607537171709005]","[-1,-1,-1]","[0.05989256477269856,0.1273991249260518]","[-1,-1,-1]","[0.02,0.02]",228.2274,0,38,38,130,1,,,,,,,
,,,,,,,664a70b48ff64eb6fa5d8b05,682f032d1e9589676c61ccea,2025-05-22_13h02.39.489,cuing_paradigm_dot,2024.1.5,Win32,238.0952381,682d556593cb38ad0a074487,,,,,,,,,,,228.2275,228.7266,,,228.9752,229.5684,left,0.5875,,,,,,,,,0.6,,,,,,228.7266,228.9752,229.5684,"[0.06490945767094497,-0.05639606345223878]","[1,1,1]","[-0.016167074357695023,0.05969623895265944]","[-1,-1,-1]","[0.12154554823353615,-0.07362052393894279]","[-1,-1,-1]","[-0.09316599545446572,0.043429406435337]","[-1,-1,-1]","[-0.16743720172109228,0.07298927458480846]","[-1,-1,-1]","[-0.08765938296260431,-0.11119058288971015]","[1,1,1]","[0.119855443929575,0.09494325184798845]","[1,1,1]","[-0.09622171441986893,0.13587780668475705]","[1,1,1]","[0.1450887647989103,-0.11496689421223387]","[-1,-1,-1]","[-0.15272701959353135,-0.07442565075765581]","[1,1,1]","[-0.04109521625537249,0.10554149474961473]","[-1,-1,-1]","[0.03045525877392218,-0.18074958600792368]","[-1,-1,-1]","[0.11811698865511373,-0.0019529711533329418]","[1,1,1]","[0.03421987924601658,0.022026317567885142]","[1,1,1]","[-0.004540096613664774,-0.07096137802569573]","[-1,-1,-1]","[0.07243068029245088,-0.18392493371689192]","[1,1,1]","[0.05032925960320224,0.13431265346528376]","[-1,-1,-1]","[-0.01257612347499061,-0.11589818753823893]","[-1,-1,-1]","[0.09051692405895231,0.15536149893996432]","[1,1,1]","[-0.014430539972487402,-0.02411067105842087]","[1,1,1]","[-0.04360867194946577,-0.1457802694294765]","[1,1,1]","[0.16932274641011952,-0.06500113488424081]","[-1,-1,-1]","[0.08731193138029457,0.05067987918863299]","[1,1,1]","[-0.06622469874047941,-0.009301408766229669]","[1,1,1]","[-0.1776671596286926,-0.0302347354680811]","[-1,-1,-1]","[0.02182389828296205,0.0862750888213089]","[1,1,1]","[0.15956385186355362,0.04656258346546377]","[1,1,1]","[0.0712517452309933,-0.11173523231842902]","[1,1,1]","[-0.11286159941220993,-0.014309676645679836]","[1,1,1]","[-0.044619520091316256,0.17462366746134464]","[-1,-1,-1]","[0.027577201837735626,-0.029089164703993444]","[1,1,1]","[-0.19551536517392198,0.037063473360327774]","[1,1,1]","[0.02,0.02]",230.6669,0,39,39,169,1,,,,,,,
,,,,,,,664a70b48ff64eb6fa5d8b05,682f032d1e9589676c61ccea,2025-05-22_13h02.39.489,cuing_paradigm_dot,2024.1.5,Win32,238.0952381,682d556593cb38ad0a074487,,,,,,,,,,,230.667,231.1668,,,231.4169,231.7975,right,0.375,,,,,,,,,0.4,,,,,,231.1668,231.4169,231.7975,"[-0.12479333573880899,-0.010372173143948022]","[1,1,1]","[0.1270712298164541,-0.0017588037639174395]","[-1,-1,-1]","[0.021736991225344126,-0.17442231342513917]","[-1,-1,-1]","[0.06308252756330408,0.13638312928562496]","[1,1,1]","[-0.07299290453730788,0.06507228264640051]","[-1,-1,-1]","[0.11476751805604347,-0.11493663042204597]","[1,1,1]","[0.07487557736927974,-0.1708686276104635]","[1,1,1]","[0.046035463838055186,0.08200701274399896]","[-1,-1,-1]","[-0.1101463751426054,-0.15163195369525148]","[-1,-1,-1]","[-0.11312207380414895,0.0871454665373596]","[-1,-1,-1]","[0.022269870081053633,-0.03364220821385689]","[-1,-1,-1]","[-0.08821328399715991,0.13710287683248532]","[1,1,1]","[0.06647540170572705,-0.03263682955679461]","[1,1,1]","[-0.05990155778882121,-0.018290665021236538]","[1,1,1]","[0.09599780376052337,0.05158519804283357]","[1,1,1]","[0.061035911656214324,-0.07431060083701531]","[-1,-1,-1]","[0.03624303083394432,0.021022936858499063]","[1,1,1]","[-0.013638389093231172,-0.09834483833746831]","[1,1,1]","[-0.028751021792826348,0.1864196899525708]","[-1,-1,-1]","[-0.049706542896358806,-0.14905584929372856]","[1,1,1]","[-0.14995832501761885,0.12754484895719384]","[-1,-1,-1]","[0.18702194862511795,-0.02538771717548463]","[-1,-1,-1]","[-0.16453113361760136,0.01713856510044413]","[-1,-1,-1]","[0.030852047597645888,0.16835585053145033]","[-1,-1,-1]","[0.17085609016746867,0.028930622977109056]","[1,1,1]","[-0.1512341423033848,-0.08510441273478837]","[-1,-1,-1]","[0.041018129768981886,-0.10963685509001582]","[-1,-1,-1]","[-0.020791829879051732,-0.009669047361504457]","[1,1,1]","[-0.03617865054194942,0.12816095238233433]","[-1,-1,-1]","[0.11847473387114668,-0.07047914455297831]","[-1,-1,-1]","[0.16798686644307345,-0.10297378150495544]","[-1,-1,-1]","[-0.10593320523227373,0.030850115568733957]","[-1,-1,-1]","[0.02,0.02]",232.8981,0,40,40,53,1,,,,,,,
,,,,,,,664a70b48ff64eb6fa5d8b05,682f032d1e9589676c61ccea,2025-05-22_13h02.39.489,cuing_paradigm_dot,2024.1.5,Win32,238.0952381,682d556593cb38ad0a074487,,,,,,,,,,,232.8982,233.399,,,233.6499,234.0088,right,0.3547,,,,,,,,,0.4,,,,,,233.399,233.6499,234.0088,"[-0.0866632233760862,0.14903748367379988]","[-1,-1,-1]","[0.09198716023234019,0.1392282131749561]","[1,1,1]","[-0.05003504894691635,-0.02951208985666122]","[-1,-1,-1]","[0.006203012343414057,0.16684688072158685]","[1,1,1]","[-0.05602224856258868,0.1193760544343433]","[-1,-1,-1]","[0.16828733031356188,0.05036806692421884]","[-1,-1,-1]","[0.009690490407692475,0.03184880845525294]","[-1,-1,-1]","[-0.19174243398611945,0.010254785403999647]","[-1,-1,-1]","[-0.00788383129789846,0.117249149644252]","[1,1,1]","[0.0355090169998436,-0.0951832501655641]","[1,1,1]","[-0.1525090249514112,0.051681789644812154]","[1,1,1]","[0.035782899492763066,-0.053478149923949704]","[1,1,1]","[0.13853010594035808,-0.07008029888751151]","[-1,-1,-1]","[0.12707851182720284,0.11313125084386921]","[1,1,1]","[-0.026656486784706356,-0.16184389830158688]","[-1,-1,-1]","[0.1058956275262849,-0.10005638587547666]","[-1,-1,-1]","[0.05411214736167631,0.17226925493725298]","[-1,-1,-1]","[-0.0638959648538817,-0.13992556769277478]","[-1,-1,-1]","[0.05104607162943313,0.06150549059377173]","[1,1,1]","[0.15766151157521302,-0.014141534040834302]","[1,1,1]","[-0.12206554560018057,0.12099929227460011]","[-1,-1,-1]","[0.012643614179960459,-0.1286308658361967]","[-1,-1,-1]","[-0.10082872538448165,0.023170232788086376]","[-1,-1,-1]","[0.055318757057971145,0.11604388941064588]","[-1,-1,-1]","[-0.027674643168910443,0.05350803148075236]","[-1,-1,-1]","[-0.08935972749466323,0.06290696931290861]","[-1,-1,-1]","[-0.07073101654166258,-0.08196049605162727]","[1,1,1]","[-0.10911946300855303,-0.12583709150752925]","[1,1,1]","[-0.17152497109181464,-0.07026122844758322]","[-1,-1,-1]","[-0.04835508834494942,0.1915649570555637]","[1,1,1]","[-0.1279063087866565,-0.05817954356221096]","[-1,-1,-1]","[0.091379549700069,0.005421177836614074]","[1,1,1]","[0.02,0.02]",235.1076,0,41,41,46,1,,,,,,,
,,,,,,,664a70b48ff64eb6fa5d8b05,682f032d1e9589676c61ccea,2025-05-22_13h02.39.489,cuing_paradigm_dot,2024.1.5,Win32,238.0952381,682d556593cb38ad0a074487,,,,,,,,,,,235.1078,235.6084,,,235.8578,236.3967,right,0.5284,,,,,,,,,0.45,,,,,,235.6084,235.8577,236.3967,"[-0.12032953281677748,0.07738207370952749]","[1,1,1]","[-0.13330541873069254,0.0250309120715532]","[1,1,1]","[-0.15518951920094676,-0.09933944089969686]","[1,1,1]","[-0.07783403283220472,0.11579263970780977]","[-1,-1,-1]","[0.1061710328038015,-0.15255212548557182]","[1,1,1]","[-0.12400364919624815,-0.14766476232553927]","[-1,-1,-1]","[0.16823795451098694,-0.09055487916694858]","[1,1,1]","[-0.1709436210717921,-0.057126386193684556]","[1,1,1]","[-0.034279966894906526,0.06908845576321637]","[-1,-1,-1]","[-0.02542751908881174,0.17983216756533793]","[-1,-1,-1]","[-0.11220465840691697,0.15864822795983582]","[-1,-1,-1]","[0.011995419187669217,-0.08720070635914536]","[1,1,1]","[-0.07742379463760252,-0.06207949419897896]","[1,1,1]","[-0.022378911053651494,-0.14721749334950643]","[-1,-1,-1]","[-0.16423498900062994,-0.014647205137921516]","[1,1,1]","[0.0022651525491416157,-0.04756546659232632]","[-1,-1,-1]","[-0.0037778328605806723,0.1259054059696216]","[-1,-1,-1]","[0.1769647870134024,-0.010386592888436004]","[-1,-1,-1]","[0.10583644288161476,-0.07996349070743318]","[-1,-1,-1]","[-0.050579757507041266,-0.10825290943822236]","[-1,-1,-1]","[0.08219320579237413,-0.007034797410511953]","[1,1,1]","[0.04972989687349018,0.023038846730663566]","[-1,-1,-1]","[-0.07452519806866079,0.060503210072642845]","[-1,-1,-1]","[0.010079149335806791,0.003227504995561415]","[-1,-1,-1]","[-0.06132583457735057,-0.022703919429134682]","[-1,-1,-1]","[0.17691090232603587,0.0884279314158126]","[-1,-1,-1]","[0.09164997826873285,0.10201626966748628]","[1,1,1]","[-0.03777456152979751,0.025166074833085358]","[1,1,1]","[0.1372538599562513,0.02424489128319439]","[-1,-1,-1]","[0.09287838943813492,0.040163561069368935]","[1,1,1]","[0.17911198189282806,0.04668284076662056]","[-1,-1,-1]","[-0.16245098934342922,0.09837389029634673]","[1,1,1]","[0.02,0.02]",237.4939,0,42,42,69,1,,,,,,,
,,,,,,,664a70b48ff64eb6fa5d8b05,682f032d1e9589676c61ccea,2025-05-22_13h02.39.489,cuing_paradigm_dot,2024.1.5,Win32,238.0952381,682d556593cb38ad0a074487,,,,,,,,,,,237.494,237.9939,,,238.2415,238.7196,right,0.4717,,,,,,,,,0.45,,,,,,237.994,238.2415,238.7196,"[-0.02382503222176916,0.04628931820707636]","[1,1,1]","[0.018676565915212957,-0.1871862329963903]","[-1,-1,-1]","[-0.12013408409661937,-0.1534532494574619]","[1,1,1]","[0.05014756530046004,-0.13227852819241936]","[-1,-1,-1]","[0.08668653708654352,0.12349395076467731]","[1,1,1]","[-0.02375909296745031,0.15109082098390192]","[1,1,1]","[-0.06470397521253368,-0.12186030928523715]","[-1,-1,-1]","[-0.05734857442086024,-0.1622518794623898]","[1,1,1]","[-0.08905534750312276,-0.0650981072207295]","[1,1,1]","[-0.14404795070090207,0.08139771421543807]","[-1,-1,-1]","[-0.039173455193637456,-0.01475061012754022]","[1,1,1]","[0.13595514503726164,0.07321076777087525]","[1,1,1]","[0.044663257944133866,0.06739945372363451]","[-1,-1,-1]","[-0.18625818661312907,0.032140576476498955]","[1,1,1]","[0.015103143144412603,0.0945141127237079]","[-1,-1,-1]","[0.03699464595667957,0.171895207603462]","[1,1,1]","[-0.13723675151513745,-0.0684555196090489]","[-1,-1,-1]","[0.06591222854053612,-0.01621466005550836]","[-1,-1,-1]","[0.12846858820667964,-0.14759394378943894]","[-1,-1,-1]","[0.17040341226908218,-0.029784964952111862]","[1,1,1]","[-0.10438849354775022,0.10452143321685564]","[-1,-1,-1]","[0.11102532364948056,-0.09460873624607115]","[1,1,1]","[-0.0960600222025788,0.1638837348769807]","[1,1,1]","[0.013572279572333664,-0.10179172354576585]","[-1,-1,-1]","[0.1268966870315091,-0.027525234244515695]","[-1,-1,-1]","[-0.03992919699711153,0.1104381667790651]","[-1,-1,-1]","[0.18708115682947546,0.0600973021405799]","[-1,-1,-1]","[-0.01482670664646394,-0.14809831291668651]","[-1,-1,-1]","[-0.16578528958936942,-0.0070458598861614305]","[-1,-1,-1]","[0.08676923257124895,-0.178404244567692]","[-1,-1,-1]","[0.10322293573731388,0.04192241201981949]","[-1,-1,-1]","[-0.060150090395390425,0.020877012808074417]","[1,1,1]","[0.02,0.02]",239.8175,0,43,43,77,1,,,,,,,
,,,,,,,664a70b48ff64eb6fa5d8b05,682f032d1e9589676c61ccea,2025-05-22_13h02.39.489,cuing_paradigm_dot,2024.1.5,Win32,238.0952381,682d556593cb38ad0a074487,,,,,,,,,,,239.8176,240.3161,,,240.5664,240.8611,right,0.2902,,,,,,,,,0.1,,,,,,240.3161,240.5664,240.8611,"[0.06406271329637259,0.03442098348182824]","[-1,-1,-1]","[0.09673360386389046,0.11137460490910774]","[-1,-1,-1]","[-0.009909950511936452,0.012545337754007775]","[-1,-1,-1]","[-0.10383684504548531,0.0330718802874605]","[-1,-1,-1]","[-0.0025920422385977485,-0.16722619207650974]","[-1,-1,-1]","[-0.14744614227742267,0.06945641362855642]","[-1,-1,-1]","[-0.08505967132320633,-0.00954748398692872]","[-1,-1,-1]","[-0.01883490582684747,0.17777395844421276]","[-1,-1,-1]","[0.17617663640542588,0.051317830643108145]","[-1,-1,-1]","[-0.12980292644121633,0.12391028672857857]","[-1,-1,-1]","[0.1548864310655047,-0.12238189271823088]","[-1,-1,-1]","[-0.09178076212983644,-0.07205584914813898]","[-1,-1,-1]","[-0.11464084681303531,-0.12208715705150744]","[-1,-1,-1]","[-0.019703356535744305,-0.07020747778054412]","[-1,-1,-1]","[0.13990837662952788,-0.02810251147431122]","[1,1,1]","[0.1155710084648368,0.05072149043539944]","[-1,-1,-1]","[-0.02932461512318282,0.10000408064312813]","[-1,-1,-1]","[0.10562974542202574,-0.13039463426804054]","[-1,-1,-1]","[0.03614201080791857,-0.1501836057653225]","[-1,-1,-1]","[0.154229140824438,0.09194200317060697]","[-1,-1,-1]","[0.0827060570197971,-0.16732679040847795]","[-1,-1,-1]","[0.15431675796909214,-0.06705014219374933]","[1,1,1]","[0.0677983309490648,0.17406165409620003]","[1,1,1]","[0.036538010187875315,-0.02495212805990556]","[-1,-1,-1]","[-0.13449669683590318,0.003923631072741044]","[-1,-1,-1]","[0.02194636306226294,0.16024621996197846]","[-1,-1,-1]","[-0.004385437227015823,-0.12490747880749353]","[-1,-1,-1]","[-0.08718189946223306,0.0826730213667599]","[-1,-1,-1]","[-0.09793497784068042,-0.1711073748918874]","[-1,-1,-1]","[-0.19057289650660603,-0.05468512133299399]","[-1,-1,-1]","[-0.1369534409623295,-0.08209626581498408]","[-1,-1,-1]","[0.026551357882438637,0.060867454438629634]","[-1,-1,-1]","[0.02,0.02]",241.9624,0,44,44,24,1,,,,,,,
