right,left,explain.started,explain.stopped,key_resp_3.keys,key_resp_3.rt,key_resp_3.duration,participant,session,date,expName,psychopyVersion,OS,frameRate,study_id,explain_2.started,explain_2.stopped,key_resp_4.keys,key_resp_4.rt,key_resp_4.duration,explain_3.started,explain_3.stopped,key_resp_5.keys,key_resp_5.rt,key_resp_5.duration,fixation.started,fixation.stopped,practice.started,practice.stopped,response.started,response.stopped,key_resp.keys,feedback.started,feedback.stopped,trials_2.thisRepN,trials_2.thisTrialN,trials_2.thisN,trials_2.thisIndex,trials_2.ran,white_ratio,key_resp.rt,key_resp.duration,explain_4.started,explain_4.stopped,key_resp_6.keys,key_resp_6.rt,key_resp_6.duration,dotDisplay.started,dotDisplay.stopped,ITI.started,polygon_1.pos,polygon_1.color,polygon_2.pos,polygon_2.color,polygon_3.pos,polygon_3.color,polygon_4.pos,polygon_4.color,polygon_5.pos,polygon_5.color,polygon_6.pos,polygon_6.color,polygon_7.pos,polygon_7.color,polygon_8.pos,polygon_8.color,polygon_9.pos,polygon_9.color,polygon_10.pos,polygon_10.color,polygon_11.pos,polygon_11.color,polygon_12.pos,polygon_12.color,polygon_13.pos,polygon_13.color,polygon_14.pos,polygon_14.color,polygon_15.pos,polygon_15.color,polygon_16.pos,polygon_16.color,polygon_17.pos,polygon_17.color,polygon_18.pos,polygon_18.color,polygon_19.pos,polygon_19.color,polygon_20.pos,polygon_20.color,polygon_21.pos,polygon_21.color,polygon_22.pos,polygon_22.color,polygon_23.pos,polygon_23.color,polygon_24.pos,polygon_24.color,polygon_25.pos,polygon_25.color,polygon_26.pos,polygon_26.color,polygon_27.pos,polygon_27.color,polygon_28.pos,polygon_28.color,polygon_29.pos,polygon_29.color,polygon_30.pos,polygon_30.color,polygon_31.pos,polygon_31.color,polygon_32.pos,polygon_32.color,dot_size,ITI.stopped,trials.thisRepN,trials.thisTrialN,trials.thisN,trials.thisIndex,trials.ran,break_2.started,break_2.stopped,trials_3.thisRepN,trials_3.thisTrialN,trials_3.thisN,trials_3.thisIndex,trials_3.ran
subject chose black,subject chose white,0.0002,130.8623,space,115.8532,,664b8cea76bb80570322160f,682f0fbfb2638f18ed4a125b,2025-05-22_12h52.30.047,cuing_paradigm_dot,2024.1.5,Win32,142.8571429,682d573fa47f1360d1451895,,,,,,,,,,,,,,,,,,,,,,,,,,,,,,,,,,,,,,,,,,,,,,,,,,,,,,,,,,,,,,,,,,,,,,,,,,,,,,,,,,,,,,,,,,,,,,,,,,,,,,,,,,,,,,,,,
,,,,,,,664b8cea76bb80570322160f,682f0fbfb2638f18ed4a125b,2025-05-22_12h52.30.047,cuing_paradigm_dot,2024.1.5,Win32,142.8571429,682d573fa47f1360d1451895,130.8625,179.4743,space,18.609,,,,,,,,,,,,,,,,,,,,,,,,,,,,,,,,,,,,,,,,,,,,,,,,,,,,,,,,,,,,,,,,,,,,,,,,,,,,,,,,,,,,,,,,,,,,,,,,,,,,,,,,,,,,,
,,,,,,,664b8cea76bb80570322160f,682f0fbfb2638f18ed4a125b,2025-05-22_12h52.30.047,cuing_paradigm_dot,2024.1.5,Win32,142.8571429,682d573fa47f1360d1451895,,,,,,179.4744,231.9619,space,49.475,,,,,,,,,,,,,,,,,,,,,,,,,,,,,,,,,,,,,,,,,,,,,,,,,,,,,,,,,,,,,,,,,,,,,,,,,,,,,,,,,,,,,,,,,,,,,,,,,,,,,,,,
,,,,,,,664b8cea76bb80570322160f,682f0fbfb2638f18ed4a125b,2025-05-22_12h52.30.047,cuing_paradigm_dot,2024.1.5,Win32,142.8571429,682d573fa47f1360d1451895,,,,,,,,,,,231.9759,232.4685,232.4687,232.7187,232.7188,234.2185,,234.2187,235.3157,0,0,0,1,1,0.2,,,,,,,,,,,,,,,,,,,,,,,,,,,,,,,,,,,,,,,,,,,,,,,,,,,,,,,,,,,,,,,,,,,,,,,,,,,,,,,,,,,,,,,,
,,,,,,,664b8cea76bb80570322160f,682f0fbfb2638f18ed4a125b,2025-05-22_12h52.30.047,cuing_paradigm_dot,2024.1.5,Win32,142.8571429,682d573fa47f1360d1451895,,,,,,,,,,,235.3163,235.8156,235.8157,236.066,236.066,236.5795,left,236.5796,237.677,0,1,1,0,1,0.8,0.5009,,,,,,,,,,,,,,,,,,,,,,,,,,,,,,,,,,,,,,,,,,,,,,,,,,,,,,,,,,,,,,,,,,,,,,,,,,,,,,,,,,,,,,,
,,,,,,,664b8cea76bb80570322160f,682f0fbfb2638f18ed4a125b,2025-05-22_12h52.30.047,cuing_paradigm_dot,2024.1.5,Win32,142.8571429,682d573fa47f1360d1451895,,,,,,,,,,,,,,,,,,,,,,,,,,,,237.6773,252.1082,space,11.42,,,,,,,,,,,,,,,,,,,,,,,,,,,,,,,,,,,,,,,,,,,,,,,,,,,,,,,,,,,,,,,,,,,,,,,,,,,,,,,,,,
,,,,,,,664b8cea76bb80570322160f,682f0fbfb2638f18ed4a125b,2025-05-22_12h52.30.047,cuing_paradigm_dot,2024.1.5,Win32,142.8571429,682d573fa47f1360d1451895,,,,,,,,,,,252.1172,252.6147,,,252.8653,253.4689,right,,,,,,,,0.4,0.5943,,,,,,,252.6151,252.8651,253.4692,"[0.11818641552713612,-0.07129617809611608]","[1,1,1]","[-0.035269639248446116,-0.1410745264342516]","[-1,-1,-1]","[-0.018239060424139978,0.14242798544975935]","[1,1,1]","[0.06778795315012756,0.08001108673041642]","[-1,-1,-1]","[-0.14360360462777713,0.005174868420385711]","[-1,-1,-1]","[-0.07176582168736557,-0.09295742670419085]","[-1,-1,-1]","[-0.08643687491354073,0.05873853183116318]","[-1,-1,-1]","[-0.06928502659055807,-0.17376100105106304]","[1,1,1]","[0.08024843126995126,-0.1641609483088923]","[-1,-1,-1]","[-0.17175624159625347,-0.08694955720124037]","[-1,-1,-1]","[0.09057264922134578,0.016620882539404597]","[-1,-1,-1]","[0.10368127072423014,0.12497220506678121]","[1,1,1]","[-0.01555328247398405,-0.05905060913616026]","[1,1,1]","[-0.042131898220629946,0.17526594474872495]","[-1,-1,-1]","[0.006031465186453547,0.02945804018795418]","[1,1,1]","[0.11303327492569716,0.05991116014491051]","[-1,-1,-1]","[-0.1034714921631292,-0.0067791947020075325]","[1,1,1]","[-0.0555516285223733,0.08764596814173893]","[-1,-1,-1]","[0.07115313591075455,-0.0848617586455936]","[1,1,1]","[-0.007321329037218294,0.09176496261509903]","[-1,-1,-1]","[0.06369048904308433,0.18589490813375512]","[1,1,1]","[0.145962841806856,0.1289581876396139]","[-1,-1,-1]","[0.03211211491233548,-0.10580453983646583]","[1,1,1]","[0.11679331170930715,-0.014301085884847492]","[1,1,1]","[-0.15803558810869303,0.09529788765351055]","[-1,-1,-1]","[0.0759608152490341,-0.04116294687890023]","[-1,-1,-1]","[-0.09661222788919087,0.17348709077244504]","[-1,-1,-1]","[-0.0825041712585924,-0.13466790766529924]","[1,1,1]","[0.12684019459068202,-0.1377004405552616]","[-1,-1,-1]","[-0.0342123522466174,0.018961852662220544]","[1,1,1]","[0.1732209928649495,0.09373271141943801]","[-1,-1,-1]","[-0.12339310759560536,-0.11575099416138805]","[-1,-1,-1]","[0.02,0.02]",254.5662,0,0,0,42,1,,,,,,,
,,,,,,,664b8cea76bb80570322160f,682f0fbfb2638f18ed4a125b,2025-05-22_12h52.30.047,cuing_paradigm_dot,2024.1.5,Win32,142.8571429,682d573fa47f1360d1451895,,,,,,,,,,,254.5666,255.0661,,,255.3163,255.6981,right,,,,,,,,0.5,0.3681,,,,,,,255.0661,255.3163,255.6981,"[-0.02900395795821022,-0.04567141737919147]","[1,1,1]","[0.1089087232525424,-0.12530002795965436]","[-1,-1,-1]","[-0.1393996170062359,-0.14231085311535766]","[1,1,1]","[0.09205984159832527,-0.062179611266031116]","[1,1,1]","[0.15683169119771165,-0.055225372343109966]","[-1,-1,-1]","[0.08858263268638474,0.019145589808665556]","[1,1,1]","[0.0603818042929028,-0.024798385509959955]","[1,1,1]","[-0.005698651009424193,-0.08982209506455704]","[-1,-1,-1]","[-0.18693775151402245,-0.018376399747870375]","[-1,-1,-1]","[0.017856796774373285,-0.18429412487282054]","[1,1,1]","[-0.052386726572815234,0.03324676026679964]","[-1,-1,-1]","[0.04053580991755133,0.06099961441784352]","[1,1,1]","[-0.1415668283147552,0.11578384087811978]","[-1,-1,-1]","[-0.1782021757114532,0.08728180415068144]","[-1,-1,-1]","[0.07803599760762941,-0.17743229016970918]","[1,1,1]","[-0.08261052129569109,0.16856269235697]","[-1,-1,-1]","[-0.0693528435515832,-0.018105477478143762]","[1,1,1]","[0.0029229358232508015,0.07989772805182815]","[-1,-1,-1]","[0.1570374530736978,0.07230425142787894]","[-1,-1,-1]","[-0.14892155377471844,-0.034187660724530694]","[-1,-1,-1]","[0.12119672443739134,0.15032695443004793]","[-1,-1,-1]","[0.032624004134935373,0.14627229123685279]","[1,1,1]","[-0.0863949405096364,-0.17663702872561862]","[1,1,1]","[0.06285990413626401,0.1881392026066416]","[1,1,1]","[-0.08478696500638958,-0.09903236269185212]","[1,1,1]","[-0.07116586845529554,0.09706054797350118]","[-1,-1,-1]","[0.13508119807404148,-0.01241855907843879]","[1,1,1]","[0.17622387940651688,-0.019972949592279778]","[1,1,1]","[-0.02777442023796091,-0.14958498844856344]","[1,1,1]","[-0.009812871007255211,0.19168239831505793]","[-1,-1,-1]","[0.020604821830210413,0.012433149262162603]","[-1,-1,-1]","[-0.1453888385813771,-0.0881527333590696]","[-1,-1,-1]","[0.02,0.02]",256.7954,0,1,1,117,1,,,,,,,
,,,,,,,664b8cea76bb80570322160f,682f0fbfb2638f18ed4a125b,2025-05-22_12h52.30.047,cuing_paradigm_dot,2024.1.5,Win32,142.8571429,682d573fa47f1360d1451895,,,,,,,,,,,256.7957,257.2953,,,257.5458,257.8508,left,,,,,,,,0.9,0.2926,,,,,,,257.2953,257.5457,257.8508,"[-0.08885731311856258,-0.10787211222474147]","[1,1,1]","[-0.03375825251801008,0.1550510941264792]","[1,1,1]","[-0.1156509117812575,0.11358181445933042]","[1,1,1]","[0.061878197695746213,0.03802780039023529]","[1,1,1]","[0.11942831928660515,-0.028636981761678264]","[1,1,1]","[0.13083672488017453,0.011961405169570104]","[1,1,1]","[-0.16034091831572334,0.11779026762191398]","[1,1,1]","[0.07197099772393398,-0.08706847070509259]","[1,1,1]","[0.01916522158686148,0.08196620828928301]","[1,1,1]","[0.02073861916526732,-0.030831419364955523]","[1,1,1]","[-0.12101745756258603,-0.054012970477837215]","[1,1,1]","[-0.05029590881580229,-0.08947480750593242]","[1,1,1]","[-0.006354567424844183,-0.1103812062617986]","[1,1,1]","[-0.15994759594364188,-0.09169556724895608]","[1,1,1]","[0.16403645509282078,0.06943387432192631]","[1,1,1]","[-0.11242012895030064,-0.1588797952092755]","[1,1,1]","[-0.14405358436556068,0.07685120673584041]","[1,1,1]","[0.1755918076447481,0.02835435450715236]","[1,1,1]","[0.08551775798606358,0.1723091979587071]","[-1,-1,-1]","[-0.0721161459477107,0.0013191937000023583]","[-1,-1,-1]","[-0.02368489210938793,0.10793647304888604]","[1,1,1]","[-0.08171585133843512,0.09056302748479812]","[1,1,1]","[0.03056428694853596,-0.17879491003877201]","[1,1,1]","[-0.03295919721164477,-0.024398945764849047]","[1,1,1]","[-0.032425954538217346,-0.16462853496135335]","[1,1,1]","[-0.01675347365489736,0.06074651438198686]","[1,1,1]","[-0.08146734264189714,0.17300265757017425]","[1,1,1]","[-0.17550333479306632,-0.0014376334354581643]","[1,1,1]","[0.15994116936441582,-0.05143396888359173]","[1,1,1]","[0.14302291563262562,-0.09486316516107171]","[1,1,1]","[0.09689569196895949,0.06710028770190281]","[-1,-1,-1]","[0.09024923990976827,0.10834945769868205]","[1,1,1]","[0.02,0.02]",258.9481,0,2,2,204,1,,,,,,,
,,,,,,,664b8cea76bb80570322160f,682f0fbfb2638f18ed4a125b,2025-05-22_12h52.30.047,cuing_paradigm_dot,2024.1.5,Win32,142.8571429,682d573fa47f1360d1451895,,,,,,,,,,,258.9484,259.4482,,,259.6984,260.2815,left,,,,,,,,0.55,0.5744,,,,,,,259.4482,259.6983,260.2816,"[0.10990231957386903,0.13485248766444885]","[1,1,1]","[-0.10751407900568691,0.00013004958271873587]","[-1,-1,-1]","[0.007852421199454528,-0.13633818243835932]","[1,1,1]","[-0.058033743662790474,0.09734824109324011]","[1,1,1]","[0.15079715415770317,-0.024353019856417163]","[-1,-1,-1]","[0.10136514987499577,-0.0761880139232303]","[-1,-1,-1]","[0.021543868288602892,0.16232184857947585]","[1,1,1]","[0.007489290675892814,0.017244523194063985]","[1,1,1]","[-0.1326978043680455,-0.040201874947374386]","[1,1,1]","[-0.16517751633207095,0.00895569701702757]","[1,1,1]","[-0.05100614075316648,0.1602693632541721]","[1,1,1]","[0.13829687240051716,0.0633339476494334]","[1,1,1]","[-0.036895666240200596,-0.019922869664499854]","[1,1,1]","[0.058279983784084256,-0.015301678737049091]","[-1,-1,-1]","[0.071010100864378,0.02735447112291338]","[1,1,1]","[-0.06543475230022344,-0.09116367809344912]","[-1,-1,-1]","[-0.05882609992965533,0.019734204897299736]","[1,1,1]","[0.04176519166703344,0.09407234994372357]","[1,1,1]","[-0.06728324540075627,-0.14689385663683144]","[-1,-1,-1]","[-0.15073829315328932,0.0645601970246084]","[-1,-1,-1]","[0.0095578279485732,-0.07721718866147252]","[-1,-1,-1]","[0.08540298053772405,0.0706205412372122]","[-1,-1,-1]","[-0.1424438201590813,-0.11522404090451402]","[-1,-1,-1]","[-0.021779320621484778,-0.19613572415995034]","[-1,-1,-1]","[-0.009868211290364443,0.19214738961891775]","[1,1,1]","[0.14969061804975145,-0.08083812355063008]","[-1,-1,-1]","[0.148905069027373,0.12208023454526158]","[-1,-1,-1]","[0.11636645001893738,-0.13999405647992413]","[-1,-1,-1]","[-0.09981429066715532,-0.06502050114830106]","[1,1,1]","[0.05572164256251761,0.13478541016105486]","[1,1,1]","[-0.02907977676481052,0.12539181444487282]","[1,1,1]","[-0.17468034061562296,-0.06627088647223489]","[1,1,1]","[0.02,0.02]",261.3788,0,3,3,125,1,,,,,,,
,,,,,,,664b8cea76bb80570322160f,682f0fbfb2638f18ed4a125b,2025-05-22_12h52.30.047,cuing_paradigm_dot,2024.1.5,Win32,142.8571429,682d573fa47f1360d1451895,,,,,,,,,,,261.3791,261.8788,,,262.129,262.6357,right,,,,,,,,0.55,0.4944,,,,,,,261.8789,262.129,262.6358,"[-0.018921460331100547,-0.10994600446433943]","[1,1,1]","[0.03189206278930624,-0.19341506203471293]","[-1,-1,-1]","[-0.03359571000316839,-0.19248427339281446]","[-1,-1,-1]","[-0.040235471068422804,0.14014562335473676]","[-1,-1,-1]","[-0.10581789192453006,0.025591532383354914]","[1,1,1]","[-0.17320489567464223,0.0067628053196158505]","[-1,-1,-1]","[0.031284057443005935,0.09493530846922546]","[-1,-1,-1]","[-0.1807459634253324,-0.07713658143426433]","[-1,-1,-1]","[0.048437788568314766,-0.13671707622696996]","[-1,-1,-1]","[-0.014620229341587408,-0.06896223687010981]","[1,1,1]","[-0.10357968846765808,-0.03628048334120412]","[1,1,1]","[0.08858458695622447,-0.006591882641239718]","[-1,-1,-1]","[-0.011314739422490741,-0.0026843436587065663]","[1,1,1]","[-0.09927627860270365,0.133465701371643]","[-1,-1,-1]","[-0.03085435925197382,0.19179341944999218]","[-1,-1,-1]","[-0.06339354252030692,-0.043763155943912675]","[1,1,1]","[0.13495228336440282,0.010202075382788237]","[1,1,1]","[0.08079802638222504,0.14531186213647793]","[1,1,1]","[0.03195388163890216,0.19638305647192106]","[1,1,1]","[0.04757486906167262,0.039888307860054505]","[1,1,1]","[0.14497024297120412,0.09279138124140104]","[1,1,1]","[0.12746849966965335,-0.08948163612234471]","[1,1,1]","[-0.08642408480497508,-0.15759471667453873]","[-1,-1,-1]","[-0.18198751399113233,0.06064416182552517]","[1,1,1]","[0.18407178008288536,0.02414978716127355]","[1,1,1]","[-0.06260967031223955,-0.11904344193453124]","[1,1,1]","[0.1344637385715887,-0.039805419414086905]","[1,1,1]","[0.08959120310462819,-0.12204472921336318]","[1,1,1]","[0.18549304603773786,-0.04402423945841885]","[1,1,1]","[-0.060392321388208596,0.011413024336316264]","[-1,-1,-1]","[-0.020567399247678964,0.07487607273969053]","[-1,-1,-1]","[0.025340411588817856,-0.09900936663823368]","[-1,-1,-1]","[0.02,0.02]",263.7329,0,4,4,123,1,,,,,,,
,,,,,,,664b8cea76bb80570322160f,682f0fbfb2638f18ed4a125b,2025-05-22_12h52.30.047,cuing_paradigm_dot,2024.1.5,Win32,142.8571429,682d573fa47f1360d1451895,,,,,,,,,,,263.7333,264.233,,,264.4832,265.0454,right,,,,,,,,0.45,0.5524,,,,,,,264.2331,264.4832,265.0454,"[-0.0624321711656845,-0.18670276913530273]","[-1,-1,-1]","[-0.017276287033292866,0.17349951131253277]","[-1,-1,-1]","[-0.08660962687855196,0.04561774690394493]","[1,1,1]","[-0.02290358667866225,-0.14470756117034964]","[1,1,1]","[0.06870827012813253,0.14322442743487193]","[1,1,1]","[0.1575199653329139,-0.052056486294579554]","[-1,-1,-1]","[0.05253577923358282,0.0817042883010544]","[1,1,1]","[0.06383624270537311,-0.1598444648308904]","[-1,-1,-1]","[-0.000775590542451804,0.045775909945139054]","[1,1,1]","[-0.07923677597467535,0.11018791721621049]","[1,1,1]","[-0.1518445642924272,0.03210026625946525]","[1,1,1]","[-0.04263304658539831,0.05343798610532204]","[-1,-1,-1]","[-0.15013861208244067,0.13102195499297153]","[1,1,1]","[-0.18327916681134893,-0.05262101653781155]","[1,1,1]","[0.009610676061014772,-0.08771797786793578]","[-1,-1,-1]","[0.06911291187620487,-0.08728827995201575]","[-1,-1,-1]","[0.046128209711630765,0.17742441904189657]","[1,1,1]","[-0.037668644213235826,0.1307858033081632]","[-1,-1,-1]","[0.1573708973286724,0.1164509038817801]","[-1,-1,-1]","[0.11757083775253235,-0.11472274978293664]","[1,1,1]","[0.011886515417770327,-0.18961815219013792]","[-1,-1,-1]","[0.19167529563903105,0.055691858234815025]","[-1,-1,-1]","[-0.16197942538255355,-0.09425040036986848]","[-1,-1,-1]","[0.09810323990982478,-0.030620184208351074]","[-1,-1,-1]","[-0.1309197794610311,0.07605260275218222]","[-1,-1,-1]","[0.09296337173451753,0.05691258529932102]","[-1,-1,-1]","[-0.11503604725691882,-0.04894048254911258]","[-1,-1,-1]","[0.05031837243815781,0.018531755464270674]","[-1,-1,-1]","[-0.10378385705284567,0.15281128070765804]","[1,1,1]","[-0.10866772864796147,-0.09635607453119605]","[-1,-1,-1]","[0.17334087861692463,0.010387420380537589]","[1,1,1]","[0.13020450616240734,0.04196467696632613]","[1,1,1]","[0.02,0.02]",266.1428,0,5,5,84,1,,,,,,,
,,,,,,,664b8cea76bb80570322160f,682f0fbfb2638f18ed4a125b,2025-05-22_12h52.30.047,cuing_paradigm_dot,2024.1.5,Win32,142.8571429,682d573fa47f1360d1451895,,,,,,,,,,,266.1431,266.6428,,,266.893,267.5732,right,,,,,,,,0.45,0.6703,,,,,,,266.6429,266.893,267.5733,"[0.06047177490257413,0.15599532290661772]","[-1,-1,-1]","[0.05409487453452704,-0.16225795289212946]","[1,1,1]","[0.10631049086738549,-0.10490284786767456]","[1,1,1]","[0.10220219116776143,-0.16054577457503222]","[1,1,1]","[-0.14955166107786053,-0.09245027104071937]","[-1,-1,-1]","[0.013260197438059259,-0.18622810964353081]","[1,1,1]","[-0.06518367747449565,0.13573019352860305]","[-1,-1,-1]","[0.00293427422995416,0.06147642111951064]","[-1,-1,-1]","[-0.04160617964703017,-0.0013094816504356898]","[1,1,1]","[-0.05582642433093727,-0.04484875607738752]","[1,1,1]","[0.1291422015376224,0.072697988142248]","[1,1,1]","[0.09440607175340825,0.03505585893358178]","[1,1,1]","[0.022196749982196468,-0.07076796279877276]","[-1,-1,-1]","[0.104403835800939,0.11124380144706875]","[1,1,1]","[-0.08833916978910206,-0.00267264968740233]","[-1,-1,-1]","[0.12823563392008527,-0.05021723045275332]","[-1,-1,-1]","[0.014169641596378516,0.1357362092659727]","[-1,-1,-1]","[-0.14410172666871016,0.036255802767275094]","[-1,-1,-1]","[0.16133016550589638,-0.007405568713536623]","[-1,-1,-1]","[0.15295128010161557,0.10631987357507365]","[1,1,1]","[-0.015071461476214148,0.16575335318127074]","[1,1,1]","[0.17925838500342342,-0.052935471472703645]","[-1,-1,-1]","[-0.15436652632177078,-0.006351260164858343]","[-1,-1,-1]","[-0.1112944547201639,0.0722948628165761]","[-1,-1,-1]","[-0.0016341943449067222,-0.11827429224285127]","[1,1,1]","[-0.05306161245988445,0.056724630211964146]","[-1,-1,-1]","[-0.1624123079340941,0.08217422591167924]","[-1,-1,-1]","[0.14381878314628474,0.031007656617254162]","[1,1,1]","[-0.05604865599851255,-0.08507651836683003]","[-1,-1,-1]","[0.06640977873308099,0.07398311061693982]","[1,1,1]","[-0.08715704343775764,-0.13983673702340577]","[-1,-1,-1]","[0.10362907040288467,-0.015919046672183204]","[-1,-1,-1]","[0.02,0.02]",268.6706,0,6,6,61,1,,,,,,,
,,,,,,,664b8cea76bb80570322160f,682f0fbfb2638f18ed4a125b,2025-05-22_12h52.30.047,cuing_paradigm_dot,2024.1.5,Win32,142.8571429,682d573fa47f1360d1451895,,,,,,,,,,,268.671,269.1706,,,269.4209,270.1637,left,,,,,,,,0.6,0.7289,,,,,,,269.1707,269.4209,270.1637,"[-0.10777759894761436,0.08053758485674617]","[-1,-1,-1]","[0.021221523899247325,0.1930271572186746]","[1,1,1]","[0.1462473776067355,0.03349279771181331]","[1,1,1]","[0.16546384973253495,0.0689295659451678]","[-1,-1,-1]","[-0.02409139126684639,-0.11307045840486436]","[1,1,1]","[-0.02337848265786665,-0.06562021967107681]","[-1,-1,-1]","[-0.050287669608568085,0.0631744347859211]","[1,1,1]","[0.02778411462202984,0.1336530747780961]","[-1,-1,-1]","[-0.09667007993963146,0.12542945423984678]","[1,1,1]","[-0.13504808831421927,-0.06565905107709805]","[-1,-1,-1]","[0.1584337120697513,-0.08147087513567174]","[1,1,1]","[0.02391460314213326,-0.0975905919672525]","[1,1,1]","[-0.15266427306077945,0.02463222523192454]","[-1,-1,-1]","[-0.07839049344807912,-0.11613593022133728]","[1,1,1]","[-0.1434061964558246,0.10980037046834658]","[1,1,1]","[-0.044731057931953574,0.13276302439412233]","[-1,-1,-1]","[-0.12806484210044203,-0.13975377468355882]","[1,1,1]","[-0.07559839105060358,-0.16929694739223353]","[-1,-1,-1]","[0.09683727402721455,0.16483265917590853]","[-1,-1,-1]","[-0.12941008194253878,-0.025114052593838556]","[-1,-1,-1]","[0.08603136350378111,-0.027053837967117866]","[-1,-1,-1]","[0.09553740929146891,0.10299142870055561]","[1,1,1]","[0.14271510062370607,0.1356617532477564]","[1,1,1]","[0.11088278186097568,-0.09174355664850639]","[1,1,1]","[-0.04235029134366774,-0.017563073764404694]","[1,1,1]","[-0.030722024067928497,0.17882972830246735]","[1,1,1]","[0.06196155029007744,0.011718054902250306]","[1,1,1]","[0.11717127659083787,-0.14774954270305432]","[1,1,1]","[-0.015274565321207046,0.024337223535834]","[-1,-1,-1]","[0.199301917463056,-0.011702438855636495]","[1,1,1]","[0.013134341075090481,-0.17330664179022082]","[1,1,1]","[0.01652233163454857,-0.005379880787860847]","[-1,-1,-1]","[0.02,0.02]",271.261,0,7,7,163,1,,,,,,,
,,,,,,,664b8cea76bb80570322160f,682f0fbfb2638f18ed4a125b,2025-05-22_12h52.30.047,cuing_paradigm_dot,2024.1.5,Win32,142.8571429,682d573fa47f1360d1451895,,,,,,,,,,,271.2614,271.7609,,,272.011,272.7957,left,,,,,,,,0.6,0.7712,,,,,,,271.761,272.0109,272.7958,"[0.15837617597386613,-0.0012921291004472691]","[1,1,1]","[-0.0852964556520498,0.17952479120416098]","[-1,-1,-1]","[0.045373134277954766,0.06328675582147235]","[1,1,1]","[0.016549381952987607,0.11723804906751695]","[1,1,1]","[0.11362020833007397,-0.025286179302151355]","[1,1,1]","[-0.015249875335607788,-0.07635671043621907]","[-1,-1,-1]","[0.024661284869081937,-0.030662497764052686]","[1,1,1]","[-0.1666907713972894,-0.06269952241668612]","[-1,-1,-1]","[0.06149340305623366,-0.16951772641691437]","[-1,-1,-1]","[-0.12800815770773805,-0.14930309046952397]","[1,1,1]","[-0.026735360494770776,-0.1334169167431675]","[1,1,1]","[-0.14704203547694758,0.0707458213229597]","[1,1,1]","[-0.16099699111599186,-0.004994745354983645]","[1,1,1]","[0.10501998352955226,0.04259913692991374]","[1,1,1]","[0.16580087933412177,0.08686613298816755]","[-1,-1,-1]","[-0.0264012529314537,0.019816561072533493]","[1,1,1]","[0.03420488839312646,0.16988348479367182]","[1,1,1]","[-0.01025943132784479,0.07952866176754321]","[-1,-1,-1]","[-0.19344553551380297,0.045976461036048945]","[1,1,1]","[-0.07076820914207703,0.01813558084113031]","[-1,-1,-1]","[-0.08027472905193378,-0.15373931612579994]","[-1,-1,-1]","[-0.006038914324662462,-0.1871384320259001]","[-1,-1,-1]","[0.19120677926563873,-0.05634125948762207]","[1,1,1]","[-0.09627368641773092,-0.081388062716476]","[-1,-1,-1]","[0.06472255975983475,-0.07724206420964605]","[-1,-1,-1]","[-0.11206198239293105,0.01850013324784008]","[-1,-1,-1]","[0.1551562446266929,-0.10095937533518533]","[1,1,1]","[-0.03444928111735103,0.1193627286214045]","[1,1,1]","[0.08243374365291654,0.09767774983469577]","[-1,-1,-1]","[0.08183205293315629,-0.1299481731239511]","[1,1,1]","[0.06487120142041607,0.02404083494278784]","[1,1,1]","[0.12135596066053353,-0.12366073698978493]","[1,1,1]","[0.02,0.02]",273.8929,0,8,8,160,1,,,,,,,
,,,,,,,664b8cea76bb80570322160f,682f0fbfb2638f18ed4a125b,2025-05-22_12h52.30.047,cuing_paradigm_dot,2024.1.5,Win32,142.8571429,682d573fa47f1360d1451895,,,,,,,,,,,273.8933,274.393,,,274.6432,275.6776,right,,,,,,,,0.55,1.0242,,,,,,,274.393,274.6431,275.6776,"[-0.14409290872226885,0.05587007546023419]","[-1,-1,-1]","[-0.19633561371599223,0.02836238123171199]","[1,1,1]","[0.15101874666104675,0.024596043343916726]","[1,1,1]","[0.11967686830074155,-0.03365840759406784]","[-1,-1,-1]","[-0.037443258013125896,-0.04259695267536806]","[1,1,1]","[-0.13101118678527074,-0.07097845896065724]","[1,1,1]","[-0.00625089037165134,-0.16685047331035502]","[1,1,1]","[-0.1408479909370215,0.13534159218640648]","[-1,-1,-1]","[-0.16024173391289565,-0.10209050395733253]","[1,1,1]","[-0.03832655379676481,0.15525603642815122]","[-1,-1,-1]","[-0.0886812409972093,0.13117687744388482]","[1,1,1]","[0.08321216129565212,-0.062062083662242404]","[1,1,1]","[-0.11258018090530297,0.004275280981194948]","[1,1,1]","[-0.16932785861661162,-0.005461039107878239]","[-1,-1,-1]","[0.10378525705337228,-0.11479525756302413]","[-1,-1,-1]","[0.021604819414087147,0.08845605481485626]","[-1,-1,-1]","[0.05424227819231057,-0.13010377307328538]","[1,1,1]","[0.061012881589912395,0.10876819474180784]","[1,1,1]","[-0.0697290254070479,-0.006622880196072066]","[1,1,1]","[0.10708983916248173,0.030288246231539077]","[1,1,1]","[0.028287813557295035,0.17785601856594782]","[1,1,1]","[0.16385540145035016,0.09910956806761265]","[-1,-1,-1]","[0.03288385386786633,0.0443223763434085]","[-1,-1,-1]","[-0.08652526964502291,-0.0998964662133119]","[-1,-1,-1]","[-0.08574383639636042,0.06848040704630108]","[1,1,1]","[0.06355521111198503,0.0023446160198596975]","[1,1,1]","[0.17554320433883913,-0.03954057937456831]","[1,1,1]","[-0.09874599103124503,-0.14268681206186137]","[-1,-1,-1]","[0.19262765830754017,0.01417455126564885]","[1,1,1]","[-0.034860246533057845,0.038803830188026495]","[-1,-1,-1]","[0.11284345625668102,0.1251449369653226]","[-1,-1,-1]","[0.13199042595384136,-0.08609338095762199]","[-1,-1,-1]","[0.02,0.02]",276.7749,0,9,9,145,1,,,,,,,
,,,,,,,664b8cea76bb80570322160f,682f0fbfb2638f18ed4a125b,2025-05-22_12h52.30.047,cuing_paradigm_dot,2024.1.5,Win32,142.8571429,682d573fa47f1360d1451895,,,,,,,,,,,276.7754,277.2748,,,277.5256,277.9971,right,,,,,,,,0.1,0.4589,,,,,,,277.2749,277.5255,277.9972,"[-0.0912003453571216,0.15315482817393672]","[-1,-1,-1]","[0.1410129881764458,-0.08892214619612082]","[-1,-1,-1]","[-0.15052291388901715,-0.002583323070596068]","[-1,-1,-1]","[0.051209506731197035,-0.17803726446398604]","[-1,-1,-1]","[0.08482012424825987,-0.15575828390786026]","[-1,-1,-1]","[-0.05963479648125362,0.12080846622694622]","[-1,-1,-1]","[0.0015532679145982815,-0.18769173628939423]","[-1,-1,-1]","[0.10085302308894746,0.04716061115755561]","[-1,-1,-1]","[-0.013988414147906868,-0.026344760767031697]","[-1,-1,-1]","[-0.13402803129910595,-0.08281052278418939]","[-1,-1,-1]","[-0.09744733878871296,0.10007312736888586]","[-1,-1,-1]","[0.14881687065886853,-0.018648403457910384]","[1,1,1]","[0.039859415942932325,-0.12260669785755215]","[-1,-1,-1]","[0.03143398478992522,0.12214169101861853]","[-1,-1,-1]","[-0.11990318027801894,-0.1373897394617238]","[-1,-1,-1]","[-0.07697758106848888,-0.06580313117185874]","[-1,-1,-1]","[-0.025376196306051757,0.1788523452983264]","[-1,-1,-1]","[-0.11758570702196955,0.05962429882769706]","[-1,-1,-1]","[0.09109644679627361,0.12271324571335084]","[-1,-1,-1]","[0.04486713784646044,0.19249755711620742]","[-1,-1,-1]","[0.13711334646564563,0.11735277060820612]","[1,1,1]","[0.18840157785791817,-0.045497427699131426]","[-1,-1,-1]","[-0.04721483432191445,-0.11896622098579965]","[1,1,1]","[-0.03342735302217167,0.015237356258790259]","[-1,-1,-1]","[-0.19475785904994983,0.009907480605948166]","[-1,-1,-1]","[-0.011333808289580529,0.13021583415057333]","[-1,-1,-1]","[0.061830241925041225,0.15478821986165592]","[-1,-1,-1]","[-0.038484355320385154,-0.18758359065238978]","[-1,-1,-1]","[0.0327375231349901,0.07121089015121511]","[-1,-1,-1]","[0.021073204011473938,0.01716039767818526]","[-1,-1,-1]","[-0.16423717309374844,0.07988458025521837]","[-1,-1,-1]","[0.14085917552253346,0.05905486576136011]","[-1,-1,-1]","[0.02,0.02]",279.0945,0,10,10,12,1,,,,,,,
,,,,,,,664b8cea76bb80570322160f,682f0fbfb2638f18ed4a125b,2025-05-22_12h52.30.047,cuing_paradigm_dot,2024.1.5,Win32,142.8571429,682d573fa47f1360d1451895,,,,,,,,,,,279.095,279.5944,,,279.8448,280.5737,left,,,,,,,,0.55,0.7161,,,,,,,279.5945,279.8447,280.5738,"[0.19063026381344053,0.054622000824220515]","[-1,-1,-1]","[0.01824692618080727,-0.18712882281596674]","[-1,-1,-1]","[-0.04463688074496766,0.07957827377801614]","[-1,-1,-1]","[0.09379960049633856,-0.08008214775086746]","[1,1,1]","[-0.13910707840759773,0.054488635591217215]","[1,1,1]","[-0.09989997495511299,-0.07674469934113562]","[-1,-1,-1]","[0.013607176100042011,-0.06532907593866978]","[-1,-1,-1]","[0.18552015605646385,-0.05153504324721222]","[1,1,1]","[-0.09241962767834311,-0.017299402232754266]","[1,1,1]","[0.161064705837117,-0.08891821875076567]","[1,1,1]","[0.07449271379818258,-0.13006663632958518]","[1,1,1]","[-0.031171074445679698,0.1728921530331697]","[-1,-1,-1]","[-0.07392789670710244,-0.11663636630987365]","[1,1,1]","[0.0045061325098917976,0.06436970524336544]","[1,1,1]","[-0.14072655803194142,-0.035765815376833626]","[-1,-1,-1]","[0.12935243812653408,-0.0012553900160452343]","[-1,-1,-1]","[-0.06731794381641701,-0.18666795446799772]","[1,1,1]","[-0.11608004060240504,-0.15528091923489407]","[1,1,1]","[0.05876234617443407,0.06170360911802207]","[1,1,1]","[0.06812855321574558,0.10323460567350504]","[1,1,1]","[-0.13380268009261792,0.1208862181748382]","[1,1,1]","[0.1362843917859762,0.05575759382299957]","[-1,-1,-1]","[0.09574761485959538,0.03530545620353292]","[1,1,1]","[-0.044690576645324505,0.03817506043178748]","[-1,-1,-1]","[0.107219759666942,-0.039377640602515994]","[1,1,1]","[0.13521676694896878,0.12891006792042187]","[1,1,1]","[0.05689686751119874,-0.003575438158340277]","[1,1,1]","[-0.09366713971968185,0.11984294567483823]","[-1,-1,-1]","[-0.1582775058470652,-0.11192770978273801]","[-1,-1,-1]","[-0.05641607453585501,-0.07531991422518532]","[1,1,1]","[0.007559663976771013,-0.10857520262906853]","[-1,-1,-1]","[-0.17336353802242602,0.08469867192705022]","[-1,-1,-1]","[0.02,0.02]",281.6707,0,11,11,127,1,,,,,,,
,,,,,,,664b8cea76bb80570322160f,682f0fbfb2638f18ed4a125b,2025-05-22_12h52.30.047,cuing_paradigm_dot,2024.1.5,Win32,142.8571429,682d573fa47f1360d1451895,,,,,,,,,,,281.6711,282.1708,,,282.421,283.046,left,,,,,,,,0.55,0.6192,,,,,,,282.1708,282.421,283.0461,"[0.07990023506856218,-0.0833483286837798]","[1,1,1]","[-0.1526290776444189,-0.09775645541360185]","[1,1,1]","[-0.18344129742049242,0.030054914855159202]","[-1,-1,-1]","[-0.08352932394070008,-0.13239602240483284]","[1,1,1]","[-0.12152861394199635,0.04700557462878948]","[1,1,1]","[0.16142976137449142,0.015938566403695464]","[-1,-1,-1]","[0.10229095116814849,0.036719449189853315]","[-1,-1,-1]","[0.04248236578794155,0.15347603408189867]","[-1,-1,-1]","[0.047607388875704024,0.015527448971675848]","[1,1,1]","[-0.09559018170082999,0.0051643028502542454]","[1,1,1]","[-0.049231875914549625,0.025167507382101984]","[1,1,1]","[-0.03852464144868544,0.08955296654405326]","[1,1,1]","[0.0005217039860109191,-0.04708023377807694]","[1,1,1]","[-0.00949170094358272,-0.17560500472592175]","[-1,-1,-1]","[0.005045011069205032,0.06247083666280984]","[-1,-1,-1]","[0.07032578100768744,-0.03574327470659806]","[1,1,1]","[-0.09420852686249274,0.10983176157934944]","[1,1,1]","[0.13762012018299064,0.1432409101964391]","[1,1,1]","[0.14984114778418312,-0.0884275036389241]","[-1,-1,-1]","[-0.05141343751345867,0.18733958121357022]","[-1,-1,-1]","[-0.01637716190631772,-0.00525563782230779]","[-1,-1,-1]","[0.033046161006439194,-0.11089611249524815]","[1,1,1]","[0.06758716498084337,-0.17343712420177207]","[-1,-1,-1]","[-0.13383425284848036,-0.03584490461342105]","[-1,-1,-1]","[0.09001606894213547,-0.13219128471142058]","[-1,-1,-1]","[0.08359283866195912,0.13389419638555866]","[1,1,1]","[-0.0698965832143988,-0.07008318115567981]","[-1,-1,-1]","[0.17181348091955903,0.06232788675450191]","[-1,-1,-1]","[-0.1000265738003041,0.16025790103105372]","[1,1,1]","[0.1865920326214528,-0.03589282381401036]","[1,1,1]","[0.04942583590417356,0.08536948936083277]","[1,1,1]","[-0.1515304909448193,0.11843051264243618]","[1,1,1]","[0.02,0.02]",284.1432,0,12,12,146,1,,,,,,,
,,,,,,,664b8cea76bb80570322160f,682f0fbfb2638f18ed4a125b,2025-05-22_12h52.30.047,cuing_paradigm_dot,2024.1.5,Win32,142.8571429,682d573fa47f1360d1451895,,,,,,,,,,,284.1434,284.6432,,,284.8933,285.4905,right,,,,,,,,0.45,0.5939,,,,,,,284.6432,284.8933,285.4905,"[-0.05410345000469078,0.12280325682598267]","[-1,-1,-1]","[-0.036226658353918036,0.03389755726960943]","[1,1,1]","[-0.05641059677424149,0.08147475485321183]","[-1,-1,-1]","[-0.1221336752676355,-0.02320122218048344]","[-1,-1,-1]","[-0.00007855728049051927,0.09922775007938012]","[1,1,1]","[0.05795913743265768,0.02180941789002939]","[-1,-1,-1]","[0.11430159578789965,-0.0983966535042364]","[1,1,1]","[0.07344532430025211,0.10266445260839936]","[-1,-1,-1]","[-0.052572985205215195,-0.15089504074667173]","[-1,-1,-1]","[0.02708210057340972,-0.0610777781341093]","[1,1,1]","[0.18105276486083632,-0.03837875556098588]","[1,1,1]","[0.16780911270431742,0.02149900755163161]","[1,1,1]","[-0.10399564614261246,0.09842288204685257]","[-1,-1,-1]","[-0.12491602509584315,-0.09450233512497334]","[-1,-1,-1]","[0.030638766853968675,-0.1660677178601283]","[1,1,1]","[-0.03642657753928261,-0.06207495449294713]","[-1,-1,-1]","[-0.1674196430012287,0.049287115262664306]","[1,1,1]","[0.03187246934624619,0.17542962655090927]","[-1,-1,-1]","[0.14989750030597912,-0.12039222124174849]","[-1,-1,-1]","[0.08452723824354254,-0.17614237315091366]","[1,1,1]","[0.04810615598600325,-0.09618174020686131]","[-1,-1,-1]","[-0.02320369224531582,0.1874987603930793]","[1,1,1]","[0.1581946346268504,-0.07865820746942939]","[1,1,1]","[-0.09036524864210446,0.022483847723848635]","[1,1,1]","[-0.10463654857396786,-0.16233441744523971]","[-1,-1,-1]","[-0.15398187833758337,0.11535781991819376]","[-1,-1,-1]","[-0.17472712431077111,-0.01554220788888496]","[-1,-1,-1]","[-0.13242627876304147,0.021312476912694812]","[1,1,1]","[0.026895797954376185,0.0580211464326749]","[1,1,1]","[-0.07071628496545578,0.16065128008524687]","[-1,-1,-1]","[0.029572359904797785,0.1305395835417784]","[-1,-1,-1]","[0.09210233423958228,-0.0475642542806117]","[-1,-1,-1]","[0.02,0.02]",286.5877,0,13,13,85,1,,,,,,,
,,,,,,,664b8cea76bb80570322160f,682f0fbfb2638f18ed4a125b,2025-05-22_12h52.30.047,cuing_paradigm_dot,2024.1.5,Win32,142.8571429,682d573fa47f1360d1451895,,,,,,,,,,,286.5879,287.0876,,,287.338,287.6294,right,,,,,,,,0.1,0.2795,,,,,,,287.0876,287.338,287.6294,"[0.09353777651201048,0.14595297987798206]","[-1,-1,-1]","[-0.12813064178746944,0.031657223518345046]","[-1,-1,-1]","[-0.03402129746645109,-0.08983078711757433]","[-1,-1,-1]","[0.014847268152868765,-0.03063361889761384]","[-1,-1,-1]","[0.05014262018932927,-0.00005084388614853534]","[-1,-1,-1]","[0.14061546539156036,-0.1009891386968036]","[-1,-1,-1]","[-0.15378065924077056,-0.12218064610694247]","[-1,-1,-1]","[0.04417064969230054,-0.0834850215093989]","[-1,-1,-1]","[-0.14806176521867612,0.09923606111483085]","[-1,-1,-1]","[0.14507111565227823,0.040002727278569614]","[-1,-1,-1]","[-0.019519726718907088,-0.17795393205915547]","[-1,-1,-1]","[-0.050102025619484014,0.14637764667148767]","[-1,-1,-1]","[-0.027784527749228162,0.001808775367019314]","[1,1,1]","[0.03963896911667236,-0.17719295469545143]","[-1,-1,-1]","[0.1800663101869132,-0.0828922456971664]","[-1,-1,-1]","[-0.009629491997565928,0.14307506010420526]","[-1,-1,-1]","[0.09962516762808858,-0.15931901543428398]","[-1,-1,-1]","[0.109237300358294,0.08178728423660182]","[-1,-1,-1]","[-0.0028272789099113224,0.07752439223473087]","[-1,-1,-1]","[0.05470324526900241,0.045073150411799934]","[-1,-1,-1]","[-0.17740078453166297,0.006490536715477064]","[1,1,1]","[-0.05430052300063432,0.0658201224555812]","[-1,-1,-1]","[-0.1281287037390983,-0.039551807437431453]","[-1,-1,-1]","[-0.1822231495100811,0.05514268021100497]","[-1,-1,-1]","[0.1935344449608361,-0.032962155570707904]","[-1,-1,-1]","[-0.10830599067677467,0.1615762327506615]","[-1,-1,-1]","[-0.029856403730267645,-0.12993336939525588]","[-1,-1,-1]","[0.16250271026534271,0.0808100067351813]","[-1,-1,-1]","[0.041104478191441175,0.14735948108807184]","[-1,-1,-1]","[0.11586991652924389,-0.017716680330826757]","[1,1,1]","[-0.08568130791503648,-0.15446426066731192]","[-1,-1,-1]","[0.15291133334986043,0.00009451811221586746]","[-1,-1,-1]","[0.02,0.02]",288.7268,0,14,14,0,1,,,,,,,
,,,,,,,664b8cea76bb80570322160f,682f0fbfb2638f18ed4a125b,2025-05-22_12h52.30.047,cuing_paradigm_dot,2024.1.5,Win32,142.8571429,682d573fa47f1360d1451895,,,,,,,,,,,288.7272,289.2266,,,289.4768,290.1434,right,,,,,,,,0.5,0.6605,,,,,,,289.2267,289.4768,290.1434,"[0.04335444579397751,0.025204288159806916]","[-1,-1,-1]","[0.17125919487571617,-0.08797019307425284]","[-1,-1,-1]","[0.013331466269014124,-0.18018759166743628]","[-1,-1,-1]","[-0.07762886902882628,-0.04958417338806606]","[-1,-1,-1]","[-0.18592263330191386,-0.00351959705278535]","[-1,-1,-1]","[0.11231889692342574,-0.05743436537903398]","[1,1,1]","[-0.04645106401340961,0.17139202553225796]","[1,1,1]","[0.017418234749015035,-0.060950178412299355]","[1,1,1]","[0.01336647492858983,-0.13808957002829192]","[-1,-1,-1]","[0.06271830570709556,-0.06984274895137013]","[-1,-1,-1]","[-0.08920180120174913,-0.17384535569843576]","[1,1,1]","[0.13110677734927995,-0.10729920231273062]","[1,1,1]","[-0.13839528295938566,-0.09694554200508759]","[1,1,1]","[-0.02693218284900845,-0.038399602355263976]","[1,1,1]","[0.039894508434258125,-0.015141732463519525]","[-1,-1,-1]","[-0.08287178582754981,0.06291047684057673]","[-1,-1,-1]","[0.06324403668993606,-0.17725334044302768]","[1,1,1]","[-0.05558770089111413,0.018013122890208302]","[-1,-1,-1]","[-0.10712538199309016,-0.02095433531176864]","[-1,-1,-1]","[0.07105053186208779,-0.13505592272647493]","[1,1,1]","[0.13228597218319102,0.022107097537097716]","[1,1,1]","[-0.001503078902302875,0.04021141200815706]","[-1,-1,-1]","[-0.11785491157046435,0.12884988197656758]","[-1,-1,-1]","[0.09350879849679557,0.16722871528121416]","[1,1,1]","[-0.06176311070488108,-0.11728594670861336]","[-1,-1,-1]","[-0.1349480935100961,-0.05239886937445847]","[1,1,1]","[-0.15798657282408216,0.04251886830266318]","[-1,-1,-1]","[-0.06764090435018916,0.1072042018976604]","[1,1,1]","[0.16915808423600623,0.0792086516142456]","[1,1,1]","[0.18778548733858433,0.022085909843160317]","[1,1,1]","[0.10263106233605683,0.09112818958395019]","[-1,-1,-1]","[0.0706264408794556,0.06697471887775822]","[1,1,1]","[0.02,0.02]",291.2406,0,15,15,100,1,,,,,,,
,,,,,,,664b8cea76bb80570322160f,682f0fbfb2638f18ed4a125b,2025-05-22_12h52.30.047,cuing_paradigm_dot,2024.1.5,Win32,142.8571429,682d573fa47f1360d1451895,,,,,,,,,,,291.2409,291.7405,,,291.9909,292.3587,right,,,,,,,,0.5,0.3548,,,,,,,291.7405,291.9908,292.3587,"[0.15884837129558374,0.014982005356609505]","[1,1,1]","[-0.04161455205967583,0.15951372519882207]","[1,1,1]","[-0.004502377002004947,0.09334381085468077]","[1,1,1]","[0.1120773385647516,-0.153398724890962]","[-1,-1,-1]","[-0.18218620417349307,0.030200358722690834]","[-1,-1,-1]","[0.06051986623380605,-0.18230124231383782]","[1,1,1]","[-0.1483099007225572,-0.09075312773155088]","[-1,-1,-1]","[-0.06227494810042015,-0.13788150832420573]","[-1,-1,-1]","[-0.03363501973526483,0.05907280050607062]","[1,1,1]","[0.08754584316201718,0.1656962705705742]","[1,1,1]","[-0.10749379682754125,0.12958616362338413]","[1,1,1]","[-0.10758810158060346,0.03588921969784078]","[1,1,1]","[0.0415204983271002,0.062369673100574195]","[1,1,1]","[0.09781172870512105,-0.050509057691002404]","[1,1,1]","[-0.12541298955631722,-0.03309089118090365]","[-1,-1,-1]","[0.039263577289650096,-0.06456802179566405]","[1,1,1]","[0.002032104876018335,-0.013359654053567023]","[1,1,1]","[0.04427343952232801,0.15751133963571287]","[-1,-1,-1]","[-0.03527834525413382,-0.059419303575730636]","[1,1,1]","[-0.1273594978756179,0.07348317187244459]","[1,1,1]","[0.0633093696248911,0.026969349800607306]","[-1,-1,-1]","[0.09479728507305246,0.12256934422800699]","[-1,-1,-1]","[-0.17656469654949236,-0.05061042819216547]","[-1,-1,-1]","[0.02694115934896231,-0.14989484814956552]","[-1,-1,-1]","[-0.05833010347424882,0.10205659474504289]","[1,1,1]","[0.05156200870528431,-0.10728186977567249]","[-1,-1,-1]","[-0.07577627272039064,-0.07973272692779541]","[-1,-1,-1]","[0.1866649263725913,0.06052611046027321]","[-1,-1,-1]","[-0.010869743222074534,0.19592482047271817]","[-1,-1,-1]","[-0.11973636732708498,-0.14710713591859356]","[-1,-1,-1]","[-0.17178421066800792,0.07525424928658345]","[-1,-1,-1]","[0.13950991020107828,0.08655310307442855]","[1,1,1]","[0.02,0.02]",293.4558,0,16,16,99,1,,,,,,,
,,,,,,,664b8cea76bb80570322160f,682f0fbfb2638f18ed4a125b,2025-05-22_12h52.30.047,cuing_paradigm_dot,2024.1.5,Win32,142.8571429,682d573fa47f1360d1451895,,,,,,,,,,,293.4562,293.9558,,,294.206,294.9907,right,,,,,,,,0.45,0.7725,,,,,,,293.9558,294.206,294.9907,"[0.06989463156002731,-0.1504732429848594]","[1,1,1]","[0.09723830302754077,0.15013506137052648]","[-1,-1,-1]","[0.11944225478192287,-0.03946089697577784]","[1,1,1]","[-0.0675871763252342,0.07670729860920099]","[1,1,1]","[0.12205355455376514,-0.13295165476186693]","[1,1,1]","[0.15040802476629095,0.013087579227985261]","[1,1,1]","[0.13991225446353875,-0.09675911340196075]","[-1,-1,-1]","[0.08174804445513116,0.04993088985315793]","[-1,-1,-1]","[0.0626541776885832,0.007988301518087913]","[-1,-1,-1]","[-0.16827720294574444,0.06159833857349945]","[-1,-1,-1]","[-0.06027817019262131,-0.16641582710337025]","[-1,-1,-1]","[-0.12620861787027987,-0.006067037697534381]","[-1,-1,-1]","[0.1963662087056761,-0.004776879617957083]","[-1,-1,-1]","[0.019238163687278466,-0.012223229598380366]","[-1,-1,-1]","[-0.03992403184936811,-0.06039309925957092]","[-1,-1,-1]","[0.05895686835447772,-0.08505240862046018]","[-1,-1,-1]","[-0.15838447461054972,-0.04111587083794439]","[-1,-1,-1]","[-0.022100331743363906,0.014366452593854552]","[-1,-1,-1]","[0.03910087364990402,0.0437425577799016]","[1,1,1]","[0.0436128404365018,0.08969261771240195]","[1,1,1]","[-0.11470487701700133,0.16359498565158284]","[1,1,1]","[-0.08237647398523816,0.027388303257100757]","[1,1,1]","[-0.008783839896387924,0.07050524521860699]","[-1,-1,-1]","[0.0014526076317831222,0.14384931283214322]","[1,1,1]","[-0.09768520694579128,-0.05006393368844516]","[-1,-1,-1]","[0.12153087974249656,0.07003957645445345]","[1,1,1]","[-0.02769525334429155,0.11123661966764704]","[-1,-1,-1]","[-0.11755775685378245,-0.11955583610946377]","[-1,-1,-1]","[0.030749025011598034,-0.17005558648041988]","[1,1,1]","[0.01665147498088179,0.1955087958759924]","[1,1,1]","[0.17582413449462,-0.07497641647237209]","[1,1,1]","[-0.07630562745911526,-0.08963776339535294]","[-1,-1,-1]","[0.02,0.02]",296.0877,0,17,17,79,1,,,,,,,
,,,,,,,664b8cea76bb80570322160f,682f0fbfb2638f18ed4a125b,2025-05-22_12h52.30.047,cuing_paradigm_dot,2024.1.5,Win32,142.8571429,682d573fa47f1360d1451895,,,,,,,,,,,296.088,296.5879,,,296.8382,297.2894,left,,,,,,,,0.9,0.4379,,,,,,,296.588,296.8382,297.2894,"[0.1056389237041682,0.11999888428376422]","[1,1,1]","[-0.06489502312642981,0.07194401916883572]","[1,1,1]","[0.10437724678044376,-0.0923920479642462]","[1,1,1]","[0.1154482245934084,0.0230246470081151]","[1,1,1]","[0.15228740373734873,0.05427679088081048]","[1,1,1]","[-0.0784609939318182,-0.1664180113350207]","[-1,-1,-1]","[0.015792577376983755,0.05553315482620029]","[1,1,1]","[-0.16557950462678073,-0.05183201150071723]","[1,1,1]","[-0.071944797187554,0.12117993172671382]","[1,1,1]","[-0.054337212528383784,0.15903948170651064]","[1,1,1]","[0.05684092162573731,0.06927804071303399]","[1,1,1]","[-0.002426747242030217,-0.1644695890761938]","[1,1,1]","[0.050128030274188606,0.1605162390244801]","[1,1,1]","[-0.15108152336302452,-0.00115962232694187]","[1,1,1]","[-0.018237188115405718,-0.01650028804106182]","[1,1,1]","[0.18953434584594875,-0.00836404080594895]","[1,1,1]","[0.13331403839616393,-0.022987333063243385]","[1,1,1]","[0.0760297123973325,-0.17196205176551138]","[-1,-1,-1]","[0.1539770491951237,-0.11543421581720074]","[-1,-1,-1]","[0.16814245963352503,-0.07664666490613252]","[1,1,1]","[-0.0024883283517217612,0.16745851628929068]","[1,1,1]","[-0.05024928845229468,0.03423678554041298]","[1,1,1]","[-0.0032912889956283,0.12063149819092796]","[1,1,1]","[-0.08807309986928462,-0.07154876762402725]","[1,1,1]","[-0.08398137798293163,-0.016263844785448973]","[1,1,1]","[0.07215024939358837,-0.12126528030785182]","[1,1,1]","[-0.15111239661052,-0.10506943175337062]","[1,1,1]","[0.15896395251246417,0.1161664186894471]","[1,1,1]","[0.03231702143370407,-0.18429724520912869]","[1,1,1]","[-0.14200202315817403,0.11971283111108497]","[1,1,1]","[-0.0781024151017594,-0.11527928419193953]","[1,1,1]","[0.0548155437242844,-0.0821004359760982]","[1,1,1]","[0.02,0.02]",298.3865,0,18,18,189,1,,,,,,,
,,,,,,,664b8cea76bb80570322160f,682f0fbfb2638f18ed4a125b,2025-05-22_12h52.30.047,cuing_paradigm_dot,2024.1.5,Win32,142.8571429,682d573fa47f1360d1451895,,,,,,,,,,,298.3869,298.8865,,,299.1368,299.5809,left,,,,,,,,0.9,0.4342,,,,,,,298.8865,299.1368,299.5811,"[0.024271453756554075,0.11688347636004111]","[1,1,1]","[-0.03827668370536661,-0.1411476123026622]","[1,1,1]","[0.15952142346914344,0.010969973522377637]","[1,1,1]","[0.14356736485051128,0.09299744366430636]","[1,1,1]","[0.026067978386123583,-0.04069828610162116]","[1,1,1]","[0.08334458399108687,0.10049155266263923]","[-1,-1,-1]","[0.037346200725125275,-0.13696784120223143]","[1,1,1]","[0.015484482561742395,0.18600916833383885]","[1,1,1]","[-0.09095789561922418,0.0822231134544471]","[1,1,1]","[0.03379863308297464,0.03334931577391833]","[1,1,1]","[-0.11400853119554709,0.14229933587146612]","[1,1,1]","[-0.035299051743471206,-0.046339646723487046]","[1,1,1]","[0.17381561997792347,-0.02652647899970555]","[1,1,1]","[-0.12893305365185495,0.04467526951165785]","[1,1,1]","[0.11812908052648344,0.031059282714039075]","[1,1,1]","[0.10823223345432126,-0.047499249270235924]","[1,1,1]","[0.15225965511840467,-0.061827196192979876]","[1,1,1]","[-0.09485376274639636,0.018998335750728495]","[1,1,1]","[-0.14942938636519976,-0.048330357970498436]","[-1,-1,-1]","[-0.030994273858441227,0.08582829644156138]","[1,1,1]","[0.10189941299399662,0.1439765302317473]","[1,1,1]","[0.0695969576057961,-0.18218295663073275]","[-1,-1,-1]","[-0.10000264627263167,-0.15310592418124763]","[1,1,1]","[-0.09816847978540161,-0.10883223175826151]","[1,1,1]","[0.06306343677943946,0.16741471912304204]","[1,1,1]","[-0.06199012280385059,0.17905151644497064]","[1,1,1]","[-0.16147256730735313,0.0051729534763736195]","[1,1,1]","[-0.04973371936552663,-0.1885898240747991]","[1,1,1]","[0.04552304513645707,0.07911504819088815]","[1,1,1]","[-0.16997509739771732,0.06565172349701984]","[1,1,1]","[-0.026810418190428703,-0.10120375677421704]","[1,1,1]","[-0.048991482423294846,0.025678658308870193]","[1,1,1]","[0.02,0.02]",300.6782,0,19,19,200,1,,,,,,,
,,,,,,,664b8cea76bb80570322160f,682f0fbfb2638f18ed4a125b,2025-05-22_12h52.30.047,cuing_paradigm_dot,2024.1.5,Win32,142.8571429,682d573fa47f1360d1451895,,,,,,,,,,,300.6785,301.1783,,,301.4284,301.9491,right,,,,,,,,0.5,0.5074,,,,,,,301.1784,301.4284,301.9491,"[-0.03673905591353595,0.060289886210774676]","[1,1,1]","[0.03557165313711293,0.12374207948216004]","[-1,-1,-1]","[0.12957460309959515,-0.11864520953879695]","[1,1,1]","[0.13733897424173563,0.06750201335667794]","[1,1,1]","[0.033964442186348594,-0.09861194477435933]","[1,1,1]","[0.06972303882958504,0.08243034452407676]","[1,1,1]","[0.06021095280794304,0.17186259675690685]","[-1,-1,-1]","[0.0345051538874815,0.041143764471059115]","[1,1,1]","[0.17640510803889847,-0.0717402123184498]","[-1,-1,-1]","[-0.08391538102988413,-0.04023991756482289]","[-1,-1,-1]","[-0.0593765237775634,0.10573624285031893]","[1,1,1]","[0.026939883550977504,-0.16123924174122853]","[1,1,1]","[0.03786831373347944,-0.02761383536956321]","[1,1,1]","[-0.045145337150568926,-0.11655473189548723]","[-1,-1,-1]","[-0.1540916579742155,-0.08965040617841534]","[-1,-1,-1]","[0.16872948037728944,-0.01939960124555501]","[1,1,1]","[-0.13406854112868585,0.11912326223260823]","[-1,-1,-1]","[-0.10424215794349888,-0.12264495653369369]","[-1,-1,-1]","[-0.019377554622715773,0.16474346535998205]","[1,1,1]","[-0.17030397783174503,0.021975461612918655]","[-1,-1,-1]","[-0.07518789287764834,0.03852497494608002]","[-1,-1,-1]","[-0.08883098783938577,0.15290832900521056]","[-1,-1,-1]","[0.19231939094450812,0.031266929489661595]","[1,1,1]","[-0.031382986205891694,-0.16293981100276012]","[1,1,1]","[0.027105674547677896,0.08423107106881837]","[1,1,1]","[0.08484556292142009,-0.1273818105029988]","[-1,-1,-1]","[0.07944041650787817,-0.0012294090379621448]","[-1,-1,-1]","[0.12301365232498294,0.13920083054031943]","[1,1,1]","[0.09039652618750595,-0.049051359106728185]","[1,1,1]","[-0.12537279605171653,-0.046946805072636204]","[-1,-1,-1]","[0.10622874345625653,-0.16845973472694792]","[-1,-1,-1]","[-0.11160227482436938,0.017593593834620412]","[-1,-1,-1]","[0.02,0.02]",303.0463,0,20,20,95,1,,,,,,,
,,,,,,,664b8cea76bb80570322160f,682f0fbfb2638f18ed4a125b,2025-05-22_12h52.30.047,cuing_paradigm_dot,2024.1.5,Win32,142.8571429,682d573fa47f1360d1451895,,,,,,,,,,,303.0466,303.5463,,,303.7984,305.0189,right,,,,,,,,0.55,1.2145,,,,,,,303.5463,303.7984,305.0189,"[0.12010594561220894,0.0798548076940431]","[-1,-1,-1]","[0.12351850656465106,-0.07547115208892297]","[-1,-1,-1]","[-0.013670927924321931,-0.16172058117310692]","[-1,-1,-1]","[-0.15443234514009188,0.10286551433869326]","[1,1,1]","[-0.04099747163027818,0.021816497168007123]","[1,1,1]","[0.07145836024953395,0.1864755679295003]","[-1,-1,-1]","[-0.07559435440134928,-0.08240210885674772]","[-1,-1,-1]","[0.1812380967803103,-0.000008342241086255747]","[1,1,1]","[-0.10658959783687606,-0.04918760611350608]","[-1,-1,-1]","[-0.05889998476183372,0.18211392269733542]","[1,1,1]","[0.05090043342809677,-0.1486674373875191]","[1,1,1]","[0.00999406339834981,-0.04307039551463991]","[-1,-1,-1]","[-0.09164129390200862,-0.12274962346219637]","[-1,-1,-1]","[-0.1490304216391193,0.01796252415368207]","[-1,-1,-1]","[0.015173807403147596,0.00436623217089656]","[-1,-1,-1]","[-0.001825475666389699,-0.1155941179871524]","[1,1,1]","[-0.06829349717495925,0.09843125153725832]","[1,1,1]","[-0.11224410555002957,0.16439473078575628]","[1,1,1]","[0.13998122427759205,0.04388694841918955]","[-1,-1,-1]","[-0.09141302903146833,0.037687189310095896]","[1,1,1]","[0.035098188850035406,0.14905727554184237]","[1,1,1]","[0.06510678150431694,0.11284688668326247]","[-1,-1,-1]","[0.12108048496773109,-0.02338952189766967]","[1,1,1]","[-0.018246348606347905,0.09267388897946241]","[1,1,1]","[-0.17583407061741888,0.06107332889825619]","[-1,-1,-1]","[-0.15509724825234142,-0.07634568452902808]","[1,1,1]","[0.053989395940780525,0.03200670598142996]","[1,1,1]","[0.0042917137887661825,0.19607713710104138]","[1,1,1]","[0.08535213907067199,-0.09436242274555029]","[-1,-1,-1]","[-0.10825227710402777,-0.16445460562106598]","[1,1,1]","[0.1278317701609696,-0.151670738858028]","[1,1,1]","[0.1511522467182967,0.12386373808294532]","[1,1,1]","[0.02,0.02]",306.1159,0,21,21,134,1,,,,,,,
,,,,,,,664b8cea76bb80570322160f,682f0fbfb2638f18ed4a125b,2025-05-22_12h52.30.047,cuing_paradigm_dot,2024.1.5,Win32,142.8571429,682d573fa47f1360d1451895,,,,,,,,,,,306.1164,306.6158,,,306.8662,307.5534,left,,,,,,,,0.5,0.6749,,,,,,,306.6158,306.8662,307.5535,"[0.0907708375694109,0.049353715359948806]","[-1,-1,-1]","[-0.08015784047526794,0.06912670367762241]","[1,1,1]","[0.00008337179008447953,0.044493418850634285]","[-1,-1,-1]","[-0.13075085054715535,-0.11441214273615831]","[1,1,1]","[0.17642224744444363,-0.04172186552780619]","[-1,-1,-1]","[0.01221196687876854,0.09213226217842746]","[-1,-1,-1]","[-0.09692346030223567,0.1545592468054568]","[1,1,1]","[-0.046693400761556834,0.1118342161838342]","[-1,-1,-1]","[-0.07247421150139563,-0.07991709272955647]","[-1,-1,-1]","[0.043237136980468695,-0.08177977114641338]","[-1,-1,-1]","[-0.131629817548478,-0.0052602069782456615]","[1,1,1]","[-0.037510875388496054,-0.11378976390327568]","[-1,-1,-1]","[0.10407876913298543,-0.1613764975982653]","[1,1,1]","[-0.001702985536139256,-0.1661512914936398]","[-1,-1,-1]","[-0.13481951848912568,0.121235223077864]","[-1,-1,-1]","[0.12951844962976578,0.10478571826406934]","[1,1,1]","[-0.17707550683552495,0.05361017623465143]","[-1,-1,-1]","[0.0504956740516586,-0.15107831263766203]","[1,1,1]","[0.12719659759015825,-0.09850110457720943]","[-1,-1,-1]","[0.10036666944535903,0.14603716807106062]","[1,1,1]","[0.03504435942076298,0.12612275653264893]","[1,1,1]","[0.006164925957020643,-0.11621924231152501]","[1,1,1]","[-0.03056186946409975,-0.00012808336934465797]","[-1,-1,-1]","[0.005231982266120321,0.15280466954323438]","[-1,-1,-1]","[0.1105061437893261,0.00278287760988423]","[1,1,1]","[0.19544509675477673,0.004265115152871655]","[-1,-1,-1]","[0.16698721612456233,-0.086111763462595]","[1,1,1]","[0.031206478797552586,-0.005575506670919352]","[1,1,1]","[0.06380197257951606,-0.0464371092111966]","[1,1,1]","[-0.043089467734689364,-0.038188348351197395]","[1,1,1]","[-0.055278855768933224,0.1809590012318921]","[1,1,1]","[-0.13098971095995007,-0.06435690188411336]","[-1,-1,-1]","[0.02,0.02]",308.6507,0,22,22,111,1,,,,,,,
,,,,,,,664b8cea76bb80570322160f,682f0fbfb2638f18ed4a125b,2025-05-22_12h52.30.047,cuing_paradigm_dot,2024.1.5,Win32,142.8571429,682d573fa47f1360d1451895,,,,,,,,,,,308.6511,309.1507,,,309.401,309.741,left,,,,,,,,0.9,0.3291,,,,,,,309.1508,309.401,309.741,"[0.17998085880068732,-0.08104892670644956]","[1,1,1]","[0.06904027762513186,0.002737830436581388]","[-1,-1,-1]","[-0.11097384940443494,0.15624757869165146]","[1,1,1]","[-0.03726394919948236,-0.14260260879943537]","[1,1,1]","[-0.07699647743346585,-0.06237572335990682]","[1,1,1]","[-0.17139503516845017,-0.04026061994492147]","[1,1,1]","[0.0449905865559672,0.13384770691088857]","[1,1,1]","[-0.09948905998849086,-0.09968806325655605]","[1,1,1]","[-0.08707582610387068,-0.1742653780332808]","[1,1,1]","[0.17150543710767324,-0.03846835759988304]","[1,1,1]","[-0.017020714583932405,0.17123095545930553]","[1,1,1]","[0.05076951775611733,0.17494300237804264]","[1,1,1]","[0.17089304006708478,0.01663617190755466]","[1,1,1]","[0.07780570557449086,-0.07271769323123053]","[-1,-1,-1]","[0.12044320914937492,-0.10452335492526536]","[1,1,1]","[-0.029325512138272558,-0.19481393464736346]","[1,1,1]","[-0.15207761369305664,-0.12519726923799002]","[1,1,1]","[-0.03304524032429036,-0.08550918253431622]","[1,1,1]","[-0.055403022698492274,0.07503602115758926]","[-1,-1,-1]","[0.012249887433789353,0.06807346729587996]","[1,1,1]","[-0.13880347458190018,0.047025454352844144]","[1,1,1]","[0.15510657264254196,0.12529976644189894]","[1,1,1]","[0.12922912602948047,-0.03348959653261956]","[1,1,1]","[0.057181396022295786,0.0839822882298263]","[1,1,1]","[0.03463986692853365,-0.14529299660056147]","[1,1,1]","[0.11610205505880163,-0.15761427413129203]","[1,1,1]","[0.03103414317368452,-0.07961390088986414]","[1,1,1]","[-0.11343439978409871,0.08878041299066834]","[1,1,1]","[-0.026225214193442183,0.0070252144080770445]","[1,1,1]","[0.12050610532753121,0.03140755836703926]","[1,1,1]","[0.10821691068440815,0.14581721469873685]","[1,1,1]","[-0.1611155122702203,0.11537941722973191]","[1,1,1]","[0.02,0.02]",310.8383,0,23,23,203,1,,,,,,,
,,,,,,,664b8cea76bb80570322160f,682f0fbfb2638f18ed4a125b,2025-05-22_12h52.30.047,cuing_paradigm_dot,2024.1.5,Win32,142.8571429,682d573fa47f1360d1451895,,,,,,,,,,,310.8386,311.3384,,,311.5882,312.6996,left,,,,,,,,0.45,1.098,,,,,,,311.3384,311.5882,312.6996,"[-0.1225464884850554,0.07927225028003124]","[-1,-1,-1]","[-0.16674553054871175,-0.048140253084913695]","[-1,-1,-1]","[0.09411991562634421,0.17307779393456155]","[1,1,1]","[-0.04876613083368718,-0.008780838043335472]","[1,1,1]","[0.019977624411500826,-0.13160869974366815]","[-1,-1,-1]","[0.07110482856417233,-0.030618384813046212]","[1,1,1]","[0.09362468740337916,-0.1223821908229244]","[-1,-1,-1]","[0.013528563970637364,-0.19686148659484237]","[1,1,1]","[0.04530754472077501,-0.09997900829630298]","[-1,-1,-1]","[0.15944333638413052,0.05517799027419689]","[1,1,1]","[-0.0528851615813302,0.13198776528941988]","[-1,-1,-1]","[-0.1041263816429691,0.13932187961648793]","[-1,-1,-1]","[-0.011254593793903983,0.0745309143993692]","[-1,-1,-1]","[-0.048704738830670176,-0.142576230476874]","[1,1,1]","[-0.19263640941017793,0.006836732314261334]","[1,1,1]","[0.1490549794633394,-0.09704461268241044]","[-1,-1,-1]","[0.05595965227412188,0.041952639842166656]","[1,1,1]","[-0.01402802556426968,-0.06870733813104997]","[-1,-1,-1]","[0.007694854971656706,0.006211280350691966]","[1,1,1]","[-0.11494263484042809,0.024899478429346977]","[1,1,1]","[-0.15913384132312655,0.04264714561961417]","[-1,-1,-1]","[-0.17250658305962815,0.09721803309873188]","[1,1,1]","[0.12459309512612603,-0.030723623338315614]","[-1,-1,-1]","[-0.00003016938587429002,0.14279961587183684]","[-1,-1,-1]","[-0.07854700324845558,0.0860363574184816]","[-1,-1,-1]","[0.1602810162364225,0.11604352077839244]","[1,1,1]","[0.09419446154313056,0.11646481458505269]","[-1,-1,-1]","[-0.08166823829696326,-0.1782191126937576]","[-1,-1,-1]","[0.02112082404292365,0.1781200523305227]","[-1,-1,-1]","[-0.1408645779784254,-0.103084781549445]","[1,1,1]","[0.06208279108331766,-0.1574867937339398]","[1,1,1]","[0.10109205691841798,0.02924666118183764]","[-1,-1,-1]","[0.02,0.02]",313.7967,0,24,24,67,1,,,,,,,
,,,,,,,664b8cea76bb80570322160f,682f0fbfb2638f18ed4a125b,2025-05-22_12h52.30.047,cuing_paradigm_dot,2024.1.5,Win32,142.8571429,682d573fa47f1360d1451895,,,,,,,,,,,313.7969,314.2965,,,314.547,315.1648,left,,,,,,,,0.6,0.6069,,,,,,,314.2965,314.5469,315.1648,"[-0.09421379023649715,0.1264824507317567]","[1,1,1]","[-0.04075058477116372,0.1335632920291173]","[1,1,1]","[0.13295988979445159,-0.029196302123942353]","[-1,-1,-1]","[0.0735699312601272,-0.05944466397991556]","[-1,-1,-1]","[-0.0946906814233201,-0.17396954984496713]","[-1,-1,-1]","[0.02829055813697795,-0.14201725565337828]","[1,1,1]","[-0.1452415045476871,0.07920300832522387]","[-1,-1,-1]","[0.03956342132758424,0.16962671794894138]","[1,1,1]","[0.013138910714905203,-0.19638856010391456]","[-1,-1,-1]","[-0.006773811345706575,-0.09886079304364533]","[1,1,1]","[-0.02383800006404772,-0.14029429728243986]","[1,1,1]","[0.12831683568936095,-0.14679218832738544]","[1,1,1]","[0.12085308370472791,0.0662443641891096]","[1,1,1]","[0.10464411225824335,-0.09834919321066343]","[-1,-1,-1]","[-0.06602472828684554,0.17309804665360437]","[1,1,1]","[0.08094473861481825,-0.014982696403106666]","[-1,-1,-1]","[-0.016305417397830414,0.0886284837357278]","[1,1,1]","[-0.14332386102512684,-0.06174795180802296]","[-1,-1,-1]","[-0.019666934539234873,-0.00833049857062949]","[1,1,1]","[0.039820353702815364,0.12199403780913258]","[1,1,1]","[-0.12595578131109963,0.01637427602147031]","[1,1,1]","[0.02988964646553252,0.06563268620439482]","[1,1,1]","[0.1736760880248289,0.0273271043271922]","[-1,-1,-1]","[0.16202965876990286,0.08980502998620483]","[-1,-1,-1]","[0.07568410403055528,0.05961681681897299]","[1,1,1]","[0.039561704097719516,-0.02238028049969089]","[1,1,1]","[-0.09398430902314386,-0.12483825625754608]","[1,1,1]","[0.0772668856532685,0.13720054667389547]","[1,1,1]","[-0.01952278343789903,0.04856810384118939]","[-1,-1,-1]","[0.02375998097714594,0.019372452353596768]","[-1,-1,-1]","[-0.19447283534051243,-0.045198244650181726]","[1,1,1]","[-0.09007851371009361,-0.0444053164260592]","[-1,-1,-1]","[0.02,0.02]",316.262,0,25,25,176,1,,,,,,,
,,,,,,,664b8cea76bb80570322160f,682f0fbfb2638f18ed4a125b,2025-05-22_12h52.30.047,cuing_paradigm_dot,2024.1.5,Win32,142.8571429,682d573fa47f1360d1451895,,,,,,,,,,,316.2623,316.7621,,,317.0122,317.3871,left,,,,,,,,0.9,0.3633,,,,,,,316.7621,317.0122,317.3872,"[-0.011845445343902921,-0.0390600775750985]","[1,1,1]","[0.10313995953379013,0.013233391162055082]","[1,1,1]","[0.03535969776577103,-0.013620272002192587]","[1,1,1]","[-0.02219084903067863,0.12902825767749757]","[1,1,1]","[-0.11137558543885834,0.02458124978716584]","[1,1,1]","[0.05471452163862407,-0.11870110802792481]","[1,1,1]","[-0.009499818388201322,0.07956028712721587]","[1,1,1]","[-0.08954726509419518,0.07512686944615903]","[1,1,1]","[-0.011776446275291648,0.007359889134809427]","[1,1,1]","[-0.0871503135714676,-0.16682299436864578]","[1,1,1]","[-0.07386658907521354,-0.02802368921855425]","[1,1,1]","[-0.07461338150973226,-0.09534242949059532]","[1,1,1]","[-0.1343126257355407,-0.12159637304647337]","[-1,-1,-1]","[0.028285300711686594,0.11133415842519173]","[1,1,1]","[-0.06168547367232681,0.039576320737126226]","[1,1,1]","[-0.1561858344595426,0.04057427461096206]","[1,1,1]","[0.05178822008135488,-0.18719637561759758]","[1,1,1]","[0.19544650197857488,-0.03121850428527374]","[1,1,1]","[0.023886492220437833,0.028415200973986896]","[-1,-1,-1]","[-0.07736103478882461,0.18299993199429304]","[1,1,1]","[0.09993747705737428,-0.11333521806297828]","[1,1,1]","[-0.1264317423238549,-0.03190825238548284]","[1,1,1]","[-0.19563613652030853,-0.030654407376605342]","[1,1,1]","[-0.14473618004960825,0.10641170684057727]","[1,1,1]","[-0.19322253892949576,0.023737987430956578]","[1,1,1]","[-0.02801450619275902,0.18273410148813124]","[1,1,1]","[0.12820498441999875,0.11159577591999273]","[1,1,1]","[0.11999305760867708,-0.0784243804124672]","[1,1,1]","[0.0009912762434375574,-0.18347832694425983]","[1,1,1]","[0.04860245144126254,0.1871162022561252]","[-1,-1,-1]","[0.14833294696027385,0.0010930452810917347]","[1,1,1]","[0.11456274415699923,0.06580481051779967]","[1,1,1]","[0.02,0.02]",318.4841,0,26,26,195,1,,,,,,,
,,,,,,,664b8cea76bb80570322160f,682f0fbfb2638f18ed4a125b,2025-05-22_12h52.30.047,cuing_paradigm_dot,2024.1.5,Win32,142.8571429,682d573fa47f1360d1451895,,,,,,,,,,,318.4843,318.9842,,,319.2344,319.5541,left,,,,,,,,0.9,0.3108,,,,,,,318.9842,319.2344,319.5542,"[0.08310867368247604,-0.15458696848707829]","[1,1,1]","[-0.04883938913064277,0.03728834308242877]","[-1,-1,-1]","[0.09474222911080231,0.1030258510294613]","[1,1,1]","[-0.03553514651166433,-0.06069790025913131]","[1,1,1]","[-0.17459903332921015,0.03519304581691021]","[1,1,1]","[0.04466855005041495,-0.127496347023096]","[1,1,1]","[-0.03339050591869428,0.085612648371071]","[1,1,1]","[-0.10866945584589895,-0.06164178081765254]","[1,1,1]","[0.005110738198854286,0.020077477592320828]","[1,1,1]","[-0.13943074554748316,-0.12190927769001883]","[1,1,1]","[0.023507247557683915,0.10328687823311833]","[-1,-1,-1]","[0.12456111652896999,-0.033257283307093356]","[1,1,1]","[0.02657408781222512,-0.028161043519651895]","[1,1,1]","[0.13821915008505312,0.0351852191169857]","[1,1,1]","[-0.18899712972647525,-0.021594655256685205]","[1,1,1]","[0.18092526139387344,0.0838969697851087]","[1,1,1]","[-0.1020775859985804,-0.0023245450297607207]","[1,1,1]","[-0.024382313372697424,0.1926730913205725]","[1,1,1]","[0.08650988225757761,-0.062019027291499385]","[1,1,1]","[-0.028962411612049356,-0.008338922585922993]","[1,1,1]","[-0.02634010928054316,-0.10722246156930139]","[1,1,1]","[-0.08144147372855935,-0.151465581089172]","[1,1,1]","[0.10031768287373412,-0.09990332272827879]","[1,1,1]","[-0.13824065059136637,0.12277356577285761]","[1,1,1]","[0.09801100740362124,0.051276996606498655]","[1,1,1]","[0.1069414786330511,0.1664201936243923]","[1,1,1]","[-0.0035784204775090598,-0.14262609817036553]","[1,1,1]","[-0.0713866145262216,0.16302799817736266]","[1,1,1]","[-0.06969864292701802,0.11154754708135722]","[1,1,1]","[0.025419842475573908,-0.07848773653193059]","[-1,-1,-1]","[-0.11122058286890665,0.06626451324538181]","[1,1,1]","[0.18038495471972135,-0.018453400079817793]","[1,1,1]","[0.02,0.02]",320.6509,0,27,27,188,1,,,,,,,
,,,,,,,664b8cea76bb80570322160f,682f0fbfb2638f18ed4a125b,2025-05-22_12h52.30.047,cuing_paradigm_dot,2024.1.5,Win32,142.8571429,682d573fa47f1360d1451895,,,,,,,,,,,320.6512,321.1511,,,321.4009,322.7204,right,,,,,,,,0.45,1.3056,,,,,,,321.1511,321.4009,322.7206,"[0.018900322831176868,0.08011333378654813]","[1,1,1]","[-0.18439937918859864,-0.029197531191152353]","[-1,-1,-1]","[-0.06418314703872079,0.1774943906832677]","[1,1,1]","[-0.017893056802949236,-0.1922207877498876]","[-1,-1,-1]","[-0.07405739781002023,0.12918827978563452]","[-1,-1,-1]","[0.13694918987505578,0.005747693731848042]","[1,1,1]","[0.12095333370219022,0.11844939226531234]","[-1,-1,-1]","[-0.1142178600750653,-0.021469422584663878]","[-1,-1,-1]","[0.09947563808741289,-0.05230060564716284]","[1,1,1]","[-0.05720664562978035,0.0016055924622114662]","[-1,-1,-1]","[0.030514987013560528,-0.0807277603335876]","[-1,-1,-1]","[0.04634055201452726,0.01444646361574406]","[1,1,1]","[-0.07977886949024461,-0.09593549278672663]","[1,1,1]","[0.10644545032456791,0.04444885284240138]","[1,1,1]","[-0.1713572493361342,0.041783934551735395]","[-1,-1,-1]","[0.08727018960039008,0.09502971439100108]","[1,1,1]","[0.02779528101418932,-0.19319472420608105]","[-1,-1,-1]","[0.044931937268064326,-0.12123900044650429]","[1,1,1]","[0.12491122409912704,-0.0839139127405262]","[-1,-1,-1]","[0.0060303118332030205,-0.024892204229917475]","[-1,-1,-1]","[0.06109552910553038,-0.023752113037753746]","[-1,-1,-1]","[0.137789400940365,-0.13667902223714162]","[-1,-1,-1]","[-0.004155794485448507,0.19093488996617455]","[1,1,1]","[-0.031724830075422435,0.07698925942240067]","[-1,-1,-1]","[0.1776655691633139,-0.05516236747977184]","[1,1,1]","[-0.1290372050566773,0.12283661677620317]","[-1,-1,-1]","[-0.12235851844664998,0.07628430393256637]","[1,1,1]","[-0.12236589609011692,-0.12599194730747368]","[1,1,1]","[0.06915545314748626,0.16439151684296732]","[-1,-1,-1]","[-0.0031030782221199526,0.11997825702356359]","[1,1,1]","[0.18564502255118112,-0.008797857522382616]","[-1,-1,-1]","[0.13902456804631835,-0.04109064726495722]","[-1,-1,-1]","[0.02,0.02]",323.8177,0,28,28,87,1,,,,,,,
,,,,,,,664b8cea76bb80570322160f,682f0fbfb2638f18ed4a125b,2025-05-22_12h52.30.047,cuing_paradigm_dot,2024.1.5,Win32,142.8571429,682d573fa47f1360d1451895,,,,,,,,,,,323.818,324.3178,,,324.5678,324.8455,left,,,,,,,,0.9,0.2659,,,,,,,324.3178,324.5678,324.8456,"[-0.03746078631462656,0.12031003746698182]","[1,1,1]","[-0.09426983651967139,0.015831250101083612]","[1,1,1]","[0.12888651068728804,-0.14977888494156869]","[-1,-1,-1]","[-0.126865570833358,-0.058877965515841665]","[1,1,1]","[-0.006027162297348293,-0.12165277103735847]","[1,1,1]","[-0.18386673219398594,0.06874089673849662]","[1,1,1]","[0.038816641187210094,0.038738424446293995]","[1,1,1]","[-0.16237160128022196,-0.10315860422889758]","[1,1,1]","[-0.1281853292720796,0.1375787123107596]","[1,1,1]","[-0.17932142157090217,-0.04663215007447923]","[1,1,1]","[-0.014688454068421368,0.1770110166885487]","[1,1,1]","[0.05179864935134059,-0.02656095187992177]","[1,1,1]","[0.11546793267795769,0.0806742174757656]","[-1,-1,-1]","[0.0930407170364935,-0.05606833114379258]","[1,1,1]","[0.17015600269194772,0.09715656055786626]","[1,1,1]","[-0.09035052990540719,0.08800097705849622]","[1,1,1]","[-0.06308700993838443,-0.06548397225811721]","[1,1,1]","[0.04087112833277318,-0.17685919168491213]","[1,1,1]","[0.1347651692064785,0.13555075710897407]","[1,1,1]","[0.17621716094142728,0.0003246037353380581]","[1,1,1]","[0.1761352923521069,-0.08175508343323497]","[1,1,1]","[-0.13483948249883018,0.0889912047464019]","[1,1,1]","[0.054735963918127586,0.17356226066402392]","[1,1,1]","[0.012024403251493449,-0.07785655569309698]","[1,1,1]","[-0.06665971362967343,0.052544538966077615]","[1,1,1]","[-0.1602801101733707,0.03139503594151036]","[1,1,1]","[0.08566476870354615,-0.13916505801484902]","[-1,-1,-1]","[-0.030821765313995223,0.07805744409358692]","[1,1,1]","[0.029530074287806286,0.12346200177678977]","[1,1,1]","[0.09145971821478813,-0.003606996483061818]","[1,1,1]","[-0.06565454477394748,-0.10679333335688608]","[1,1,1]","[0.08375918359078141,0.11547096167691973]","[1,1,1]","[0.02,0.02]",325.9429,0,29,29,209,1,,,,,,,
,,,,,,,664b8cea76bb80570322160f,682f0fbfb2638f18ed4a125b,2025-05-22_12h52.30.047,cuing_paradigm_dot,2024.1.5,Win32,142.8571429,682d573fa47f1360d1451895,,,,,,,,,,,325.9431,326.4428,,,326.6931,327.1719,right,,,,,,,,0.4,0.4667,,,,,,,326.4429,326.6931,327.1719,"[-0.11157961813216635,0.07178326491409359]","[-1,-1,-1]","[0.011636211308334563,0.07396742134471312]","[-1,-1,-1]","[0.09777642009567875,-0.08112276217069089]","[1,1,1]","[0.03959861915774876,-0.0634525420311002]","[1,1,1]","[0.02341586848093538,0.1324979600126335]","[-1,-1,-1]","[0.021703607379953156,-0.018819385509241438]","[-1,-1,-1]","[-0.10379444181914345,0.1580614472403594]","[-1,-1,-1]","[0.16580016970243333,0.022892200701454073]","[-1,-1,-1]","[0.08501106886034032,-0.16533262382933028]","[1,1,1]","[0.04877268491343515,-0.1481882719488522]","[-1,-1,-1]","[0.013452645166096244,0.1897828557019588]","[1,1,1]","[-0.12467305220212994,-0.10824516907350525]","[1,1,1]","[-0.057729243725964885,-0.1681273855925193]","[-1,-1,-1]","[-0.08214483027626465,0.034255683883232205]","[1,1,1]","[0.13398454900114515,-0.13115499714041326]","[-1,-1,-1]","[-0.061864118167296804,0.09141061730379786]","[1,1,1]","[-0.1773490321627405,0.005210292560285415]","[1,1,1]","[0.06483186491253275,0.11415382942411059]","[-1,-1,-1]","[-0.029730656739694765,0.16374006056041637]","[-1,-1,-1]","[0.0849538920897601,0.02566694153685153]","[-1,-1,-1]","[-0.012595867695419876,-0.047573112853098176]","[1,1,1]","[-0.1699502945727743,-0.08558244976955351]","[-1,-1,-1]","[-0.15013778255828222,-0.04318004456980687]","[1,1,1]","[-0.17137043505228697,0.07420802880501336]","[1,1,1]","[-0.022856666104896155,-0.10345494044132421]","[1,1,1]","[0.18930065422200962,-0.0637440981594934]","[-1,-1,-1]","[0.03306027076238422,0.022223956763405134]","[-1,-1,-1]","[0.05249086812675992,0.1654832106507453]","[1,1,1]","[-0.11884666339346764,-0.013848804313672093]","[-1,-1,-1]","[0.1378228377475379,0.08163665406322174]","[-1,-1,-1]","[0.10716939353104953,-0.016821609919587296]","[-1,-1,-1]","[-0.07963618976600585,-0.06880642641640614]","[-1,-1,-1]","[0.02,0.02]",328.2692,0,30,30,37,1,,,,,,,
,,,,,,,664b8cea76bb80570322160f,682f0fbfb2638f18ed4a125b,2025-05-22_12h52.30.047,cuing_paradigm_dot,2024.1.5,Win32,142.8571429,682d573fa47f1360d1451895,,,,,,,,,,,328.2694,328.7691,,,329.0194,330.1374,right,,,,,,,,0.5,1.1058,,,,,,,328.7691,329.0193,330.1375,"[0.11260648217234222,-0.1392049772788308]","[-1,-1,-1]","[-0.1629905866687665,-0.06512995501642366]","[-1,-1,-1]","[0.1296973244827415,-0.03760867735249133]","[-1,-1,-1]","[0.12385096195962261,0.1524044485687919]","[-1,-1,-1]","[-0.03638629430170802,-0.05684953214834256]","[-1,-1,-1]","[0.020331539357096636,0.12861779626865716]","[-1,-1,-1]","[-0.07116580583577399,0.10699118035859435]","[1,1,1]","[0.013531900426462786,0.1780525395818399]","[-1,-1,-1]","[0.07649776200821376,-0.07380121135526267]","[-1,-1,-1]","[-0.10588867910794603,0.07457001014144954]","[1,1,1]","[0.0720881583409578,-0.16928892820398667]","[1,1,1]","[-0.06288811175236768,0.0008329410178752263]","[1,1,1]","[-0.03321539686631085,0.13036707316176943]","[-1,-1,-1]","[-0.026487453407171038,-0.16786294738709484]","[1,1,1]","[-0.07268225803818235,-0.07752057700549167]","[1,1,1]","[-0.19610512178400277,0.004742511838043038]","[-1,-1,-1]","[0.13636855444088916,0.03169970982784538]","[1,1,1]","[-0.056274861303956196,0.05074224025380414]","[1,1,1]","[0.17080965250748195,0.010302953375198404]","[-1,-1,-1]","[0.0724395032399955,0.11565265110735426]","[-1,-1,-1]","[-0.09283800883684291,-0.1538083626360099]","[1,1,1]","[-0.05736172531568039,0.1784434415131463]","[1,1,1]","[0.0946535406873174,0.0629517866523131]","[1,1,1]","[-0.11065046725372836,0.023331015910536892]","[1,1,1]","[0.03106714756872581,-0.032103134103580774]","[1,1,1]","[0.046110416564081644,0.012231191081745989]","[-1,-1,-1]","[0.16148066450363255,0.10512013212089506]","[-1,-1,-1]","[-0.05507699193531184,-0.13974325049274372]","[-1,-1,-1]","[-0.15006724119054599,0.010984379182892308]","[1,1,1]","[0.09245417545130072,-0.022879568550725937]","[1,1,1]","[-0.15636454195372515,0.11486319875802711]","[-1,-1,-1]","[0.03210617875092325,-0.07414893077630577]","[1,1,1]","[0.02,0.02]",331.2345,0,31,31,118,1,,,,,,,
,,,,,,,664b8cea76bb80570322160f,682f0fbfb2638f18ed4a125b,2025-05-22_12h52.30.047,cuing_paradigm_dot,2024.1.5,Win32,142.8571429,682d573fa47f1360d1451895,,,,,,,,,,,331.2347,331.7347,,,331.9847,332.9638,left,,,,,,,,0.55,0.966,,,,,,,331.7347,331.9847,332.9638,"[0.08390014363357128,-0.17786332226944088]","[-1,-1,-1]","[-0.1347086658483549,-0.01854366415030875]","[1,1,1]","[0.11957555579411314,-0.14970678303314755]","[1,1,1]","[-0.08488338599420227,-0.11244057269976078]","[1,1,1]","[0.005606840949677894,-0.02104317754639672]","[-1,-1,-1]","[0.03230693430338901,-0.05837251165851971]","[1,1,1]","[0.10629904282590252,-0.10746357594089966]","[1,1,1]","[0.11215487655104356,0.08603696259465504]","[1,1,1]","[0.17630108479258458,0.027730302654733283]","[-1,-1,-1]","[0.06747298890211635,-0.1330627527768229]","[1,1,1]","[0.03502723575749056,0.19012852536014377]","[-1,-1,-1]","[-0.08645465215963835,0.15877099740918038]","[-1,-1,-1]","[0.054873217438497976,0.08304863372523821]","[1,1,1]","[-0.08434554229742218,-0.01837268518649793]","[1,1,1]","[-0.13671087397994666,-0.11399624130827563]","[-1,-1,-1]","[-0.16143491549610492,-0.049551642264688694]","[-1,-1,-1]","[0.12707508606435786,0.14020855715030453]","[1,1,1]","[-0.09005075145564445,-0.06189672807264785]","[-1,-1,-1]","[-0.0022372595518894175,-0.1331482138575322]","[1,1,1]","[-0.06164202767061066,-0.16062622488502915]","[-1,-1,-1]","[-0.021214120184232913,0.06338944101778761]","[1,1,1]","[-0.009661477308795907,0.189572011070115]","[1,1,1]","[-0.11294931473966699,0.05692911405092506]","[1,1,1]","[0.0731303443189986,0.03870830465888187]","[-1,-1,-1]","[0.09549797398563535,-0.0001444226563018005]","[1,1,1]","[0.09696879132329073,-0.05858215109624544]","[-1,-1,-1]","[0.14530818963414172,0.05885856732429496]","[-1,-1,-1]","[-0.06023448178772261,0.11625993864592363]","[1,1,1]","[-0.03624775572673612,-0.19589212083273894]","[1,1,1]","[0.03626949553931013,-0.1633762039289055]","[-1,-1,-1]","[-0.12298320363013308,0.12109660581929299]","[-1,-1,-1]","[-0.03435981479113183,-0.007276124228426969]","[1,1,1]","[0.02,0.02]",334.061,0,32,32,120,1,,,,,,,
,,,,,,,664b8cea76bb80570322160f,682f0fbfb2638f18ed4a125b,2025-05-22_12h52.30.047,cuing_paradigm_dot,2024.1.5,Win32,142.8571429,682d573fa47f1360d1451895,,,,,,,,,,,334.0615,334.561,,,334.8111,335.4637,left,,,,,,,,0.6,0.6428,,,,,,,334.561,334.811,335.4638,"[-0.09862348465492318,0.0671920110764944]","[1,1,1]","[0.06262792919385464,0.013011047478046808]","[1,1,1]","[0.051025012497065696,-0.16859187628576622]","[-1,-1,-1]","[0.03626269622013778,-0.0812025752899946]","[1,1,1]","[-0.09379154280321092,-0.09419791176116243]","[1,1,1]","[0.14762072562588888,-0.06802200080101671]","[-1,-1,-1]","[-0.030970447031286572,-0.03253309638606669]","[1,1,1]","[-0.10251768792593245,-0.04935784632270283]","[-1,-1,-1]","[-0.14119051177238318,-0.08164897989027814]","[1,1,1]","[-0.1445040566401602,0.03715301551887555]","[1,1,1]","[-0.01778601143386215,0.015967498988608386]","[-1,-1,-1]","[-0.0010394487917732129,-0.17957482960011134]","[-1,-1,-1]","[-0.07809783488845513,0.1230343878734544]","[1,1,1]","[0.15487353264031825,-0.007705291808944724]","[-1,-1,-1]","[-0.051962817619471274,-0.1789852275874455]","[1,1,1]","[0.045010907175204534,0.15512826148813194]","[-1,-1,-1]","[0.1109416864683582,0.041800007555665916]","[-1,-1,-1]","[-0.05260408912476287,0.039169649858016346]","[-1,-1,-1]","[0.08842983464585258,0.15346404419186183]","[1,1,1]","[0.05883796012823424,-0.03794154404985348]","[1,1,1]","[-0.14148186402881094,0.09431102646496997]","[-1,-1,-1]","[-0.0125152496187313,0.19652872253525563]","[1,1,1]","[-0.02773248416830037,-0.09561838364573978]","[1,1,1]","[0.12106278090795082,-0.14533993699463246]","[1,1,1]","[0.006761854839524087,-0.053726268439611986]","[1,1,1]","[0.03168686274620852,0.04332089078212847]","[-1,-1,-1]","[-0.18066678030602504,-0.06769984599558658]","[1,1,1]","[0.11147484098210404,0.10409702312126051]","[-1,-1,-1]","[0.06559548835731974,0.0988923192261479]","[1,1,1]","[-0.1917535162748138,-0.021095984328018288]","[1,1,1]","[-0.0028495053618310365,0.08099635015857355]","[-1,-1,-1]","[-0.08061945072795662,-0.010060866245690544]","[1,1,1]","[0.02,0.02]",336.561,0,33,33,179,1,,,,,,,
,,,,,,,664b8cea76bb80570322160f,682f0fbfb2638f18ed4a125b,2025-05-22_12h52.30.047,cuing_paradigm_dot,2024.1.5,Win32,142.8571429,682d573fa47f1360d1451895,,,,,,,,,,,336.5614,337.061,,,337.3114,338.6237,left,,,,,,,,0.4,1.3006,,,,,,,337.061,337.3113,338.6237,"[0.014355092058339207,-0.020570078893758663]","[-1,-1,-1]","[0.1433952844416234,-0.025860001661961993]","[-1,-1,-1]","[-0.1228014575100126,-0.12454551096333544]","[-1,-1,-1]","[0.01923559124072544,-0.07354689169282753]","[1,1,1]","[0.07844028745680208,0.024057313949877132]","[1,1,1]","[0.10582750059878844,-0.05664593389866383]","[1,1,1]","[0.1264800942735181,-0.09330827615796591]","[-1,-1,-1]","[0.07369954654459075,-0.025338058363857753]","[-1,-1,-1]","[0.03669451663406642,0.0970928816236917]","[-1,-1,-1]","[-0.06714261520897231,0.008903300110590264]","[1,1,1]","[-0.07679103303779734,-0.07912104351263538]","[-1,-1,-1]","[-0.028187309994998643,-0.028046630395460927]","[1,1,1]","[0.006433508421580588,0.15749794716650625]","[-1,-1,-1]","[0.01783426910040838,0.030444591812525068]","[-1,-1,-1]","[-0.0012493826119856655,-0.1731045830768448]","[1,1,1]","[0.050685030463653316,-0.14673292812830946]","[1,1,1]","[-0.07568297680363259,0.10354937599647974]","[-1,-1,-1]","[-0.17892615751742955,-0.05895930523494524]","[-1,-1,-1]","[-0.038705072117470866,-0.19090174513270997]","[1,1,1]","[-0.11085573650201837,-0.051101431218153845]","[1,1,1]","[0.19834604598155114,-0.02055777855469946]","[1,1,1]","[0.14308609931582494,0.021935811448091248]","[-1,-1,-1]","[0.05534163746998417,0.13678462193263796]","[1,1,1]","[0.00013850394572619684,-0.11677784837253118]","[1,1,1]","[-0.16135546368525933,0.11718947633662577]","[-1,-1,-1]","[0.19133886870407107,0.05632790943611626]","[1,1,1]","[-0.03300762756398659,0.03050025936513074]","[-1,-1,-1]","[-0.09259550411716067,0.15586533844774592]","[-1,-1,-1]","[-0.1551420944620408,0.024649110567709673]","[-1,-1,-1]","[-0.06942936601493817,-0.1298612336562366]","[-1,-1,-1]","[0.07734359202708498,-0.09807433823468774]","[-1,-1,-1]","[0.1058540284636849,0.13115103651391902]","[-1,-1,-1]","[0.02,0.02]",339.7209,0,34,34,33,1,,,,,,,
,,,,,,,664b8cea76bb80570322160f,682f0fbfb2638f18ed4a125b,2025-05-22_12h52.30.047,cuing_paradigm_dot,2024.1.5,Win32,142.8571429,682d573fa47f1360d1451895,,,,,,,,,,,339.7212,340.2208,,,340.4711,340.9362,left,,,,,,,,0.9,0.452,,,,,,,340.2209,340.4711,340.9362,"[0.05100231584478037,0.03873797161201007]","[1,1,1]","[0.18279753339975097,-0.06045329977397819]","[1,1,1]","[0.18785891440767688,0.04314189372190113]","[1,1,1]","[0.12425465106292127,0.1376436013589095]","[1,1,1]","[-0.15718022317091884,-0.0618253037443568]","[1,1,1]","[-0.07860273521847899,0.030526427485558658]","[1,1,1]","[0.030890462254206653,-0.14708414370308304]","[1,1,1]","[0.017657524367638747,-0.08766838378053557]","[1,1,1]","[-0.007773959042627919,0.12135737482488744]","[1,1,1]","[0.06006655771732024,-0.05273721418885161]","[1,1,1]","[-0.12637286872729941,0.00423078094594326]","[1,1,1]","[0.028283442493459626,0.08190954862096722]","[1,1,1]","[-0.06875961371020912,-0.16713636531472942]","[1,1,1]","[0.12637492502539366,-0.0015423957446184793]","[1,1,1]","[0.008845105092419184,0.17436102248877725]","[1,1,1]","[-0.022089058143602895,-0.18530699269435735]","[1,1,1]","[-0.0958193650305439,0.1191018560284949]","[-1,-1,-1]","[-0.14127180959045113,0.11225011421267984]","[1,1,1]","[0.13507638974883088,-0.13564815552938228]","[1,1,1]","[0.006803674985632177,0.008826413736252934]","[-1,-1,-1]","[-0.05606749918395167,0.09390480387203914]","[1,1,1]","[-0.10507116398137095,-0.11551925834612492]","[1,1,1]","[0.1248402239997177,0.0767713498463422]","[1,1,1]","[-0.15431916546324373,0.05972824169294312]","[1,1,1]","[-0.0019602385603800835,-0.042880168702059004]","[1,1,1]","[-0.07197940234685736,-0.06610270224229421]","[1,1,1]","[0.10418097853895958,-0.07388529572152439]","[1,1,1]","[-0.06159113740874594,-0.12455562045222845]","[1,1,1]","[-0.17927725644256945,-0.026514724828209716]","[1,1,1]","[0.07435481797872226,0.12633099570860795]","[-1,-1,-1]","[0.03394974704680271,-0.1945294641153651]","[1,1,1]","[0.07566735023488859,-0.008987688175349172]","[1,1,1]","[0.02,0.02]",342.0334,0,35,35,186,1,,,,,,,
,,,,,,,664b8cea76bb80570322160f,682f0fbfb2638f18ed4a125b,2025-05-22_12h52.30.047,cuing_paradigm_dot,2024.1.5,Win32,142.8571429,682d573fa47f1360d1451895,,,,,,,,,,,342.0337,342.5333,,,342.7836,343.2489,right,,,,,,,,0.5,0.4519,,,,,,,342.5334,342.7835,343.249,"[0.09584334458413107,0.13365937021611152]","[1,1,1]","[0.16097120095128803,0.08219400102173492]","[1,1,1]","[0.09075092576412183,-0.003802105975469243]","[-1,-1,-1]","[0.1488802976032539,-0.10912789297547368]","[-1,-1,-1]","[-0.05657412476155569,-0.046709149961273067]","[-1,-1,-1]","[-0.1096563091323753,-0.15066009030184538]","[-1,-1,-1]","[0.06388828993370027,-0.13475908930136257]","[1,1,1]","[0.025346718637190693,-0.19050232574767778]","[1,1,1]","[-0.004728711472042751,-0.10024940931141703]","[1,1,1]","[-0.08300825110110722,0.11248353829076016]","[-1,-1,-1]","[0.003219913662620268,-0.05935001459649812]","[-1,-1,-1]","[-0.024162050617089228,0.15967862879303005]","[-1,-1,-1]","[0.08069534988470942,0.05755243328895383]","[1,1,1]","[0.16717530199184333,0.031238932147611934]","[1,1,1]","[0.042211576105041226,0.08235321485804421]","[-1,-1,-1]","[0.13581078446033978,0.13072179063614117]","[-1,-1,-1]","[0.002609714108494729,-0.15156223489150358]","[-1,-1,-1]","[0.09330045098486102,-0.05610654125665068]","[-1,-1,-1]","[-0.13580133687008553,0.09454380131191947]","[1,1,1]","[-0.09378946050044812,0.16844789469040553]","[1,1,1]","[0.001849495778661478,0.097258716871167]","[-1,-1,-1]","[-0.11666865205504816,-0.07824298653419488]","[-1,-1,-1]","[0.11144061717426587,0.08704259916124006]","[1,1,1]","[-0.017055748445834153,-0.011746338822470972]","[1,1,1]","[0.16596658937806583,-0.0462857250905413]","[-1,-1,-1]","[-0.10988033328562999,-0.03330345134186139]","[1,1,1]","[-0.0805589173933116,-0.10125422143586431]","[-1,-1,-1]","[-0.07797417944449204,-0.1802845799443787]","[-1,-1,-1]","[-0.10157254658866352,0.016550879023992507]","[1,1,1]","[-0.040007063248823,0.03008600549704323]","[1,1,1]","[-0.17426436611674184,0.004661063319637515]","[1,1,1]","[-0.0522326080136377,0.08324565263627794]","[1,1,1]","[0.02,0.02]",344.3459,0,36,36,105,1,,,,,,,
,,,,,,,664b8cea76bb80570322160f,682f0fbfb2638f18ed4a125b,2025-05-22_12h52.30.047,cuing_paradigm_dot,2024.1.5,Win32,142.8571429,682d573fa47f1360d1451895,,,,,,,,,,,344.3463,344.8458,,,345.0962,345.5197,right,,,,,,,,0.45,0.4169,,,,,,,344.8459,345.0962,345.5197,"[-0.10971172587518394,0.03632147248875154]","[-1,-1,-1]","[0.04041499857982418,-0.11559213762613885]","[-1,-1,-1]","[-0.14636757875780393,-0.03368688464401921]","[-1,-1,-1]","[0.09630399821083845,-0.0854105995868423]","[-1,-1,-1]","[-0.18180492430006945,-0.008454306255400957]","[1,1,1]","[-0.04156195625279088,-0.07466882849873632]","[1,1,1]","[0.09368785493778421,0.15744138320371748]","[-1,-1,-1]","[-0.16542274169258553,-0.09112089638865327]","[-1,-1,-1]","[0.11902192230784564,0.00783168178531607]","[1,1,1]","[-0.04172698348048851,-0.024332929294937796]","[1,1,1]","[0.16231357708437025,0.09339446500521714]","[-1,-1,-1]","[0.13950481505535284,-0.09699014926277694]","[1,1,1]","[-0.09193750241457134,-0.12207181934345565]","[-1,-1,-1]","[0.033829436297223806,0.12901025871119295]","[1,1,1]","[0.18146966741674014,-0.06336385854609482]","[-1,-1,-1]","[-0.016776542213612442,0.0836620686400713]","[-1,-1,-1]","[0.1111424464483259,0.050570501726389674]","[1,1,1]","[-0.015085956132058905,0.1973411759247086]","[1,1,1]","[0.04173297444092893,0.0704171297285526]","[-1,-1,-1]","[-0.010806304616035574,-0.15969003920199612]","[1,1,1]","[-0.09547303112237698,-0.0751933101060043]","[-1,-1,-1]","[0.0009913652364771815,0.025894802260876426]","[-1,-1,-1]","[0.0926437984221198,-0.1658841945191237]","[-1,-1,-1]","[0.19039661104505318,0.011934733475878093]","[-1,-1,-1]","[-0.05158717211954573,-0.1182410701401238]","[1,1,1]","[0.05478992096583668,-0.18456700317856256]","[1,1,1]","[0.048921941774025375,0.02205204754978783]","[1,1,1]","[-0.0916320193090837,0.14795557435720763]","[1,1,1]","[-0.022635371012471137,0.14531155080751496]","[1,1,1]","[-0.14604131670369672,0.012695050810070886]","[-1,-1,-1]","[0.045899132811369016,0.17806136816969054]","[-1,-1,-1]","[0.11614924031384517,0.11331873269792482]","[-1,-1,-1]","[0.02,0.02]",346.6167,0,37,37,77,1,,,,,,,
,,,,,,,664b8cea76bb80570322160f,682f0fbfb2638f18ed4a125b,2025-05-22_12h52.30.047,cuing_paradigm_dot,2024.1.5,Win32,142.8571429,682d573fa47f1360d1451895,,,,,,,,,,,346.617,347.1168,,,347.367,348.3531,left,,,,,,,,0.55,0.9795,,,,,,,347.1168,347.3669,348.3532,"[-0.07705932814269309,0.08371187421882027]","[-1,-1,-1]","[-0.12003312482356963,0.041708370681583264]","[-1,-1,-1]","[0.11207276311125862,-0.14946706315413263]","[1,1,1]","[-0.030154487522496023,0.126223240728758]","[-1,-1,-1]","[-0.14510743905253773,-0.06352776801664996]","[1,1,1]","[0.09023837866207877,0.1741898356354909]","[1,1,1]","[0.019193949759241484,-0.1448628122862769]","[1,1,1]","[-0.1648276348582503,0.1001681101378061]","[1,1,1]","[0.11262266971005824,-0.04010512146095372]","[-1,-1,-1]","[0.08795650198381563,-0.10743540552476782]","[-1,-1,-1]","[-0.19580532233593867,0.00911593599273992]","[1,1,1]","[-0.03631628801071093,-0.1872990067411943]","[1,1,1]","[0.14723715089410233,0.04061557255870728]","[1,1,1]","[0.0828979538209483,0.04179609861237291]","[-1,-1,-1]","[-0.14470401943591737,-0.11286410067302814]","[1,1,1]","[-0.03173922223838195,-0.08580657848935515]","[1,1,1]","[0.14557367591675618,-0.008400024076325362]","[-1,-1,-1]","[-0.015289414982831977,-0.002387564745788776]","[1,1,1]","[0.10039882516502048,0.11795469937226212]","[1,1,1]","[0.16362443165742105,0.0791052358846732]","[1,1,1]","[-0.02009788189891798,0.04415932558520912]","[-1,-1,-1]","[0.045810909238615596,-0.0043737275880815765]","[-1,-1,-1]","[0.015107032664994679,0.1979035259683573]","[-1,-1,-1]","[-0.07465316268863303,-0.14039139244138543]","[-1,-1,-1]","[0.05591203340567617,-0.06121889638019928]","[-1,-1,-1]","[0.056947564531314686,0.12752956817481756]","[-1,-1,-1]","[0.1588059038575492,-0.07899384613263973]","[1,1,1]","[0.19554001140829114,-0.014170798300081774]","[-1,-1,-1]","[-0.10362810915652727,-0.03685848375514512]","[1,1,1]","[-0.07331180299266156,0.012937176285772754]","[1,1,1]","[0.017757512904713404,0.0627423293087739]","[1,1,1]","[0.1906100599460058,0.036342015231384826]","[1,1,1]","[0.02,0.02]",349.4504,0,38,38,122,1,,,,,,,
,,,,,,,664b8cea76bb80570322160f,682f0fbfb2638f18ed4a125b,2025-05-22_12h52.30.047,cuing_paradigm_dot,2024.1.5,Win32,142.8571429,682d573fa47f1360d1451895,,,,,,,,,,,349.4507,349.9503,,,350.2005,350.7281,left,,,,,,,,0.6,0.5142,,,,,,,349.9504,350.2004,350.7281,"[0.08379909110157065,-0.017481329763323412]","[-1,-1,-1]","[0.0362043694240195,0.0077445426846026915]","[1,1,1]","[0.14793731432778567,-0.07474178935207054]","[1,1,1]","[-0.004987468365926192,-0.07452006146232452]","[1,1,1]","[0.017936371684204342,0.15837477485975138]","[-1,-1,-1]","[-0.09127339342173739,-0.16662623696679307]","[1,1,1]","[-0.07109180304216153,0.0254993598244521]","[1,1,1]","[0.07976294558605868,-0.0896080301968274]","[1,1,1]","[-0.030381103000469853,0.11482176651353163]","[-1,-1,-1]","[-0.13635115823580551,0.12193597337591101]","[1,1,1]","[0.1186820176887725,0.08404641633192315]","[-1,-1,-1]","[0.028654990909979125,0.08113697496011728]","[-1,-1,-1]","[0.08500030000868952,0.13345454094579376]","[1,1,1]","[0.10104006065999058,-0.13766031152338304]","[-1,-1,-1]","[-0.15776326141512867,0.017508800954940288]","[-1,-1,-1]","[0.010257051221164626,-0.11821620131836277]","[1,1,1]","[-0.0845715216015653,-0.0766420504871834]","[1,1,1]","[0.12288820275403502,0.1498610484958977]","[-1,-1,-1]","[0.05407395898204414,-0.052661632073304335]","[-1,-1,-1]","[0.06005983955655482,0.1690021136693314]","[-1,-1,-1]","[-0.12059643375718053,-0.12026788599785018]","[1,1,1]","[-0.046736882892037854,-0.17158800502969143]","[1,1,1]","[-0.07791437848387715,0.08724686398942032]","[-1,-1,-1]","[0.17022092928920643,-0.011866382668756875]","[1,1,1]","[-0.12384985313526926,0.040308979206661856]","[1,1,1]","[-0.14625183880923612,-0.08052376784901878]","[1,1,1]","[0.025390990963723135,-0.19493016428685897]","[-1,-1,-1]","[0.15787954790033862,-0.11468163741011446]","[1,1,1]","[-0.05467916275302447,-0.029842951137612622]","[1,1,1]","[-0.004320318600274268,0.014909624931188184]","[1,1,1]","[0.18959296664194294,-0.060450814453514315]","[1,1,1]","[-0.14638595443072622,-0.030410588428423282]","[-1,-1,-1]","[0.02,0.02]",351.8253,0,39,39,156,1,,,,,,,
,,,,,,,664b8cea76bb80570322160f,682f0fbfb2638f18ed4a125b,2025-05-22_12h52.30.047,cuing_paradigm_dot,2024.1.5,Win32,142.8571429,682d573fa47f1360d1451895,,,,,,,,,,,351.8256,352.3253,,,352.5755,352.8949,left,,,,,,,,0.9,0.3055,,,,,,,352.3253,352.5755,352.8949,"[0.12554031908863567,0.055784954640181315]","[1,1,1]","[0.06258842499967096,-0.1835163612531647]","[1,1,1]","[-0.03005111825769604,0.13119868883666227]","[1,1,1]","[0.07188803266111472,0.004442342675364016]","[1,1,1]","[-0.01164037313901843,-0.012980768267645444]","[1,1,1]","[0.04127241947863668,0.05663408770467647]","[1,1,1]","[-0.1936619899290401,-0.043565866841866245]","[1,1,1]","[0.017432750910379463,-0.1408159162554873]","[1,1,1]","[-0.00481469159982147,0.04253598679372501]","[1,1,1]","[0.17470830532497536,-0.08178946380972069]","[1,1,1]","[0.13671713057657423,-0.04345260786242123]","[1,1,1]","[-0.07527939729604809,0.05119771861707708]","[1,1,1]","[-0.11637039509202106,0.04187512733568145]","[1,1,1]","[-0.1532717689908081,-0.030798109417703858]","[1,1,1]","[0.14203497397998407,0.12201484185133006]","[1,1,1]","[0.16485048848216108,-0.01065760591447469]","[-1,-1,-1]","[-0.11007969194654545,-0.07205729214284605]","[1,1,1]","[0.08016787980067377,-0.07015470391867241]","[1,1,1]","[-0.1339339264193941,0.088011842316621]","[1,1,1]","[0.01820878863986175,0.12320088012619344]","[1,1,1]","[0.09628103810965963,-0.12338885226149734]","[1,1,1]","[-0.03421796472246092,-0.09183457325215073]","[1,1,1]","[0.0964417149568839,0.11011853655144453]","[1,1,1]","[-0.07099186624989309,-0.03425782926862184]","[-1,-1,-1]","[0.02642782844311541,0.17301267584504207]","[1,1,1]","[0.01742788938834953,-0.19744956265552413]","[1,1,1]","[-0.04226491305100568,0.01679578299027517]","[1,1,1]","[-0.0879141906894716,-0.12597046175623167]","[1,1,1]","[-0.01269638892907825,0.09438415442371183]","[1,1,1]","[0.04925870822005383,-0.10350143493662889]","[1,1,1]","[-0.01746795251574118,-0.1750195014630932]","[-1,-1,-1]","[-0.18222611353379664,0.01767860897658681]","[1,1,1]","[0.02,0.02]",353.9921,0,40,40,197,1,,,,,,,
,,,,,,,664b8cea76bb80570322160f,682f0fbfb2638f18ed4a125b,2025-05-22_12h52.30.047,cuing_paradigm_dot,2024.1.5,Win32,142.8571429,682d573fa47f1360d1451895,,,,,,,,,,,353.9925,354.4921,,,354.7423,355.0963,left,,,,,,,,0.9,0.3413,,,,,,,354.4921,354.7423,355.0963,"[0.00030168770935026356,0.05085646047081836]","[1,1,1]","[-0.1146529242326036,-0.12312441066191174]","[1,1,1]","[-0.0008936127858275364,-0.16409778400386452]","[1,1,1]","[-0.003739205544481966,-0.06127935051581577]","[1,1,1]","[-0.026161998830275476,0.08224769543086524]","[1,1,1]","[-0.1466321019893893,0.12401191499434241]","[1,1,1]","[-0.1352417711392203,0.06472132113902805]","[1,1,1]","[0.023583842797770482,-0.1181638334142766]","[1,1,1]","[-0.021921583174626478,0.12338034155103952]","[1,1,1]","[-0.05883706552376101,0.1864211094314006]","[1,1,1]","[0.03699134613672676,-0.004094501077270865]","[1,1,1]","[-0.08750604211782842,0.040333806266903485]","[1,1,1]","[-0.167513169276556,-0.10661028963285947]","[-1,-1,-1]","[-0.06308843240028458,-0.13205116378727258]","[1,1,1]","[0.1836903252968579,0.012010977848993623]","[1,1,1]","[0.1491578188245279,-0.06943019583263894]","[1,1,1]","[-0.068559903905494,-0.18271197405619]","[1,1,1]","[0.06323464717350498,0.08556034965968123]","[1,1,1]","[-0.16807226904531414,0.0891017693570041]","[-1,-1,-1]","[-0.11961247149962118,-0.060779907996899855]","[1,1,1]","[0.07383598820344046,-0.16705568271995816]","[1,1,1]","[0.08548403759521576,0.13694360091265403]","[1,1,1]","[0.12571765050945186,0.1140740094653036]","[1,1,1]","[0.1753599618411513,-0.032252708373540835]","[1,1,1]","[-0.1511385714398739,-0.028815924694353807]","[1,1,1]","[-0.04574700170723817,-0.04830000134660322]","[1,1,1]","[0.1194553167299334,0.0037474212157477234]","[1,1,1]","[0.14932111059345352,0.07208355484825499]","[1,1,1]","[0.09434083298572213,-0.04411529938176871]","[-1,-1,-1]","[-0.011777829307375613,0.006883171346808457]","[1,1,1]","[0.11007428873404144,0.058284857131893665]","[1,1,1]","[0.04252847726073178,0.05121295672680777]","[1,1,1]","[0.02,0.02]",356.1936,0,41,41,206,1,,,,,,,
,,,,,,,664b8cea76bb80570322160f,682f0fbfb2638f18ed4a125b,2025-05-22_12h52.30.047,cuing_paradigm_dot,2024.1.5,Win32,142.8571429,682d573fa47f1360d1451895,,,,,,,,,,,356.1939,356.6934,,,356.9439,357.6587,right,,,,,,,,0.4,0.7056,,,,,,,356.6934,356.9438,357.6588,"[0.03868834992166563,0.183515300909014]","[1,1,1]","[0.043802665322201076,0.011758125538596415]","[1,1,1]","[-0.008919012467252541,-0.12446684244701399]","[1,1,1]","[0.17109337652608705,0.09447496408137453]","[1,1,1]","[0.04392239983947229,-0.12335000654113552]","[-1,-1,-1]","[0.09316575748298858,-0.12469909687344675]","[-1,-1,-1]","[0.15197921996240332,-0.06687862171093706]","[1,1,1]","[-0.06883215914565463,0.017076079041923965]","[-1,-1,-1]","[0.008376960839429523,-0.19526691594942752]","[1,1,1]","[-0.09424388635013144,-0.13007553271141156]","[1,1,1]","[-0.12837388042621697,-0.008947069292716008]","[1,1,1]","[0.10126808680886697,-0.0822158774347988]","[-1,-1,-1]","[-0.1478168640214213,0.0657598183972915]","[-1,-1,-1]","[-0.11490260301314367,0.14497651856524255]","[-1,-1,-1]","[-0.03490849407319457,0.16756296392982098]","[-1,-1,-1]","[-0.16275321199129614,-0.07916598030953734]","[-1,-1,-1]","[-0.052780064968499275,-0.08465973061863571]","[1,1,1]","[0.06609960271649258,0.053057310895942594]","[-1,-1,-1]","[0.11209800545513171,0.10211284274551495]","[1,1,1]","[-0.084125441987739,0.06446836940513731]","[1,1,1]","[-0.052572594174376985,-0.16129937395445232]","[-1,-1,-1]","[-0.015815188168308143,-0.003408904886437873]","[-1,-1,-1]","[0.15630069404701682,0.04968375845250723]","[-1,-1,-1]","[0.151929103966967,-0.11707698551218147]","[1,1,1]","[0.0034594875419694604,-0.0780106452372826]","[1,1,1]","[0.037170114506235204,0.1010952796455141]","[-1,-1,-1]","[0.1562865378690975,0.00014949556412215142]","[-1,-1,-1]","[0.05598112110619802,-0.06424942796107291]","[-1,-1,-1]","[-0.0694320295136198,0.12604352039556113]","[-1,-1,-1]","[-0.11136922122656762,-0.06398365682553744]","[-1,-1,-1]","[-0.17267104741709732,-0.02048744054041073]","[-1,-1,-1]","[0.09536622651815545,-0.1686320762262951]","[-1,-1,-1]","[0.02,0.02]",358.7559,0,42,42,46,1,,,,,,,
,,,,,,,664b8cea76bb80570322160f,682f0fbfb2638f18ed4a125b,2025-05-22_12h52.30.047,cuing_paradigm_dot,2024.1.5,Win32,142.8571429,682d573fa47f1360d1451895,,,,,,,,,,,358.7562,359.2559,,,359.5062,360.0338,left,,,,,,,,0.5,0.516,,,,,,,359.2559,359.5062,360.0339,"[0.18328016634630664,-0.013011340183246616]","[-1,-1,-1]","[-0.026060032733852725,0.17470640331084314]","[1,1,1]","[0.04613895850961885,0.12454037072002952]","[-1,-1,-1]","[-0.07836424679586539,0.049781360337703494]","[1,1,1]","[0.08867483536259467,-0.10158221871621097]","[1,1,1]","[0.02842562990106449,0.1957087188842189]","[1,1,1]","[-0.013946453580837435,0.11948273087363312]","[-1,-1,-1]","[0.005042946661103447,-0.07209895169339783]","[1,1,1]","[0.04208228276122415,-0.0890048013229693]","[-1,-1,-1]","[-0.06792190926109219,-0.03035245817425671]","[1,1,1]","[0.1365540320412706,0.057785156023871694]","[-1,-1,-1]","[-0.09292510169188203,0.16939995039743314]","[1,1,1]","[-0.12356161070357266,0.13991445999932375]","[-1,-1,-1]","[-0.051061781296023206,-0.14906761174176675]","[1,1,1]","[-0.14149720558203052,0.039520098384932055]","[1,1,1]","[-0.15162858347235708,-0.12540388087885945]","[1,1,1]","[0.09277705112967422,0.06274670372752367]","[-1,-1,-1]","[0.10414089222287422,0.14487568693723155]","[-1,-1,-1]","[-0.18505154757250877,-0.04453524507664861]","[-1,-1,-1]","[-0.09289530811760387,-0.1220179111657279]","[1,1,1]","[0.1475035148763138,-0.06436759491155694]","[1,1,1]","[-0.08274619853686292,-0.17884328069637584]","[1,1,1]","[-0.12044541027039919,-0.0010137000934777648]","[1,1,1]","[-0.1287752459156681,0.09872162708755074]","[-1,-1,-1]","[0.06906582742602639,0.02463441320724469]","[-1,-1,-1]","[-0.028676272051709337,-0.1941487876463555]","[-1,-1,-1]","[0.043114929379348785,-0.1610356008231505]","[-1,-1,-1]","[-0.0051520404524794524,0.05848405998050739]","[1,1,1]","[0.12591342056776822,0.012978844603845784]","[-1,-1,-1]","[-0.16457640514072985,0.07479725916671295]","[-1,-1,-1]","[-0.029100521353756455,-0.016863657901150995]","[-1,-1,-1]","[0.14905539842409415,-0.12401438522256959]","[1,1,1]","[0.02,0.02]",361.131,0,43,43,92,1,,,,,,,
,,,,,,,664b8cea76bb80570322160f,682f0fbfb2638f18ed4a125b,2025-05-22_12h52.30.047,cuing_paradigm_dot,2024.1.5,Win32,142.8571429,682d573fa47f1360d1451895,,,,,,,,,,,361.1313,361.6311,,,361.8813,362.5269,right,,,,,,,,0.4,0.633,,,,,,,361.6311,361.8813,362.527,"[0.006477888122541797,0.035322202666550145]","[1,1,1]","[0.13097660147157256,-0.1157019267700063]","[1,1,1]","[-0.002620097992645767,-0.1316233390050382]","[-1,-1,-1]","[-0.03975450189792419,0.08157207656480142]","[-1,-1,-1]","[-0.1243428667416584,0.09042657877936187]","[1,1,1]","[-0.08864570713027399,0.1652622518175366]","[1,1,1]","[0.12805963379839713,0.052689853137606546]","[1,1,1]","[-0.08205006790847517,-0.126813801498845]","[1,1,1]","[0.16267568328867227,0.0006361701571810152]","[-1,-1,-1]","[0.027351505679206196,0.07108004981985461]","[-1,-1,-1]","[-0.1278997528398564,-0.1399253538499961]","[1,1,1]","[-0.12129844746030598,0.04189114065799741]","[-1,-1,-1]","[-0.07301423784655323,0.11307424734000088]","[-1,-1,-1]","[-0.03360074840597907,-0.059371450408483295]","[1,1,1]","[0.13859484167459296,-0.05672875316678092]","[-1,-1,-1]","[-0.18063738437867322,-0.04745265002556736]","[-1,-1,-1]","[-0.044214671322077806,-0.16025850125864105]","[1,1,1]","[-0.043320725515405736,0.02669542684064304]","[-1,-1,-1]","[0.05540215632344048,-0.1578917135903993]","[-1,-1,-1]","[0.12433418244923788,0.1318844803710585]","[-1,-1,-1]","[0.08992153558310839,0.16976029256520617]","[-1,-1,-1]","[-0.10158390599528233,-0.014624256801798435]","[-1,-1,-1]","[0.09960104664984733,-0.035901433038113696]","[-1,-1,-1]","[-0.16495409415430282,0.09726640343119113]","[1,1,1]","[-0.01966478206448681,0.1975369623748762]","[-1,-1,-1]","[0.009509025471107307,0.14368882787573345]","[1,1,1]","[0.08819767273955983,0.063026335703746]","[-1,-1,-1]","[-0.12723922012658068,-0.07081051911960265]","[-1,-1,-1]","[0.04591341223192106,-0.06638631726190847]","[-1,-1,-1]","[0.07722519112671765,0.0005609107703599489]","[1,1,1]","[0.05097031885400241,0.1906486547946004]","[1,1,1]","[-0.16526846254683183,0.005833982366907555]","[-1,-1,-1]","[0.02,0.02]",363.6242,0,44,44,31,1,,,,,,,
