right,left,explain.started,explain.stopped,key_resp_3.keys,key_resp_3.rt,key_resp_3.duration,participant,session,date,expName,psychopyVersion,OS,frameRate,study_id,explain_2.started,explain_2.stopped,key_resp_4.keys,key_resp_4.rt,key_resp_4.duration,explain_3.started,explain_3.stopped,key_resp_5.keys,key_resp_5.rt,key_resp_5.duration,fixation.started,fixation.stopped,practice.started,practice.stopped,response.started,response.stopped,key_resp.keys,key_resp.rt,key_resp.duration,feedback.started,feedback.stopped,trials_2.thisRepN,trials_2.thisTrialN,trials_2.thisN,trials_2.thisIndex,trials_2.ran,white_ratio,explain_4.started,explain_4.stopped,key_resp_6.keys,key_resp_6.rt,key_resp_6.duration,dotDisplay.started,dotDisplay.stopped,ITI.started,polygon_1.pos,polygon_1.color,polygon_2.pos,polygon_2.color,polygon_3.pos,polygon_3.color,polygon_4.pos,polygon_4.color,polygon_5.pos,polygon_5.color,polygon_6.pos,polygon_6.color,polygon_7.pos,polygon_7.color,polygon_8.pos,polygon_8.color,polygon_9.pos,polygon_9.color,polygon_10.pos,polygon_10.color,polygon_11.pos,polygon_11.color,polygon_12.pos,polygon_12.color,polygon_13.pos,polygon_13.color,polygon_14.pos,polygon_14.color,polygon_15.pos,polygon_15.color,polygon_16.pos,polygon_16.color,polygon_17.pos,polygon_17.color,polygon_18.pos,polygon_18.color,polygon_19.pos,polygon_19.color,polygon_20.pos,polygon_20.color,polygon_21.pos,polygon_21.color,polygon_22.pos,polygon_22.color,polygon_23.pos,polygon_23.color,polygon_24.pos,polygon_24.color,polygon_25.pos,polygon_25.color,polygon_26.pos,polygon_26.color,polygon_27.pos,polygon_27.color,polygon_28.pos,polygon_28.color,polygon_29.pos,polygon_29.color,polygon_30.pos,polygon_30.color,polygon_31.pos,polygon_31.color,polygon_32.pos,polygon_32.color,dot_size,ITI.stopped,trials.thisRepN,trials.thisTrialN,trials.thisN,trials.thisIndex,trials.ran,break_2.started,break_2.stopped,trials_3.thisRepN,trials_3.thisTrialN,trials_3.thisN,trials_3.thisIndex,trials_3.ran
subject chose black,subject chose white,0.001,15.322,space,0.241,,664cf2037353bb98801436b5,682f0fbd2b2a740b1842af4a,2025-05-22_08h44.03.108,cuing_paradigm_dot,2024.1.5,MacIntel,47.61904762,682d573fa47f1360d1451895,,,,,,,,,,,,,,,,,,,,,,,,,,,,,,,,,,,,,,,,,,,,,,,,,,,,,,,,,,,,,,,,,,,,,,,,,,,,,,,,,,,,,,,,,,,,,,,,,,,,,,,,,,,,,,,,,
,,,,,,,664cf2037353bb98801436b5,682f0fbd2b2a740b1842af4a,2025-05-22_08h44.03.108,cuing_paradigm_dot,2024.1.5,MacIntel,47.61904762,682d573fa47f1360d1451895,15.322,46.479,space,1.137,,,,,,,,,,,,,,,,,,,,,,,,,,,,,,,,,,,,,,,,,,,,,,,,,,,,,,,,,,,,,,,,,,,,,,,,,,,,,,,,,,,,,,,,,,,,,,,,,,,,,,,,,,,,,
,,,,,,,664cf2037353bb98801436b5,682f0fbd2b2a740b1842af4a,2025-05-22_08h44.03.108,cuing_paradigm_dot,2024.1.5,MacIntel,47.61904762,682d573fa47f1360d1451895,,,,,,46.48,50.782,space,1.289,,,,,,,,,,,,,,,,,,,,,,,,,,,,,,,,,,,,,,,,,,,,,,,,,,,,,,,,,,,,,,,,,,,,,,,,,,,,,,,,,,,,,,,,,,,,,,,,,,,,,,,,
,,,,,,,664cf2037353bb98801436b5,682f0fbd2b2a740b1842af4a,2025-05-22_08h44.03.108,cuing_paradigm_dot,2024.1.5,MacIntel,47.61904762,682d573fa47f1360d1451895,,,,,,,,,,,50.807,51.292,51.293,51.543,51.544,52.2,left,0.638,,52.2,53.295,0,0,0,0,1,0.8,,,,,,,,,,,,,,,,,,,,,,,,,,,,,,,,,,,,,,,,,,,,,,,,,,,,,,,,,,,,,,,,,,,,,,,,,,,,,,,,,,,,,,
,,,,,,,664cf2037353bb98801436b5,682f0fbd2b2a740b1842af4a,2025-05-22_08h44.03.108,cuing_paradigm_dot,2024.1.5,MacIntel,47.61904762,682d573fa47f1360d1451895,,,,,,,,,,,53.296,53.794,53.794,54.045,54.045,54.333,right,0.283,,54.333,55.429,0,1,1,1,1,0.2,,,,,,,,,,,,,,,,,,,,,,,,,,,,,,,,,,,,,,,,,,,,,,,,,,,,,,,,,,,,,,,,,,,,,,,,,,,,,,,,,,,,,,
,,,,,,,664cf2037353bb98801436b5,682f0fbd2b2a740b1842af4a,2025-05-22_08h44.03.108,cuing_paradigm_dot,2024.1.5,MacIntel,47.61904762,682d573fa47f1360d1451895,,,,,,,,,,,,,,,,,,,,,,,,,,,,55.43,59.426,space,0.988,,,,,,,,,,,,,,,,,,,,,,,,,,,,,,,,,,,,,,,,,,,,,,,,,,,,,,,,,,,,,,,,,,,,,,,,,,,,,,,,,,
,,,,,,,664cf2037353bb98801436b5,682f0fbd2b2a740b1842af4a,2025-05-22_08h44.03.108,cuing_paradigm_dot,2024.1.5,MacIntel,47.61904762,682d573fa47f1360d1451895,,,,,,,,,,,59.447,59.934,,,60.185,60.656,right,0.466,,,,,,,,,0.45,,,,,,59.935,60.185,60.658,"[0.09674736092640575,0.1485586251418597]","[-1,-1,-1]","[0.13452592043506645,0.04284735743539276]","[1,1,1]","[-0.13200728072648388,0.010357681170439378]","[1,1,1]","[-0.09293207517361199,0.0814462354625879]","[-1,-1,-1]","[-0.062353532931526505,-0.005787716520350084]","[-1,-1,-1]","[0.019163430262927966,0.11486335550104115]","[-1,-1,-1]","[-0.14752674491617646,-0.0927638344545056]","[-1,-1,-1]","[0.05970660884115103,-0.009468883157054991]","[-1,-1,-1]","[-0.1288083938548277,-0.05387916219050807]","[-1,-1,-1]","[0.05016615482395315,0.07463531225954702]","[-1,-1,-1]","[0.04397533314074119,-0.06006949012732973]","[-1,-1,-1]","[-0.16247596634942524,0.06958143565069647]","[1,1,1]","[-0.06628681098863566,-0.1157352367412976]","[1,1,1]","[-0.00034437890476713735,-0.12131004274697361]","[-1,-1,-1]","[0.18781023506170386,0.03336039610153166]","[1,1,1]","[0.15283483061129294,-0.012494141515833614]","[1,1,1]","[0.11166463410052842,-0.16464536782379646]","[1,1,1]","[-0.015811941550057187,0.17993744489010974]","[-1,-1,-1]","[0.14141495349838046,0.08778701558224808]","[-1,-1,-1]","[-0.060249668362256766,0.16550448184152736]","[-1,-1,-1]","[-0.01838769604085513,0.1322877193848676]","[1,1,1]","[-0.16499930761321752,-0.013990114971488344]","[1,1,1]","[-0.09814494278071431,0.14314967930594563]","[1,1,1]","[-0.0784435287609837,0.03228519276130378]","[-1,-1,-1]","[0.01716239069303271,0.018701354898199254]","[-1,-1,-1]","[-0.022398780351364365,0.01092501796014782]","[-1,-1,-1]","[0.053691772596450756,-0.15573404478319294]","[-1,-1,-1]","[-0.021253001285359084,0.05491892476232571]","[1,1,1]","[0.11921808010383424,-0.08300427978136263]","[1,1,1]","[-0.08338782638576558,-0.045095479183872446]","[1,1,1]","[-0.032094515074076305,-0.17161786404992727]","[-1,-1,-1]","[0.16947476301728845,-0.1024242258037123]","[1,1,1]","[0.02,0.02]",61.753,0,0,0,78,1,,,,,,,
,,,,,,,664cf2037353bb98801436b5,682f0fbd2b2a740b1842af4a,2025-05-22_08h44.03.108,cuing_paradigm_dot,2024.1.5,MacIntel,47.61904762,682d573fa47f1360d1451895,,,,,,,,,,,61.754,62.252,,,62.504,63.041,left,0.532,,,,,,,,,0.6,,,,,,62.253,62.504,63.041,"[0.04862102659305758,-0.05673401847884821]","[1,1,1]","[0.16315444107832858,0.1030767791994205]","[1,1,1]","[0.12818947224781466,-0.05354204520583123]","[1,1,1]","[-0.16840479936670513,0.04545404638332435]","[-1,-1,-1]","[-0.03306151944168463,-0.08113222024589928]","[1,1,1]","[-0.0688579287146569,0.07631286999945464]","[-1,-1,-1]","[0.02230007411480693,0.19093060658207614]","[-1,-1,-1]","[-0.02838194941282234,0.032653745910510894]","[1,1,1]","[-0.13287688060980726,0.08019960061616763]","[1,1,1]","[0.13675647942940483,0.04236368374374269]","[-1,-1,-1]","[-0.18558097322749173,-0.009339293582057972]","[-1,-1,-1]","[-0.13895631238559394,-0.05241535830339514]","[1,1,1]","[-0.11070286371511306,0.1644089510216641]","[-1,-1,-1]","[-0.03631730003415561,-0.14739089882620732]","[-1,-1,-1]","[0.021113736153737662,-0.18750170375278613]","[-1,-1,-1]","[-0.021288063264939067,-0.19801787597898168]","[1,1,1]","[0.011608895688700412,-0.11683489596866149]","[1,1,1]","[-0.10333757571735455,-0.1518938645898801]","[1,1,1]","[0.16988128172876182,-0.0989002170918944]","[1,1,1]","[-0.11389384046932059,0.022889817052579225]","[1,1,1]","[0.037186093911749776,-0.15016430859891025]","[-1,-1,-1]","[0.10719687730392573,0.11247808159706708]","[-1,-1,-1]","[0.04165966764223512,-0.015220467686883388]","[1,1,1]","[0.06598934889948396,0.17696701773563125]","[1,1,1]","[0.08832722214283235,0.027621888656932433]","[-1,-1,-1]","[-0.09417030042552023,-0.0175085711775483]","[1,1,1]","[0.10616294264049601,-0.15307983269197525]","[1,1,1]","[-0.10525717826915947,0.117459208739454]","[-1,-1,-1]","[-0.08746316173538478,-0.1118734019258438]","[-1,-1,-1]","[-0.1635815126860836,0.11224428328087362]","[1,1,1]","[-0.03432558019419504,0.16589511199469592]","[1,1,1]","[-0.09177072945309014,-0.06053774964511233]","[1,1,1]","[0.02,0.02]",64.138,0,1,1,167,1,,,,,,,
,,,,,,,664cf2037353bb98801436b5,682f0fbd2b2a740b1842af4a,2025-05-22_08h44.03.108,cuing_paradigm_dot,2024.1.5,MacIntel,47.61904762,682d573fa47f1360d1451895,,,,,,,,,,,64.139,64.638,,,64.89,65.729,right,0.833,,,,,,,,,0.45,,,,,,64.638,64.889,65.729,"[0.02559562319276125,0.17380903006052267]","[1,1,1]","[0.07526606432629893,-0.03835107009802164]","[-1,-1,-1]","[0.13070480046886268,-0.05443599484210666]","[1,1,1]","[0.15895976553323996,-0.011247339159600708]","[-1,-1,-1]","[0.07342807666965455,-0.15430737959987073]","[1,1,1]","[-0.13423379574773384,0.004097754636348465]","[-1,-1,-1]","[0.10336426561595344,0.0023128391384361043]","[1,1,1]","[-0.10766459021855843,0.14118720022666623]","[-1,-1,-1]","[-0.022569574949064964,0.06439529390276165]","[-1,-1,-1]","[0.0919338649105591,0.08638499513241937]","[-1,-1,-1]","[-0.15368928579770738,0.12267157627196702]","[1,1,1]","[0.07584128056349385,0.04629395519902895]","[1,1,1]","[-0.12258150588885307,-0.1087983485388595]","[1,1,1]","[0.006565014884427073,-0.003279535124676658]","[1,1,1]","[0.1898064213802309,0.04828313117528637]","[1,1,1]","[-0.1643373199684244,-0.10793460928806747]","[-1,-1,-1]","[-0.13637898917658675,-0.04532622720319715]","[-1,-1,-1]","[-0.08761259051316327,-0.04762478206067435]","[1,1,1]","[-0.08175108524238366,0.0714579504284974]","[-1,-1,-1]","[0.03270991475866557,-0.15502519466119635]","[1,1,1]","[-0.019716483290476903,-0.143784378678689]","[-1,-1,-1]","[0.01937846659627012,0.03699022912635942]","[-1,-1,-1]","[0.16540510989060794,0.09502141803655569]","[-1,-1,-1]","[0.11969904473639223,-0.10582997608433412]","[1,1,1]","[0.08266504348068761,-0.08536012295887362]","[-1,-1,-1]","[-0.14746589844879307,0.05302779601163897]","[1,1,1]","[-0.05248709384278225,-0.026923339199593898]","[1,1,1]","[0.1261039987516282,-0.14564908679333588]","[-1,-1,-1]","[0.03388628467830864,-0.07350325196398576]","[-1,-1,-1]","[0.0635399627764087,0.11804392135402579]","[-1,-1,-1]","[-0.03529457764596495,-0.18169576982635996]","[-1,-1,-1]","[-0.07459404929222359,0.010394603260511767]","[-1,-1,-1]","[0.02,0.02]",66.824,0,2,2,85,1,,,,,,,
,,,,,,,664cf2037353bb98801436b5,682f0fbd2b2a740b1842af4a,2025-05-22_08h44.03.108,cuing_paradigm_dot,2024.1.5,MacIntel,47.61904762,682d573fa47f1360d1451895,,,,,,,,,,,66.824,67.324,,,67.575,68.581,left,1,,,,,,,,,0.55,,,,,,67.324,67.575,68.581,"[-0.05003546956463488,0.16468204804097022]","[1,1,1]","[-0.05814174208372938,0.10476696507146786]","[1,1,1]","[0.058939211369587026,0.033974454192623835]","[-1,-1,-1]","[0.08154831770500343,0.17852475497980602]","[-1,-1,-1]","[0.03125783165179516,0.1857192996480549]","[-1,-1,-1]","[0.04009358204423766,0.0840155909648294]","[-1,-1,-1]","[-0.18916199904471498,0.05046416716876459]","[-1,-1,-1]","[0.09239953047120882,-0.09241032398684279]","[-1,-1,-1]","[-0.08531077625878793,-0.09928113081832192]","[1,1,1]","[-0.06812343592408414,0.039302531922518966]","[-1,-1,-1]","[-0.0010807601479160256,-0.028329994212393007]","[1,1,1]","[-0.06864862069019201,-0.1561793005595881]","[1,1,1]","[-0.0884544485133481,0.14226285306630693]","[1,1,1]","[-0.19353868919255465,0.0074505011328765145]","[1,1,1]","[0.06196301815065567,-0.041661914964556984]","[1,1,1]","[-0.1088754002677975,-0.06339676038103757]","[1,1,1]","[-0.11564543434414115,-0.14103648884537784]","[-1,-1,-1]","[0.018931307540118892,0.047970061094481625]","[1,1,1]","[0.008527379996305508,-0.1138534964524264]","[1,1,1]","[-0.16290640725136823,-0.11182067095082669]","[-1,-1,-1]","[-0.005905965576050935,0.014138457176717894]","[1,1,1]","[-0.14997743904504485,-0.002878956829761876]","[1,1,1]","[0.031226663229367593,-0.0010454944589273452]","[-1,-1,-1]","[0.1573600127716914,0.06423616590052754]","[1,1,1]","[0.14182790978291485,0.10109761666164364]","[1,1,1]","[-0.006549828009501132,-0.16730060024985763]","[-1,-1,-1]","[0.16204987878195506,-0.05867681765581128]","[-1,-1,-1]","[-0.13796646296150208,0.12351972709735543]","[-1,-1,-1]","[0.045735953298397365,-0.1785286718829781]","[1,1,1]","[0.14318213167387162,-0.11500531534003196]","[-1,-1,-1]","[0.049689346500101844,-0.11003304045337392]","[1,1,1]","[-0.12203669227643264,0.028293367183314946]","[1,1,1]","[0.02,0.02]",69.677,0,3,3,141,1,,,,,,,
,,,,,,,664cf2037353bb98801436b5,682f0fbd2b2a740b1842af4a,2025-05-22_08h44.03.108,cuing_paradigm_dot,2024.1.5,MacIntel,47.61904762,682d573fa47f1360d1451895,,,,,,,,,,,69.679,70.177,,,70.428,70.666,right,0.231,,,,,,,,,0.1,,,,,,70.177,70.428,70.667,"[0.03728436455810751,-0.08355108318895113]","[-1,-1,-1]","[-0.014889683343117441,0.05953649832083534]","[-1,-1,-1]","[-0.022340048518379504,-0.13376284209550846]","[-1,-1,-1]","[-0.09605292875436101,-0.03068442116006468]","[-1,-1,-1]","[-0.06527500023508871,-0.06867788840720722]","[-1,-1,-1]","[0.13740000218357198,-0.10470669436426627]","[-1,-1,-1]","[-0.05906443481186191,0.07232175627576519]","[-1,-1,-1]","[0.17145799066366268,-0.08122131536522485]","[-1,-1,-1]","[-0.18477263925275023,-0.05183267288913893]","[-1,-1,-1]","[0.054587677519315245,0.14520614294752915]","[-1,-1,-1]","[-0.04836947492706306,0.15990064067925402]","[-1,-1,-1]","[0.08341198135458641,0.10556644013168565]","[-1,-1,-1]","[-0.17757193413157557,0.025410879027307525]","[-1,-1,-1]","[0.06970457204357654,-0.01435553247788521]","[-1,-1,-1]","[0.11667310679508155,0.14975526003017617]","[-1,-1,-1]","[-0.13452929074952827,0.050479679373642394]","[-1,-1,-1]","[-0.022733431089323557,0.10955592410206447]","[-1,-1,-1]","[0.03244374613297066,0.013807557584243556]","[-1,-1,-1]","[0.03687979939694259,0.0783270860663243]","[-1,-1,-1]","[-0.11625116239085866,0.15612937607044197]","[-1,-1,-1]","[0.0650205831872221,-0.14803585486690418]","[-1,-1,-1]","[-0.15445583203878596,-0.0974894364111204]","[-1,-1,-1]","[0.19135585708340988,-0.03278519994709743]","[1,1,1]","[0.00035230858763451127,0.15611665020494958]","[-1,-1,-1]","[-0.03159899946913529,0.009959961880985564]","[1,1,1]","[0.002430229805174065,-0.05517463970661582]","[-1,-1,-1]","[-0.15215931548565373,0.10012034390001173]","[1,1,1]","[0.12495600381305694,-0.04148842558113329]","[-1,-1,-1]","[-0.09268464482097329,0.11735849614997083]","[-1,-1,-1]","[0.1424126910664996,0.08610845562961635]","[-1,-1,-1]","[-0.0997524009854486,0.028121291944464766]","[-1,-1,-1]","[-0.15652677067240525,-0.010045730074348988]","[-1,-1,-1]","[0.02,0.02]",71.761,0,4,4,0,1,,,,,,,
,,,,,,,664cf2037353bb98801436b5,682f0fbd2b2a740b1842af4a,2025-05-22_08h44.03.108,cuing_paradigm_dot,2024.1.5,MacIntel,47.61904762,682d573fa47f1360d1451895,,,,,,,,,,,71.762,72.263,,,72.513,73.335,right,0.815,,,,,,,,,0.45,,,,,,72.263,72.513,73.335,"[0.15741400488994917,-0.06742152501130991]","[-1,-1,-1]","[0.18826149667387385,0.04508416853934067]","[-1,-1,-1]","[0.11571297535744225,-0.13056431943052443]","[1,1,1]","[-0.15254646247841364,-0.12813858281456683]","[1,1,1]","[0.0420421186548456,0.0037385412742188756]","[-1,-1,-1]","[0.18630296249836467,-0.03257450196874418]","[1,1,1]","[0.11559378415872158,-0.004109110420796921]","[-1,-1,-1]","[-0.14644152894494872,-0.039486852756268426]","[-1,-1,-1]","[-0.11448689234241256,0.13010301410919262]","[1,1,1]","[-0.00027987689033121254,-0.112439548100322]","[-1,-1,-1]","[0.13778303027677388,0.09992326427603573]","[-1,-1,-1]","[0.004955554287239284,0.17193517233214897]","[1,1,1]","[0.02843042070104494,-0.06228791406267122]","[-1,-1,-1]","[-0.018337954188508004,-0.1601033565945332]","[1,1,1]","[-0.18237974794184625,-0.06514230892557198]","[-1,-1,-1]","[0.06707343038425052,-0.1360282995275203]","[-1,-1,-1]","[0.12251720558809387,0.1451231081227951]","[-1,-1,-1]","[-0.18157723061975187,0.03097901507100066]","[1,1,1]","[-0.060671250841576825,-0.00304609916831485]","[-1,-1,-1]","[0.10194828900300137,-0.07280587298871702]","[-1,-1,-1]","[0.07392239271657142,0.14948673354995584]","[1,1,1]","[0.09743279168196826,0.07139563244387198]","[-1,-1,-1]","[-0.07296296594870126,-0.1772207698840175]","[1,1,1]","[-0.06304558346494142,-0.13267816645152344]","[1,1,1]","[0.00725376424455357,0.1272279692237329]","[-1,-1,-1]","[-0.10693605829318521,-0.15603880418117066]","[-1,-1,-1]","[-0.07494930001858083,0.11444317299831416]","[-1,-1,-1]","[0.01980695368389199,0.07689959648651674]","[-1,-1,-1]","[-0.1286447641630575,-0.07757907102090573]","[1,1,1]","[-0.048983454822771354,0.07028484750767391]","[1,1,1]","[-0.13837993077611419,0.014664681262405969]","[1,1,1]","[-0.09014624171426823,0.05544706247399619]","[1,1,1]","[0.02,0.02]",74.431,0,5,5,76,1,,,,,,,
,,,,,,,664cf2037353bb98801436b5,682f0fbd2b2a740b1842af4a,2025-05-22_08h44.03.108,cuing_paradigm_dot,2024.1.5,MacIntel,47.61904762,682d573fa47f1360d1451895,,,,,,,,,,,74.431,74.932,,,75.182,75.921,right,0.732,,,,,,,,,0.45,,,,,,74.932,75.182,75.921,"[-0.046373146022055896,0.02229217492774087]","[1,1,1]","[-0.12143452350543615,0.0088192169826671]","[-1,-1,-1]","[0.07441189808644363,0.10011141928474561]","[1,1,1]","[0.0761028412772345,-0.08408052680896921]","[-1,-1,-1]","[-0.12097875938176454,0.050797995173599314]","[-1,-1,-1]","[-0.0989603873430088,-0.061992447925968246]","[1,1,1]","[-0.00257520241930022,-0.0409410108218953]","[-1,-1,-1]","[-0.17367526705961944,-0.057403261792800274]","[1,1,1]","[0.10356561052708214,-0.1424485161410534]","[1,1,1]","[0.043239367050905204,0.03089537427994717]","[1,1,1]","[0.16948119065303982,0.047949753424891266]","[-1,-1,-1]","[0.00863387223596109,-0.09552190008865127]","[-1,-1,-1]","[0.00721998059511491,0.05403118962734877]","[-1,-1,-1]","[-0.05515988330944011,-0.019611102097264226]","[-1,-1,-1]","[0.04542861396475273,-0.12979226354913875]","[1,1,1]","[-0.05636697396327119,0.09498443084358357]","[-1,-1,-1]","[-0.03888891273828589,-0.10012345420928886]","[1,1,1]","[0.19444460177911668,-0.011019267545968598]","[-1,-1,-1]","[-0.17283636803090144,-0.01340311831581859]","[1,1,1]","[0.08384450349332602,-0.01694810415110046]","[-1,-1,-1]","[-0.0016991353163701552,-0.14030715638519545]","[-1,-1,-1]","[0.10839332906272903,0.13203947256322754]","[1,1,1]","[-0.06545536636629778,0.17993055275724523]","[1,1,1]","[0.060840155574532664,0.15710118418920832]","[-1,-1,-1]","[-0.031610015952073446,0.14306438734649737]","[1,1,1]","[-0.023989424768952054,0.18679214885169407]","[-1,-1,-1]","[-0.001115952268634432,0.09661535319156891]","[1,1,1]","[0.11498973623033926,-0.10079619335843965]","[1,1,1]","[0.18577473473957237,-0.05074096901162619]","[-1,-1,-1]","[-0.16813278808983537,0.0677136951893961]","[-1,-1,-1]","[0.029172804553488644,0.18861411801261527]","[-1,-1,-1]","[0.12605508321464395,-0.059961762010522196]","[-1,-1,-1]","[0.02,0.02]",77.017,0,6,6,83,1,,,,,,,
,,,,,,,664cf2037353bb98801436b5,682f0fbd2b2a740b1842af4a,2025-05-22_08h44.03.108,cuing_paradigm_dot,2024.1.5,MacIntel,47.61904762,682d573fa47f1360d1451895,,,,,,,,,,,77.017,77.517,,,77.768,78.225,left,0.449,,,,,,,,,0.55,,,,,,77.517,77.768,78.225,"[-0.1285480290059921,-0.13832712500454836]","[1,1,1]","[-0.08023949134112861,-0.05106213397789546]","[-1,-1,-1]","[-0.1614995858918198,-0.020260877767520686]","[1,1,1]","[-0.14939087675736498,0.06066366939904583]","[-1,-1,-1]","[0.032370053219220624,-0.07269556192657708]","[1,1,1]","[0.16016089988639554,-0.08945261070181486]","[-1,-1,-1]","[0.11953153626475352,-0.07643348531824418]","[-1,-1,-1]","[0.07604626288864134,-0.10770721951993097]","[-1,-1,-1]","[0.013219112477228017,0.08822619025403804]","[1,1,1]","[-0.12582847223066548,-0.0945564444199625]","[-1,-1,-1]","[-0.07321990326754632,0.15583524023846373]","[-1,-1,-1]","[0.12412203781434501,-0.14080612797123712]","[1,1,1]","[0.034372928475410215,-0.11711013124925604]","[-1,-1,-1]","[-0.11375718701255796,0.03368773483339277]","[1,1,1]","[-0.08476736124893686,-0.17571057493062703]","[1,1,1]","[0.09238077889495855,0.1483292239243141]","[1,1,1]","[-0.03798054606597613,0.1786563363323824]","[1,1,1]","[-0.11870434514860291,0.10402458808127164]","[-1,-1,-1]","[0.13942444313096644,-0.0392014370582179]","[1,1,1]","[-0.048120596036721974,-0.08056060793116006]","[-1,-1,-1]","[-0.0002736580129417178,0.1573745238801645]","[1,1,1]","[0.0647490361085608,0.005078328250817729]","[1,1,1]","[0.05901063368266109,-0.16722454221547298]","[-1,-1,-1]","[-0.11749150227010642,-0.015592765058547564]","[-1,-1,-1]","[0.11886856262999926,0.02116889323378678]","[1,1,1]","[-0.027525103260982873,-0.003116249987857274]","[1,1,1]","[0.04464055796553648,-0.03258869405859111]","[1,1,1]","[-0.03797042877348566,-0.1295576124338602]","[1,1,1]","[0.18945150941848818,0.06386979327556923]","[-1,-1,-1]","[-0.05515788569131089,0.06733649407407948]","[-1,-1,-1]","[0.04465651134575028,0.1576019694301358]","[1,1,1]","[-0.03012550062698507,-0.17146868142332417]","[1,1,1]","[0.02,0.02]",79.319,0,7,7,129,1,,,,,,,
,,,,,,,664cf2037353bb98801436b5,682f0fbd2b2a740b1842af4a,2025-05-22_08h44.03.108,cuing_paradigm_dot,2024.1.5,MacIntel,47.61904762,682d573fa47f1360d1451895,,,,,,,,,,,79.319,79.82,,,80.07,80.493,left,0.416,,,,,,,,,0.9,,,,,,79.82,80.07,80.494,"[-0.18336511884999523,-0.055348077146237414]","[1,1,1]","[0.0325244995341858,-0.14450776004564753]","[1,1,1]","[0.06151937153649868,-0.18172880494376284]","[1,1,1]","[-0.024640078235488905,0.06617380454085081]","[-1,-1,-1]","[0.06978728647023553,-0.10018969495518618]","[-1,-1,-1]","[-0.007835642978773032,0.13143147027752694]","[1,1,1]","[0.06135881511083088,0.12775777429864688]","[1,1,1]","[-0.12818702984575242,-0.04222233518898932]","[-1,-1,-1]","[-0.11848233012416055,-0.09744325631682119]","[1,1,1]","[0.04202803669568551,-0.06982647666228017]","[1,1,1]","[0.11629781231421593,0.10689931748931411]","[1,1,1]","[0.13760217130452906,-0.011987638446819366]","[1,1,1]","[-0.0071350466623627835,-0.07925257246447147]","[1,1,1]","[-0.06267596407228815,0.16168152269730823]","[1,1,1]","[-0.03316544010108535,-0.030221581001537597]","[1,1,1]","[0.12640595521280334,-0.154546109989743]","[1,1,1]","[0.0017388324163737853,-0.18311348648660875]","[1,1,1]","[0.1533749005543119,0.051623130475459224]","[1,1,1]","[-0.07736715400030461,-0.03737091064109204]","[1,1,1]","[0.10904996855451891,-0.06833208646090128]","[1,1,1]","[-0.07761147083934287,0.058275375242921916]","[1,1,1]","[-0.1324653441490549,-0.14393974332878498]","[1,1,1]","[0.06311054909255309,0.03394456283071626]","[1,1,1]","[-0.17870427398984748,-0.0032292861325237416]","[1,1,1]","[-0.03864637226183237,0.015344737179238439]","[1,1,1]","[-0.07691718091973646,-0.11143350066419516]","[1,1,1]","[-0.05694844487618035,0.11618278087780518]","[1,1,1]","[0.15838986603881675,-0.10379579909255351]","[1,1,1]","[0.11500956116131458,0.02852173632070638]","[1,1,1]","[-0.13282282399277423,0.1196153019266623]","[1,1,1]","[-0.1411544464676136,0.018692895135958894]","[1,1,1]","[0.16580099349921165,-0.04384575691936865]","[1,1,1]","[0.02,0.02]",81.588,0,8,8,207,1,,,,,,,
,,,,,,,664cf2037353bb98801436b5,682f0fbd2b2a740b1842af4a,2025-05-22_08h44.03.108,cuing_paradigm_dot,2024.1.5,MacIntel,47.61904762,682d573fa47f1360d1451895,,,,,,,,,,,81.589,82.088,,,82.34,83.412,left,1.067,,,,,,,,,0.5,,,,,,82.088,82.339,83.413,"[-0.19175852633089846,-0.024724286569477876]","[1,1,1]","[-0.06898845860871332,0.14177492430238306]","[-1,-1,-1]","[-0.15108300075919187,-0.06038524071714921]","[-1,-1,-1]","[0.032771400992395505,0.08812918439731175]","[-1,-1,-1]","[0.12123062676279005,-0.013066542459074201]","[-1,-1,-1]","[-0.021342103095107586,0.04293404043985586]","[1,1,1]","[0.09562447325320202,0.03147973694482104]","[1,1,1]","[-0.09555531909028428,0.016690729475800088]","[1,1,1]","[-0.012789416312161088,0.12356411931260974]","[-1,-1,-1]","[0.022032952034092307,0.1780538572117254]","[1,1,1]","[0.05124618815679669,-0.01363764483931261]","[-1,-1,-1]","[-0.09294210122504507,-0.12909174962176068]","[1,1,1]","[-0.07361738657808854,0.062321901495177655]","[1,1,1]","[0.09064112218544997,-0.10548622056207212]","[1,1,1]","[0.05658432605915258,-0.15170779156680123]","[1,1,1]","[0.14196579290946465,0.09803667004146163]","[-1,-1,-1]","[0.06395112517461715,0.15355127353670855]","[-1,-1,-1]","[0.08963078527137806,0.07268854928779603]","[1,1,1]","[-0.14638346524476678,0.12914052771018183]","[-1,-1,-1]","[-0.05346539439721649,0.00859085787584207]","[1,1,1]","[0.014806055781148842,-0.06371525617472114]","[1,1,1]","[-0.10894924694698867,0.08133621668768791]","[-1,-1,-1]","[-0.15186922688485222,-0.1156603436386552]","[1,1,1]","[0.15067283343427948,0.03392290944314604]","[-1,-1,-1]","[0.15701061833266808,-0.07003323815914951]","[-1,-1,-1]","[-0.057052354308339166,-0.17211421655842918]","[1,1,1]","[-0.08135146775921141,-0.038389061084836196]","[-1,-1,-1]","[0.020547434256795203,0.02876650566413091]","[-1,-1,-1]","[-0.18495907011559606,0.06899264674605458]","[1,1,1]","[-0.024021803480690662,-0.14504976344672854]","[1,1,1]","[-0.0665460994906327,-0.09132369143229249]","[-1,-1,-1]","[0.09089648768746085,0.1155737480120028]","[-1,-1,-1]","[0.02,0.02]",84.507,0,9,9,116,1,,,,,,,
,,,,,,,664cf2037353bb98801436b5,682f0fbd2b2a740b1842af4a,2025-05-22_08h44.03.108,cuing_paradigm_dot,2024.1.5,MacIntel,47.61904762,682d573fa47f1360d1451895,,,,,,,,,,,84.508,85.008,,,85.26,85.732,left,0.465,,,,,,,,,0.55,,,,,,85.008,85.26,85.732,"[-0.030917347763294047,0.02681046760887537]","[1,1,1]","[-0.07796011031862961,0.01805283662197391]","[1,1,1]","[-0.024181421371334548,-0.1257686380750296]","[-1,-1,-1]","[0.1438567035494379,-0.015901869238322337]","[1,1,1]","[0.1341585034237266,0.09716792077024665]","[1,1,1]","[0.08215149705105818,-0.17336254781087246]","[-1,-1,-1]","[-0.1796027951662185,-0.06716000136193952]","[1,1,1]","[-0.027063529142886407,0.07719171392300088]","[1,1,1]","[-0.06321288282889441,-0.08920745681113469]","[1,1,1]","[-0.0752015377618032,0.12258574800822945]","[-1,-1,-1]","[-0.16352113416331368,0.02574230912020445]","[-1,-1,-1]","[-0.1217874569933741,-0.14203678138336603]","[-1,-1,-1]","[-0.10299049098870336,-0.02113341436769433]","[1,1,1]","[0.04338086241801309,0.1912052232573701]","[-1,-1,-1]","[0.04228425877890824,0.1477978665904508]","[-1,-1,-1]","[0.003604173180391928,-0.0689903440048441]","[1,1,1]","[0.14187274189397014,-0.1080352597716476]","[-1,-1,-1]","[0.06274456241618519,-0.07189917547300081]","[1,1,1]","[-0.12286203541785726,-0.09108267307391246]","[1,1,1]","[0.09024489332333487,0.11645152573340416]","[-1,-1,-1]","[-0.14795601340582,-0.012994669056089751]","[1,1,1]","[0.0382628452961711,0.0010661573728019658]","[1,1,1]","[0.13130951271234406,0.04909159216159971]","[1,1,1]","[0.0580640299567621,0.03649766124783738]","[1,1,1]","[-0.08590819453199078,0.08244193949580805]","[1,1,1]","[-0.02741862023143104,0.19773613478214747]","[-1,-1,-1]","[-0.12698018892783006,0.11476261140837923]","[-1,-1,-1]","[-0.0032086900991168048,0.11971898655249376]","[-1,-1,-1]","[-0.09042698407367876,-0.16777857975764063]","[-1,-1,-1]","[0.047194757232193435,-0.1525646032049426]","[-1,-1,-1]","[0.10017855068264751,-0.005850389014953312]","[1,1,1]","[0.09255911176705317,-0.12988944197211855]","[1,1,1]","[0.02,0.02]",86.826,0,10,10,126,1,,,,,,,
,,,,,,,664cf2037353bb98801436b5,682f0fbd2b2a740b1842af4a,2025-05-22_08h44.03.108,cuing_paradigm_dot,2024.1.5,MacIntel,47.61904762,682d573fa47f1360d1451895,,,,,,,,,,,86.828,87.327,,,87.578,88.317,right,0.733,,,,,,,,,0.4,,,,,,87.327,87.578,88.317,"[0.04818409272413293,0.021048251183825646]","[-1,-1,-1]","[0.11944570319966649,0.1185122919939369]","[-1,-1,-1]","[0.010245962152410191,0.11478094270578615]","[-1,-1,-1]","[-0.15142307402252578,-0.030674997921756004]","[1,1,1]","[-0.022150548490984308,-0.1669880897456571]","[-1,-1,-1]","[0.03319994691861726,0.18125106001676522]","[-1,-1,-1]","[0.0018772087076720603,0.04580103013593367]","[-1,-1,-1]","[-0.008086173647039898,0.19780192298562568]","[-1,-1,-1]","[-0.09020799116385943,0.012455414991226127]","[-1,-1,-1]","[0.1578209521025995,-0.06330845014350577]","[-1,-1,-1]","[-0.06997822306195076,-0.0804355468768976]","[-1,-1,-1]","[0.16797879185320264,0.016849691984087978]","[-1,-1,-1]","[0.027994766502651956,-0.19564360158394925]","[1,1,1]","[-0.021768561365736572,-0.11328163603090574]","[1,1,1]","[0.09655138317979862,-0.007065388058865669]","[-1,-1,-1]","[0.04783389285777734,-0.10474015393929276]","[-1,-1,-1]","[0.13314222245030677,0.04112965185214747]","[-1,-1,-1]","[-0.029063065407108575,-0.011171997239948776]","[1,1,1]","[-0.12829277756565757,-0.11188043359014346]","[-1,-1,-1]","[0.10065397343418431,0.16903100020359743]","[1,1,1]","[-0.10347205449804375,0.08437956770685014]","[1,1,1]","[-0.05075773660154761,0.11027549589061045]","[1,1,1]","[0.10000388173732971,-0.14927479601061855]","[-1,-1,-1]","[0.005001121930628142,-0.05000159301520559]","[1,1,1]","[0.10788604318361299,-0.06278901583842997]","[-1,-1,-1]","[0.16466831257804815,0.11053048501968483]","[1,1,1]","[-0.06990388284749077,0.1694450582780188]","[-1,-1,-1]","[0.02517056694136652,-0.14583802042379873]","[-1,-1,-1]","[-0.17379021521399532,-0.0690785019585923]","[1,1,1]","[0.0943195333748163,0.0727051265368207]","[1,1,1]","[0.045720510084668854,0.07396704273774964]","[1,1,1]","[-0.13994744741923124,0.05794797538308421]","[1,1,1]","[0.02,0.02]",89.412,0,11,11,56,1,,,,,,,
,,,,,,,664cf2037353bb98801436b5,682f0fbd2b2a740b1842af4a,2025-05-22_08h44.03.108,cuing_paradigm_dot,2024.1.5,MacIntel,47.61904762,682d573fa47f1360d1451895,,,,,,,,,,,89.413,89.913,,,90.164,90.686,right,0.515,,,,,,,,,0.45,,,,,,89.913,90.164,90.686,"[-0.018080418692608832,0.07435205250442313]","[1,1,1]","[0.12587000174759821,0.06357480907326733]","[-1,-1,-1]","[-0.12401877590748195,-0.008837116134188978]","[1,1,1]","[-0.16699619273707514,0.07940345320971261]","[-1,-1,-1]","[-0.10988463632913315,-0.13468081551852845]","[-1,-1,-1]","[-0.09172222812443173,0.09472644751746992]","[-1,-1,-1]","[0.04421584070864173,0.16309803094957323]","[1,1,1]","[0.03308634706881587,0.07630855904376677]","[1,1,1]","[-0.00128696400352381,-0.12511408603389898]","[1,1,1]","[-0.1319947260670969,0.03738223830396311]","[-1,-1,-1]","[-0.17262134344516197,0.007236268711367461]","[-1,-1,-1]","[-0.13421147541299466,0.13486477369119873]","[1,1,1]","[0.0915169708855841,-0.13513632991514649]","[-1,-1,-1]","[-0.06627029742522018,0.020113821997006964]","[1,1,1]","[-0.14031522802479568,-0.07243510754146065]","[-1,-1,-1]","[0.07273003241472752,-0.033924046202443756]","[1,1,1]","[0.07059472410920183,0.05573174643114931]","[1,1,1]","[-0.07696280979099088,-0.025536994662175315]","[1,1,1]","[-0.01745874823089196,0.16605705155234585]","[-1,-1,-1]","[0.037692970040452245,-0.0981111853483571]","[-1,-1,-1]","[-0.016463082825191256,-0.07749437335832773]","[1,1,1]","[-0.04356270816404566,0.11785253108580158]","[-1,-1,-1]","[0.134600401545974,-0.14527117052318161]","[-1,-1,-1]","[-0.06773552491937403,-0.18209910147849975]","[-1,-1,-1]","[0.1373494642755542,-0.09330776265778636]","[-1,-1,-1]","[-0.02418259840656543,0.004347240915015209]","[-1,-1,-1]","[0.04579111965605799,-0.1595760111841511]","[1,1,1]","[-0.018999772055599107,-0.17596956288647825]","[-1,-1,-1]","[-0.19456290971291793,0.04611935524822669]","[-1,-1,-1]","[-0.14958107773353382,-0.11685387113974373]","[1,1,1]","[0.1415408441018902,-0.015602854974183568]","[-1,-1,-1]","[0.11061812995576771,-0.05911188352492438]","[1,1,1]","[0.02,0.02]",91.781,0,12,12,67,1,,,,,,,
,,,,,,,664cf2037353bb98801436b5,682f0fbd2b2a740b1842af4a,2025-05-22_08h44.03.108,cuing_paradigm_dot,2024.1.5,MacIntel,47.61904762,682d573fa47f1360d1451895,,,,,,,,,,,91.782,92.282,,,92.533,93.005,left,0.465,,,,,,,,,0.5,,,,,,92.282,92.533,93.005,"[0.1613521731874309,0.03996191397480747]","[1,1,1]","[0.08628610902651065,-0.07697455458191241]","[1,1,1]","[0.07214326772424763,-0.12125529411055673]","[-1,-1,-1]","[-0.004271015401521427,-0.13695715808688888]","[-1,-1,-1]","[-0.1537737313137552,-0.0288483168757268]","[1,1,1]","[-0.016238569701402857,0.08418227578992117]","[1,1,1]","[-0.16098494889369855,0.012643567421782591]","[-1,-1,-1]","[-0.037252424062855005,-0.0702512610079206]","[-1,-1,-1]","[0.19885639600169452,0.007512126402285449]","[-1,-1,-1]","[-0.07524931246513007,0.14119239822764748]","[-1,-1,-1]","[0.0664146067174204,-0.007464285088623842]","[-1,-1,-1]","[-0.08065018770731132,0.05056628648358136]","[-1,-1,-1]","[0.14222119468230104,-0.019591310430383174]","[1,1,1]","[-0.017798200887649784,-0.014436981862189866]","[-1,-1,-1]","[-0.10612190724281324,-0.07702871770530763]","[1,1,1]","[-0.10518126079532444,-0.14113646907140084]","[1,1,1]","[0.007817065244943364,-0.07446424641874344]","[1,1,1]","[0.013939065522692147,-0.19801008689847716]","[1,1,1]","[0.0641746886095406,0.07739911559991346]","[-1,-1,-1]","[-0.11840580352339454,0.006160303927333918]","[-1,-1,-1]","[-0.0371019373671093,0.18119065714752652]","[-1,-1,-1]","[-0.11998495387131987,0.09285851584650211]","[1,1,1]","[0.018365919428820085,0.19444469998539157]","[1,1,1]","[0.1348417591545447,0.14114192600628137]","[-1,-1,-1]","[0.11273261943405882,0.08026417489894057]","[1,1,1]","[0.07217119345943235,0.15459203399222668]","[1,1,1]","[0.03864143922788625,0.030852268143834502]","[-1,-1,-1]","[0.15939168406581228,-0.07488831029747679]","[-1,-1,-1]","[-0.12644286666531457,0.1393678186563066]","[1,1,1]","[0.16209709909197495,-0.11693906047038541]","[1,1,1]","[-0.19771129678137173,-0.005524793271828143]","[-1,-1,-1]","[-0.007904212742773496,0.1238033137088506]","[1,1,1]","[0.02,0.02]",94.1,0,13,13,117,1,,,,,,,
,,,,,,,664cf2037353bb98801436b5,682f0fbd2b2a740b1842af4a,2025-05-22_08h44.03.108,cuing_paradigm_dot,2024.1.5,MacIntel,47.61904762,682d573fa47f1360d1451895,,,,,,,,,,,94.101,94.601,,,94.852,95.657,right,0.799,,,,,,,,,0.4,,,,,,94.601,94.852,95.657,"[-0.054173478462859075,0.0745451542607633]","[-1,-1,-1]","[-0.017900973340315034,-0.19178798055744575]","[1,1,1]","[-0.030266217793587093,0.13278561601938452]","[1,1,1]","[0.11810614048234051,-0.09819568289222368]","[1,1,1]","[-0.11852172324056878,0.07941726775333298]","[1,1,1]","[-0.10998375069897513,0.03906138717785537]","[1,1,1]","[0.14995544615863873,0.0092953649422881]","[-1,-1,-1]","[0.13364695257750978,0.1016310731646361]","[1,1,1]","[-0.010813752253176758,0.06737477770367933]","[-1,-1,-1]","[-0.006935837937914273,-0.1295289553594201]","[-1,-1,-1]","[-0.16351224504169715,0.09978854013863608]","[-1,-1,-1]","[-0.12558790763192934,-0.046003718730558425]","[-1,-1,-1]","[-0.05923684277602418,-0.06628050796876143]","[-1,-1,-1]","[0.0012652616068711587,-0.07192937539110367]","[1,1,1]","[0.05030592334649683,0.044913399477613504]","[-1,-1,-1]","[-0.051725105356632155,-0.14902818099804727]","[-1,-1,-1]","[0.03542086532965452,0.1682324172997382]","[1,1,1]","[0.08431249081258449,-0.07265612643266788]","[1,1,1]","[0.11060958407020724,0.0361506132689802]","[-1,-1,-1]","[-0.10196329193303633,0.15580705002633066]","[-1,-1,-1]","[0.16770164585769431,-0.0366676060005058]","[-1,-1,-1]","[-0.09703328791351347,-0.08131668087912193]","[-1,-1,-1]","[-0.15726196558441324,-0.11274625279750196]","[1,1,1]","[0.11934717749070038,-0.15907223111005378]","[1,1,1]","[-0.019775639322585928,-0.030788769399430958]","[1,1,1]","[0.030533147618382363,-0.10072097825864786]","[-1,-1,-1]","[-0.10470983335280552,-0.006248975735360677]","[-1,-1,-1]","[-0.08669283362363935,0.11581332932374319]","[-1,-1,-1]","[0.05673471157324841,-0.1488680038826342]","[-1,-1,-1]","[0.07633028990719758,0.12892584097151216]","[-1,-1,-1]","[-0.0629438831365489,-0.011121650415160889]","[-1,-1,-1]","[-0.11260561977314634,-0.1429784140860611]","[1,1,1]","[0.02,0.02]",96.753,0,14,14,58,1,,,,,,,
,,,,,,,664cf2037353bb98801436b5,682f0fbd2b2a740b1842af4a,2025-05-22_08h44.03.108,cuing_paradigm_dot,2024.1.5,MacIntel,47.61904762,682d573fa47f1360d1451895,,,,,,,,,,,96.754,97.253,,,97.504,98.01,left,0.499,,,,,,,,,0.5,,,,,,97.253,97.504,98.01,"[0.0805373931528923,-0.12356465235442325]","[-1,-1,-1]","[-0.014753501164902658,-0.04932131597579208]","[1,1,1]","[-0.16085028637889862,0.07010429809223534]","[-1,-1,-1]","[-0.0684530321188555,-0.07333599076899144]","[-1,-1,-1]","[-0.19263110511584167,0.037747864040556814]","[-1,-1,-1]","[-0.08629850847759604,0.05665024178918759]","[1,1,1]","[0.16338498406814234,-0.004356571671286175]","[-1,-1,-1]","[0.14801409040326838,0.0770405216811734]","[-1,-1,-1]","[-0.026283652818490807,0.0671893754262962]","[1,1,1]","[-0.10482604100538259,-0.09523684486468016]","[1,1,1]","[0.116204533790734,-0.07006971805425626]","[1,1,1]","[0.15427437905846994,-0.11968801554974574]","[1,1,1]","[0.0927037330804855,0.1374648568529807]","[1,1,1]","[-0.06451780020407355,-0.013154256546861089]","[1,1,1]","[-0.019355701980769562,0.0059122165031164535]","[-1,-1,-1]","[0.05076532081300038,-0.0643376258252126]","[-1,-1,-1]","[0.021277052741761556,-0.10754983526087669]","[-1,-1,-1]","[0.03324128317228457,-0.178293689819107]","[1,1,1]","[-0.05103463716926827,-0.1687204353385067]","[1,1,1]","[-0.13473390863213827,0.013459895999958001]","[1,1,1]","[-0.030391393094285294,0.16528759771134577]","[1,1,1]","[-0.15778782817273368,-0.039507612549707305]","[1,1,1]","[-0.1553268318164402,-0.091263880634526]","[-1,-1,-1]","[0.05341705220560412,0.17553831952568333]","[1,1,1]","[0.023297793239409458,0.10586051128206656]","[1,1,1]","[0.10722476322107105,0.0654924814048248]","[-1,-1,-1]","[0.0733636331821257,0.09200124966789484]","[1,1,1]","[0.10235634188440863,-0.010453754659109145]","[-1,-1,-1]","[-0.1304386780542091,0.1367557713362804]","[-1,-1,-1]","[0.03419168964672571,0.01284610467244832]","[-1,-1,-1]","[-0.1271915619121985,-0.13786280548244678]","[-1,-1,-1]","[0.07477284970964986,-0.17785459920302552]","[-1,-1,-1]","[0.02,0.02]",99.105,0,15,15,113,1,,,,,,,
,,,,,,,664cf2037353bb98801436b5,682f0fbd2b2a740b1842af4a,2025-05-22_08h44.03.108,cuing_paradigm_dot,2024.1.5,MacIntel,47.61904762,682d573fa47f1360d1451895,,,,,,,,,,,99.106,99.606,,,99.857,100.211,left,0.349,,,,,,,,,0.9,,,,,,99.606,99.857,100.212,"[-0.11521151305132209,-0.05090208563275741]","[1,1,1]","[0.035765393903004664,-0.1420272805382225]","[1,1,1]","[0.07616765975726304,0.1315030129960777]","[1,1,1]","[-0.1558318034784891,-0.04300201785241656]","[1,1,1]","[0.12197846441626682,-0.13193821278178933]","[-1,-1,-1]","[0.011971914668761975,-0.05718347851645855]","[1,1,1]","[0.17229219512820293,-0.026028923684322886]","[1,1,1]","[-0.018679473839672094,-0.0011628841658055085]","[1,1,1]","[0.09364794824342378,-0.08441684799865508]","[1,1,1]","[-0.18078736892845337,0.029340345116323125]","[1,1,1]","[0.1424661462756784,-0.06341920922974958]","[1,1,1]","[-0.052483384085464074,-0.05982817830890459]","[1,1,1]","[-0.053252723153932736,-0.11629669708818735]","[1,1,1]","[-0.07736668970666015,0.14949058017990946]","[1,1,1]","[-0.09026843051627932,0.10534004674788752]","[1,1,1]","[-0.026098410374873534,-0.17636237408626526]","[1,1,1]","[-0.12902148795512713,0.07606774812335179]","[1,1,1]","[0.07167757405146714,-0.035962990164940783]","[1,1,1]","[0.05207578414702612,0.0338838677350606]","[1,1,1]","[0.11797049304594713,0.06811459290488037]","[1,1,1]","[-0.11345312967919512,-0.15212422862322886]","[1,1,1]","[-0.15079336411622368,-0.00012662222980110003]","[1,1,1]","[0.12828983197566166,-0.0009495977272582518]","[1,1,1]","[0.04095554637236278,0.17307291274122635]","[1,1,1]","[0.0809809457210782,-0.12672723539381703]","[-1,-1,-1]","[-0.033265924208912744,0.13236092686739806]","[1,1,1]","[-0.15031479407812975,-0.1035152160203841]","[1,1,1]","[0.012711795414190773,-0.10422948555734962]","[1,1,1]","[0.01706033889525277,0.09139444304190177]","[-1,-1,-1]","[-0.030019048944156846,0.0373995510348961]","[1,1,1]","[0.19046841499753886,0.044102693806091366]","[1,1,1]","[-0.029041788440795923,0.18902772437319934]","[1,1,1]","[0.02,0.02]",101.307,0,16,16,204,1,,,,,,,
,,,,,,,664cf2037353bb98801436b5,682f0fbd2b2a740b1842af4a,2025-05-22_08h44.03.108,cuing_paradigm_dot,2024.1.5,MacIntel,47.61904762,682d573fa47f1360d1451895,,,,,,,,,,,101.308,101.808,,,102.061,102.614,right,0.547,,,,,,,,,0.45,,,,,,101.808,102.061,102.614,"[0.021848612857230068,-0.16464632262215992]","[-1,-1,-1]","[0.1010565817860006,0.1202001977033073]","[-1,-1,-1]","[-0.01686006298686157,0.14806106072957256]","[1,1,1]","[-0.058747522669071094,-0.12362623689295009]","[-1,-1,-1]","[0.054456080353156765,-0.09680739086102932]","[-1,-1,-1]","[-0.0026402400411337144,-0.07757538352977389]","[-1,-1,-1]","[0.06715953835256856,-0.0489070273211488]","[-1,-1,-1]","[-0.15426085049749022,0.009764179332109203]","[1,1,1]","[-0.08299164594933406,0.16456734574552692]","[-1,-1,-1]","[0.1539189785839429,0.12451329705621997]","[-1,-1,-1]","[0.0047164528251052,0.005591248036205904]","[1,1,1]","[-0.12271559230323671,0.13720991586248957]","[-1,-1,-1]","[0.11142609937982693,-0.021148163419013336]","[1,1,1]","[0.18515225020915227,0.0752554805158295]","[1,1,1]","[0.18111668980176165,-0.03592951056610461]","[1,1,1]","[0.021849865100559005,0.049202972363070155]","[-1,-1,-1]","[0.1384977162806332,-0.05465604491681545]","[1,1,1]","[0.10206558377776548,-0.1607634186327385]","[1,1,1]","[-0.026427978029463582,0.1964241983643929]","[1,1,1]","[-0.021117180944982186,0.0914023519946127]","[-1,-1,-1]","[-0.03902708554325575,-0.05647167958039306]","[-1,-1,-1]","[-0.14236929481400806,-0.04386013930917425]","[-1,-1,-1]","[-0.17439644676207433,0.06232583371557188]","[1,1,1]","[-0.1865722980747551,-0.029597232837297822]","[1,1,1]","[-0.06533460456229778,0.02260322460657986]","[1,1,1]","[0.113670254552981,-0.10641202962876557]","[-1,-1,-1]","[0.05277658781790318,0.08519067130629375]","[1,1,1]","[-0.10541014815198232,0.016429824904048]","[-1,-1,-1]","[0.07829781345261606,0.033767589259398476]","[-1,-1,-1]","[0.06516457924714797,0.16657215729625247]","[-1,-1,-1]","[-0.1562734635423211,0.11421376060482329]","[-1,-1,-1]","[-0.06914316832100421,-0.025341939505498085]","[1,1,1]","[0.02,0.02]",103.71,0,17,17,62,1,,,,,,,
,,,,,,,664cf2037353bb98801436b5,682f0fbd2b2a740b1842af4a,2025-05-22_08h44.03.108,cuing_paradigm_dot,2024.1.5,MacIntel,47.61904762,682d573fa47f1360d1451895,,,,,,,,,,,103.711,104.21,,,104.462,104.716,right,0.248,,,,,,,,,0.1,,,,,,104.21,104.462,104.716,"[-0.014316665343850881,0.18741643594443244]","[-1,-1,-1]","[0.030950611155487168,-0.020457254715054607]","[-1,-1,-1]","[-0.09733271241945896,0.07574943914905899]","[-1,-1,-1]","[-0.1286984049597453,0.12175920755367928]","[-1,-1,-1]","[-0.1526354199084237,-0.06962962032457191]","[-1,-1,-1]","[-0.018677977664363205,-0.014869547109974986]","[-1,-1,-1]","[0.13153253275301832,-0.11829558604532814]","[-1,-1,-1]","[-0.059576589751608795,0.15834348228262296]","[-1,-1,-1]","[0.08217994531164713,-0.18012918421966254]","[-1,-1,-1]","[0.17642889091199007,0.004235006136378467]","[-1,-1,-1]","[0.016389127096728927,0.05880891911187922]","[-1,-1,-1]","[-0.18573092875487804,0.05490260373530954]","[-1,-1,-1]","[0.07674840873605357,-0.035195933387067585]","[-1,-1,-1]","[-0.03659677521534878,-0.17648490322346277]","[-1,-1,-1]","[-0.05695166005075656,-0.13403430602269195]","[-1,-1,-1]","[0.032661225703183396,0.10508600650624457]","[-1,-1,-1]","[-0.020121562691965016,0.030560938600949897]","[-1,-1,-1]","[0.0696028262564026,0.14742064416902775]","[1,1,1]","[-0.12719971440711217,-0.03466242412373818]","[-1,-1,-1]","[0.15619740824676984,-0.07668772676257778]","[-1,-1,-1]","[0.12791769091165595,0.15265096783622034]","[1,1,1]","[-0.13746005202804257,0.05266799787464586]","[-1,-1,-1]","[0.0311181333817856,-0.08661533355234921]","[-1,-1,-1]","[-0.006741059770355168,-0.05529116394162154]","[-1,-1,-1]","[0.04894368955991239,-0.1426580434928763]","[-1,-1,-1]","[0.052244071874934225,0.0223326239413123]","[-1,-1,-1]","[-0.03292331013959279,0.09815284846729308]","[-1,-1,-1]","[0.11089974046612398,0.088384042238929]","[-1,-1,-1]","[-0.15257136759130202,-0.11890211759623587]","[1,1,1]","[-0.02524303341130333,-0.09852138022418971]","[-1,-1,-1]","[0.19143886165469648,0.04711806498181425]","[-1,-1,-1]","[-0.1938011901501764,-0.045596123203874794]","[-1,-1,-1]","[0.02,0.02]",105.812,0,18,18,3,1,,,,,,,
,,,,,,,664cf2037353bb98801436b5,682f0fbd2b2a740b1842af4a,2025-05-22_08h44.03.108,cuing_paradigm_dot,2024.1.5,MacIntel,47.61904762,682d573fa47f1360d1451895,,,,,,,,,,,105.812,106.312,,,106.564,106.801,left,0.231,,,,,,,,,0.9,,,,,,106.312,106.564,106.801,"[0.15912832998719242,0.09218497986383413]","[1,1,1]","[-0.09559185414398645,-0.15148198860688245]","[1,1,1]","[0.10496552085111244,0.06970132734724757]","[1,1,1]","[-0.1394546757252418,-0.1310773769072996]","[1,1,1]","[0.02712743941973057,0.10880617045298865]","[1,1,1]","[-0.06684814326590104,0.06661952139910089]","[1,1,1]","[-0.06686430010625072,-0.09815408594386434]","[-1,-1,-1]","[-0.10972491142298019,0.0930262472569397]","[1,1,1]","[0.0988929121358932,-0.09773163971889154]","[1,1,1]","[0.04797836910134122,0.1608018353945213]","[1,1,1]","[0.1282526852533043,0.1444512620713985]","[1,1,1]","[0.004765626773046032,-0.0916400005086958]","[1,1,1]","[0.003256191629094981,0.024931583850674364]","[1,1,1]","[0.09949526654680031,-0.03794899053036615]","[1,1,1]","[-0.03793489835133503,-0.16806548542438987]","[1,1,1]","[-0.11503543635877685,-0.09281555625100353]","[-1,-1,-1]","[0.022578602025314046,-0.15374400315187414]","[1,1,1]","[-0.13711572293386348,-0.04320440331452932]","[1,1,1]","[0.06243680217914324,-0.1887387073142738]","[1,1,1]","[-0.08338843160554454,0.16984526324223467]","[1,1,1]","[0.044467721701435425,-0.053289418962657244]","[1,1,1]","[0.15668570357917896,-0.11307341760820173]","[-1,-1,-1]","[-0.04250328128624766,-0.05053672772076768]","[1,1,1]","[-0.11045660399557711,0.03516093082034007]","[1,1,1]","[-0.09486849242678379,-0.03279320787864305]","[1,1,1]","[-0.15708628574803438,-0.08629917398889876]","[1,1,1]","[-0.01999919185120977,0.06736284309471349]","[1,1,1]","[0.1688410417336953,-0.029413689544252497]","[1,1,1]","[0.15396830759302865,0.036396395753812594]","[1,1,1]","[0.08054411231683387,0.11324870610348949]","[1,1,1]","[0.02941409193390501,-0.00795645805484479]","[1,1,1]","[0.04873805400151855,0.054297538682004085]","[1,1,1]","[0.02,0.02]",107.897,0,19,19,199,1,,,,,,,
,,,,,,,664cf2037353bb98801436b5,682f0fbd2b2a740b1842af4a,2025-05-22_08h44.03.108,cuing_paradigm_dot,2024.1.5,MacIntel,47.61904762,682d573fa47f1360d1451895,,,,,,,,,,,107.898,108.398,,,108.649,109.087,right,0.432,,,,,,,,,0.6,,,,,,108.398,108.649,109.088,"[0.1690544131199176,-0.03298238518273987]","[-1,-1,-1]","[0.08170120081897592,0.15765728654354313]","[1,1,1]","[-0.009220458861819263,0.19162016313650881]","[-1,-1,-1]","[-0.0019600392614098827,-0.0009079854211312697]","[1,1,1]","[0.19133008937260038,0.057880221098857335]","[-1,-1,-1]","[0.04464635025530382,0.015051527844862703]","[-1,-1,-1]","[0.017821632369015974,-0.16346199625682592]","[1,1,1]","[0.026528533544094353,-0.046450601466909436]","[1,1,1]","[0.09524072987918329,-0.11104586778105759]","[1,1,1]","[0.01408959191960209,0.15662084193996595]","[1,1,1]","[-0.08621609151297722,0.0996082970099672]","[1,1,1]","[-0.11737939197385677,-0.06381714925422032]","[-1,-1,-1]","[0.1464528292032805,-0.07509532690751701]","[1,1,1]","[-0.07426218480903163,0.17881115972861433]","[-1,-1,-1]","[-0.037193766653233304,0.14356533170470095]","[1,1,1]","[0.03633683671413684,-0.1248201208134716]","[1,1,1]","[-0.07186796865115352,0.050862234968306476]","[1,1,1]","[-0.1533797305316079,-0.02341791434303097]","[-1,-1,-1]","[0.09174254214212524,-0.01619423452365017]","[1,1,1]","[-0.15509806349780367,0.04522998749807145]","[1,1,1]","[0.18704720583383405,0.009812449991573683]","[-1,-1,-1]","[-0.03986989825546228,-0.10970345497469397]","[1,1,1]","[-0.09244161570808006,-0.12427591158987907]","[1,1,1]","[-0.00545508815012336,0.09454786174992919]","[-1,-1,-1]","[-0.0397046588925902,-0.05522810954105584]","[-1,-1,-1]","[-0.05103034233274863,0.010078644200831459]","[1,1,1]","[0.12075052043323958,0.14435561382542078]","[-1,-1,-1]","[-0.10174827435978155,-0.007918947726773155]","[-1,-1,-1]","[0.06980077725174424,-0.06705576237238649]","[1,1,1]","[0.15449426224110546,0.11874993908181847]","[1,1,1]","[-0.1582567360004903,-0.09486552585626815]","[1,1,1]","[-0.11309059376215568,0.16329220848605894]","[-1,-1,-1]","[0.02,0.02]",110.183,0,20,20,169,1,,,,,,,
,,,,,,,664cf2037353bb98801436b5,682f0fbd2b2a740b1842af4a,2025-05-22_08h44.03.108,cuing_paradigm_dot,2024.1.5,MacIntel,47.61904762,682d573fa47f1360d1451895,,,,,,,,,,,110.183,110.683,,,110.934,111.29,left,0.35,,,,,,,,,0.6,,,,,,110.683,110.934,111.29,"[0.1600830546749754,-0.11240058761670862]","[-1,-1,-1]","[-0.17049460405852887,0.08016933575932265]","[1,1,1]","[-0.15485494711214248,-0.04091316695734145]","[1,1,1]","[-0.1759743978404002,0.029116092948780408]","[1,1,1]","[-0.09394941579942781,0.05383582166953197]","[1,1,1]","[-0.12460295690770844,0.10145293530638294]","[1,1,1]","[0.029673180735903065,-0.04827437245302075]","[1,1,1]","[0.08870814735330569,-0.07784968440187616]","[-1,-1,-1]","[-0.0996132423566541,-0.07148905655896651]","[1,1,1]","[0.005755196969417673,0.091349684506492]","[1,1,1]","[-0.014630057967670532,-0.10861076118207477]","[1,1,1]","[0.030011133543188292,-0.11681560853009615]","[1,1,1]","[0.14681533706742625,-0.022292509343904195]","[-1,-1,-1]","[0.04226801543076913,0.03888427820399011]","[-1,-1,-1]","[-0.12171084479723886,-0.011204508853617266]","[1,1,1]","[0.09101580483198303,0.044724666174380555]","[1,1,1]","[-0.08422867120719894,0.1075566622654483]","[-1,-1,-1]","[0.13804318767991736,0.11308863922088819]","[-1,-1,-1]","[-0.016046915998325376,-0.06403160958996516]","[1,1,1]","[0.03379685713451944,0.13824049173301467]","[-1,-1,-1]","[-0.11566474996713172,0.15831325996403278]","[1,1,1]","[0.002567214898459841,0.0016353483077980438]","[-1,-1,-1]","[0.05785237266469448,-0.15914612015976926]","[-1,-1,-1]","[-0.11414929391468358,-0.14721906937000998]","[-1,-1,-1]","[-0.061626231160514994,-0.006553069961664326]","[-1,-1,-1]","[0.11201101891503248,0.08167122567447171]","[-1,-1,-1]","[-0.03284077772514108,0.07536981124688939]","[1,1,1]","[0.09859210360269635,-0.008023957388174732]","[-1,-1,-1]","[0.06914899074271671,0.177045990445353]","[1,1,1]","[0.017112952493319674,-0.15886818460353022]","[1,1,1]","[-0.16759812133395002,-0.09338635365375861]","[1,1,1]","[-0.08595182861998746,-0.11114530074778499]","[1,1,1]","[0.02,0.02]",112.385,0,21,21,160,1,,,,,,,
,,,,,,,664cf2037353bb98801436b5,682f0fbd2b2a740b1842af4a,2025-05-22_08h44.03.108,cuing_paradigm_dot,2024.1.5,MacIntel,47.61904762,682d573fa47f1360d1451895,,,,,,,,,,,112.386,112.886,,,113.137,114.075,left,0.933,,,,,,,,,0.6,,,,,,112.886,113.137,114.075,"[0.07995335458045122,-0.15962286113486115]","[1,1,1]","[-0.1364285686553688,0.020923577107044743]","[-1,-1,-1]","[-0.003641435926556674,-0.1938723909973369]","[-1,-1,-1]","[0.09286893663208234,0.050218476098934185]","[1,1,1]","[0.0018758292469823325,0.0759571852230207]","[1,1,1]","[0.14224172483063124,0.11412888370394245]","[1,1,1]","[0.0758144171995067,-0.11834739893747116]","[1,1,1]","[0.16156085526872388,0.05776895255289469]","[-1,-1,-1]","[0.02622395297069451,0.18991387882729482]","[1,1,1]","[-0.14688700729184967,0.07219482680235917]","[1,1,1]","[0.15089419538314186,-0.07345369516855806]","[1,1,1]","[-0.11802824564437041,0.12154299662772908]","[-1,-1,-1]","[-0.015160860072385852,-0.09161235106478202]","[-1,-1,-1]","[-0.12152944556227319,-0.04466252363280529]","[1,1,1]","[0.011793444269378632,0.1271716555281788]","[1,1,1]","[-0.04107986557028003,-0.12954732896559998]","[-1,-1,-1]","[-0.048271251896991864,0.15644624825171158]","[1,1,1]","[-0.1339849623562955,-0.11499467048768958]","[1,1,1]","[-0.050166546051710295,0.09760913849900064]","[-1,-1,-1]","[0.17787094041666882,-0.04276261008501056]","[-1,-1,-1]","[0.03822019961400726,-0.1902370997323192]","[1,1,1]","[0.12259887314696957,-0.12839822789140196]","[-1,-1,-1]","[-0.17891206551206307,-0.024553896943150317]","[-1,-1,-1]","[0.07677425244432273,-0.07521832267628797]","[1,1,1]","[-0.04543155922128545,-0.17739214668788203]","[1,1,1]","[0.09883068158801311,0.109703124297302]","[-1,-1,-1]","[0.05366738249879235,0.08685037664824667]","[1,1,1]","[0.03895925582273989,-0.032713212015934384]","[1,1,1]","[-0.15841999198923154,-0.08099738547236504]","[1,1,1]","[-0.09772530348971076,0.08549465397414793]","[-1,-1,-1]","[-0.08120414664684494,-0.07744392600490602]","[-1,-1,-1]","[0.05585619250833798,0.14851945859647628]","[1,1,1]","[0.02,0.02]",115.171,0,22,22,168,1,,,,,,,
,,,,,,,664cf2037353bb98801436b5,682f0fbd2b2a740b1842af4a,2025-05-22_08h44.03.108,cuing_paradigm_dot,2024.1.5,MacIntel,47.61904762,682d573fa47f1360d1451895,,,,,,,,,,,115.172,115.671,,,115.922,116.445,left,0.515,,,,,,,,,0.6,,,,,,115.671,115.922,116.445,"[0.08320697942560464,0.014782498511934649]","[-1,-1,-1]","[0.15764922130793574,-0.08631763279917651]","[-1,-1,-1]","[-0.14439304183402685,-0.0773578588307053]","[1,1,1]","[-0.11460590701024807,0.0020846114374380082]","[1,1,1]","[0.01903553526402627,-0.13505324843439315]","[1,1,1]","[0.16840380954571746,0.0396824649583335]","[1,1,1]","[-0.11395525530072707,0.16374688321752365]","[1,1,1]","[0.12655274477970688,0.10942727501884228]","[1,1,1]","[0.10848878730835868,0.05581508561573687]","[-1,-1,-1]","[0.12179989003018334,-0.0629741798827909]","[1,1,1]","[-0.04110381998971068,0.19523005888265765]","[1,1,1]","[0.04069380838165938,-0.04903984660146635]","[-1,-1,-1]","[-0.09364741677567283,0.12614342382564583]","[1,1,1]","[-0.008308661631017742,0.07339385819914052]","[-1,-1,-1]","[-0.053952016616917106,-0.1815883765719027]","[-1,-1,-1]","[0.06019152807564645,-0.15378319509156815]","[-1,-1,-1]","[0.05800060076450761,0.0462728261932252]","[1,1,1]","[0.12012572497262446,-0.15165978213911244]","[-1,-1,-1]","[-0.049100002263962696,0.05686970278480168]","[1,1,1]","[-0.0441526873907856,0.12450059502056048]","[1,1,1]","[-0.1670291313217252,0.05652534055027794]","[1,1,1]","[0.17643437530595815,0.08704490367701037]","[1,1,1]","[0.05720897637742947,-0.11072582300083013]","[-1,-1,-1]","[-0.02608863079334168,-0.06882926457640859]","[1,1,1]","[-0.09251477787575352,-0.12453765918483857]","[-1,-1,-1]","[-0.150083098995849,0.11942872995026158]","[1,1,1]","[-0.19737414354087335,0.002648044622413442]","[-1,-1,-1]","[-0.013946564307286365,-0.16151674938344654]","[-1,-1,-1]","[0.04270923341382507,0.12045705659361626]","[-1,-1,-1]","[0.010290587626923123,0.03733179478062628]","[1,1,1]","[0.01926193644904666,-0.0075834363832106635]","[1,1,1]","[-0.045676449805454315,-0.11431836115058713]","[1,1,1]","[0.02,0.02]",117.54,0,23,23,158,1,,,,,,,
,,,,,,,664cf2037353bb98801436b5,682f0fbd2b2a740b1842af4a,2025-05-22_08h44.03.108,cuing_paradigm_dot,2024.1.5,MacIntel,47.61904762,682d573fa47f1360d1451895,,,,,,,,,,,117.542,118.041,,,118.292,119.013,right,0.715,,,,,,,,,0.45,,,,,,118.041,118.292,119.013,"[-0.062062973154431475,-0.16175434978224226]","[-1,-1,-1]","[-0.030769269369086447,0.09180867658115341]","[-1,-1,-1]","[-0.020676772557397662,0.000058151745107420445]","[-1,-1,-1]","[-0.04874806861515111,0.13466332383338459]","[-1,-1,-1]","[0.09636442945130655,0.031400887839437557]","[1,1,1]","[0.14455544998205394,0.006497472910819295]","[1,1,1]","[-0.007514589975977421,0.1541079087194949]","[1,1,1]","[-0.11112119373777953,-0.1054353246080677]","[1,1,1]","[0.027169773102215498,-0.055645229227660256]","[-1,-1,-1]","[-0.03522341097102618,-0.09665221321066926]","[-1,-1,-1]","[0.11231767288987772,-0.09170223311964582]","[-1,-1,-1]","[0.049718495880201316,0.07769699095150175]","[1,1,1]","[-0.1454563739480024,-0.020135407515373988]","[-1,-1,-1]","[-0.18449462586175921,0.06482089200467298]","[-1,-1,-1]","[-0.05628623920745716,-0.04367191638280349]","[-1,-1,-1]","[0.0676862271381841,-0.010705687226563317]","[1,1,1]","[0.004002379637544077,-0.1713134660478844]","[1,1,1]","[0.06776651854033067,-0.18581855804749417]","[1,1,1]","[-0.12859194481359965,0.14754808739028694]","[1,1,1]","[0.07823555839721154,-0.11280968961731734]","[-1,-1,-1]","[0.1910847189855986,-0.022494944494855694]","[-1,-1,-1]","[0.16279609052839766,-0.06035724097103934]","[1,1,1]","[-0.017804717697025935,0.04656659643478111]","[1,1,1]","[-0.10550700041760203,0.09700282183201864]","[-1,-1,-1]","[0.09943756936094475,0.08316240626603687]","[-1,-1,-1]","[0.09187545329019646,0.14241475076821938]","[-1,-1,-1]","[-0.1931480325319061,0.01541218625025044]","[-1,-1,-1]","[0.026995804642544356,0.12453931657329931]","[-1,-1,-1]","[0.02534209541262407,0.018027065618742222]","[1,1,1]","[-0.17919012883086993,-0.07715017255882593]","[1,1,1]","[0.1457932174574944,0.051375831537452656]","[-1,-1,-1]","[0.05712013419833616,0.1713482987742252]","[1,1,1]","[0.02,0.02]",120.109,0,24,24,86,1,,,,,,,
,,,,,,,664cf2037353bb98801436b5,682f0fbd2b2a740b1842af4a,2025-05-22_08h44.03.108,cuing_paradigm_dot,2024.1.5,MacIntel,47.61904762,682d573fa47f1360d1451895,,,,,,,,,,,120.11,120.609,,,120.861,121.466,left,0.599,,,,,,,,,0.55,,,,,,120.609,120.86,121.466,"[0.026539010155421792,-0.04658798048726269]","[-1,-1,-1]","[-0.18261372312011329,0.028567474243992367]","[1,1,1]","[0.01398343059257538,0.02894111548836782]","[1,1,1]","[-0.08505836671211602,0.016170312818032464]","[1,1,1]","[-0.06972195566446272,0.08336095488411151]","[-1,-1,-1]","[-0.1440951648023571,-0.11865120484217259]","[-1,-1,-1]","[0.158041597968647,-0.02331407429319387]","[-1,-1,-1]","[-0.030576840842769636,-0.05698691177968271]","[1,1,1]","[0.09224814167384944,-0.10855404153039647]","[1,1,1]","[0.08560521787195141,-0.06855149931431595]","[-1,-1,-1]","[0.11681626369275562,-0.04329933620907969]","[1,1,1]","[-0.03384266604156689,-0.17398680606570413]","[1,1,1]","[-0.04119462803078669,0.16890061799529363]","[1,1,1]","[-0.0869406374903165,-0.16127186571528304]","[1,1,1]","[-0.08331690469396578,-0.034323393839118234]","[1,1,1]","[-0.13361217702174033,-0.07583280020981753]","[1,1,1]","[0.054987186359697675,0.01759353956031026]","[1,1,1]","[-0.05791496295848273,-0.11718494708954091]","[1,1,1]","[-0.19860285700015085,-0.02169585193677042]","[-1,-1,-1]","[-0.0981062746516974,-0.10417149335870594]","[-1,-1,-1]","[-0.024740577199885237,0.060980856911111846]","[1,1,1]","[0.012021653977557138,-0.11734898965913038]","[1,1,1]","[-0.10446504956880674,0.13842144548140797]","[1,1,1]","[0.1224270555451928,0.026760211243749984]","[1,1,1]","[0.13469286591441484,-0.10490756557485487]","[-1,-1,-1]","[0.15730828446618722,0.05417337823096545]","[-1,-1,-1]","[0.0952906458813145,0.0813255030001782]","[1,1,1]","[0.01869613984240347,0.10750843919932865]","[-1,-1,-1]","[0.09908843238285711,0.1479247670241417]","[-1,-1,-1]","[-0.041373279824839695,0.11957109503070265]","[-1,-1,-1]","[0.10424012833358803,-0.16722161237876068]","[-1,-1,-1]","[0.06410204289601533,-0.17604733961984054]","[-1,-1,-1]","[0.02,0.02]",122.561,0,25,25,147,1,,,,,,,
,,,,,,,664cf2037353bb98801436b5,682f0fbd2b2a740b1842af4a,2025-05-22_08h44.03.108,cuing_paradigm_dot,2024.1.5,MacIntel,47.61904762,682d573fa47f1360d1451895,,,,,,,,,,,122.562,123.062,,,123.313,124.202,right,0.882,,,,,,,,,0.5,,,,,,123.062,123.313,124.202,"[-0.011930166374426543,0.07132334709984586]","[1,1,1]","[-0.0743391141495005,-0.06415476720928881]","[-1,-1,-1]","[-0.05622272281078763,-0.10288632039818497]","[1,1,1]","[-0.006009518586277336,0.1211307402681495]","[-1,-1,-1]","[0.04890770750765576,-0.13680128383862147]","[-1,-1,-1]","[0.056605212221248716,-0.08052215916357812]","[1,1,1]","[0.06273058748089629,0.10710128258365541]","[-1,-1,-1]","[-0.1405874733348124,-0.05435510010416138]","[1,1,1]","[-0.0691361775810527,0.14688982341194057]","[-1,-1,-1]","[0.1545914228580439,0.0012683794424883383]","[1,1,1]","[0.13648983368513998,0.10782972510146624]","[1,1,1]","[-0.10321938108355609,-0.017864269650930933]","[1,1,1]","[-0.13602696468497727,0.1369758046751558]","[-1,-1,-1]","[-0.02936844005394094,-0.1609190446834364]","[-1,-1,-1]","[0.10476551753500002,-0.12246186301671486]","[-1,-1,-1]","[-0.04543810168516703,0.016716906634287577]","[-1,-1,-1]","[-0.0059741137258738424,-0.12039150638971989]","[1,1,1]","[0.0009764469431804024,0.02504766999391369]","[-1,-1,-1]","[-0.1888372524381071,-0.023817528277004358]","[-1,-1,-1]","[0.10506273159948315,-0.16865534685159542]","[1,1,1]","[-0.11808614634568207,0.09972714579806587]","[1,1,1]","[-0.14708060073596163,-0.13521299420319816]","[-1,-1,-1]","[-0.033322282629444526,0.18610124520086715]","[1,1,1]","[0.10283593890949327,0.02350498892743229]","[1,1,1]","[0.15438071077211063,-0.11901161584868931]","[-1,-1,-1]","[0.19403245749351367,-0.026930934157238115]","[1,1,1]","[-0.10238953757274817,0.035902008038784794]","[-1,-1,-1]","[0.04937393943646091,-0.1914300018690269]","[1,1,1]","[0.06149037973800194,0.15999981892290951]","[1,1,1]","[-0.15986842241697768,0.03921849851694334]","[-1,-1,-1]","[0.08461633831868348,-0.030256482554390625]","[1,1,1]","[0.14530796644933774,-0.07964262707069188]","[-1,-1,-1]","[0.02,0.02]",125.297,0,26,26,93,1,,,,,,,
,,,,,,,664cf2037353bb98801436b5,682f0fbd2b2a740b1842af4a,2025-05-22_08h44.03.108,cuing_paradigm_dot,2024.1.5,MacIntel,47.61904762,682d573fa47f1360d1451895,,,,,,,,,,,125.298,125.798,,,126.049,126.671,right,0.615,,,,,,,,,0.45,,,,,,125.798,126.049,126.671,"[-0.07867650868259173,0.04770354944139868]","[-1,-1,-1]","[0.0933415228843469,0.14529867139928335]","[-1,-1,-1]","[-0.13902143960129865,0.021325511286355167]","[1,1,1]","[-0.04963357978904368,-0.026970942481806776]","[1,1,1]","[0.09773115463060779,-0.056018686333311474]","[-1,-1,-1]","[-0.05301625305720064,-0.11136776493156855]","[1,1,1]","[-0.1154764171575822,0.08204881114182412]","[-1,-1,-1]","[0.0417054810619965,0.18846552181406154]","[-1,-1,-1]","[-0.0966167189204545,-0.17021874662984915]","[-1,-1,-1]","[-0.15508124519561695,-0.03291757943794392]","[1,1,1]","[-0.05207748946261087,-0.17392026706486446]","[-1,-1,-1]","[-0.0897456661475745,-0.07675540290219977]","[1,1,1]","[0.17956978771092755,-0.016958346056541333]","[-1,-1,-1]","[-0.07106608922635121,0.13439356970215968]","[1,1,1]","[0.02874175205212131,-0.1940705504985416]","[1,1,1]","[-0.009142923191359034,-0.11682799541349517]","[-1,-1,-1]","[-0.10809991674823077,-0.010252208861846758]","[-1,-1,-1]","[-0.011195423432262116,0.11696183986844838]","[1,1,1]","[0.06554965728633905,0.014602931673920487]","[1,1,1]","[0.09660897863144344,0.10480182884170833]","[-1,-1,-1]","[0.01923770278115888,0.08865419089885018]","[-1,-1,-1]","[0.09977322660551935,0.05616418450209391]","[-1,-1,-1]","[0.11959832604907797,0.008524920314737094]","[1,1,1]","[-0.048438669658893076,0.020486503510662113]","[-1,-1,-1]","[-0.17242068497841984,0.0874324313736066]","[1,1,1]","[0.041828105840837584,0.13854400761448854]","[-1,-1,-1]","[0.08508458396191962,-0.17551752033999204]","[1,1,1]","[-0.032312608157603256,0.1523823123250819]","[-1,-1,-1]","[-0.1936581327742746,-0.04612134691125342]","[1,1,1]","[0.052212928345103334,0.057002958094010445]","[-1,-1,-1]","[0.054160190069905495,-0.07634709783945154]","[1,1,1]","[-0.1203678959253288,-0.11312787334092853]","[-1,-1,-1]","[0.02,0.02]",127.766,0,27,27,64,1,,,,,,,
,,,,,,,664cf2037353bb98801436b5,682f0fbd2b2a740b1842af4a,2025-05-22_08h44.03.108,cuing_paradigm_dot,2024.1.5,MacIntel,47.61904762,682d573fa47f1360d1451895,,,,,,,,,,,127.767,128.268,,,128.518,129.44,left,0.916,,,,,,,,,0.55,,,,,,128.268,128.518,129.44,"[0.0848274988894614,-0.07608017248823024]","[1,1,1]","[0.0851688848640112,-0.016662552738439435]","[1,1,1]","[0.16813853614254234,0.0523828586969487]","[1,1,1]","[0.0011774423220441525,0.05965934596044338]","[-1,-1,-1]","[-0.13824554124322136,-0.06991820749164886]","[-1,-1,-1]","[-0.09409578551370396,-0.07196839414450058]","[1,1,1]","[-0.0055067829623152474,0.0037036649980863035]","[1,1,1]","[0.09668029674537026,-0.12766184042053977]","[-1,-1,-1]","[0.08161790563332354,0.04012714257767597]","[1,1,1]","[0.014736211406867136,0.17399291596264552]","[-1,-1,-1]","[-0.004766605868059244,-0.1959921890890026]","[1,1,1]","[0.010005422820382436,-0.039065382228611036]","[-1,-1,-1]","[-0.08251211463082364,0.056200962911210864]","[-1,-1,-1]","[-0.05970164029547362,0.1410488700876333]","[-1,-1,-1]","[-0.03770661765105214,0.09313855142066552]","[1,1,1]","[-0.1141538563227314,0.12708213102534083]","[-1,-1,-1]","[0.16015584732726937,0.00838884649185442]","[-1,-1,-1]","[0.1546455466467685,-0.033168862397261925]","[1,1,1]","[0.08230392763941459,0.09477571292745281]","[1,1,1]","[-0.04934730631901706,-0.17703622861469576]","[1,1,1]","[-0.06952131199988835,0.004361621430234396]","[1,1,1]","[0.06016836119080537,-0.18779262353247864]","[1,1,1]","[-0.1835317303986206,-0.07082217561521341]","[1,1,1]","[0.08248116143826298,0.17272878714634665]","[-1,-1,-1]","[0.03466102977673216,-0.11527581570143548]","[-1,-1,-1]","[0.034563505328465485,0.11452642530896474]","[1,1,1]","[-0.07778061776299118,-0.11037416298317348]","[1,1,1]","[-0.1484843512427025,0.05782195713150732]","[-1,-1,-1]","[-0.1678796454023761,-0.017392530975416678]","[1,1,1]","[-0.1921807131453842,0.04853823798908765]","[-1,-1,-1]","[0.12769566786650505,0.12379954467887479]","[1,1,1]","[-0.03549805259652011,-0.09813684424953306]","[-1,-1,-1]","[0.02,0.02]",130.536,0,28,28,140,1,,,,,,,
,,,,,,,664cf2037353bb98801436b5,682f0fbd2b2a740b1842af4a,2025-05-22_08h44.03.108,cuing_paradigm_dot,2024.1.5,MacIntel,47.61904762,682d573fa47f1360d1451895,,,,,,,,,,,130.537,131.036,,,131.287,131.843,right,0.549,,,,,,,,,0.45,,,,,,131.036,131.287,131.843,"[0.10577666365203159,-0.14131649254055953]","[-1,-1,-1]","[-0.14922581164603094,0.07611431784784978]","[1,1,1]","[-0.13019923728968363,0.014935355199677147]","[1,1,1]","[0.1902296410873454,-0.01718728687916481]","[-1,-1,-1]","[-0.04670601509063025,0.12083986638366674]","[-1,-1,-1]","[0.11965809203837902,0.09898239093791798]","[-1,-1,-1]","[-0.14373826549779992,-0.07825078395791922]","[1,1,1]","[0.09373713805061683,0.03131780088194883]","[-1,-1,-1]","[0.060360928804782034,-0.07861024120581889]","[1,1,1]","[-0.06508195731403138,-0.15855249467371338]","[-1,-1,-1]","[0.1667958465897843,-0.06053437706324181]","[-1,-1,-1]","[-0.03661916717059716,-0.11191740759295012]","[-1,-1,-1]","[0.05320432474389924,0.1659290032149609]","[-1,-1,-1]","[0.05385267246772476,-0.13469136045677432]","[-1,-1,-1]","[-0.10514532907827982,-0.12290851938537264]","[1,1,1]","[-0.10993125454320907,-0.031372769279842505]","[-1,-1,-1]","[-0.125562794618192,0.11300386632498777]","[1,1,1]","[-0.08199381048737668,0.01786424258117837]","[1,1,1]","[-0.013547444765078097,0.1479797859291199]","[-1,-1,-1]","[0.040228304058323124,-0.19460948933431232]","[1,1,1]","[0.045415789932887515,0.09173331978953447]","[-1,-1,-1]","[0.08445414883282865,0.14000812376392463]","[-1,-1,-1]","[0.1676346049571218,0.06969815623387089]","[-1,-1,-1]","[0.05814026223179234,0.051612775820672765]","[1,1,1]","[0.1004769333884249,-0.010825507556769566]","[1,1,1]","[-0.01999460549560546,-0.07316567416483033]","[-1,-1,-1]","[-0.0006566109493792876,0.099425277885409]","[1,1,1]","[-0.04473040904309021,-0.03680413752248085]","[-1,-1,-1]","[0.10416824495159507,-0.05186325182726104]","[1,1,1]","[0.1658586873925744,-0.10628394916624578]","[1,1,1]","[0.028420247761800903,0.1338671696148679]","[1,1,1]","[0.030242279753118478,-0.03556098371134217]","[-1,-1,-1]","[0.02,0.02]",132.939,0,29,29,70,1,,,,,,,
,,,,,,,664cf2037353bb98801436b5,682f0fbd2b2a740b1842af4a,2025-05-22_08h44.03.108,cuing_paradigm_dot,2024.1.5,MacIntel,47.61904762,682d573fa47f1360d1451895,,,,,,,,,,,132.94,133.439,,,133.69,134.144,left,0.448,,,,,,,,,0.6,,,,,,133.439,133.69,134.144,"[0.051582282292653,0.028977396689580454]","[1,1,1]","[-0.12875708098094954,-0.07675251626325709]","[-1,-1,-1]","[-0.05545664986668582,0.03506210164946348]","[-1,-1,-1]","[0.1291783425976645,0.02918054842511453]","[1,1,1]","[-0.03161642759182487,-0.0199812948069699]","[1,1,1]","[-0.08525605361480135,-0.08363325241746584]","[-1,-1,-1]","[0.10454187577636108,-0.06749368691993422]","[-1,-1,-1]","[0.052782977640462754,0.15135454429852635]","[1,1,1]","[-0.19448007961822064,0.008370368564725972]","[-1,-1,-1]","[0.019297967129857242,0.10397711756997152]","[1,1,1]","[0.008318497783932066,-0.0966650565798114]","[1,1,1]","[0.008158421436515144,0.17753936652646998]","[1,1,1]","[0.08583694416823356,-0.027571351999571357]","[1,1,1]","[0.08640630603519234,-0.13895272660164162]","[-1,-1,-1]","[-0.006909475519278632,-0.14813519355433263]","[1,1,1]","[-0.08818184577959329,0.12218860826778852]","[1,1,1]","[0.18440861380517562,0.03394253808038883]","[-1,-1,-1]","[-0.15274316219632483,0.009530120892156092]","[1,1,1]","[0.10570930682959374,0.152272340935795]","[1,1,1]","[-0.07555666956852021,-0.17092633483817896]","[1,1,1]","[0.1127754410992429,0.1008673310432799]","[-1,-1,-1]","[-0.13936025556169232,0.089465810019998]","[1,1,1]","[-0.05266447880377412,0.08379913114593053]","[1,1,1]","[0.05439517546117982,-0.10429805827136437]","[1,1,1]","[-0.15058578857098243,-0.13089317924017335]","[-1,-1,-1]","[-0.09815529725999372,0.06180732495675423]","[1,1,1]","[-0.014538545838472115,0.13385116387711912]","[-1,-1,-1]","[0.15510003619137586,-0.09172015534754949]","[-1,-1,-1]","[-0.027397974044582565,-0.19051401022570807]","[1,1,1]","[0.06885018758248203,-0.18114422677226127]","[-1,-1,-1]","[0.17244061758536325,-0.04160745994265103]","[1,1,1]","[-0.04387349128031929,-0.0679550847041739]","[-1,-1,-1]","[0.02,0.02]",135.241,0,30,30,161,1,,,,,,,
,,,,,,,664cf2037353bb98801436b5,682f0fbd2b2a740b1842af4a,2025-05-22_08h44.03.108,cuing_paradigm_dot,2024.1.5,MacIntel,47.61904762,682d573fa47f1360d1451895,,,,,,,,,,,135.242,135.741,,,135.993,136.58,right,0.582,,,,,,,,,0.4,,,,,,135.741,135.993,136.581,"[-0.07461735836890672,0.05102997778275221]","[-1,-1,-1]","[-0.147587090204918,-0.0558194342577835]","[-1,-1,-1]","[0.14906849983056975,0.02884643759187805]","[-1,-1,-1]","[-0.041667844163345465,0.020831793277533456]","[1,1,1]","[0.04286985941683017,0.08197048125484453]","[-1,-1,-1]","[0.06671041992642152,-0.15559867366861674]","[-1,-1,-1]","[-0.11175698781648377,0.16549846727110762]","[-1,-1,-1]","[-0.023197772032497746,-0.15901470632089876]","[1,1,1]","[-0.17432636031882015,0.06272407684331116]","[-1,-1,-1]","[0.03962763881275774,0.03433205581569211]","[1,1,1]","[-0.08148107133081042,-0.11269555647979358]","[1,1,1]","[0.07722411369513682,0.14663829569065726]","[1,1,1]","[0.1062163141601883,-0.11056648864514822]","[-1,-1,-1]","[-0.009012673511279623,-0.05489810807164376]","[-1,-1,-1]","[-0.07448134400166946,0.11668486926407151]","[1,1,1]","[-0.004273626728348588,-0.002605219342971776]","[-1,-1,-1]","[0.15731592450395226,0.07245631840625648]","[-1,-1,-1]","[-0.04993702203847618,-0.05312145791112566]","[-1,-1,-1]","[-0.13723179270676208,-0.006225192485867881]","[-1,-1,-1]","[-0.032057390913805994,0.17887006012223802]","[1,1,1]","[0.11156270897749729,0.07856870459598181]","[-1,-1,-1]","[-0.11114301570211975,0.08524499489630563]","[1,1,1]","[0.16619039267277985,-0.08130019431715403]","[-1,-1,-1]","[-0.02726608703052688,0.08043094490574224]","[1,1,1]","[0.07458429925374041,0.003179484179488224]","[1,1,1]","[0.05158116588048714,-0.07600822081857095]","[1,1,1]","[-0.12892951921045634,-0.12561414258439085]","[1,1,1]","[-0.10528859918643359,-0.033341866562328]","[-1,-1,-1]","[0.1202109228725745,-0.02286282180115003]","[-1,-1,-1]","[0.01819514206384185,-0.15141920909870304]","[1,1,1]","[0.1889951094653324,-0.009757692231653532]","[-1,-1,-1]","[-0.17575551441684353,-0.026214245004661622]","[-1,-1,-1]","[0.02,0.02]",137.676,0,31,31,54,1,,,,,,,
,,,,,,,664cf2037353bb98801436b5,682f0fbd2b2a740b1842af4a,2025-05-22_08h44.03.108,cuing_paradigm_dot,2024.1.5,MacIntel,47.61904762,682d573fa47f1360d1451895,,,,,,,,,,,137.677,138.176,,,138.428,139,right,0.566,,,,,,,,,0.5,,,,,,138.176,138.428,139,"[0.023165535228394953,0.013753083265775401]","[1,1,1]","[0.07292482274500954,-0.09593968473044058]","[1,1,1]","[0.139693040740356,0.04311661282663934]","[1,1,1]","[-0.07198114117506692,-0.02732777376248473]","[1,1,1]","[0.10921976532510803,-0.022933409163703098]","[-1,-1,-1]","[-0.014692891746230391,-0.09136621813837693]","[-1,-1,-1]","[-0.05798350277006331,0.11990633942530482]","[-1,-1,-1]","[-0.02658461264785282,-0.020710205933834987]","[-1,-1,-1]","[-0.14657688890519122,-0.04578602171002808]","[-1,-1,-1]","[-0.09275191869892017,0.0896875121133655]","[1,1,1]","[0.02663660459682149,0.19678139024706753]","[1,1,1]","[-0.07138347661040866,-0.15890794500451588]","[-1,-1,-1]","[0.11777306666263909,-0.07801067794322565]","[-1,-1,-1]","[0.19711212480301177,0.030405121193222768]","[1,1,1]","[-0.06165027265992234,0.03297525792161517]","[-1,-1,-1]","[0.11135641745770873,0.12215058922187831]","[1,1,1]","[-0.1776837408274821,-0.017406589747255147]","[1,1,1]","[-0.18105205282640474,-0.06823405104696648]","[1,1,1]","[0.005698709993392432,-0.14073469347446482]","[-1,-1,-1]","[-0.05434404625520574,-0.0815752923944126]","[-1,-1,-1]","[-0.1828708011773233,0.025149082367089376]","[-1,-1,-1]","[0.15632971508780102,0.004221675421026227]","[1,1,1]","[-0.1332462421265323,0.0726807012384219]","[1,1,1]","[-0.02011734660789047,0.07493381074428693]","[1,1,1]","[0.021929736146013595,0.10528764745266547]","[-1,-1,-1]","[-0.1496271343666792,-0.10980460048660863]","[1,1,1]","[0.19513907285150614,-0.043479882142914206]","[-1,-1,-1]","[0.15228642981467952,0.09546638836863287]","[-1,-1,-1]","[0.07564047978754491,-0.18416854493900486]","[-1,-1,-1]","[0.03955341787447224,-0.06669100623388513]","[1,1,1]","[-0.1026755263580063,-0.1328885517247905]","[1,1,1]","[0.12143831092001454,-0.13525132539379242]","[-1,-1,-1]","[0.02,0.02]",140.095,0,32,32,105,1,,,,,,,
,,,,,,,664cf2037353bb98801436b5,682f0fbd2b2a740b1842af4a,2025-05-22_08h44.03.108,cuing_paradigm_dot,2024.1.5,MacIntel,47.61904762,682d573fa47f1360d1451895,,,,,,,,,,,140.096,140.596,,,140.846,141.42,left,0.565,,,,,,,,,0.6,,,,,,140.596,140.846,141.421,"[-0.010387975105279182,0.1098800435465179]","[1,1,1]","[0.1488220630494447,0.04239805627250207]","[-1,-1,-1]","[-0.023303818415461194,-0.18135920777090728]","[-1,-1,-1]","[-0.013031018038644848,-0.10933149488096229]","[1,1,1]","[-0.1260521063239279,0.15380377187999675]","[1,1,1]","[0.04944357006919757,0.024837637109178006]","[1,1,1]","[-0.11724615775684218,0.1131056753067061]","[1,1,1]","[0.04289556269753427,-0.1763624412663578]","[1,1,1]","[-0.08902787577475735,-0.11856279020199657]","[-1,-1,-1]","[0.02139525490135782,0.14216152191749704]","[1,1,1]","[-0.10994279835644494,-0.027006120348467548]","[1,1,1]","[0.09624385669102001,0.1732873142846772]","[1,1,1]","[0.006971133873102387,-0.058515499232638706]","[-1,-1,-1]","[-0.12016684889937683,0.021155922114200726]","[-1,-1,-1]","[0.09144270257264688,-0.09875645001198118]","[1,1,1]","[-0.15335005856120112,-0.096785400627118]","[1,1,1]","[0.07836377883287997,0.12111302955449214]","[1,1,1]","[0.1639032699504638,-0.03605935971999902]","[1,1,1]","[-0.1287878908187667,-0.1454516649788176]","[-1,-1,-1]","[-0.07803922380537523,0.0021305808281480982]","[-1,-1,-1]","[-0.05536493286154233,0.07290229992126473]","[1,1,1]","[-0.03641109398532727,0.013316081931642085]","[1,1,1]","[-0.16093343666004595,0.09618020874522043]","[1,1,1]","[-0.13208676143299,0.06556894049465936]","[-1,-1,-1]","[-0.07238871600510748,-0.1700934157288474]","[-1,-1,-1]","[-0.06243884271068212,-0.07346561556839416]","[1,1,1]","[-0.05804631744820215,0.14843164185843272]","[-1,-1,-1]","[0.1890682942018086,0.0012115163133522068]","[1,1,1]","[0.1184657910855132,-0.04821029038660848]","[-1,-1,-1]","[-0.1027023565405773,-0.06870256999089681]","[1,1,1]","[0.16566259743485034,0.08411749978736995]","[-1,-1,-1]","[-0.005089427374080236,0.05319248482698843]","[-1,-1,-1]","[0.02,0.02]",142.514,0,33,33,154,1,,,,,,,
,,,,,,,664cf2037353bb98801436b5,682f0fbd2b2a740b1842af4a,2025-05-22_08h44.03.108,cuing_paradigm_dot,2024.1.5,MacIntel,47.61904762,682d573fa47f1360d1451895,,,,,,,,,,,142.516,143.014,,,143.266,143.772,right,0.5,,,,,,,,,0.5,,,,,,143.014,143.266,143.772,"[0.009534763384981283,-0.1251947581190839]","[-1,-1,-1]","[-0.06457634373395008,0.14693900083393294]","[1,1,1]","[0.02461623093161755,-0.195609320152528]","[-1,-1,-1]","[-0.06008509270558977,-0.1337196204121752]","[1,1,1]","[0.12127893302362483,-0.15509699960918033]","[-1,-1,-1]","[-0.08749368310046989,-0.03319180805511471]","[-1,-1,-1]","[0.11993934231876492,0.07355397061378016]","[1,1,1]","[-0.18082127931963363,-0.057368491136862286]","[1,1,1]","[-0.14842032038801117,0.1319154833260096]","[1,1,1]","[0.023604509696406838,0.004334918760357526]","[-1,-1,-1]","[-0.13801096334324744,-0.13784949037211178]","[1,1,1]","[-0.14031408391849667,-0.08148890954168067]","[1,1,1]","[0.10015101970023922,-0.0662986708695881]","[-1,-1,-1]","[0.1393505726708201,-0.018638723598414703]","[-1,-1,-1]","[-0.01174026216824741,-0.07065611058960813]","[1,1,1]","[0.09942757923956884,0.1395406265957952]","[-1,-1,-1]","[-0.1138366849616211,0.007548682236366518]","[1,1,1]","[-0.06184331354911001,-0.18927686888804332]","[-1,-1,-1]","[-0.06783791501254363,0.032933994554709786]","[-1,-1,-1]","[0.1697577293943654,0.023045112513992955]","[-1,-1,-1]","[0.051476560917846186,-0.07003293582058866]","[-1,-1,-1]","[0.07773918847059336,-0.1108129417227301]","[1,1,1]","[0.09024334302400885,-0.024114628161030358]","[1,1,1]","[-0.15892112115687068,0.06922891218995152]","[1,1,1]","[0.15306423317120743,-0.12315313958020256]","[-1,-1,-1]","[0.007931868400185619,0.1391410237025815]","[-1,-1,-1]","[0.07074103905268793,-0.16604030257385768]","[-1,-1,-1]","[-0.09686478754012351,-0.15961760602679503]","[1,1,1]","[0.06845443432032805,0.16597632513341498]","[1,1,1]","[-0.19685186081496864,-0.005601690299930769]","[1,1,1]","[0.06908968138895209,0.0915667889538788]","[-1,-1,-1]","[-0.013944986613454722,0.1911555151051747]","[1,1,1]","[0.02,0.02]",144.867,0,34,34,95,1,,,,,,,
,,,,,,,664cf2037353bb98801436b5,682f0fbd2b2a740b1842af4a,2025-05-22_08h44.03.108,cuing_paradigm_dot,2024.1.5,MacIntel,47.61904762,682d573fa47f1360d1451895,,,,,,,,,,,144.868,145.367,,,145.618,146.456,left,0.833,,,,,,,,,0.55,,,,,,145.367,145.618,146.457,"[-0.10217605001202572,0.07655633661165401]","[1,1,1]","[0.0916064839256512,0.1348473993711805]","[1,1,1]","[0.1564015561203889,0.03232803157526868]","[-1,-1,-1]","[-0.15299097572167117,0.019981939790260136]","[-1,-1,-1]","[-0.051839995872364944,-0.1649885100153892]","[-1,-1,-1]","[0.046288633212799725,-0.09007816277537185]","[-1,-1,-1]","[-0.08610398048725335,-0.031155251003501586]","[1,1,1]","[0.03698863731322269,-0.02119745358470995]","[-1,-1,-1]","[0.014162087208966348,-0.19875124914494316]","[-1,-1,-1]","[-0.015786217153367126,0.19336205587319202]","[-1,-1,-1]","[0.1378963609607772,-0.03336024963791249]","[1,1,1]","[-0.12435521582063873,-0.15630013733801978]","[1,1,1]","[-0.14437573314260835,-0.06953371999343402]","[-1,-1,-1]","[-0.08151815763083638,0.11227570983749975]","[1,1,1]","[0.0036259484112506676,-0.08607463085559752]","[1,1,1]","[0.14638823491134967,-0.08206210134789911]","[-1,-1,-1]","[-0.08878703891488986,0.02876060036914976]","[1,1,1]","[0.12605808829547835,0.10621051210263502]","[1,1,1]","[0.009235807332206764,0.10868576267969184]","[1,1,1]","[0.09113228146199151,0.052881592125152595]","[1,1,1]","[-0.09839622413084785,0.157742984880792]","[1,1,1]","[0.05227037968629336,-0.1505719127196913]","[1,1,1]","[-0.19373728661313674,0.02492057598731405]","[-1,-1,-1]","[-0.046367550917847195,-0.02134828046326585]","[1,1,1]","[0.010857453404603127,-0.14247308733337438]","[-1,-1,-1]","[0.018952964875729044,0.05200999677772244]","[-1,-1,-1]","[-0.0521216285732096,0.0654386103849607]","[1,1,1]","[-0.01602785098347417,0.007872491873805017]","[1,1,1]","[0.14531304873320178,-0.1239832300161404]","[-1,-1,-1]","[-0.061151146086381405,-0.10271369306920647]","[-1,-1,-1]","[-0.009333551258130403,-0.047177747628480204]","[1,1,1]","[-0.15928168481708208,-0.12070242288769302]","[1,1,1]","[0.02,0.02]",147.553,0,35,35,149,1,,,,,,,
,,,,,,,664cf2037353bb98801436b5,682f0fbd2b2a740b1842af4a,2025-05-22_08h44.03.108,cuing_paradigm_dot,2024.1.5,MacIntel,47.61904762,682d573fa47f1360d1451895,,,,,,,,,,,147.554,148.053,,,148.304,148.993,left,0.683,,,,,,,,,0.55,,,,,,148.053,148.304,148.993,"[0.07197654941793172,-0.097779753850969]","[1,1,1]","[-0.14232640099229515,-0.10962426827044555]","[1,1,1]","[-0.18386282355818073,-0.02084873658507547]","[-1,-1,-1]","[-0.08114517512789642,0.13340115907835326]","[1,1,1]","[0.08930731857816515,0.06840505059924878]","[1,1,1]","[-0.035517317223658126,-0.19539746873041827]","[-1,-1,-1]","[-0.08638105395978316,-0.17090382532442763]","[1,1,1]","[-0.17620033225240092,-0.07217677855021207]","[-1,-1,-1]","[0.15631076717260323,0.10537204548056926]","[-1,-1,-1]","[-0.05442532623311319,0.014507812380179867]","[1,1,1]","[0.028806719737857717,-0.004771336826225226]","[-1,-1,-1]","[-0.14608556458972263,0.060191801381763235]","[-1,-1,-1]","[-0.052492552782924216,-0.033453898567018144]","[1,1,1]","[0.07503137855988476,-0.05607506016114546]","[-1,-1,-1]","[0.10829358224620733,0.14036917385343547]","[1,1,1]","[-0.14014156661216634,0.11906689658459538]","[-1,-1,-1]","[0.18324293603309458,0.009687433653470816]","[1,1,1]","[-0.04080225499449003,0.1505205276650145]","[1,1,1]","[-0.03800048945229777,-0.07460237507609305]","[1,1,1]","[0.035957327783248325,-0.18810447015396967]","[-1,-1,-1]","[0.03485248780498836,0.11997950430991344]","[-1,-1,-1]","[-0.19364111028693418,0.045078867542284864]","[1,1,1]","[-0.03581671843603475,0.08899260336292714]","[-1,-1,-1]","[0.005535263030565503,0.041420839632893704]","[1,1,1]","[0.13464021902526485,-0.09812659839011739]","[1,1,1]","[0.1386933360247404,0.01873719081813982]","[1,1,1]","[0.09144463196960935,-0.16947090952761523]","[-1,-1,-1]","[0.04606475785040125,0.06170164998689567]","[1,1,1]","[-0.05402597544431464,-0.121616050970545]","[1,1,1]","[-0.1058980336664554,-0.06509578040979362]","[1,1,1]","[-0.08424097599936312,0.04914283070884155]","[-1,-1,-1]","[0.16348343308769547,-0.03590971625753935]","[-1,-1,-1]","[0.02,0.02]",150.089,0,36,36,143,1,,,,,,,
,,,,,,,664cf2037353bb98801436b5,682f0fbd2b2a740b1842af4a,2025-05-22_08h44.03.108,cuing_paradigm_dot,2024.1.5,MacIntel,47.61904762,682d573fa47f1360d1451895,,,,,,,,,,,150.09,150.589,,,150.84,151.128,left,0.282,,,,,,,,,0.9,,,,,,150.589,150.84,151.128,"[-0.15611822620623558,0.10211781953681871]","[1,1,1]","[0.04835628880466618,-0.04784589322480724]","[1,1,1]","[0.10627002901652233,-0.08681089267910054]","[1,1,1]","[0.12153045520443756,0.02635177555650797]","[1,1,1]","[0.1725718149560876,-0.0015685043051730414]","[1,1,1]","[-0.14008913032176204,-0.07145431683153737]","[1,1,1]","[0.06039835005084735,0.006484690466277258]","[1,1,1]","[-0.10752318780439582,-0.039070545904510756]","[1,1,1]","[0.16651834509987182,-0.10933697329010968]","[1,1,1]","[0.01813425059223794,0.0886810635443282]","[1,1,1]","[0.15658613707952462,-0.05808223816124633]","[1,1,1]","[-0.11855546283947774,0.14617129826243147]","[-1,-1,-1]","[0.018602423809360145,-0.12636379059071925]","[-1,-1,-1]","[-0.05435727773399844,-0.09899592147394587]","[1,1,1]","[-0.10365568136888538,-0.10370862135092229]","[1,1,1]","[-0.1511723851358444,0.058803120982223574]","[1,1,1]","[0.11865386998973865,-0.03654980090837335]","[1,1,1]","[-0.0800524285917712,0.11217344145984218]","[1,1,1]","[-0.014845273245878364,0.009871828158256442]","[1,1,1]","[-0.07278483118219166,0.053611640204464704]","[1,1,1]","[-0.012909500094228987,-0.045406754235805605]","[1,1,1]","[0.0929314496373321,0.14388348150025732]","[1,1,1]","[0.01854465306276751,0.18674626742032172]","[1,1,1]","[-0.024852180067789914,0.19417406499706388]","[1,1,1]","[-0.08172929056929909,-0.0041590098209829006]","[1,1,1]","[0.08140918070699582,-0.1361131875518435]","[1,1,1]","[0.150401534217981,0.0849645167709082]","[1,1,1]","[-0.03327189755211739,-0.16053776952995882]","[-1,-1,-1]","[-0.11179815478195712,0.03660755703475819]","[1,1,1]","[-0.18489009648891352,-0.00763634796231166]","[1,1,1]","[0.059811986135733505,0.05209675703392074]","[1,1,1]","[0.005518493851475688,-0.17514839626153922]","[1,1,1]","[0.02,0.02]",152.224,0,37,37,200,1,,,,,,,
,,,,,,,664cf2037353bb98801436b5,682f0fbd2b2a740b1842af4a,2025-05-22_08h44.03.108,cuing_paradigm_dot,2024.1.5,MacIntel,47.61904762,682d573fa47f1360d1451895,,,,,,,,,,,152.225,152.725,,,152.975,153.716,right,0.733,,,,,,,,,0.55,,,,,,152.725,152.975,153.716,"[-0.18333584080830637,0.014584701972827093]","[1,1,1]","[-0.04714514665417582,-0.156380945995529]","[1,1,1]","[0.13237025221330823,0.13814561394011962]","[-1,-1,-1]","[-0.11517402198134163,-0.028394042844688976]","[1,1,1]","[-0.08805274915956927,-0.14022035249977016]","[1,1,1]","[-0.1271073984802574,0.04006853730163401]","[1,1,1]","[0.09198464258115267,0.09258407051899302]","[1,1,1]","[0.056445763473771,0.16714890946958066]","[1,1,1]","[-0.010592116914196831,-0.019384754742267692]","[-1,-1,-1]","[0.16979130215146368,0.007558366020503194]","[1,1,1]","[-0.05347157587275807,0.07863175379200062]","[-1,-1,-1]","[0.014547361506870344,0.09639325224960912]","[-1,-1,-1]","[-0.0863045552258461,0.11311312276004487]","[1,1,1]","[-0.00131376085913079,-0.08743862500514735]","[1,1,1]","[0.040224070581535966,-0.12418080112590217]","[1,1,1]","[0.08231096049572803,-0.09246530966712543]","[1,1,1]","[0.03871590674381739,-0.1948762850143085]","[-1,-1,-1]","[0.122827224874563,-0.00199502461160733]","[-1,-1,-1]","[-0.004819324062632526,-0.1501639447956227]","[-1,-1,-1]","[-0.1720596995005415,-0.06409796679795635]","[1,1,1]","[0.02602969821941202,0.00695927614990876]","[1,1,1]","[-0.1347825758805158,0.11034925519534855]","[-1,-1,-1]","[0.005324610359132042,0.1545771020187406]","[-1,-1,-1]","[-0.13592260791154503,-0.09569007579568134]","[1,1,1]","[0.1854939278482687,0.06812767297036514]","[1,1,1]","[0.08909390233577077,0.04850673814726425]","[1,1,1]","[0.08074999958031372,-0.15859250824862448]","[1,1,1]","[-0.04967875980961319,0.03666451417149157]","[-1,-1,-1]","[0.06665246676161239,-0.045937552448808525]","[-1,-1,-1]","[-0.08259604783629299,-0.07520622621508675]","[-1,-1,-1]","[-0.04377998294212336,0.18741744056218282]","[-1,-1,-1]","[-0.024090132005969066,-0.19529329637811166]","[-1,-1,-1]","[0.02,0.02]",154.81,0,38,38,127,1,,,,,,,
,,,,,,,664cf2037353bb98801436b5,682f0fbd2b2a740b1842af4a,2025-05-22_08h44.03.108,cuing_paradigm_dot,2024.1.5,MacIntel,47.61904762,682d573fa47f1360d1451895,,,,,,,,,,,154.811,155.311,,,155.562,155.868,left,0.299,,,,,,,,,0.9,,,,,,155.311,155.562,155.868,"[-0.10157704174937461,0.12093876705194376]","[1,1,1]","[0.15318505708409816,-0.0421918683436867]","[1,1,1]","[-0.03601307128284272,0.12892024063005664]","[1,1,1]","[0.051514239288284074,0.010714516150059781]","[1,1,1]","[-0.06140053920199721,-0.06967784878580761]","[1,1,1]","[0.023032664061374462,0.14482549082139715]","[1,1,1]","[-0.08966718807636474,0.017684636608888714]","[1,1,1]","[-0.08746879860325782,-0.1082475036592335]","[-1,-1,-1]","[0.02036927855269376,-0.0530336857139749]","[1,1,1]","[0.08292014545864614,-0.04697442306766354]","[1,1,1]","[-0.18773083735071638,-0.0008781782455117042]","[1,1,1]","[0.0004713393455923734,-0.16085250815158242]","[1,1,1]","[-0.041613522761024944,0.03934702711581136]","[1,1,1]","[-0.014085432343537563,0.1983996351520074]","[1,1,1]","[0.13220428449686517,0.07773270570857138]","[1,1,1]","[0.0985887160917338,0.11966944694109596]","[1,1,1]","[-0.03929401418298636,-0.029666275220770432]","[1,1,1]","[-0.1255657592653236,-0.035705933710125634]","[1,1,1]","[0.17451745980496663,0.05462474104955137]","[1,1,1]","[-0.16549639962198526,0.09052795774179791]","[1,1,1]","[0.04527674618047407,-0.17557993966928423]","[-1,-1,-1]","[0.1100035581359802,0.021205643549631694]","[1,1,1]","[-0.08185844564175404,0.1730558585360087]","[1,1,1]","[-0.14894683666317443,-0.07887566273537125]","[-1,-1,-1]","[0.03160117106490196,0.06101591085462982]","[1,1,1]","[0.13613212555609028,-0.13668157065836734]","[1,1,1]","[-0.0856057896943442,-0.03766056333875333]","[1,1,1]","[-0.14271647675386848,0.007098304153872136]","[1,1,1]","[0.07029211194892554,-0.1255177852863824]","[1,1,1]","[-0.138881485542937,0.1378876586864694]","[1,1,1]","[-0.16862516624917076,0.04183400061097071]","[1,1,1]","[0.09351296042906738,-0.17035571072200037]","[1,1,1]","[0.02,0.02]",156.962,0,39,39,190,1,,,,,,,
,,,,,,,664cf2037353bb98801436b5,682f0fbd2b2a740b1842af4a,2025-05-22_08h44.03.108,cuing_paradigm_dot,2024.1.5,MacIntel,47.61904762,682d573fa47f1360d1451895,,,,,,,,,,,156.963,157.462,,,157.714,158.036,right,0.316,,,,,,,,,0.1,,,,,,157.463,157.714,158.036,"[0.13377616257033093,0.12277773623523998]","[-1,-1,-1]","[-0.09705635978884866,-0.11853615880891258]","[-1,-1,-1]","[-0.08402155519248357,-0.17724243953701568]","[-1,-1,-1]","[0.0022951769992907937,-0.13498186531047718]","[-1,-1,-1]","[0.11451394453632759,-0.06049050217157042]","[-1,-1,-1]","[-0.025777166695951894,-0.05518691090153882]","[-1,-1,-1]","[0.11792203134802896,-0.017199967928234597]","[-1,-1,-1]","[-0.09999886288737021,-0.07183616231735253]","[1,1,1]","[0.051689729446031445,-0.033011279896531735]","[1,1,1]","[0.01468883068276406,0.18286779377044518]","[-1,-1,-1]","[-0.044378194161532866,-0.17082025685590999]","[-1,-1,-1]","[0.04260531245677493,-0.11991196250361442]","[-1,-1,-1]","[0.08287355212785963,-0.11362163437278507]","[-1,-1,-1]","[-0.1447566668618814,0.05340089119709372]","[-1,-1,-1]","[0.0908574225327021,0.023696091508678237]","[-1,-1,-1]","[-0.19006311584328572,-0.05417463695339053]","[-1,-1,-1]","[-0.1432950634784097,0.10788831119102175]","[-1,-1,-1]","[-0.18376689097899593,-0.00659492569792424]","[-1,-1,-1]","[-0.008151587993935696,-0.19899141488466215]","[-1,-1,-1]","[-0.06891513485392162,0.08939277191910397]","[-1,-1,-1]","[-0.02878307148594714,0.07471005427743044]","[-1,-1,-1]","[0.036582937729890644,0.03954847291672214]","[-1,-1,-1]","[-0.031490316278933624,0.1950637923573231]","[-1,-1,-1]","[-0.06794189430359877,0.17787740135577268]","[-1,-1,-1]","[0.13051495554440268,0.03503357867081706]","[-1,-1,-1]","[0.14562392111473926,-0.12601070652838398]","[-1,-1,-1]","[-0.09667848900488296,0.019356969010271462]","[-1,-1,-1]","[-0.02280831994667305,0.12611172279939403]","[1,1,1]","[0.0076101312030263475,-0.016275896791384938]","[-1,-1,-1]","[-0.053154470641652754,-0.01675183394182534]","[-1,-1,-1]","[-0.05777392578211779,-0.10533587571608827]","[-1,-1,-1]","[0.05415532954004909,0.09124525690586542]","[-1,-1,-1]","[0.02,0.02]",159.131,0,40,40,23,1,,,,,,,
,,,,,,,664cf2037353bb98801436b5,682f0fbd2b2a740b1842af4a,2025-05-22_08h44.03.108,cuing_paradigm_dot,2024.1.5,MacIntel,47.61904762,682d573fa47f1360d1451895,,,,,,,,,,,159.132,159.631,,,159.882,160.521,right,0.633,,,,,,,,,0.5,,,,,,159.631,159.882,160.521,"[0.04084703814890217,-0.18881268635509774]","[-1,-1,-1]","[-0.1736030164551872,-0.0550381524841531]","[1,1,1]","[0.057751359519755685,0.04611425578614809]","[1,1,1]","[0.1603789541639205,0.04627883731431679]","[1,1,1]","[-0.014343507067707772,0.0670824679953227]","[-1,-1,-1]","[-0.10485293843983094,0.12002306538441877]","[-1,-1,-1]","[0.028170502661099897,-0.04563909092458679]","[-1,-1,-1]","[-0.03531311175486244,0.13190116721070017]","[-1,-1,-1]","[-0.03688126133928265,-0.046565670013124255]","[1,1,1]","[-0.03334645321791266,-0.08944715537404228]","[-1,-1,-1]","[0.1561706258096554,-0.004902501722301316]","[1,1,1]","[-0.10808976115874619,-0.03662154211116795]","[-1,-1,-1]","[0.004707322051907918,-0.0034544802148552896]","[-1,-1,-1]","[-0.06625125590658963,0.027683318165064724]","[1,1,1]","[0.034482051875097446,0.10017589531810457]","[1,1,1]","[0.1557237069262099,0.12229970933868214]","[1,1,1]","[-0.12578540178703324,0.07746523309088957]","[1,1,1]","[-0.07969750374902992,0.17067729621169808]","[-1,-1,-1]","[0.03577958189150467,-0.09172566022564145]","[-1,-1,-1]","[0.11667853296058447,0.0692062331201938]","[1,1,1]","[-0.1261572692578132,0.01544120897432879]","[-1,-1,-1]","[-0.06856026553498226,-0.16206039595247276]","[1,1,1]","[-0.023648593809415898,-0.1977207726231759]","[1,1,1]","[-0.16648398717166957,0.07175057214857436]","[-1,-1,-1]","[-0.007561185763607278,0.17929428740218709]","[1,1,1]","[0.05450284525044275,0.14719745919112592]","[-1,-1,-1]","[-0.0723372904820314,-0.11978344223681806]","[-1,-1,-1]","[0.1569671359347475,-0.06723668088684313]","[1,1,1]","[0.14307761802088526,-0.12341078645142073]","[-1,-1,-1]","[0.12412536373974954,0.0237724078824689]","[1,1,1]","[-0.1430923093930127,-0.09003492841137371]","[1,1,1]","[0.12957534531187356,-0.03551140898892861]","[-1,-1,-1]","[0.02,0.02]",161.616,0,41,41,91,1,,,,,,,
,,,,,,,664cf2037353bb98801436b5,682f0fbd2b2a740b1842af4a,2025-05-22_08h44.03.108,cuing_paradigm_dot,2024.1.5,MacIntel,47.61904762,682d573fa47f1360d1451895,,,,,,,,,,,161.617,162.117,,,162.368,162.706,left,0.333,,,,,,,,,0.9,,,,,,162.117,162.368,162.706,"[-0.18316350989895805,0.03467995583582794]","[1,1,1]","[0.061085060292402,0.08351323406759466]","[1,1,1]","[0.10485032027647607,-0.015398757670553133]","[1,1,1]","[-0.028388671512953136,0.06229968439213054]","[1,1,1]","[-0.012842934194741338,0.19103106449910784]","[1,1,1]","[0.14805857655415908,0.014512530558255812]","[1,1,1]","[-0.14794374936703253,-0.1294218937207383]","[1,1,1]","[-0.10226019894666655,0.17072066925503926]","[1,1,1]","[0.04811167927354812,-0.19302953565453757]","[1,1,1]","[-0.10330662420108659,-0.06788123544892662]","[1,1,1]","[-0.10600815830172307,-0.009832325907902372]","[1,1,1]","[-0.02720890665698825,-0.10443164192784085]","[1,1,1]","[0.03271247939299963,0.008025955803801594]","[1,1,1]","[-0.14833333700912998,-0.03097102770450105]","[1,1,1]","[0.004638682685065518,-0.02301739714136161]","[-1,-1,-1]","[0.14455288279011944,0.1253502960850388]","[1,1,1]","[-0.14740074837205397,0.06744769877505002]","[-1,-1,-1]","[0.028380583027740696,0.1759220028146279]","[1,1,1]","[-0.01909762870983629,-0.1606593914432098]","[-1,-1,-1]","[0.029247599159021788,-0.0807418916773317]","[1,1,1]","[-0.08553812537914347,-0.13017382880648323]","[1,1,1]","[-0.029687243178723375,0.12273621272280451]","[1,1,1]","[-0.07718863841142515,-0.17437176864064283]","[1,1,1]","[-0.0914860375322865,0.08697371312691538]","[1,1,1]","[0.06492163252097789,0.13511587271414305]","[1,1,1]","[0.05256902781844585,-0.1489541926065913]","[1,1,1]","[0.18327185246541686,-0.010267537469506613]","[1,1,1]","[0.1403065433116498,-0.05928680800465352]","[1,1,1]","[-0.00847843468715694,-0.0672002530723055]","[1,1,1]","[0.15547892284396653,-0.10440457821625694]","[1,1,1]","[0.053573319152144284,-0.030894736801769986]","[1,1,1]","[-0.058454491531327285,0.017453171575147093]","[1,1,1]","[0.02,0.02]",163.802,0,42,42,206,1,,,,,,,
,,,,,,,664cf2037353bb98801436b5,682f0fbd2b2a740b1842af4a,2025-05-22_08h44.03.108,cuing_paradigm_dot,2024.1.5,MacIntel,47.61904762,682d573fa47f1360d1451895,,,,,,,,,,,163.802,164.302,,,164.553,164.841,left,0.282,,,,,,,,,0.9,,,,,,164.302,164.553,164.841,"[-0.04356927743963653,0.11802297353268901]","[1,1,1]","[-0.16275860384081903,0.058423909302843684]","[1,1,1]","[0.07770154142937061,-0.1159940042463721]","[1,1,1]","[0.002639780877827419,-0.06774339321839178]","[1,1,1]","[-0.0340138698638909,0.05765080979994816]","[1,1,1]","[0.07279361025683925,-0.1702869002876491]","[1,1,1]","[-0.07023541824931197,-0.1752882888925891]","[1,1,1]","[0.06041545492903121,-0.0754713341769783]","[1,1,1]","[0.03609926074381646,0.08457722196526075]","[1,1,1]","[0.13274093747808066,-0.09194278647161763]","[1,1,1]","[0.014953144542809523,0.11896578843674213]","[1,1,1]","[0.1332577631129887,0.0731108565480371]","[1,1,1]","[-0.1357309668271181,-0.03447821382140452]","[1,1,1]","[-0.08370029189301699,0.12581906034038598]","[1,1,1]","[-0.15349597661160508,-0.09215182080947996]","[-1,-1,-1]","[0.19420522612179547,0.0023442205011564438]","[1,1,1]","[0.04067192105471162,0.0032727837515360092]","[1,1,1]","[0.17901437881678556,-0.07990818632983818]","[1,1,1]","[-0.11069659822141288,0.16469304878749932]","[1,1,1]","[0.1673691864289181,0.03595193610869783]","[1,1,1]","[-0.017185820756797407,-0.1791012679717819]","[1,1,1]","[-0.058033079875661885,-0.015269139878678058]","[-1,-1,-1]","[0.10439147350491511,0.15474406817226014]","[1,1,1]","[0.0005292765742356192,0.18552684858668084]","[1,1,1]","[-0.07207839901216019,0.04195510264582166]","[1,1,1]","[0.08254214502475753,0.10228018562388913]","[1,1,1]","[-0.10177724658156867,-0.0654198280765886]","[1,1,1]","[0.06291942651067564,0.04390867473550343]","[1,1,1]","[-0.10613972133984283,-0.10949670114477694]","[-1,-1,-1]","[-0.16606623247497151,0.011318307176504241]","[1,1,1]","[-0.12232624971792681,0.06641677107053273]","[1,1,1]","[-0.03741897618240902,-0.0782812661129219]","[1,1,1]","[0.02,0.02]",165.937,0,43,43,187,1,,,,,,,
,,,,,,,664cf2037353bb98801436b5,682f0fbd2b2a740b1842af4a,2025-05-22_08h44.03.108,cuing_paradigm_dot,2024.1.5,MacIntel,47.61904762,682d573fa47f1360d1451895,,,,,,,,,,,165.938,166.438,,,166.689,166.866,left,0.171,,,,,,,,,0.9,,,,,,166.438,166.689,166.866,"[-0.13710631961451428,0.019020490746170758]","[1,1,1]","[0.1580005325046721,0.0750362723141037]","[1,1,1]","[-0.13541226134979525,-0.13428817910839974]","[1,1,1]","[0.014877495161649136,-0.1911762920240356]","[1,1,1]","[0.06220789193891193,0.07576268566006171]","[1,1,1]","[0.019481682956499123,-0.11689193774757]","[1,1,1]","[0.02044930428264655,-0.04317513702175699]","[1,1,1]","[-0.13158404483019812,-0.08720104199066292]","[1,1,1]","[-0.010428025472841626,0.12184604773455328]","[1,1,1]","[-0.14361807778972466,-0.02975061236038942]","[1,1,1]","[-0.07716035265701512,-0.13229377101996895]","[1,1,1]","[-0.07917085085468306,0.054767361074893835]","[1,1,1]","[0.14948250585822692,-0.04837637726823467]","[1,1,1]","[0.14062968973882042,-0.11545009819469322]","[1,1,1]","[0.0591110060019584,0.11815712432518424]","[1,1,1]","[-0.06897066221231363,0.16676052613789594]","[1,1,1]","[-0.0117090354707157,0.003507439120556685]","[-1,-1,-1]","[0.059660625815614494,0.18777915905682302]","[1,1,1]","[0.09344513807870251,0.049085445306625966]","[1,1,1]","[-0.06760498784921172,0.12158204706198236]","[-1,-1,-1]","[0.1226506711840782,0.1276752721579954]","[1,1,1]","[0.06574006064765635,-0.16632799815305682]","[1,1,1]","[-0.0751851374274316,-0.08023585905591614]","[1,1,1]","[0.19382409735676345,-0.04026051861593792]","[1,1,1]","[-0.15964459944984882,0.10194848292135848]","[1,1,1]","[-0.17729452637785278,-0.06007019194621271]","[1,1,1]","[0.05463256417135428,-0.017040519380161535]","[1,1,1]","[0.1598958184518425,0.02837616694529414]","[1,1,1]","[-0.012716538273125126,-0.15035360406839385]","[1,1,1]","[-0.12710846679304574,0.1450706480082572]","[-1,-1,-1]","[-0.18613843268477245,0.06503613671110739]","[1,1,1]","[0.09514056415072313,-0.10603554661520644]","[1,1,1]","[0.02,0.02]",167.956,0,44,44,203,1,,,,,,,
