right,left,explain.started,explain.stopped,key_resp_3.keys,key_resp_3.rt,key_resp_3.duration,participant,session,date,expName,psychopyVersion,OS,frameRate,study_id,explain_2.started,explain_2.stopped,key_resp_4.keys,key_resp_4.rt,key_resp_4.duration,explain_3.started,explain_3.stopped,key_resp_5.keys,key_resp_5.rt,key_resp_5.duration,fixation.started,fixation.stopped,practice.started,practice.stopped,response.started,response.stopped,key_resp.keys,feedback.started,feedback.stopped,trials_2.thisRepN,trials_2.thisTrialN,trials_2.thisN,trials_2.thisIndex,trials_2.ran,white_ratio,key_resp.rt,key_resp.duration,explain_4.started,explain_4.stopped,key_resp_6.keys,key_resp_6.rt,key_resp_6.duration,dotDisplay.started,dotDisplay.stopped,ITI.started,polygon_1.pos,polygon_1.color,polygon_2.pos,polygon_2.color,polygon_3.pos,polygon_3.color,polygon_4.pos,polygon_4.color,polygon_5.pos,polygon_5.color,polygon_6.pos,polygon_6.color,polygon_7.pos,polygon_7.color,polygon_8.pos,polygon_8.color,polygon_9.pos,polygon_9.color,polygon_10.pos,polygon_10.color,polygon_11.pos,polygon_11.color,polygon_12.pos,polygon_12.color,polygon_13.pos,polygon_13.color,polygon_14.pos,polygon_14.color,polygon_15.pos,polygon_15.color,polygon_16.pos,polygon_16.color,polygon_17.pos,polygon_17.color,polygon_18.pos,polygon_18.color,polygon_19.pos,polygon_19.color,polygon_20.pos,polygon_20.color,polygon_21.pos,polygon_21.color,polygon_22.pos,polygon_22.color,polygon_23.pos,polygon_23.color,polygon_24.pos,polygon_24.color,polygon_25.pos,polygon_25.color,polygon_26.pos,polygon_26.color,polygon_27.pos,polygon_27.color,polygon_28.pos,polygon_28.color,polygon_29.pos,polygon_29.color,polygon_30.pos,polygon_30.color,polygon_31.pos,polygon_31.color,polygon_32.pos,polygon_32.color,dot_size,ITI.stopped,trials.thisRepN,trials.thisTrialN,trials.thisN,trials.thisIndex,trials.ran,break_2.started,break_2.stopped,trials_3.thisRepN,trials_3.thisTrialN,trials_3.thisN,trials_3.thisIndex,trials_3.ran
subject chose white,subject chose black,0.0002,164.4557,space,149.4386,,664f478709517d692052ab29,682dc96e6ced0632a7bae6f6,2025-05-21_14h40.53.020,cuing_paradigm_dot,2024.1.5,Win32,59.52380952,682d556593cb38ad0a074487,,,,,,,,,,,,,,,,,,,,,,,,,,,,,,,,,,,,,,,,,,,,,,,,,,,,,,,,,,,,,,,,,,,,,,,,,,,,,,,,,,,,,,,,,,,,,,,,,,,,,,,,,,,,,,,,,
,,,,,,,664f478709517d692052ab29,682dc96e6ced0632a7bae6f6,2025-05-21_14h40.53.020,cuing_paradigm_dot,2024.1.5,Win32,59.52380952,682d556593cb38ad0a074487,164.4559,226.6324,space,32.1621,,,,,,,,,,,,,,,,,,,,,,,,,,,,,,,,,,,,,,,,,,,,,,,,,,,,,,,,,,,,,,,,,,,,,,,,,,,,,,,,,,,,,,,,,,,,,,,,,,,,,,,,,,,,,
,,,,,,,664f478709517d692052ab29,682dc96e6ced0632a7bae6f6,2025-05-21_14h40.53.020,cuing_paradigm_dot,2024.1.5,Win32,59.52380952,682d556593cb38ad0a074487,,,,,,226.6325,234.7615,space,5.112,,,,,,,,,,,,,,,,,,,,,,,,,,,,,,,,,,,,,,,,,,,,,,,,,,,,,,,,,,,,,,,,,,,,,,,,,,,,,,,,,,,,,,,,,,,,,,,,,,,,,,,,
,,,,,,,664f478709517d692052ab29,682dc96e6ced0632a7bae6f6,2025-05-21_14h40.53.020,cuing_paradigm_dot,2024.1.5,Win32,59.52380952,682d556593cb38ad0a074487,,,,,,,,,,,234.7782,235.2659,235.2665,235.5101,235.5103,236.9991,,236.9994,238.0993,0,0,0,1,1,0.2,,,,,,,,,,,,,,,,,,,,,,,,,,,,,,,,,,,,,,,,,,,,,,,,,,,,,,,,,,,,,,,,,,,,,,,,,,,,,,,,,,,,,,,,
,,,,,,,664f478709517d692052ab29,682dc96e6ced0632a7bae6f6,2025-05-21_14h40.53.020,cuing_paradigm_dot,2024.1.5,Win32,59.52380952,682d556593cb38ad0a074487,,,,,,,,,,,238.1001,238.5989,238.599,238.8494,238.8495,239.7489,right,239.749,240.8493,0,1,1,0,1,0.8,0.8837,,,,,,,,,,,,,,,,,,,,,,,,,,,,,,,,,,,,,,,,,,,,,,,,,,,,,,,,,,,,,,,,,,,,,,,,,,,,,,,,,,,,,,,
,,,,,,,664f478709517d692052ab29,682dc96e6ced0632a7bae6f6,2025-05-21_14h40.53.020,cuing_paradigm_dot,2024.1.5,Win32,59.52380952,682d556593cb38ad0a074487,,,,,,,,,,,,,,,,,,,,,,,,,,,,240.8498,251.533,space,7.6631,,,,,,,,,,,,,,,,,,,,,,,,,,,,,,,,,,,,,,,,,,,,,,,,,,,,,,,,,,,,,,,,,,,,,,,,,,,,,,,,,,
,,,,,,,664f478709517d692052ab29,682dc96e6ced0632a7bae6f6,2025-05-21_14h40.53.020,cuing_paradigm_dot,2024.1.5,Win32,59.52380952,682d556593cb38ad0a074487,,,,,,,,,,,251.5447,252.0324,,,252.2832,252.566,right,,,,,,,,0.9,0.2677,,,,,,,252.0332,252.2831,252.5668,"[-0.13377211479546688,-0.11611410974497213]","[1,1,1]","[-0.07607997720650826,0.05003679656074186]","[1,1,1]","[0.14766234186406102,-0.012901446463273264]","[1,1,1]","[-0.003988162237091243,0.19411292871470884]","[1,1,1]","[0.06415359013172252,-0.16733077389537024]","[1,1,1]","[0.05656881342316102,-0.0761518140833177]","[1,1,1]","[-0.09363810275487144,0.10227452852580901]","[1,1,1]","[0.03561930629656577,0.12282334709722964]","[1,1,1]","[-0.12051233546543827,-0.015115659924555661]","[-1,-1,-1]","[-0.00647611830483184,0.06861070190480863]","[1,1,1]","[-0.19534605009583939,0.008205463708323198]","[1,1,1]","[-0.12333315689095016,0.036515626366436585]","[-1,-1,-1]","[-0.049991797669210046,0.16221954865378527]","[1,1,1]","[-0.005091846766377115,-0.10053183870007464]","[1,1,1]","[-0.1908427384851328,-0.053357056742780795]","[1,1,1]","[-0.16347333688492813,-0.08508548841286796]","[1,1,1]","[0.10465781463977358,0.038849841857567034]","[1,1,1]","[0.052913182550377816,0.16022683144305577]","[1,1,1]","[-0.004173138899858049,0.11588665860111369]","[1,1,1]","[0.10372594901774393,-0.003986172914805836]","[1,1,1]","[-0.141479253070697,0.08611227259661232]","[1,1,1]","[0.000868345533555448,-0.05490541466624717]","[1,1,1]","[0.0972234826870044,-0.07409685006652837]","[1,1,1]","[-0.023541471668576997,0.0208748448588825]","[1,1,1]","[-0.058834963892504095,-0.09416685613797078]","[1,1,1]","[0.09084235038715058,0.17718474473818827]","[1,1,1]","[0.03290755145820708,-0.1215622816647731]","[1,1,1]","[-0.06363187530778226,-0.009515056845755534]","[1,1,1]","[-0.00411333473541656,-0.18808766747439618]","[-1,-1,-1]","[-0.1025438663732218,0.15735924168321905]","[1,1,1]","[-0.09830737119043287,-0.1476002986291808]","[1,1,1]","[-0.046556830050798116,-0.14401779968120934]","[1,1,1]","[0.02,0.02]",253.6662,0,0,0,189,1,,,,,,,
,,,,,,,664f478709517d692052ab29,682dc96e6ced0632a7bae6f6,2025-05-21_14h40.53.020,cuing_paradigm_dot,2024.1.5,Win32,59.52380952,682d556593cb38ad0a074487,,,,,,,,,,,253.6667,254.1657,,,254.416,254.9325,left,,,,,,,,0.4,0.4999,,,,,,,254.1658,254.416,254.9325,"[-0.023184339913968375,-0.16758292183450715]","[-1,-1,-1]","[0.025422433302678828,0.0960370211474636]","[-1,-1,-1]","[-0.009120733569381914,0.18081006710837189]","[1,1,1]","[0.04045001252482506,0.1637544967300006]","[-1,-1,-1]","[-0.030757906980452398,-0.09839057274658637]","[1,1,1]","[-0.034649029056310364,-0.025987877335122783]","[-1,-1,-1]","[-0.13039770453072394,-0.020716773223701506]","[-1,-1,-1]","[0.04068774976030934,-0.04117458645525915]","[-1,-1,-1]","[0.13706092087458352,-0.08241419201942594]","[1,1,1]","[-0.05643358162793211,0.06078268476486136]","[-1,-1,-1]","[-0.16717206618710434,0.0976100437390354]","[-1,-1,-1]","[-0.05030030231987101,0.12203367040014303]","[-1,-1,-1]","[-0.08096279983150957,-0.1739247704190401]","[1,1,1]","[-0.007898052553800708,0.060661333649467686]","[1,1,1]","[0.07643374718393445,-0.11684301936633519]","[-1,-1,-1]","[-0.07501029579402164,-0.09236701800007494]","[-1,-1,-1]","[0.1015789949023975,0.007716396152799733]","[-1,-1,-1]","[-0.17717398916450447,0.01974177035243682]","[-1,-1,-1]","[0.17652739734262388,0.03299009875551717]","[1,1,1]","[-0.10527118213278078,-0.05486767427755639]","[-1,-1,-1]","[0.0341850610499604,-0.17458401654887387]","[1,1,1]","[-0.09380291462308347,0.08626195911015534]","[-1,-1,-1]","[0.031212032100665338,-0.13017409471517297]","[-1,-1,-1]","[0.1489804998728041,0.11954285312173159]","[-1,-1,-1]","[0.057844377777021616,0.0025982226750496874]","[1,1,1]","[-0.044167172139367765,0.014313223500655822]","[1,1,1]","[-0.06313790517927162,0.1661918167400364]","[-1,-1,-1]","[-0.12244560262699473,0.01865842130855013]","[1,1,1]","[-0.18225049969020551,-0.053774140007949486]","[-1,-1,-1]","[-0.09922649019631903,-0.12725142749609802]","[1,1,1]","[0.0741547468114287,0.11515300508986753]","[1,1,1]","[0.10399268963320071,0.057266949672612304]","[1,1,1]","[0.02,0.02]",256.0321,0,1,1,52,1,,,,,,,
,,,,,,,664f478709517d692052ab29,682dc96e6ced0632a7bae6f6,2025-05-21_14h40.53.020,cuing_paradigm_dot,2024.1.5,Win32,59.52380952,682d556593cb38ad0a074487,,,,,,,,,,,256.0325,256.5324,,,256.7829,257.2827,left,,,,,,,,0.5,0.4844,,,,,,,256.5324,256.7829,257.2828,"[-0.1601874311710666,0.03664758765379817]","[-1,-1,-1]","[-0.02326948856315709,-0.03345567689582913]","[1,1,1]","[-0.11050062695030262,0.09028562227778776]","[1,1,1]","[0.139571878165313,-0.12058046527517059]","[-1,-1,-1]","[0.11543673922754609,-0.023700004092242603]","[1,1,1]","[0.026955906868096305,0.009418441612599736]","[1,1,1]","[0.015975858634017695,-0.16532736634776637]","[1,1,1]","[-0.05958846882599547,0.07736663759092706]","[-1,-1,-1]","[0.19134767156179336,-0.0486224511684902]","[-1,-1,-1]","[0.15787959397507864,-0.008851150333260527]","[-1,-1,-1]","[-0.1495482855436561,0.1250733035032018]","[1,1,1]","[0.08286382331526955,-0.15241934138826518]","[1,1,1]","[0.02910547093248324,-0.032785705264607785]","[-1,-1,-1]","[-0.006921332233366401,0.1916661365049614]","[-1,-1,-1]","[0.06656021723074107,0.030159591112469814]","[-1,-1,-1]","[0.0905274787238451,-0.11006553805028993]","[-1,-1,-1]","[-0.07375673332501785,-0.18399858063117222]","[1,1,1]","[0.0583526453504248,-0.18982209652235557]","[-1,-1,-1]","[0.07610527900553939,-0.042478061762841336]","[1,1,1]","[-0.0364830065186038,-0.15695216546292198]","[-1,-1,-1]","[-0.07465123271449177,0.1667476898535953]","[1,1,1]","[-0.17114041748024805,-0.08948394464554939]","[1,1,1]","[0.05322414135985658,0.15715345633531716]","[-1,-1,-1]","[0.15983833090172345,0.04392028673224734]","[1,1,1]","[-0.07044987829148612,-0.07101328115516715]","[-1,-1,-1]","[0.10614280031431937,0.12044484490519886]","[1,1,1]","[-0.18367065841957164,-0.017784596929896247]","[-1,-1,-1]","[-0.033527393742683494,0.1395281618313752]","[-1,-1,-1]","[-0.05912520505303869,-0.11478760793615879]","[1,1,1]","[-0.12085532758045624,-0.1273496411052887]","[-1,-1,-1]","[-0.01722263223765109,0.06720023644551877]","[1,1,1]","[-0.110075694662596,0.049127613264770734]","[1,1,1]","[0.02,0.02]",258.3824,0,2,2,119,1,,,,,,,
,,,,,,,664f478709517d692052ab29,682dc96e6ced0632a7bae6f6,2025-05-21_14h40.53.020,cuing_paradigm_dot,2024.1.5,Win32,59.52380952,682d556593cb38ad0a074487,,,,,,,,,,,258.3829,258.8822,,,259.1326,259.5989,right,,,,,,,,0.55,0.4507,,,,,,,258.8822,259.1326,259.5991,"[0.04711223213877732,-0.18379761573283154]","[1,1,1]","[0.16785328763658353,0.06156134683579749]","[-1,-1,-1]","[-0.1178848444295682,-0.07988649560185879]","[1,1,1]","[0.13273087785811782,-0.00019315882884235128]","[-1,-1,-1]","[-0.13370601411688576,0.03759738892533905]","[1,1,1]","[0.15212151169186242,-0.10595480282077117]","[1,1,1]","[-0.05885403661314822,0.024289637380591356]","[1,1,1]","[-0.051291327687251316,-0.05821312991787701]","[-1,-1,-1]","[-0.0569428711224648,0.14569917381345243]","[-1,-1,-1]","[0.08290722422836652,-0.12161527115546292]","[-1,-1,-1]","[0.054641355925025385,0.18029274133317616]","[1,1,1]","[-0.08553919162338318,-0.13949767982386743]","[-1,-1,-1]","[0.08558431158765117,0.046966562496629845]","[1,1,1]","[-0.13797847224035165,0.14323979143535084]","[1,1,1]","[0.15775622271439846,0.12154927717716829]","[-1,-1,-1]","[-0.015129604770270717,0.09781337722538191]","[1,1,1]","[0.014602124260525581,-0.011001151009715123]","[1,1,1]","[0.11204576429147163,-0.03516798093538617]","[1,1,1]","[0.06449705495776298,-0.061410333102412985]","[-1,-1,-1]","[-0.09419541289778907,0.05360775085251152]","[-1,-1,-1]","[-0.18890904516800533,-0.0343938324107902]","[-1,-1,-1]","[-0.012388855936664554,-0.1343762214237302]","[1,1,1]","[0.06059220648357429,0.08161705451643608]","[1,1,1]","[-0.10929599095435821,0.1070602115895409]","[-1,-1,-1]","[-0.060434984496844854,-0.17811857925755473]","[1,1,1]","[0.17423901985606796,0.010401051823924553]","[-1,-1,-1]","[-0.1425888144369163,-0.011228535195360536]","[-1,-1,-1]","[-0.1595424605917718,-0.11029046003531842]","[1,1,1]","[0.11321311979106088,-0.095242166465308]","[1,1,1]","[0.07483652525809574,-0.019554430958369718]","[1,1,1]","[-0.056294365554956004,-0.11038993118710785]","[-1,-1,-1]","[0.07641763862978258,0.13428291804614279]","[1,1,1]","[0.02,0.02]",260.6991,0,3,3,139,1,,,,,,,
,,,,,,,664f478709517d692052ab29,682dc96e6ced0632a7bae6f6,2025-05-21_14h40.53.020,cuing_paradigm_dot,2024.1.5,Win32,59.52380952,682d556593cb38ad0a074487,,,,,,,,,,,260.6998,261.199,,,261.4497,262.0992,left,,,,,,,,0.45,0.6352,,,,,,,261.1991,261.4495,262.0992,"[-0.0418944849196702,0.02151252951842718]","[1,1,1]","[0.14702054182313704,0.014667067153385609]","[1,1,1]","[0.01938363952497566,-0.11971691806555458]","[-1,-1,-1]","[-0.15485337673332447,-0.00777917902228749]","[-1,-1,-1]","[-0.06512745151551053,-0.13184376305945247]","[1,1,1]","[0.007531255864012288,0.01955661380744124]","[1,1,1]","[0.08020960725813722,-0.18147913209942074]","[1,1,1]","[0.08331425744333651,0.012662431880158323]","[1,1,1]","[-0.07986691727009942,0.1774922475243878]","[-1,-1,-1]","[0.10557975648912465,-0.13248688984867546]","[-1,-1,-1]","[-0.022669755496452483,-0.15907114139318576]","[-1,-1,-1]","[-0.07561921585567993,0.047044585966907665]","[1,1,1]","[-0.19279758248906853,-0.04262145844984142]","[-1,-1,-1]","[0.05972297867000384,0.05370800774752449]","[-1,-1,-1]","[-0.09966915655079148,-0.01354922026000158]","[-1,-1,-1]","[-0.000709382955033335,0.06459935481913717]","[-1,-1,-1]","[-0.011243480336515397,0.12415273827060364]","[-1,-1,-1]","[0.1362196570037961,-0.07380244417683127]","[1,1,1]","[0.12663124568056017,0.11171673264412085]","[1,1,1]","[0.16986715928322121,-0.019977546428714875]","[-1,-1,-1]","[-0.16073986909758758,0.0660630929592992]","[1,1,1]","[-0.11044638231265104,0.06972205718625549]","[-1,-1,-1]","[0.03920365186646835,-0.01802096813286025]","[-1,-1,-1]","[-0.1306339452536902,0.141375044506221]","[1,1,1]","[0.11755375841392714,-0.015816067957868378]","[-1,-1,-1]","[-0.033269984496442584,-0.0970779814504287]","[-1,-1,-1]","[-0.05983342886499648,-0.17849267800087337]","[-1,-1,-1]","[0.026926271945585688,0.10191980773176434]","[1,1,1]","[0.17069877366772002,0.05667661658576029]","[1,1,1]","[-0.18871692095104248,0.014884995741896206]","[-1,-1,-1]","[-0.04733418473579276,0.08043427026882514]","[-1,-1,-1]","[-0.12055944635219415,-0.11048260515798054]","[1,1,1]","[0.02,0.02]",263.1991,0,4,4,83,1,,,,,,,
,,,,,,,664f478709517d692052ab29,682dc96e6ced0632a7bae6f6,2025-05-21_14h40.53.020,cuing_paradigm_dot,2024.1.5,Win32,59.52380952,682d556593cb38ad0a074487,,,,,,,,,,,263.1994,263.6992,,,263.9492,264.1824,right,,,,,,,,0.55,0.218,,,,,,,263.6992,263.9491,264.1826,"[0.05055135661837564,-0.14310358910309856]","[1,1,1]","[0.10991143899754308,-0.008886579376520244]","[1,1,1]","[0.0528765073570365,0.050635617776449614]","[-1,-1,-1]","[0.15380943001690411,0.10493399062748165]","[1,1,1]","[-0.036535852833017475,0.03651651561941172]","[-1,-1,-1]","[0.13630421428884812,-0.03902195421329317]","[1,1,1]","[0.04976831489984108,0.12899928214100476]","[1,1,1]","[-0.050581209236806444,0.0885662063834517]","[1,1,1]","[0.001462940588823703,-0.18735889381640056]","[1,1,1]","[0.01743781205728281,0.02568633412041205]","[-1,-1,-1]","[-0.07778209135065248,-0.1443681334440028]","[1,1,1]","[-0.031556544220420056,-0.05188592530277342]","[-1,-1,-1]","[0.07548420049429366,0.09199024615144248]","[-1,-1,-1]","[0.08951371673120703,0.1735848917066664]","[1,1,1]","[-0.12006272509157392,-0.03696692037030059]","[1,1,1]","[-0.003420317635266539,0.1204965415741458]","[1,1,1]","[0.10891278803885236,0.05600462571747969]","[1,1,1]","[0.18184584273766777,0.03327616946126504]","[1,1,1]","[-0.07770412812985115,-0.09749469072879233]","[-1,-1,-1]","[-0.12911527342431875,-0.13186026718407612]","[1,1,1]","[-0.1735652452426563,-0.07770959205247188]","[-1,-1,-1]","[0.12806417265836587,-0.1251100206374187]","[-1,-1,-1]","[0.01528937630336404,0.17117260973042495]","[-1,-1,-1]","[-0.15714346348967825,0.07161202143536916]","[-1,-1,-1]","[-0.09760888863264157,0.00010643580519617058]","[-1,-1,-1]","[-0.1390790761164975,0.0002126807054051359]","[-1,-1,-1]","[-0.0029974749758763398,-0.1428940440354165]","[1,1,1]","[0.08493768649580027,-0.07209805646918996]","[-1,-1,-1]","[-0.09634788663752601,0.08188662090941554]","[1,1,1]","[-0.12671084473032065,0.10955885510051917]","[1,1,1]","[-0.08130706959376569,0.15768721568146296]","[-1,-1,-1]","[0.023518826182899227,-0.04538869334549993]","[1,1,1]","[0.02,0.02]",265.2825,0,5,5,130,1,,,,,,,
,,,,,,,664f478709517d692052ab29,682dc96e6ced0632a7bae6f6,2025-05-21_14h40.53.020,cuing_paradigm_dot,2024.1.5,Win32,59.52380952,682d556593cb38ad0a074487,,,,,,,,,,,265.283,265.7824,,,266.0325,266.2655,right,,,,,,,,0.55,0.2167,,,,,,,265.7824,266.0325,266.2655,"[0.0988615218050055,-0.15058162423836188]","[1,1,1]","[-0.13285394769750136,-0.1449589800559671]","[-1,-1,-1]","[-0.08582497174623144,-0.03097808266096068]","[1,1,1]","[-0.12356288237870319,-0.045834139642187695]","[1,1,1]","[-0.03169756848726868,-0.185290679859642]","[-1,-1,-1]","[-0.1583988592879385,-0.07720180835871933]","[-1,-1,-1]","[0.12553687393161844,0.04552703838694643]","[1,1,1]","[0.16863070963382942,-0.03500789358967912]","[-1,-1,-1]","[0.0433327372602306,-0.13332643606767758]","[1,1,1]","[0.13658791229377096,-0.09995533880738346]","[1,1,1]","[-0.09541722476398218,0.042293511624711004]","[1,1,1]","[0.0729946419690925,0.16744874518218159]","[-1,-1,-1]","[-0.02854813250576999,0.06551663968089043]","[-1,-1,-1]","[0.05946900652075742,-0.03965946912764192]","[-1,-1,-1]","[-0.18555866639983049,-0.03878837492714327]","[1,1,1]","[0.05959086940798253,-0.1703566437029458]","[1,1,1]","[-0.02500995015706245,-0.11804760706044046]","[1,1,1]","[-0.0782652270745329,0.12888659676522632]","[-1,-1,-1]","[-0.10598584825205104,-0.11457460289434784]","[-1,-1,-1]","[0.04763065910809419,0.0936881007971142]","[1,1,1]","[0.05029070937866725,0.045041298725125085]","[-1,-1,-1]","[0.009789242950882227,-0.15845994366904925]","[1,1,1]","[0.0044125315296838505,0.14024643252782049]","[-1,-1,-1]","[0.027187437914559433,-0.004004781272418664]","[1,1,1]","[0.1365295292402227,0.12468576927682842]","[1,1,1]","[-0.1689779211020598,0.06285041211152331]","[-1,-1,-1]","[0.18641179141092923,0.019375529264899553]","[1,1,1]","[0.08681435593877884,0.021776790710469358]","[-1,-1,-1]","[-0.1243592917702933,0.08301087893332738]","[1,1,1]","[0.0013005877484149528,-0.041194425138522006]","[1,1,1]","[-0.08515542010652195,-0.163707814931283]","[-1,-1,-1]","[-0.12874917073912007,0.006690980263280242]","[1,1,1]","[0.02,0.02]",267.3659,0,6,6,120,1,,,,,,,
,,,,,,,664f478709517d692052ab29,682dc96e6ced0632a7bae6f6,2025-05-21_14h40.53.020,cuing_paradigm_dot,2024.1.5,Win32,59.52380952,682d556593cb38ad0a074487,,,,,,,,,,,267.3663,267.866,,,268.1163,268.4992,right,,,,,,,,0.9,0.3688,,,,,,,267.866,268.1162,268.4992,"[0.05659555565206907,-0.14630387668128506]","[1,1,1]","[-0.09385291676308652,-0.12243854064204952]","[1,1,1]","[0.09603925964614346,0.006520562701859654]","[1,1,1]","[0.06118332483847043,-0.08956890302037501]","[1,1,1]","[-0.04309137717503397,-0.13117104328315218]","[1,1,1]","[-0.017667416650456527,0.17057128921652592]","[1,1,1]","[-0.06506049666369373,0.11869041042033719]","[1,1,1]","[0.0784164842004924,0.15677727388696644]","[1,1,1]","[-0.022914376707091077,0.09395688290833634]","[1,1,1]","[0.08294985615163195,0.09424456018027719]","[1,1,1]","[0.05466181839850676,-0.03484125464786257]","[1,1,1]","[0.03493373478291557,0.06203883968163271]","[1,1,1]","[-0.12117945340852834,0.13007730576733942]","[1,1,1]","[-0.1374103084187829,-0.13873990797841904]","[1,1,1]","[-0.11958499732900874,0.006995157439795816]","[1,1,1]","[0.0962481598740772,0.04888550749922984]","[1,1,1]","[-0.11888512532903868,0.06563057060785406]","[1,1,1]","[0.1453951330776542,0.027006911105978998]","[1,1,1]","[0.19734992316115113,-0.008046189021678704]","[1,1,1]","[0.10158292880567674,-0.16496188223366182]","[1,1,1]","[-0.16500767714374273,0.009589981932922346]","[1,1,1]","[0.02265958496854318,-0.1239653559614006]","[1,1,1]","[-0.05923624097916652,0.03478177075865836]","[-1,-1,-1]","[0.013991454655787766,-0.05818535048770857]","[1,1,1]","[-0.1118903478436224,-0.07252328611964823]","[1,1,1]","[0.0009401074318510378,-0.17763690448152047]","[1,1,1]","[0.02135491321474993,0.1514919108877501]","[1,1,1]","[0.12298691070744133,-0.03897994684123339]","[1,1,1]","[-0.041458784956239704,-0.18570481019420967]","[1,1,1]","[-0.03546250650860502,-0.004882685570801739]","[-1,-1,-1]","[0.14791736736985622,0.12350146759578944]","[-1,-1,-1]","[0.13470803081342447,-0.12692886228962727]","[1,1,1]","[0.02,0.02]",269.5992,0,7,7,199,1,,,,,,,
,,,,,,,664f478709517d692052ab29,682dc96e6ced0632a7bae6f6,2025-05-21_14h40.53.020,cuing_paradigm_dot,2024.1.5,Win32,59.52380952,682d556593cb38ad0a074487,,,,,,,,,,,269.5996,270.0994,,,270.3496,270.5824,left,,,,,,,,0.1,0.2173,,,,,,,270.0994,270.3495,270.5824,"[-0.16285199708483483,0.08182968425828874]","[-1,-1,-1]","[0.02042995562483146,0.07417209093763749]","[-1,-1,-1]","[-0.15691466078228028,-0.04166832462675742]","[-1,-1,-1]","[-0.040643677821182445,0.18855080794688733]","[-1,-1,-1]","[-0.07274719636226473,-0.1776456848398358]","[-1,-1,-1]","[0.08795533435117206,0.014584510085670287]","[-1,-1,-1]","[0.07576339009728675,0.1622961171300209]","[-1,-1,-1]","[-0.1874794509718448,0.019909658616825896]","[-1,-1,-1]","[-0.03729524347131234,0.03881502967767227]","[-1,-1,-1]","[0.1354415371563973,0.006989967267307744]","[-1,-1,-1]","[-0.09914623908668262,0.07014544995286882]","[1,1,1]","[-0.17291799461726395,-0.0844338283739716]","[-1,-1,-1]","[0.08647653422516965,0.10514256017088565]","[-1,-1,-1]","[-0.03683486823676521,-0.1464863870141017]","[1,1,1]","[0.01389878450331857,-0.14200650375845827]","[-1,-1,-1]","[0.03219905435079917,0.14039284824374643]","[-1,-1,-1]","[-0.035081407241827574,-0.10224175521331295]","[-1,-1,-1]","[0.15032145774222802,0.11484002166483044]","[-1,-1,-1]","[-0.1127964600104766,-0.11500169296101607]","[-1,-1,-1]","[-0.08866452506909688,0.15549504203089276]","[-1,-1,-1]","[0.17765648385732846,0.05431035537639031]","[-1,-1,-1]","[-0.08854477131189074,-0.02409248236843114]","[-1,-1,-1]","[-0.10637769183179839,0.11532213281842979]","[1,1,1]","[0.05989051960033793,-0.11022812814814206]","[-1,-1,-1]","[-0.03585833609536114,0.09501169971926939]","[-1,-1,-1]","[0.0824633325036629,-0.029373121620029325]","[-1,-1,-1]","[-0.11151841618252681,0.03150095006248891]","[-1,-1,-1]","[0.11478298844850542,-0.15300777890051057]","[-1,-1,-1]","[0.05402744395205611,0.05028713747236577]","[-1,-1,-1]","[0.04168898564724434,-0.058831632207028084]","[-1,-1,-1]","[0.10717028177252033,-0.09073540203724889]","[-1,-1,-1]","[0.008556448674774023,0.031239259735504857]","[-1,-1,-1]","[0.02,0.02]",271.6824,0,8,8,8,1,,,,,,,
,,,,,,,664f478709517d692052ab29,682dc96e6ced0632a7bae6f6,2025-05-21_14h40.53.020,cuing_paradigm_dot,2024.1.5,Win32,59.52380952,682d556593cb38ad0a074487,,,,,,,,,,,271.683,272.1821,,,272.4328,272.7495,right,,,,,,,,0.9,0.3012,,,,,,,272.1822,272.4327,272.7496,"[-0.11313723945193495,0.16428614788816906]","[1,1,1]","[-0.05698360801214341,0.06539231737571297]","[-1,-1,-1]","[0.17107955457610496,-0.07790836688862976]","[-1,-1,-1]","[-0.029305661910698572,0.026391251105914663]","[1,1,1]","[0.07680928355089285,0.1341792842676099]","[1,1,1]","[0.026822106369095267,0.09857467300820495]","[1,1,1]","[-0.08726028898595507,-0.11026528920826086]","[1,1,1]","[-0.00633786566891019,-0.14265210555296706]","[1,1,1]","[-0.13260648376812445,-0.08394606995197848]","[1,1,1]","[0.14991984480181997,-0.1194820949896182]","[1,1,1]","[-0.09587995543670962,-0.16490273870365338]","[1,1,1]","[0.08486753405680542,0.08994012747413978]","[1,1,1]","[0.15446130233100755,0.12127059979515277]","[1,1,1]","[0.060607963853039494,-0.031208738246695643]","[1,1,1]","[0.06912777814463393,-0.13068256166704253]","[1,1,1]","[0.10308841336375703,-0.10015459242755932]","[1,1,1]","[-0.17396826468592333,0.004436146823121686]","[1,1,1]","[0.00012568639807261436,0.1415010825148483]","[1,1,1]","[-0.011028208280231804,-0.010455809192632263]","[1,1,1]","[0.021278493796196472,-0.04580743825511491]","[1,1,1]","[-0.08259143673881562,0.0963886439709807]","[1,1,1]","[0.12524704411306795,-0.011042478727046941]","[1,1,1]","[-0.016150778045631458,0.09676591036647998]","[1,1,1]","[0.05941142073838866,0.01247635217218485]","[1,1,1]","[-0.18922701988557847,-0.05254298979944785]","[1,1,1]","[0.03668490565389507,-0.09611261046810639]","[1,1,1]","[-0.04649054902432316,0.17063646015924863]","[1,1,1]","[-0.14189470752877362,0.07162788535493277]","[-1,-1,-1]","[0.0956210679014252,-0.060360412425510955]","[1,1,1]","[0.18846415624937352,0.04466175403828768]","[1,1,1]","[-0.18255486760578699,0.05531139235160716]","[1,1,1]","[-0.07803805925046436,0.14352373478028396]","[1,1,1]","[0.02,0.02]",273.8493,0,9,9,203,1,,,,,,,
,,,,,,,664f478709517d692052ab29,682dc96e6ced0632a7bae6f6,2025-05-21_14h40.53.020,cuing_paradigm_dot,2024.1.5,Win32,59.52380952,682d556593cb38ad0a074487,,,,,,,,,,,273.8497,274.3493,,,274.5997,275.7158,right,,,,,,,,0.45,1.1009,,,,,,,274.3493,274.5996,275.7159,"[0.13488174677011594,-0.030825754883288627]","[1,1,1]","[-0.09372808893498201,0.0989717898971346]","[1,1,1]","[-0.11436693380046938,-0.11805286728244446]","[-1,-1,-1]","[-0.09090071979088904,-0.014900969727812479]","[-1,-1,-1]","[-0.12495348190969534,0.1251824174417987]","[-1,-1,-1]","[-0.006090085434512044,0.1338949230989988]","[-1,-1,-1]","[0.07720420426049304,0.18311805473301748]","[-1,-1,-1]","[-0.03959588989691497,0.07093905707295362]","[-1,-1,-1]","[-0.15845283165575044,-0.05717902206841377]","[1,1,1]","[0.017041528024874086,-0.11929581820423302]","[1,1,1]","[0.17984492897927115,0.05528564586598534]","[-1,-1,-1]","[0.12470379919727502,0.010860849457543233]","[-1,-1,-1]","[0.1473364736518482,-0.1012177814353441]","[1,1,1]","[0.12277667527241329,0.059865459523047]","[1,1,1]","[-0.04363397235429329,0.19262874262995588]","[1,1,1]","[0.17124577290141427,-0.0644646844533735]","[-1,-1,-1]","[0.11465480166868872,-0.06575026562563414]","[-1,-1,-1]","[-0.04201782551283754,-0.0319261929951167]","[-1,-1,-1]","[0.03206869788215123,-0.19531634566236902]","[-1,-1,-1]","[0.0808394806113198,-0.02238647851494504]","[1,1,1]","[0.060552210512826,-0.14505023017149027]","[-1,-1,-1]","[0.07295236894635711,0.04895121733960511]","[-1,-1,-1]","[-0.16082863439976605,0.08095631469923105]","[1,1,1]","[-0.0450973749202606,-0.12891344588335146]","[1,1,1]","[0.06514397521357362,0.10115282935699275]","[1,1,1]","[-0.05160535295896086,0.1287921331990228]","[-1,-1,-1]","[-0.0031287990427538628,-0.058386398560771706]","[-1,-1,-1]","[0.13337344563449377,0.13443709427231396]","[-1,-1,-1]","[-0.09353257033414315,0.03297446766483856]","[-1,-1,-1]","[-0.07694070849159121,-0.18292966698325666]","[1,1,1]","[-0.04066766847429243,0.011385951792614403]","[1,1,1]","[-0.16972479654305422,-0.096921875884018]","[1,1,1]","[0.02,0.02]",276.816,0,10,10,65,1,,,,,,,
,,,,,,,664f478709517d692052ab29,682dc96e6ced0632a7bae6f6,2025-05-21_14h40.53.020,cuing_paradigm_dot,2024.1.5,Win32,59.52380952,682d556593cb38ad0a074487,,,,,,,,,,,276.8166,277.316,,,277.5665,278.5492,right,,,,,,,,0.4,0.9671,,,,,,,277.316,277.5664,278.5493,"[0.06702016455466961,0.13625976652960264]","[1,1,1]","[0.00832469147994224,0.062348230685582866]","[1,1,1]","[-0.01347442711159296,-0.04201263671182319]","[-1,-1,-1]","[0.08597413093763549,0.015968054976301407]","[-1,-1,-1]","[0.16542890453801803,-0.04121382309703651]","[-1,-1,-1]","[0.14685696271533696,0.09310345933457312]","[-1,-1,-1]","[0.03450004888603423,-0.07243934246883633]","[-1,-1,-1]","[-0.03371134113876091,0.05229475199049809]","[-1,-1,-1]","[0.1040500607223317,-0.05779326945341112]","[-1,-1,-1]","[-0.13052513104464447,-0.05453020475334999]","[1,1,1]","[0.07297561892690606,-0.09986521528947692]","[-1,-1,-1]","[-0.08592489135396944,0.03688926113178627]","[-1,-1,-1]","[-0.04857274172267056,-0.06368509223899264]","[1,1,1]","[-0.0724761682924539,-0.13523709135611506]","[-1,-1,-1]","[-0.16532999778527874,-0.00008699616112365107]","[1,1,1]","[-0.08622242858337648,-0.018769051373256584]","[1,1,1]","[-0.013383843913204758,-0.16727698083165632]","[1,1,1]","[-0.03558740326429615,0.19128329890786724]","[-1,-1,-1]","[-0.14280673819811424,0.0607961676957678]","[1,1,1]","[0.026464256756971803,-0.1546094307957572]","[1,1,1]","[0.023807601606807536,-0.003930952657106997]","[-1,-1,-1]","[-0.10166653955894282,0.11427226408493789]","[-1,-1,-1]","[-0.10408175377042767,-0.10973999562560047]","[1,1,1]","[0.14278470043606362,-0.12243713959457309]","[-1,-1,-1]","[-0.015230060215941737,-0.12141351523340042]","[1,1,1]","[0.013385682975535374,0.1464432298591279]","[-1,-1,-1]","[0.1342482964112347,0.04843875850423935]","[-1,-1,-1]","[0.09937541437597393,0.16528194800053964]","[-1,-1,-1]","[-0.054740083813016864,0.14086062387136924]","[1,1,1]","[0.19349914287233244,0.038112994058420786]","[1,1,1]","[0.0767776982061242,-0.16589270236650164]","[-1,-1,-1]","[0.049962832064687414,0.05660379224078842]","[-1,-1,-1]","[0.02,0.02]",279.6491,0,11,11,36,1,,,,,,,
,,,,,,,664f478709517d692052ab29,682dc96e6ced0632a7bae6f6,2025-05-21_14h40.53.020,cuing_paradigm_dot,2024.1.5,Win32,59.52380952,682d556593cb38ad0a074487,,,,,,,,,,,279.6496,280.1491,,,280.3996,281.2827,right,,,,,,,,0.6,0.8672,,,,,,,280.1491,280.3996,281.2827,"[-0.05195166212523659,0.14453049904102747]","[1,1,1]","[-0.08729183491123936,-0.06610939142721747]","[1,1,1]","[0.17423027040176425,0.02515925328712998]","[1,1,1]","[-0.026705894863519146,-0.007586416040569695]","[1,1,1]","[0.020072341732215608,0.09093382127652581]","[1,1,1]","[0.12496715292067934,-0.07509391188397933]","[-1,-1,-1]","[-0.1101423466949461,-0.14635283886145153]","[1,1,1]","[0.12163944789878466,0.05355990586258025]","[1,1,1]","[-0.047159506528116533,-0.09864554585775366]","[1,1,1]","[0.11150717917047101,0.09637281297922223]","[-1,-1,-1]","[0.07423924717664931,-0.06987544677852742]","[-1,-1,-1]","[0.11488033797123955,0.1575271769630536]","[1,1,1]","[0.14790706814594218,-0.03867387923181268]","[-1,-1,-1]","[0.07293058728289241,0.11176923273788039]","[-1,-1,-1]","[0.0769431460065193,-0.1393768273324644]","[1,1,1]","[0.07580532015030278,-0.1796105268507339]","[1,1,1]","[0.07724054646214268,0.020108862238795065]","[-1,-1,-1]","[-0.15873810870155333,-0.05540964398084391]","[1,1,1]","[-0.1405793184368101,0.023794251676602946]","[1,1,1]","[-0.09697845340297909,0.03128272164034472]","[1,1,1]","[-0.04516645225793384,0.19112626236509048]","[1,1,1]","[0.030190575674995185,0.15297108654544997]","[-1,-1,-1]","[-0.1668433576787303,0.07490571868904781]","[1,1,1]","[-0.0807417478720019,-0.02411169192216061]","[1,1,1]","[0.12370878647402411,-0.1376673910936662]","[-1,-1,-1]","[0.07381365767445847,0.07165627473721796]","[-1,-1,-1]","[0.19626212777610128,-0.01927760975738691]","[-1,-1,-1]","[-0.041054746947221325,-0.174917216500602]","[-1,-1,-1]","[-0.1568572836412632,-0.11405061619474026]","[-1,-1,-1]","[-0.02384447973832169,-0.13351513443031202]","[1,1,1]","[0.028485094868140104,-0.07063413677477198]","[1,1,1]","[-0.17143540848416258,-0.010198488591191199]","[-1,-1,-1]","[0.02,0.02]",282.3824,0,12,12,163,1,,,,,,,
,,,,,,,664f478709517d692052ab29,682dc96e6ced0632a7bae6f6,2025-05-21_14h40.53.020,cuing_paradigm_dot,2024.1.5,Win32,59.52380952,682d556593cb38ad0a074487,,,,,,,,,,,282.3827,282.8824,,,283.133,284.5992,left,,,,,,,,0.55,1.4504,,,,,,,282.8825,283.133,284.5992,"[0.1995390425940818,-0.0014094287429584555]","[1,1,1]","[-0.09658642415087138,0.13123893146866297]","[1,1,1]","[-0.10242632452581692,-0.03571827918095923]","[1,1,1]","[-0.17272357166660912,-0.047133222449439884]","[-1,-1,-1]","[0.00275233185730384,-0.16181193024504886]","[-1,-1,-1]","[0.08428862633874024,0.022459503731163042]","[1,1,1]","[-0.14856869171645395,0.07686489985778873]","[-1,-1,-1]","[0.07329104153367798,-0.11161846492262255]","[1,1,1]","[0.041522003053935726,0.07029206747759988]","[1,1,1]","[-0.11738594854900271,0.0366763167366957]","[1,1,1]","[0.020518042695857774,-0.12145621763743542]","[-1,-1,-1]","[0.15696097992222308,-0.038659372944061944]","[-1,-1,-1]","[0.16409093123914636,0.025289789835560742]","[-1,-1,-1]","[0.1135021837185695,0.12562740060944375]","[1,1,1]","[0.01758707220786613,0.19135910376124718]","[1,1,1]","[-0.09505365616669535,0.09076975037407878]","[-1,-1,-1]","[-0.04822582004418103,-0.1398579789300453]","[1,1,1]","[-0.030919107073914404,0.005719079538802689]","[-1,-1,-1]","[0.10179432336994078,0.07287071681837612]","[1,1,1]","[-0.002676672680914753,0.09485530792498491]","[1,1,1]","[0.1118176333690392,-0.04402773265883497]","[1,1,1]","[-0.10708737728310518,-0.1082247954163209]","[-1,-1,-1]","[-0.1417819859734463,0.11976071624894746]","[-1,-1,-1]","[-0.045622714725469936,-0.04224794444016188]","[1,1,1]","[-0.05900792937792772,-0.08284420913272544]","[-1,-1,-1]","[-0.03622691515020844,0.05998802599713136]","[1,1,1]","[0.01953117053531714,0.028300518325286465]","[1,1,1]","[0.04382648325129207,0.1477310307183415]","[1,1,1]","[-0.016193455708063093,-0.09502982489558548]","[-1,-1,-1]","[0.08491827894132487,0.16083132208520098]","[1,1,1]","[0.16395767506154355,-0.09738615569046881]","[-1,-1,-1]","[0.033346619496329194,-0.020348403733008513]","[-1,-1,-1]","[0.02,0.02]",285.6992,0,13,13,142,1,,,,,,,
,,,,,,,664f478709517d692052ab29,682dc96e6ced0632a7bae6f6,2025-05-21_14h40.53.020,cuing_paradigm_dot,2024.1.5,Win32,59.52380952,682d556593cb38ad0a074487,,,,,,,,,,,285.6996,286.199,,,286.4495,287.0992,right,,,,,,,,0.55,0.6348,,,,,,,286.199,286.4495,287.0993,"[-0.09200119524618901,-0.04874003749559035]","[-1,-1,-1]","[0.10231426365986593,0.010458599918001008]","[1,1,1]","[-0.13986083283740525,0.06355523087447826]","[-1,-1,-1]","[0.19355030451027372,-0.009390464019760255]","[-1,-1,-1]","[0.1525459575137077,-0.10749657083465514]","[1,1,1]","[-0.1453999041643949,0.10454607176551169]","[-1,-1,-1]","[0.08975259466213781,0.06779905786925347]","[1,1,1]","[-0.04281106321975456,0.08327439178937592]","[-1,-1,-1]","[-0.060071777966931604,-0.08261877497633127]","[-1,-1,-1]","[0.01088462354675657,-0.09932161161207058]","[-1,-1,-1]","[0.02356106580936988,0.03699928832625406]","[1,1,1]","[0.012367011311742282,-0.14612014853141425]","[-1,-1,-1]","[0.11524788733624264,0.10370283817411176]","[1,1,1]","[0.011683074781721607,-0.050718846278046244]","[1,1,1]","[-0.08792530778716352,0.010344769466041296]","[1,1,1]","[0.14624659592406994,-0.06526882057236945]","[1,1,1]","[-0.107738964492087,0.08765333430050619]","[-1,-1,-1]","[-0.18846720832149036,-0.02696377546351638]","[1,1,1]","[-0.03566048610268395,-0.17436446282465215]","[-1,-1,-1]","[-0.15793968489464724,-0.05929310263286573]","[-1,-1,-1]","[0.04922877698326041,-0.1632843905463829]","[-1,-1,-1]","[0.1425976174026735,0.027690648192970565]","[1,1,1]","[-0.08717832815434501,-0.17569557879862477]","[-1,-1,-1]","[0.017490666416470985,0.09914064030591875]","[1,1,1]","[-0.004035708216054456,0.17869350229299855]","[1,1,1]","[-0.07549572194648413,-0.12025082449725513]","[1,1,1]","[-0.0742268571663698,0.15827074982523212]","[1,1,1]","[0.12124847660086042,0.14851566665863575]","[-1,-1,-1]","[-0.04739098450726436,0.005333790193138625]","[1,1,1]","[0.10410310476528506,-0.050634577942841284]","[1,1,1]","[-0.13136643781590096,-0.0015899903581267417]","[1,1,1]","[0.06905804759488322,-0.10588087742566309]","[1,1,1]","[0.02,0.02]",288.199,0,14,14,143,1,,,,,,,
,,,,,,,664f478709517d692052ab29,682dc96e6ced0632a7bae6f6,2025-05-21_14h40.53.020,cuing_paradigm_dot,2024.1.5,Win32,59.52380952,682d556593cb38ad0a074487,,,,,,,,,,,288.1992,288.6986,,,288.9487,289.6492,left,,,,,,,,0.45,0.6855,,,,,,,288.6987,288.9487,289.6492,"[0.008245759625586851,-0.13514572188492419]","[1,1,1]","[-0.045767324280199397,-0.010374386381875874]","[1,1,1]","[0.09876902121870282,-0.07694674538898412]","[-1,-1,-1]","[-0.12595904190682994,-0.016777928421979376]","[1,1,1]","[0.1338078464008305,-0.047005547812089536]","[1,1,1]","[-0.1530243721925311,0.06365253515190397]","[-1,-1,-1]","[-0.06179984709305033,-0.10224203375327856]","[1,1,1]","[0.03958937229099189,0.0020197139432479184]","[-1,-1,-1]","[-0.012812917041881235,0.07853788012779407]","[-1,-1,-1]","[-0.1659275185496292,-0.09661496319342427]","[1,1,1]","[-0.1264755925385409,0.1515464279647503]","[-1,-1,-1]","[0.08582686485091127,-0.13823623644422955]","[1,1,1]","[0.01551093353141595,0.1550432124428873]","[-1,-1,-1]","[-0.027199922716611553,0.12166971286129592]","[1,1,1]","[0.15006196552108453,0.07998481385297786]","[1,1,1]","[0.01233178087574382,-0.05537761865941813]","[-1,-1,-1]","[0.1713228996271653,0.03127675697616757]","[-1,-1,-1]","[0.05887768245824007,0.07226288383544469]","[1,1,1]","[-0.05764755349968788,-0.052358047969164066]","[-1,-1,-1]","[-0.03800583937204268,-0.17025609680130302]","[-1,-1,-1]","[0.07428408948387147,0.11167503674270067]","[1,1,1]","[0.09752259899765904,-0.019588903091033883]","[-1,-1,-1]","[-0.03156199034830608,0.18313390862840662]","[1,1,1]","[0.11738181137072645,0.1213682048224722]","[-1,-1,-1]","[-0.09972053290179667,0.08035934729759879]","[-1,-1,-1]","[-0.07953981067796871,0.13242987374213358]","[1,1,1]","[0.0254170653279766,-0.09322434197820985]","[-1,-1,-1]","[-0.08885033650836859,0.17544462887232437]","[-1,-1,-1]","[0.08325162048745408,0.1659535238847292]","[-1,-1,-1]","[-0.01206524018137703,0.028568700669129855]","[-1,-1,-1]","[0.1270065105041994,0.03464524676531083]","[1,1,1]","[-0.13235526810864354,0.10398626132907277]","[-1,-1,-1]","[0.02,0.02]",290.7491,0,15,15,88,1,,,,,,,
,,,,,,,664f478709517d692052ab29,682dc96e6ced0632a7bae6f6,2025-05-21_14h40.53.020,cuing_paradigm_dot,2024.1.5,Win32,59.52380952,682d556593cb38ad0a074487,,,,,,,,,,,290.7498,291.2492,,,291.4998,292.2822,left,,,,,,,,0.45,0.7697,,,,,,,291.2492,291.4997,292.2823,"[-0.04526512322035211,-0.1046306340419348]","[1,1,1]","[-0.0806464091266858,0.1605322823265297]","[1,1,1]","[0.06281784785357683,-0.1375866992280176]","[1,1,1]","[0.15879998526432323,-0.06652545341602116]","[-1,-1,-1]","[0.10280695201983704,0.12845328562714467]","[-1,-1,-1]","[0.04816942292296376,0.11670406391089594]","[-1,-1,-1]","[-0.05109456833638813,-0.046805857305005506]","[1,1,1]","[0.022936055622464393,-0.18060947229330507]","[-1,-1,-1]","[-0.1849804048414947,-0.04606046106269096]","[-1,-1,-1]","[-0.02283871993950927,0.04984184541337536]","[-1,-1,-1]","[-0.022932545363302047,-0.16750827409242983]","[1,1,1]","[0.053024553636353854,-0.026875118770675794]","[1,1,1]","[0.15583377590048372,0.09693585632732558]","[1,1,1]","[-0.02212823327794409,0.16122407355579113]","[-1,-1,-1]","[-0.10014575618542207,0.03636399301634124]","[1,1,1]","[0.06613265833847701,0.18210966673448972]","[1,1,1]","[-0.14295902600338758,-0.08622489827507318]","[-1,-1,-1]","[0.02079501634586499,-0.09090323956697681]","[-1,-1,-1]","[-0.15528540271671284,0.061651292431322856]","[-1,-1,-1]","[0.010315314198670147,-0.02383144169825525]","[-1,-1,-1]","[0.08545415310604598,-0.0014376958323714987]","[-1,-1,-1]","[0.07814772266881859,-0.06868390099819319]","[-1,-1,-1]","[-0.09005196505815996,-0.008513090029946635]","[-1,-1,-1]","[-0.09409298713946991,-0.11487383410653233]","[1,1,1]","[-0.07583341602325289,0.10135699435814402]","[-1,-1,-1]","[-0.14195944085886264,0.1304654578326336]","[-1,-1,-1]","[-0.013722706760081487,-0.0661137520685029]","[-1,-1,-1]","[0.14172410239809669,-0.003900250739673685]","[1,1,1]","[0.12044269951768209,-0.08802545434191729]","[-1,-1,-1]","[-0.033119614286051806,0.003184499318814179]","[1,1,1]","[-0.035980663903636606,0.09690911893047538]","[1,1,1]","[-0.06713289154895881,-0.15175946999305523]","[1,1,1]","[0.02,0.02]",293.3824,0,16,16,69,1,,,,,,,
,,,,,,,664f478709517d692052ab29,682dc96e6ced0632a7bae6f6,2025-05-21_14h40.53.020,cuing_paradigm_dot,2024.1.5,Win32,59.52380952,682d556593cb38ad0a074487,,,,,,,,,,,293.3829,293.8824,,,294.1329,295.2493,right,,,,,,,,0.6,1.1008,,,,,,,293.8824,294.1328,295.2494,"[0.18390858454428488,0.018110352355559533]","[-1,-1,-1]","[0.034602076584095066,0.10205542540016022]","[1,1,1]","[-0.10733967293298176,-0.022593724962455635]","[1,1,1]","[-0.04130732665899584,-0.1802670902185268]","[1,1,1]","[0.041784671652605285,-0.04291208220190858]","[-1,-1,-1]","[0.04699687139662039,0.19204123286027178]","[-1,-1,-1]","[-0.06863048257527507,0.11447191587189945]","[1,1,1]","[-0.017688586969573417,0.1579803883962815]","[-1,-1,-1]","[0.06316071307833833,-0.08737729702120371]","[1,1,1]","[0.1067502527673152,0.15375054951673944]","[-1,-1,-1]","[0.13111145264102728,0.0822481729998649]","[1,1,1]","[0.016063604805186853,0.03430094391943718]","[1,1,1]","[-0.1257523411233767,0.052113463103759375]","[1,1,1]","[-0.04423041509993027,-0.0132049204866522]","[1,1,1]","[0.015305366364178037,-0.09157568769822658]","[-1,-1,-1]","[-0.1898095300369785,-0.02692512853629772]","[-1,-1,-1]","[-0.0945296391273304,0.16788279949658866]","[-1,-1,-1]","[0.12276441203939725,0.03960359038228248]","[1,1,1]","[-0.08086801134232639,-0.07218517559933503]","[1,1,1]","[-0.03026910741870917,-0.050742626986415185]","[1,1,1]","[0.04206134527650734,-0.12357868382426551]","[-1,-1,-1]","[-0.08566510258662752,-0.12281175341769401]","[1,1,1]","[0.07215264107778177,-0.17694595747707673]","[-1,-1,-1]","[-0.08117321981571256,0.0736133690667754]","[-1,-1,-1]","[0.0811673027096723,0.023718819414473586]","[1,1,1]","[0.17103829736079454,-0.10134574996773983]","[1,1,1]","[0.11397387000938985,-0.04814806567665594]","[1,1,1]","[-0.05439040161736115,0.02659470546279189]","[-1,-1,-1]","[-0.028979167706124055,0.07002502873726593]","[1,1,1]","[0.16044682854768583,-0.03177533555158588]","[1,1,1]","[-0.15719022751935635,-0.09288885431834316]","[1,1,1]","[0.024803427121863293,-0.18091771507020057]","[-1,-1,-1]","[0.02,0.02]",296.3492,0,17,17,170,1,,,,,,,
,,,,,,,664f478709517d692052ab29,682dc96e6ced0632a7bae6f6,2025-05-21_14h40.53.020,cuing_paradigm_dot,2024.1.5,Win32,59.52380952,682d556593cb38ad0a074487,,,,,,,,,,,296.3496,296.8489,,,297.0999,298.3493,right,,,,,,,,0.5,1.2338,,,,,,,296.849,297.0998,298.3494,"[0.16995205333787117,-0.02744366196944913]","[1,1,1]","[-0.00009628684610603225,-0.1301348444399471]","[-1,-1,-1]","[-0.15674020131711983,0.09896358342070595]","[1,1,1]","[0.0050072870946042,0.1978942657338768]","[-1,-1,-1]","[0.05396259142764708,0.006669034784648171]","[-1,-1,-1]","[0.10368377809569179,-0.16558738361285782]","[1,1,1]","[0.01868243878459793,-0.18585652560851487]","[-1,-1,-1]","[0.09246970521006892,0.14774552055538223]","[-1,-1,-1]","[-0.020379942001733424,0.0774052915261394]","[1,1,1]","[-0.08773276550358848,0.14130041539104524]","[1,1,1]","[-0.13345274663951448,-0.14161898460250089]","[-1,-1,-1]","[0.0542154513026111,-0.1017565931631384]","[1,1,1]","[0.05823931626506389,-0.04935772610256144]","[-1,-1,-1]","[-0.18430566954212987,0.007826712133882033]","[1,1,1]","[-0.06501889043890537,0.04663649630455876]","[1,1,1]","[0.022807490331461403,0.08089502691141894]","[-1,-1,-1]","[-0.09134248398357175,0.10087468226955551]","[1,1,1]","[-0.1742568316617706,-0.07595323583583714]","[1,1,1]","[0.14115779443573287,0.008947663566060726]","[1,1,1]","[-0.12866581356309204,-0.092930080819567]","[-1,-1,-1]","[-0.07761306941827023,-0.14545119159312925]","[-1,-1,-1]","[0.1406336110053401,0.09107847657866122]","[1,1,1]","[0.014316542508909859,0.12365844024777536]","[1,1,1]","[-0.022972236547765916,-0.0004553055143432454]","[-1,-1,-1]","[-0.05132998517555897,-0.05199541310418862]","[-1,-1,-1]","[-0.10722373696607965,0.058602745217937735]","[-1,-1,-1]","[0.08329609061490537,0.08407720087404588]","[-1,-1,-1]","[0.12218503520892596,-0.08917483491624253]","[1,1,1]","[0.10418370131420447,-0.02541058294857715]","[-1,-1,-1]","[-0.09521836335228169,-0.05655880747064033]","[1,1,1]","[-0.12494950284835266,0.010966218512102941]","[1,1,1]","[0.1771632378746753,0.06632851012498182]","[-1,-1,-1]","[0.02,0.02]",299.4491,0,18,18,102,1,,,,,,,
,,,,,,,664f478709517d692052ab29,682dc96e6ced0632a7bae6f6,2025-05-21_14h40.53.020,cuing_paradigm_dot,2024.1.5,Win32,59.52380952,682d556593cb38ad0a074487,,,,,,,,,,,299.4496,299.9492,,,300.1994,301.0994,right,,,,,,,,0.55,0.8829,,,,,,,299.9493,300.1994,301.0995,"[-0.031737892058058895,0.16733752211696232]","[1,1,1]","[-0.0013106859161878125,0.19617338061402276]","[1,1,1]","[-0.06478945926736546,-0.11730305825769992]","[1,1,1]","[-0.08841991131062285,-0.08230664217827605]","[1,1,1]","[0.02782547933691946,-0.11918140322471886]","[-1,-1,-1]","[-0.023583492167265383,0.042007512419022806]","[-1,-1,-1]","[-0.08706716018496516,0.13206575342293195]","[1,1,1]","[0.1366910803554643,-0.06862646312176467]","[-1,-1,-1]","[-0.005755179149361044,-0.08122244495510172]","[-1,-1,-1]","[0.1888577330767359,-0.022687206278730155]","[-1,-1,-1]","[0.058774737848343125,-0.04045081771685095]","[1,1,1]","[-0.1477098373944297,-0.04260762242521669]","[-1,-1,-1]","[0.030319610194034365,-0.19036131855356653]","[1,1,1]","[0.16354966200580232,0.043302056128013446]","[-1,-1,-1]","[0.07972749028455318,-0.11013382166105783]","[1,1,1]","[-0.1256760962264631,0.12026808233584434]","[1,1,1]","[-0.06515882261638543,-0.03559424833305013]","[1,1,1]","[0.09234458670669692,0.14685623924984634]","[-1,-1,-1]","[-0.13889100188221742,0.03352421348924287]","[-1,-1,-1]","[-0.08008193605567628,0.04044134875234328]","[-1,-1,-1]","[0.017234153603860262,0.0666211579681669]","[1,1,1]","[0.1245799130510893,0.0945286360940096]","[-1,-1,-1]","[-0.16393677722195263,0.07866264897015784]","[1,1,1]","[-0.10851108615665007,0.001805529128396935]","[-1,-1,-1]","[0.08186322434703869,0.05131356450782392]","[1,1,1]","[0.13412626556463572,0.007154577733303458]","[-1,-1,-1]","[0.010787090345034719,0.019136353228259996]","[1,1,1]","[-0.033107943420479284,0.11801834780793902]","[-1,-1,-1]","[-0.18605689138863493,-0.06615047812192301]","[1,1,1]","[-0.135249688827053,-0.08720445999444887]","[1,1,1]","[0.05694388315505501,0.08987014380186364]","[1,1,1]","[0.1081665633639132,-0.1547087113842434]","[1,1,1]","[0.02,0.02]",302.1988,0,19,19,129,1,,,,,,,
,,,,,,,664f478709517d692052ab29,682dc96e6ced0632a7bae6f6,2025-05-21_14h40.53.020,cuing_paradigm_dot,2024.1.5,Win32,59.52380952,682d556593cb38ad0a074487,,,,,,,,,,,302.1993,302.6993,,,302.9494,304.1159,left,,,,,,,,0.55,1.1508,,,,,,,302.6993,302.9494,304.116,"[0.14130927143239902,-0.10670746796740609]","[1,1,1]","[-0.10237360706104932,-0.13617038723420335]","[1,1,1]","[-0.06787162260936198,-0.18450975651953974]","[1,1,1]","[-0.16085374706802033,-0.036120863750429145]","[-1,-1,-1]","[0.022060558282449048,-0.12780570428085292]","[-1,-1,-1]","[-0.009044414036854947,-0.0026146323065964487]","[1,1,1]","[-0.02718177007723848,-0.08271971330192356]","[1,1,1]","[-0.03324027985330274,0.13063474126754426]","[-1,-1,-1]","[-0.16177326472423015,-0.10106814441338297]","[1,1,1]","[0.15673914512347417,0.013882151909483454]","[-1,-1,-1]","[-0.08307817526042377,0.005596694063152954]","[-1,-1,-1]","[0.013658465656324767,0.046884800444882226]","[-1,-1,-1]","[0.005345962539316773,0.10083124766209817]","[1,1,1]","[-0.16978955709525337,0.07387997484970024]","[1,1,1]","[0.04330967382279999,-0.06845069383586537]","[1,1,1]","[0.04459191429027626,-0.016245031043526578]","[-1,-1,-1]","[0.1338755241849262,0.1390043903442587]","[1,1,1]","[0.06257447003689263,-0.15652453283003934]","[1,1,1]","[0.06592936681945684,0.05929415866896053]","[-1,-1,-1]","[-0.11032851562524208,0.038425297146147]","[-1,-1,-1]","[0.14429948856034439,0.08665320490046877]","[-1,-1,-1]","[-0.10909263087639144,-0.056267731941220284]","[-1,-1,-1]","[0.09349394425031456,-0.006651948356202013]","[1,1,1]","[-0.10252971312381631,0.16089649246434992]","[-1,-1,-1]","[0.004873558204034299,0.19577774621754568]","[1,1,1]","[0.016419902140811713,-0.19239976479267304]","[-1,-1,-1]","[0.046610928307385155,0.119507566301931]","[1,1,1]","[-0.039942632279802215,0.028952940336253577]","[-1,-1,-1]","[-0.1175921150849205,0.08571565466741744]","[1,1,1]","[0.1611928714615387,-0.05544844978674408]","[1,1,1]","[-0.05139879744180637,0.07700804467437992]","[1,1,1]","[-0.02303773417920936,-0.18558602445615474]","[1,1,1]","[0.02,0.02]",305.2156,0,20,20,128,1,,,,,,,
,,,,,,,664f478709517d692052ab29,682dc96e6ced0632a7bae6f6,2025-05-21_14h40.53.020,cuing_paradigm_dot,2024.1.5,Win32,59.52380952,682d556593cb38ad0a074487,,,,,,,,,,,305.2161,305.716,,,305.9661,306.8164,left,,,,,,,,0.45,0.834,,,,,,,305.7161,305.9661,306.8165,"[0.19704623826996584,-0.02354680955660896]","[1,1,1]","[-0.13920220816373102,-0.03457063392899157]","[1,1,1]","[0.091532315617983,-0.06947831658690684]","[1,1,1]","[-0.12247061848003075,0.10328155681931137]","[-1,-1,-1]","[0.07101404185366773,0.12236167870468913]","[-1,-1,-1]","[0.04708243018405487,-0.06353731479460971]","[-1,-1,-1]","[-0.005066979375381094,0.07294564121673636]","[-1,-1,-1]","[-0.06850930595051072,0.10130705662093316]","[-1,-1,-1]","[0.19128090022485317,0.01678394925578537]","[1,1,1]","[0.018152210782446453,-0.14199684835518103]","[1,1,1]","[0.16958369596522574,0.06451678289605851]","[-1,-1,-1]","[-0.03783329459294285,-0.18332391989597116]","[1,1,1]","[-0.09414813287219456,0.15236921270084267]","[-1,-1,-1]","[-0.12227711358658361,-0.1156348383715369]","[1,1,1]","[0.14295163257793722,0.025618258227362127]","[-1,-1,-1]","[-0.06850545194747543,-0.05440218962411117]","[-1,-1,-1]","[-0.14497187612658574,0.01067851384339729]","[1,1,1]","[-0.057925334319982584,-0.13925692864132588]","[-1,-1,-1]","[0.002692539582770699,-0.05244730815078483]","[-1,-1,-1]","[-0.10215778543572078,-0.07943077465676193]","[-1,-1,-1]","[-0.18292821701993062,0.0482914069056505]","[1,1,1]","[-0.0470236403985773,0.0015921198799050157]","[-1,-1,-1]","[0.14340678055083927,-0.09642849210597221]","[-1,-1,-1]","[0.07915106969842259,0.04371103642112064]","[-1,-1,-1]","[-0.08667065325135824,0.01932432664823095]","[1,1,1]","[-0.16683628621193541,0.09072696915338929]","[1,1,1]","[-0.04537299174234967,0.06583658195796446]","[1,1,1]","[0.08773660565391346,-0.14067050584775084]","[1,1,1]","[-0.010780019681954819,0.13097450778416939]","[-1,-1,-1]","[0.03726309563658601,0.048580983555731955]","[1,1,1]","[0.11329736079398019,0.1461723551323606]","[-1,-1,-1]","[0.14690890419594613,0.09980481399312865]","[-1,-1,-1]","[0.02,0.02]",307.9159,0,21,21,66,1,,,,,,,
,,,,,,,664f478709517d692052ab29,682dc96e6ced0632a7bae6f6,2025-05-21_14h40.53.020,cuing_paradigm_dot,2024.1.5,Win32,59.52380952,682d556593cb38ad0a074487,,,,,,,,,,,307.9164,308.416,,,308.6663,309.9159,left,,,,,,,,0.55,1.2337,,,,,,,308.416,308.6663,309.916,"[-0.11748907020526458,0.11167893571788268]","[1,1,1]","[-0.14618813786882712,-0.013347622979764544]","[1,1,1]","[0.09794276004811854,-0.05118629298580644]","[1,1,1]","[-0.1846747231547946,-0.03205714862658709]","[-1,-1,-1]","[-0.1563443632308278,0.08988396217700906]","[-1,-1,-1]","[-0.11472611526575151,-0.15652505295022184]","[1,1,1]","[0.08089657655596663,0.0692609405100945]","[1,1,1]","[-0.01831341846553806,-0.1539489435992516]","[1,1,1]","[0.05843989648301512,-0.1039283122961153]","[-1,-1,-1]","[-0.04380393786660945,0.03799388124235751]","[-1,-1,-1]","[0.09951880856863084,0.12689072295297119]","[-1,-1,-1]","[-0.1033681653615851,0.1668009092811354]","[-1,-1,-1]","[0.05286891955916469,0.0016601343034240478]","[1,1,1]","[-0.08308045634724524,-0.1210564798232908]","[1,1,1]","[-0.09074284567849027,-0.0003233079551081511]","[1,1,1]","[-0.13035711278507428,-0.05401138311846478]","[1,1,1]","[0.04733209216275233,0.16268137903601007]","[-1,-1,-1]","[-0.18167588001544038,0.02264164858043292]","[-1,-1,-1]","[0.017744420119285682,-0.12150102645902171]","[-1,-1,-1]","[-0.11324020089720843,0.05730230306410064]","[1,1,1]","[0.1717090726546299,0.040355636383306526]","[1,1,1]","[-0.06453960185800042,0.15448882535476416]","[-1,-1,-1]","[-0.01717589776158023,-0.012165441904675221]","[-1,-1,-1]","[-0.008410170967599115,0.11719621540060406]","[1,1,1]","[0.06637166225845041,-0.14497041821317055]","[1,1,1]","[-0.08335243831475785,-0.07515231185256238]","[1,1,1]","[0.039696979635925805,0.08308492840569807]","[-1,-1,-1]","[-0.07010035810000412,-0.16636125946570568]","[1,1,1]","[-0.048314307438919075,0.11379907201096497]","[-1,-1,-1]","[-0.005869131313551846,-0.08538496818860604]","[1,1,1]","[0.13840308228703663,-0.07898383181342147]","[1,1,1]","[0.16224907723844717,-0.038968478628265385]","[-1,-1,-1]","[0.02,0.02]",311.0159,0,22,22,144,1,,,,,,,
,,,,,,,664f478709517d692052ab29,682dc96e6ced0632a7bae6f6,2025-05-21_14h40.53.020,cuing_paradigm_dot,2024.1.5,Win32,59.52380952,682d556593cb38ad0a074487,,,,,,,,,,,311.0165,311.5159,,,311.7664,312.4821,left,,,,,,,,0.45,0.6999,,,,,,,311.516,311.7663,312.4821,"[-0.16430135935338896,-0.024141840551671928]","[-1,-1,-1]","[0.0016755792423473119,-0.05889976851434912]","[1,1,1]","[0.0728197294346205,-0.049454449060843036]","[-1,-1,-1]","[0.03457867168126827,0.03482877177616316]","[-1,-1,-1]","[0.14813395018998848,-0.07330849703149825]","[-1,-1,-1]","[0.0024829230286043977,-0.19041688903613274]","[1,1,1]","[0.11141262511828315,0.018602849547652903]","[1,1,1]","[0.12107331847927391,-0.1349863589243024]","[1,1,1]","[0.0059833479906620845,-0.10698273114808811]","[-1,-1,-1]","[-0.025994138546636535,-0.13860498484488376]","[1,1,1]","[-0.10598488801338421,0.1191198473840464]","[1,1,1]","[0.05077714455266452,-0.15760288863985264]","[-1,-1,-1]","[-0.12081129595346593,-0.07036172943718219]","[1,1,1]","[-0.01277116571631974,-0.008888575576672957]","[-1,-1,-1]","[-0.1359785657185303,0.0496472950071844]","[-1,-1,-1]","[-0.049928372363674256,0.13435215407853693]","[-1,-1,-1]","[0.06830822108533088,0.08542194926096026]","[1,1,1]","[-0.10412400740014817,-0.14161195365908935]","[-1,-1,-1]","[-0.05416128729471411,0.18710642584333748]","[-1,-1,-1]","[-0.06932465916508924,0.0504794107062041]","[-1,-1,-1]","[0.007406974485324776,0.09605556230794958]","[-1,-1,-1]","[0.014939862077141276,0.18954208635558095]","[1,1,1]","[-0.10876787330393566,-0.026446035752699607]","[-1,-1,-1]","[-0.07645214305804217,-0.17204507222840418]","[1,1,1]","[0.13665301258275767,0.0985162744347051]","[-1,-1,-1]","[-0.1397495717045294,0.09169480536987355]","[-1,-1,-1]","[0.11663570882629028,0.14338556264430302]","[1,1,1]","[0.1908017427868119,0.026929846616030893]","[1,1,1]","[-0.06506991025897504,-0.03927278280953682]","[-1,-1,-1]","[0.07014800153393759,0.1390130438168881]","[1,1,1]","[0.07197857862030257,0.008020516383565551]","[-1,-1,-1]","[0.0573291349553653,0.17769805094661395]","[1,1,1]","[0.02,0.02]",313.5824,0,23,23,70,1,,,,,,,
,,,,,,,664f478709517d692052ab29,682dc96e6ced0632a7bae6f6,2025-05-21_14h40.53.020,cuing_paradigm_dot,2024.1.5,Win32,59.52380952,682d556593cb38ad0a074487,,,,,,,,,,,313.5826,314.0825,,,314.3328,315.0661,left,,,,,,,,0.4,0.7174,,,,,,,314.0825,314.3327,315.0661,"[0.09882736986030136,-0.1719023956585279]","[1,1,1]","[0.15374289092636048,0.0578535696727651]","[-1,-1,-1]","[-0.019670783147558272,0.06222425995807942]","[-1,-1,-1]","[-0.004002786940341112,-0.16517015085391432]","[-1,-1,-1]","[-0.038100438624201365,0.17177345954130696]","[1,1,1]","[-0.03173564228462205,-0.05527937719902258]","[1,1,1]","[-0.0974114719102224,-0.08834475811090646]","[-1,-1,-1]","[-0.010702823541505854,-0.0957902421042689]","[-1,-1,-1]","[0.037892800275360634,-0.07591965166365103]","[-1,-1,-1]","[-0.17482909370471655,0.05238521083051403]","[1,1,1]","[-0.06149266096846766,-0.17308731396617472]","[-1,-1,-1]","[0.02477251104524584,0.11345024906094693]","[-1,-1,-1]","[0.05003972222330356,0.03517707015669983]","[-1,-1,-1]","[0.09679834415765269,0.04432075673129563]","[1,1,1]","[0.07142841989548844,0.13027832132755163]","[1,1,1]","[-0.014739263670963716,0.0018467511256729126]","[-1,-1,-1]","[-0.06835236282261183,-0.03628653500026351]","[-1,-1,-1]","[-0.09622719328574901,0.07815158232970826]","[-1,-1,-1]","[-0.056154111237346774,-0.1078947271877269]","[1,1,1]","[-0.08656011815691496,0.16265305820717404]","[1,1,1]","[0.10701249310475826,0.10404749811514077]","[-1,-1,-1]","[0.06940341082290287,0.08480922443175058]","[-1,-1,-1]","[-0.14895813270708355,-0.020308403609611465]","[1,1,1]","[0.08404007538236459,-0.060405309763065546]","[-1,-1,-1]","[0.15533890018161603,-0.0021218218894738946]","[1,1,1]","[0.15725659939124156,-0.08460367566956552]","[-1,-1,-1]","[0.12936223833254076,-0.11570776551210515]","[-1,-1,-1]","[0.19564554309394983,-0.03788785360716558]","[-1,-1,-1]","[-0.12236741916146004,0.023901054250696635]","[-1,-1,-1]","[0.06325645545157567,-0.004490585058243042]","[1,1,1]","[0.08927188578054342,-0.11595246999687912]","[1,1,1]","[-0.16593902055483956,-0.08713556169603737]","[1,1,1]","[0.02,0.02]",316.1661,0,24,24,30,1,,,,,,,
,,,,,,,664f478709517d692052ab29,682dc96e6ced0632a7bae6f6,2025-05-21_14h40.53.020,cuing_paradigm_dot,2024.1.5,Win32,59.52380952,682d556593cb38ad0a074487,,,,,,,,,,,316.1665,316.6659,,,316.9159,317.5493,left,,,,,,,,0.5,0.6186,,,,,,,316.6659,316.9158,317.5494,"[0.00443239013164638,-0.08021049867586011]","[1,1,1]","[0.07861034952244211,-0.1168863368464625]","[1,1,1]","[-0.12885802446770755,0.11582880015548742]","[1,1,1]","[0.07243753946358866,-0.18205818138840674]","[1,1,1]","[-0.07720255572633425,0.11881704746265769]","[1,1,1]","[0.06058086576790338,-0.013158317485033679]","[1,1,1]","[0.024270180545100946,0.19412262205654873]","[1,1,1]","[-0.03773868667426423,-0.05479712939954338]","[1,1,1]","[-0.046944113628347627,-0.18248184835999162]","[-1,-1,-1]","[-0.17400701624763662,-0.09439999865463992]","[-1,-1,-1]","[-0.11458175547364194,0.016602114049831668]","[-1,-1,-1]","[-0.060477111358073044,0.07551457687868701]","[1,1,1]","[0.0816752295169615,0.16078558839216003]","[-1,-1,-1]","[0.11449246401241708,-0.06419511718842562]","[-1,-1,-1]","[0.009688829121727114,0.02264328627779456]","[-1,-1,-1]","[0.020569066203875375,-0.024633244738053735]","[-1,-1,-1]","[0.05127219898425783,-0.06534632034536204]","[1,1,1]","[0.11592066006642562,0.0690376044432192]","[1,1,1]","[0.1867266276089348,0.024970471753524116]","[1,1,1]","[-0.005453793012171078,-0.15867583354196801]","[-1,-1,-1]","[0.17944581039778498,-0.07695613336012945]","[-1,-1,-1]","[-0.0851839615933921,0.16925345355553703]","[-1,-1,-1]","[-0.14691227054964842,-0.12802125889819818]","[-1,-1,-1]","[-0.12995632521056755,-0.09165693137255772]","[-1,-1,-1]","[-0.17419504304283784,-0.03418276738365461]","[1,1,1]","[-0.05691651688346579,-0.014300418220088025]","[-1,-1,-1]","[-0.19388325877792692,0.011460674848564197]","[1,1,1]","[-0.013788791867117761,0.07447925004945148]","[-1,-1,-1]","[-0.14244163591882011,0.04706757858155336]","[1,1,1]","[0.023181802873728136,-0.18795619047959417]","[-1,-1,-1]","[0.027155326012504238,0.12317010081674694]","[1,1,1]","[0.11615775324771045,-0.1626096024351837]","[-1,-1,-1]","[0.02,0.02]",318.6493,0,25,25,100,1,,,,,,,
,,,,,,,664f478709517d692052ab29,682dc96e6ced0632a7bae6f6,2025-05-21_14h40.53.020,cuing_paradigm_dot,2024.1.5,Win32,59.52380952,682d556593cb38ad0a074487,,,,,,,,,,,318.65,319.1494,,,319.3992,319.8996,left,,,,,,,,0.4,0.4848,,,,,,,319.1494,319.3992,319.8997,"[0.05516813802066568,0.11018656957191654]","[1,1,1]","[0.12551647930372428,0.002206283466317011]","[1,1,1]","[-0.0426119415705841,-0.14208535944689962]","[-1,-1,-1]","[-0.10424996192872915,-0.13863696424127223]","[-1,-1,-1]","[0.12083067697473117,0.15821148382529898]","[-1,-1,-1]","[-0.1426315856025102,-0.043862047210649215]","[-1,-1,-1]","[-0.18544301656760723,-0.03788743608302746]","[-1,-1,-1]","[-0.16613013824804718,0.002173076569860917]","[1,1,1]","[-0.1611258488964665,-0.11155498414878641]","[1,1,1]","[-0.03488488840564877,0.07767933825953581]","[-1,-1,-1]","[0.11461381962165589,-0.15020496393786678]","[-1,-1,-1]","[0.168579963513436,-0.014238808823659653]","[-1,-1,-1]","[-0.07022531650164167,0.10454096710504668]","[1,1,1]","[-0.05041026456521624,-0.09672137742454193]","[-1,-1,-1]","[0.15103750543108085,-0.10036123909264187]","[1,1,1]","[0.18177457648375242,0.07210427480750102]","[-1,-1,-1]","[0.06274683673706598,0.03407478340613824]","[1,1,1]","[0.12712704302329123,0.05921114974153411]","[1,1,1]","[0.10565284301027511,-0.10821338584078734]","[1,1,1]","[-0.06073368587839125,-0.03814961171290092]","[1,1,1]","[-0.07842999244990757,0.1838990587918142]","[-1,-1,-1]","[0.007850553872033072,-0.18916976399849808]","[1,1,1]","[0.01669376490801272,-0.0016078352001013317]","[-1,-1,-1]","[0.03037808608744627,-0.09481523409669154]","[-1,-1,-1]","[0.07381235064718289,-0.16157459381044711]","[-1,-1,-1]","[0.0661493618882739,0.152914578010266]","[-1,-1,-1]","[-0.10246343556220977,-0.07615654013202688]","[1,1,1]","[0.021394195822166083,0.13627845645940834]","[-1,-1,-1]","[0.06932762882523835,-0.04170804985860383]","[-1,-1,-1]","[0.01825655630376614,-0.05542181460487282]","[1,1,1]","[-0.10405575775053154,0.06159726536738038]","[-1,-1,-1]","[0.0068660892783831105,0.056027171747024415]","[-1,-1,-1]","[0.02,0.02]",320.9991,0,26,26,42,1,,,,,,,
,,,,,,,664f478709517d692052ab29,682dc96e6ced0632a7bae6f6,2025-05-21_14h40.53.020,cuing_paradigm_dot,2024.1.5,Win32,59.52380952,682d556593cb38ad0a074487,,,,,,,,,,,320.9995,321.4991,,,321.7494,322.3325,left,,,,,,,,0.45,0.5663,,,,,,,321.4991,321.7494,322.3325,"[-0.015074607548131655,-0.1667359912332763]","[-1,-1,-1]","[-0.13353504461398397,0.14587388559973682]","[1,1,1]","[0.10581113934979058,0.16343104153830176]","[1,1,1]","[-0.1634710632457282,0.02343958694336969]","[1,1,1]","[0.15793063598912926,-0.04816799724726079]","[-1,-1,-1]","[0.050076094792589024,0.06798353013796271]","[-1,-1,-1]","[-0.0942222222502063,-0.17534290045538162]","[-1,-1,-1]","[0.11338552645160321,0.11565541884306611]","[1,1,1]","[-0.13221803614987132,-0.0972551093825379]","[-1,-1,-1]","[0.08323721561249663,-0.01777828929556141]","[1,1,1]","[-0.05953374714744276,-0.1193997124160965]","[-1,-1,-1]","[-0.09717521486529908,-0.02104991296881274]","[-1,-1,-1]","[-0.015669942726260478,-0.09761574438442325]","[1,1,1]","[0.11725266617966497,-0.06261323294759467]","[-1,-1,-1]","[-0.053187855384046315,0.12175916600209338]","[-1,-1,-1]","[-0.06037685596048627,-0.05234947242266263]","[-1,-1,-1]","[0.04074255782516156,-0.09029066433360226]","[-1,-1,-1]","[0.146534137570491,-0.10540832790294419]","[1,1,1]","[0.14176941810251487,-0.006449204990599131]","[1,1,1]","[0.06660411402194531,-0.13235256969825576]","[-1,-1,-1]","[-0.06533586749244438,0.04633507176606906]","[1,1,1]","[0.11621956393839618,-0.15572487567850885]","[1,1,1]","[-0.08998520134287578,0.09055597633933148]","[1,1,1]","[0.002239471119050237,-0.04671602396386417]","[1,1,1]","[-0.11677890805911165,0.014534656047692966]","[-1,-1,-1]","[-0.1877354685741416,-0.019131254722373186]","[-1,-1,-1]","[-0.17577517609048396,-0.08696746569467735]","[1,1,1]","[0.03005767641421384,-0.18620113537669458]","[1,1,1]","[-0.01850690249363953,0.14403915270261883]","[-1,-1,-1]","[-0.08989545170111242,0.14216185316566401]","[-1,-1,-1]","[0.03953437271123527,-0.0071875477138224385]","[-1,-1,-1]","[-0.02312556923375702,0.04890896017632773]","[-1,-1,-1]","[0.02,0.02]",323.4325,0,27,27,72,1,,,,,,,
,,,,,,,664f478709517d692052ab29,682dc96e6ced0632a7bae6f6,2025-05-21_14h40.53.020,cuing_paradigm_dot,2024.1.5,Win32,59.52380952,682d556593cb38ad0a074487,,,,,,,,,,,323.433,323.9326,,,324.1831,324.6994,right,,,,,,,,0.6,0.5007,,,,,,,323.9326,324.183,324.6994,"[-0.021079878248686002,-0.02654929740046206]","[1,1,1]","[0.12202079682098627,-0.03391305455491347]","[1,1,1]","[-0.0017605164879146069,0.11906644999135428]","[1,1,1]","[0.06426069496929415,-0.07337426029889998]","[-1,-1,-1]","[-0.059686609494847984,-0.18946805634394293]","[1,1,1]","[0.058318507580111575,-0.026066793081344367]","[1,1,1]","[-0.17711620353570381,-0.0062282387009775]","[1,1,1]","[0.10977614823592668,0.09344892602892363]","[-1,-1,-1]","[-0.13805151312752656,-0.07040710872215111]","[-1,-1,-1]","[-0.08540052686895175,0.11370060962320971]","[-1,-1,-1]","[-0.010154833773845426,0.058237991363184]","[1,1,1]","[-0.11429326540060751,-0.12311300083950745]","[-1,-1,-1]","[-0.03245779937025132,-0.1183516332157844]","[1,1,1]","[0.17707554996020147,-0.054744156174880904]","[1,1,1]","[0.024507449722471552,0.008764599262508216]","[1,1,1]","[0.07632387808270165,0.18163677623816468]","[-1,-1,-1]","[-0.06790192452643663,0.0657863947041289]","[1,1,1]","[0.16356780543631072,-0.014069695877833249]","[-1,-1,-1]","[0.01973054611492414,-0.11898282154695482]","[1,1,1]","[-0.13434567535122877,0.08928240295075202]","[1,1,1]","[0.0732720994254724,-0.11546885574486161]","[1,1,1]","[-0.1169189904792602,0.15282302910823337]","[-1,-1,-1]","[-0.03457016506323098,0.1558722157711637]","[-1,-1,-1]","[0.11731342212672087,-0.1184550950499944]","[1,1,1]","[0.18526695699432744,0.05046111886149347]","[1,1,1]","[-0.1721818243302349,0.06581524831852827]","[-1,-1,-1]","[0.0950320917834441,0.019486271178335374]","[-1,-1,-1]","[-0.09707932377433776,-0.06815264239664065]","[1,1,1]","[0.007713413667629088,0.1837376886897102]","[1,1,1]","[0.0815883180368165,0.06433302312614018]","[-1,-1,-1]","[0.04749608517347983,0.13181256794739546]","[1,1,1]","[-0.046605495558300986,-0.07404601180547575]","[-1,-1,-1]","[0.02,0.02]",325.7992,0,28,28,167,1,,,,,,,
,,,,,,,664f478709517d692052ab29,682dc96e6ced0632a7bae6f6,2025-05-21_14h40.53.020,cuing_paradigm_dot,2024.1.5,Win32,59.52380952,682d556593cb38ad0a074487,,,,,,,,,,,325.7997,326.2987,,,326.5488,327.0322,left,,,,,,,,0.4,0.4689,,,,,,,326.2987,326.5487,327.0322,"[-0.1748209957059526,0.00490847004922237]","[-1,-1,-1]","[-0.02394032132894289,0.09530883647780752]","[-1,-1,-1]","[-0.12367579742785853,0.09347671205792055]","[1,1,1]","[-0.17343883202612317,-0.06921864200858795]","[-1,-1,-1]","[-0.07794809227877929,0.10126264636555249]","[-1,-1,-1]","[0.16518875254122048,0.08953044429712083]","[-1,-1,-1]","[0.004632373434309148,0.19701315011133347]","[1,1,1]","[0.08547618011038906,-0.0015768740974181265]","[1,1,1]","[0.18016345990489976,0.042320727696316576]","[1,1,1]","[0.009302494111953214,-0.007162326627017441]","[1,1,1]","[-0.04796445158154071,-0.01746484277516877]","[-1,-1,-1]","[0.011159471476042793,0.03454719818632418]","[-1,-1,-1]","[0.027171817553942414,0.10628045637295622]","[1,1,1]","[-0.029483938758988748,-0.10012866950093705]","[1,1,1]","[0.04621303346995107,-0.022998282500652167]","[-1,-1,-1]","[-0.11587953500309495,0.13719564073822557]","[-1,-1,-1]","[-0.10189644974893995,-0.05949746908253023]","[-1,-1,-1]","[-0.004436335259227961,-0.1622597748609001]","[-1,-1,-1]","[0.13395994037017186,-0.12892187452414747]","[-1,-1,-1]","[0.14238447711495883,-0.06080908256421248]","[1,1,1]","[0.04717142728446429,0.05999766272385129]","[-1,-1,-1]","[-0.148081282872197,0.05751214471282125]","[1,1,1]","[0.05354663766788375,-0.16391287325491288]","[1,1,1]","[0.0033113995109051394,-0.04686214985628277]","[-1,-1,-1]","[0.07165301168458076,-0.09433428035752493]","[1,1,1]","[0.18084788352267175,-0.07715581429988434]","[-1,-1,-1]","[0.01509371296477585,0.15717013751818643]","[1,1,1]","[-0.08318293406210756,0.03348820300758649]","[-1,-1,-1]","[-0.074803463108752,-0.09538264583062747]","[-1,-1,-1]","[0.10914088376510987,0.11335168295878453]","[-1,-1,-1]","[-0.02911176823960024,0.13799703147490744]","[1,1,1]","[-0.0603747402482828,-0.17219274886172378]","[-1,-1,-1]","[0.02,0.02]",328.1326,0,29,29,55,1,,,,,,,
,,,,,,,664f478709517d692052ab29,682dc96e6ced0632a7bae6f6,2025-05-21_14h40.53.020,cuing_paradigm_dot,2024.1.5,Win32,59.52380952,682d556593cb38ad0a074487,,,,,,,,,,,328.133,328.6328,,,328.883,329.2996,left,,,,,,,,0.1,0.4006,,,,,,,328.6328,328.8829,329.2996,"[0.15632179073998825,0.07720596665499246]","[-1,-1,-1]","[0.0067214852860965684,-0.11272932450650659]","[-1,-1,-1]","[-0.1410475378451829,-0.10764415956021185]","[-1,-1,-1]","[-0.12774714095473222,0.12891056910611545]","[-1,-1,-1]","[-0.18279290303134932,-0.04246884844678917]","[-1,-1,-1]","[0.05522862020389107,-0.1159178576997333]","[1,1,1]","[-0.17369241020688322,0.0870343003203111]","[-1,-1,-1]","[0.17643979034102367,-0.05087507833631358]","[-1,-1,-1]","[-0.02400616210746045,-0.017277698067191902]","[-1,-1,-1]","[0.1279010181883012,-0.11597076037097072]","[-1,-1,-1]","[-0.13893130446956695,0.05740013275257934]","[-1,-1,-1]","[0.045484117500259644,0.046029832661731704]","[-1,-1,-1]","[0.043375619443088424,-0.05708546566375265]","[-1,-1,-1]","[-0.013973951958321348,0.16839727906556967]","[-1,-1,-1]","[-0.003853635449157682,-0.16980051798844886]","[-1,-1,-1]","[-0.19566798183592501,0.006807081739148999]","[-1,-1,-1]","[0.09150749347707092,-0.04078471911804033]","[-1,-1,-1]","[-0.041798500746161704,0.11739743093647835]","[-1,-1,-1]","[0.0313042279435971,0.17966096877441376]","[1,1,1]","[0.07686534477527747,0.009606717586531907]","[-1,-1,-1]","[-0.046092569652616,0.06690865288143422]","[-1,-1,-1]","[-0.11088687896739671,0.02609913248038311]","[-1,-1,-1]","[-0.07556613483681335,-0.1693869146191712]","[-1,-1,-1]","[0.08173061921901109,0.0988840380620336]","[-1,-1,-1]","[-0.0896008585989417,-0.07336512296475534]","[1,1,1]","[0.005192111798297187,0.10633514579114137]","[-1,-1,-1]","[0.058827899287389226,-0.18304652883208775]","[-1,-1,-1]","[0.06404818415685577,0.15165929615506582]","[-1,-1,-1]","[-0.028279364319742355,-0.08357322086113152]","[-1,-1,-1]","[0.10678328560032409,-0.1551069833964857]","[-1,-1,-1]","[-0.08735319071365755,0.12076957594152343]","[-1,-1,-1]","[0.08969896849916748,-0.09191133406217021]","[-1,-1,-1]","[0.02,0.02]",330.3992,0,30,30,21,1,,,,,,,
,,,,,,,664f478709517d692052ab29,682dc96e6ced0632a7bae6f6,2025-05-21_14h40.53.020,cuing_paradigm_dot,2024.1.5,Win32,59.52380952,682d556593cb38ad0a074487,,,,,,,,,,,330.3997,330.8993,,,331.1492,331.6829,left,,,,,,,,0.5,0.5178,,,,,,,330.8993,331.1492,331.6829,"[-0.08627987128977078,0.001699590067496627]","[-1,-1,-1]","[-0.11121557765122592,0.0631583612409323]","[1,1,1]","[0.17276054374206387,-0.042388146922038884]","[1,1,1]","[0.06274245272881575,0.18810697471876758]","[-1,-1,-1]","[-0.02822362416295454,0.09906758686825066]","[-1,-1,-1]","[0.14411597964600315,0.13717188816647208]","[1,1,1]","[0.15965853739511007,-0.1065474358778891]","[1,1,1]","[-0.07076247667023501,-0.07155976027010752]","[-1,-1,-1]","[0.08710947998163082,-0.0074876358439397665]","[1,1,1]","[-0.05271936230985934,-0.022591635128289107]","[-1,-1,-1]","[-0.19930557026464954,0.006362039563152913]","[-1,-1,-1]","[-0.04002211348414529,-0.1299955379231903]","[1,1,1]","[0.03635622765282832,-0.09767439117954327]","[1,1,1]","[0.10899527415879302,-0.04685121231348771]","[1,1,1]","[-0.020509823398084853,-0.19808876268472292]","[-1,-1,-1]","[-0.0021800790467549555,0.15014088871736556]","[-1,-1,-1]","[-0.1442770322304776,-0.019367313985388494]","[1,1,1]","[0.048372272804126905,-0.16004719610303014]","[1,1,1]","[0.07384774679958563,-0.11312800429403051]","[-1,-1,-1]","[-0.08778113903996856,0.11432470688564145]","[-1,-1,-1]","[-0.0036163294352581166,0.02415104848843106]","[-1,-1,-1]","[-0.15624697313121008,0.10823670016650554]","[-1,-1,-1]","[0.12570531356954415,-0.1351007239719575]","[1,1,1]","[0.04555849154585401,-0.023821542722423716]","[1,1,1]","[0.10649861084917199,0.09556778845224932]","[1,1,1]","[0.05065766116090483,0.08055222056959702]","[1,1,1]","[-0.1271839221384647,0.13729974381375581]","[-1,-1,-1]","[0.14466479736026158,0.04131093755451399]","[1,1,1]","[-0.11217071967117632,-0.1218240261597601]","[-1,-1,-1]","[-0.08981470666998276,0.1723375393677567]","[-1,-1,-1]","[-0.06775547052540386,-0.18427418109452914]","[-1,-1,-1]","[-0.15057934392254713,0.0374549339041427]","[1,1,1]","[0.02,0.02]",332.7824,0,31,31,96,1,,,,,,,
,,,,,,,664f478709517d692052ab29,682dc96e6ced0632a7bae6f6,2025-05-21_14h40.53.020,cuing_paradigm_dot,2024.1.5,Win32,59.52380952,682d556593cb38ad0a074487,,,,,,,,,,,332.783,333.2825,,,333.5332,333.9994,left,,,,,,,,0.4,0.45,,,,,,,333.2825,333.5332,333.9995,"[0.0736650122781135,-0.12447362332356043]","[-1,-1,-1]","[0.08848255533422383,0.1511055604780769]","[-1,-1,-1]","[0.19569268419388894,0.013456927194780937]","[1,1,1]","[-0.041846831465889245,0.10110793084157793]","[-1,-1,-1]","[-0.021708363918696728,0.17809726260371278]","[-1,-1,-1]","[-0.04050881706350813,-0.036825889151839146]","[-1,-1,-1]","[0.0018256960893379814,0.13259821895743779]","[1,1,1]","[0.06941441718913928,0.08796905455129837]","[1,1,1]","[-0.09638012859429222,-0.08340837092824974]","[-1,-1,-1]","[-0.0864879595786193,0.09688547918174688]","[-1,-1,-1]","[-0.0289303072897809,0.011392009330773865]","[1,1,1]","[0.026790156157613647,0.16884691619456402]","[1,1,1]","[0.04616650438025676,-0.16883711645069083]","[1,1,1]","[-0.07287622701696528,-0.14913444277053597]","[1,1,1]","[0.06976916703354112,-0.07782395174412801]","[1,1,1]","[0.13985724598200674,0.09818556489099965]","[-1,-1,-1]","[0.13065115416530437,-0.09280776967950978]","[1,1,1]","[0.11848466709222126,-0.15493094755787462]","[1,1,1]","[-0.1915845963867429,0.05204529497237141]","[-1,-1,-1]","[-0.05515807961743102,0.0466723088317904]","[1,1,1]","[0.10157970573611484,-0.051892700333046896]","[-1,-1,-1]","[0.060036903888699214,0.019981853654584606]","[-1,-1,-1]","[-0.13073656213522553,-0.01412490631965507]","[-1,-1,-1]","[-0.16262570740437599,0.11132223254959618]","[-1,-1,-1]","[-0.1019276203215562,0.14275855550138794]","[-1,-1,-1]","[-0.13445917512559546,-0.14288200301534407]","[-1,-1,-1]","[0.020277946442191074,0.03106892643440654]","[-1,-1,-1]","[-0.10639715474619522,0.058893297643966766]","[-1,-1,-1]","[0.14592858026690755,0.03379701893393015]","[1,1,1]","[-0.18438296340933982,-0.059797703937905865]","[1,1,1]","[-0.0015279179621026852,-0.16421936832667813]","[-1,-1,-1]","[0.18576318205723333,-0.041127559725776336]","[-1,-1,-1]","[0.02,0.02]",335.0994,0,32,32,49,1,,,,,,,
,,,,,,,664f478709517d692052ab29,682dc96e6ced0632a7bae6f6,2025-05-21_14h40.53.020,cuing_paradigm_dot,2024.1.5,Win32,59.52380952,682d556593cb38ad0a074487,,,,,,,,,,,335.1001,335.5993,,,335.8495,336.4495,left,,,,,,,,0.45,0.5845,,,,,,,335.5994,335.8495,336.4495,"[-0.06258199227771544,0.13604970367649377]","[1,1,1]","[0.1420160472912419,0.13474197065016263]","[-1,-1,-1]","[-0.07048032907109918,0.07302941730136073]","[-1,-1,-1]","[-0.18421834997356468,-0.06590848832788489]","[-1,-1,-1]","[-0.08427273860341684,-0.039118495396504444]","[-1,-1,-1]","[0.040304684717459696,0.015374755039391183]","[-1,-1,-1]","[0.1459433783998446,-0.1253752866635609]","[-1,-1,-1]","[-0.08861251351948256,-0.12058224877872493]","[1,1,1]","[-0.16397002669845523,0.04003192296003767]","[-1,-1,-1]","[0.014206799154673341,-0.19144100814601686]","[1,1,1]","[-0.022943881812248098,0.16190186797991032]","[-1,-1,-1]","[-0.11758936584274349,0.03600432297862796]","[-1,-1,-1]","[0.07365453136893767,-0.02910159278599325]","[1,1,1]","[0.025673967940595625,0.18537264249432217]","[-1,-1,-1]","[0.13528264899014245,-0.044287869606552774]","[-1,-1,-1]","[-0.13348196081306762,-0.051173609737520054]","[1,1,1]","[0.07081848264870744,-0.12162759018683386]","[-1,-1,-1]","[0.008654612571810978,-0.10734135007677031]","[1,1,1]","[-0.061831973244209845,-0.1763679012951045]","[-1,-1,-1]","[-0.14725465644451324,0.000042543389415414746]","[-1,-1,-1]","[-0.12985492802042878,0.1452258095501465]","[1,1,1]","[0.018959719532391887,-0.02308451458040173]","[1,1,1]","[0.059737048003299396,0.1161542972003797]","[1,1,1]","[0.13140615573504652,0.004288213752502921]","[1,1,1]","[-0.1919963249341599,-0.015324191611185915]","[-1,-1,-1]","[0.1895902361880881,-0.01888372379430547]","[-1,-1,-1]","[0.14136042142729713,0.06245562451386358]","[1,1,1]","[-0.12921207690078215,-0.1263693991852567]","[1,1,1]","[-0.1602447072817265,0.1189563773875791]","[-1,-1,-1]","[0.009228768935893758,0.11242134904244609]","[-1,-1,-1]","[-0.018224228263946356,-0.1583082815333428]","[1,1,1]","[0.09088597112991781,0.14737725872713292]","[1,1,1]","[0.02,0.02]",337.5491,0,33,33,86,1,,,,,,,
,,,,,,,664f478709517d692052ab29,682dc96e6ced0632a7bae6f6,2025-05-21_14h40.53.020,cuing_paradigm_dot,2024.1.5,Win32,59.52380952,682d556593cb38ad0a074487,,,,,,,,,,,337.5496,338.0492,,,338.2995,338.6493,left,,,,,,,,0.45,0.3339,,,,,,,338.0493,338.2995,338.6494,"[-0.02726574141323655,-0.12215188866082863]","[1,1,1]","[-0.011133378605707806,0.03394767892203565]","[-1,-1,-1]","[0.1415151431949158,0.08200331400093828]","[1,1,1]","[0.006087286987837255,0.18298688086440568]","[-1,-1,-1]","[0.06687048992878579,0.002111923135647896]","[-1,-1,-1]","[0.07098369258842117,-0.14409271470246138]","[-1,-1,-1]","[0.03836357135716671,0.050280036209627094]","[-1,-1,-1]","[0.1537337252468703,-0.052868496548218236]","[-1,-1,-1]","[-0.00646971686568034,-0.16738752443791144]","[1,1,1]","[-0.16603564265762918,-0.09986391434105253]","[1,1,1]","[-0.03983307485101803,-0.03212959106659055]","[-1,-1,-1]","[-0.07846250105088513,-0.10210232895091255]","[-1,-1,-1]","[-0.1586458631632874,0.07887433433600764]","[-1,-1,-1]","[-0.06796442990317138,0.13272773660301718]","[-1,-1,-1]","[-0.09936955942219923,-0.06662893383810008]","[-1,-1,-1]","[-0.02345679311511808,-0.07868112588238553]","[1,1,1]","[0.10313608706693018,0.04987654867877061]","[-1,-1,-1]","[0.02665538747276232,0.08894143479045985]","[1,1,1]","[0.08696280563051298,0.11691254200365729]","[-1,-1,-1]","[0.10873106904263277,0.006862068536532709]","[1,1,1]","[-0.10578504631659333,0.0371071179624238]","[1,1,1]","[-0.18386160191392387,-0.04608362462410155]","[1,1,1]","[0.051003770896208674,-0.10474053242473826]","[1,1,1]","[-0.03772953860279574,0.08580512461712339]","[1,1,1]","[0.026105297407136165,-0.050454099321458036]","[-1,-1,-1]","[0.03649939493454388,0.14251454211879322]","[1,1,1]","[-0.11693625149008131,0.1228831890168145]","[-1,-1,-1]","[0.08659297630063949,-0.04757785189849606]","[-1,-1,-1]","[-0.18230901847233655,0.014380751991617983]","[-1,-1,-1]","[-0.10707579609453827,-0.02560529897618054]","[1,1,1]","[0.18639222970809308,0.0493026956535782]","[-1,-1,-1]","[-0.05291412975069622,0.009379142765725086]","[1,1,1]","[0.02,0.02]",339.7493,0,34,34,61,1,,,,,,,
,,,,,,,664f478709517d692052ab29,682dc96e6ced0632a7bae6f6,2025-05-21_14h40.53.020,cuing_paradigm_dot,2024.1.5,Win32,59.52380952,682d556593cb38ad0a074487,,,,,,,,,,,339.7497,340.2493,,,340.4996,340.9993,left,,,,,,,,0.6,0.4841,,,,,,,340.2494,340.4996,340.9993,"[0.12883768048475827,0.12536503105734595]","[-1,-1,-1]","[0.13589118563027347,0.07847336037740321]","[-1,-1,-1]","[-0.059794662470980565,0.15861376064015187]","[-1,-1,-1]","[0.004977027235574393,0.0478091506250013]","[1,1,1]","[-0.14134974778262852,0.13526394013192916]","[1,1,1]","[0.11601046800108333,-0.09375511256604757]","[-1,-1,-1]","[0.10182971424341111,-0.021427627408295763]","[-1,-1,-1]","[0.07051182951068304,0.17378130032017863]","[1,1,1]","[-0.07928855665096621,0.012000324166024165]","[1,1,1]","[-0.0046378537651995165,0.15933746252185965]","[-1,-1,-1]","[-0.05522465652259692,-0.1490563414861051]","[1,1,1]","[0.05237111525783835,0.10376775762737356]","[1,1,1]","[0.06423457293558506,-0.18571391773279183]","[1,1,1]","[0.07528744654287078,0.025880145963946947]","[1,1,1]","[-0.02588089323448465,0.12336581469936873]","[-1,-1,-1]","[-0.08395958422259557,-0.10525886261148659]","[-1,-1,-1]","[0.002201470821294701,-0.19212570104087814]","[1,1,1]","[-0.028957981289488243,0.0711964925627923]","[-1,-1,-1]","[-0.00004449489863683199,-0.06428919947484635]","[-1,-1,-1]","[-0.10371442562219872,-0.14148775812431041]","[1,1,1]","[0.05450956975557561,-0.030020582231105916]","[-1,-1,-1]","[-0.10370857545698904,0.16055581246142187]","[1,1,1]","[0.043787893862364625,-0.14322709719489674]","[1,1,1]","[-0.1709648658561892,-0.07953141174101938]","[1,1,1]","[-0.11463923609283609,-0.05944829919958838]","[1,1,1]","[-0.012260515526866637,-0.010867480767637485]","[1,1,1]","[-0.009471166034699142,-0.13211131336461648]","[-1,-1,-1]","[-0.05675689722693824,-0.02259343964418659]","[1,1,1]","[-0.03747602961773109,-0.10061468207872509]","[1,1,1]","[-0.16643420395379724,0.045442183786522324]","[1,1,1]","[0.03185991472895096,0.1932374629883093]","[-1,-1,-1]","[0.09588254760910003,-0.13510068839831188]","[1,1,1]","[0.02,0.02]",342.0993,0,35,35,158,1,,,,,,,
,,,,,,,664f478709517d692052ab29,682dc96e6ced0632a7bae6f6,2025-05-21_14h40.53.020,cuing_paradigm_dot,2024.1.5,Win32,59.52380952,682d556593cb38ad0a074487,,,,,,,,,,,342.0998,342.5991,,,342.8498,343.4827,right,,,,,,,,0.6,0.6177,,,,,,,342.5992,342.8498,343.4827,"[0.06871169930565871,0.023504825321892645]","[-1,-1,-1]","[0.17048152452390822,-0.09253015313004616]","[1,1,1]","[0.10556944462230318,0.0009613703576289661]","[-1,-1,-1]","[-0.13497260973151398,-0.1280106168483628]","[1,1,1]","[0.1349218344998185,0.0996664717170861]","[-1,-1,-1]","[0.07379549682472909,-0.03144536192503407]","[-1,-1,-1]","[-0.015265565327468145,-0.148401031537052]","[1,1,1]","[-0.040212461878316404,0.007318012023937707]","[1,1,1]","[0.0954838249404873,0.06400862292319226]","[-1,-1,-1]","[0.07121079247389864,0.1620815253897047]","[1,1,1]","[0.08970600918657341,-0.08685965020527887]","[1,1,1]","[-0.147953509713224,-0.03104196396047418]","[1,1,1]","[0.036254643977167614,-0.16820435307534587]","[-1,-1,-1]","[-0.12156612771642464,0.12416522054408494]","[-1,-1,-1]","[0.057068327189012016,0.09861995155879853]","[1,1,1]","[-0.10296965234034842,0.05793582120732383]","[-1,-1,-1]","[0.16622232736690543,-0.024155995981132633]","[-1,-1,-1]","[-0.06835680224023057,-0.05299214291856271]","[-1,-1,-1]","[0.1863424700514431,0.04591740570886894]","[1,1,1]","[-0.04440433456450424,0.14016067620660433]","[1,1,1]","[0.03462775717033676,-0.12396333059748478]","[1,1,1]","[0.006059994192998491,0.11413923770357585]","[1,1,1]","[-0.07799976182899865,0.17582496337737966]","[1,1,1]","[0.13754005141553272,-0.13803223233089748]","[1,1,1]","[-0.06360398401153503,-0.1378193235976475]","[1,1,1]","[0.02457834190335348,-0.026044148041190384]","[-1,-1,-1]","[0.04129178469794494,-0.06861753727139805]","[-1,-1,-1]","[-0.1893619468213519,0.016015645866292682]","[1,1,1]","[-0.030037020717467375,0.059793666046803945]","[1,1,1]","[-0.1604608399825885,0.09707384769276003]","[1,1,1]","[-0.008770048045981874,0.1604293669413797]","[1,1,1]","[-0.0911111700369013,-0.006932587913671645]","[-1,-1,-1]","[0.02,0.02]",344.5823,0,36,36,150,1,,,,,,,
,,,,,,,664f478709517d692052ab29,682dc96e6ced0632a7bae6f6,2025-05-21_14h40.53.020,cuing_paradigm_dot,2024.1.5,Win32,59.52380952,682d556593cb38ad0a074487,,,,,,,,,,,344.5826,345.0824,,,345.3328,345.6659,left,,,,,,,,0.1,0.318,,,,,,,345.0824,345.3328,345.6659,"[0.03081713488072518,-0.034490797937628354]","[-1,-1,-1]","[0.1760867464390836,-0.04198161391462921]","[-1,-1,-1]","[0.1331049205461658,-0.030989662577330802]","[1,1,1]","[0.04897449360821677,0.1212545162258592]","[-1,-1,-1]","[0.04844608628733528,0.0662282917502987]","[-1,-1,-1]","[0.13311372816201777,0.0740274142953064]","[-1,-1,-1]","[-0.0881706848907145,0.06056609653811798]","[-1,-1,-1]","[0.052473577556494316,-0.17482776532254465]","[-1,-1,-1]","[-0.07645595858578659,0.12699795478484213]","[-1,-1,-1]","[-0.00015149662413806517,-0.08977274718127391]","[-1,-1,-1]","[0.0067188955797324226,0.05697143779394312]","[-1,-1,-1]","[-0.13702313684117345,-0.12043282157681698]","[1,1,1]","[-0.029034331329278313,-0.04457513292321914]","[-1,-1,-1]","[0.06866350977270577,0.18389468696969646]","[-1,-1,-1]","[-0.04823769515250837,-0.13128083700242665]","[-1,-1,-1]","[0.1436871847523284,-0.08020390399518472]","[-1,-1,-1]","[-0.0024662049521191327,0.1460630244940469]","[-1,-1,-1]","[-0.16225026802871392,0.08975588759142457]","[-1,-1,-1]","[-0.13750624082043345,0.12159706019000661]","[-1,-1,-1]","[-0.016367674045215656,-0.1636766417529528]","[1,1,1]","[0.13347658197010134,0.03382027852481209]","[-1,-1,-1]","[-0.15049097531741154,0.001351562726207057]","[-1,-1,-1]","[-0.08520819619972575,-0.10043387745662466]","[-1,-1,-1]","[-0.10145064517586502,-0.010415664850201688]","[-1,-1,-1]","[0.19021998174022375,0.05982896502182038]","[-1,-1,-1]","[0.055372747846626956,-0.1255443456563235]","[-1,-1,-1]","[-0.190555175371939,0.04441003416442587]","[-1,-1,-1]","[0.05272412887533872,-0.07952506592866747]","[-1,-1,-1]","[0.10823872033737832,-0.16714875375905094]","[-1,-1,-1]","[-0.11939730996267665,-0.04760605315519251]","[-1,-1,-1]","[-0.054067635577525947,0.16759675819121714]","[-1,-1,-1]","[-0.13280744545994574,0.06085635683712691]","[-1,-1,-1]","[0.02,0.02]",346.766,0,37,37,2,1,,,,,,,
,,,,,,,664f478709517d692052ab29,682dc96e6ced0632a7bae6f6,2025-05-21_14h40.53.020,cuing_paradigm_dot,2024.1.5,Win32,59.52380952,682d556593cb38ad0a074487,,,,,,,,,,,346.7664,347.266,,,347.516,348.1989,right,,,,,,,,0.6,0.6702,,,,,,,347.2661,347.516,348.1989,"[0.1609464413972235,-0.020400353853400735]","[1,1,1]","[-0.04305322924693418,0.19360947769195688]","[1,1,1]","[-0.16308746940210445,0.09892420436578789]","[-1,-1,-1]","[0.02941011726812408,-0.13518755374726793]","[-1,-1,-1]","[-0.19637690291197657,-0.0059465304231525835]","[1,1,1]","[-0.03713498869443427,0.007364695104736612]","[1,1,1]","[0.06615676644402857,-0.1549823383358149]","[1,1,1]","[0.012130825027620737,0.18452692663838166]","[1,1,1]","[-0.023301999158883945,0.07933513977349033]","[-1,-1,-1]","[-0.08226909911139431,0.013565943829351015]","[1,1,1]","[0.16423580073225796,0.09283032043531582]","[1,1,1]","[-0.12066911763116814,0.1159162142865554]","[1,1,1]","[0.07460569527222398,0.17753209795399952]","[1,1,1]","[0.09116974545767634,-0.007557533080504387]","[1,1,1]","[-0.16016040759708555,-0.10515700664272717]","[1,1,1]","[0.06631879858606679,0.13108892913975823]","[-1,-1,-1]","[-0.07866298013257718,-0.166236186295967]","[-1,-1,-1]","[0.11310156817876613,-0.043710617944118145]","[-1,-1,-1]","[-0.07341181166626827,0.054654397386497314]","[-1,-1,-1]","[-0.05510027459005959,0.143794847720359]","[-1,-1,-1]","[0.09150180004038584,0.06206503861488871]","[1,1,1]","[0.17976699637363422,-0.08524780916234082]","[1,1,1]","[0.1544260756502257,0.034626662901491856]","[1,1,1]","[-0.08054632616750108,-0.08766973672576416]","[1,1,1]","[-0.15820143773141057,0.053976171935750585]","[1,1,1]","[0.09171503958975993,-0.09706612100072985]","[-1,-1,-1]","[0.10586164404864865,0.10105830319867873]","[1,1,1]","[-0.0314489804270931,-0.036976252106563974]","[-1,-1,-1]","[-0.02450483559651278,-0.07829290411786721]","[-1,-1,-1]","[-0.09822256314855664,-0.12942496570529943]","[1,1,1]","[-0.1394770980443856,-0.013031413353214045]","[-1,-1,-1]","[0.011269904913310631,-0.004513548744061667]","[-1,-1,-1]","[0.02,0.02]",349.2993,0,38,38,172,1,,,,,,,
,,,,,,,664f478709517d692052ab29,682dc96e6ced0632a7bae6f6,2025-05-21_14h40.53.020,cuing_paradigm_dot,2024.1.5,Win32,59.52380952,682d556593cb38ad0a074487,,,,,,,,,,,349.2998,349.7993,,,350.0496,351.4495,left,,,,,,,,0.4,1.3838,,,,,,,349.7993,350.0496,351.4495,"[0.1506642098162573,-0.018317375487016504]","[-1,-1,-1]","[-0.12040251086166562,0.1578152599639732]","[1,1,1]","[-0.0075143730062250036,0.07047364443586289]","[-1,-1,-1]","[0.028062738175494994,0.16458287853425738]","[-1,-1,-1]","[-0.07579862951638605,-0.08811902165576374]","[-1,-1,-1]","[0.013065253041673077,0.004441692544173659]","[1,1,1]","[-0.03924086066443242,-0.009284560010026002]","[1,1,1]","[0.04570834474295183,-0.06913336920829796]","[1,1,1]","[0.0267074902830165,-0.15720054809427592]","[1,1,1]","[0.14960817741296073,-0.0764415357520422]","[-1,-1,-1]","[0.13010988110901672,0.1453075594197947]","[-1,-1,-1]","[0.060436214384300406,0.029739041606248906]","[-1,-1,-1]","[-0.0660172418457218,0.04719451737727453]","[-1,-1,-1]","[0.08120581242609887,0.17504376930416016]","[-1,-1,-1]","[-0.18398234160513452,-0.005521016114302761]","[-1,-1,-1]","[-0.16918255218529313,-0.09795521158546505]","[1,1,1]","[0.10019525673704846,-0.1202142001026622]","[-1,-1,-1]","[-0.013721714837537894,-0.1216265928348545]","[-1,-1,-1]","[0.09139357306078078,0.11340848109906723]","[1,1,1]","[0.09719062649875271,0.07108902530687593]","[1,1,1]","[0.0019535729915227218,0.12672900778680288]","[1,1,1]","[0.18846463816188674,-0.06279373884958049]","[1,1,1]","[-0.07214299501234697,0.1803756514661301]","[1,1,1]","[-0.12246271951835908,0.02669137738034336]","[1,1,1]","[-0.023554349565774332,-0.06397338786074203]","[-1,-1,-1]","[-0.10196086763910304,-0.009205837877938484]","[-1,-1,-1]","[-0.08059897959002535,0.10923677194434603]","[-1,-1,-1]","[-0.14114954156327644,-0.12750728094378186]","[-1,-1,-1]","[-0.0773114819617674,-0.17183620330480417]","[-1,-1,-1]","[0.14200994935136457,0.06610632019252949]","[-1,-1,-1]","[0.09812108275046735,-0.0058101098510287864]","[-1,-1,-1]","[-0.15960453439065161,0.08960931903164886]","[1,1,1]","[0.02,0.02]",352.5494,0,39,39,47,1,,,,,,,
,,,,,,,664f478709517d692052ab29,682dc96e6ced0632a7bae6f6,2025-05-21_14h40.53.020,cuing_paradigm_dot,2024.1.5,Win32,59.52380952,682d556593cb38ad0a074487,,,,,,,,,,,352.5499,353.0493,,,353.2996,354.066,right,,,,,,,,0.5,0.7513,,,,,,,353.0494,353.2996,354.0662,"[-0.13826963331332653,0.06364830657129163]","[1,1,1]","[-0.010592670330605987,0.17160305709511553]","[-1,-1,-1]","[-0.09459758229293043,0.16147323138525801]","[-1,-1,-1]","[0.11602254769342113,0.06933294185175798]","[1,1,1]","[-0.18484970912899476,0.07216631427071213]","[-1,-1,-1]","[-0.15333805160005606,0.011376070822555363]","[1,1,1]","[-0.1338543585049386,-0.1167102757137694]","[1,1,1]","[-0.06262394020992085,0.018016992157768284]","[-1,-1,-1]","[-0.050241878064684685,-0.06499610183751195]","[1,1,1]","[0.10204674785241348,-0.11665213263849468]","[1,1,1]","[0.03324545661058044,0.05957694110286797]","[-1,-1,-1]","[0.003878025360942217,-0.13047096905970193]","[1,1,1]","[-0.10692070075718066,0.024730622694490455]","[-1,-1,-1]","[0.05483153196694302,-0.18611501382738974]","[-1,-1,-1]","[0.08030869254240953,0.10051156751157062]","[1,1,1]","[-0.00910434785222904,-0.1969587509903784]","[1,1,1]","[-0.0405638390636434,0.08413548701599587]","[-1,-1,-1]","[0.06304296122750612,0.1408141963760964]","[1,1,1]","[0.17032344462944207,-0.10091449150837602]","[1,1,1]","[0.17945388711308868,0.013913633949848311]","[-1,-1,-1]","[0.0939517322643607,-0.06488317744660785]","[1,1,1]","[-0.045553214347490115,-0.17032832381359797]","[-1,-1,-1]","[-0.05319237406596883,-0.12908961798144836]","[1,1,1]","[0.11177927652384723,0.14979012653438697]","[-1,-1,-1]","[-0.04293117779650866,0.1405600686137567]","[1,1,1]","[0.04670289563253908,-0.053533193012789713]","[-1,-1,-1]","[-0.12334747732564952,0.13160799882828775]","[-1,-1,-1]","[-0.1043316784682888,-0.032286507582026495]","[1,1,1]","[-0.01597655140027572,-0.02233950706335135]","[1,1,1]","[-0.11365757914631706,-0.07247238892223393]","[-1,-1,-1]","[-0.08023136634234998,0.10043781793540654]","[-1,-1,-1]","[0.12557677792189148,0.017746972110198548]","[-1,-1,-1]","[0.02,0.02]",355.1662,0,40,40,98,1,,,,,,,
,,,,,,,664f478709517d692052ab29,682dc96e6ced0632a7bae6f6,2025-05-21_14h40.53.020,cuing_paradigm_dot,2024.1.5,Win32,59.52380952,682d556593cb38ad0a074487,,,,,,,,,,,355.1667,355.6659,,,355.9164,356.1826,left,,,,,,,,0.4,0.2507,,,,,,,355.6659,355.9163,356.1827,"[-0.04956366866909939,-0.005797305063010481]","[-1,-1,-1]","[-0.12986110570174933,-0.114661802320023]","[1,1,1]","[0.06226043890944621,-0.06904829784483046]","[-1,-1,-1]","[0.1775784491161458,0.07830252801952747]","[1,1,1]","[0.052085204834281015,-0.181495319608931]","[1,1,1]","[-0.010264713166508083,0.19218978578245496]","[-1,-1,-1]","[-0.08998998131494466,0.07249485357091029]","[1,1,1]","[-0.002288239796298379,-0.01620387126213017]","[-1,-1,-1]","[-0.06511096856513793,0.18799064832597676]","[-1,-1,-1]","[0.10897201547247337,0.0377372128605095]","[1,1,1]","[-0.09178388525244859,-0.022752450083441296]","[1,1,1]","[-0.15847633963488844,0.05638188293425508]","[1,1,1]","[-0.1570535378669166,-0.001393595693954345]","[-1,-1,-1]","[0.16526587258127,-0.0231727972161195]","[-1,-1,-1]","[-0.028196983915484034,-0.17222690822409267]","[1,1,1]","[-0.020950045949896808,0.10048833565050036]","[-1,-1,-1]","[-0.1646752841941633,-0.08437679214995707]","[1,1,1]","[0.0530150181234191,0.04666177949160168]","[-1,-1,-1]","[-0.07733874747267361,-0.09584769796455489]","[-1,-1,-1]","[0.08897395275138166,0.14849338365362869]","[1,1,1]","[0.09597474922389156,0.10152087545386601]","[-1,-1,-1]","[-0.06154612601700907,0.04166515532885119]","[-1,-1,-1]","[0.11601086531767817,-0.11757286698709733]","[-1,-1,-1]","[0.12485937827693933,-0.06737401671769924]","[1,1,1]","[0.037844928138056885,0.11275536455452549]","[-1,-1,-1]","[-0.0008327718232206989,0.042831807806641885]","[-1,-1,-1]","[-0.11189762275483042,0.12835512178469913]","[1,1,1]","[-0.15883288730412995,0.1194924892513803]","[-1,-1,-1]","[-0.008589568123435093,-0.11075725498791494]","[-1,-1,-1]","[-0.07509804488126921,-0.1362802317304144]","[1,1,1]","[0.06251286378573088,-0.12467326101780964]","[-1,-1,-1]","[0.16805039229125998,0.027724688741328947]","[-1,-1,-1]","[0.02,0.02]",357.2826,0,41,41,58,1,,,,,,,
,,,,,,,664f478709517d692052ab29,682dc96e6ced0632a7bae6f6,2025-05-21_14h40.53.020,cuing_paradigm_dot,2024.1.5,Win32,59.52380952,682d556593cb38ad0a074487,,,,,,,,,,,357.2832,357.7826,,,358.0324,358.7159,left,,,,,,,,0.5,0.6679,,,,,,,357.7826,358.0324,358.7159,"[0.08572711981105954,-0.07306289007205118]","[1,1,1]","[-0.04410315872240886,-0.1080382981489554]","[-1,-1,-1]","[-0.17007145484360014,0.023676258907088337]","[1,1,1]","[0.08948299182884838,-0.14785208987582957]","[1,1,1]","[0.15935407608993654,0.09795217169709472]","[-1,-1,-1]","[0.11564926666341083,0.04641020318214283]","[1,1,1]","[0.030006966266149265,-0.17375477569238115]","[1,1,1]","[-0.05196822140046277,0.04177017654576395]","[-1,-1,-1]","[-0.1660282847607133,0.06832637681915844]","[1,1,1]","[0.1876333420236224,0.04352403064297425]","[1,1,1]","[0.102738265231574,0.14012923407528133]","[-1,-1,-1]","[0.01593409259300892,-0.04861198562590304]","[-1,-1,-1]","[-0.03654855578050953,0.08902206794853126]","[1,1,1]","[-0.11564976717104825,0.14884482207124863]","[1,1,1]","[-0.13246313151356376,0.10846341643891054]","[-1,-1,-1]","[-0.09049114962176827,-0.028758390493464313]","[-1,-1,-1]","[-0.14016024575416855,-0.005804633340355845]","[1,1,1]","[-0.12367878238658107,0.057009552940448426]","[1,1,1]","[-0.1478633335018194,-0.13446175373883357]","[1,1,1]","[-0.025402148369111976,0.17299232223630978]","[1,1,1]","[-0.15538687420743574,-0.06516436774585023]","[-1,-1,-1]","[-0.05214514010474085,-0.05188015963538607]","[1,1,1]","[0.11528318587978434,-0.015076126330047474]","[-1,-1,-1]","[0.006481506665635506,0.12327409367132136]","[1,1,1]","[0.14833935143749907,0.009027369605671562]","[-1,-1,-1]","[-0.035014336882816584,-0.15432914403357842]","[1,1,1]","[0.002986270901064341,0.04812036495640301]","[-1,-1,-1]","[0.07107975170680265,0.059744731639129176]","[-1,-1,-1]","[-0.09755625129847063,0.019416522095899297]","[-1,-1,-1]","[0.12462418329835165,-0.10539843123212943]","[-1,-1,-1]","[0.0553972872064514,-0.008018178638775427]","[-1,-1,-1]","[-0.08312207131176713,0.11472476583085567]","[-1,-1,-1]","[0.02,0.02]",359.816,0,42,42,101,1,,,,,,,
,,,,,,,664f478709517d692052ab29,682dc96e6ced0632a7bae6f6,2025-05-21_14h40.53.020,cuing_paradigm_dot,2024.1.5,Win32,59.52380952,682d556593cb38ad0a074487,,,,,,,,,,,359.8165,360.3159,,,360.5662,361.1161,right,,,,,,,,0.6,0.5342,,,,,,,360.3159,360.5662,361.1161,"[-0.039706227627864264,-0.16031444622403151]","[1,1,1]","[0.0500180280691269,-0.027758598349801517]","[-1,-1,-1]","[-0.09819078043974913,-0.093977087285481]","[1,1,1]","[0.05550416863695737,-0.16588599144023364]","[1,1,1]","[0.06765118621394925,-0.08478031386185832]","[1,1,1]","[0.1215632823852195,0.018491484886089336]","[1,1,1]","[-0.12408433963086665,0.09170533897854242]","[-1,-1,-1]","[-0.0667718067462108,-0.02849893885428587]","[1,1,1]","[0.011927460086681014,0.05458061220523733]","[1,1,1]","[-0.0050705134734067,0.1683267550944329]","[1,1,1]","[-0.18058175364931833,0.06790097133723516]","[1,1,1]","[-0.030980345953931173,0.10500145111816252]","[1,1,1]","[-0.13670592934185985,0.03307337848002859]","[-1,-1,-1]","[0.10936272394476718,-0.07379174697958706]","[1,1,1]","[0.09764745017629714,-0.17163942132938928]","[-1,-1,-1]","[-0.08428088910333045,0.037586512020851205]","[1,1,1]","[0.09024727812863313,0.13820875745582228]","[1,1,1]","[-0.054667033808607886,0.07063452024627512]","[-1,-1,-1]","[0.008629326581000124,-0.14267146016279122]","[-1,-1,-1]","[0.15164909996672687,0.04717328372548402]","[1,1,1]","[0.16568083315571047,-0.07739920632971235]","[-1,-1,-1]","[-0.12909870943633034,0.14298844872185718]","[-1,-1,-1]","[-0.1476627943237646,-0.07467242304059388]","[-1,-1,-1]","[-0.07818755098825868,0.12134292874393118]","[1,1,1]","[-0.0007274117673654886,-0.04029583012637731]","[-1,-1,-1]","[-0.034375664049852116,-0.1169493348720558]","[-1,-1,-1]","[0.1390949570957487,-0.025522214833853335]","[-1,-1,-1]","[0.02298304648871684,-0.19436938549708282]","[1,1,1]","[0.13468569418341797,0.13451603665665623]","[1,1,1]","[0.012966011909311312,0.0018472457374310001]","[-1,-1,-1]","[-0.1600837199109207,-0.01741672996839041]","[1,1,1]","[0.1958133245610345,0.0018032111640155345]","[1,1,1]","[0.02,0.02]",362.2159,0,43,43,171,1,,,,,,,
,,,,,,,664f478709517d692052ab29,682dc96e6ced0632a7bae6f6,2025-05-21_14h40.53.020,cuing_paradigm_dot,2024.1.5,Win32,59.52380952,682d556593cb38ad0a074487,,,,,,,,,,,362.2163,362.7161,,,362.9666,363.5656,left,,,,,,,,0.45,0.5838,,,,,,,362.7161,362.9666,363.5657,"[-0.08044249425201119,0.11754972604370305]","[-1,-1,-1]","[-0.08282931774989709,0.018732413452278128]","[1,1,1]","[0.012368895115207307,0.17870160316871225]","[1,1,1]","[-0.12093115208093515,-0.05893542078586822]","[1,1,1]","[0.10083005851294063,-0.1269505824745975]","[-1,-1,-1]","[0.014428770873803523,0.08963090427604742]","[-1,-1,-1]","[-0.13546011755627416,0.13085957049616642]","[-1,-1,-1]","[0.06004224952226608,-0.1134116340149006]","[-1,-1,-1]","[0.09676150314343515,0.13692379544318645]","[-1,-1,-1]","[-0.047323592321113085,-0.19361578881364483]","[1,1,1]","[-0.02243844056271834,-0.0327192957287688]","[-1,-1,-1]","[0.06536813934026117,-0.16978209298174482]","[1,1,1]","[-0.12589750358689927,-0.14468963149779945]","[1,1,1]","[-0.027033879832833445,0.0589632727741974]","[-1,-1,-1]","[0.07944458501868987,0.05901258893451878]","[-1,-1,-1]","[0.15554352937079352,0.0800328891282443]","[1,1,1]","[-0.16408323791249557,-0.025851232134436852]","[1,1,1]","[-0.10371758718612249,0.16275117357771388]","[1,1,1]","[0.1593278394664577,-0.04583003489999098]","[-1,-1,-1]","[-0.04325085890556259,0.17258875422720943]","[-1,-1,-1]","[-0.0034070011255368723,-0.10592020072859093]","[-1,-1,-1]","[0.10650343680030792,-0.04223978821876936]","[1,1,1]","[0.06956373707632141,0.10267070043303528]","[-1,-1,-1]","[0.04080107493129643,-0.009058872107904485]","[1,1,1]","[0.13001395369798752,0.035026782082496176]","[1,1,1]","[-0.06327841707452117,-0.01773143204045031]","[1,1,1]","[0.06859636428990916,0.18757728912253155]","[-1,-1,-1]","[-0.043060195400002485,0.0995820101134087]","[-1,-1,-1]","[-0.08403166876447589,-0.09866795328794543]","[1,1,1]","[0.1768199322504446,-0.082440664165728]","[-1,-1,-1]","[-0.09681386693701025,-0.17408518323522143]","[-1,-1,-1]","[-0.15944482993473286,-0.09765900601917436]","[-1,-1,-1]","[0.02,0.02]",364.666,0,44,44,74,1,,,,,,,
