right,left,explain.started,explain.stopped,key_resp_3.keys,key_resp_3.rt,key_resp_3.duration,participant,session,date,expName,psychopyVersion,OS,frameRate,study_id,explain_2.started,explain_2.stopped,key_resp_4.keys,key_resp_4.rt,key_resp_4.duration,explain_3.started,explain_3.stopped,key_resp_5.keys,key_resp_5.rt,key_resp_5.duration,fixation.started,fixation.stopped,practice.started,practice.stopped,response.started,response.stopped,key_resp.keys,feedback.started,feedback.stopped,trials_2.thisRepN,trials_2.thisTrialN,trials_2.thisN,trials_2.thisIndex,trials_2.ran,white_ratio,key_resp.rt,key_resp.duration,explain_4.started,explain_4.stopped,key_resp_6.keys,key_resp_6.rt,key_resp_6.duration,dotDisplay.started,dotDisplay.stopped,ITI.started,polygon_1.pos,polygon_1.color,polygon_2.pos,polygon_2.color,polygon_3.pos,polygon_3.color,polygon_4.pos,polygon_4.color,polygon_5.pos,polygon_5.color,polygon_6.pos,polygon_6.color,polygon_7.pos,polygon_7.color,polygon_8.pos,polygon_8.color,polygon_9.pos,polygon_9.color,polygon_10.pos,polygon_10.color,polygon_11.pos,polygon_11.color,polygon_12.pos,polygon_12.color,polygon_13.pos,polygon_13.color,polygon_14.pos,polygon_14.color,polygon_15.pos,polygon_15.color,polygon_16.pos,polygon_16.color,polygon_17.pos,polygon_17.color,polygon_18.pos,polygon_18.color,polygon_19.pos,polygon_19.color,polygon_20.pos,polygon_20.color,polygon_21.pos,polygon_21.color,polygon_22.pos,polygon_22.color,polygon_23.pos,polygon_23.color,polygon_24.pos,polygon_24.color,polygon_25.pos,polygon_25.color,polygon_26.pos,polygon_26.color,polygon_27.pos,polygon_27.color,polygon_28.pos,polygon_28.color,polygon_29.pos,polygon_29.color,polygon_30.pos,polygon_30.color,polygon_31.pos,polygon_31.color,polygon_32.pos,polygon_32.color,dot_size,ITI.stopped,trials.thisRepN,trials.thisTrialN,trials.thisN,trials.thisIndex,trials.ran,break_2.started,break_2.stopped,trials_3.thisRepN,trials_3.thisTrialN,trials_3.thisN,trials_3.thisIndex,trials_3.ran
subject chose black,subject chose white,0.0003,41.7528,space,26.7264,,6650e473608d3961fbf2ddf0,682f0fda2faed57870420ea1,2025-05-22_04h55.18.716,cuing_paradigm_dot,2024.1.5,Win32,29.85074627,682d573fa47f1360d1451895,,,,,,,,,,,,,,,,,,,,,,,,,,,,,,,,,,,,,,,,,,,,,,,,,,,,,,,,,,,,,,,,,,,,,,,,,,,,,,,,,,,,,,,,,,,,,,,,,,,,,,,,,,,,,,,,,
,,,,,,,6650e473608d3961fbf2ddf0,682f0fda2faed57870420ea1,2025-05-22_04h55.18.716,cuing_paradigm_dot,2024.1.5,Win32,29.85074627,682d573fa47f1360d1451895,41.7548,101.03,space,29.2564,,,,,,,,,,,,,,,,,,,,,,,,,,,,,,,,,,,,,,,,,,,,,,,,,,,,,,,,,,,,,,,,,,,,,,,,,,,,,,,,,,,,,,,,,,,,,,,,,,,,,,,,,,,,,
,,,,,,,6650e473608d3961fbf2ddf0,682f0fda2faed57870420ea1,2025-05-22_04h55.18.716,cuing_paradigm_dot,2024.1.5,Win32,29.85074627,682d573fa47f1360d1451895,,,,,,101.031,111.3434,space,7.2901,,,,,,,,,,,,,,,,,,,,,,,,,,,,,,,,,,,,,,,,,,,,,,,,,,,,,,,,,,,,,,,,,,,,,,,,,,,,,,,,,,,,,,,,,,,,,,,,,,,,,,,,
,,,,,,,6650e473608d3961fbf2ddf0,682f0fda2faed57870420ea1,2025-05-22_04h55.18.716,cuing_paradigm_dot,2024.1.5,Win32,29.85074627,682d573fa47f1360d1451895,,,,,,,,,,,111.4272,111.8593,111.8609,112.1106,112.1113,113.6087,,113.6095,114.7078,0,0,0,1,1,0.2,,,,,,,,,,,,,,,,,,,,,,,,,,,,,,,,,,,,,,,,,,,,,,,,,,,,,,,,,,,,,,,,,,,,,,,,,,,,,,,,,,,,,,,,
,,,,,,,6650e473608d3961fbf2ddf0,682f0fda2faed57870420ea1,2025-05-22_04h55.18.716,cuing_paradigm_dot,2024.1.5,Win32,29.85074627,682d573fa47f1360d1451895,,,,,,,,,,,114.7102,115.2075,115.2077,115.4459,115.446,116.4756,left,116.4761,117.5734,0,1,1,0,1,0.8,1.0044,,,,,,,,,,,,,,,,,,,,,,,,,,,,,,,,,,,,,,,,,,,,,,,,,,,,,,,,,,,,,,,,,,,,,,,,,,,,,,,,,,,,,,,
,,,,,,,6650e473608d3961fbf2ddf0,682f0fda2faed57870420ea1,2025-05-22_04h55.18.716,cuing_paradigm_dot,2024.1.5,Win32,29.85074627,682d573fa47f1360d1451895,,,,,,,,,,,,,,,,,,,,,,,,,,,,117.5751,122.1802,space,1.5859,,,,,,,,,,,,,,,,,,,,,,,,,,,,,,,,,,,,,,,,,,,,,,,,,,,,,,,,,,,,,,,,,,,,,,,,,,,,,,,,,,
,,,,,,,6650e473608d3961fbf2ddf0,682f0fda2faed57870420ea1,2025-05-22_04h55.18.716,cuing_paradigm_dot,2024.1.5,Win32,29.85074627,682d573fa47f1360d1451895,,,,,,,,,,,122.2349,122.6893,,,122.9464,123.3728,right,,,,,,,,0.55,0.4096,,,,,,,122.6912,122.9462,123.3755,"[0.011765964704629431,-0.16754670491717472]","[1,1,1]","[-0.1748794833838651,-0.06923547447853456]","[-1,-1,-1]","[-0.11071999390902966,-0.16387714415167443]","[-1,-1,-1]","[-0.12526325365437457,-0.04919788943134735]","[-1,-1,-1]","[-0.04336003113937798,0.060613187434468856]","[1,1,1]","[0.03600156813226258,-0.08200156147826743]","[1,1,1]","[-0.12782227623262515,0.028062244457166464]","[1,1,1]","[0.12918643125521584,-0.11621117915405106]","[1,1,1]","[0.03419864341261856,0.06228670672283838]","[1,1,1]","[0.18109593982808891,-0.018028684220073272]","[1,1,1]","[0.04950546067917613,0.01690584958177831]","[-1,-1,-1]","[0.11070141678859952,0.05299410152060366]","[1,1,1]","[-0.14850862102173898,0.07144206726698955]","[1,1,1]","[-0.09811571575484095,0.06078701875007516]","[1,1,1]","[-0.029848139917810625,0.14720358918385124]","[1,1,1]","[0.020829601939208468,0.1661228800878678]","[1,1,1]","[-0.05688201771050027,0.018966513641832376]","[1,1,1]","[-0.09922536106087201,0.10441905088513372]","[1,1,1]","[0.00571548481792054,0.11772144709622422]","[-1,-1,-1]","[0.058187459998469145,0.14698948247681842]","[-1,-1,-1]","[-0.09415372613970797,-0.08856933667180845]","[-1,-1,-1]","[-0.15717385415368065,-0.009267211498907265]","[-1,-1,-1]","[0.1404162764373179,0.1060707986667834]","[-1,-1,-1]","[0.08004229828741731,-0.13308392573003855]","[-1,-1,-1]","[0.09791844039028968,0.16929218057802378]","[-1,-1,-1]","[-0.0593223254095017,-0.029003082649622033]","[-1,-1,-1]","[-0.0492094844110592,-0.08155343855290478]","[1,1,1]","[0.1484693839415921,0.02777738653899068]","[-1,-1,-1]","[-0.19858238437976422,0.01265867162477701]","[1,1,1]","[-0.005640306408698747,-0.08088567708358459]","[1,1,1]","[-0.11895474674515766,0.15131024997884107]","[1,1,1]","[-0.07134563134206172,-0.12460021180557447]","[-1,-1,-1]","[0.02,0.02]",124.4732,0,0,0,123,1,,,,,,,
,,,,,,,6650e473608d3961fbf2ddf0,682f0fda2faed57870420ea1,2025-05-22_04h55.18.716,cuing_paradigm_dot,2024.1.5,Win32,29.85074627,682d573fa47f1360d1451895,,,,,,,,,,,124.4749,124.972,,,125.2267,125.9281,left,,,,,,,,0.5,0.6855,,,,,,,124.9721,125.2265,125.9283,"[0.0015090184971983372,-0.02986840387150612]","[1,1,1]","[-0.12769044277719982,0.11071240301550736]","[-1,-1,-1]","[-0.059174471749405294,0.065752771797055]","[-1,-1,-1]","[-0.11981277430856267,-0.08453808447847351]","[1,1,1]","[-0.005116524901983742,0.015781529457638038]","[1,1,1]","[-0.051393656943950386,-0.0005815954492479021]","[-1,-1,-1]","[0.06094512063093687,-0.10196946998122837]","[1,1,1]","[0.03330909587162621,0.06945668068876429]","[-1,-1,-1]","[-0.05372297476937075,-0.12747476291330948]","[1,1,1]","[-0.011678600884198496,0.0766414647618667]","[-1,-1,-1]","[0.1301772884097679,-0.06699334843922417]","[1,1,1]","[-0.1555808858842924,-0.11443707146741167]","[1,1,1]","[-0.004274808545795472,0.1336397091800797]","[1,1,1]","[0.1931664528562796,-0.033175523511860684]","[-1,-1,-1]","[0.15477094343282918,-0.12456784150416754]","[-1,-1,-1]","[0.01613000115562004,-0.08045429416457558]","[-1,-1,-1]","[0.06586083282709604,0.18557034312875284]","[1,1,1]","[-0.1514130972560946,0.02638239244126538]","[1,1,1]","[0.18480004297931105,0.04398622881262961]","[1,1,1]","[-0.05887132291686461,0.17023743927586718]","[1,1,1]","[-0.11093458221405939,-0.14231973612924562]","[-1,-1,-1]","[0.044054556965251714,0.1371768595785938]","[-1,-1,-1]","[0.1445940855349347,0.05459308503958799]","[1,1,1]","[-0.06996365649647268,-0.03745045798159869]","[-1,-1,-1]","[-0.11483646016224272,0.05801189754680479]","[-1,-1,-1]","[0.0010317093721337214,-0.12906887472981546]","[1,1,1]","[-0.09616045581329889,0.15045258094240893]","[-1,-1,-1]","[-0.16092079177312874,-0.01939545763068255]","[-1,-1,-1]","[0.10796320662193536,-0.11629180951188473]","[1,1,1]","[0.07275136388033508,0.04509170400623387]","[1,1,1]","[0.049931374004146066,-0.007912024997318396]","[-1,-1,-1]","[-0.022184257435061774,-0.09213610605526286]","[-1,-1,-1]","[0.02,0.02]",127.0217,0,1,1,103,1,,,,,,,
,,,,,,,6650e473608d3961fbf2ddf0,682f0fda2faed57870420ea1,2025-05-22_04h55.18.716,cuing_paradigm_dot,2024.1.5,Win32,29.85074627,682d573fa47f1360d1451895,,,,,,,,,,,127.023,127.5218,,,127.7745,128.5733,left,,,,,,,,0.5,0.7808,,,,,,,127.522,127.7744,128.5744,"[-0.06651928125841064,0.007512961188551086]","[1,1,1]","[0.010128765133353925,0.0812032888611616]","[1,1,1]","[-0.042148860004497905,-0.04495845167067568]","[1,1,1]","[-0.07677109057471582,0.06279999206198804]","[-1,-1,-1]","[0.1316710078464598,0.11622492588986154]","[1,1,1]","[-0.03382856267329361,-0.08629781760747988]","[-1,-1,-1]","[0.05315380129162624,0.18352226657361093]","[1,1,1]","[0.06258854831704543,0.00032301237631235727]","[1,1,1]","[-0.11831510775198388,-0.13456343042633037]","[-1,-1,-1]","[0.13022106399948843,-0.11035921011934982]","[-1,-1,-1]","[0.11915860323732194,-0.011384086113490564]","[1,1,1]","[0.11456966394661394,0.03376412771134099]","[-1,-1,-1]","[-0.037349394138938875,0.036214255957194026]","[1,1,1]","[0.03339455918677342,-0.19102148916251113]","[1,1,1]","[-0.1418349605758444,0.06574171876364752]","[1,1,1]","[-0.12533891003194736,-0.026252012593660164]","[-1,-1,-1]","[-0.05432218698410462,-0.15369539031939639]","[1,1,1]","[0.059387880402160885,0.06821910724793055]","[-1,-1,-1]","[-0.1480962561962366,-0.06083937501092255]","[-1,-1,-1]","[0.18731340687192882,-0.06369166091454757]","[-1,-1,-1]","[0.07570995348721637,-0.16981846152732982]","[-1,-1,-1]","[-0.07499087332712112,0.16343258448953366]","[-1,-1,-1]","[0.07326090000045654,-0.07981631495573568]","[-1,-1,-1]","[-0.11905750873637445,-0.09002591667117116]","[-1,-1,-1]","[-0.09126753054740326,-0.05102622512431346]","[1,1,1]","[-0.12056707313157045,0.10392766238122708]","[-1,-1,-1]","[0.13390823167969632,-0.06292745786184031]","[-1,-1,-1]","[-0.0643078853370987,0.10242679344073799]","[1,1,1]","[-0.01667210051297589,-0.18881247193618306]","[1,1,1]","[0.07195958282163681,0.11681230401653936]","[-1,-1,-1]","[0.003387823695463581,0.18853546014776948]","[1,1,1]","[0.17801489496478015,0.0735914688995672]","[1,1,1]","[0.02,0.02]",129.6712,0,2,2,112,1,,,,,,,
,,,,,,,6650e473608d3961fbf2ddf0,682f0fda2faed57870420ea1,2025-05-22_04h55.18.716,cuing_paradigm_dot,2024.1.5,Win32,29.85074627,682d573fa47f1360d1451895,,,,,,,,,,,129.6726,130.1712,,,130.4223,131.1712,left,,,,,,,,0.6,0.7362,,,,,,,130.1712,130.4222,131.1717,"[0.09663936589657593,0.06302086906669825]","[1,1,1]","[-0.1501777343979044,0.057077434002347494]","[1,1,1]","[0.08944837603732426,-0.15116269959876522]","[1,1,1]","[-0.1486386394490841,-0.0303834356421855]","[1,1,1]","[-0.13797182916148118,-0.0919815563740564]","[-1,-1,-1]","[0.18679185201552867,-0.04645547378069519]","[-1,-1,-1]","[-0.03937966181303685,0.1245708152295302]","[-1,-1,-1]","[-0.10636361504724176,-0.12265297977443103]","[1,1,1]","[0.046064426967360454,0.1571140329686606]","[1,1,1]","[0.14048519615925792,0.09751166081070406]","[1,1,1]","[0.15042711065050826,-0.09974618451305278]","[1,1,1]","[0.13310244489868323,-0.007852103797038526]","[1,1,1]","[-0.17134757046615576,0.10138784303703567]","[1,1,1]","[-0.06282034436773333,0.18964239364478636]","[-1,-1,-1]","[0.06015575974210179,0.014397597467174221]","[1,1,1]","[-0.0008864701800738965,-0.16019033877419853]","[-1,-1,-1]","[0.026663875104890974,0.05989074839074505]","[-1,-1,-1]","[-0.008688391066025678,-0.039434884921727455]","[-1,-1,-1]","[0.0984143427542554,-0.07488963775903588]","[1,1,1]","[0.09401659012483783,0.1286802416778962]","[-1,-1,-1]","[-0.1251006200248862,0.13833375514041615]","[1,1,1]","[-0.08655844862814052,0.0015204984485132325]","[1,1,1]","[-0.11462067946550354,-0.05292152725753699]","[-1,-1,-1]","[0.04546342398256023,0.11384037156719459]","[1,1,1]","[-0.034071022364976576,0.06400817013500344]","[-1,-1,-1]","[0.02884176441595471,-0.06397212619209637]","[1,1,1]","[-0.04001340845254721,-0.17691759966356757]","[1,1,1]","[-0.01837786502372214,0.0009098898376682595]","[-1,-1,-1]","[-0.06150168971115036,-0.1411664054940106]","[1,1,1]","[-0.104496303137419,0.04095081126540849]","[-1,-1,-1]","[-0.1798294868583718,0.02605814540741061]","[1,1,1]","[0.17826239029731245,0.051862920220979214]","[-1,-1,-1]","[0.02,0.02]",132.2708,0,3,3,162,1,,,,,,,
,,,,,,,6650e473608d3961fbf2ddf0,682f0fda2faed57870420ea1,2025-05-22_04h55.18.716,cuing_paradigm_dot,2024.1.5,Win32,29.85074627,682d573fa47f1360d1451895,,,,,,,,,,,132.2722,132.7708,,,133.0217,133.571,left,,,,,,,,0.55,0.5353,,,,,,,132.7709,133.0215,133.5715,"[-0.0705667992257689,0.04779443619578601]","[1,1,1]","[0.13215609587452587,0.10898448376654506]","[-1,-1,-1]","[-0.12247885032656135,0.004296676137875156]","[-1,-1,-1]","[0.028455281439811145,-0.1862587080051384]","[1,1,1]","[-0.10329822406566574,-0.11772386694963552]","[-1,-1,-1]","[0.018851169284797454,0.0004053657626432807]","[1,1,1]","[0.07784734669867231,-0.17569495100726826]","[1,1,1]","[-0.18797847011319332,0.03069028463240208]","[1,1,1]","[-0.10367238162823758,-0.06932599230068809]","[-1,-1,-1]","[0.19441686825643664,-0.03626861195301726]","[-1,-1,-1]","[0.06222399227383443,0.16324797159284943]","[-1,-1,-1]","[-0.043922910027873616,-0.0689456812597322]","[-1,-1,-1]","[0.07797584240277172,0.049631034949790924]","[1,1,1]","[0.043384228394005894,-0.03349907977616277]","[-1,-1,-1]","[-0.16055703270777383,-0.023232962797225223]","[-1,-1,-1]","[-0.1639094353718645,-0.10966128839225922]","[1,1,1]","[0.057981170157399856,0.10396992176944142]","[-1,-1,-1]","[0.13143265575661794,0.043618770871525075]","[1,1,1]","[0.0754919795786484,-0.11916733609784312]","[-1,-1,-1]","[-0.052609597022594594,-0.11615969391565055]","[1,1,1]","[-0.11720365015943511,0.1559848118279542]","[1,1,1]","[0.11173892270931297,-0.03472319346285444]","[1,1,1]","[-0.02622474150336308,0.1928221564634315]","[1,1,1]","[-0.10469408275745713,0.08892142287478956]","[1,1,1]","[-0.09570982542564449,-0.1743385117844475]","[-1,-1,-1]","[0.19817404795920626,0.021375390209725627]","[1,1,1]","[-0.07002212875406502,-0.022606479040729315]","[1,1,1]","[-0.03418535173301846,0.09804265484916894]","[1,1,1]","[0.022208944178430754,-0.0684283849890274]","[1,1,1]","[0.02833726782066252,-0.11963071045815148]","[-1,-1,-1]","[0.17311683682380602,-0.09998410447787665]","[-1,-1,-1]","[-0.004196861744172236,0.03346148507581758]","[1,1,1]","[0.02,0.02]",134.6703,0,4,4,136,1,,,,,,,
,,,,,,,6650e473608d3961fbf2ddf0,682f0fda2faed57870420ea1,2025-05-22_04h55.18.716,cuing_paradigm_dot,2024.1.5,Win32,29.85074627,682d573fa47f1360d1451895,,,,,,,,,,,134.6721,135.17,,,135.4253,136.2207,left,,,,,,,,0.45,0.7721,,,,,,,135.1701,135.4253,136.2213,"[-0.015054292846653895,-0.07529097756349372]","[1,1,1]","[0.1159099671261869,0.018525214594762546]","[-1,-1,-1]","[-0.06038504616582349,-0.1355138382168568]","[1,1,1]","[-0.09057358369746085,0.1217066845991938]","[1,1,1]","[0.0003967146422836271,0.1360888941486339]","[-1,-1,-1]","[0.17135895571762086,0.030462889470193797]","[1,1,1]","[0.1097459786732961,0.08691916872674706]","[-1,-1,-1]","[-0.07813123269701575,-0.04616151548858399]","[-1,-1,-1]","[0.056599965769878885,0.06179955482035183]","[-1,-1,-1]","[0.1214785991824337,-0.024231936549936498]","[1,1,1]","[0.027931372185969146,0.17683366341115545]","[1,1,1]","[0.06539153111613398,0.004640861734263095]","[1,1,1]","[-0.16913624040343037,0.02769641148798188]","[1,1,1]","[-0.11352354150219235,0.018177727682649147]","[-1,-1,-1]","[0.07091939823393435,-0.10391450882143059]","[1,1,1]","[0.04232135390418703,0.10637956837548998]","[-1,-1,-1]","[-0.08545533995486945,0.16763424398198612]","[-1,-1,-1]","[0.0651052043680027,0.15025541299660972]","[-1,-1,-1]","[0.18938039428202716,-0.04143904067205813]","[1,1,1]","[0.12684460458020083,0.13230804635139365]","[1,1,1]","[-0.1434831712352434,-0.04222232216486526]","[1,1,1]","[0.002999515159434519,-0.17579403976944583]","[-1,-1,-1]","[-0.12706204250930375,-0.10379483170713638]","[-1,-1,-1]","[-0.06739827583512557,0.0027922564395000743]","[-1,-1,-1]","[0.006143961622719299,0.08370894253797075]","[1,1,1]","[-0.017177778647573534,-0.006719484267127466]","[-1,-1,-1]","[0.052407154573864974,-0.15241619726047423]","[-1,-1,-1]","[-0.15565158590619665,0.09600532233901173]","[-1,-1,-1]","[0.12002002710241728,-0.13683052998457115]","[-1,-1,-1]","[-0.10779291813793285,0.06750298995228625]","[-1,-1,-1]","[0.1576061300697178,-0.10318223369958782]","[1,1,1]","[-0.03680429919239352,0.08215242787334064]","[-1,-1,-1]","[0.02,0.02]",137.3198,0,5,5,83,1,,,,,,,
,,,,,,,6650e473608d3961fbf2ddf0,682f0fda2faed57870420ea1,2025-05-22_04h55.18.716,cuing_paradigm_dot,2024.1.5,Win32,29.85074627,682d573fa47f1360d1451895,,,,,,,,,,,137.3211,137.8199,,,138.0731,138.6202,left,,,,,,,,0.6,0.5217,,,,,,,137.8199,138.073,138.6204,"[0.08312333568183704,0.1258498817383922]","[1,1,1]","[0.08018123471583116,0.07112491609826244]","[-1,-1,-1]","[0.024594890258736662,0.14373567469865062]","[-1,-1,-1]","[0.15960398398735498,0.11008901357530225]","[-1,-1,-1]","[0.001970647784113355,0.05154999338565185]","[1,1,1]","[0.13011061005542296,-0.07622588547781639]","[-1,-1,-1]","[-0.0639429450987026,0.05263100330051182]","[-1,-1,-1]","[-0.11979127343571956,0.1385330606701076]","[1,1,1]","[0.16612568390853868,-0.042051479003650374]","[1,1,1]","[0.011340184334612698,-0.030819242047207814]","[-1,-1,-1]","[-0.05542776859874077,0.11623677920441108]","[1,1,1]","[-0.0998767443519797,0.08878735846174149]","[1,1,1]","[0.06354615122333282,-0.06414798987075801]","[-1,-1,-1]","[-0.09563536460946168,-0.06525230646655841]","[-1,-1,-1]","[0.1565906676506771,0.06682681907136512]","[1,1,1]","[0.10811039373453254,0.020905118941376196]","[1,1,1]","[-0.17074080174098644,0.08664039374390674]","[1,1,1]","[0.04583133643215963,0.18325926974523496]","[1,1,1]","[0.019538044931134944,-0.08016196085419468]","[1,1,1]","[-0.050067441711774394,0.1597722901298985]","[1,1,1]","[-0.15399151477075076,-0.020593637579738068]","[-1,-1,-1]","[0.058737100007839785,-0.15333225741555126]","[1,1,1]","[-0.033250167443881436,-0.1768493218648376]","[1,1,1]","[0.12087648661970661,0.09750596152139479]","[1,1,1]","[-0.04028092853923336,0.0038765197779383324]","[1,1,1]","[-0.13935635716551217,0.04391263568162038]","[-1,-1,-1]","[0.0890226302617665,0.1679790605304825]","[1,1,1]","[-0.011743646129701966,0.09508910580109511]","[-1,-1,-1]","[-0.0752466315275063,-0.1638479900077911]","[-1,-1,-1]","[-0.19539714142244896,-0.032362492671812286]","[1,1,1]","[-0.0711851098535169,-0.12329922462830906]","[-1,-1,-1]","[0.14985758626224263,-0.0014743066438983195]","[1,1,1]","[0.02,0.02]",139.7196,0,6,6,161,1,,,,,,,
,,,,,,,6650e473608d3961fbf2ddf0,682f0fda2faed57870420ea1,2025-05-22_04h55.18.716,cuing_paradigm_dot,2024.1.5,Win32,29.85074627,682d573fa47f1360d1451895,,,,,,,,,,,139.721,140.2191,,,140.4701,140.8525,right,,,,,,,,0.1,0.3698,,,,,,,140.2192,140.4701,140.853,"[-0.1573081366903443,0.04066853572558253]","[-1,-1,-1]","[0.1078626852544962,-0.09274129441714088]","[-1,-1,-1]","[0.06771552217715693,0.029781783525797717]","[1,1,1]","[-0.02953132126280177,0.013480203017482475]","[-1,-1,-1]","[0.0988990640710958,-0.14416416185629397]","[-1,-1,-1]","[0.14592409127835404,0.08786370441340055]","[-1,-1,-1]","[-0.017870167938675248,0.1075882019366355]","[-1,-1,-1]","[0.010729724196715204,-0.193501283322612]","[1,1,1]","[0.03475062569330479,0.15909879015057504]","[1,1,1]","[-0.06939264789726485,-0.054920851820804244]","[-1,-1,-1]","[0.09451196192028963,0.10315141071482128]","[-1,-1,-1]","[-0.09502273640274572,-0.09897039478812494]","[-1,-1,-1]","[-0.17345268634924596,-0.01194350755095352]","[-1,-1,-1]","[-0.05259412066089055,-0.18514149905165278]","[-1,-1,-1]","[0.14378132112784098,-0.07382894744132297]","[-1,-1,-1]","[0.03250586094108789,-0.034081030304442005]","[-1,-1,-1]","[0.0027265936453851787,-0.07385117473430555]","[-1,-1,-1]","[-0.1463315566668264,-0.07870041355912401]","[-1,-1,-1]","[-0.07654834607110066,0.0700248038871987]","[-1,-1,-1]","[0.05501704492614669,-0.10200039623705334]","[-1,-1,-1]","[0.17820456188951217,0.02926888087922094]","[-1,-1,-1]","[0.053940574236405615,-0.1698818368198876]","[-1,-1,-1]","[-0.05656311246693508,0.15028362204132872]","[-1,-1,-1]","[0.11547632756273359,0.008013945980336307]","[-1,-1,-1]","[0.14903657768200798,-0.11925274849599003]","[-1,-1,-1]","[0.002112028040627637,0.06432611171383792]","[-1,-1,-1]","[-0.10712878735141693,0.1555613788009618]","[-1,-1,-1]","[-0.06773803098600305,0.03044423237036533]","[-1,-1,-1]","[0.09007943715526848,0.14981435480311678]","[-1,-1,-1]","[-0.008613342570205223,0.16607101304343852]","[-1,-1,-1]","[0.08353697724745564,-0.03887729066109298]","[-1,-1,-1]","[0.0019950747431519496,-0.14757822830546885]","[-1,-1,-1]","[0.02,0.02]",141.9518,0,7,7,14,1,,,,,,,
,,,,,,,6650e473608d3961fbf2ddf0,682f0fda2faed57870420ea1,2025-05-22_04h55.18.716,cuing_paradigm_dot,2024.1.5,Win32,29.85074627,682d573fa47f1360d1451895,,,,,,,,,,,141.9532,142.4518,,,142.7031,143.5693,left,,,,,,,,0.4,0.8543,,,,,,,142.4519,142.703,143.5696,"[0.0833461509855867,-0.13287910439007522]","[-1,-1,-1]","[0.01320048361589354,0.028539932587370427]","[1,1,1]","[0.048738557923466215,0.061529200167852925]","[-1,-1,-1]","[-0.12898480046807462,0.11988708735720348]","[1,1,1]","[0.06740168281890078,0.018671434205119148]","[1,1,1]","[0.00686623568926636,-0.1283869494318612]","[-1,-1,-1]","[0.17893609327742963,0.02543142867621123]","[-1,-1,-1]","[0.008793588113455724,-0.049744769049505956]","[-1,-1,-1]","[0.1359437699838581,-0.00400993352332701]","[-1,-1,-1]","[-0.028355545519951952,-0.032532046771191175]","[-1,-1,-1]","[-0.18735678563284383,0.037991092076976644]","[1,1,1]","[-0.06766817652663391,-0.1592408604044486]","[1,1,1]","[0.01757909224472736,0.1629029644080217]","[1,1,1]","[0.10121427241621422,0.06083905489273749]","[-1,-1,-1]","[0.08451474251558463,0.1528050414816253]","[1,1,1]","[-0.04044118916377361,0.0596479852573549]","[-1,-1,-1]","[-0.043101235438564464,-0.0938616580717121]","[-1,-1,-1]","[0.12176252754750858,-0.04976052547725215]","[1,1,1]","[0.04964392426456072,-0.01846793299824895]","[-1,-1,-1]","[0.03024669976519164,-0.086222040666966]","[1,1,1]","[-0.09500378949947347,-0.11305599091498197]","[1,1,1]","[0.12935826131164463,-0.1221776376171688]","[1,1,1]","[0.03938378417818827,0.12627952579716342]","[1,1,1]","[0.15796015775196026,0.08376660268378479]","[-1,-1,-1]","[-0.16964698735498263,0.10170517509007622]","[-1,-1,-1]","[-0.07641308338159923,0.15554716817369446]","[-1,-1,-1]","[-0.019688132713019595,0.11895820475681075]","[-1,-1,-1]","[-0.10347398248075937,0.07971646893022703]","[-1,-1,-1]","[0.07641071951722968,-0.05251063243274074]","[-1,-1,-1]","[0.19687809164329395,-0.028515094742002686]","[1,1,1]","[-0.03260281235982804,-0.1363135929214689]","[-1,-1,-1]","[-0.110937297572063,-0.16342820858656593]","[-1,-1,-1]","[0.02,0.02]",144.6687,0,8,8,46,1,,,,,,,
,,,,,,,6650e473608d3961fbf2ddf0,682f0fda2faed57870420ea1,2025-05-22_04h55.18.716,cuing_paradigm_dot,2024.1.5,Win32,29.85074627,682d573fa47f1360d1451895,,,,,,,,,,,144.6697,145.1686,,,145.4198,145.8353,left,,,,,,,,0.9,0.4068,,,,,,,145.1687,145.4196,145.8353,"[0.010054870013828827,-0.04147184777457532]","[1,1,1]","[0.1687519035444958,-0.07894725311800285]","[1,1,1]","[0.06898313424292395,-0.07735541473340472]","[1,1,1]","[0.1029127166004273,-0.04750237822062355]","[1,1,1]","[0.06770042711689385,0.16562404608054038]","[1,1,1]","[-0.1579655828791045,-0.0020010119385713257]","[1,1,1]","[0.006867329205404791,0.09159203463875236]","[1,1,1]","[0.1928914540285297,0.004804921445793051]","[1,1,1]","[-0.13946393397409354,-0.14047045256220694]","[1,1,1]","[0.06689044476591936,0.04589683210893208]","[1,1,1]","[-0.18289826902865022,0.040485244726027554]","[1,1,1]","[-0.07348054331116449,-0.11648341399259209]","[1,1,1]","[-0.009167609552307552,-0.09792559690803215]","[1,1,1]","[-0.06357511282302777,-0.05806178774769505]","[1,1,1]","[-0.19025900923014388,-0.04834962777484568]","[-1,-1,-1]","[-0.14135221379655388,0.10194084443334298]","[1,1,1]","[-0.02918968485908879,0.1532887107587767]","[1,1,1]","[0.15059166852044037,0.027564348565334983]","[1,1,1]","[0.10408562744883437,0.07365423479474037]","[1,1,1]","[-0.09464977406784793,0.1429040557910336]","[-1,-1,-1]","[-0.006330639093061642,0.1876614074202567]","[1,1,1]","[-0.11720399091549928,0.013246262698606539]","[1,1,1]","[0.1255175555344861,0.12198507653584219]","[1,1,1]","[0.07063964953336632,-0.1824661913418958]","[1,1,1]","[-0.041894944750654285,-0.1735821988534151]","[1,1,1]","[0.09661467224920679,0.017281896112028225]","[1,1,1]","[0.020214013571287534,-0.13220102383113996]","[1,1,1]","[-0.10072456405455264,0.05724836284133054]","[1,1,1]","[-0.0221162481781762,0.032919415852211566]","[1,1,1]","[-0.037065850513857766,-0.008277025078852264]","[1,1,1]","[0.15363303586040375,-0.03266231901551185]","[-1,-1,-1]","[-0.03857846894810481,0.10902365799161802]","[1,1,1]","[0.02,0.02]",146.9342,0,9,9,204,1,,,,,,,
,,,,,,,6650e473608d3961fbf2ddf0,682f0fda2faed57870420ea1,2025-05-22_04h55.18.716,cuing_paradigm_dot,2024.1.5,Win32,29.85074627,682d573fa47f1360d1451895,,,,,,,,,,,146.9355,147.4355,,,147.6904,148.1681,left,,,,,,,,0.55,0.4543,,,,,,,147.4357,147.6903,148.1682,"[-0.11866591614372911,-0.14524363774571053]","[-1,-1,-1]","[0.08832959174180864,-0.0625510038682331]","[1,1,1]","[-0.049627058494020965,-0.1624732224723431]","[1,1,1]","[-0.05359313184280818,0.1295305424375432]","[1,1,1]","[0.041106170930222126,0.11577839184896731]","[1,1,1]","[0.14926978437793326,0.03105968858734913]","[-1,-1,-1]","[-0.05439223200505886,-0.0787465541030897]","[-1,-1,-1]","[-0.08973480237874504,0.10752192344370802]","[1,1,1]","[0.01763766748164696,-0.0552525512388783]","[-1,-1,-1]","[-0.10754701949971442,0.05351904311415613]","[-1,-1,-1]","[0.06628935382177549,-0.16116048017469678]","[1,1,1]","[-0.10703190774162331,-0.0402569362688063]","[1,1,1]","[0.11778172234354992,-0.12355445703594752]","[-1,-1,-1]","[0.1666299056242705,-0.06730223147415952]","[-1,-1,-1]","[0.029143277176211825,-0.11310195447474831]","[-1,-1,-1]","[0.11831986415916167,-0.033558783493771366]","[1,1,1]","[-0.16102491599303548,0.03630268016891316]","[1,1,1]","[-0.011269454637403295,-0.0838719047019667]","[1,1,1]","[-0.19151580366708382,-0.033429780125824676]","[-1,-1,-1]","[-0.15844702902043453,-0.09972145121100613]","[-1,-1,-1]","[-0.03826858793052694,-0.007920629426910148]","[-1,-1,-1]","[0.02151862743671531,-0.0013512271063215698]","[1,1,1]","[0.05796297822488655,0.1897026564262779]","[-1,-1,-1]","[-0.06337380826123896,0.0652699083209557]","[-1,-1,-1]","[0.057635028106085416,0.07208544492857429]","[-1,-1,-1]","[0.18657619225718589,-0.011444876985249246]","[1,1,1]","[0.1721044573960935,0.08379648281587097]","[1,1,1]","[-0.0035443586162918436,-0.17314259585915256]","[1,1,1]","[-0.014794750418404603,0.14113806199354126]","[1,1,1]","[0.006852944395137102,0.059608021732345966]","[1,1,1]","[0.0003365174238579896,0.18624126071304678]","[1,1,1]","[-0.11182103612973383,-0.09123060316489792]","[1,1,1]","[0.02,0.02]",149.2672,0,10,10,140,1,,,,,,,
,,,,,,,6650e473608d3961fbf2ddf0,682f0fda2faed57870420ea1,2025-05-22_04h55.18.716,cuing_paradigm_dot,2024.1.5,Win32,29.85074627,682d573fa47f1360d1451895,,,,,,,,,,,149.2685,149.7671,,,150.0182,150.6343,left,,,,,,,,0.5,0.6011,,,,,,,149.7672,150.0181,150.6344,"[0.026212380216426457,-0.16524758287442393]","[-1,-1,-1]","[-0.03830868968342462,-0.07677686971391473]","[1,1,1]","[0.05038106423862576,-0.040101694977961615]","[1,1,1]","[-0.032516512884305605,0.1323238169879133]","[1,1,1]","[-0.17551663267084422,0.0858308946775895]","[1,1,1]","[-0.0837177541475065,0.18099491159463163]","[1,1,1]","[-0.06778671250813809,-0.014911584882590435]","[-1,-1,-1]","[0.007258417908100176,0.17701345736694185]","[-1,-1,-1]","[-0.18473312888247395,-0.07342620595992348]","[-1,-1,-1]","[0.006606070556812864,-0.10215170937903476]","[1,1,1]","[-0.12310596473307557,0.05615946097513537]","[-1,-1,-1]","[0.012095379256517024,0.11910508113562684]","[-1,-1,-1]","[0.1270931934118642,-0.029794806234163175]","[-1,-1,-1]","[-0.03396353335544809,0.17590172331002402]","[-1,-1,-1]","[0.03912900541770656,0.0889490028508426]","[1,1,1]","[-0.0334039616536352,-0.16032530752457969]","[1,1,1]","[0.07715657104687722,0.16814378389284138]","[1,1,1]","[0.120066559067168,0.054262802298779125]","[-1,-1,-1]","[0.09005589105380778,0.08684740793068559]","[1,1,1]","[0.10146734308143192,0.12591223399312995]","[-1,-1,-1]","[-0.09205112738829815,-0.11924164323832676]","[-1,-1,-1]","[-0.1251416980465744,0.11362963856679043]","[1,1,1]","[-0.08480586041007958,-0.06640764211101621]","[-1,-1,-1]","[-0.1398146852678126,-0.1286456907635046]","[1,1,1]","[-0.14332654009098775,0.0055465861977253145]","[1,1,1]","[0.18988488095467174,-0.01579297001843918]","[-1,-1,-1]","[0.009948003891045668,0.05681175926478369]","[-1,-1,-1]","[0.12371403760743119,-0.10185717988709847]","[-1,-1,-1]","[0.08336491971106345,-0.01685019176426468]","[1,1,1]","[0.1621904243319811,0.06566952033070322]","[-1,-1,-1]","[0.055332125932804566,0.04558817703687492]","[1,1,1]","[0.06662189734491078,-0.1637364058021728]","[1,1,1]","[0.02,0.02]",151.7333,0,11,11,118,1,,,,,,,
,,,,,,,6650e473608d3961fbf2ddf0,682f0fda2faed57870420ea1,2025-05-22_04h55.18.716,cuing_paradigm_dot,2024.1.5,Win32,29.85074627,682d573fa47f1360d1451895,,,,,,,,,,,151.7345,152.2334,,,152.4736,153.1343,left,,,,,,,,0.55,0.6394,,,,,,,152.2336,152.4735,153.1344,"[-0.11659468455536616,0.01916865058085478]","[1,1,1]","[0.02579157990940784,-0.09949481829945854]","[-1,-1,-1]","[0.07229733990967949,-0.14212299044135984]","[-1,-1,-1]","[-0.09296688071778998,-0.16128949773050089]","[1,1,1]","[0.018885638973717426,0.14219761721725194]","[-1,-1,-1]","[-0.14365448824338342,-0.08074571282372088]","[-1,-1,-1]","[0.01658988707558068,-0.17114418416525415]","[1,1,1]","[0.05542579466294932,-0.06590571717267768]","[1,1,1]","[-0.04763427184063406,-0.05847497118873862]","[-1,-1,-1]","[0.14829359944254308,-0.05088883512713603]","[1,1,1]","[0.08369080178783306,0.06466555319734846]","[-1,-1,-1]","[-0.08179979579965509,0.12516954544201955]","[1,1,1]","[-0.012646402320445924,-0.008230207475965846]","[1,1,1]","[0.11711963174790997,0.09441514209126556]","[-1,-1,-1]","[-0.13250720791277615,0.0920268843327999]","[-1,-1,-1]","[-0.1754565333578209,-0.05410794169186868]","[1,1,1]","[0.08093321648142825,0.11878945359214069]","[1,1,1]","[-0.10587161348287276,0.16001705998776436]","[-1,-1,-1]","[-0.08795620758888653,-0.10346460204350111]","[-1,-1,-1]","[-0.03489973437394295,0.02962834499608258]","[1,1,1]","[0.017894945744372823,0.026776740278879198]","[1,1,1]","[0.025283042633198305,-0.02280168158893201]","[1,1,1]","[-0.0015431830443150764,0.07062247224807808]","[-1,-1,-1]","[0.10001723139164062,-0.08737186709404321]","[-1,-1,-1]","[0.1537555593323346,0.11655446804388406]","[1,1,1]","[0.09430709046452393,0.0229565945747249]","[1,1,1]","[0.17409804584119074,0.05526778630238195]","[1,1,1]","[-0.05300453072540279,-0.13051180950979568]","[1,1,1]","[0.1492041896587326,-0.10127811027274461]","[-1,-1,-1]","[-0.12110689750510877,-0.13000085304285966]","[1,1,1]","[-0.15995776026889544,0.03540293820516036]","[1,1,1]","[0.051343598017462966,0.18539971319876283]","[-1,-1,-1]","[0.02,0.02]",154.233,0,12,12,131,1,,,,,,,
,,,,,,,6650e473608d3961fbf2ddf0,682f0fda2faed57870420ea1,2025-05-22_04h55.18.716,cuing_paradigm_dot,2024.1.5,Win32,29.85074627,682d573fa47f1360d1451895,,,,,,,,,,,154.2342,154.733,,,154.9849,155.5177,left,,,,,,,,0.6,0.5203,,,,,,,154.7331,154.9848,155.5179,"[0.19183114832353518,0.022128321810796252]","[-1,-1,-1]","[-0.06182318736859189,0.1605620738682016]","[-1,-1,-1]","[-0.05821672820716962,0.07709608895707042]","[-1,-1,-1]","[0.026002647576593277,0.19727596157614496]","[1,1,1]","[-0.1500458661833224,-0.07037791834721216]","[1,1,1]","[-0.0668135174843049,-0.1872515680658978]","[1,1,1]","[0.12418147292294253,-0.0351861464375844]","[1,1,1]","[0.0301839967744945,0.06238400708659579]","[1,1,1]","[0.18291574726351403,-0.05455169750171668]","[1,1,1]","[0.08232089820964644,-0.07120737884562081]","[1,1,1]","[0.017870140233442095,0.12310384610853768]","[-1,-1,-1]","[-0.01223336161545995,-0.017625926397280504]","[-1,-1,-1]","[0.07928764503383286,-0.16339312598297623]","[-1,-1,-1]","[-0.12033254345683675,-0.11834241657054793]","[1,1,1]","[-0.036385729748723276,-0.08265895471913866]","[1,1,1]","[-0.1167333676845258,0.0338540411957115]","[-1,-1,-1]","[0.11059421992954475,0.0775530128064609]","[1,1,1]","[-0.021883876476955225,0.19271244946875957]","[-1,-1,-1]","[-0.18189627675103984,0.01055617808369662]","[-1,-1,-1]","[-0.02173476712643124,0.10806894798834231]","[1,1,1]","[0.03508868531772235,-0.0037386055498929384]","[1,1,1]","[0.0492587564147331,-0.12863586364247404]","[-1,-1,-1]","[-0.12251196358828204,0.10009599337590556]","[-1,-1,-1]","[-0.0842367843986797,-0.08514797149706772]","[1,1,1]","[-0.11100164624232893,0.14118885073542803]","[1,1,1]","[-0.05126933519733103,-0.1354417273775612]","[-1,-1,-1]","[0.17835317825443256,0.0855430282895944]","[1,1,1]","[0.04260521200393683,-0.18591232352667902]","[1,1,1]","[0.13047973613846997,0.13176558244650136]","[-1,-1,-1]","[0.16294544354396123,-0.09240619662008172]","[1,1,1]","[0.1510713384391611,0.03662832449094674]","[1,1,1]","[0.08683562241302564,0.03410865819278977]","[1,1,1]","[0.02,0.02]",156.6165,0,13,13,152,1,,,,,,,
,,,,,,,6650e473608d3961fbf2ddf0,682f0fda2faed57870420ea1,2025-05-22_04h55.18.716,cuing_paradigm_dot,2024.1.5,Win32,29.85074627,682d573fa47f1360d1451895,,,,,,,,,,,156.6178,157.1166,,,157.3673,157.9875,left,,,,,,,,0.55,0.6008,,,,,,,157.1167,157.3672,157.9876,"[-0.12676880268815444,0.017736140629830786]","[-1,-1,-1]","[-0.05311864872468179,-0.14291162296828172]","[1,1,1]","[-0.1725285158674385,-0.04346836852321763]","[1,1,1]","[-0.0004827159338852947,-0.1874517934566333]","[1,1,1]","[0.06538747572859883,-0.0992465271671077]","[-1,-1,-1]","[0.18969446055215353,0.052617788507048555]","[1,1,1]","[0.0001572477387012372,0.04813154527241817]","[1,1,1]","[-0.05158613038714586,0.11298104665633024]","[1,1,1]","[0.11439825697172742,0.006294746565634093]","[1,1,1]","[-0.02713219819271253,0.0795768819801431]","[1,1,1]","[0.08186680879276863,-0.02333592439905009]","[-1,-1,-1]","[-0.04039049909446528,0.1596835023789553]","[1,1,1]","[-0.15946312966201603,-0.11599001623478061]","[-1,-1,-1]","[0.024334319660548165,-0.10281495117190226]","[-1,-1,-1]","[0.09746422830499181,0.1345621751902304]","[1,1,1]","[0.12221633978115214,-0.14318668260146677]","[-1,-1,-1]","[0.04860786427936228,0.17393815505180563]","[-1,-1,-1]","[-0.008242065731726173,0.0011590660066364224]","[-1,-1,-1]","[0.15647136033398756,-0.06687531990196997]","[-1,-1,-1]","[-0.11001810095405626,-0.06772098189859989]","[1,1,1]","[-0.09454119031104546,0.09225426347729604]","[-1,-1,-1]","[-0.15917350002531683,0.07672183985082058]","[-1,-1,-1]","[0.04148304677745131,-0.0047670158327698066]","[-1,-1,-1]","[0.10531006970310593,0.06286248155067185]","[1,1,1]","[-0.10486289804144694,0.13900182958803464]","[1,1,1]","[0.16610486791054282,-0.0005902223770143747]","[1,1,1]","[0.15009030491218858,0.09242403005295674]","[1,1,1]","[-0.15463202751873975,0.12130242202248782]","[-1,-1,-1]","[-0.033749498088875236,-0.053701328788653586]","[1,1,1]","[0.04505333275584279,-0.1615267788528861]","[1,1,1]","[0.05175775161951206,0.08909728603011746]","[1,1,1]","[0.018282184776451268,0.1237147920796035]","[-1,-1,-1]","[0.02,0.02]",159.0822,0,14,14,120,1,,,,,,,
,,,,,,,6650e473608d3961fbf2ddf0,682f0fda2faed57870420ea1,2025-05-22_04h55.18.716,cuing_paradigm_dot,2024.1.5,Win32,29.85074627,682d573fa47f1360d1451895,,,,,,,,,,,159.0834,159.5821,,,159.8333,160.2489,right,,,,,,,,0.1,0.4022,,,,,,,159.5822,159.8332,160.2491,"[0.020430289146116613,0.050866350557206536]","[-1,-1,-1]","[0.10741481068394784,0.11674999280816775]","[-1,-1,-1]","[0.05608929705176073,0.031112456080658067]","[-1,-1,-1]","[-0.1518109223278005,-0.03545913459417266]","[1,1,1]","[-0.08962939702647206,-0.03752574372458349]","[-1,-1,-1]","[-0.1577093188457109,-0.09809936503433793]","[-1,-1,-1]","[-0.011212769280790093,0.009786013603602466]","[-1,-1,-1]","[-0.0868821487865041,-0.12849286298415644]","[-1,-1,-1]","[-0.13510903527413154,0.027016537774752557]","[-1,-1,-1]","[0.12677343742145938,-0.10013907054846057]","[-1,-1,-1]","[-0.1317812673258581,0.1107193515078848]","[-1,-1,-1]","[0.01714262330945889,-0.10322913918879136]","[-1,-1,-1]","[-0.18477917078312361,0.004282738626416865]","[-1,-1,-1]","[-0.18961952957309997,-0.05026468854923725]","[-1,-1,-1]","[-0.04311066166846587,0.08848026794049049]","[-1,-1,-1]","[-0.0021544992849368773,-0.15495438450376026]","[-1,-1,-1]","[-0.07929742452687323,0.04739295827158821]","[-1,-1,-1]","[0.04626833527218436,0.10500749934478547]","[-1,-1,-1]","[-0.04388330837481414,-0.0864426241583155]","[-1,-1,-1]","[0.07908239041929131,0.17913259058644745]","[1,1,1]","[-0.05855921208972224,-0.16698758765845922]","[-1,-1,-1]","[0.09127485769518008,0.07018491162922737]","[-1,-1,-1]","[0.16134428000572315,-0.04801502500318477]","[-1,-1,-1]","[0.0962814784540319,0.002007663111724354]","[-1,-1,-1]","[0.062168558382958435,-0.06928052711129162]","[-1,-1,-1]","[0.11805692885217686,-0.1512786697212303]","[-1,-1,-1]","[0.15002864066484858,0.12171112754238038]","[-1,-1,-1]","[0.01023737802019355,0.168114564539743]","[-1,-1,-1]","[0.13576370644181826,0.011000721915682327]","[-1,-1,-1]","[-0.08485840965060458,0.1350383262162707]","[1,1,1]","[0.04140724369428943,-0.14279611737439446]","[-1,-1,-1]","[0.002232809268629239,-0.03017642354115776]","[-1,-1,-1]","[0.02,0.02]",161.3479,0,15,15,11,1,,,,,,,
,,,,,,,6650e473608d3961fbf2ddf0,682f0fda2faed57870420ea1,2025-05-22_04h55.18.716,cuing_paradigm_dot,2024.1.5,Win32,29.85074627,682d573fa47f1360d1451895,,,,,,,,,,,161.3487,161.848,,,162.0992,162.4822,right,,,,,,,,0.1,0.3676,,,,,,,161.8481,162.0991,162.4832,"[-0.0321549312695958,-0.06558138171175468]","[-1,-1,-1]","[-0.04495763900137966,0.005044864502504976]","[1,1,1]","[0.09423210406150632,0.030374346577581788]","[-1,-1,-1]","[-0.05854937986004023,0.12626900853776424]","[-1,-1,-1]","[-0.06928904042574567,0.0757418749824958]","[-1,-1,-1]","[0.13641786665619896,-0.03135748455173425]","[-1,-1,-1]","[-0.08807793930579443,0.0161734214202405]","[-1,-1,-1]","[-0.13147569634562536,-0.09409241757004524]","[-1,-1,-1]","[0.08830562268761397,0.13035690523740195]","[-1,-1,-1]","[-0.17421043768880423,0.05634119337778186]","[-1,-1,-1]","[0.046217538980128176,0.07547342165064788]","[-1,-1,-1]","[0.10206785409039504,-0.12291991234924132]","[-1,-1,-1]","[0.09753978714726973,-0.1745451189209607]","[1,1,1]","[0.15816770935630375,0.09029593732265889]","[-1,-1,-1]","[0.14059832691618232,-0.09977211235860148]","[-1,-1,-1]","[0.04600205030988339,0.1882020489287403]","[-1,-1,-1]","[0.060164030618870296,-0.06467731107053074]","[-1,-1,-1]","[-0.16095841910569395,0.09511939799210159]","[-1,-1,-1]","[-0.13117965006947332,0.14710822632755377]","[-1,-1,-1]","[-0.16951336529520894,-0.03232783236473886]","[-1,-1,-1]","[0.03406779819251834,-0.1737409487207718]","[-1,-1,-1]","[0.1383974782404227,0.049668913822474944]","[-1,-1,-1]","[-0.03626113010717683,-0.1948391522224298]","[-1,-1,-1]","[0.08557265615014616,0.17780542367434254]","[-1,-1,-1]","[-0.017786723740349626,0.1727015545769617]","[-1,-1,-1]","[-0.017682299581310942,-0.14833205572014457]","[-1,-1,-1]","[-0.14711300781811995,0.009101874331274658]","[-1,-1,-1]","[-0.10514346154152797,-0.16891440902761168]","[-1,-1,-1]","[0.004583099328378841,0.08713046001831919]","[-1,-1,-1]","[0.004027655230538827,0.04607346954906904]","[-1,-1,-1]","[0.10094530429545157,0.07486105545724278]","[-1,-1,-1]","[-0.07954857791653562,-0.029149485916007505]","[1,1,1]","[0.02,0.02]",163.5811,0,16,16,26,1,,,,,,,
,,,,,,,6650e473608d3961fbf2ddf0,682f0fda2faed57870420ea1,2025-05-22_04h55.18.716,cuing_paradigm_dot,2024.1.5,Win32,29.85074627,682d573fa47f1360d1451895,,,,,,,,,,,163.5824,164.0814,,,164.3332,164.7978,right,,,,,,,,0.1,0.4562,,,,,,,164.0815,164.3331,164.7978,"[-0.038729847562421385,-0.13812227319328405]","[-1,-1,-1]","[0.09726935616373189,-0.00542929498464481]","[-1,-1,-1]","[-0.04328500710413954,0.04824229481919197]","[-1,-1,-1]","[0.046324051149817726,0.013345312764452518]","[-1,-1,-1]","[-0.0007714638558515165,0.1921346216477079]","[-1,-1,-1]","[0.15987676144923402,0.03754873909152626]","[-1,-1,-1]","[-0.07791572654737189,0.11460364042674137]","[1,1,1]","[-0.03205298592393066,0.11224922927044106]","[-1,-1,-1]","[0.11054814888412998,0.14124064529095115]","[-1,-1,-1]","[0.0551548620336852,-0.12282460283218348]","[-1,-1,-1]","[-0.12830899068596993,-0.09570609987285816]","[-1,-1,-1]","[0.08707999040274338,-0.15114858579010973]","[-1,-1,-1]","[0.13346727311907425,-0.11424978650276682]","[1,1,1]","[-0.05118095651879169,0.1852349590733086]","[-1,-1,-1]","[-0.016001481201182055,-0.09292223332685369]","[-1,-1,-1]","[0.02766676318907302,0.14689562825828567]","[-1,-1,-1]","[0.03899371091335868,0.10366800915916637]","[-1,-1,-1]","[-0.1181605950601933,0.11652236040282835]","[-1,-1,-1]","[-0.08798747876931355,-0.1190542034131112]","[1,1,1]","[0.11825052506665537,0.05500500804456544]","[-1,-1,-1]","[0.15206644420621343,-0.006891500857821821]","[-1,-1,-1]","[-0.04186757054228997,-0.01753426061842219]","[-1,-1,-1]","[-0.09983204688943138,-0.012815762511047121]","[-1,-1,-1]","[-0.005276020966985475,0.08111408957935415]","[-1,-1,-1]","[-0.18297085101525803,-0.012046485578484284]","[-1,-1,-1]","[-0.11603933312186238,0.06685992786528468]","[-1,-1,-1]","[-0.09213867843864837,-0.05322675761113213]","[-1,-1,-1]","[0.166972207551236,0.10630297464511423]","[-1,-1,-1]","[-0.12749078676685166,0.01637099763087187]","[-1,-1,-1]","[0.03572734444786433,-0.1774134190067836]","[-1,-1,-1]","[0.01720052311592358,0.04116989833312292]","[-1,-1,-1]","[0.17909603627683165,-0.06984969081976702]","[-1,-1,-1]","[0.02,0.02]",165.8973,0,17,17,6,1,,,,,,,
,,,,,,,6650e473608d3961fbf2ddf0,682f0fda2faed57870420ea1,2025-05-22_04h55.18.716,cuing_paradigm_dot,2024.1.5,Win32,29.85074627,682d573fa47f1360d1451895,,,,,,,,,,,165.8985,166.3981,,,166.6492,167.2475,left,,,,,,,,0.6,0.5904,,,,,,,166.3983,166.649,167.2478,"[0.11149144574050868,-0.13610945467072222]","[1,1,1]","[-0.0011469309000689072,-0.06744212791390669]","[1,1,1]","[-0.10411771312934832,-0.06036739204329313]","[-1,-1,-1]","[0.05177685526118349,0.11395690787264405]","[-1,-1,-1]","[-0.12647861215973197,-0.13830025414640898]","[1,1,1]","[0.021644242969885583,-0.13601938624233034]","[1,1,1]","[-0.06374917239629496,-0.152424209149832]","[1,1,1]","[-0.04631847742612936,-0.0441093851750204]","[-1,-1,-1]","[-0.13442109410475203,0.002902387266240411]","[-1,-1,-1]","[0.13293132981141087,0.007684062874209825]","[-1,-1,-1]","[0.15683500338168918,-0.11688198640007912]","[1,1,1]","[0.11714589370708857,0.1612476597574564]","[-1,-1,-1]","[0.08680971802532199,-0.03393659848878069]","[1,1,1]","[0.04983707337240433,-0.10319215905187848]","[-1,-1,-1]","[-0.14895765456935633,0.11422467671906769]","[1,1,1]","[-0.09782887573598498,0.16534732629150994]","[1,1,1]","[-0.06124437776833448,0.0550027240572131]","[-1,-1,-1]","[0.041301901260765356,-0.17306824415925284]","[1,1,1]","[0.17523575784033585,-0.036762546989891585]","[1,1,1]","[0.1512965637603717,0.09594490947310826]","[1,1,1]","[0.09246763206276444,0.023585931839713296]","[-1,-1,-1]","[-0.009576690217059735,0.11862880239333906]","[-1,-1,-1]","[0.18050073262785332,0.004795446985415419]","[-1,-1,-1]","[-0.07351393450332967,-0.09063586389746149]","[1,1,1]","[-0.13273989956885135,0.06239895535300503]","[1,1,1]","[0.1157701542175351,-0.08248292344393587]","[1,1,1]","[-0.18551734836651512,-0.013616952238936992]","[-1,-1,-1]","[-0.0786959353315159,0.12858497189797807]","[1,1,1]","[-0.02299858050910782,0.16038576467630988]","[-1,-1,-1]","[0.1002563429254865,0.09957674648497195]","[1,1,1]","[-0.16037803617143978,-0.10465030867225461]","[1,1,1]","[0.035206690314605604,-0.03354856431931033]","[1,1,1]","[0.02,0.02]",168.3471,0,18,18,179,1,,,,,,,
,,,,,,,6650e473608d3961fbf2ddf0,682f0fda2faed57870420ea1,2025-05-22_04h55.18.716,cuing_paradigm_dot,2024.1.5,Win32,29.85074627,682d573fa47f1360d1451895,,,,,,,,,,,168.3482,168.8469,,,169.1006,169.5975,right,,,,,,,,0.4,0.4783,,,,,,,168.847,169.1005,169.5976,"[-0.08330803542481527,0.05807134602006517]","[1,1,1]","[0.16363343703564692,-0.028097096467625107]","[-1,-1,-1]","[-0.16281748748036728,0.05109147265419285]","[-1,-1,-1]","[0.13434920122259608,-0.13788282764341772]","[1,1,1]","[0.11432142125589147,0.050183252920991926]","[1,1,1]","[0.054410189516708035,0.16939726333757454]","[-1,-1,-1]","[0.059179241071277255,0.022568944377984422]","[1,1,1]","[0.014177952222260974,-0.18265980606442245]","[1,1,1]","[0.08886066072607787,-0.09587876348430269]","[-1,-1,-1]","[-0.003964217335582969,-0.11090644753873823]","[1,1,1]","[-0.14195838259151874,-0.14064423065541967]","[1,1,1]","[-0.07426921012624543,-0.10023931661418532]","[-1,-1,-1]","[-0.05736089686928109,0.13684163934701676]","[-1,-1,-1]","[-0.017402982794960293,0.03412977923957784]","[-1,-1,-1]","[-0.1732485960330951,0.0025956465298220574]","[-1,-1,-1]","[0.049840008986830955,0.07648275234593979]","[1,1,1]","[-0.01430691642404862,0.18022650678550375]","[-1,-1,-1]","[-0.12711553874044104,-0.00574833715204695]","[-1,-1,-1]","[0.16422521762195982,-0.10745867038431194]","[1,1,1]","[0.05869126664034996,-0.1443925669943842]","[-1,-1,-1]","[0.09331545870349091,-0.1758701683282568]","[1,1,1]","[-0.02512473344492458,-0.041679295086364136]","[-1,-1,-1]","[0.18039942815346194,0.03438129220279262]","[-1,-1,-1]","[-0.05928450943688756,0.012653330012262176]","[1,1,1]","[0.1141474687274822,0.11102704441965362]","[-1,-1,-1]","[0.09446598520472642,-0.04942072698817933]","[-1,-1,-1]","[-0.10897116584133565,-0.06273267431740703]","[-1,-1,-1]","[0.05113790599773226,-0.08126674275942886]","[1,1,1]","[-0.0232292870011269,-0.19773522757465606]","[-1,-1,-1]","[-0.11684865660810702,0.10121147552138933]","[-1,-1,-1]","[-0.06482796121861606,-0.03029770866020959]","[1,1,1]","[-0.037419503497656735,0.09793416297267711]","[-1,-1,-1]","[0.02,0.02]",170.6964,0,19,19,50,1,,,,,,,
,,,,,,,6650e473608d3961fbf2ddf0,682f0fda2faed57870420ea1,2025-05-22_04h55.18.716,cuing_paradigm_dot,2024.1.5,Win32,29.85074627,682d573fa47f1360d1451895,,,,,,,,,,,170.6976,171.1985,,,171.4472,171.9136,left,,,,,,,,0.6,0.4589,,,,,,,171.1987,171.4472,171.9138,"[-0.16248938746486188,0.028048308224327655]","[1,1,1]","[0.1293268249393566,-0.0935352676069168]","[1,1,1]","[0.07791473772837096,-0.12011699649555888]","[-1,-1,-1]","[0.0661925161975664,-0.18334655005050726]","[-1,-1,-1]","[-0.11836672386534343,-0.02673664694242796]","[-1,-1,-1]","[0.1305535720623414,-0.03786396410857561]","[1,1,1]","[0.028992396640995132,0.06439560068176113]","[1,1,1]","[0.13494170311108913,0.019481871030919248]","[-1,-1,-1]","[-0.06959399393042992,0.17455764321562192]","[1,1,1]","[-0.03661753845417121,-0.01663273437111489]","[1,1,1]","[0.08043411365345489,-0.0343417914305506]","[-1,-1,-1]","[-0.09927999232400218,0.08737285837410348]","[1,1,1]","[-0.1438299357192083,-0.12831710882892555]","[1,1,1]","[0.18865917062353904,-0.017179621560317333]","[1,1,1]","[0.10372203687422944,0.13362229875653076]","[-1,-1,-1]","[-0.025149054280113565,-0.18661113284188005]","[1,1,1]","[0.0070672009865520085,-0.07327828488362124]","[-1,-1,-1]","[0.002658009908961653,0.18140039604560604]","[-1,-1,-1]","[-0.05044803045767208,-0.13245144746682383]","[1,1,1]","[-0.043645772293946464,0.08607746760803528]","[1,1,1]","[0.06261687222317683,0.1584208965064163]","[1,1,1]","[-0.07744341606719313,-0.09867529033428914]","[-1,-1,-1]","[0.1001934664350139,0.0741249394336977]","[1,1,1]","[-0.014538923905947748,0.14526139050801795]","[1,1,1]","[0.016582027689036844,-0.1281496477725883]","[-1,-1,-1]","[0.17417674480970916,-0.07316591147882644]","[1,1,1]","[-0.0083794793460998,0.029862288193394204]","[1,1,1]","[-0.15046546623213602,-0.05142556359422893]","[-1,-1,-1]","[-0.14744566591186556,0.07693139396811861]","[1,1,1]","[0.18797056948696086,0.058643243009811344]","[-1,-1,-1]","[-0.1945511261254332,-0.035125754992429904]","[-1,-1,-1]","[0.14802184492617507,0.10295563272950807]","[1,1,1]","[0.02,0.02]",173.0126,0,20,20,155,1,,,,,,,
,,,,,,,6650e473608d3961fbf2ddf0,682f0fda2faed57870420ea1,2025-05-22_04h55.18.716,cuing_paradigm_dot,2024.1.5,Win32,29.85074627,682d573fa47f1360d1451895,,,,,,,,,,,173.0141,173.5127,,,173.7649,174.2798,left,,,,,,,,0.4,0.5023,,,,,,,173.5127,173.7647,174.2802,"[-0.11042355026050386,0.07034726348033044]","[-1,-1,-1]","[0.10711551367949271,0.0191152024569265]","[-1,-1,-1]","[-0.1078010549296506,-0.014412081634158571]","[-1,-1,-1]","[-0.006683810051709616,0.19263708934803353]","[-1,-1,-1]","[0.145284393884385,-0.037913968305399406]","[1,1,1]","[-0.07795856183932047,-0.06188179944213732]","[-1,-1,-1]","[-0.07977972049869889,0.15943031596448992]","[1,1,1]","[-0.15192150467016244,0.05368959632240071]","[-1,-1,-1]","[-0.0718565909714786,0.037834512328652876]","[-1,-1,-1]","[-0.031092222674489366,-0.012980762688099442]","[1,1,1]","[0.04461178637173124,0.056485472165639865]","[-1,-1,-1]","[0.043338914119765176,-0.11962389185974177]","[-1,-1,-1]","[-0.1821333279816124,-0.011159700822453041]","[1,1,1]","[-0.09401936408976838,0.10811386635254214]","[1,1,1]","[0.020905951048940868,-0.007017855782021802]","[1,1,1]","[0.07400205814129387,-0.17624784467871255]","[1,1,1]","[-0.011350457039303942,0.06915465608786671]","[-1,-1,-1]","[0.09832336435307133,-0.12221357672336434]","[-1,-1,-1]","[0.02642368970323097,0.11175172831188622]","[-1,-1,-1]","[-0.1171761668925505,-0.14891220569455024]","[1,1,1]","[0.09321760719490128,-0.06307604099923451]","[1,1,1]","[0.07498129007536472,0.12991567814221852]","[1,1,1]","[0.0830932396022591,0.08355809455981128]","[1,1,1]","[0.18051619544089637,0.06328846561118895]","[-1,-1,-1]","[-0.12524535396815217,0.13943024695503486]","[-1,-1,-1]","[0.1987953548651132,0.019904979696463536]","[-1,-1,-1]","[0.15669359736303698,0.027351028732695692]","[1,1,1]","[0.12717695160494633,0.06969512619349527]","[-1,-1,-1]","[-0.18857026803578963,-0.06323303102946438]","[1,1,1]","[-0.1012374137949705,-0.10362637057258008]","[-1,-1,-1]","[-0.06461791884946406,-0.13144544302908642]","[-1,-1,-1]","[0.012580631066876189,-0.06670637162180237]","[-1,-1,-1]","[0.02,0.02]",175.379,0,21,21,58,1,,,,,,,
,,,,,,,6650e473608d3961fbf2ddf0,682f0fda2faed57870420ea1,2025-05-22_04h55.18.716,cuing_paradigm_dot,2024.1.5,Win32,29.85074627,682d573fa47f1360d1451895,,,,,,,,,,,175.3803,175.8787,,,176.1337,176.5803,right,,,,,,,,0.1,0.4287,,,,,,,175.8788,176.1335,176.5804,"[-0.020122476523257705,-0.1181976526861088]","[-1,-1,-1]","[-0.12493430365500913,-0.10736423699537012]","[-1,-1,-1]","[0.05900553550085072,-0.003461260645545292]","[-1,-1,-1]","[0.011919524532654996,-0.05458961091981988]","[-1,-1,-1]","[0.10662299083009653,-0.15100736415069269]","[1,1,1]","[-0.05953939599997702,0.15692513117659293]","[-1,-1,-1]","[0.10423080613308201,0.092757189402652]","[-1,-1,-1]","[0.16297458910791118,0.05173874100832441]","[-1,-1,-1]","[0.15796415281148077,-0.0318158712165718]","[-1,-1,-1]","[-0.14351333937128644,0.08298208053339043]","[-1,-1,-1]","[-0.0070532739440955314,0.12359905274611709]","[-1,-1,-1]","[-0.008221268841178577,-0.17474829956475174]","[-1,-1,-1]","[0.04648813895884015,0.03476836934122797]","[-1,-1,-1]","[0.11158383238026844,-0.025055237115324515]","[-1,-1,-1]","[-0.10188792923123029,0.06318212296191256]","[-1,-1,-1]","[0.1561692127358319,-0.1066884350612569]","[1,1,1]","[-0.03702358471007919,-0.06615729558618975]","[1,1,1]","[0.06712710391611772,0.1101006793266797]","[-1,-1,-1]","[-0.04129739411780822,0.0452806106271637]","[-1,-1,-1]","[-0.121353212818389,0.15764410465186096]","[-1,-1,-1]","[0.0521676530801131,-0.06307834745291044]","[-1,-1,-1]","[-0.10032267878204976,-0.0038084354206520186]","[-1,-1,-1]","[0.03963238627804572,-0.19528364424546757]","[-1,-1,-1]","[0.11848599969321805,0.01777756330473786]","[-1,-1,-1]","[-0.152865947326787,0.027712024743044582]","[-1,-1,-1]","[-0.04830704074946033,-0.150173572173537]","[-1,-1,-1]","[-0.09354246588855089,-0.06058043275108813]","[-1,-1,-1]","[0.11405262226960677,-0.09605256178508241]","[-1,-1,-1]","[0.021071264205725377,-0.1327321624698254]","[-1,-1,-1]","[0.06696563422834419,-0.1161160478377658]","[-1,-1,-1]","[-0.1589152374978907,-0.06841773374336631]","[-1,-1,-1]","[0.10681135978062589,0.15559494316319353]","[-1,-1,-1]","[0.02,0.02]",177.6782,0,22,22,2,1,,,,,,,
,,,,,,,6650e473608d3961fbf2ddf0,682f0fda2faed57870420ea1,2025-05-22_04h55.18.716,cuing_paradigm_dot,2024.1.5,Win32,29.85074627,682d573fa47f1360d1451895,,,,,,,,,,,177.68,178.1785,,,178.4304,179.1618,left,,,,,,,,0.5,0.7164,,,,,,,178.1787,178.4302,179.1621,"[-0.16719283867237275,0.007394297184789749]","[-1,-1,-1]","[-0.10662094607711597,-0.0186529385454314]","[1,1,1]","[-0.033951562462397215,0.02636630684063453]","[1,1,1]","[0.08557274553382493,0.11041646526081866]","[-1,-1,-1]","[0.11401171362199845,0.14717314729788697]","[1,1,1]","[0.057605845354616096,0.14729240710751895]","[1,1,1]","[0.05294934962641794,-0.031076709752348216]","[-1,-1,-1]","[-0.00625171482552442,-0.03532575521617933]","[1,1,1]","[-0.11481257939523187,0.026684573284076512]","[1,1,1]","[-0.0702314438526822,0.061118309113315644]","[-1,-1,-1]","[0.062482786002761845,-0.17298410365264555]","[1,1,1]","[0.11131035691791301,0.0752395374299833]","[1,1,1]","[0.001091973877344031,-0.08800454816248816]","[1,1,1]","[0.17709988226615694,-0.09131452834491519]","[1,1,1]","[-0.03430552998151193,0.1607501128996717]","[1,1,1]","[0.037983435373980114,0.11235512671270706]","[-1,-1,-1]","[-0.04231390484553315,-0.1229584265139942]","[-1,-1,-1]","[0.02032462001143623,0.16611275562257788]","[-1,-1,-1]","[-0.12458935602114628,-0.08915602005044147]","[-1,-1,-1]","[0.1120969256301034,-0.0010980680133833773]","[-1,-1,-1]","[0.10731160566655139,-0.1657558871609219]","[-1,-1,-1]","[-0.049650500465737935,-0.1673260647633655]","[-1,-1,-1]","[-0.06923638416181388,0.0017666067194279916]","[-1,-1,-1]","[0.13442865152373004,-0.12791071251120342]","[1,1,1]","[0.1503580905029856,0.04843327758785771]","[-1,-1,-1]","[-0.017878658442188347,0.09485244897622101]","[1,1,1]","[0.04804696933818788,0.04099546335443303]","[-1,-1,-1]","[0.1876779195718362,0.026913406208625354]","[1,1,1]","[-0.13444934685747084,0.121554244513674]","[1,1,1]","[0.1754098472938479,-0.03733675061584839]","[-1,-1,-1]","[0.11901784867461053,-0.06623887458086451]","[1,1,1]","[0.04795948305883932,-0.13112496129784545]","[-1,-1,-1]","[0.02,0.02]",180.2611,0,23,23,108,1,,,,,,,
,,,,,,,6650e473608d3961fbf2ddf0,682f0fda2faed57870420ea1,2025-05-22_04h55.18.716,cuing_paradigm_dot,2024.1.5,Win32,29.85074627,682d573fa47f1360d1451895,,,,,,,,,,,180.2624,180.7611,,,181.0126,181.5284,left,,,,,,,,0.6,0.4998,,,,,,,180.7612,181.0124,181.5285,"[0.17435911739858195,-0.06524793478470849]","[1,1,1]","[0.04244384867660754,0.17160159639521647]","[-1,-1,-1]","[-0.004635847106457775,0.04054910323919714]","[1,1,1]","[-0.17157093502217335,-0.07215452524052414]","[-1,-1,-1]","[-0.11611952314876645,0.11834565411894697]","[-1,-1,-1]","[0.17464865098994295,0.06502349655438078]","[1,1,1]","[-0.0769619931314683,-0.12274456542071825]","[1,1,1]","[0.056048983817579515,-0.026570335671594534]","[1,1,1]","[-0.034342263830908125,0.0759458225181806]","[1,1,1]","[0.014446391296882166,-0.0028615918083834116]","[1,1,1]","[-0.08125841400893638,-0.011719984455085515]","[-1,-1,-1]","[0.033565629770293884,-0.09327881003676244]","[1,1,1]","[-0.018162702431549473,0.16530507136276937]","[1,1,1]","[-0.11755802899892454,-0.08613337765550359]","[1,1,1]","[-0.1509526991712386,-0.01867463364508329]","[1,1,1]","[0.07163580376448749,0.04835209384307583]","[1,1,1]","[0.020654746545796174,0.10778007858387743]","[-1,-1,-1]","[-0.02047093656602449,0.11962893157342808]","[1,1,1]","[0.09440285709885982,-0.14517369164429453]","[-1,-1,-1]","[-0.16581400106018465,0.11007554318427903]","[1,1,1]","[0.10351701763051226,-0.04613926156042609]","[1,1,1]","[-0.03606693748033053,-0.1220252891273117]","[-1,-1,-1]","[-0.1447313631669423,-0.13297449847480083]","[-1,-1,-1]","[-0.12288207803318256,0.05791889965361324]","[1,1,1]","[-0.07968328845179742,0.15364795702753825]","[1,1,1]","[-0.025843058881595757,-0.011459895062999591]","[-1,-1,-1]","[0.07872760985555959,-0.08528766686707681]","[-1,-1,-1]","[-0.009471681665995844,-0.08349676528518273]","[-1,-1,-1]","[0.13919245318326753,-0.0176512936725385]","[1,1,1]","[0.030676436644135,-0.14962768268295656]","[-1,-1,-1]","[0.17626692700052188,0.011269916905269977]","[1,1,1]","[0.14458502962707295,0.036525902223798506]","[-1,-1,-1]","[0.02,0.02]",182.6278,0,24,24,160,1,,,,,,,
,,,,,,,6650e473608d3961fbf2ddf0,682f0fda2faed57870420ea1,2025-05-22_04h55.18.716,cuing_paradigm_dot,2024.1.5,Win32,29.85074627,682d573fa47f1360d1451895,,,,,,,,,,,182.629,183.1272,,,183.3788,184.1109,right,,,,,,,,0.1,0.7177,,,,,,,183.1273,183.3788,184.1111,"[0.038746974740957514,-0.11882233325173443]","[-1,-1,-1]","[0.1320925123203749,-0.047342459280179154]","[-1,-1,-1]","[-0.03082105061370329,-0.18914053238351108]","[-1,-1,-1]","[-0.015420915176831591,0.1159349108838066]","[-1,-1,-1]","[-0.0676477510799058,0.13012493380506393]","[-1,-1,-1]","[-0.18622001713597014,-0.0035043333194074706]","[-1,-1,-1]","[-0.13510043528069265,0.0984098202800056]","[-1,-1,-1]","[-0.10659600394546859,-0.120052122206553]","[-1,-1,-1]","[0.05775416752986456,-0.04094557246828669]","[-1,-1,-1]","[-0.14382139882792322,-0.10474437753618636]","[-1,-1,-1]","[0.09943849320533883,0.13962363052717452]","[-1,-1,-1]","[0.1896005199317192,-0.04025046051520368]","[-1,-1,-1]","[-0.07124963370634067,0.02525168023834513]","[-1,-1,-1]","[-0.07328491206918576,-0.165189895069969]","[1,1,1]","[-0.02325802907928059,-0.0016687542480390343]","[-1,-1,-1]","[-0.02322462823033597,-0.04255784121351696]","[1,1,1]","[-0.15124386130930095,0.05564567041823473]","[-1,-1,-1]","[0.07601775290734884,-0.16069476368265162]","[-1,-1,-1]","[0.06356439010615006,0.07132147781892538]","[-1,-1,-1]","[-0.1699889617017686,-0.05041833016882788]","[-1,-1,-1]","[-0.11808642645882549,-0.00742850672526018]","[-1,-1,-1]","[-0.10832187535229,0.1605608425984234]","[1,1,1]","[0.021861296983258154,-0.18745255165446115]","[-1,-1,-1]","[0.0499655698457989,0.13957325278962862]","[-1,-1,-1]","[0.14795190089172838,0.05264506197383482]","[-1,-1,-1]","[-0.10536703378225613,-0.07896919313211219]","[-1,-1,-1]","[-0.06788299275169686,0.07904274584052037]","[-1,-1,-1]","[0.10715455803240223,0.0763203142402082]","[-1,-1,-1]","[0.010534626939964774,-0.0811828486516081]","[-1,-1,-1]","[0.0383860725421616,0.018737728206839457]","[-1,-1,-1]","[-0.021332206813951735,0.1819045140491129]","[-1,-1,-1]","[0.08851256164881353,0.0025158896303097904]","[-1,-1,-1]","[0.02,0.02]",185.2105,0,25,25,28,1,,,,,,,
,,,,,,,6650e473608d3961fbf2ddf0,682f0fda2faed57870420ea1,2025-05-22_04h55.18.716,cuing_paradigm_dot,2024.1.5,Win32,29.85074627,682d573fa47f1360d1451895,,,,,,,,,,,185.2117,185.7101,,,185.9666,186.611,left,,,,,,,,0.6,0.6218,,,,,,,185.7103,185.9665,186.6113,"[0.0861740467191937,0.17508198621999563]","[-1,-1,-1]","[-0.06234911266261041,0.05248310730978517]","[1,1,1]","[0.039240554588684654,-0.09773303045056866]","[1,1,1]","[-0.08051303238891327,-0.1578973714002681]","[1,1,1]","[-0.18352733110266306,-0.025763657885350476]","[-1,-1,-1]","[-0.13251312248523808,0.05774193933143649]","[1,1,1]","[0.04534173814846841,-0.14768614424141369]","[-1,-1,-1]","[-0.12851086825728936,-0.10306786481724771]","[1,1,1]","[0.15474601022938228,0.08608100994171378]","[1,1,1]","[-0.005574802298709144,0.10690128026858776]","[1,1,1]","[0.0371191730407293,-0.03365958799164014]","[1,1,1]","[0.03089835459154871,0.01143540088689776]","[1,1,1]","[-0.1285116482810273,0.13783669043156227]","[1,1,1]","[-0.0031411267256768816,-0.09467173082567536]","[-1,-1,-1]","[0.10273551478829651,-0.048818540001064434]","[1,1,1]","[-0.034684504228067944,-0.034005779109016955]","[-1,-1,-1]","[0.008011669890104456,0.04677436188334923]","[-1,-1,-1]","[0.09046736536770975,-0.0909120041603423]","[-1,-1,-1]","[0.12342268549666793,0.111240853513366]","[1,1,1]","[0.047488616860909175,0.12260584496075241]","[1,1,1]","[0.08251733110787894,0.08591952510142946]","[1,1,1]","[0.0057668447720908515,-0.17109898601755422]","[-1,-1,-1]","[-0.19253286453867777,0.018472466193726667]","[1,1,1]","[0.004483438324191092,0.1477182339383892]","[-1,-1,-1]","[0.13617352745849226,0.026259155934228715]","[-1,-1,-1]","[-0.07433507748972526,-0.025956541110371423]","[-1,-1,-1]","[-0.062437978610568365,0.1177393197779585]","[1,1,1]","[0.048031589011241466,0.053645900993997554]","[1,1,1]","[0.1958294082299832,-0.002944338542595971]","[1,1,1]","[-0.13197179473774512,-0.03894366100330478]","[-1,-1,-1]","[-0.04327925000224131,0.16160210824393256]","[1,1,1]","[-0.09248522642629974,0.17067186043077726]","[-1,-1,-1]","[0.02,0.02]",187.7099,0,26,26,169,1,,,,,,,
,,,,,,,6650e473608d3961fbf2ddf0,682f0fda2faed57870420ea1,2025-05-22_04h55.18.716,cuing_paradigm_dot,2024.1.5,Win32,29.85074627,682d573fa47f1360d1451895,,,,,,,,,,,187.7113,188.21,,,188.4611,189.2268,left,,,,,,,,0.6,0.7516,,,,,,,188.21,188.461,189.2269,"[-0.09391342685678354,0.168641949967751]","[-1,-1,-1]","[0.15278108262273377,-0.012333245771467743]","[1,1,1]","[-0.1725030381384253,0.03881052152375558]","[-1,-1,-1]","[-0.11243082897175957,0.08374895059636389]","[1,1,1]","[-0.003354846324236441,0.09178541619040369]","[1,1,1]","[0.12326995037478317,-0.05553375899686657]","[1,1,1]","[0.006961891196844614,-0.06009177542994536]","[-1,-1,-1]","[0.11970417078036176,-0.13330034231305277]","[1,1,1]","[-0.03291718458635129,-0.06434052397129862]","[1,1,1]","[0.16240379508469913,0.09257303265151638]","[-1,-1,-1]","[0.009610535087180084,0.16438250052809258]","[1,1,1]","[-0.05816688486898989,-0.13368178506333914]","[-1,-1,-1]","[0.029679790617205198,-0.1820533179491513]","[1,1,1]","[-0.12423480097003414,-0.1518123026838667]","[-1,-1,-1]","[-0.07987843766289218,0.11956252966539191]","[1,1,1]","[0.07326152421517101,-0.12231442811394369]","[-1,-1,-1]","[0.1500836091329265,-0.0949110970408604]","[1,1,1]","[0.01624699320509445,0.017532589444010337]","[1,1,1]","[-0.1564182383823758,-0.02135013708974481]","[-1,-1,-1]","[-0.09698991731640692,-0.1008164125907527]","[-1,-1,-1]","[0.14847391042348648,0.03392132592608198]","[1,1,1]","[-0.11288579897002185,0.03041741545039808]","[-1,-1,-1]","[-0.14104018814784242,-0.09683644308818071]","[1,1,1]","[0.07631711450630216,0.12938531899486055]","[1,1,1]","[-0.04475894085597154,-0.011299571108252022]","[-1,-1,-1]","[0.05180588217728601,0.08071561673399721]","[1,1,1]","[-0.10761433859268497,-0.050733943220453485]","[-1,-1,-1]","[-0.14900309141221435,0.11779252229153103]","[-1,-1,-1]","[0.18759644609996554,-0.04022587851879972]","[1,1,1]","[-0.08712777945952173,-0.006506583168595433]","[1,1,1]","[-0.1947390040353166,-0.03307742265725501]","[1,1,1]","[0.044897828525304745,-0.04613786821328441]","[1,1,1]","[0.02,0.02]",190.3258,0,27,27,171,1,,,,,,,
,,,,,,,6650e473608d3961fbf2ddf0,682f0fda2faed57870420ea1,2025-05-22_04h55.18.716,cuing_paradigm_dot,2024.1.5,Win32,29.85074627,682d573fa47f1360d1451895,,,,,,,,,,,190.3269,190.8257,,,191.0772,192.2761,left,,,,,,,,0.6,1.1839,,,,,,,190.8258,191.0771,192.2763,"[0.018785465047992028,0.11802093229007828]","[-1,-1,-1]","[-0.07562921375808533,0.1190534175529139]","[-1,-1,-1]","[-0.04811926682974052,-0.15843710943439604]","[1,1,1]","[-0.06401799508537949,-0.1085279502826205]","[1,1,1]","[-0.099016786261815,0.05576483368209686]","[1,1,1]","[-0.02588205464949821,0.06975308906694708]","[1,1,1]","[-0.11654527556826023,-0.005447058897459537]","[-1,-1,-1]","[-0.16319219107075927,0.0640091549772414]","[1,1,1]","[0.06198326725407156,0.06503449378124729]","[-1,-1,-1]","[0.09217914325953651,0.004777804889152917]","[-1,-1,-1]","[0.12468796914320292,0.03546020379746046]","[1,1,1]","[0.027263328740497004,-0.031786726912675374]","[1,1,1]","[-0.021871022473056265,0.11636208426279798]","[1,1,1]","[0.023758963317050182,-0.07501724172252613]","[-1,-1,-1]","[0.09824942848879413,-0.1562957820638963]","[-1,-1,-1]","[-0.14437373171610102,-0.07388088456728596]","[1,1,1]","[0.08247709820686365,-0.08107038489054381]","[1,1,1]","[-0.018941164093644033,0.16303921327635873]","[-1,-1,-1]","[0.1353406148007224,-0.063172532143284]","[1,1,1]","[-0.050726560554829124,-0.008962488158923459]","[-1,-1,-1]","[-0.12483367783528922,-0.14862700035783477]","[-1,-1,-1]","[0.04627443480616256,-0.18961335422265987]","[1,1,1]","[0.011197974566278595,0.03252165280648227]","[1,1,1]","[0.09665974604170281,0.14921326231660226]","[-1,-1,-1]","[0.04049797606145197,-0.11732071537830388]","[-1,-1,-1]","[0.11590096403047156,-0.1064646271181097]","[1,1,1]","[-0.07361333132195809,0.16820186136417675]","[1,1,1]","[0.10057151115554987,0.10782732952081256]","[1,1,1]","[-0.009832616156159841,-0.09891412161567126]","[1,1,1]","[-0.18392019836887794,0.016089710058673833]","[-1,-1,-1]","[0.15820732205329352,-0.01369196380878224]","[1,1,1]","[-0.010535832641196946,-0.1773362899558769]","[1,1,1]","[0.02,0.02]",193.3753,0,28,28,172,1,,,,,,,
,,,,,,,6650e473608d3961fbf2ddf0,682f0fda2faed57870420ea1,2025-05-22_04h55.18.716,cuing_paradigm_dot,2024.1.5,Win32,29.85074627,682d573fa47f1360d1451895,,,,,,,,,,,193.3766,193.8755,,,194.1261,194.9923,left,,,,,,,,0.9,0.8528,,,,,,,193.8756,194.1261,194.9925,"[-0.17488333689873803,0.07843857048652661]","[1,1,1]","[-0.038886202294225014,0.11801663562530945]","[1,1,1]","[-0.08788565546142196,0.06845186168073289]","[1,1,1]","[-0.11287392822157348,-0.09121224979799869]","[1,1,1]","[0.10921150969939111,0.012143360945367753]","[1,1,1]","[-0.0006266644374953484,0.15187364076948506]","[1,1,1]","[-0.15590310504060542,-0.004468322208698544]","[1,1,1]","[0.060916498251928415,-0.008994639704624207]","[-1,-1,-1]","[0.12069147688815358,0.06134003018680734]","[1,1,1]","[-0.09122852948974762,0.11218819990880448]","[1,1,1]","[-0.02797011694484038,-0.16469813373429676]","[-1,-1,-1]","[-0.19522111266536063,-0.0295506299870327]","[1,1,1]","[-0.06195472771409508,0.031358911535146625]","[1,1,1]","[0.1612875892812939,-0.081645361049063]","[1,1,1]","[-0.04780275314643797,-0.010412320919996007]","[1,1,1]","[-0.11632946483639764,0.02711998975141993]","[1,1,1]","[0.11454031893684229,-0.08409480855352798]","[1,1,1]","[0.00952247999203972,-0.12572796628674965]","[1,1,1]","[-0.16467659351333305,-0.10599096912665146]","[1,1,1]","[0.020704058858098732,-0.03038995243937365]","[1,1,1]","[0.16005667141467653,-0.003597084847898579]","[1,1,1]","[0.17562746399632034,0.05978743541936129]","[1,1,1]","[0.035142739743196094,0.13325429894149965]","[1,1,1]","[-0.006653232689654057,0.011580844403781538]","[1,1,1]","[0.15070223321440646,0.11762570527810762]","[1,1,1]","[0.13204084125843657,-0.13865705437084186]","[1,1,1]","[0.008922566670415848,0.09170325199586472]","[1,1,1]","[0.06012488098275046,0.06965772070965802]","[-1,-1,-1]","[-0.04225944491850041,-0.06291582734319907]","[1,1,1]","[-0.10717389979982897,0.14904665352675]","[1,1,1]","[-0.03595370508612738,0.07586976243976516]","[1,1,1]","[0.019493680110724516,0.19432543454016538]","[1,1,1]","[0.02,0.02]",196.0916,0,29,29,200,1,,,,,,,
,,,,,,,6650e473608d3961fbf2ddf0,682f0fda2faed57870420ea1,2025-05-22_04h55.18.716,cuing_paradigm_dot,2024.1.5,Win32,29.85074627,682d573fa47f1360d1451895,,,,,,,,,,,196.0927,196.5916,,,196.843,197.525,left,,,,,,,,0.9,0.6675,,,,,,,196.5918,196.8429,197.5252,"[-0.13857282561540504,0.08214976758344468]","[1,1,1]","[0.05610351888646115,-0.018660046867087363]","[-1,-1,-1]","[-0.014374993222370442,0.0738811359793583]","[1,1,1]","[0.09399856925099648,0.003635159992244625]","[1,1,1]","[0.004604298829118823,-0.11553369707355138]","[-1,-1,-1]","[0.06335878527563937,-0.15356160312954553]","[1,1,1]","[-0.017653423708884623,-0.022611811320190914]","[1,1,1]","[0.1578343391757716,0.03399934034795944]","[1,1,1]","[0.13143441100291212,-0.10129611052039496]","[1,1,1]","[0.02653667791197979,-0.1825676358619653]","[1,1,1]","[0.1984984611719452,0.013301460037335351]","[1,1,1]","[-0.10452219211850657,0.11141283974904322]","[1,1,1]","[-0.11032366577475447,-0.14198420166085335]","[1,1,1]","[-0.04207373566845133,-0.18011697885055877]","[1,1,1]","[0.11072119169254688,0.06709834235979756]","[1,1,1]","[-0.16238417079060657,0.03997371180931034]","[1,1,1]","[0.05709424697595122,0.06217241846619156]","[1,1,1]","[-0.07089532247317998,-0.07190620363980313]","[1,1,1]","[0.10654804365479147,-0.16377790500770234]","[1,1,1]","[0.011387672170495714,0.10725263704173939]","[1,1,1]","[0.08245634487585642,0.10677759424984724]","[-1,-1,-1]","[0.16383046113642524,-0.011883869937183449]","[1,1,1]","[0.05613793799353141,0.151580685453499]","[1,1,1]","[-0.13547051137671923,-0.003991660907286515]","[1,1,1]","[0.038833838580212235,-0.06723995439818939]","[1,1,1]","[-0.08404491699341199,0.18092336908354653]","[1,1,1]","[-0.06926204453025302,0.06872772873216858]","[1,1,1]","[-0.039084949021076267,0.1527081410585523]","[1,1,1]","[-0.038904755659368476,-0.1106160360864167]","[1,1,1]","[0.09309053831275878,-0.08193614053469811]","[1,1,1]","[-0.1348525761191421,-0.057487438847739915]","[1,1,1]","[0.01368364234528419,0.15038681771200785]","[1,1,1]","[0.02,0.02]",198.6243,0,30,30,189,1,,,,,,,
,,,,,,,6650e473608d3961fbf2ddf0,682f0fda2faed57870420ea1,2025-05-22_04h55.18.716,cuing_paradigm_dot,2024.1.5,Win32,29.85074627,682d573fa47f1360d1451895,,,,,,,,,,,198.6256,199.1244,,,199.3749,200.5243,left,,,,,,,,0.5,1.1347,,,,,,,199.1244,199.3749,200.5246,"[0.11736752222248213,-0.02696013084665089]","[-1,-1,-1]","[0.1334235782627294,-0.10421089480491265]","[1,1,1]","[0.0934340244555173,0.06848557516466143]","[-1,-1,-1]","[-0.057653816636437344,-0.019985427725355477]","[-1,-1,-1]","[-0.10351275557619032,-0.08136639804741856]","[1,1,1]","[0.07395018024223671,-0.02608767180699461]","[1,1,1]","[-0.09515625814896451,0.10486206275407271]","[-1,-1,-1]","[-0.06689466598775372,0.1566402692271744]","[1,1,1]","[0.06765355312015969,-0.11606555806462623]","[1,1,1]","[-0.011397157100884138,0.023999173857387104]","[-1,-1,-1]","[0.05303418054681386,-0.076902027842811]","[1,1,1]","[0.07289667484509998,0.02112750804155544]","[1,1,1]","[-0.01311621952686259,0.12082325242862337]","[-1,-1,-1]","[0.03878083885368304,-0.15418437819845274]","[1,1,1]","[0.1345082507428654,0.08960000210181644]","[-1,-1,-1]","[-0.11844604569508205,0.038850647398601716]","[1,1,1]","[-0.06908673684363233,-0.15287399600752785]","[1,1,1]","[-0.003878131943908756,-0.10094632709631825]","[-1,-1,-1]","[-0.1835853535890579,0.06150500538574154]","[1,1,1]","[0.0830132253473504,0.14213375239329912]","[-1,-1,-1]","[0.029296129190670327,0.009840138425707362]","[-1,-1,-1]","[-0.14820812313267773,-0.028397011850052032]","[1,1,1]","[0.04857573645710271,0.10393152872069379]","[1,1,1]","[0.022428318278989706,0.1492798037797938]","[-1,-1,-1]","[0.00021817705047910918,0.19112438284848693]","[-1,-1,-1]","[-0.1353981546051913,0.11351749499858842]","[-1,-1,-1]","[-0.14159352722786744,-0.13335050430304513]","[1,1,1]","[0.1310866470420528,0.016580876856799223]","[1,1,1]","[-0.10643837667010941,-0.03405913422251565]","[-1,-1,-1]","[-0.19544688734756055,0.01971902842526893]","[1,1,1]","[-0.007787007898203037,-0.1977811500297415]","[-1,-1,-1]","[0.19428669539893056,-0.03047641250859707]","[-1,-1,-1]","[0.02,0.02]",201.6236,0,31,31,113,1,,,,,,,
,,,,,,,6650e473608d3961fbf2ddf0,682f0fda2faed57870420ea1,2025-05-22_04h55.18.716,cuing_paradigm_dot,2024.1.5,Win32,29.85074627,682d573fa47f1360d1451895,,,,,,,,,,,201.6247,202.1237,,,202.3752,203.1269,left,,,,,,,,0.45,0.7422,,,,,,,202.1237,202.3751,203.127,"[-0.10429956791187499,0.05711424197485377]","[-1,-1,-1]","[0.07557574298954035,0.1487528563451489]","[-1,-1,-1]","[0.14996523628366074,-0.012729436061015068]","[-1,-1,-1]","[0.12116858485815439,-0.0484686934551868]","[-1,-1,-1]","[-0.05987685775133573,-0.10592320246872926]","[1,1,1]","[0.09854166893703782,-0.161943258736311]","[-1,-1,-1]","[-0.06403112022111417,0.1599645356832653]","[1,1,1]","[-0.1816012209833334,0.04696391297696123]","[-1,-1,-1]","[-0.013649260927617337,-0.1364618207984483]","[-1,-1,-1]","[-0.18578215930562328,-0.06439557203050728]","[1,1,1]","[0.14887496339787357,0.08218635093966915]","[-1,-1,-1]","[0.04217363565635163,0.005234935014786537]","[-1,-1,-1]","[-0.06072165752084949,0.07192991623622802]","[1,1,1]","[-0.10937212274049646,0.009982527366089932]","[-1,-1,-1]","[0.1717411761289326,-0.08589888401246809]","[-1,-1,-1]","[0.0514801890608678,0.047282146108586574]","[1,1,1]","[0.13082150824604513,0.02813097483836913]","[-1,-1,-1]","[0.09372153532004208,0.011285397580830041]","[-1,-1,-1]","[0.10141825581138825,0.09498696878173273]","[1,1,1]","[-0.03771216847134286,0.11192170333713375]","[-1,-1,-1]","[-0.15554497461704475,-0.017603322055511347]","[1,1,1]","[0.010536753708003992,0.18161901878403844]","[1,1,1]","[0.029664748092028934,0.11203099988118116]","[-1,-1,-1]","[-0.030053987368543738,0.04281844009613471]","[1,1,1]","[0.10853474694859805,-0.10505132879725546]","[1,1,1]","[-0.11671049133406534,0.12100705101058346]","[1,1,1]","[-0.09387736917576611,-0.15733740994536266]","[-1,-1,-1]","[-0.07472655573367966,-0.06819376463216846]","[1,1,1]","[-0.048118921713999264,-0.016335151606104548]","[-1,-1,-1]","[0.06598118338786475,-0.1185118144122854]","[1,1,1]","[-0.008503408465543321,-0.024861079891424543]","[-1,-1,-1]","[0.02413297938848679,-0.08447605562929612]","[1,1,1]","[0.02,0.02]",204.2233,0,32,32,73,1,,,,,,,
,,,,,,,6650e473608d3961fbf2ddf0,682f0fda2faed57870420ea1,2025-05-22_04h55.18.716,cuing_paradigm_dot,2024.1.5,Win32,29.85074627,682d573fa47f1360d1451895,,,,,,,,,,,204.2245,204.7235,,,204.9738,205.5566,left,,,,,,,,0.9,0.5678,,,,,,,204.7236,204.9737,205.5567,"[0.06406586712672739,-0.13563934907507613]","[1,1,1]","[-0.020166999880275826,-0.014911288842503166]","[1,1,1]","[-0.14398155487543676,-0.08527744376427744]","[1,1,1]","[0.018161024178831472,0.057549091613548695]","[1,1,1]","[0.0034182531228341335,-0.11652756151678827]","[1,1,1]","[-0.13863850365761118,-0.005257180850210079]","[1,1,1]","[0.05519308275451992,0.07801308182154085]","[1,1,1]","[0.190641611735899,-0.029646089001299787]","[1,1,1]","[-0.07828600037097759,-0.09681461937641729]","[1,1,1]","[0.10956289683678844,-0.050963857783675716]","[1,1,1]","[-0.1135304828567706,0.1546632904808614]","[1,1,1]","[0.15440757805375363,0.03427269390178508]","[1,1,1]","[-0.02945684607653145,0.03757999526372583]","[1,1,1]","[0.10489669469757992,0.1625992544373314]","[1,1,1]","[0.11285227327576978,0.01661623544531147]","[1,1,1]","[-0.16888658329208622,0.03812959406416342]","[-1,-1,-1]","[0.029720698109311473,-0.1619827327703854]","[1,1,1]","[-0.03221813753753201,0.16379324063414555]","[1,1,1]","[-0.008910730637752998,-0.19037546013299278]","[1,1,1]","[-0.16381542790673037,0.07859326655343643]","[1,1,1]","[0.10720318063762962,-0.09412101320677664]","[1,1,1]","[0.03590504944182955,0.17621497536472183]","[1,1,1]","[0.09754771968133077,0.05430438911583731]","[1,1,1]","[-0.04043857062238593,0.11385506911803592]","[-1,-1,-1]","[0.01687239180596673,-0.066240550864287]","[1,1,1]","[0.16195438424869743,0.10685629952967278]","[1,1,1]","[-0.0918199730342819,-0.14037878809275348]","[1,1,1]","[-0.07368445781880471,-0.038389318011436614]","[1,1,1]","[0.14389839249296626,-0.12469195691674477]","[1,1,1]","[0.030360977933672626,-0.02574727380750065]","[1,1,1]","[-0.12525639110926265,0.050476828206408864]","[-1,-1,-1]","[-0.14666011367120343,0.11778247082041253]","[1,1,1]","[0.02,0.02]",206.6563,0,33,33,206,1,,,,,,,
,,,,,,,6650e473608d3961fbf2ddf0,682f0fda2faed57870420ea1,2025-05-22_04h55.18.716,cuing_paradigm_dot,2024.1.5,Win32,29.85074627,682d573fa47f1360d1451895,,,,,,,,,,,206.6574,207.1563,,,207.4066,208.0563,left,,,,,,,,0.45,0.6358,,,,,,,207.1564,207.4066,208.0568,"[-0.036556916253257854,-0.01370077376289793]","[1,1,1]","[-0.047625778302660335,-0.1828878951876137]","[-1,-1,-1]","[0.1695642509405664,-0.018528083719431137]","[1,1,1]","[0.013029195961775663,-0.175935564377945]","[-1,-1,-1]","[0.04894283828709303,0.052806711148439184]","[1,1,1]","[0.09309228237173924,0.17165704240462792]","[-1,-1,-1]","[-0.00854863782637914,-0.10244247194824053]","[-1,-1,-1]","[-0.09636272876552386,0.1465259611428606]","[1,1,1]","[-0.1200186476880529,-0.03236975554186011]","[-1,-1,-1]","[0.11888358303571932,-0.05462902156232807]","[-1,-1,-1]","[0.025580166893529765,0.10869637927977621]","[1,1,1]","[-0.037902805657214704,0.1438467669357192]","[1,1,1]","[-0.1505951936257202,0.022578173146647985]","[-1,-1,-1]","[-0.022781051761758906,0.07017807271107813]","[-1,-1,-1]","[-0.031100963910198433,-0.06732839639011433]","[1,1,1]","[0.13783571350448623,0.05039730629507171]","[-1,-1,-1]","[0.11093060906764277,-0.15025356331915152]","[-1,-1,-1]","[0.05316010294381239,-0.058768284674999303]","[-1,-1,-1]","[0.07321603713000299,-0.17620012089302908]","[1,1,1]","[0.099147916029726,0.025915991354707464]","[1,1,1]","[0.08821497421702976,-0.021026935143085006]","[-1,-1,-1]","[-0.057982336270961825,0.18008147279367348]","[-1,-1,-1]","[0.1363510242424736,0.09063430093483286]","[1,1,1]","[0.058052611384094795,0.012167176972330631]","[-1,-1,-1]","[-0.13018441689613774,0.10966130790512071]","[-1,-1,-1]","[-0.09180376632828813,-0.08056183738005704]","[1,1,1]","[-0.15672972046852537,-0.0811456723220983]","[1,1,1]","[-0.1648173336493857,0.08022952656582]","[1,1,1]","[0.028917448834485066,0.19223112613849785]","[-1,-1,-1]","[-0.170933206315256,-0.03779836980923866]","[-1,-1,-1]","[0.03844636587177419,-0.1433964089872428]","[1,1,1]","[-0.10021087311917568,-0.15512651261145288]","[-1,-1,-1]","[0.02,0.02]",209.1559,0,34,34,84,1,,,,,,,
,,,,,,,6650e473608d3961fbf2ddf0,682f0fda2faed57870420ea1,2025-05-22_04h55.18.716,cuing_paradigm_dot,2024.1.5,Win32,29.85074627,682d573fa47f1360d1451895,,,,,,,,,,,209.1571,209.6557,,,209.9071,210.9098,left,,,,,,,,0.55,0.9938,,,,,,,209.6557,209.9069,210.91,"[-0.1840304811252919,-0.04753305667247518]","[-1,-1,-1]","[0.08359239058298538,-0.1753911181194415]","[-1,-1,-1]","[0.15309836462365647,-0.06742996399274163]","[-1,-1,-1]","[-0.11451887991940433,0.13006113541725559]","[-1,-1,-1]","[-0.01675562976561374,0.18701170229229142]","[1,1,1]","[0.08220033057891188,-0.12053605486479495]","[-1,-1,-1]","[-0.06503549611272696,0.032337398909421056]","[-1,-1,-1]","[0.028349297158228932,-0.022188157722988905]","[1,1,1]","[-0.0651249455705235,0.17232689598996798]","[-1,-1,-1]","[0.13102411697369815,0.11849360700083154]","[1,1,1]","[-0.13513850145232206,0.05573492086729801]","[1,1,1]","[0.17037867781423244,0.0495606629203437]","[1,1,1]","[-0.07826284093489765,-0.09980724086590403]","[1,1,1]","[-0.008519230644010476,-0.1767842003731496]","[1,1,1]","[-0.17941066128702693,0.059691053268931954]","[-1,-1,-1]","[0.009247067206895039,0.1319124777029422]","[1,1,1]","[0.044964304554385284,-0.1399120914675633]","[-1,-1,-1]","[0.12141058925680842,0.0658112848889588]","[1,1,1]","[0.11899777215710515,-0.09136337698861054]","[1,1,1]","[-0.1250247608619714,0.00859534756693949]","[-1,-1,-1]","[0.15969296896212035,0.003535260157668734]","[1,1,1]","[-0.16777205059194575,0.015076063272488735]","[1,1,1]","[-0.05864218497779255,-0.03395936781946168]","[-1,-1,-1]","[0.015993990188939315,0.034637962478071244]","[1,1,1]","[0.024713965684949046,-0.0656731924915624]","[1,1,1]","[-0.0614496591334074,0.09534079230259893]","[1,1,1]","[0.041238350558873774,0.16481864515465203]","[1,1,1]","[0.06964467641561985,-0.05061341836560045]","[-1,-1,-1]","[-0.1485904572618513,-0.07800832309619463]","[-1,-1,-1]","[-0.027428936419909015,-0.09513602484400377]","[-1,-1,-1]","[0.13337185768069315,-0.14526510637449205]","[1,1,1]","[0.06692998089178084,0.07725897701135052]","[1,1,1]","[0.02,0.02]",212.0049,0,35,35,126,1,,,,,,,
,,,,,,,6650e473608d3961fbf2ddf0,682f0fda2faed57870420ea1,2025-05-22_04h55.18.716,cuing_paradigm_dot,2024.1.5,Win32,29.85074627,682d573fa47f1360d1451895,,,,,,,,,,,212.0065,212.5051,,,212.7564,213.3052,left,,,,,,,,0.9,0.5383,,,,,,,212.5051,212.7563,213.3054,"[0.147570621047759,-0.03371794922035957]","[1,1,1]","[0.07966920650891948,-0.16320425273228864]","[1,1,1]","[-0.019116522920974488,0.13708079946928786]","[1,1,1]","[0.06516310410721875,0.18417802742005124]","[1,1,1]","[-0.15275427404632572,0.09841379124008431]","[1,1,1]","[-0.004337820340511043,-0.005363803758929385]","[1,1,1]","[0.030824297983139477,0.09339775944163899]","[-1,-1,-1]","[0.11411375471447131,-0.09694528464410718]","[1,1,1]","[0.04957694686518442,-0.07480073230608437]","[1,1,1]","[-0.14155713207702825,-0.11354523748824144]","[1,1,1]","[0.04677957610094088,0.1410994594560388]","[1,1,1]","[0.07906213479427195,0.04459889058805206]","[-1,-1,-1]","[-0.11725433253379312,-0.08120403306713726]","[1,1,1]","[0.010841293878276712,0.17247448572041937]","[1,1,1]","[-0.10390378749330917,-0.006620828318240684]","[1,1,1]","[0.06115602169534789,-0.11566659370392575]","[1,1,1]","[-0.0432079977579334,-0.059437208120120565]","[1,1,1]","[0.1311717843372906,0.04889012093352549]","[1,1,1]","[0.03865574817705528,-0.1605590756443242]","[1,1,1]","[-0.18483857346521776,-0.06029066466852626]","[1,1,1]","[0.1332244382399351,0.09732354555599088]","[1,1,1]","[-0.05970406863731024,0.10691982777943469]","[1,1,1]","[-0.04349263984105624,0.02165027238109008]","[1,1,1]","[-0.182999770110896,0.06292942626256552]","[-1,-1,-1]","[-0.019033129349221096,0.09685802451335469]","[1,1,1]","[-0.001313466319908568,-0.08647458285521493]","[1,1,1]","[0.08653666791026052,-0.02600770102731]","[1,1,1]","[-0.14019579173536198,-0.047695383287331486]","[1,1,1]","[0.18345672513737898,-0.0772482966909982]","[1,1,1]","[0.09134700693411663,0.12303591463916252]","[1,1,1]","[0.0031096931908137946,0.06321915881526352]","[1,1,1]","[-0.08480013521041839,0.14718142117770708]","[1,1,1]","[0.02,0.02]",214.4048,0,36,36,207,1,,,,,,,
,,,,,,,6650e473608d3961fbf2ddf0,682f0fda2faed57870420ea1,2025-05-22_04h55.18.716,cuing_paradigm_dot,2024.1.5,Win32,29.85074627,682d573fa47f1360d1451895,,,,,,,,,,,214.4062,214.9046,,,215.1591,215.5881,right,,,,,,,,0.45,0.4051,,,,,,,214.9047,215.1589,215.5883,"[-0.07098415979810811,0.02038613628261706]","[1,1,1]","[-0.1219765321628064,0.059803783150871294]","[-1,-1,-1]","[0.05279300516440745,-0.07761114861958195]","[-1,-1,-1]","[0.07091366191483833,0.012003970878348405]","[-1,-1,-1]","[0.10385732603830154,-0.05346624458567225]","[1,1,1]","[0.1404504408446382,0.03771850281525654]","[-1,-1,-1]","[0.034012382614586736,-0.190764580619471]","[1,1,1]","[0.13786344842599882,-0.10633765008104328]","[1,1,1]","[-0.10134571716758718,-0.13256603626032387]","[1,1,1]","[-0.030117885841559413,0.08938311116623951]","[1,1,1]","[0.054048448597577306,0.12663309853910817]","[-1,-1,-1]","[-0.033434264819658506,-0.14546531427890572]","[1,1,1]","[0.11654159643927171,0.11785593182423974]","[1,1,1]","[0.02865710385986203,-0.14684558178579754]","[1,1,1]","[-0.09138112623128013,0.17176043498763238]","[-1,-1,-1]","[-0.030089644732542917,-0.08033317924116493]","[-1,-1,-1]","[0.06720795785583292,-0.1347252200443115]","[1,1,1]","[-0.07009471106945436,-0.039272887172855826]","[-1,-1,-1]","[-0.17055663005130556,0.01614371012576356]","[1,1,1]","[-0.023889575687473102,0.19357819941466747]","[-1,-1,-1]","[0.0304148121730022,-0.03089695009379038]","[-1,-1,-1]","[-0.1688898933829374,-0.028744413083285143]","[-1,-1,-1]","[-0.08444261413266534,0.10472019393879696]","[-1,-1,-1]","[-0.01551780202306162,0.14148645431945553]","[1,1,1]","[0.17937163772426296,0.053980695243679086]","[-1,-1,-1]","[0.16274034129318082,-0.07418542998387434]","[-1,-1,-1]","[-0.019920252575240254,-0.008970345996863725]","[1,1,1]","[-0.003654908797207842,0.02912506049999572]","[-1,-1,-1]","[0.04209916057523838,0.08055827500432418]","[-1,-1,-1]","[0.10104339837196838,-0.15768304068270703]","[-1,-1,-1]","[0.008726832141079301,-0.10806162622211558]","[1,1,1]","[-0.10636055951013175,-0.05934195833219065]","[-1,-1,-1]","[0.02,0.02]",216.6877,0,37,37,69,1,,,,,,,
,,,,,,,6650e473608d3961fbf2ddf0,682f0fda2faed57870420ea1,2025-05-22_04h55.18.716,cuing_paradigm_dot,2024.1.5,Win32,29.85074627,682d573fa47f1360d1451895,,,,,,,,,,,216.6892,217.1873,,,217.4381,218.0033,left,,,,,,,,0.55,0.5489,,,,,,,217.1873,217.4381,218.0034,"[-0.1164912420965219,0.10753908621898195]","[1,1,1]","[0.08775403393048985,-0.0086215373607901]","[1,1,1]","[-0.008399240546175276,-0.1566807034529795]","[1,1,1]","[-0.12219835760250447,-0.0006483361493343517]","[1,1,1]","[0.16195072997118018,-0.11600374005923002]","[-1,-1,-1]","[-0.0064787065690708745,0.1763857651444043]","[1,1,1]","[-0.009947974460103256,0.07783101283962045]","[-1,-1,-1]","[0.02992904289712383,0.04314282278239201]","[1,1,1]","[0.09313075136676104,-0.11542704715998936]","[-1,-1,-1]","[0.1855909023062684,-0.06868797291933855]","[-1,-1,-1]","[0.01594262099515637,-0.10026388100598924]","[1,1,1]","[0.05105381587428997,-0.06260413297981685]","[1,1,1]","[0.1640335138723334,0.02428684835629153]","[1,1,1]","[-0.17531023791524472,-0.04963673158078819]","[-1,-1,-1]","[-0.0029271945807594728,-0.034824841844500506]","[1,1,1]","[-0.024233029802960094,-0.07333472398937566]","[1,1,1]","[-0.09415068478463187,-0.15251393637973515]","[1,1,1]","[-0.032397189356431905,-0.11892672164474112]","[-1,-1,-1]","[0.14221189250562966,-0.05950825793931944]","[1,1,1]","[-0.12089876062737007,0.04884874285781484]","[-1,-1,-1]","[-0.061441398839875934,-0.047379386748944693]","[-1,-1,-1]","[-0.04994130559181312,0.03445256913861425]","[-1,-1,-1]","[0.17194251703656727,0.09345521322271687]","[-1,-1,-1]","[-0.1665962900140392,0.03479186654485496]","[-1,-1,-1]","[0.03150427234136446,-0.17063340964002935]","[1,1,1]","[-0.08384698670878424,0.17003404403640907]","[1,1,1]","[0.0953096628359776,0.07446116435399482]","[-1,-1,-1]","[-0.16279075057199388,0.07569990668960558]","[1,1,1]","[0.17680225534537736,-0.025489378256170477]","[1,1,1]","[0.02276563361855117,0.12318636785911408]","[1,1,1]","[-0.08147754406568761,-0.09326458413815476]","[-1,-1,-1]","[0.12240069438296207,0.13665026493660862]","[-1,-1,-1]","[0.02,0.02]",219.1037,0,38,38,142,1,,,,,,,
,,,,,,,6650e473608d3961fbf2ddf0,682f0fda2faed57870420ea1,2025-05-22_04h55.18.716,cuing_paradigm_dot,2024.1.5,Win32,29.85074627,682d573fa47f1360d1451895,,,,,,,,,,,219.1051,219.6035,,,219.8592,220.6722,left,,,,,,,,0.5,0.7976,,,,,,,219.6036,219.859,220.6724,"[-0.07789034539457894,0.10479814768582889]","[1,1,1]","[0.027066092697516933,0.09649227451534532]","[-1,-1,-1]","[-0.05278830496923309,-0.10257178786551092]","[-1,-1,-1]","[0.14563465950596158,-0.1120320066240998]","[-1,-1,-1]","[-0.17562794036924137,-0.010456753800486348]","[-1,-1,-1]","[-0.1134520979460387,0.08035149860892556]","[-1,-1,-1]","[0.12785145323558642,0.05214980827705434]","[1,1,1]","[-0.05754136641567789,0.15956978837819105]","[1,1,1]","[-0.12350307081874946,-0.12026264203911952]","[-1,-1,-1]","[0.06675953153243161,-0.08018688249923601]","[1,1,1]","[0.17639835159088887,0.0687130901285602]","[1,1,1]","[0.07879588227647014,0.09884635396703934]","[1,1,1]","[0.1557540668863199,0.009543304556443689]","[1,1,1]","[0.01143743603771236,-0.03235590433309965]","[-1,-1,-1]","[-0.07996606257576468,-0.07086842613606374]","[-1,-1,-1]","[0.1322759729178669,0.1308787450192416]","[1,1,1]","[0.025491781820235745,0.012970196637558131]","[1,1,1]","[-0.009310570668262125,-0.13077778196601852]","[1,1,1]","[0.06153800747659202,-0.16421726844007623]","[1,1,1]","[0.15140761508027717,-0.07212666146114546]","[1,1,1]","[-0.06250321476772319,0.049642123415931085]","[-1,-1,-1]","[0.07278125970197344,-0.0067573804746551246]","[1,1,1]","[0.10447350153051559,0.16431873555010496]","[1,1,1]","[0.10644615690932713,-0.030135759238396204]","[-1,-1,-1]","[0.013735815316617966,0.17716198111597414]","[1,1,1]","[0.014225751712867015,-0.09314652223920689]","[-1,-1,-1]","[-0.034287061709800615,-0.021697629955712176]","[-1,-1,-1]","[-0.008078448258347271,0.07288733070057557]","[1,1,1]","[-0.0034572692085216507,0.1300095358213214]","[-1,-1,-1]","[-0.16431595096640508,0.10320789015998305]","[-1,-1,-1]","[-0.13643064270895147,0.04036045827099969]","[-1,-1,-1]","[-0.0628101947351144,-0.14923283115289152]","[-1,-1,-1]","[0.02,0.02]",221.7696,0,39,39,91,1,,,,,,,
,,,,,,,6650e473608d3961fbf2ddf0,682f0fda2faed57870420ea1,2025-05-22_04h55.18.716,cuing_paradigm_dot,2024.1.5,Win32,29.85074627,682d573fa47f1360d1451895,,,,,,,,,,,221.7713,222.2698,,,222.5205,223.0709,right,,,,,,,,0.4,0.5444,,,,,,,222.2698,222.5204,223.0714,"[-0.08459101528977106,0.011580259696801732]","[1,1,1]","[-0.13504534746518948,-0.03781103808272108]","[-1,-1,-1]","[0.045684085804619516,0.07549300818633087]","[1,1,1]","[-0.0368990352139063,-0.017977596829984906]","[1,1,1]","[0.09405777525106901,-0.1548964999447294]","[-1,-1,-1]","[-0.03367154225824702,0.06956925809401789]","[-1,-1,-1]","[0.11683114449112104,-0.06678468416210091]","[-1,-1,-1]","[-0.1319786354941312,0.0913929554463066]","[1,1,1]","[-0.014791400196193981,-0.18411889411626806]","[-1,-1,-1]","[0.008935298115178623,0.12761070605907351]","[1,1,1]","[-0.1532913845888198,-0.11036583822684104]","[-1,-1,-1]","[-0.11382375687776997,-0.09207595999945431]","[1,1,1]","[-0.09304321561176278,-0.033436914112887815]","[1,1,1]","[0.09809739324039334,0.050154017211293145]","[-1,-1,-1]","[0.14555202808217169,-0.1037592630200943]","[-1,-1,-1]","[0.04661008352968309,-0.09984789129181085]","[-1,-1,-1]","[0.07782751476537988,0.12463220805341128]","[-1,-1,-1]","[0.03475662749228612,-0.17083315668728477]","[-1,-1,-1]","[0.17651834046100795,-0.01573723899667767]","[-1,-1,-1]","[0.0061297114327213,-0.09971549333524746]","[1,1,1]","[0.10104694083082862,0.00144853802727808]","[1,1,1]","[-0.03940856597087447,-0.07625438029177703]","[-1,-1,-1]","[-0.011997159024033794,-0.13854177090123562]","[-1,-1,-1]","[0.1533685577116985,0.07416261606497519]","[1,1,1]","[-0.17978120941926376,0.0709849023319905]","[-1,-1,-1]","[0.05142318059078681,0.005084245293808358]","[-1,-1,-1]","[-0.09153961612021763,0.10456020476485872]","[1,1,1]","[-0.019628122499614584,0.18077026862308843]","[-1,-1,-1]","[0.15719570987793907,-0.05177170932246844]","[-1,-1,-1]","[-0.030482035164068767,0.10980341195510106]","[1,1,1]","[-0.06368108969030535,-0.13215664248699746]","[-1,-1,-1]","[-0.08231383679139874,0.17655574364158125]","[1,1,1]","[0.02,0.02]",224.1695,0,40,40,41,1,,,,,,,
,,,,,,,6650e473608d3961fbf2ddf0,682f0fda2faed57870420ea1,2025-05-22_04h55.18.716,cuing_paradigm_dot,2024.1.5,Win32,29.85074627,682d573fa47f1360d1451895,,,,,,,,,,,224.1708,224.6694,,,224.9198,225.8693,left,,,,,,,,0.9,0.94,,,,,,,224.6694,224.9198,225.8695,"[-0.07659081749725494,-0.03674463108985908]","[1,1,1]","[-0.11854311006346208,0.1178915234188866]","[1,1,1]","[-0.06669455936448236,0.10254875550865979]","[1,1,1]","[-0.027850840093640902,-0.16958018453644894]","[1,1,1]","[0.10771431079646987,0.06731418571772216]","[1,1,1]","[0.04621457464333107,0.12990181099713288]","[1,1,1]","[0.02260311433594581,-0.006590756312600459]","[1,1,1]","[0.11277799846385131,0.14686997349414008]","[1,1,1]","[0.18242330325481623,-0.04019436364784423]","[1,1,1]","[0.1154844908854835,-0.028964980357288884]","[-1,-1,-1]","[0.17894235563190405,0.056704275235937365]","[1,1,1]","[-0.049369427778473994,0.18291450595248446]","[-1,-1,-1]","[0.005636634683132583,-0.19812205714657094]","[1,1,1]","[0.19493242926040605,0.016819557731538606]","[1,1,1]","[0.05494322480671615,0.058085943776997676]","[1,1,1]","[0.14833337389087842,0.026432364095990195]","[1,1,1]","[-0.13592314853479986,0.0015503988425299526]","[1,1,1]","[-0.07993310906065088,0.04458291278227776]","[1,1,1]","[0.14812578013063443,0.09281302023957957]","[1,1,1]","[0.13877379341458843,-0.14219671570581896]","[1,1,1]","[0.046683997577687236,-0.06967983924123354]","[1,1,1]","[-0.02674101386318574,0.0971790630424673]","[1,1,1]","[0.04866017638997309,-0.13117341183036413]","[1,1,1]","[-0.02589850191749406,0.012435735110700927]","[1,1,1]","[0.007311937935957491,0.14165337148940843]","[1,1,1]","[0.15169062693064136,-0.08450228450716488]","[1,1,1]","[-0.17945826511796964,-0.07442580210478955]","[1,1,1]","[0.061387880211073005,-0.02299415856577243]","[1,1,1]","[-0.08529080422069729,-0.16152320456624253]","[1,1,1]","[-0.1602379955785477,0.08817881772401917]","[1,1,1]","[-0.123551998465918,-0.07324833747939656]","[-1,-1,-1]","[0.07434899441884488,0.18464357667115855]","[1,1,1]","[0.02,0.02]",226.969,0,41,41,191,1,,,,,,,
,,,,,,,6650e473608d3961fbf2ddf0,682f0fda2faed57870420ea1,2025-05-22_04h55.18.716,cuing_paradigm_dot,2024.1.5,Win32,29.85074627,682d573fa47f1360d1451895,,,,,,,,,,,226.9702,227.4689,,,227.723,228.3224,left,,,,,,,,0.6,0.5825,,,,,,,227.4689,227.7229,228.3225,"[0.18869397324884138,-0.03402597242479796]","[-1,-1,-1]","[0.05257890016338385,-0.15041693089456937]","[1,1,1]","[-0.07781385103729987,-0.06478683020819202]","[-1,-1,-1]","[0.10756272594584064,-0.020419642492123947]","[1,1,1]","[0.046534574560749935,-0.01607676153545498]","[1,1,1]","[-0.07874841186057,0.06437411257283174]","[1,1,1]","[0.1275846803379059,0.1452374349214137]","[1,1,1]","[-0.17484963871557488,-0.013335496458458088]","[1,1,1]","[0.14359365323217707,0.05953477636200972]","[1,1,1]","[-0.12372130044640661,0.10280311444497148]","[1,1,1]","[-0.06462692222638028,0.16748262304453446]","[-1,-1,-1]","[0.07834617045833535,-0.09871328123341457]","[-1,-1,-1]","[0.16229208425802596,-0.09743664998979222]","[1,1,1]","[-0.02011489261275742,-0.09527991442726932]","[-1,-1,-1]","[-0.11233265317297307,-0.034709967851380814]","[1,1,1]","[-0.1110688227346255,0.008724116966592501]","[1,1,1]","[0.1027171662105574,0.0315111268139761]","[1,1,1]","[-0.01859129482261587,0.18386398366387674]","[1,1,1]","[0.07850701116377717,-0.04824833200161171]","[1,1,1]","[-0.009006168228738308,0.012899892691759432]","[1,1,1]","[-0.08656037693917014,-0.16885979170234897]","[-1,-1,-1]","[0.07739557367071008,0.10549547256725382]","[-1,-1,-1]","[-0.0026251482123844086,0.054689275037117575]","[1,1,1]","[0.1146456104406257,-0.1155938823408322]","[-1,-1,-1]","[-0.11795283471360658,0.14293402759934168]","[-1,-1,-1]","[-0.026125662897022537,-0.19668702516157757]","[1,1,1]","[0.18172978359208192,0.03237116244530354]","[1,1,1]","[-0.12440556774661128,-0.13098248642094615]","[1,1,1]","[-0.0617317963275818,0.0007626412693085488]","[-1,-1,-1]","[-0.07715007308478491,-0.10603162371928657]","[-1,-1,-1]","[0.056180715917343076,0.1702618051532463]","[-1,-1,-1]","[0.03776982402054642,-0.18948590951365776]","[-1,-1,-1]","[0.02,0.02]",229.4184,0,42,42,175,1,,,,,,,
,,,,,,,6650e473608d3961fbf2ddf0,682f0fda2faed57870420ea1,2025-05-22_04h55.18.716,cuing_paradigm_dot,2024.1.5,Win32,29.85074627,682d573fa47f1360d1451895,,,,,,,,,,,229.4196,229.9183,,,230.1722,230.7527,left,,,,,,,,0.45,0.5562,,,,,,,229.9184,230.1722,230.753,"[-0.10623141567565288,-0.11446060293440531]","[1,1,1]","[-0.13987349502266172,-0.1397639025708355]","[1,1,1]","[0.013931756353164541,-0.04122030785273339]","[-1,-1,-1]","[-0.13543084388563958,0.08827369406514683]","[-1,-1,-1]","[0.05283477490898118,0.17134769649338985]","[-1,-1,-1]","[0.19325076677442818,0.03450485493032897]","[1,1,1]","[-0.11875196551045834,0.05063171477030049]","[1,1,1]","[-0.07679985997474816,0.10146378021122186]","[1,1,1]","[0.19909478290720306,-0.006130465954571753]","[1,1,1]","[0.07720390992005129,-0.18024128514114973]","[-1,-1,-1]","[0.05453115556083652,-0.09053162122416529]","[-1,-1,-1]","[-0.1776288003490853,0.07198121674908707]","[1,1,1]","[0.009762113719972139,-0.11703200420538597]","[-1,-1,-1]","[0.026973409498859364,-0.1577208179778257]","[-1,-1,-1]","[-0.01891530972910591,0.1770326806238492]","[-1,-1,-1]","[0.12214670627372168,0.014394762421958399]","[-1,-1,-1]","[-0.001675167614509876,0.012000577233621725]","[-1,-1,-1]","[-0.058795632960431776,0.16878947767922373]","[1,1,1]","[-0.08047597701732306,-0.05552630843072157]","[-1,-1,-1]","[-0.0444916132656295,-0.014295886750617649]","[-1,-1,-1]","[0.14874913602006815,-0.06283300722470754]","[-1,-1,-1]","[-0.13479220534480468,-0.03989647347610251]","[-1,-1,-1]","[0.16512050345939586,0.08662923208946034]","[1,1,1]","[0.04065395772464679,0.11965392638138868]","[1,1,1]","[-0.013191782417111891,-0.19307772303837173]","[1,1,1]","[0.09983643778545588,-0.06958538574311145]","[-1,-1,-1]","[-0.17464878889817592,-0.03377309126153789]","[1,1,1]","[-0.05480142526976584,0.05865058678490917]","[-1,-1,-1]","[-0.1199587194189166,0.14003118893865846]","[1,1,1]","[-0.14829892064287478,-0.09001952079627823]","[-1,-1,-1]","[0.10538743507388837,0.09058194460977569]","[1,1,1]","[-0.019174081136851817,-0.08302312774095766]","[-1,-1,-1]","[0.02,0.02]",231.8511,0,43,43,85,1,,,,,,,
,,,,,,,6650e473608d3961fbf2ddf0,682f0fda2faed57870420ea1,2025-05-22_04h55.18.716,cuing_paradigm_dot,2024.1.5,Win32,29.85074627,682d573fa47f1360d1451895,,,,,,,,,,,231.853,232.3513,,,232.6045,232.8517,right,,,,,,,,0.1,0.2216,,,,,,,232.3515,232.6044,232.852,"[0.18535007257583166,-0.03066145691161925]","[-1,-1,-1]","[0.11953507878800153,0.14768071111285327]","[-1,-1,-1]","[0.0620412693907716,-0.05363764482268463]","[-1,-1,-1]","[-0.09867835417907925,0.15302266403935463]","[-1,-1,-1]","[-0.05318888311449859,-0.16587619001330145]","[-1,-1,-1]","[0.009199811874192219,0.18502769802332353]","[-1,-1,-1]","[-0.04819805691998572,0.05611540527658743]","[1,1,1]","[0.03598278000635821,0.15273819841463773]","[1,1,1]","[-0.07465594256198659,-0.07349838695925848]","[-1,-1,-1]","[-0.02763006225368987,-0.0672355700060929]","[-1,-1,-1]","[0.1317616418988076,-0.061726327962704074]","[-1,-1,-1]","[0.06460388003955979,0.09756884154158484]","[-1,-1,-1]","[0.05782744902780704,0.1912504362982807]","[-1,-1,-1]","[0.06021471232246306,0.017662695416187528]","[-1,-1,-1]","[-0.1343618674701843,-0.10764500867674985]","[-1,-1,-1]","[-0.12918990770961294,0.0564968429125451]","[-1,-1,-1]","[0.019640366996370517,0.07063156008329521]","[-1,-1,-1]","[0.18068333800673483,0.02438661149292279]","[-1,-1,-1]","[-0.048998571821459815,0.19201474101011717]","[-1,-1,-1]","[-0.004775533134972516,0.11854735127306555]","[-1,-1,-1]","[-0.14668724243209574,-0.04195434306382645]","[-1,-1,-1]","[-0.03965836940438138,-0.117992642250557]","[-1,-1,-1]","[0.07099451442336835,-0.1796276806009529]","[-1,-1,-1]","[0.014557610823551241,-0.010012283214767052]","[-1,-1,-1]","[-0.1836355977586819,0.07124011296266881]","[-1,-1,-1]","[-0.0846145695506261,0.019686329375550288]","[-1,-1,-1]","[0.14868626837225107,-0.12494642289513862]","[1,1,1]","[0.08113310210746084,-0.13173504912355402]","[-1,-1,-1]","[-0.10394154973582623,-0.020207589749444217]","[-1,-1,-1]","[-0.10885734790678964,0.1082451654122608]","[-1,-1,-1]","[-0.045780075009244775,-0.01574006755929697]","[-1,-1,-1]","[0.11507444509393121,-0.006939944769234148]","[-1,-1,-1]","[0.02,0.02]",233.9509,0,44,44,4,1,,,,,,,
