right,left,explain.started,explain.stopped,key_resp_3.keys,key_resp_3.rt,key_resp_3.duration,participant,session,date,expName,psychopyVersion,OS,frameRate,study_id,explain_2.started,explain_2.stopped,key_resp_4.keys,key_resp_4.rt,key_resp_4.duration,explain_3.started,explain_3.stopped,key_resp_5.keys,key_resp_5.rt,key_resp_5.duration,fixation.started,fixation.stopped,practice.started,practice.stopped,response.started,response.stopped,key_resp.keys,feedback.started,feedback.stopped,trials_2.thisRepN,trials_2.thisTrialN,trials_2.thisN,trials_2.thisIndex,trials_2.ran,white_ratio,key_resp.rt,key_resp.duration,explain_4.started,explain_4.stopped,key_resp_6.keys,key_resp_6.rt,key_resp_6.duration,dotDisplay.started,dotDisplay.stopped,ITI.started,polygon_1.pos,polygon_1.color,polygon_2.pos,polygon_2.color,polygon_3.pos,polygon_3.color,polygon_4.pos,polygon_4.color,polygon_5.pos,polygon_5.color,polygon_6.pos,polygon_6.color,polygon_7.pos,polygon_7.color,polygon_8.pos,polygon_8.color,polygon_9.pos,polygon_9.color,polygon_10.pos,polygon_10.color,polygon_11.pos,polygon_11.color,polygon_12.pos,polygon_12.color,polygon_13.pos,polygon_13.color,polygon_14.pos,polygon_14.color,polygon_15.pos,polygon_15.color,polygon_16.pos,polygon_16.color,polygon_17.pos,polygon_17.color,polygon_18.pos,polygon_18.color,polygon_19.pos,polygon_19.color,polygon_20.pos,polygon_20.color,polygon_21.pos,polygon_21.color,polygon_22.pos,polygon_22.color,polygon_23.pos,polygon_23.color,polygon_24.pos,polygon_24.color,polygon_25.pos,polygon_25.color,polygon_26.pos,polygon_26.color,polygon_27.pos,polygon_27.color,polygon_28.pos,polygon_28.color,polygon_29.pos,polygon_29.color,polygon_30.pos,polygon_30.color,polygon_31.pos,polygon_31.color,polygon_32.pos,polygon_32.color,dot_size,ITI.stopped,trials.thisRepN,trials.thisTrialN,trials.thisN,trials.thisIndex,trials.ran,break_2.started,break_2.stopped,trials_3.thisRepN,trials_3.thisTrialN,trials_3.thisN,trials_3.thisIndex,trials_3.ran
subject chose white,subject chose black,0.0004,140.597,space,125.5816,,666423d7f962b51495da18fa,682db42e2ce0adab648d5241,2025-05-21_13h10.47.764,cuing_paradigm_dot,2024.1.5,Win32,60.24096386,682d556593cb38ad0a074487,,,,,,,,,,,,,,,,,,,,,,,,,,,,,,,,,,,,,,,,,,,,,,,,,,,,,,,,,,,,,,,,,,,,,,,,,,,,,,,,,,,,,,,,,,,,,,,,,,,,,,,,,,,,,,,,,
,,,,,,,666423d7f962b51495da18fa,682db42e2ce0adab648d5241,2025-05-21_13h10.47.764,cuing_paradigm_dot,2024.1.5,Win32,60.24096386,682d556593cb38ad0a074487,140.5975,211.3501,space,40.737,,,,,,,,,,,,,,,,,,,,,,,,,,,,,,,,,,,,,,,,,,,,,,,,,,,,,,,,,,,,,,,,,,,,,,,,,,,,,,,,,,,,,,,,,,,,,,,,,,,,,,,,,,,,,
,,,,,,,666423d7f962b51495da18fa,682db42e2ce0adab648d5241,2025-05-21_13h10.47.764,cuing_paradigm_dot,2024.1.5,Win32,60.24096386,682d556593cb38ad0a074487,,,,,,211.3506,217.7154,space,3.3456,,,,,,,,,,,,,,,,,,,,,,,,,,,,,,,,,,,,,,,,,,,,,,,,,,,,,,,,,,,,,,,,,,,,,,,,,,,,,,,,,,,,,,,,,,,,,,,,,,,,,,,,
,,,,,,,666423d7f962b51495da18fa,682db42e2ce0adab648d5241,2025-05-21_13h10.47.764,cuing_paradigm_dot,2024.1.5,Win32,60.24096386,682d556593cb38ad0a074487,,,,,,,,,,,217.7656,218.2346,218.2357,218.4689,218.4694,219.9629,,219.9636,221.0638,0,0,0,1,1,0.2,,,,,,,,,,,,,,,,,,,,,,,,,,,,,,,,,,,,,,,,,,,,,,,,,,,,,,,,,,,,,,,,,,,,,,,,,,,,,,,,,,,,,,,,
,,,,,,,666423d7f962b51495da18fa,682db42e2ce0adab648d5241,2025-05-21_13h10.47.764,cuing_paradigm_dot,2024.1.5,Win32,60.24096386,682d556593cb38ad0a074487,,,,,,,,,,,221.0653,221.5633,221.5635,221.8122,221.8123,222.3288,right,222.3291,223.4296,0,1,1,0,1,0.8,0.5015,,,,,,,,,,,,,,,,,,,,,,,,,,,,,,,,,,,,,,,,,,,,,,,,,,,,,,,,,,,,,,,,,,,,,,,,,,,,,,,,,,,,,,,
,,,,,,,666423d7f962b51495da18fa,682db42e2ce0adab648d5241,2025-05-21_13h10.47.764,cuing_paradigm_dot,2024.1.5,Win32,60.24096386,682d556593cb38ad0a074487,,,,,,,,,,,,,,,,,,,,,,,,,,,,223.4306,236.6431,space,10.1902,,,,,,,,,,,,,,,,,,,,,,,,,,,,,,,,,,,,,,,,,,,,,,,,,,,,,,,,,,,,,,,,,,,,,,,,,,,,,,,,,,
,,,,,,,666423d7f962b51495da18fa,682db42e2ce0adab648d5241,2025-05-21_13h10.47.764,cuing_paradigm_dot,2024.1.5,Win32,60.24096386,682d556593cb38ad0a074487,,,,,,,,,,,236.6853,237.1602,,,237.4134,238.1274,right,,,,,,,,0.55,0.6874,,,,,,,237.1613,237.4132,238.1286,"[0.11959102167024037,-0.06229684619674398]","[-1,-1,-1]","[-0.10766880737194169,0.02772562823454122]","[-1,-1,-1]","[-0.0510735631367949,-0.1454156764415984]","[1,1,1]","[-0.10275064217744156,0.08951729204535955]","[1,1,1]","[0.1850033139736946,0.05610902337864602]","[-1,-1,-1]","[0.07540531046064515,-0.051236429247646535]","[-1,-1,-1]","[-0.18234715241766264,-0.045817503074785826]","[-1,-1,-1]","[-0.09546914075266928,-0.05785195275405141]","[1,1,1]","[0.0478796579384061,0.10930711097876232]","[1,1,1]","[0.004619167582256222,-0.1120622704326495]","[1,1,1]","[-0.13214639090073288,-0.13326952033415454]","[1,1,1]","[0.03830884212855564,0.04427454488245574]","[-1,-1,-1]","[-0.08360367925768075,0.13805748737395132]","[1,1,1]","[0.002525414143196663,0.10253075036080062]","[1,1,1]","[0.06463252088331499,-0.18580323306857036]","[1,1,1]","[0.10273103988014282,0.05202549719104354]","[1,1,1]","[-0.19524334815250396,-0.0008690796199899204]","[-1,-1,-1]","[0.044065943021972004,0.17719111170868454]","[-1,-1,-1]","[-0.0336014072372511,-0.18646719618484875]","[1,1,1]","[0.18820219935480106,-0.017938928901284516]","[1,1,1]","[-0.17319453379018435,0.06754541068548761]","[-1,-1,-1]","[0.12761034887737654,0.10930378666789782]","[-1,-1,-1]","[0.0219946125046687,-0.0007610007070217204]","[-1,-1,-1]","[-0.07446441502701505,0.05984407905497947]","[1,1,1]","[0.10630610845783742,-0.11331141563496093]","[-1,-1,-1]","[0.10003636410103349,-0.16085835888726133]","[1,1,1]","[0.035186586513889416,-0.07382940870083143]","[-1,-1,-1]","[-0.015347494021675106,0.14448394846490684]","[1,1,1]","[0.06659525465029946,-0.1321582677665278]","[1,1,1]","[-0.08844271445291192,-0.1763297995666333]","[1,1,1]","[-0.024689438021633116,-0.08082316250288396]","[1,1,1]","[-0.12819921449034175,-0.02976753258561562]","[-1,-1,-1]","[0.02,0.02]",239.2268,0,0,0,129,1,,,,,,,
,,,,,,,666423d7f962b51495da18fa,682db42e2ce0adab648d5241,2025-05-21_13h10.47.764,cuing_paradigm_dot,2024.1.5,Win32,60.24096386,682d556593cb38ad0a074487,,,,,,,,,,,239.2276,239.7261,,,239.9775,240.1959,left,,,,,,,,0.45,0.1987,,,,,,,239.7265,239.9774,240.196,"[0.022979286886526045,0.15576925797900104]","[-1,-1,-1]","[0.08828876980064743,0.1443657272449958]","[-1,-1,-1]","[-0.03340075087585804,-0.11411767665684575]","[-1,-1,-1]","[0.1982395184209821,-0.008472211494299798]","[-1,-1,-1]","[-0.11590198492940389,-0.08108699570366319]","[-1,-1,-1]","[0.16352834299298924,-0.06164379582920973]","[-1,-1,-1]","[-0.03950618181929433,-0.011322368642622406]","[-1,-1,-1]","[0.14661363593193405,0.08771423098458055]","[1,1,1]","[-0.0541752871157309,0.0781245655095541]","[1,1,1]","[0.0038408617340374047,0.10611812148950789]","[-1,-1,-1]","[-0.10776955698962032,0.13524673319962724]","[-1,-1,-1]","[0.08885473403175334,0.07976136318360248]","[-1,-1,-1]","[0.14039244768064127,-0.023908234389663992]","[-1,-1,-1]","[0.11383134100692975,-0.08232796718906557]","[1,1,1]","[0.034617656614345585,-0.07793959168963625]","[1,1,1]","[-0.059550228536142884,0.16952319031324845]","[1,1,1]","[-0.18157753791789427,0.04523445778694024]","[1,1,1]","[0.031762427480795496,-0.023130207940120204]","[1,1,1]","[-0.06437308544181423,-0.07362562594822508]","[-1,-1,-1]","[-0.15021215487604295,0.010724378129253144]","[1,1,1]","[0.18480868141861367,0.04054708830237493]","[-1,-1,-1]","[0.13607598560578046,0.13723729873535892]","[-1,-1,-1]","[-0.038000906527479734,-0.18920646087210694]","[1,1,1]","[0.14244407803745338,-0.11384165611312046]","[1,1,1]","[0.006245674579441958,-0.15440998843023254]","[1,1,1]","[-0.1619344212417819,-0.03294624649102927]","[-1,-1,-1]","[-0.013464123179515498,-0.05603519633874199]","[1,1,1]","[0.13656016664998027,0.0399146352249306]","[-1,-1,-1]","[-0.1027909126132263,0.06554012502019622]","[-1,-1,-1]","[-0.09039030940553791,0.018670415010181855]","[1,1,1]","[0.07948675903826723,-0.05353898570500824]","[1,1,1]","[-0.016556071922178315,0.14400909431919465]","[-1,-1,-1]","[0.02,0.02]",241.2925,0,1,1,64,1,,,,,,,
,,,,,,,666423d7f962b51495da18fa,682db42e2ce0adab648d5241,2025-05-21_13h10.47.764,cuing_paradigm_dot,2024.1.5,Win32,60.24096386,682d556593cb38ad0a074487,,,,,,,,,,,241.2934,241.7927,,,242.0469,242.4764,right,,,,,,,,0.5,0.4137,,,,,,,241.7927,242.0468,242.4765,"[0.13433257441784208,-0.04557606766442194]","[1,1,1]","[0.07632087795410088,-0.10309690576998994]","[1,1,1]","[-0.12228792257785362,0.027858834526003046]","[1,1,1]","[0.05695172982391376,-0.049168154887660784]","[-1,-1,-1]","[-0.12437483864513518,-0.13027509438730178]","[1,1,1]","[-0.16155621200975842,-0.050090934171125874]","[-1,-1,-1]","[0.03363370914240153,0.13217693040891823]","[-1,-1,-1]","[-0.011976842792881652,0.0764202383090303]","[1,1,1]","[-0.061925315066231966,-0.12413620737945727]","[1,1,1]","[0.12957014924169216,0.07166473383186055]","[1,1,1]","[0.1844915300902248,0.06049346979066592]","[-1,-1,-1]","[-0.06338384601242539,-0.06882086320519001]","[-1,-1,-1]","[-0.10207213008292645,0.06728267155687992]","[1,1,1]","[-0.1488921534951311,0.09353436505553335]","[-1,-1,-1]","[0.08884248794883133,-0.14764631267816353]","[1,1,1]","[-0.08276841707108193,-0.03172025669544906]","[1,1,1]","[-0.02206719779279825,-0.1824785009475016]","[-1,-1,-1]","[-0.009779280861296813,-0.1082385765533649]","[-1,-1,-1]","[0.1598128913704892,0.09822102601618717]","[-1,-1,-1]","[0.05408799545261164,0.00730456824652985]","[-1,-1,-1]","[0.08364887587816318,0.09010531217444764]","[1,1,1]","[-0.1308735013814252,-0.08683511915493795]","[-1,-1,-1]","[-0.01998871339805024,0.1872292863597898]","[1,1,1]","[0.08422503991644965,0.14975869079056023]","[1,1,1]","[-0.11007916698791308,0.15039358158769864]","[-1,-1,-1]","[0.041790699471447215,0.04885627335005923]","[-1,-1,-1]","[-0.01929960385220921,-0.04512339815588419]","[1,1,1]","[0.147958021121524,-0.10777814110622855]","[-1,-1,-1]","[0.031184967221115998,-0.16080620525793146]","[1,1,1]","[-0.15440369141148066,-0.0034861690357344327]","[-1,-1,-1]","[0.021357500866725356,-0.01832400649747164]","[1,1,1]","[-0.01066724369136337,0.03233199051434344]","[-1,-1,-1]","[0.02,0.02]",243.5755,0,2,2,110,1,,,,,,,
,,,,,,,666423d7f962b51495da18fa,682db42e2ce0adab648d5241,2025-05-21_13h10.47.764,cuing_paradigm_dot,2024.1.5,Win32,60.24096386,682d556593cb38ad0a074487,,,,,,,,,,,243.5767,244.0753,,,244.3243,244.9572,right,,,,,,,,0.55,0.6269,,,,,,,244.0757,244.3243,244.9573,"[0.05518679218056894,0.04165756448542072]","[-1,-1,-1]","[-0.023801685832784983,-0.19427399734523562]","[1,1,1]","[-0.11702953899045891,-0.12515974950891542]","[-1,-1,-1]","[0.014349116364641116,0.11719841469186974]","[-1,-1,-1]","[0.1059933849473082,-0.09626345615610182]","[-1,-1,-1]","[0.04856522792816486,-0.13054887144365357]","[1,1,1]","[-0.06681039830700068,-0.1522603582933881]","[1,1,1]","[0.15695963228785043,-0.10694977724112033]","[-1,-1,-1]","[0.1538720314898788,0.03960603831498748]","[-1,-1,-1]","[-0.09440421327310415,0.013187027506215051]","[-1,-1,-1]","[-0.008198277499548268,-0.02051652260809056]","[1,1,1]","[-0.14475261784320967,0.1319602007892158]","[1,1,1]","[-0.06495777989910118,0.041371101358725924]","[1,1,1]","[0.0960786956423945,0.013150304341522383]","[1,1,1]","[-0.1881215078905187,0.0315177231206435]","[1,1,1]","[-0.023541471330779468,0.1317961011349583]","[1,1,1]","[0.04438731494317871,0.17986145891461144]","[1,1,1]","[-0.1471145112394242,-0.004694284076469008]","[-1,-1,-1]","[-0.1342467822432808,-0.06959039564181527]","[-1,-1,-1]","[-0.15143213808082473,0.06188223322745453]","[-1,-1,-1]","[0.17154873659863046,-0.06335403302224087]","[1,1,1]","[0.08353649360403109,0.07471576575925733]","[-1,-1,-1]","[0.108952396278414,-0.039186279563036934]","[1,1,1]","[-0.01516382876217829,-0.12941187670116358]","[-1,-1,-1]","[0.053065149032176205,-0.08568467700802186]","[1,1,1]","[0.12307694153629078,-0.14238044843460348]","[-1,-1,-1]","[-0.03254578850170619,-0.07374249053314935]","[-1,-1,-1]","[0.058324912819149734,0.13370773331619293]","[1,1,1]","[0.05787903766007097,-0.026591042853923143]","[1,1,1]","[0.02147703849156502,-0.1638181077319704]","[1,1,1]","[0.12420174847320632,0.12253352549429472]","[1,1,1]","[-0.08097387776100527,0.16798241081152304]","[1,1,1]","[0.02,0.02]",246.0576,0,3,3,127,1,,,,,,,
,,,,,,,666423d7f962b51495da18fa,682db42e2ce0adab648d5241,2025-05-21_13h10.47.764,cuing_paradigm_dot,2024.1.5,Win32,60.24096386,682d556593cb38ad0a074487,,,,,,,,,,,246.059,246.5573,,,246.8084,247.2093,right,,,,,,,,0.55,0.3945,,,,,,,246.5575,246.8082,247.2097,"[0.02067763178058432,-0.0033476918936134084]","[-1,-1,-1]","[0.09860699440327775,0.14586060528039838]","[1,1,1]","[-0.010857507846731819,0.05459646313301183]","[1,1,1]","[-0.13216627270787,-0.14332932914970653]","[-1,-1,-1]","[-0.08940197443974403,0.0352982604741781]","[-1,-1,-1]","[-0.05152789012051447,0.07404085224463743]","[-1,-1,-1]","[0.021425938029376472,-0.17057960652293142]","[-1,-1,-1]","[0.03631095745915175,-0.10382948554560154]","[-1,-1,-1]","[0.10060599724325889,-0.11786720439417686]","[1,1,1]","[0.07850487242413753,0.18218161234917885]","[1,1,1]","[0.05733747414817927,-0.029540195742352646]","[-1,-1,-1]","[-0.10361025370338404,-0.00885938400378122]","[1,1,1]","[0.14078141075797934,0.12879840519334076]","[1,1,1]","[0.010426330428136545,-0.046845499448940085]","[1,1,1]","[0.16310276178156533,-0.10132998060572916]","[1,1,1]","[-0.1319383669561598,0.11694548225418902]","[-1,-1,-1]","[0.05142758831218656,0.02799794396792458]","[1,1,1]","[-0.13425602414452903,0.05529481968348809]","[1,1,1]","[-0.1810644359939576,-0.03631157320310684]","[-1,-1,-1]","[0.03590517871107454,0.08500305843610376]","[1,1,1]","[-0.17270165871705143,0.07038455138714914]","[-1,-1,-1]","[-0.04347058406853341,-0.06926291298685099]","[1,1,1]","[0.019333875132156057,0.19768381021875167]","[1,1,1]","[0.17386476010118393,-0.011906997473553314]","[1,1,1]","[0.08569818080619653,0.0025426537292811526]","[1,1,1]","[0.11647294785824044,0.09434957182486539]","[-1,-1,-1]","[-0.13109566191066896,-0.10172428183513064]","[1,1,1]","[-0.12398405534469305,-0.046314028847439945]","[-1,-1,-1]","[-0.033430007996076476,0.14670236087157615]","[-1,-1,-1]","[-0.06753949859291539,-0.14724415337751554]","[1,1,1]","[0.06531766294713395,-0.16546461661510833]","[1,1,1]","[-0.15597391657089543,0.0029980263780384703]","[-1,-1,-1]","[0.02,0.02]",248.3069,0,4,4,130,1,,,,,,,
,,,,,,,666423d7f962b51495da18fa,682db42e2ce0adab648d5241,2025-05-21_13h10.47.764,cuing_paradigm_dot,2024.1.5,Win32,60.24096386,682d556593cb38ad0a074487,,,,,,,,,,,248.308,248.8065,,,249.0578,249.3072,left,,,,,,,,0.45,0.2354,,,,,,,248.8066,249.0574,249.3074,"[-0.18471588135817546,0.03594345835353553]","[-1,-1,-1]","[0.07290188512865149,-0.17035345662807155]","[1,1,1]","[-0.1587603722271773,-0.05901679810513503]","[-1,-1,-1]","[0.037178514606072244,-0.14550205320193846]","[-1,-1,-1]","[-0.10410643468765751,0.014229419013574184]","[-1,-1,-1]","[-0.06342926051697623,0.13026270562056702]","[1,1,1]","[-0.08517476612512231,-0.13926346357513797]","[1,1,1]","[-0.06543257132566652,-0.07205023277972954]","[-1,-1,-1]","[0.1102987138397958,-0.0033054291466647705]","[1,1,1]","[0.11072076155234495,0.07487158480826248]","[1,1,1]","[0.07094623495400673,-0.07456010385294935]","[-1,-1,-1]","[-0.03233284184948964,-0.13132167217187848]","[-1,-1,-1]","[0.1984698554111674,0.01277703643368544]","[-1,-1,-1]","[-0.12245189887317447,0.14881813335333832]","[1,1,1]","[-0.012095761962488672,0.1066939115424948]","[-1,-1,-1]","[0.013567237747845674,-0.06827215443157905]","[-1,-1,-1]","[0.05019106283812083,0.10571742842101596]","[-1,-1,-1]","[-0.04726271089339283,0.17208366160831046]","[-1,-1,-1]","[0.11845520128703539,0.13846019228478626]","[1,1,1]","[0.047808775632749274,0.04049855165251896]","[1,1,1]","[0.14125658195004315,-0.0497267038813078]","[1,1,1]","[-0.04514552454803877,-0.03369908289578962]","[-1,-1,-1]","[0.07320158383255006,0.17135453115433638]","[-1,-1,-1]","[-0.11963762448108935,0.06754269778286726]","[1,1,1]","[0.06933511655665318,-0.019356694724191464]","[1,1,1]","[0.11214810315392579,-0.15029287245462783]","[1,1,1]","[0.0002209539278087405,-0.013751336589592485]","[1,1,1]","[0.0047139543088341946,0.06651311327830593]","[-1,-1,-1]","[-0.043750347489936885,0.056004946459033096]","[-1,-1,-1]","[0.13789737742199276,-0.11592425449359496]","[-1,-1,-1]","[-0.16552255034713112,-0.013156772330876218]","[-1,-1,-1]","[0.18158122736269453,-0.04216325668192685]","[1,1,1]","[0.02,0.02]",250.4063,0,5,5,79,1,,,,,,,
,,,,,,,666423d7f962b51495da18fa,682db42e2ce0adab648d5241,2025-05-21_13h10.47.764,cuing_paradigm_dot,2024.1.5,Win32,60.24096386,682d556593cb38ad0a074487,,,,,,,,,,,250.4074,250.9063,,,251.1564,252.3407,left,,,,,,,,0.45,1.1779,,,,,,,250.9064,251.1563,252.3411,"[0.10837297837284351,-0.08202732770478043]","[1,1,1]","[-0.1389021379728287,-0.09267918170076063]","[-1,-1,-1]","[-0.09688017751651581,0.08983959947437692]","[-1,-1,-1]","[-0.020035884562267223,-0.023785728853567323]","[-1,-1,-1]","[0.03674431431115606,-0.0682525553761986]","[1,1,1]","[0.1729816635818166,-0.08157656614706467]","[-1,-1,-1]","[0.1666741411291586,0.008203989575814414]","[-1,-1,-1]","[0.09359077385293887,0.06524214458548594]","[1,1,1]","[-0.001557142517704329,-0.16865773674771675]","[1,1,1]","[0.07031864975172965,-0.10019140917427329]","[1,1,1]","[0.09991392471339315,-0.16400555655459384]","[-1,-1,-1]","[0.02345748271687993,-0.019344533140419857]","[1,1,1]","[-0.060620902100533204,0.01147057898240076]","[1,1,1]","[-0.14775591361810483,0.0818116404213114]","[-1,-1,-1]","[-0.09800319445109898,-0.17276013246320038]","[-1,-1,-1]","[-0.13723027432509877,-0.004535739125975541]","[1,1,1]","[0.0524045471450173,0.05439153354051402]","[-1,-1,-1]","[0.16070123753077453,0.09435126156128036]","[-1,-1,-1]","[-0.05771830769383082,0.1673633584745766]","[-1,-1,-1]","[0.0597817836681442,0.1644913960297209]","[-1,-1,-1]","[0.0443992387159246,-0.13186393132224566]","[1,1,1]","[-0.07383934669209412,-0.044747031758755586]","[1,1,1]","[0.14227534569061526,-0.02512902267980084]","[-1,-1,-1]","[-0.028010353716432762,0.03988807232427688]","[-1,-1,-1]","[0.09273421143924601,0.002045449790669915]","[-1,-1,-1]","[-0.07734740628592876,-0.08801144854900755]","[-1,-1,-1]","[-0.12762092073976,-0.131666808185813]","[1,1,1]","[-0.1893092336485806,0.017020356366532305]","[1,1,1]","[0.016160265967755282,0.10061171932366351]","[-1,-1,-1]","[0.09802033189697444,0.13380400113871221]","[1,1,1]","[-0.02039054524275364,0.18347424519569527]","[-1,-1,-1]","[0.01535524170385522,0.029370959806701007]","[1,1,1]","[0.02,0.02]",253.4391,0,6,6,63,1,,,,,,,
,,,,,,,666423d7f962b51495da18fa,682db42e2ce0adab648d5241,2025-05-21_13h10.47.764,cuing_paradigm_dot,2024.1.5,Win32,60.24096386,682d556593cb38ad0a074487,,,,,,,,,,,253.4401,253.9388,,,254.1901,254.5893,right,,,,,,,,0.1,0.3859,,,,,,,253.9389,254.1899,254.5895,"[-0.0277899730423489,-0.03153336140944771]","[-1,-1,-1]","[-0.03363752293482488,-0.1527764075318549]","[-1,-1,-1]","[-0.0821407762607798,0.0904840763670752]","[-1,-1,-1]","[0.0976297357044408,-0.016139172655053546]","[-1,-1,-1]","[-0.143685439967953,0.022597021526100804]","[-1,-1,-1]","[-0.1686809230349041,-0.08778686610473485]","[-1,-1,-1]","[0.059513105410053266,0.10772552842361055]","[-1,-1,-1]","[-0.022455870651154692,0.10113663314143277]","[-1,-1,-1]","[0.0614204954979161,-0.06489577163022082]","[-1,-1,-1]","[-0.09945249932132816,-0.13003322089654593]","[-1,-1,-1]","[0.011247807832985754,-0.17875051075715084]","[-1,-1,-1]","[0.030343043090523113,-0.13640501628804252]","[-1,-1,-1]","[0.046374536921627976,0.043371894338868525]","[-1,-1,-1]","[0.1494479117142368,0.043519425088024394]","[-1,-1,-1]","[0.08891330988060057,0.1741825876900326]","[-1,-1,-1]","[-0.12746957733947584,0.13740287049367297]","[1,1,1]","[0.1901098464568354,0.010809193858233025]","[-1,-1,-1]","[-0.13799460100242086,-0.019545153716041742]","[1,1,1]","[-0.03422581246034564,0.013604439025653161]","[-1,-1,-1]","[0.1055964368123432,-0.14675222562586906]","[-1,-1,-1]","[-0.0056533116136916785,0.16119088082304364]","[-1,-1,-1]","[0.10532136231797014,0.08865168503631464]","[-1,-1,-1]","[0.1722042898199098,-0.07087327757756573]","[-1,-1,-1]","[-0.14800027625311232,0.09528465567848388]","[-1,-1,-1]","[-0.08209054714185235,-0.08238282503734186]","[-1,-1,-1]","[-0.10868401308040476,0.05412255711782688]","[-1,-1,-1]","[0.05557411525885653,-0.01541658874116371]","[-1,-1,-1]","[-0.07989250348984141,0.000437101691095816]","[-1,-1,-1]","[0.033188599077769075,0.1971878489978439]","[-1,-1,-1]","[0.13468132842019095,-0.053722021631052365]","[-1,-1,-1]","[-0.17008243953578903,0.05597955091109794]","[-1,-1,-1]","[0.03519636584147481,0.15121208249669899]","[1,1,1]","[0.02,0.02]",255.6888,0,7,7,4,1,,,,,,,
,,,,,,,666423d7f962b51495da18fa,682db42e2ce0adab648d5241,2025-05-21_13h10.47.764,cuing_paradigm_dot,2024.1.5,Win32,60.24096386,682d556593cb38ad0a074487,,,,,,,,,,,255.6899,256.1888,,,256.4393,256.9218,right,,,,,,,,0.9,0.4659,,,,,,,256.1889,256.4391,256.9219,"[-0.05720685823075051,-0.038031409710468825]","[1,1,1]","[-0.11458525332147357,0.11530961261270202]","[1,1,1]","[0.09784477200914894,-0.025662457323927176]","[1,1,1]","[0.00681727394021288,-0.07685776472344995]","[1,1,1]","[-0.1018377786834443,0.166119291628013]","[1,1,1]","[0.15099012214947152,-0.07134824696747788]","[1,1,1]","[-0.01685753071298034,0.04099505393764538]","[1,1,1]","[0.11782088147706296,-0.10429366923529955]","[1,1,1]","[0.011706341098220578,0.08102262812748708]","[1,1,1]","[0.1324570328648634,-0.14887300461223146]","[1,1,1]","[-0.11507506533370039,0.0613027287094193]","[1,1,1]","[0.1069581180736426,0.05584175719654416]","[1,1,1]","[-0.16480685058411224,0.07301594166720281]","[1,1,1]","[-0.13448932980618197,-0.09744652587824189]","[1,1,1]","[-0.18116981023681264,-0.04318589159576669]","[1,1,1]","[0.18185824332338013,0.002548840176429843]","[1,1,1]","[-0.18838540287667316,0.0017630513127229936]","[-1,-1,-1]","[-0.008654988143605075,-0.1330594260898335]","[1,1,1]","[-0.030550098788665287,0.1207944313861355]","[1,1,1]","[0.04668004910844082,0.039196192383845876]","[-1,-1,-1]","[0.13932234983532554,0.09391130721139646]","[1,1,1]","[0.13298259102524643,0.1438361344135408]","[1,1,1]","[-0.01069271344232275,-0.00795950251215519]","[1,1,1]","[-0.1364762865444514,0.01671283159789592]","[1,1,1]","[0.09861777679445512,-0.17243855379457929]","[1,1,1]","[0.06879570521391613,-0.10804445452551928]","[1,1,1]","[-0.07105805252073648,0.03884134906032464]","[1,1,1]","[0.06645396524877055,-0.0562251239244297]","[1,1,1]","[-0.11260479575320329,-0.15211784671235867]","[1,1,1]","[0.03458465912146805,-0.19332523468845633]","[-1,-1,-1]","[-0.04981575370927064,-0.08357571867724789]","[1,1,1]","[-0.05924185706360765,-0.1809983911163264]","[1,1,1]","[0.02,0.02]",258.0215,0,8,8,182,1,,,,,,,
,,,,,,,666423d7f962b51495da18fa,682db42e2ce0adab648d5241,2025-05-21_13h10.47.764,cuing_paradigm_dot,2024.1.5,Win32,60.24096386,682d556593cb38ad0a074487,,,,,,,,,,,258.0224,258.5213,,,258.7713,259.1879,right,,,,,,,,0.9,0.4018,,,,,,,258.5214,258.7713,259.1881,"[0.17490329640625543,0.07290691934258904]","[1,1,1]","[-0.16866349242537462,-0.06527111303173827]","[1,1,1]","[-0.16888370363207503,0.06822648204568997]","[-1,-1,-1]","[0.057524537888826874,-0.07857107769178927]","[-1,-1,-1]","[-0.10333204699770539,0.07299858454902623]","[1,1,1]","[0.07833560969527971,0.07263389084363336]","[1,1,1]","[0.04120569902739508,0.17932226416477332]","[1,1,1]","[0.12046190698326187,-0.03431754947990865]","[1,1,1]","[-0.07464290141946164,-0.004322492746218741]","[1,1,1]","[0.01489321030170815,-0.0804279437325216]","[1,1,1]","[-0.11020320561728317,0.01762508456768861]","[1,1,1]","[-0.05292004026591301,-0.14981641254959532]","[1,1,1]","[0.1912937510950242,-0.03220451705471404]","[1,1,1]","[0.05120016833037908,-0.17379061423750924]","[1,1,1]","[0.03448780888874413,0.022119942115057325]","[1,1,1]","[-0.18985129985998464,0.0059360617795518565]","[-1,-1,-1]","[0.12045043482384361,0.08566433636362474]","[1,1,1]","[0.17036851415723198,0.02030245688835783]","[1,1,1]","[0.11225507721049059,0.13022066818207237]","[1,1,1]","[-0.09150636507513261,-0.09339936641533444]","[1,1,1]","[-0.024019098127624934,0.11488977073742052]","[1,1,1]","[0.1384883665571254,0.04626502437797182]","[1,1,1]","[-0.1035315618855877,-0.1411421129414407]","[1,1,1]","[-0.05128694842637775,0.1629686382200059]","[1,1,1]","[-0.07373645379339129,0.11980614934364983]","[1,1,1]","[-0.1171496846373837,-0.04560608502645034]","[1,1,1]","[0.1601688303270817,0.11349430255737326]","[1,1,1]","[-0.01870590039185547,0.019595628952612618]","[1,1,1]","[0.0608307005417204,-0.13387242570642008]","[1,1,1]","[-0.0029740226812091865,-0.18445306246400509]","[1,1,1]","[-0.007882967599614994,0.06395378544561169]","[1,1,1]","[0.0977147844936261,-0.1528889106899548]","[1,1,1]","[0.02,0.02]",260.2877,0,9,9,189,1,,,,,,,
,,,,,,,666423d7f962b51495da18fa,682db42e2ce0adab648d5241,2025-05-21_13h10.47.764,cuing_paradigm_dot,2024.1.5,Win32,60.24096386,682d556593cb38ad0a074487,,,,,,,,,,,260.2885,260.7873,,,261.0374,261.4208,left,,,,,,,,0.1,0.3679,,,,,,,260.7874,261.0374,261.4209,"[0.03714424342329903,-0.1919464585965441]","[-1,-1,-1]","[-0.00034407307911932873,-0.03339889271664457]","[-1,-1,-1]","[0.09735563188604388,-0.014253110558484458]","[-1,-1,-1]","[-0.033221919712280036,0.003824172108177385]","[-1,-1,-1]","[-0.17118433098869545,0.05269831601986957]","[1,1,1]","[-0.11652980312369489,-0.015224246579979228]","[-1,-1,-1]","[0.0017047304481638608,-0.12762493620925336]","[-1,-1,-1]","[-0.11003035178266263,-0.0860423988191713]","[-1,-1,-1]","[0.13971787942758404,0.1294309471687647]","[-1,-1,-1]","[-0.06044354842231103,-0.047227108652292744]","[-1,-1,-1]","[-0.04900242352666901,0.08907423931129066]","[-1,-1,-1]","[-0.08346136345395438,0.062390864568201705]","[-1,-1,-1]","[0.04317681944870043,0.07316490281143136]","[-1,-1,-1]","[0.08834274368049726,-0.0600297079995383]","[-1,-1,-1]","[-0.14984871412249687,0.012750318114479025]","[-1,-1,-1]","[0.12050980997242136,-0.15508273933475575]","[-1,-1,-1]","[0.15651443995570677,-0.0023075502110429915]","[-1,-1,-1]","[0.08767194494058872,0.17352038579358928]","[1,1,1]","[0.09340762345090006,-0.10169209034316594]","[-1,-1,-1]","[0.1488286037254529,-0.07733147330809585]","[-1,-1,-1]","[0.19519425637219603,-0.01427273121305671]","[-1,-1,-1]","[0.03234369537712515,-0.09514619265672272]","[-1,-1,-1]","[-0.15122823798005114,-0.06821088997687111]","[-1,-1,-1]","[-0.11031158388849023,0.10534193983930279]","[-1,-1,-1]","[0.16567205860617262,0.07044966621910488]","[-1,-1,-1]","[-0.026510875096520677,0.15749395306285816]","[-1,-1,-1]","[0.07825132183301772,0.10767009939797796]","[-1,-1,-1]","[-0.09413008431051412,0.14256920121327996]","[-1,-1,-1]","[-0.11898083172604189,0.03841991351066521]","[1,1,1]","[0.15546122256384753,-0.11999308249929325]","[-1,-1,-1]","[-0.03573571335540441,-0.11054455259888948]","[-1,-1,-1]","[-0.016521058265522196,-0.19813627434083864]","[-1,-1,-1]","[0.02,0.02]",262.5202,0,10,10,19,1,,,,,,,
,,,,,,,666423d7f962b51495da18fa,682db42e2ce0adab648d5241,2025-05-21_13h10.47.764,cuing_paradigm_dot,2024.1.5,Win32,60.24096386,682d556593cb38ad0a074487,,,,,,,,,,,262.5212,263.0203,,,263.2713,263.8373,right,,,,,,,,0.9,0.5559,,,,,,,263.0203,263.2712,263.8374,"[-0.10634711281896583,0.02122802378182273]","[1,1,1]","[0.04868787399730047,0.08406646885627207]","[1,1,1]","[0.014532201554912387,-0.017427387131142964]","[1,1,1]","[0.09667485082666771,-0.11245640761395935]","[1,1,1]","[-0.04847079926186212,0.07485396600950352]","[1,1,1]","[0.1657226796864274,0.08840760194466403]","[1,1,1]","[0.17235973912737934,-0.06623741586513233]","[1,1,1]","[-0.08915200432551484,-0.09484227282756273]","[1,1,1]","[0.0029114597973047152,0.17204679423816102]","[1,1,1]","[0.08954119611555292,0.10388591778030852]","[1,1,1]","[0.12329538587462427,-0.032730341325293094]","[1,1,1]","[-0.01647906003182183,-0.18334319377844535]","[1,1,1]","[-0.16450283494640308,0.08110339389378758]","[1,1,1]","[-0.14180448836403883,-0.12551407133810194]","[1,1,1]","[-0.015295808935696247,-0.0572507708839907]","[1,1,1]","[0.048981118627023985,0.00335350388850726]","[1,1,1]","[0.12812523224292843,0.038090946393315596]","[1,1,1]","[-0.10608575763505573,0.0852756766723259]","[1,1,1]","[0.028073209451034954,0.1403729270510343]","[1,1,1]","[-0.16289436697180215,0.010825207602130236]","[1,1,1]","[-0.04580969017187354,-0.09386854716218031]","[1,1,1]","[0.10770585482501557,0.16507858094644215]","[1,1,1]","[-0.12016105204146092,0.14257732409130813]","[1,1,1]","[-0.034760311810218665,0.011970261660881693]","[1,1,1]","[-0.11902119465105808,-0.034481935300656255]","[1,1,1]","[0.02982804915143075,-0.11628017272146621]","[1,1,1]","[0.0012142575428250523,0.08955920562946106]","[-1,-1,-1]","[-0.03598456157784129,0.14167446064669673]","[-1,-1,-1]","[0.045624419170776954,-0.15885567510357396]","[1,1,1]","[0.17893744615984733,-0.0024104850168090246]","[1,1,1]","[-0.19040161615906875,-0.04594016275726212]","[-1,-1,-1]","[0.026840668152255547,-0.07381707989385095]","[1,1,1]","[0.02,0.02]",264.9368,0,11,11,185,1,,,,,,,
,,,,,,,666423d7f962b51495da18fa,682db42e2ce0adab648d5241,2025-05-21_13h10.47.764,cuing_paradigm_dot,2024.1.5,Win32,60.24096386,682d556593cb38ad0a074487,,,,,,,,,,,264.9377,265.4369,,,265.6879,266.687,left,,,,,,,,0.4,0.9912,,,,,,,265.4369,265.6877,266.687,"[-0.12337662778524666,-0.13602883884272546]","[-1,-1,-1]","[0.047930953893256786,-0.10019846493626984]","[-1,-1,-1]","[-0.06920614595826222,0.06569368904599425]","[-1,-1,-1]","[-0.00834051801710077,-0.08051483224872222]","[1,1,1]","[0.10887238641450832,-0.08624632210682269]","[1,1,1]","[-0.07963034048778347,-0.036299858033285295]","[-1,-1,-1]","[-0.13173478909697323,0.09253131900080222]","[1,1,1]","[0.06540299716730211,-0.17991798178061671]","[1,1,1]","[0.042783839141795586,-0.032456370427018884]","[-1,-1,-1]","[0.07549549819092181,0.18141429371691126]","[1,1,1]","[-0.1623573725876574,-0.014650310200234381]","[-1,-1,-1]","[-0.17271543757765917,-0.09869778795379631]","[-1,-1,-1]","[-0.05374648994486216,-0.12413219708318769]","[-1,-1,-1]","[0.03674477968060165,0.03238352579196282]","[1,1,1]","[-0.021113960745309256,-0.01830334384955876]","[1,1,1]","[0.16090754248613626,0.05747131062158677]","[-1,-1,-1]","[-0.17785378948963598,0.08021752212076637]","[-1,-1,-1]","[0.12675923966271396,-0.12220397916505382]","[1,1,1]","[-0.11061333399988285,-0.08547182716532421]","[-1,-1,-1]","[0.154601563264053,-0.09258691257051167]","[-1,-1,-1]","[0.11854977400538405,-0.010596224833427597]","[-1,-1,-1]","[-0.11366931107545042,-0.0005785954973874732]","[-1,-1,-1]","[-0.06448079054902836,-0.18355921728242033]","[1,1,1]","[-0.0230626232229401,0.14134923037044184]","[1,1,1]","[0.09879599311020239,0.03134480535800416]","[-1,-1,-1]","[0.005697368111057525,0.06605429239626849]","[1,1,1]","[0.12090073929257526,0.09906201922358081]","[-1,-1,-1]","[0.1885990918287855,-0.0626144883177806]","[-1,-1,-1]","[-0.03432961370588251,0.1876781135335815]","[-1,-1,-1]","[-0.1336031493831072,0.03555777111383214]","[1,1,1]","[0.18553430862431247,-0.002360515341118826]","[-1,-1,-1]","[-0.08814656905769129,0.16508276465260655]","[1,1,1]","[0.02,0.02]",267.7862,0,12,12,33,1,,,,,,,
,,,,,,,666423d7f962b51495da18fa,682db42e2ce0adab648d5241,2025-05-21_13h10.47.764,cuing_paradigm_dot,2024.1.5,Win32,60.24096386,682d556593cb38ad0a074487,,,,,,,,,,,267.7874,268.2863,,,268.538,269.4195,right,,,,,,,,0.45,0.8722,,,,,,,268.2865,268.5378,269.4196,"[-0.03103043685442762,-0.1529356580587326]","[-1,-1,-1]","[-0.10798305129657304,-0.13301263904041344]","[-1,-1,-1]","[0.13597605114807962,0.025409589580847127]","[1,1,1]","[-0.14894288632166044,-0.027101010173412807]","[-1,-1,-1]","[0.09553209177956477,-0.08545719168655418]","[1,1,1]","[-0.17522742186323706,0.015468393692164876]","[1,1,1]","[-0.0679396805503124,0.11997398451671387]","[1,1,1]","[0.08246629128145377,0.04537472409503201]","[-1,-1,-1]","[0.057248970467871814,-0.14905887027664852]","[1,1,1]","[0.046680477518287404,0.12314769419591966]","[1,1,1]","[0.01248161721398167,-0.06525361708491853]","[1,1,1]","[-0.10128171188732593,0.16695717077556343]","[-1,-1,-1]","[0.05321135816299676,-0.036021319141468076]","[-1,-1,-1]","[0.17576827506274356,0.07389773887737111]","[-1,-1,-1]","[-0.059116748518540714,-0.09030236319151565]","[1,1,1]","[0.11763763109712627,-0.04545102109701124]","[-1,-1,-1]","[-0.039307734614887097,0.02103626058636334]","[1,1,1]","[0.03783021091066282,0.06167945384896366]","[-1,-1,-1]","[-0.12946269195623128,0.041899927004052415]","[-1,-1,-1]","[0.11015754704841417,-0.12354206288869667]","[1,1,1]","[0.019644245526982924,0.17500688495836067]","[1,1,1]","[-0.15435625719994653,-0.1155105907919343]","[1,1,1]","[-0.08949042446499512,0.08097084991672075]","[-1,-1,-1]","[-0.036334619086471606,0.09257704718012799]","[1,1,1]","[0.1600049656124951,0.11854236302318516]","[-1,-1,-1]","[0.0009495837812561268,-0.17993093069458613]","[-1,-1,-1]","[-0.0572296859369131,-0.04212709585294635]","[-1,-1,-1]","[0.19644766065904332,-0.030269229200673323]","[-1,-1,-1]","[-0.15254833780042246,-0.06712744121061426]","[-1,-1,-1]","[-0.088120986557705,-0.01152566092749844]","[-1,-1,-1]","[-0.03487774577327932,0.17287930235695]","[-1,-1,-1]","[-0.1351779079689241,0.09107518022552784]","[1,1,1]","[0.02,0.02]",270.519,0,13,13,84,1,,,,,,,
,,,,,,,666423d7f962b51495da18fa,682db42e2ce0adab648d5241,2025-05-21_13h10.47.764,cuing_paradigm_dot,2024.1.5,Win32,60.24096386,682d556593cb38ad0a074487,,,,,,,,,,,270.5201,271.0187,,,271.2711,271.9181,right,,,,,,,,0.55,0.6331,,,,,,,271.0188,271.2704,271.9183,"[0.14625273502257102,0.06178797104524277]","[1,1,1]","[0.08303997782955452,-0.16232011540909103]","[1,1,1]","[-0.10978301200328476,0.14212959274823178]","[-1,-1,-1]","[-0.07572637537568323,-0.03768761309438276]","[-1,-1,-1]","[-0.14671143499644163,-0.03449193329532419]","[-1,-1,-1]","[0.023443327706211905,-0.14599715982796851]","[-1,-1,-1]","[0.16875150063676075,0.09577579695805515]","[1,1,1]","[-0.16302071681782904,0.06951940498123364]","[1,1,1]","[-0.06286342674304297,0.1634173786376377]","[1,1,1]","[-0.06289502738851478,0.015530173626266826]","[1,1,1]","[0.11109708368505623,-0.08740944450036488]","[-1,-1,-1]","[0.06209840749580657,0.017791429117428564]","[1,1,1]","[0.10376393588971684,-0.031947429893355785]","[-1,-1,-1]","[0.14415429100288168,-0.06413246286590515]","[-1,-1,-1]","[-0.0022079063737677498,-0.051235528643699735]","[1,1,1]","[-0.0754660634797411,-0.11868411136660237]","[1,1,1]","[-0.020094505069590145,0.16806634082159363]","[1,1,1]","[-0.18486122597357837,0.026876016173172573]","[-1,-1,-1]","[0.12362550499822426,-0.15552054875951885]","[1,1,1]","[-0.01795397069923635,-0.18993875959431697]","[-1,-1,-1]","[0.04773214850242925,-0.09787582897814492]","[1,1,1]","[-0.07170716347750278,0.07869408220739263]","[1,1,1]","[-0.015674541435671225,0.09655303033397446]","[1,1,1]","[0.05547255653547186,0.13796805282118052]","[-1,-1,-1]","[-0.0277353682611988,-0.10467160911084157]","[1,1,1]","[0.09577266436492632,0.12264553570333858]","[-1,-1,-1]","[0.08677221629837982,0.06531338469225015]","[1,1,1]","[0.03235841702402862,-0.025926965556857032]","[-1,-1,-1]","[-0.06300479439178927,-0.17386974597939212]","[1,1,1]","[0.05011462281096131,0.18140066759949114]","[1,1,1]","[0.11342066367354099,0.029508416851169037]","[-1,-1,-1]","[0.13606227042002284,0.1298012321906988]","[-1,-1,-1]","[0.02,0.02]",273.0186,0,14,14,125,1,,,,,,,
,,,,,,,666423d7f962b51495da18fa,682db42e2ce0adab648d5241,2025-05-21_13h10.47.764,cuing_paradigm_dot,2024.1.5,Win32,60.24096386,682d556593cb38ad0a074487,,,,,,,,,,,273.0194,273.5184,,,273.7689,274.5012,right,,,,,,,,0.55,0.7186,,,,,,,273.5185,273.7685,274.5013,"[0.13288825840712595,-0.0058364817384873756]","[1,1,1]","[0.0215364768004581,0.009850577810951857]","[1,1,1]","[-0.12746070879507765,-0.12473952803984056]","[-1,-1,-1]","[-0.1428486433931164,-0.06268888662413834]","[1,1,1]","[0.14993973271718003,0.0816112884747926]","[-1,-1,-1]","[-0.01625845428377848,-0.09630690096915778]","[-1,-1,-1]","[0.10255168048535583,-0.04449306462769296]","[-1,-1,-1]","[-0.06658914983789428,-0.08076334240840596]","[1,1,1]","[-0.07542357918955164,-0.12285923259456256]","[1,1,1]","[0.03698052220129386,0.07479140317707499]","[1,1,1]","[-0.043146602020282976,0.017354685221640187]","[-1,-1,-1]","[0.0006900858383486695,0.16330894885052813]","[1,1,1]","[0.0581913461697599,-0.009075459386892306]","[1,1,1]","[0.0634936301368337,-0.1790179516682469]","[-1,-1,-1]","[0.13744271580472722,-0.08136006447501341]","[1,1,1]","[0.008905970853737295,-0.060901484833512584]","[-1,-1,-1]","[0.08258124025950268,-0.1259798487800762]","[-1,-1,-1]","[0.08749158395968272,0.17817150090560624]","[-1,-1,-1]","[-0.11304157872142498,0.07219671384143775]","[1,1,1]","[-0.187613208833343,-0.02131293214089931]","[-1,-1,-1]","[-0.0696913934429284,0.05242445360278471]","[-1,-1,-1]","[-0.1074357036221719,0.15665133992213284]","[1,1,1]","[-0.17273378557975147,0.05713712022062851]","[1,1,1]","[0.03335856551989882,-0.12693139876080448]","[1,1,1]","[0.0008011710504063495,0.052725969484598276]","[1,1,1]","[-0.1060816869925216,-0.08830421881894733]","[-1,-1,-1]","[-0.0804606890060247,0.09773634419956885]","[1,1,1]","[0.05348430032541575,0.11371467515540816]","[1,1,1]","[0.18073713744576234,-0.003722592751291418]","[-1,-1,-1]","[-0.04303450843278917,0.1392002024329025]","[-1,-1,-1]","[0.076927122592045,0.06368832405041364]","[1,1,1]","[-0.013901687908893113,-0.16973637622192564]","[1,1,1]","[0.02,0.02]",275.6017,0,15,15,141,1,,,,,,,
,,,,,,,666423d7f962b51495da18fa,682db42e2ce0adab648d5241,2025-05-21_13h10.47.764,cuing_paradigm_dot,2024.1.5,Win32,60.24096386,682d556593cb38ad0a074487,,,,,,,,,,,275.6031,276.1013,,,276.3514,277.218,right,,,,,,,,0.6,0.8557,,,,,,,276.1014,276.3513,277.2181,"[-0.046572943819452144,-0.023685632840134533]","[1,1,1]","[-0.06127077584506496,-0.11415922493597681]","[-1,-1,-1]","[0.0698181400932405,0.15697696943555778]","[-1,-1,-1]","[-0.010009103081221243,-0.12346290075226139]","[-1,-1,-1]","[-0.15928029886213427,0.08720163518228023]","[1,1,1]","[-0.06285498355242544,0.024244309461664313]","[-1,-1,-1]","[-0.04617698686031973,0.06270621082913198]","[-1,-1,-1]","[0.1268147126992899,-0.10563723020289711]","[1,1,1]","[0.17451672368612536,0.0906775494497414]","[1,1,1]","[0.14364594973860556,0.13130331676989065]","[1,1,1]","[-0.09535026204901936,0.060653684103507265]","[1,1,1]","[-0.005144695625407546,0.1800648615495245]","[1,1,1]","[0.03805265485576907,0.10125771681880986]","[1,1,1]","[0.08850884091366557,0.02948660048650846]","[1,1,1]","[-0.1750059186416052,0.04790078727810734]","[1,1,1]","[0.02485208467166929,-0.03525752733846729]","[-1,-1,-1]","[0.13809494606031372,-0.004515722246008978]","[1,1,1]","[-0.11478841298956866,0.006901781512072839]","[1,1,1]","[-0.1372570884971564,-0.06306957403196456]","[1,1,1]","[-0.07486955864315943,0.10887869253852911]","[-1,-1,-1]","[0.07349662147218335,-0.14280984423446497]","[1,1,1]","[0.1971944109651489,-0.01475848566276475]","[-1,-1,-1]","[0.025002365517891652,-0.07903399927155483]","[1,1,1]","[-0.03140651074590102,0.1296993434847466]","[-1,-1,-1]","[0.13282199705223616,0.047974187695780324]","[1,1,1]","[-0.02457838021967225,-0.08361449157896515]","[1,1,1]","[-0.09823202048767095,0.1588611813472544]","[1,1,1]","[0.09452618010307055,-0.07262145654872529]","[-1,-1,-1]","[-0.049586462317591284,0.19082074891478035]","[-1,-1,-1]","[-0.18819076393969425,-0.008301173356592534]","[1,1,1]","[0.11367246826513286,0.08738081632422878]","[-1,-1,-1]","[0.035462063175870334,-0.1683862245239573]","[-1,-1,-1]","[0.02,0.02]",278.3175,0,16,16,154,1,,,,,,,
,,,,,,,666423d7f962b51495da18fa,682db42e2ce0adab648d5241,2025-05-21_13h10.47.764,cuing_paradigm_dot,2024.1.5,Win32,60.24096386,682d556593cb38ad0a074487,,,,,,,,,,,278.3184,278.8175,,,279.0672,279.4176,right,,,,,,,,0.9,0.341,,,,,,,278.8177,279.0672,279.4178,"[0.036680765528325325,-0.15008555548203237]","[1,1,1]","[-0.0231407037215086,-0.08634951327146777]","[1,1,1]","[0.004964738487477375,0.19719851486862297]","[1,1,1]","[0.1253292052320762,-0.02374082723627892]","[1,1,1]","[-0.056765414587239486,0.00033582992154210895]","[1,1,1]","[0.11325207006956466,-0.13130028867109256]","[1,1,1]","[0.07857631677485898,-0.10743075170227594]","[1,1,1]","[0.0850796195789662,0.03915597269588628]","[1,1,1]","[-0.05350703581278527,0.18733850923567777]","[1,1,1]","[0.023652421489902712,0.0031007018955253496]","[1,1,1]","[-0.1208787121903154,0.0207718264166443]","[1,1,1]","[-0.04287090939952016,0.14548147468258407]","[1,1,1]","[-0.003497971544147028,-0.1611595506681974]","[1,1,1]","[-0.16417914414005755,0.11322417073278343]","[1,1,1]","[-0.12342407304611125,-0.054068916413241165]","[-1,-1,-1]","[-0.15083686679419367,-0.09474464159303388]","[1,1,1]","[0.046839180957641974,-0.03901066344078728]","[1,1,1]","[0.017391855838076436,-0.11139224261161416]","[1,1,1]","[-0.1591746744481399,-0.017273136689965343]","[1,1,1]","[-0.09049422737463916,-0.1464664672061782]","[1,1,1]","[-0.12639469210808282,0.14395415740801346]","[1,1,1]","[0.1585402636139514,0.02853395739625667]","[1,1,1]","[0.08676895426444928,0.17345838341400996]","[1,1,1]","[0.03186115096443638,0.06362209157764452]","[1,1,1]","[0.1914201684650528,-0.019940651173147153]","[1,1,1]","[-0.01622179772517817,0.015529680324018563]","[1,1,1]","[0.11667031654799397,0.08298386673928439]","[1,1,1]","[-0.0035174267735440545,0.08617859191223942]","[1,1,1]","[0.15453139111157893,-0.1150558758291436]","[1,1,1]","[-0.10941754725616804,-0.1054667092367316]","[-1,-1,-1]","[0.08858189708651629,-0.1628071369485599]","[-1,-1,-1]","[-0.11032360018673977,0.10676328055303383]","[1,1,1]","[0.02,0.02]",280.517,0,17,17,206,1,,,,,,,
,,,,,,,666423d7f962b51495da18fa,682db42e2ce0adab648d5241,2025-05-21_13h10.47.764,cuing_paradigm_dot,2024.1.5,Win32,60.24096386,682d556593cb38ad0a074487,,,,,,,,,,,280.5178,281.0169,,,281.2686,282.0004,right,,,,,,,,0.9,0.7192,,,,,,,281.017,281.2683,282.0006,"[-0.04695656048264832,-0.10045458087946621]","[1,1,1]","[0.06905821548938929,0.03409834044036466]","[1,1,1]","[-0.10986354631623625,-0.03427985982628194]","[1,1,1]","[-0.078734566078133,-0.18224677504391626]","[1,1,1]","[-0.1309385290606769,0.13041076716068284]","[1,1,1]","[0.07677994651005776,-0.17904618413993978]","[1,1,1]","[-0.17337220486920962,-0.027372325776295357]","[1,1,1]","[0.18955439849046649,0.036964541460136016]","[1,1,1]","[0.1097774233070662,0.09759314798985623]","[1,1,1]","[-0.11731970229748441,-0.158143793181254]","[1,1,1]","[-0.17223534608088656,0.09088802312752482]","[1,1,1]","[0.13250823160596126,0.014124149181845881]","[1,1,1]","[0.144619364566035,0.06630760943348335]","[1,1,1]","[-0.028203968193287257,-0.18224910593442606]","[1,1,1]","[-0.05494110559184786,0.1684467850784119]","[1,1,1]","[0.045227901911469685,0.19251929467733797]","[1,1,1]","[0.10651514866987101,-0.06961239744449561]","[-1,-1,-1]","[-0.1293031593880498,0.038012398362167535]","[1,1,1]","[-0.03496755926364405,-0.021291294695706082]","[1,1,1]","[-0.015109206114430002,-0.142462660480031]","[1,1,1]","[0.008604006778507303,0.13481565430121478]","[1,1,1]","[-0.15865812818749242,-0.09851914531999947]","[1,1,1]","[-0.1717805033391779,0.04262515954556327]","[-1,-1,-1]","[0.061104817457833485,-0.10709243533817057]","[1,1,1]","[-0.09764459997859781,-0.09107370649533898]","[1,1,1]","[0.06028703088418457,0.09086447148844183]","[1,1,1]","[-0.06402027249104023,0.07321938497686123]","[1,1,1]","[-0.01563585089264985,0.10272956766194931]","[1,1,1]","[0.0545997107889658,-0.039156401042349825]","[1,1,1]","[0.09525732597212683,0.1612256223307923]","[1,1,1]","[0.10282103732779792,-0.11664234661956052]","[1,1,1]","[0.1920516568186058,-0.03353219568023696]","[-1,-1,-1]","[0.02,0.02]",283.0999,0,18,18,190,1,,,,,,,
,,,,,,,666423d7f962b51495da18fa,682db42e2ce0adab648d5241,2025-05-21_13h10.47.764,cuing_paradigm_dot,2024.1.5,Win32,60.24096386,682d556593cb38ad0a074487,,,,,,,,,,,283.101,283.5997,,,283.8503,284.332,left,,,,,,,,0.1,0.4632,,,,,,,283.5999,283.8502,284.3322,"[0.10456467766815056,0.01528219950409883]","[-1,-1,-1]","[0.18911368815568194,0.05873903796527251]","[-1,-1,-1]","[0.07969929742101081,-0.14037801416450144]","[-1,-1,-1]","[0.11385023144780851,-0.10647800120891694]","[-1,-1,-1]","[-0.12136217879365725,-0.10521456361250099]","[1,1,1]","[-0.1450284541789672,0.11190780272775736]","[-1,-1,-1]","[-0.021679220962781957,0.048338614216158204]","[-1,-1,-1]","[-0.19082812511259128,0.03712372451472399]","[-1,-1,-1]","[0.18047496679602307,-0.04061143976288116]","[1,1,1]","[0.06077320955268312,-0.018962470975918085]","[-1,-1,-1]","[-0.10924088894475688,0.03660307788879811]","[-1,-1,-1]","[-0.06072090655735209,-0.01915048472145849]","[-1,-1,-1]","[-0.18227796899299875,-0.06269078978860917]","[-1,-1,-1]","[0.05510949147146829,0.10833063815617204]","[-1,-1,-1]","[-0.06926174018620275,0.16151796510049113]","[-1,-1,-1]","[-0.10148649479179735,-0.05228095832412614]","[-1,-1,-1]","[0.08870301638466174,0.06142698980603974]","[-1,-1,-1]","[0.1229222670728344,0.13723935222239886]","[-1,-1,-1]","[-0.08968735581303003,-0.1545276306452941]","[-1,-1,-1]","[-0.02660642901174815,-0.17113998032574357]","[-1,-1,-1]","[-0.00012489679888188102,0.11655483423947852]","[-1,-1,-1]","[-0.009218086245392885,-0.07468817228191203]","[-1,-1,-1]","[-0.0649614217888237,-0.08477766044013631]","[-1,-1,-1]","[0.1869124619909171,0.014005166766956722]","[-1,-1,-1]","[0.017746735447660953,-0.13968623533189425]","[1,1,1]","[0.1546585204955823,0.11275844937310782]","[-1,-1,-1]","[-0.09881906757207135,0.12084121131337396]","[-1,-1,-1]","[0.0424627104897707,-0.09733656596776366]","[-1,-1,-1]","[0.0312783929556354,-0.19367962206706857]","[-1,-1,-1]","[0.1584609842912137,-0.08090419877383602]","[-1,-1,-1]","[-0.052275511879577324,0.022130251969725002]","[-1,-1,-1]","[0.0318527974038337,0.011811845563480012]","[-1,-1,-1]","[0.02,0.02]",285.4323,0,19,19,11,1,,,,,,,
,,,,,,,666423d7f962b51495da18fa,682db42e2ce0adab648d5241,2025-05-21_13h10.47.764,cuing_paradigm_dot,2024.1.5,Win32,60.24096386,682d556593cb38ad0a074487,,,,,,,,,,,285.4333,285.9321,,,286.1826,286.8321,left,,,,,,,,0.6,0.6366,,,,,,,285.9323,286.1825,286.8322,"[-0.02384105321853089,-0.16453742422242562]","[1,1,1]","[-0.06183454564953129,-0.0938240514165377]","[1,1,1]","[0.022888013338925896,-0.1701135802748593]","[1,1,1]","[0.0027923159803368326,0.007454563944684233]","[1,1,1]","[-0.16316214896561476,0.11221005843640848]","[-1,-1,-1]","[-0.13459818029807444,-0.1346133292359254]","[1,1,1]","[0.026527675540253474,0.07760401097601967]","[-1,-1,-1]","[-0.158252836499868,-0.09740454948902293]","[1,1,1]","[0.1024687437433088,0.15205116046796843]","[-1,-1,-1]","[0.12362021921263777,-0.10701392608875411]","[1,1,1]","[0.07030857164023503,-0.0161207158939559]","[1,1,1]","[-0.06662672613177749,0.04819629866527159]","[-1,-1,-1]","[0.1593866471453919,0.0739315195237773]","[-1,-1,-1]","[-0.13470200556827291,-0.007127931448202025]","[-1,-1,-1]","[0.03609092178336026,0.16387170874699847]","[1,1,1]","[-0.08955161265370387,-0.1719968083135226]","[1,1,1]","[-0.0074678776566824865,0.04934085908104953]","[1,1,1]","[-0.052772381557549014,0.1684600439729103]","[1,1,1]","[0.02192576330846065,-0.028512076006415872]","[-1,-1,-1]","[0.1730773727814272,-0.09695929034353355]","[-1,-1,-1]","[0.13335687170212154,0.015937846863441487]","[-1,-1,-1]","[0.0032491879874488173,-0.0990927678855144]","[1,1,1]","[0.1260666758355644,-0.049124056034965606]","[-1,-1,-1]","[-0.010286642475281774,0.1047154028873821]","[1,1,1]","[0.1739257571779097,0.02697262704833606]","[1,1,1]","[-0.12246718819501813,0.04005762044610071]","[-1,-1,-1]","[0.08131062805890167,-0.160041387447421]","[-1,-1,-1]","[-0.17488264200352585,-0.01890425263678009]","[1,1,1]","[-0.06862474296425937,0.1174345995610132]","[-1,-1,-1]","[-0.15348310754081515,0.07221766709176455]","[1,1,1]","[0.0763172915900798,0.043292768407385544]","[1,1,1]","[-0.028693315473869555,-0.06663817949838202]","[1,1,1]","[0.02,0.02]",287.9318,0,20,20,179,1,,,,,,,
,,,,,,,666423d7f962b51495da18fa,682db42e2ce0adab648d5241,2025-05-21_13h10.47.764,cuing_paradigm_dot,2024.1.5,Win32,60.24096386,682d556593cb38ad0a074487,,,,,,,,,,,287.9327,288.4317,,,288.682,289.6312,left,,,,,,,,0.55,0.9418,,,,,,,288.4319,288.6819,289.6312,"[0.14967997433522442,0.1268002576036336]","[1,1,1]","[0.033039013373414666,-0.14881510567075035]","[-1,-1,-1]","[0.03882845217454893,-0.03559154712835065]","[-1,-1,-1]","[-0.14037900261313943,0.07813238973360168]","[-1,-1,-1]","[-0.190880372722265,-0.005717448574063185]","[-1,-1,-1]","[-0.03245015090885329,0.14175870607311147]","[1,1,1]","[0.021155586237600988,0.12448685736687515]","[1,1,1]","[-0.09689035746250524,0.04420286042104531]","[1,1,1]","[-0.06094955443556728,-0.12113578207750245]","[-1,-1,-1]","[0.02938189186692578,-0.09734656750840684]","[-1,-1,-1]","[-0.10598617170517416,-0.020492523167041837]","[1,1,1]","[-0.02397506999736998,-0.02791898435435176]","[1,1,1]","[-0.14091614491583151,-0.05052047400173922]","[-1,-1,-1]","[0.04322546965524762,0.19240159243161203]","[1,1,1]","[-0.0064835790820553935,0.049460697512166564]","[-1,-1,-1]","[-0.0251735923694141,-0.0804012523019488]","[-1,-1,-1]","[-0.016791808329955273,-0.136879078691675]","[1,1,1]","[0.16763596249398185,-0.0076595161063467716]","[-1,-1,-1]","[-0.1466805211582359,0.0311708972616999]","[1,1,1]","[0.05145404534144487,0.15125323938093657]","[1,1,1]","[0.07453030390326565,0.03940541689541082]","[-1,-1,-1]","[0.12511291951492248,-0.14321653489035624]","[1,1,1]","[0.1803011321338517,0.04996943742673566]","[-1,-1,-1]","[-0.07091273492820373,-0.07171116140724496]","[-1,-1,-1]","[-0.09886689121016667,0.09619154402212059]","[1,1,1]","[0.0209922054021389,-0.1905120241325375]","[-1,-1,-1]","[-0.04707885897536681,0.10093470332616786]","[1,1,1]","[0.08421294145734652,-0.13681248987703729]","[1,1,1]","[0.10094787778335094,0.0007276934847538325]","[1,1,1]","[-0.0660256176250972,0.006616933581667293]","[1,1,1]","[0.1024745663563413,-0.05610745350873519]","[1,1,1]","[0.13122714909058855,0.07397699821384075]","[1,1,1]","[0.02,0.02]",290.7312,0,21,21,143,1,,,,,,,
,,,,,,,666423d7f962b51495da18fa,682db42e2ce0adab648d5241,2025-05-21_13h10.47.764,cuing_paradigm_dot,2024.1.5,Win32,60.24096386,682d556593cb38ad0a074487,,,,,,,,,,,290.7321,291.2309,,,291.4704,292.3346,right,,,,,,,,0.45,0.848,,,,,,,291.2311,291.4703,292.3347,"[-0.03226379756312345,-0.10490399519777686]","[1,1,1]","[-0.07765592224245724,0.034790401266166025]","[-1,-1,-1]","[-0.05582852229501918,0.07209079066952427]","[1,1,1]","[0.19541258348827273,-0.017507543359386514]","[-1,-1,-1]","[0.08946738746809628,-0.051514142087661086]","[1,1,1]","[-0.1342237839312243,0.02368720060710561]","[-1,-1,-1]","[0.12743755114445288,0.007374004853089641]","[-1,-1,-1]","[-0.06495772264436651,-0.010722628624706992]","[-1,-1,-1]","[-0.010031622093567266,-0.032130037181673544]","[1,1,1]","[0.06098239390636438,0.15790949630505924]","[1,1,1]","[-0.1330827357774183,0.08654903790755462]","[-1,-1,-1]","[0.03410536019186266,-0.18961145981610975]","[-1,-1,-1]","[0.014064447061304126,-0.14080099634492688]","[-1,-1,-1]","[0.07000868743383414,-0.004737484787458209]","[-1,-1,-1]","[0.14774786263604722,-0.09452707922509775]","[-1,-1,-1]","[0.14563375625791927,0.10817465881975033]","[1,1,1]","[-0.1470526032015286,-0.07379500356748293]","[-1,-1,-1]","[-0.15400784450272814,-0.11693978996360872]","[1,1,1]","[-0.19164990118152112,-0.02090359948581994]","[-1,-1,-1]","[0.09905462964472843,0.10146491714965146]","[-1,-1,-1]","[-0.0791754947883568,-0.08290833300712754]","[1,1,1]","[-0.07202143630191316,0.14816046126750163]","[1,1,1]","[0.045325527465452334,0.10771783250021942]","[-1,-1,-1]","[0.03249095367320203,0.05126144305808896]","[1,1,1]","[-0.018156985959120554,0.15369503110969068]","[1,1,1]","[-0.11804905233554593,0.1410525371367406]","[-1,-1,-1]","[-0.020596792845319695,-0.195881074914037]","[-1,-1,-1]","[0.022777302371721462,-0.0801060021322471]","[1,1,1]","[0.13431300234274976,-0.04206509653801027]","[1,1,1]","[-0.0876585654221487,-0.12618668838909644]","[1,1,1]","[0.07357584993680331,-0.15496007349241578]","[-1,-1,-1]","[-0.01575750153264052,0.0118252715166411]","[-1,-1,-1]","[0.02,0.02]",293.4314,0,22,22,70,1,,,,,,,
,,,,,,,666423d7f962b51495da18fa,682db42e2ce0adab648d5241,2025-05-21_13h10.47.764,cuing_paradigm_dot,2024.1.5,Win32,60.24096386,682d556593cb38ad0a074487,,,,,,,,,,,293.4328,293.9314,,,294.186,295.681,,,,,,,,,0.45,,,,,,,,293.9316,294.1859,295.6811,"[-0.17554140984161465,0.04142836879743527]","[1,1,1]","[-0.10422277234849422,0.06644021523544742]","[1,1,1]","[0.04987834187527524,-0.11576930502731764]","[1,1,1]","[-0.07218361044233045,-0.006429781401034504]","[1,1,1]","[-0.017129336688836247,-0.06934350537276407]","[-1,-1,-1]","[0.1754828458123355,0.01007408238969759]","[-1,-1,-1]","[-0.08325488046821589,0.16389188201653926]","[-1,-1,-1]","[0.09287418545175624,0.07020460314531381]","[-1,-1,-1]","[0.008091383626318518,0.1726634690629024]","[-1,-1,-1]","[-0.1761017549309641,-0.029809508244642992]","[-1,-1,-1]","[0.10662459386352441,-0.1366017659073243]","[-1,-1,-1]","[0.12225803364506274,-0.03503578905072171]","[-1,-1,-1]","[0.026649749413415056,-0.039663595446719414]","[1,1,1]","[0.012471628125135765,0.05186895449472392]","[1,1,1]","[0.05713444451491289,0.09932760984333966]","[-1,-1,-1]","[-0.13450814698189328,0.09501859506151665]","[1,1,1]","[-0.04302125218190674,-0.14235024449759828]","[-1,-1,-1]","[0.01739391272326524,0.008477349387105435]","[-1,-1,-1]","[-0.05324953049160686,0.12934170051872101]","[-1,-1,-1]","[0.07801676547397485,-0.040470052179471354]","[1,1,1]","[-0.11864587016260983,-0.15175706183167464]","[-1,-1,-1]","[0.051913087815241836,-0.18148536896220427]","[1,1,1]","[0.05564721409573317,0.14611982638440832]","[1,1,1]","[0.13799666694478332,-0.1003937500899796]","[1,1,1]","[0.12757928971524918,0.15108796953165235]","[1,1,1]","[-0.06671322007100162,0.08732868431929403]","[1,1,1]","[-0.038982640105644506,0.025874008260950977]","[-1,-1,-1]","[0.10248856069780014,0.020418159868869957]","[1,1,1]","[0.14021549319411009,0.03506162377116653]","[-1,-1,-1]","[0.13492023597699918,0.08114699747561563]","[-1,-1,-1]","[0.19021720632638356,0.05821881885333312]","[-1,-1,-1]","[0.023211384574199783,-0.1480249357795327]","[-1,-1,-1]","[0.02,0.02]",296.7807,0,23,23,75,1,,,,,,,
,,,,,,,666423d7f962b51495da18fa,682db42e2ce0adab648d5241,2025-05-21_13h10.47.764,cuing_paradigm_dot,2024.1.5,Win32,60.24096386,682d556593cb38ad0a074487,,,,,,,,,,,296.782,297.2806,,,297.5321,298.2814,right,,,,,,,,0.9,0.723,,,,,,,297.2807,297.5321,298.2815,"[0.0031053992089173626,-0.033499101782175744]","[1,1,1]","[-0.08471771754838098,-0.0321509919037062]","[1,1,1]","[-0.12478371101631863,0.007043721168473503]","[1,1,1]","[0.09721336788864053,0.14924508146793689]","[1,1,1]","[0.06450856952302267,-0.07485080355287058]","[1,1,1]","[-0.04953070096409287,-0.18504559082486738]","[1,1,1]","[0.05594178681089445,-0.019478325311923582]","[1,1,1]","[0.18913018149077207,0.03341670926757844]","[1,1,1]","[-0.18580411516285109,0.0019760557050704126]","[1,1,1]","[-0.1084314617909957,-0.09146368621593966]","[1,1,1]","[0.06633405163427582,-0.14485420356388737]","[-1,-1,-1]","[0.1768055263058593,-0.07863959390994933]","[1,1,1]","[-0.05381595551645638,-0.13018827875397326]","[1,1,1]","[0.10366225695703106,0.027917956874280687]","[-1,-1,-1]","[0.04589138353656084,0.07376859129737592]","[1,1,1]","[-0.05201423742705988,0.026672300911574992]","[1,1,1]","[-0.1051851414761982,0.10437743278496993]","[1,1,1]","[-0.16945807120978906,-0.09522622942067782]","[1,1,1]","[0.16464268472930163,0.07528590693818485]","[1,1,1]","[0.1340246498000632,-0.07633185947467873]","[1,1,1]","[0.028788384780991227,0.12813955626855397]","[-1,-1,-1]","[-0.06622726754539678,-0.07878707261318615]","[1,1,1]","[-0.09978519054093736,-0.14605079553537667]","[1,1,1]","[-0.04452433896186918,0.15890485306711188]","[1,1,1]","[0.1335576898076289,-0.023820343828107614]","[1,1,1]","[0.10997999807763231,0.1032885536882422]","[1,1,1]","[-0.09057711788144447,0.17315287739394367]","[1,1,1]","[0.016935231535624096,-0.12280634208414606]","[1,1,1]","[-0.1384618868428504,-0.0359855666710682]","[1,1,1]","[-0.09614560994232399,0.03667267421282109]","[1,1,1]","[-0.02109972733575967,0.09298413941392317]","[1,1,1]","[-0.17499294720241357,0.059810552980844686]","[1,1,1]","[0.02,0.02]",299.3809,0,24,24,183,1,,,,,,,
,,,,,,,666423d7f962b51495da18fa,682db42e2ce0adab648d5241,2025-05-21_13h10.47.764,cuing_paradigm_dot,2024.1.5,Win32,60.24096386,682d556593cb38ad0a074487,,,,,,,,,,,299.3823,299.88,,,300.1337,300.5977,right,,,,,,,,0.55,0.4382,,,,,,,299.8801,300.1336,300.5978,"[0.13952086995413646,0.13907098258579542]","[1,1,1]","[-0.008177177571578292,0.1320989989768569]","[-1,-1,-1]","[0.029086744245720806,0.10389921227008869]","[-1,-1,-1]","[0.0241327009936112,-0.06726860333028867]","[-1,-1,-1]","[-0.14058859845685234,0.13566338760974542]","[-1,-1,-1]","[0.1766136768317724,-0.05449073583327423]","[1,1,1]","[-0.05781251785800506,0.1692463176224358]","[1,1,1]","[-0.14534481404589805,-0.1157437236280023]","[1,1,1]","[0.1660818205143615,0.09271653220881454]","[-1,-1,-1]","[-0.1288125189717196,-0.0275404945920312]","[1,1,1]","[0.08193457172840514,-0.10869533168267692]","[1,1,1]","[0.15394550552469194,0.03939710624696774]","[1,1,1]","[-0.192357477503603,-0.010000460960109096]","[-1,-1,-1]","[0.0933178447343006,-0.1671713735439336]","[-1,-1,-1]","[0.11878034413583786,-0.012583665000614955]","[1,1,1]","[-0.14120534499703014,0.05467360939863904]","[-1,-1,-1]","[0.08861111803760868,0.11034996938752421]","[-1,-1,-1]","[0.17202905981223346,-0.09687960894137597]","[1,1,1]","[-0.09008577521228886,0.12629245276679893]","[-1,-1,-1]","[0.0813030246120868,0.0506419165610929]","[1,1,1]","[0.0611122633728759,-0.004813759297581551]","[1,1,1]","[-0.03171233256303131,-0.12020795787101098]","[1,1,1]","[-0.06426376870814066,-0.08147359433675863]","[1,1,1]","[-0.014933972954908597,0.19684875156906875]","[-1,-1,-1]","[-0.09251901833311967,-0.16103712671283593]","[1,1,1]","[0.12636222482882087,-0.05535219656863879]","[-1,-1,-1]","[-0.026634079435075633,-0.1607413672186128]","[1,1,1]","[-0.06285822344869692,0.04104613581094552]","[1,1,1]","[-0.12222181881815246,-0.07271453369370148]","[-1,-1,-1]","[0.18430478613264067,-0.006287396350592107]","[-1,-1,-1]","[-0.021081773938745378,0.05497405901179285]","[1,1,1]","[-0.06558301626122891,-0.02413857428640308]","[1,1,1]","[0.02,0.02]",301.6964,0,25,25,149,1,,,,,,,
,,,,,,,666423d7f962b51495da18fa,682db42e2ce0adab648d5241,2025-05-21_13h10.47.764,cuing_paradigm_dot,2024.1.5,Win32,60.24096386,682d556593cb38ad0a074487,,,,,,,,,,,301.6975,302.1962,,,302.4489,303.1137,right,,,,,,,,0.6,0.6432,,,,,,,302.1963,302.4487,303.1138,"[0.14294951553452512,0.11907082800860365]","[1,1,1]","[0.08946159677689032,-0.14842343132526892]","[-1,-1,-1]","[0.05298044094928331,0.16473085964478884]","[1,1,1]","[0.08873151865369461,0.14174311433438594]","[-1,-1,-1]","[-0.1915338822123989,-0.021172781280656056]","[1,1,1]","[0.09711679736520629,0.0011866036845123204]","[-1,-1,-1]","[-0.030008418516183532,-0.11761472572372673]","[-1,-1,-1]","[-0.14038768427431175,0.11162715524651429]","[1,1,1]","[0.040076528283153855,0.04813458677175296]","[1,1,1]","[-0.1427198339180551,-0.0796277868155106]","[1,1,1]","[-0.07673026718789998,-0.05115871962089255]","[1,1,1]","[0.13725965830190826,0.0077320210348617155]","[-1,-1,-1]","[-0.08888406426181343,0.13580423954617868]","[1,1,1]","[0.02563288510969441,-0.19150481245173112]","[1,1,1]","[0.06646304552708879,0.10416464001780662]","[-1,-1,-1]","[0.18003490069009181,0.0211109183793027]","[1,1,1]","[-0.024021968748278246,0.09861882515855873]","[-1,-1,-1]","[-0.17375864207265942,0.05469643137494344]","[-1,-1,-1]","[-0.11954544493829736,0.05379126996523134]","[-1,-1,-1]","[0.13765168998050512,-0.1145150342214579]","[1,1,1]","[-0.052390312156849986,-0.1719829313378404]","[-1,-1,-1]","[0.13675544302488687,-0.06035928675807366]","[1,1,1]","[0.1484622294783477,0.06490982607769027]","[1,1,1]","[-0.06665636333544991,0.012908962806774197]","[1,1,1]","[0.1731963231900541,-0.08960868286290967]","[1,1,1]","[0.015006364085906871,-0.03892309806194411]","[1,1,1]","[-0.11717617798754928,-0.031960540947603366]","[1,1,1]","[0.02419898434381647,-0.11071743420429818]","[-1,-1,-1]","[-0.110999975362505,-0.11794100618795574]","[1,1,1]","[0.08157091496114245,-0.08102829458950579]","[-1,-1,-1]","[-0.04398793140422644,0.14680088204365224]","[1,1,1]","[-0.03698463424142265,-0.0728390192280798]","[-1,-1,-1]","[0.02,0.02]",304.2127,0,26,26,160,1,,,,,,,
,,,,,,,666423d7f962b51495da18fa,682db42e2ce0adab648d5241,2025-05-21_13h10.47.764,cuing_paradigm_dot,2024.1.5,Win32,60.24096386,682d556593cb38ad0a074487,,,,,,,,,,,304.2139,304.7125,,,304.9675,305.3301,right,,,,,,,,0.9,0.3366,,,,,,,304.7125,304.9674,305.3301,"[-0.016050378017373426,-0.05065855068594663]","[1,1,1]","[-0.19592316144612276,0.015447716698869567]","[1,1,1]","[0.08892936683055101,-0.03657648535918617]","[1,1,1]","[0.03623878185807569,0.09806565101857313]","[1,1,1]","[0.06508961825548948,0.16280623741025166]","[1,1,1]","[-0.13916995541231328,-0.054115112045778575]","[1,1,1]","[-0.04807262544720389,0.14957613727258623]","[1,1,1]","[-0.14328582816909857,0.026139563066331264]","[1,1,1]","[0.15529307613066676,-0.09999797511819193]","[-1,-1,-1]","[-0.06871359085455926,0.10599064177135205]","[1,1,1]","[0.13315108692897284,-0.053809022198233636]","[1,1,1]","[-0.09382763315718791,-0.09980867971549386]","[1,1,1]","[0.19403972429858207,0.013689405094945274]","[1,1,1]","[0.07847938871903311,-0.09635304562185153]","[1,1,1]","[-0.06293035589885093,-0.014458448424171733]","[1,1,1]","[-0.05475179712045195,0.1890541100494869]","[1,1,1]","[-0.04840553202491086,-0.13909329989789837]","[1,1,1]","[-0.15741745483704037,0.07711952568504477]","[1,1,1]","[0.02859671965568567,-0.0839469027058353]","[-1,-1,-1]","[0.06717520783316701,0.02890196731311456]","[1,1,1]","[-0.09026298241653273,0.05997380310204041]","[1,1,1]","[0.019355663080249764,0.15315854591984795]","[1,1,1]","[0.13900310346912118,0.023532432559585197]","[1,1,1]","[0.000904069244434266,-0.15453677095139515]","[1,1,1]","[-0.004254121937371432,0.108894201448314]","[1,1,1]","[0.13100601981965235,-0.14911267774437867]","[1,1,1]","[-0.008803490017192384,0.04679961026877927]","[1,1,1]","[0.11053057955893221,0.15789301705045714]","[1,1,1]","[0.05229053147812212,-0.1764098578188264]","[1,1,1]","[-0.0857568438697064,-0.1801316161321013]","[1,1,1]","[0.015330131859607478,0.19682325716789237]","[1,1,1]","[-0.08895758172251951,0.019978522848921723]","[-1,-1,-1]","[0.02,0.02]",306.4287,0,27,27,186,1,,,,,,,
,,,,,,,666423d7f962b51495da18fa,682db42e2ce0adab648d5241,2025-05-21_13h10.47.764,cuing_paradigm_dot,2024.1.5,Win32,60.24096386,682d556593cb38ad0a074487,,,,,,,,,,,306.4301,306.9291,,,307.1832,307.7296,left,,,,,,,,0.4,0.5308,,,,,,,306.9293,307.1831,307.7297,"[-0.057051933737635174,0.01863284634678811]","[-1,-1,-1]","[0.11538736535377692,0.1367612235152866]","[1,1,1]","[-0.1968865052744091,0.0013619666860680832]","[1,1,1]","[-0.0831773641171275,-0.09365778525002866]","[-1,-1,-1]","[-0.0987864976667274,-0.003804286787273856]","[-1,-1,-1]","[-0.14038466205002628,-0.12187059793688267]","[-1,-1,-1]","[-0.17093878384312983,-0.042914125389348544]","[-1,-1,-1]","[0.10205743846678941,-0.054541874158327154]","[1,1,1]","[0.024900751069133756,-0.1849171791005073]","[1,1,1]","[-0.14577585810277785,0.12578858474780558]","[-1,-1,-1]","[0.04725564561351205,-0.012119081373658]","[1,1,1]","[0.02749258206305379,-0.08813221504287543]","[-1,-1,-1]","[0.06200693380913929,0.08569931178492746]","[1,1,1]","[0.005876954867120708,0.09629816032078735]","[1,1,1]","[0.09155817425128904,0.045658441683487004]","[1,1,1]","[-0.02894146455335629,-0.011728944418960977]","[1,1,1]","[-0.08882990053583306,0.10854315105183084]","[1,1,1]","[-0.02954876220108004,0.07107230128441888]","[-1,-1,-1]","[-0.13971342547881635,0.0007328179021932581]","[-1,-1,-1]","[-0.03960093672289125,-0.11278062146424313]","[-1,-1,-1]","[0.15592854732082229,0.07505279564590445]","[-1,-1,-1]","[0.005726185276326499,0.026331310598094973]","[-1,-1,-1]","[0.10964631016710441,-0.14735543498038373]","[-1,-1,-1]","[-0.09487381536634538,-0.05119440106021847]","[-1,-1,-1]","[-0.17417682003476329,-0.09154656498921304]","[1,1,1]","[0.04373828370433912,0.12376446901787083]","[-1,-1,-1]","[-0.030515349978302648,0.1747472341207086]","[1,1,1]","[0.0679482003651398,0.16171215703694575]","[-1,-1,-1]","[0.1514855346564852,-0.0020401909354595448]","[-1,-1,-1]","[0.059203455598055524,-0.06126206137648224]","[1,1,1]","[-0.07795279280750174,-0.13502528797884916]","[-1,-1,-1]","[0.0491763144120529,-0.13190081483722893]","[-1,-1,-1]","[0.02,0.02]",308.828,0,28,28,32,1,,,,,,,
,,,,,,,666423d7f962b51495da18fa,682db42e2ce0adab648d5241,2025-05-21_13h10.47.764,cuing_paradigm_dot,2024.1.5,Win32,60.24096386,682d556593cb38ad0a074487,,,,,,,,,,,308.8293,309.3281,,,309.5809,310.0123,right,,,,,,,,0.5,0.4098,,,,,,,309.3282,309.5807,310.0124,"[-0.12348764019383923,-0.13792004537610064]","[1,1,1]","[-0.16062097438860948,0.07374818027437043]","[1,1,1]","[-0.07170140792760006,0.12450771788304785]","[1,1,1]","[0.14106653898560556,0.09562428229989674]","[-1,-1,-1]","[0.015300736916099665,0.1787840776846922]","[1,1,1]","[-0.019959384087654866,-0.12181009098980398]","[1,1,1]","[-0.04664859163029053,-0.16420759785236252]","[-1,-1,-1]","[-0.050661810946199204,-0.08623249463001266]","[1,1,1]","[0.06254054575953964,0.18319838520282059]","[-1,-1,-1]","[-0.034135765920567204,0.17931633190217738]","[1,1,1]","[0.04857646559699588,-0.06505110068630161]","[1,1,1]","[-0.04423615222759329,0.06625313407079407]","[-1,-1,-1]","[0.05034844447139087,-0.17770986230051466]","[1,1,1]","[0.10834819146059865,0.02616858232223972]","[-1,-1,-1]","[0.17576358024880248,-0.08592710504025568]","[1,1,1]","[-0.1105287914807616,0.1089410147046134]","[1,1,1]","[-0.15513479125145557,0.018674558675789068]","[-1,-1,-1]","[0.11573877865531139,-0.06535983290656379]","[-1,-1,-1]","[-0.13431792631500108,-0.05906358153401444]","[-1,-1,-1]","[-0.08604939775418571,0.06487744874373344]","[-1,-1,-1]","[0.12503182737129773,-0.14134295546094344]","[1,1,1]","[0.09667178594178179,-0.017276782945415733]","[-1,-1,-1]","[-0.05145773477863302,-0.027204344252915832]","[1,1,1]","[0.15758168954274035,0.01778264222260028]","[-1,-1,-1]","[-0.19016954365928437,-0.011203618784197783]","[-1,-1,-1]","[0.08119160592541828,-0.10993211923232972]","[-1,-1,-1]","[-0.0012308309315760585,-0.16511505741278557]","[1,1,1]","[0.05064524361264602,0.02858002296041235]","[-1,-1,-1]","[0.10364609164650836,0.1599821672948876]","[-1,-1,-1]","[0.10041531026852347,0.06539813897988621]","[1,1,1]","[-0.08346765576453376,0.013834388654843589]","[1,1,1]","[-0.18314352334814268,-0.06586624865060453]","[-1,-1,-1]","[0.02,0.02]",311.1111,0,29,29,109,1,,,,,,,
,,,,,,,666423d7f962b51495da18fa,682db42e2ce0adab648d5241,2025-05-21_13h10.47.764,cuing_paradigm_dot,2024.1.5,Win32,60.24096386,682d556593cb38ad0a074487,,,,,,,,,,,311.1125,311.6109,,,311.862,312.3284,right,,,,,,,,0.1,0.4425,,,,,,,311.611,311.8619,312.3285,"[-0.02630108459637978,0.10373503543661025]","[-1,-1,-1]","[0.05046556208709211,0.14071705747768118]","[1,1,1]","[0.14327692174804033,-0.08499509598145398]","[-1,-1,-1]","[-0.024685651789566474,0.022523670314374925]","[-1,-1,-1]","[-0.1830505184640674,0.06798453743290668]","[-1,-1,-1]","[-0.04879425729397603,-0.1638358886154981]","[-1,-1,-1]","[-0.16125083284051397,0.019879637884426184]","[-1,-1,-1]","[0.10280046580611316,0.16346262628893662]","[-1,-1,-1]","[0.13933800125412432,0.007777215458941455]","[-1,-1,-1]","[-0.10179268793675748,-0.11822807879602466]","[-1,-1,-1]","[0.0012177746202387918,0.19404434216973165]","[-1,-1,-1]","[-0.01378483872703172,-0.0930915985921663]","[-1,-1,-1]","[-0.12406860925214606,0.09724071479689776]","[-1,-1,-1]","[-0.10578277311548588,0.04854668004554503]","[-1,-1,-1]","[-0.08759860720301363,0.1717997007985024]","[-1,-1,-1]","[0.15144862185138325,0.08232125502271656]","[-1,-1,-1]","[-0.12546967738611148,-0.006175135589853608]","[-1,-1,-1]","[0.015154457792739459,0.12166308570811754]","[-1,-1,-1]","[0.11667250571130346,0.052980316628222286]","[-1,-1,-1]","[-0.10665410286307148,-0.05416341105808071]","[1,1,1]","[0.08894229766890757,-0.09366137502028264]","[-1,-1,-1]","[-0.166963294088043,-0.04242282391278814]","[1,1,1]","[0.014796750168563227,-0.13508826219860287]","[-1,-1,-1]","[0.09640159273175905,-0.13304273866602404]","[-1,-1,-1]","[0.15307408683259277,-0.03133070573647409]","[-1,-1,-1]","[-0.04597861549165023,0.18320394961993425]","[-1,-1,-1]","[0.07611264248502807,0.10494822936019155]","[-1,-1,-1]","[0.07657781686949568,0.02020804651235612]","[-1,-1,-1]","[0.014848174645836501,0.07376601333741822]","[-1,-1,-1]","[0.04274492426444015,-0.020826541757365893]","[-1,-1,-1]","[0.05890408041891301,-0.15531855011153511]","[-1,-1,-1]","[-0.08180745620875733,-0.021613244907914084]","[-1,-1,-1]","[0.02,0.02]",313.4273,0,30,30,5,1,,,,,,,
,,,,,,,666423d7f962b51495da18fa,682db42e2ce0adab648d5241,2025-05-21_13h10.47.764,cuing_paradigm_dot,2024.1.5,Win32,60.24096386,682d556593cb38ad0a074487,,,,,,,,,,,313.4285,313.9272,,,314.1804,314.9782,left,,,,,,,,0.4,0.7703,,,,,,,313.9273,314.1803,314.9783,"[0.10309262348200897,0.040599329323520984]","[1,1,1]","[-0.12719658389989288,0.006107232811032739]","[1,1,1]","[-0.08921440430450588,0.02803762445073119]","[1,1,1]","[0.04901909474549417,-0.09484707974306789]","[-1,-1,-1]","[0.18911745758411752,-0.03403637486337104]","[-1,-1,-1]","[0.08346789596870259,0.1153414765927895]","[1,1,1]","[0.14579369662138728,0.06883152528853598]","[-1,-1,-1]","[0.03900855609301821,-0.1664607035954787]","[-1,-1,-1]","[0.021265195531711283,-0.01346496228851974]","[-1,-1,-1]","[-0.08530736122380037,-0.059255455104384416]","[-1,-1,-1]","[0.10239128230551967,-0.15968426464066732]","[1,1,1]","[-0.011600132663646812,-0.15691940024452702]","[-1,-1,-1]","[0.00134117660607878,0.06851381167288478]","[1,1,1]","[-0.0420192850598324,-0.07599377749776612]","[-1,-1,-1]","[0.05370880434590673,0.030618354536962128]","[-1,-1,-1]","[-0.04715040920232288,-0.023534694289148148]","[1,1,1]","[-0.07898749782514465,0.1352959902692558]","[-1,-1,-1]","[-0.15011430706257753,0.060134194183650146]","[-1,-1,-1]","[-0.029240595736954225,0.11918930547049243]","[-1,-1,-1]","[-0.041858311599212134,0.17951507389611746]","[-1,-1,-1]","[0.17696299034897092,0.03065404227440908]","[-1,-1,-1]","[0.14946221942112653,0.1164296776144778]","[-1,-1,-1]","[-0.13860806169822693,0.13219090863200633]","[1,1,1]","[0.03195781972931782,0.19031105338304455]","[-1,-1,-1]","[0.11101546506978122,-0.06537489062325515]","[-1,-1,-1]","[-0.08958675437303369,-0.13017959768033166]","[1,1,1]","[-0.08227421395562733,0.08793877526395295]","[-1,-1,-1]","[-0.1464114877897935,-0.10312022457988972]","[1,1,1]","[0.07222349535675389,0.15896001167130164]","[-1,-1,-1]","[0.12920163177001578,-0.0008450669311796968]","[1,1,1]","[0.09478834067190815,-0.02616493394450186]","[1,1,1]","[0.09329553218822965,-0.11664853333113316]","[1,1,1]","[0.02,0.02]",316.0767,0,31,31,52,1,,,,,,,
,,,,,,,666423d7f962b51495da18fa,682db42e2ce0adab648d5241,2025-05-21_13h10.47.764,cuing_paradigm_dot,2024.1.5,Win32,60.24096386,682d556593cb38ad0a074487,,,,,,,,,,,316.078,316.5766,,,316.8311,317.2776,right,,,,,,,,0.9,0.4233,,,,,,,316.5768,316.8311,317.2777,"[0.11388300034831049,0.08073272738358059]","[1,1,1]","[-0.13547532297697007,0.0746212878182013]","[-1,-1,-1]","[0.09267977184305601,0.163331179572488]","[1,1,1]","[-0.165954608600658,0.014651756355371982]","[1,1,1]","[-0.15683278536346826,0.11722626255196932]","[1,1,1]","[0.15012918891497823,-0.02958594829124112]","[-1,-1,-1]","[0.02596314160817142,-0.17782639791079094]","[1,1,1]","[-0.06904210452989414,0.1760208729490139]","[1,1,1]","[0.10780455042049428,-0.06681958144073581]","[1,1,1]","[-0.049991474897727935,-0.13958094587465678]","[1,1,1]","[0.0733074398602198,0.022855699156425612]","[1,1,1]","[-0.05171875437154475,-0.04445723899282635]","[1,1,1]","[-0.03857479716166782,0.12988957520010688]","[1,1,1]","[-0.10335361615483923,-0.022418108598492657]","[1,1,1]","[-0.001982836736719826,-0.07478391826717658]","[1,1,1]","[-0.12432012897191969,0.0291505824303632]","[1,1,1]","[-0.04045843799324404,0.0807797087521676]","[1,1,1]","[-0.04405265006555883,-0.18728700209839463]","[1,1,1]","[-0.01114289424984383,-0.019229113190687933]","[1,1,1]","[-0.08231526276465806,0.08619551824477256]","[1,1,1]","[-0.12251274889287288,-0.14499411263601572]","[1,1,1]","[-0.053325038580322504,0.012843005636981545]","[1,1,1]","[0.0074005989325264965,0.10797735295881211]","[1,1,1]","[0.08261338984783882,0.11493805965231048]","[1,1,1]","[0.17979412945394746,-0.06123547551197353]","[1,1,1]","[0.04730379933501969,0.148924356384188]","[1,1,1]","[0.1516961019648762,0.04225255725320823]","[1,1,1]","[-0.020153578846136375,0.18129718049963456]","[1,1,1]","[-0.06921607976823498,-0.08186767268254679]","[1,1,1]","[0.1227568981316472,-0.1544774493629338]","[1,1,1]","[-0.17993924696801397,-0.04516046942775683]","[1,1,1]","[0.02544757176912212,0.0714432076524596]","[-1,-1,-1]","[0.02,0.02]",318.3762,0,32,32,192,1,,,,,,,
,,,,,,,666423d7f962b51495da18fa,682db42e2ce0adab648d5241,2025-05-21_13h10.47.764,cuing_paradigm_dot,2024.1.5,Win32,60.24096386,682d556593cb38ad0a074487,,,,,,,,,,,318.3774,318.8761,,,319.1274,319.7606,right,,,,,,,,0.55,0.6033,,,,,,,318.8763,319.1273,319.7607,"[-0.09724274754773231,-0.06619040494585691]","[-1,-1,-1]","[0.021924276985734917,-0.07489792781198566]","[1,1,1]","[0.1063050253596543,0.08793433617091695]","[-1,-1,-1]","[-0.10157224768312942,0.09368941941690102]","[1,1,1]","[0.15685296309174973,-0.047881681139319635]","[1,1,1]","[-0.1508681169688206,0.09100876074675172]","[-1,-1,-1]","[0.04696442290188545,-0.1076056037964769]","[1,1,1]","[-0.095134940772063,0.04467100851708391]","[-1,-1,-1]","[0.0030139013133676576,-0.16475042625707795]","[-1,-1,-1]","[0.020465519239993485,0.19856580040039234]","[1,1,1]","[0.06400520672293998,0.14460320676015465]","[1,1,1]","[0.04181388627258141,0.10164839357328191]","[-1,-1,-1]","[-0.19861922679359797,-0.009726563427423267]","[1,1,1]","[-0.1484748266030064,-0.11282250590784546]","[1,1,1]","[0.09414374133852661,-0.038726281330122646]","[1,1,1]","[0.0283867316274564,0.012952772978786489]","[-1,-1,-1]","[0.08516311559677991,-0.08217412759423195]","[1,1,1]","[-0.014342410180086456,0.14937991000915782]","[1,1,1]","[0.1770835488727653,-0.008742972839025675]","[-1,-1,-1]","[0.09602935555457402,0.1742612558283843]","[1,1,1]","[-0.02411748272352417,-0.10526442134331225]","[1,1,1]","[0.19096910485835142,0.04097125259851961]","[1,1,1]","[-0.06108846154060914,-0.18457215763415513]","[-1,-1,-1]","[-0.017695214452604014,0.048339639596210425]","[-1,-1,-1]","[0.13387531325701316,-0.10098882517563948]","[1,1,1]","[-0.04784068768809756,-0.14319816716238648]","[-1,-1,-1]","[-0.1294477465725272,-0.0038698172639949797]","[1,1,1]","[-0.10503188089611001,-0.13551215629450666]","[1,1,1]","[-0.05200512961488271,-0.03223748397363548]","[-1,-1,-1]","[0.0847770360289869,0.023746395842290925]","[1,1,1]","[0.13195013533566582,0.12304766686626056]","[-1,-1,-1]","[0.013571551033231094,-0.03500476446855899]","[-1,-1,-1]","[0.02,0.02]",320.8594,0,33,33,144,1,,,,,,,
,,,,,,,666423d7f962b51495da18fa,682db42e2ce0adab648d5241,2025-05-21_13h10.47.764,cuing_paradigm_dot,2024.1.5,Win32,60.24096386,682d556593cb38ad0a074487,,,,,,,,,,,320.8606,321.3588,,,321.6126,322.4097,left,,,,,,,,0.45,0.7708,,,,,,,321.359,321.6126,322.4097,"[0.07048712114325811,-0.08937664051295868]","[-1,-1,-1]","[-0.02527141128565846,0.15424123307451437]","[-1,-1,-1]","[0.0014890409302492885,0.032620247899553784]","[1,1,1]","[-0.028061731033718566,-0.0843576922763928]","[-1,-1,-1]","[-0.10926971498665418,-0.10704229214548418]","[1,1,1]","[0.14301567657241118,0.11146329278888273]","[-1,-1,-1]","[-0.16588607693855303,-0.0618247431537223]","[1,1,1]","[-0.060853212587986975,0.026320684539197708]","[1,1,1]","[-0.04332253126191657,-0.19104022203709922]","[1,1,1]","[0.1736650246763237,0.07788536967122203]","[-1,-1,-1]","[-0.07753596146912799,-0.063903786258742]","[1,1,1]","[-0.1243139783454294,-0.1519670221755572]","[-1,-1,-1]","[0.012595520961774008,0.19022689283381605]","[1,1,1]","[0.18223509575798338,-0.07355006621487759]","[-1,-1,-1]","[-0.19231414468594077,-0.0019467921989260912]","[-1,-1,-1]","[-0.11977281626767568,0.1454927600205037]","[1,1,1]","[-0.10520069172430126,0.0875765277709859]","[-1,-1,-1]","[-0.1327449705004593,0.018412310451271646]","[-1,-1,-1]","[0.01102277285280732,-0.1269233781903642]","[-1,-1,-1]","[0.1040039881232536,-0.05748402041469042]","[1,1,1]","[0.0183923517564263,-0.1780446390313619]","[1,1,1]","[-0.032453086427463536,-0.12636928509178794]","[-1,-1,-1]","[0.0301283848367336,-0.06318637568554103]","[-1,-1,-1]","[0.1017442375997162,0.09681042500508]","[1,1,1]","[0.08441292836995694,0.16524604304477222]","[-1,-1,-1]","[0.16429314537925113,0.02836714531831029]","[-1,-1,-1]","[0.03685728219101336,-0.0020640935008248073]","[1,1,1]","[0.04509424586289619,0.1373893546959965]","[1,1,1]","[-0.03725048704736758,0.07602023320502023]","[1,1,1]","[0.08855467392924164,0.03270633769917902]","[-1,-1,-1]","[0.18601898038273618,-0.03295548370618183]","[-1,-1,-1]","[-0.09752353046988482,-0.011182094189665362]","[-1,-1,-1]","[0.02,0.02]",323.5087,0,34,34,68,1,,,,,,,
,,,,,,,666423d7f962b51495da18fa,682db42e2ce0adab648d5241,2025-05-21_13h10.47.764,cuing_paradigm_dot,2024.1.5,Win32,60.24096386,682d556593cb38ad0a074487,,,,,,,,,,,323.5101,324.0086,,,324.2477,324.6096,right,,,,,,,,0.9,0.3412,,,,,,,324.0087,324.2476,324.6097,"[-0.12831479852073238,-0.04633178099002797]","[1,1,1]","[0.07094924235395998,-0.17861108891397354]","[1,1,1]","[-0.06068087076449037,0.019220627545107623]","[-1,-1,-1]","[0.06784150190909732,-0.10161632399775951]","[1,1,1]","[0.1777694719832421,0.007960218755355448]","[1,1,1]","[0.012470717968348184,0.1961992756748277]","[1,1,1]","[0.10666988037969047,-0.1523925760500813]","[-1,-1,-1]","[-0.09601436646933692,0.14972246267674416]","[1,1,1]","[0.02545564610990026,0.05774549492002798]","[1,1,1]","[0.17209281802515183,-0.07162363773721632]","[1,1,1]","[-0.12162692183724597,0.010054517452010659]","[1,1,1]","[0.059697538346936085,0.1679356023477177]","[1,1,1]","[0.18056248371013592,0.07503850880248648]","[1,1,1]","[-0.0005079360383767172,-0.04193769351599504]","[1,1,1]","[0.027724459523012068,0.010990950420105625]","[1,1,1]","[-0.14399961107455983,-0.13013191071747474]","[1,1,1]","[-0.08889800526462964,-0.1416147757063255]","[1,1,1]","[0.008026677699393227,0.12906288577112796]","[-1,-1,-1]","[-0.0090612493302538,-0.08322924342332644]","[1,1,1]","[0.1441445812087183,-0.10767410685146216]","[1,1,1]","[-0.08241161084151326,0.08459425942373575]","[1,1,1]","[-0.073718219180755,-0.03922256939448769]","[1,1,1]","[-0.0352120571013122,0.10393127562646105]","[1,1,1]","[-0.14580424812494458,0.13514382685677376]","[1,1,1]","[0.052707467842200005,0.12203311767353439]","[1,1,1]","[-0.08729613357249184,-0.09271119654182838]","[1,1,1]","[0.11612690124049128,-0.00990368517390108]","[1,1,1]","[0.06766666830717068,0.028437190438926726]","[1,1,1]","[0.09133542864175341,0.07324724921349998]","[1,1,1]","[0.19322974222760875,-0.03151360405838069]","[1,1,1]","[-0.16451219317512333,0.07752589554293221]","[1,1,1]","[0.013907810808862277,-0.19726246843918877]","[1,1,1]","[0.02,0.02]",325.709,0,35,35,204,1,,,,,,,
,,,,,,,666423d7f962b51495da18fa,682db42e2ce0adab648d5241,2025-05-21_13h10.47.764,cuing_paradigm_dot,2024.1.5,Win32,60.24096386,682d556593cb38ad0a074487,,,,,,,,,,,325.7099,326.2081,,,326.4592,326.8258,right,,,,,,,,0.9,0.3386,,,,,,,326.2083,326.4591,326.8259,"[0.19923106020963452,0.009851665185796239]","[-1,-1,-1]","[-0.11632630349427245,-0.0015680721511806002]","[1,1,1]","[-0.014428748646937379,0.15717746791272674]","[1,1,1]","[0.14787565490243645,0.11614805790469669]","[1,1,1]","[-0.15420902704526396,0.08843095143571386]","[1,1,1]","[0.09442675491243019,-0.07142396681931118]","[1,1,1]","[-0.14632260514300569,-0.055513425769579905]","[1,1,1]","[-0.1173446327973863,-0.14335580297332967]","[-1,-1,-1]","[0.15522084164232453,0.05192343138544771]","[1,1,1]","[0.05712605360122797,0.035981062857621954]","[1,1,1]","[-0.0037030860670981044,-0.08713563093060836]","[1,1,1]","[0.06093598380951598,-0.14648372296970755]","[1,1,1]","[0.1224991572810408,0.013779681473733991]","[1,1,1]","[-0.0006949963786023713,0.027077776436710638]","[-1,-1,-1]","[-0.1882143979672766,0.056040570115810526]","[1,1,1]","[-0.15928548045101545,0.012389560983286996]","[1,1,1]","[-0.04930172245551574,-0.09095232276701638]","[1,1,1]","[-0.15539165487256973,-0.10400505672167142]","[1,1,1]","[0.15367640590069875,-0.10150994834952293]","[1,1,1]","[-0.035857779960548786,0.19269016037522949]","[1,1,1]","[-0.045995177960992194,0.09973616762197164]","[1,1,1]","[-0.02303326638175867,-0.04637812749629858]","[1,1,1]","[0.060310515625983115,0.10644020297659972]","[1,1,1]","[-0.12426351150892342,0.13684045470734754]","[1,1,1]","[-0.05644700351244305,0.022716371054301576]","[1,1,1]","[0.17847909875424997,-0.06990193068099598]","[1,1,1]","[0.011994285767472588,0.09121879034946595]","[1,1,1]","[0.13525372862617188,-0.02912544255333208]","[1,1,1]","[-0.002304166038654777,-0.15846862006077497]","[1,1,1]","[0.10496330414895552,0.16830047237375678]","[1,1,1]","[-0.19068664788500578,-0.03454003383941175]","[1,1,1]","[-0.10336932212235588,0.06085029127062213]","[1,1,1]","[0.02,0.02]",327.9245,0,36,36,197,1,,,,,,,
,,,,,,,666423d7f962b51495da18fa,682db42e2ce0adab648d5241,2025-05-21_13h10.47.764,cuing_paradigm_dot,2024.1.5,Win32,60.24096386,682d556593cb38ad0a074487,,,,,,,,,,,327.9256,328.4245,,,328.6751,329.1417,left,,,,,,,,0.45,0.4443,,,,,,,328.4246,328.675,329.1417,"[0.052856287870458006,0.046935615137172315]","[1,1,1]","[0.020749853317257223,0.1300212233909661]","[-1,-1,-1]","[0.1430881660192287,0.05140866273659509]","[-1,-1,-1]","[0.047117532077776865,-0.034019769535447705]","[-1,-1,-1]","[0.17129862029858794,-0.005948477454755739]","[1,1,1]","[-0.16458220218046987,-0.08364466725353527]","[1,1,1]","[0.010565878411853651,0.055352456004455826]","[1,1,1]","[-0.0583324810005101,-0.03539384005168178]","[-1,-1,-1]","[0.10185234315549542,0.006905447904301326]","[-1,-1,-1]","[-0.05432363455315576,-0.09338012148628186]","[-1,-1,-1]","[-0.14976858902904397,0.06722060649596012]","[-1,-1,-1]","[-0.08744084406349525,-0.12465665655941176]","[1,1,1]","[0.1084083145541777,-0.11704965203932967]","[1,1,1]","[0.13879891475088244,-0.05648760000723125]","[-1,-1,-1]","[-0.00928949270609251,0.19309285687124167]","[-1,-1,-1]","[-0.015467432240644305,-0.1347960463614715]","[-1,-1,-1]","[-0.011279980844824603,-0.0500021520472129]","[1,1,1]","[-0.11798801863731279,0.13197543886309013]","[1,1,1]","[0.08792946652007745,0.10454950407608293]","[1,1,1]","[-0.12368923660083248,0.0070882073344276895]","[1,1,1]","[0.032934906785617134,-0.14393835259503412]","[1,1,1]","[0.037045584341346964,-0.19299182515580074]","[-1,-1,-1]","[-0.07313577795469385,0.006699939809236794]","[-1,-1,-1]","[-0.06042135695864664,-0.1729392572672468]","[-1,-1,-1]","[0.17305996074811786,0.08417392919804167]","[-1,-1,-1]","[0.01002627467540722,-0.09339647991769005]","[-1,-1,-1]","[-0.04817917040576042,0.13810684392464326]","[-1,-1,-1]","[0.11062855350373751,-0.15748727194259313]","[1,1,1]","[0.07741938108046258,-0.06697800328438344]","[1,1,1]","[-0.1278818584478425,-0.06677693669419758]","[-1,-1,-1]","[0.0343958316068185,0.17552867343423598]","[1,1,1]","[0.008883075337251606,-0.004680496737368544]","[-1,-1,-1]","[0.02,0.02]",330.2404,0,37,37,62,1,,,,,,,
,,,,,,,666423d7f962b51495da18fa,682db42e2ce0adab648d5241,2025-05-21_13h10.47.764,cuing_paradigm_dot,2024.1.5,Win32,60.24096386,682d556593cb38ad0a074487,,,,,,,,,,,330.2418,330.7405,,,330.9792,331.4749,right,,,,,,,,0.6,0.4868,,,,,,,330.7406,330.9791,331.475,"[0.0216415868764801,-0.10880441067640964]","[-1,-1,-1]","[0.04725034937533009,0.12940123293802583]","[-1,-1,-1]","[0.0297704902813757,-0.03381631907529629]","[1,1,1]","[-0.036934588991417716,-0.1410565823640923]","[-1,-1,-1]","[0.07326708843511548,0.09384741024096155]","[1,1,1]","[-0.17371953800883513,0.03892849204681556]","[1,1,1]","[0.1203825757002249,-0.051161231109370986]","[-1,-1,-1]","[0.13121086230479545,0.04020148537876276]","[1,1,1]","[-0.029642629665155667,0.19620632669256366]","[1,1,1]","[0.18720008366211568,-0.04539455261886776]","[-1,-1,-1]","[-0.18441747100727754,-0.027532049549975058]","[1,1,1]","[0.007953000293655905,0.12073412231998171]","[1,1,1]","[-0.09711598413125404,0.053602919357927624]","[1,1,1]","[0.08505648705997648,0.050685299570673616]","[1,1,1]","[0.11657187196677879,-0.00639668755945116]","[1,1,1]","[0.07875508188303952,-0.07931087551652345]","[1,1,1]","[0.03362591863086435,0.07085707069722948]","[-1,-1,-1]","[-0.10691820167006762,0.15931195052814273]","[1,1,1]","[-0.13449784564531247,0.09998726168792493]","[1,1,1]","[-0.08156310397536248,-0.1502235504435291]","[-1,-1,-1]","[-0.05404252621940528,-0.18813302067466867]","[1,1,1]","[-0.01989904597210691,-0.007090209043678865]","[1,1,1]","[-0.057295499596937034,-0.04434722992980826]","[-1,-1,-1]","[0.09102454409241734,-0.1462401563988457]","[1,1,1]","[-0.015446082909938987,0.07806678442136136]","[-1,-1,-1]","[-0.07046376482531247,0.10492541792639853]","[-1,-1,-1]","[-0.14165068952254423,-0.10455807225834657]","[-1,-1,-1]","[0.004790285237942025,-0.19106840658805388]","[-1,-1,-1]","[0.15385865571883803,0.11963697229255284]","[1,1,1]","[-0.03802039913650925,0.04429976645760985]","[-1,-1,-1]","[0.04950106821039758,-0.147364106037844]","[1,1,1]","[0.014620651155859476,0.19776095833969431]","[1,1,1]","[0.02,0.02]",332.5737,0,38,38,178,1,,,,,,,
,,,,,,,666423d7f962b51495da18fa,682db42e2ce0adab648d5241,2025-05-21_13h10.47.764,cuing_paradigm_dot,2024.1.5,Win32,60.24096386,682d556593cb38ad0a074487,,,,,,,,,,,332.5753,333.0736,,,333.3275,333.9747,left,,,,,,,,0.5,0.6307,,,,,,,333.0738,333.3273,333.9748,"[-0.11193835873221575,0.016596878514834726]","[1,1,1]","[-0.027824313270451304,-0.14417130004265416]","[-1,-1,-1]","[0.0073924285225883115,-0.16430261529012635]","[1,1,1]","[-0.12146689626872421,0.06709896357789764]","[1,1,1]","[-0.06492127760738685,0.10617057159473181]","[-1,-1,-1]","[-0.03452382667689476,0.18128006137857294]","[-1,-1,-1]","[0.16823965502811342,0.07800443222850527]","[1,1,1]","[0.07497495683077474,-0.15397292683928776]","[-1,-1,-1]","[0.12454790792278514,0.14711837567330543]","[1,1,1]","[0.07016848293525814,0.033927598083396536]","[-1,-1,-1]","[0.0016649657206338508,-0.04804622368349002]","[-1,-1,-1]","[-0.0422680289079524,0.04374206857108099]","[1,1,1]","[0.007840695896739793,-0.09652010432456662]","[1,1,1]","[-0.17015685062412075,-0.05101614846100645]","[1,1,1]","[0.06967162080505529,0.1528532477766991]","[-1,-1,-1]","[0.06281995934699813,0.07541963039084744]","[-1,-1,-1]","[-0.07602123142013928,-0.10714939166361966]","[-1,-1,-1]","[0.028038452517369472,0.16244011414163573]","[-1,-1,-1]","[0.12839549270499204,-0.10003131796595148]","[1,1,1]","[0.043389525593501406,-0.1244780512723963]","[-1,-1,-1]","[-0.1079006483977884,0.12044946124328638]","[1,1,1]","[0.16039053402056835,-0.01781963319013405]","[1,1,1]","[0.026444813205606165,0.052072374930943306]","[1,1,1]","[0.1081447903742115,0.07978820369335943]","[-1,-1,-1]","[0.06704574297791074,-0.02642010936575314]","[-1,-1,-1]","[0.024831721275930706,-0.003933377612032377]","[-1,-1,-1]","[-0.13221929301776533,-0.12485588004405151]","[1,1,1]","[0.18151260295514662,-0.06549535040799433]","[-1,-1,-1]","[-0.041214042729627,-0.029373704993413775]","[1,1,1]","[-0.16567495005358573,0.04740776586816557]","[1,1,1]","[0.1311918562047279,-0.05949630236125333]","[1,1,1]","[-0.15022438245125808,0.10632830307271278]","[-1,-1,-1]","[0.02,0.02]",335.0727,0,39,39,116,1,,,,,,,
,,,,,,,666423d7f962b51495da18fa,682db42e2ce0adab648d5241,2025-05-21_13h10.47.764,cuing_paradigm_dot,2024.1.5,Win32,60.24096386,682d556593cb38ad0a074487,,,,,,,,,,,335.0739,335.5728,,,335.8272,336.4232,left,,,,,,,,0.4,0.5712,,,,,,,335.5729,335.8271,336.4233,"[-0.0432159233998927,-0.00044777846076046865]","[-1,-1,-1]","[-0.12528144819148196,0.08408315125777914]","[-1,-1,-1]","[-0.1808524354728729,0.07426121892358734]","[1,1,1]","[-0.053669059687818654,0.06589885869031475]","[1,1,1]","[0.0038214274518403265,0.16487801469309082]","[-1,-1,-1]","[0.13888112543272246,0.10117857689712995]","[1,1,1]","[0.09954918305955904,0.008595585204333808]","[1,1,1]","[-0.11046665683839602,-0.091751599650213]","[-1,-1,-1]","[-0.02299633283052644,-0.09552891893549233]","[-1,-1,-1]","[0.1760657723759789,0.05877255829190065]","[-1,-1,-1]","[0.01912338738240302,0.07600085621334694]","[-1,-1,-1]","[0.16806358107905614,-0.0383903241644175]","[-1,-1,-1]","[0.1029671254171922,0.12077735876464636]","[1,1,1]","[-0.05995466010484195,-0.06962830934859755]","[-1,-1,-1]","[-0.10517595155101962,-0.03695885618649339]","[1,1,1]","[0.09296827759365855,-0.1506077832692992]","[-1,-1,-1]","[0.12512269704611007,0.04298181049900937]","[1,1,1]","[-0.1262337276116043,0.024414357276083473]","[1,1,1]","[0.060164615851945144,0.18776754764139394]","[-1,-1,-1]","[0.02977380588978195,-0.17357899250717074]","[-1,-1,-1]","[0.038061075295673166,0.13178519165903946]","[-1,-1,-1]","[-0.017866514160414713,0.04363719874296123]","[1,1,1]","[0.06536481271199512,-0.08259307339814079]","[-1,-1,-1]","[0.12878257038441418,-0.07546411207258362]","[1,1,1]","[0.060382897974828285,-0.038470725310167764]","[-1,-1,-1]","[-0.001873920969529399,-0.03493431966147112]","[-1,-1,-1]","[0.030087225780155984,0.029005142561651803]","[-1,-1,-1]","[-0.03507018080602202,0.19284769887001338]","[1,1,1]","[-0.07079128833284566,-0.1773143433597955]","[1,1,1]","[-0.1778488983075985,-0.08443873759808186]","[1,1,1]","[0.0648842898041907,0.085267362698279]","[-1,-1,-1]","[0.1628891671830065,-0.11601910884361279]","[-1,-1,-1]","[0.02,0.02]",337.526,0,40,40,37,1,,,,,,,
,,,,,,,666423d7f962b51495da18fa,682db42e2ce0adab648d5241,2025-05-21_13h10.47.764,cuing_paradigm_dot,2024.1.5,Win32,60.24096386,682d556593cb38ad0a074487,,,,,,,,,,,337.5263,338.0219,,,338.2762,339.3564,right,,,,,,,,0.6,1.056,,,,,,,338.022,338.2761,339.3565,"[0.08260968789941603,0.10395808914165698]","[-1,-1,-1]","[0.04439677976284513,-0.056423777807638936]","[-1,-1,-1]","[0.13374014990721655,-0.013513975744715004]","[1,1,1]","[-0.0658480540992376,-0.11707436670591105]","[1,1,1]","[0.031305697140403786,0.07623528945585395]","[1,1,1]","[-0.16642816700121213,-0.0752098006503944]","[-1,-1,-1]","[-0.04952413935398387,0.012573856102982147]","[-1,-1,-1]","[-0.14732721221548795,-0.015010184333138043]","[1,1,1]","[-0.0005614758261610783,-0.06728704502992892]","[1,1,1]","[-0.002614353450744469,0.028420005640326224]","[1,1,1]","[0.14683561633027983,0.032700024146409414]","[1,1,1]","[-0.03271546122222571,0.16041138914006978]","[-1,-1,-1]","[-0.09208523447374019,0.07881049274005392]","[-1,-1,-1]","[-0.007872106967685661,-0.1781855081972988]","[1,1,1]","[0.1682607580475963,-0.10481485291671218]","[-1,-1,-1]","[0.018961358199213057,-0.12827835055444628]","[-1,-1,-1]","[-0.1259626506592546,0.04060310248873412]","[1,1,1]","[0.17252278420922393,0.0007850033175015728]","[1,1,1]","[0.06319535565091669,0.007285702089708687]","[-1,-1,-1]","[0.061922978997948776,0.18170550748672476]","[-1,-1,-1]","[0.055195676393577746,-0.15206829065092908]","[1,1,1]","[0.09370092915831309,-0.03000878806224129]","[-1,-1,-1]","[0.13536126457958755,-0.0696668196686231]","[1,1,1]","[-0.06521915571523103,-0.07680741943299323]","[1,1,1]","[-0.12858110653311336,0.09774141055163968]","[1,1,1]","[0.15640254602310202,0.11131754069268726]","[-1,-1,-1]","[-0.13011455253050266,0.1395192443448044]","[1,1,1]","[-0.021167579196854993,-0.027357467090211376]","[1,1,1]","[-0.052822605085522924,0.10685896291452618]","[1,1,1]","[-0.11330949125986012,-0.14121254546030007]","[-1,-1,-1]","[0.06499395773757928,-0.09864806130468864]","[1,1,1]","[-0.05005975984944689,-0.17972569672677144]","[1,1,1]","[0.02,0.02]",340.4552,0,41,41,173,1,,,,,,,
,,,,,,,666423d7f962b51495da18fa,682db42e2ce0adab648d5241,2025-05-21_13h10.47.764,cuing_paradigm_dot,2024.1.5,Win32,60.24096386,682d556593cb38ad0a074487,,,,,,,,,,,340.4564,340.9551,,,341.2064,341.5396,right,,,,,,,,0.9,0.3056,,,,,,,340.9552,341.2064,341.5398,"[0.14769470515158362,0.0864621359868063]","[1,1,1]","[0.034200073316022525,-0.1222828121111451]","[1,1,1]","[-0.07913388365473659,-0.16033289878382614]","[1,1,1]","[0.1739091411046137,-0.018154134164477313]","[1,1,1]","[0.10951783682465578,0.15511826931197023]","[1,1,1]","[-0.02738586013624483,0.05401527398857177]","[1,1,1]","[0.10110846665977534,0.0037989987564497657]","[1,1,1]","[-0.18596288610103281,0.03532091046353684]","[-1,-1,-1]","[-0.055469590297496915,0.024507812110517373]","[1,1,1]","[0.044934789070610326,-0.010594488161137477]","[1,1,1]","[-0.029022083436674336,-0.15728526599075865]","[1,1,1]","[0.11144434975988265,-0.16591825635106414]","[-1,-1,-1]","[-0.14006560210845043,0.03677400600242923]","[1,1,1]","[-0.13518541497397804,-0.04894638839663304]","[1,1,1]","[-0.06654407022806572,0.14849674005612618]","[1,1,1]","[0.0676275168613469,-0.053673354853487606]","[1,1,1]","[0.16188310448856108,0.023231071394266663]","[1,1,1]","[-0.05738359831218193,-0.039839038142243106]","[1,1,1]","[0.09072783971930712,-0.09473813119941735]","[1,1,1]","[0.05534726309520235,0.12869164972510452]","[1,1,1]","[0.16408067930756168,-0.06875265487134104]","[1,1,1]","[-0.15843876889854316,0.0991760835180697]","[1,1,1]","[-0.07691639408599525,-0.07907227354993668]","[1,1,1]","[-0.021614495790178035,0.19388089865422364]","[1,1,1]","[0.09175747008914503,0.06345878768794148]","[1,1,1]","[-0.04415387761233956,0.11088898546471286]","[-1,-1,-1]","[-0.024266637309941788,0.14821719427247082]","[1,1,1]","[-0.015262255641954428,-0.045224837680445135]","[1,1,1]","[-0.005938780984123852,-0.08419444587517742]","[1,1,1]","[0.027575906071216044,0.17354765894663884]","[1,1,1]","[-0.03848990836708822,-0.11363167785769701]","[1,1,1]","[-0.07601773654614595,0.07001560167833733]","[1,1,1]","[0.02,0.02]",342.6381,0,42,42,184,1,,,,,,,
,,,,,,,666423d7f962b51495da18fa,682db42e2ce0adab648d5241,2025-05-21_13h10.47.764,cuing_paradigm_dot,2024.1.5,Win32,60.24096386,682d556593cb38ad0a074487,,,,,,,,,,,342.6395,343.1385,,,343.3889,344.0057,right,,,,,,,,0.45,0.587,,,,,,,343.1386,343.3888,344.0058,"[0.1662026043728716,0.010150496176473732]","[-1,-1,-1]","[-0.026542308873883154,-0.004932647840845475]","[1,1,1]","[-0.11193941791900666,0.10129490146877303]","[-1,-1,-1]","[0.016983986354013852,0.19151574014244777]","[-1,-1,-1]","[-0.06564156794030404,-0.16513137692220298]","[-1,-1,-1]","[0.09999052210462529,-0.10110591604353399]","[1,1,1]","[-0.09109232748607445,0.17082785825613375]","[1,1,1]","[-0.12798067988537218,0.0633518369903066]","[1,1,1]","[0.03024835514477898,0.1507329015275029]","[1,1,1]","[-0.15195571217061693,0.12696980925317422]","[1,1,1]","[0.1064570246638599,0.08272020461399866]","[1,1,1]","[0.11946973867265193,-0.03213327209962543]","[-1,-1,-1]","[0.18216117683991956,0.0733267741696328]","[1,1,1]","[0.07436889955740675,-0.02101482733361028]","[-1,-1,-1]","[0.008461831371620442,-0.07597325650142461]","[1,1,1]","[-0.14193294856129843,-0.10425083572580411]","[-1,-1,-1]","[-0.02450960825062373,-0.1428079417823702]","[1,1,1]","[0.09474296651014688,-0.15064457292895528]","[1,1,1]","[0.02069182003117647,-0.17739710006198536]","[-1,-1,-1]","[0.15821816637181033,-0.08396287231362144]","[-1,-1,-1]","[-0.1797871526577808,0.03060881927997434]","[1,1,1]","[-0.03182761166401193,0.18724917423887427]","[-1,-1,-1]","[-0.02030532524486761,0.13035408373526786]","[-1,-1,-1]","[0.10900606532374059,0.13139972292013546]","[-1,-1,-1]","[-0.0677459579349072,0.1321865044375397]","[-1,-1,-1]","[-0.07346467681184192,-0.10362645425759637]","[1,1,1]","[-0.10918184744200633,-0.05517177585885358]","[-1,-1,-1]","[-0.1708132864122932,-0.042724757328050644]","[-1,-1,-1]","[-0.0023797162585217626,0.08171742627153758]","[-1,-1,-1]","[-0.08609093907293328,0.04499227712657412]","[1,1,1]","[-0.19419387146169187,-0.007149539437092749]","[-1,-1,-1]","[0.02610319150047405,-0.035053248160708136]","[-1,-1,-1]","[0.02,0.02]",345.1044,0,43,43,61,1,,,,,,,
,,,,,,,666423d7f962b51495da18fa,682db42e2ce0adab648d5241,2025-05-21_13h10.47.764,cuing_paradigm_dot,2024.1.5,Win32,60.24096386,682d556593cb38ad0a074487,,,,,,,,,,,345.1055,345.6041,,,345.8573,346.1552,right,,,,,,,,0.9,0.2698,,,,,,,345.6042,345.8572,346.1553,"[-0.10972812605861382,0.12209681617434073]","[-1,-1,-1]","[-0.10752272177453298,-0.018199972917434172]","[1,1,1]","[0.04374634284585756,-0.0723652583596941]","[1,1,1]","[0.00936121680654486,-0.13480223612202213]","[1,1,1]","[0.18259364895782054,-0.04143227736676338]","[1,1,1]","[0.032110614088338645,0.10299796850901513]","[1,1,1]","[0.014737224115063247,0.16876194732782807]","[1,1,1]","[0.039424389349016584,0.02761366324832035]","[1,1,1]","[-0.1386677632921643,0.04999449831432729]","[-1,-1,-1]","[-0.0061234563297457,0.054726778607670855]","[1,1,1]","[0.11083033812834743,-0.041615321783661584]","[1,1,1]","[-0.033585424066432994,-0.10848319985349052]","[1,1,1]","[-0.012637837160954773,-0.015032916433134405]","[1,1,1]","[-0.1687514158975248,-0.0027071016293357467]","[1,1,1]","[0.12504089562145385,-0.09573132652486833]","[1,1,1]","[-0.13988555316160084,-0.0442658415143612]","[1,1,1]","[-0.024249547810415346,0.14785448096003942]","[1,1,1]","[0.1356589448646493,0.054590968850062205]","[1,1,1]","[-0.054434967829261084,0.08802345657035147]","[1,1,1]","[-0.07017209163847572,-0.037145650974962426]","[1,1,1]","[-0.09647362852503293,0.054539995277777205]","[1,1,1]","[0.16844367798543458,-0.09248787359855062]","[1,1,1]","[0.06506485421344577,-0.11194428207494878]","[1,1,1]","[-0.013817713102375138,-0.19772399933433474]","[1,1,1]","[0.18607939755072855,0.01603590202199953]","[1,1,1]","[-0.06341133370819275,-0.13695029170538733]","[1,1,1]","[-0.07527447273666413,0.013487551553444015]","[1,1,1]","[0.13465285297129695,0.12754345937595274]","[1,1,1]","[-0.12428368331516228,-0.12772455261229207]","[1,1,1]","[0.07707397655158395,-0.1574559173280533]","[1,1,1]","[-0.0928562263106667,-0.17397255015523566]","[-1,-1,-1]","[-0.015226362022829634,-0.07230780139275846]","[1,1,1]","[0.02,0.02]",347.2541,0,44,44,195,1,,,,,,,
