right,left,explain.started,explain.stopped,key_resp_3.keys,key_resp_3.rt,key_resp_3.duration,participant,session,date,expName,psychopyVersion,OS,frameRate,study_id,explain_2.started,explain_2.stopped,key_resp_4.keys,key_resp_4.rt,key_resp_4.duration,explain_3.started,explain_3.stopped,key_resp_5.keys,key_resp_5.rt,key_resp_5.duration,fixation.started,fixation.stopped,practice.started,practice.stopped,response.started,response.stopped,key_resp.keys,key_resp.rt,key_resp.duration,feedback.started,feedback.stopped,trials_2.thisRepN,trials_2.thisTrialN,trials_2.thisN,trials_2.thisIndex,trials_2.ran,white_ratio,explain_4.started,explain_4.stopped,key_resp_6.keys,key_resp_6.rt,key_resp_6.duration,dotDisplay.started,dotDisplay.stopped,ITI.started,polygon_1.pos,polygon_1.color,polygon_2.pos,polygon_2.color,polygon_3.pos,polygon_3.color,polygon_4.pos,polygon_4.color,polygon_5.pos,polygon_5.color,polygon_6.pos,polygon_6.color,polygon_7.pos,polygon_7.color,polygon_8.pos,polygon_8.color,polygon_9.pos,polygon_9.color,polygon_10.pos,polygon_10.color,polygon_11.pos,polygon_11.color,polygon_12.pos,polygon_12.color,polygon_13.pos,polygon_13.color,polygon_14.pos,polygon_14.color,polygon_15.pos,polygon_15.color,polygon_16.pos,polygon_16.color,polygon_17.pos,polygon_17.color,polygon_18.pos,polygon_18.color,polygon_19.pos,polygon_19.color,polygon_20.pos,polygon_20.color,polygon_21.pos,polygon_21.color,polygon_22.pos,polygon_22.color,polygon_23.pos,polygon_23.color,polygon_24.pos,polygon_24.color,polygon_25.pos,polygon_25.color,polygon_26.pos,polygon_26.color,polygon_27.pos,polygon_27.color,polygon_28.pos,polygon_28.color,polygon_29.pos,polygon_29.color,polygon_30.pos,polygon_30.color,polygon_31.pos,polygon_31.color,polygon_32.pos,polygon_32.color,dot_size,ITI.stopped,trials.thisRepN,trials.thisTrialN,trials.thisN,trials.thisIndex,trials.ran,break_2.started,break_2.stopped,trials_3.thisRepN,trials_3.thisTrialN,trials_3.thisN,trials_3.thisIndex,trials_3.ran
subject chose black,subject chose white,0.0002,43.6137,space,28.6077,,6665fdcffb9c8e828cd159cd,682f0fba76bbbf506fcebac3,2025-05-22_14h52.25.590,cuing_paradigm_dot,2024.1.5,Win32,144.9275362,682d573fa47f1360d1451895,,,,,,,,,,,,,,,,,,,,,,,,,,,,,,,,,,,,,,,,,,,,,,,,,,,,,,,,,,,,,,,,,,,,,,,,,,,,,,,,,,,,,,,,,,,,,,,,,,,,,,,,,,,,,,,,,
,,,,,,,6665fdcffb9c8e828cd159cd,682f0fba76bbbf506fcebac3,2025-05-22_14h52.25.590,cuing_paradigm_dot,2024.1.5,Win32,144.9275362,682d573fa47f1360d1451895,43.6138,79.0153,space,5.3911,,,,,,,,,,,,,,,,,,,,,,,,,,,,,,,,,,,,,,,,,,,,,,,,,,,,,,,,,,,,,,,,,,,,,,,,,,,,,,,,,,,,,,,,,,,,,,,,,,,,,,,,,,,,,
,,,,,,,6665fdcffb9c8e828cd159cd,682f0fba76bbbf506fcebac3,2025-05-22_14h52.25.590,cuing_paradigm_dot,2024.1.5,Win32,144.9275362,682d573fa47f1360d1451895,,,,,,79.0155,83.1682,space,1.1418,,,,,,,,,,,,,,,,,,,,,,,,,,,,,,,,,,,,,,,,,,,,,,,,,,,,,,,,,,,,,,,,,,,,,,,,,,,,,,,,,,,,,,,,,,,,,,,,,,,,,,,,
,,,,,,,6665fdcffb9c8e828cd159cd,682f0fba76bbbf506fcebac3,2025-05-22_14h52.25.590,cuing_paradigm_dot,2024.1.5,Win32,144.9275362,682d573fa47f1360d1451895,,,,,,,,,,,83.1751,83.6749,83.675,83.9251,83.9252,84.7722,left,0.8279,,84.7722,85.8695,0,0,0,1,1,0.2,,,,,,,,,,,,,,,,,,,,,,,,,,,,,,,,,,,,,,,,,,,,,,,,,,,,,,,,,,,,,,,,,,,,,,,,,,,,,,,,,,,,,,
,,,,,,,6665fdcffb9c8e828cd159cd,682f0fba76bbbf506fcebac3,2025-05-22_14h52.25.590,cuing_paradigm_dot,2024.1.5,Win32,144.9275362,682d573fa47f1360d1451895,,,,,,,,,,,85.8697,86.3694,86.3694,86.6195,86.6195,87.5359,left,0.9032,,87.5359,88.6332,0,1,1,0,1,0.8,,,,,,,,,,,,,,,,,,,,,,,,,,,,,,,,,,,,,,,,,,,,,,,,,,,,,,,,,,,,,,,,,,,,,,,,,,,,,,,,,,,,,,
,,,,,,,6665fdcffb9c8e828cd159cd,682f0fba76bbbf506fcebac3,2025-05-22_14h52.25.590,cuing_paradigm_dot,2024.1.5,Win32,144.9275362,682d573fa47f1360d1451895,,,,,,,,,,,,,,,,,,,,,,,,,,,,88.6334,93.7372,space,2.0938,,,,,,,,,,,,,,,,,,,,,,,,,,,,,,,,,,,,,,,,,,,,,,,,,,,,,,,,,,,,,,,,,,,,,,,,,,,,,,,,,,
,,,,,,,6665fdcffb9c8e828cd159cd,682f0fba76bbbf506fcebac3,2025-05-22_14h52.25.590,cuing_paradigm_dot,2024.1.5,Win32,144.9275362,682d573fa47f1360d1451895,,,,,,,,,,,93.7417,94.2372,,,94.4874,94.994,right,0.4942,,,,,,,,,0.45,,,,,,94.2374,94.4873,94.9942,"[0.0735887808177162,-0.15935636505996004]","[-1,-1,-1]","[-0.09394003729435774,0.030382702506657228]","[-1,-1,-1]","[-0.12698764865385276,0.10218900294502416]","[1,1,1]","[0.14890492042803233,-0.042376303407449606]","[-1,-1,-1]","[0.080740304925436,0.02259752441559102]","[1,1,1]","[-0.11104823396231135,-0.09173437846370223]","[1,1,1]","[0.1248689362392312,-0.11749285893187078]","[-1,-1,-1]","[-0.09920578911454242,-0.15492495193980027]","[-1,-1,-1]","[-0.058121313997082154,-0.09825106734226807]","[1,1,1]","[0.022650847211100267,-0.14164659196524626]","[1,1,1]","[-0.15962833307092605,-0.009347992747746838]","[1,1,1]","[0.07793049294638359,-0.11239052873134513]","[1,1,1]","[-0.03993668671569541,-0.16575070979475207]","[-1,-1,-1]","[0.08291113545307545,-0.04980151126107247]","[-1,-1,-1]","[0.15596120049281054,0.059257497400824456]","[-1,-1,-1]","[0.0331416042971817,-0.05356249973427854]","[1,1,1]","[-0.040197388379216055,0.07995157392146574]","[-1,-1,-1]","[0.0031873686488011923,-0.009689495045076333]","[1,1,1]","[-0.1800015093708714,0.04188822713779017]","[1,1,1]","[0.12148680796543881,-0.00927913710335929]","[-1,-1,-1]","[0.05229631020907032,0.15951338579829144]","[-1,-1,-1]","[0.11033677964139152,0.07135014127968849]","[-1,-1,-1]","[0.021430275153736498,0.1956165640980825]","[-1,-1,-1]","[0.18460313227304845,-0.008191155178607102]","[-1,-1,-1]","[0.026070750706593645,0.04595627857637993]","[-1,-1,-1]","[-0.09689183415393846,0.13367636308113598]","[-1,-1,-1]","[-0.03949914151974929,-0.01919938389444616]","[1,1,1]","[0.022149505472849027,0.11951737369734325]","[-1,-1,-1]","[0.11961531207211613,-0.07773939341682737]","[-1,-1,-1]","[-0.10483477295918357,-0.02291451529853305]","[1,1,1]","[-0.05376237679187487,0.19107606295143234]","[1,1,1]","[-0.13262178057152066,-0.13254191737830875]","[1,1,1]","[0.02,0.02]",96.0912,0,0,0,70,1,,,,,,,
,,,,,,,6665fdcffb9c8e828cd159cd,682f0fba76bbbf506fcebac3,2025-05-22_14h52.25.590,cuing_paradigm_dot,2024.1.5,Win32,144.9275362,682d573fa47f1360d1451895,,,,,,,,,,,96.0914,96.5872,,,96.8343,97.3898,right,0.5419,,,,,,,,,0.1,,,,,,96.5872,96.8343,97.3898,"[0.04738137032241851,0.12480993140569888]","[-1,-1,-1]","[-0.06996034096621545,0.07851078477625092]","[-1,-1,-1]","[0.10536384623494942,-0.11831456777018384]","[-1,-1,-1]","[-0.022569794218849693,0.06164787755384889]","[-1,-1,-1]","[-0.09762249458619582,-0.0791469889519859]","[-1,-1,-1]","[0.15002614149166255,0.07636411137015958]","[-1,-1,-1]","[0.009615903663050365,-0.06709998133684875]","[-1,-1,-1]","[0.0006940223267793813,0.12460245920474278]","[-1,-1,-1]","[0.052525735618549084,-0.10859385202668934]","[-1,-1,-1]","[-0.036483439746425296,0.16065509095076783]","[-1,-1,-1]","[-0.14614495686444157,0.01875712019280161]","[1,1,1]","[-0.10239408560718317,-0.14307128014933268]","[1,1,1]","[0.032379918939308534,0.0134562746431121]","[-1,-1,-1]","[-0.18783606904243252,0.0315419971419243]","[-1,-1,-1]","[-0.10082042742446494,0.1402443014569515]","[1,1,1]","[0.027434113703684836,0.07233609019147319]","[-1,-1,-1]","[0.1642949848450644,-0.04499545045606481]","[-1,-1,-1]","[-0.15843482701660888,-0.03257286332671684]","[-1,-1,-1]","[0.035795801384764125,0.19451674990317067]","[-1,-1,-1]","[0.13118187602168632,-0.08429715607704738]","[-1,-1,-1]","[-0.1275146598490624,0.06581538856408858]","[-1,-1,-1]","[0.0808179381726953,-0.018564601224964016]","[-1,-1,-1]","[-0.05866953263709769,-0.06793400612281184]","[-1,-1,-1]","[-0.08660446467544973,0.17809252178124446]","[-1,-1,-1]","[-0.17308505123879475,0.07738415027695411]","[-1,-1,-1]","[0.13817480759206718,0.008333457573354838]","[-1,-1,-1]","[-0.000739808963665121,-0.19762306426705123]","[-1,-1,-1]","[-0.14199357805847534,-0.09812461305006154]","[-1,-1,-1]","[-0.1096850784609964,-0.029068535100603685]","[-1,-1,-1]","[0.05837160380778179,-0.06138019572541756]","[-1,-1,-1]","[0.19295711544985972,0.025479403766955837]","[-1,-1,-1]","[0.1206850066293517,0.15033414873824216]","[-1,-1,-1]","[0.02,0.02]",98.4869,0,1,1,16,1,,,,,,,
,,,,,,,6665fdcffb9c8e828cd159cd,682f0fba76bbbf506fcebac3,2025-05-22_14h52.25.590,cuing_paradigm_dot,2024.1.5,Win32,144.9275362,682d573fa47f1360d1451895,,,,,,,,,,,98.4871,98.987,,,99.2372,99.6746,left,0.4247,,,,,,,,,0.55,,,,,,98.987,99.2372,99.6747,"[-0.08854110446648546,-0.03967220126079293]","[1,1,1]","[-0.04621662923249823,-0.03490769851283328]","[1,1,1]","[-0.0633005917932901,0.04223010221468765]","[1,1,1]","[0.17374336935431375,0.03957864868176575]","[1,1,1]","[-0.11057543508651327,-0.09198871106261468]","[1,1,1]","[-0.02376593746137856,0.07798901446407064]","[1,1,1]","[-0.11357413278865548,0.1543870052980575]","[1,1,1]","[0.08947953969070266,0.13637202979210034]","[-1,-1,-1]","[0.11674106140928313,-0.01201775209966622]","[-1,-1,-1]","[0.06913664927970853,-0.18074255754195773]","[-1,-1,-1]","[-0.03557045409043772,-0.12022195171349948]","[-1,-1,-1]","[-0.17551327957562635,-0.010986331279035333]","[1,1,1]","[0.03694550228297995,0.16888197906957417]","[-1,-1,-1]","[0.10419187645835065,-0.14233821700692953]","[-1,-1,-1]","[0.15021100460027176,-0.053590869744966706]","[-1,-1,-1]","[0.03130910718658156,0.058171280977690816]","[-1,-1,-1]","[-0.09929496298787671,-0.13226484772370045]","[1,1,1]","[0.14596993976232497,0.11700784014238139]","[1,1,1]","[-0.17641967208428266,0.031899827645176466]","[1,1,1]","[0.0654235822344587,-0.11392882150827179]","[-1,-1,-1]","[-0.01872176722821238,0.18295133163545674]","[1,1,1]","[-0.019713613491240744,-0.16283700612719718]","[-1,-1,-1]","[-0.1762049199366165,-0.08003938035913989]","[-1,-1,-1]","[-0.09430514446707379,0.003988881590465112]","[-1,-1,-1]","[0.08538994091132171,-0.041773859444856336]","[1,1,1]","[0.13112612778759228,0.033860109171348525]","[1,1,1]","[0.028144558189171855,-0.15036363063766492]","[1,1,1]","[-0.016550944213530136,0.11740279808009112]","[1,1,1]","[-0.15858029837692947,0.1055102842925377]","[1,1,1]","[0.026219474717231125,0.12918584844806388]","[1,1,1]","[-0.05921625177347617,0.1275524704657172]","[-1,-1,-1]","[0.051504054514129934,-0.008904101480164727]","[-1,-1,-1]","[0.02,0.02]",100.7716,0,2,2,143,1,,,,,,,
,,,,,,,6665fdcffb9c8e828cd159cd,682f0fba76bbbf506fcebac3,2025-05-22_14h52.25.590,cuing_paradigm_dot,2024.1.5,Win32,144.9275362,682d573fa47f1360d1451895,,,,,,,,,,,100.7718,101.2717,,,101.5177,102.2718,left,0.7466,,,,,,,,,0.5,,,,,,101.2717,101.5177,102.2719,"[-0.16378619180147147,-0.08829795217044889]","[1,1,1]","[0.0516969728104335,0.07433101705436146]","[1,1,1]","[-0.14909236299173162,0.09525171247653244]","[-1,-1,-1]","[0.08445150568177963,0.1690591106700316]","[1,1,1]","[-0.14376166291858394,-0.018989192742750072]","[1,1,1]","[0.007987663885116923,0.09515214315221159]","[-1,-1,-1]","[-0.013766760174733873,0.05482192061268313]","[-1,-1,-1]","[-0.1000637231389026,0.08537520781773515]","[-1,-1,-1]","[0.0716638014443478,-0.09947589344765793]","[1,1,1]","[-0.12283105743045379,-0.14398061657783864]","[1,1,1]","[-0.028542594559373975,-0.10382683564229195]","[-1,-1,-1]","[-0.09678563818061521,0.030656565835740543]","[1,1,1]","[0.07594189010777955,-0.039299469623865345]","[1,1,1]","[-0.08865676929737724,-0.04446457835828584]","[1,1,1]","[0.1330901717208369,0.1401674635772345]","[-1,-1,-1]","[0.1158469322962072,0.05613810991704072]","[-1,-1,-1]","[-0.044909868487125755,-0.020754728624638834]","[1,1,1]","[-0.049401653850758426,-0.14753473385475574]","[1,1,1]","[-0.0561417210507082,0.07662280236065767]","[-1,-1,-1]","[-0.04071404012795794,0.1536505988113219]","[-1,-1,-1]","[0.03520514724332352,-0.018574456076791375]","[1,1,1]","[0.018111564027754313,-0.13058613068292693]","[-1,-1,-1]","[0.05574996792622127,0.03150845597478966]","[-1,-1,-1]","[0.17009827219675294,0.015337133730563189]","[-1,-1,-1]","[0.1680102623198804,0.08232195207148443]","[-1,-1,-1]","[0.07197706358585255,-0.1537291809209454]","[1,1,1]","[-0.007995552807809446,-0.19560320495782613]","[-1,-1,-1]","[0.12935192254472405,0.008419671701021867]","[1,1,1]","[-0.11758562250483225,-0.07563143351531917]","[1,1,1]","[0.1876607991454058,-0.04627550601151521]","[1,1,1]","[0.030458001065277497,0.1678633224505386]","[-1,-1,-1]","[-0.09099847746724977,0.15427731251138183]","[-1,-1,-1]","[0.02,0.02]",103.3688,0,3,3,118,1,,,,,,,
,,,,,,,6665fdcffb9c8e828cd159cd,682f0fba76bbbf506fcebac3,2025-05-22_14h52.25.590,cuing_paradigm_dot,2024.1.5,Win32,144.9275362,682d573fa47f1360d1451895,,,,,,,,,,,103.3689,103.8687,,,104.1218,105.1953,left,1.0632,,,,,,,,,0.6,,,,,,103.8688,104.1218,105.1953,"[-0.040749899000333364,0.13002194735525005]","[1,1,1]","[-0.12794269809550546,0.12443122761919127]","[-1,-1,-1]","[0.0681342575246452,-0.004134363381963545]","[1,1,1]","[0.13476008972167566,-0.1390640590493475]","[1,1,1]","[0.07100936307248118,0.09633199415525688]","[-1,-1,-1]","[-0.18080703066107598,-0.02736600952769826]","[-1,-1,-1]","[-0.03462330385697798,-0.19336881606687217]","[1,1,1]","[0.02092677260405746,-0.037787904834665445]","[1,1,1]","[-0.0977900557798104,0.0016507150339402793]","[-1,-1,-1]","[0.08622246636011062,-0.05952825066689002]","[-1,-1,-1]","[0.0602828305674973,0.1871595932416881]","[-1,-1,-1]","[0.060603068257764035,0.1391253149924077]","[1,1,1]","[-0.05795011116212346,0.18324279359232964]","[1,1,1]","[0.00011773527361184624,-0.1111833459864868]","[1,1,1]","[-0.10950553044039003,-0.16118815339625261]","[1,1,1]","[-0.03769500886594046,-0.13042016740338216]","[1,1,1]","[0.12695460191346056,0.07032176127264257]","[1,1,1]","[0.1751427771443743,-0.025655190121939044]","[1,1,1]","[-0.08423468331435119,-0.045544085511216796]","[1,1,1]","[0.06507040001208282,-0.11023004446684882]","[-1,-1,-1]","[0.16491430661982934,0.0428622312441258]","[-1,-1,-1]","[-0.14214087503334674,-0.060945977804194765]","[-1,-1,-1]","[0.000825019245939855,0.11683955764474376]","[-1,-1,-1]","[-0.08101710753588884,-0.08887645650049332]","[1,1,1]","[0.02548401063579767,0.049835898714421664]","[-1,-1,-1]","[-0.15386806146771143,0.07204222437313101]","[1,1,1]","[0.10652148257572422,0.14391407388397068]","[1,1,1]","[-0.027145886975529863,0.020357475984553525]","[1,1,1]","[0.03867206114122773,-0.1922338796316204]","[-1,-1,-1]","[-0.08664121582883609,0.10233468352161973]","[1,1,1]","[-0.053513907728186386,0.0775369010610685]","[-1,-1,-1]","[0.11069603059695193,0.0018826177906467593]","[1,1,1]","[0.02,0.02]",106.2925,0,4,4,162,1,,,,,,,
,,,,,,,6665fdcffb9c8e828cd159cd,682f0fba76bbbf506fcebac3,2025-05-22_14h52.25.590,cuing_paradigm_dot,2024.1.5,Win32,144.9275362,682d573fa47f1360d1451895,,,,,,,,,,,106.2926,106.7925,,,107.0426,107.6397,right,0.5828,,,,,,,,,0.4,,,,,,106.7925,107.0426,107.6397,"[0.15476259412112017,-0.04998138736142049]","[1,1,1]","[-0.09893696770606056,0.025367225231217788]","[1,1,1]","[-0.09611731658554994,0.15221102696850022]","[-1,-1,-1]","[-0.05320439300618968,0.14272514690828253]","[-1,-1,-1]","[0.004869886884815466,-0.044894760852592926]","[-1,-1,-1]","[0.14709372569752074,0.08431250394130367]","[-1,-1,-1]","[0.14722819749498814,0.12431467686053402]","[1,1,1]","[0.10658491159593746,0.06016659564582473]","[-1,-1,-1]","[-0.14991887123511283,0.1154594985500949]","[1,1,1]","[0.04890291738941576,-0.13723285227772977]","[-1,-1,-1]","[-0.027332746733827518,0.053271938744026914]","[-1,-1,-1]","[-0.1261145132036239,-0.14206577250920868]","[1,1,1]","[0.10105404509437972,0.1150150237234291]","[1,1,1]","[-0.05832770111568066,-0.10915060214146201]","[-1,-1,-1]","[0.0493156668031957,0.09194603906998425]","[-1,-1,-1]","[0.10965291069802177,-0.07122890268785506]","[1,1,1]","[-0.1763970271947012,-0.07132699595867131]","[-1,-1,-1]","[0.16494102482681117,0.028738763072445644]","[-1,-1,-1]","[0.03963471271239266,-0.19303929202798586]","[1,1,1]","[0.04757625814902779,0.02299412814567884]","[-1,-1,-1]","[0.07555947925135002,-0.04567336775412523]","[-1,-1,-1]","[-0.14001885186717586,-0.029477236231477546]","[-1,-1,-1]","[0.16686268734693194,-0.10001682869973898]","[1,1,1]","[0.00886174921976528,0.011923774654500702]","[1,1,1]","[0.19949334926005605,0.006404845108476896]","[1,1,1]","[-0.056343918981432387,-0.17760439594509816]","[1,1,1]","[-0.004953704491594145,-0.1449093533893681]","[-1,-1,-1]","[-0.18562773129780408,-0.014448664792413211]","[1,1,1]","[0.07486356563904116,0.16413553590861132]","[-1,-1,-1]","[-0.0035454897076573353,0.16994469299691148]","[-1,-1,-1]","[-0.08169687370065233,-0.014261024279948145]","[-1,-1,-1]","[0.09294780071568219,-0.16359273559164614]","[-1,-1,-1]","[0.02,0.02]",108.7368,0,5,5,48,1,,,,,,,
,,,,,,,6665fdcffb9c8e828cd159cd,682f0fba76bbbf506fcebac3,2025-05-22_14h52.25.590,cuing_paradigm_dot,2024.1.5,Win32,144.9275362,682d573fa47f1360d1451895,,,,,,,,,,,108.737,109.2368,,,109.4892,110.1535,left,0.6567,,,,,,,,,0.45,,,,,,109.2368,109.4892,110.1536,"[0.03926779279784296,-0.06765987535852788]","[1,1,1]","[-0.04669490596813715,-0.16900681915054125]","[-1,-1,-1]","[0.15482218734507475,0.051294989659715906]","[-1,-1,-1]","[-0.17850555855771086,-0.044522158103287884]","[1,1,1]","[-0.10592949743607458,-0.1598856835622156]","[-1,-1,-1]","[-0.06036070551309317,0.11257467519611099]","[1,1,1]","[0.18851950855394245,-0.018843286304023016]","[-1,-1,-1]","[0.12830671078954994,0.14791708125234]","[-1,-1,-1]","[-0.14416074849384333,-0.1156366159107631]","[-1,-1,-1]","[-0.1545244904893812,0.057471657867565536]","[-1,-1,-1]","[0.07069484014548823,-0.16925315139912317]","[1,1,1]","[-0.08668310613398049,0.02441449170567139]","[-1,-1,-1]","[-0.056258695561555896,-0.02826037944647789]","[1,1,1]","[0.12471547951014288,-0.017237783784506244]","[1,1,1]","[0.05228211138079325,0.07519509432383648]","[1,1,1]","[-0.10828948848247771,-0.03256721805262533]","[-1,-1,-1]","[-0.1512885234599256,0.10557889349709733]","[1,1,1]","[-0.0024139292040035822,0.10711089897846503]","[1,1,1]","[0.12972078012115423,-0.08086296473826779]","[-1,-1,-1]","[0.09657295652593942,0.06177566619909022]","[1,1,1]","[-0.013681459253479125,-0.04148944695013189]","[-1,-1,-1]","[-0.17095233191952555,0.01693347184800137]","[-1,-1,-1]","[-0.041634364018394675,0.164131330109557]","[-1,-1,-1]","[-0.08168965838186479,0.07169220239796525]","[1,1,1]","[0.12084656446527406,-0.12212797605021465]","[-1,-1,-1]","[-0.08767477717062436,0.14892396951406067]","[-1,-1,-1]","[0.019215089284982816,-0.14916412721536357]","[-1,-1,-1]","[0.037847740340170265,0.11586947116169034]","[1,1,1]","[0.002364453353470226,-0.0009691632145212724]","[-1,-1,-1]","[-0.009967134529994495,0.04192252936621693]","[1,1,1]","[-0.04994372004319587,0.043798241267872726]","[1,1,1]","[0.08172237689226558,0.1759832107657791]","[-1,-1,-1]","[0.02,0.02]",111.2506,0,6,6,78,1,,,,,,,
,,,,,,,6665fdcffb9c8e828cd159cd,682f0fba76bbbf506fcebac3,2025-05-22_14h52.25.590,cuing_paradigm_dot,2024.1.5,Win32,144.9275362,682d573fa47f1360d1451895,,,,,,,,,,,111.2507,111.7506,,,112.0006,112.6882,left,0.6757,,,,,,,,,0.55,,,,,,111.7508,112.0006,112.6882,"[-0.07074230826922427,-0.14627701084958086]","[-1,-1,-1]","[0.17948534442441474,0.027980564975547358]","[1,1,1]","[-0.197291957320925,0.0008237731494119005]","[1,1,1]","[-0.1156653945525581,0.11935401429818109]","[-1,-1,-1]","[0.13229226255875887,0.05534283176219349]","[1,1,1]","[-0.0035341390900336398,0.10324266764119798]","[1,1,1]","[-0.055223335104985886,-0.10304026325053423]","[-1,-1,-1]","[-0.1574618637094217,-0.06287790884964035]","[1,1,1]","[-0.02544287284180383,-0.1584878294533024]","[1,1,1]","[0.012033401305938616,0.18167928238193976]","[-1,-1,-1]","[-0.04144431627604686,0.19405423145577086]","[-1,-1,-1]","[0.1516148043470524,-0.013733919695977561]","[1,1,1]","[0.09872438869022171,-0.09468799288689184]","[1,1,1]","[-0.11273880449124635,-0.018614802739713353]","[1,1,1]","[-0.1110657386098943,-0.09839258259474942]","[1,1,1]","[-0.09541115519996538,0.02340127714705239]","[-1,-1,-1]","[0.03616288251497614,-0.03362093935283688]","[-1,-1,-1]","[0.06847969650821084,0.16359198565577884]","[1,1,1]","[-0.05680136211961307,0.0728033007475007]","[1,1,1]","[0.10874439249502749,0.15436611767862618]","[-1,-1,-1]","[0.04953786107406588,0.10506040337912513]","[1,1,1]","[-0.15006414670109972,0.07903254387839005]","[-1,-1,-1]","[0.042153347225124656,-0.12466716592434948]","[1,1,1]","[0.1710048241028072,0.07589047137657592]","[1,1,1]","[-0.1559671348488769,0.005192044060184868]","[1,1,1]","[0.10211499999094342,0.10888078379404212]","[-1,-1,-1]","[0.09094389132852945,-0.05319066030773355]","[1,1,1]","[0.05022733737673439,0.050921104029392664]","[1,1,1]","[-0.010114407722571338,-0.01903902159044743]","[-1,-1,-1]","[0.06493440429677746,0.004499428976210488]","[-1,-1,-1]","[0.1495166201993878,-0.09161801911629155]","[-1,-1,-1]","[-0.10541631073478346,0.06467466553625381]","[-1,-1,-1]","[0.02,0.02]",113.7852,0,7,7,136,1,,,,,,,
,,,,,,,6665fdcffb9c8e828cd159cd,682f0fba76bbbf506fcebac3,2025-05-22_14h52.25.590,cuing_paradigm_dot,2024.1.5,Win32,144.9275362,682d573fa47f1360d1451895,,,,,,,,,,,113.7854,114.2853,,,114.5354,115.1046,right,0.558,,,,,,,,,0.55,,,,,,114.2853,114.5354,115.1046,"[0.1389641601120851,0.1212461392430855]","[1,1,1]","[0.0424093955234106,0.058863441449370904]","[1,1,1]","[0.17106412269424798,-0.0140114874253409]","[1,1,1]","[-0.008556435688850386,0.17321852472318022]","[-1,-1,-1]","[0.05081003961004578,-0.1455653582322913]","[-1,-1,-1]","[-0.14628059058070383,-0.11856542126555528]","[-1,-1,-1]","[-0.006393455577810768,-0.011625420365271316]","[1,1,1]","[-0.1221585896595051,-0.02498169279682618]","[-1,-1,-1]","[-0.1433065847112796,0.06550158265577061]","[1,1,1]","[0.03957945593396019,-0.08672828798112958]","[1,1,1]","[0.08668874461277919,-0.056290584978038405]","[-1,-1,-1]","[-0.023979378947876325,0.08047243915572252]","[1,1,1]","[-0.0755309075009605,0.033621324952990056]","[1,1,1]","[0.06500854774818694,0.020513923822411493]","[-1,-1,-1]","[-0.19113774506723594,-0.0002925091249518323]","[1,1,1]","[-0.06367781959359746,-0.06504648340289651]","[1,1,1]","[0.14442640034444718,0.0679613123198641]","[1,1,1]","[0.1287574207139117,-0.09553707056864949]","[-1,-1,-1]","[0.048250685904020374,-0.18836409416110006]","[1,1,1]","[-0.10795822305097075,0.13488846008273736]","[-1,-1,-1]","[0.08549569530825321,-0.12454244751349454]","[-1,-1,-1]","[-0.17023224245997412,-0.06231364914046528]","[1,1,1]","[-0.09421907775433047,0.08669360180076152]","[-1,-1,-1]","[0.12930448768259684,-0.14497871201391]","[1,1,1]","[-0.1080381892707095,-0.06919859983718091]","[-1,-1,-1]","[0.05916497271576099,0.09657997923974444]","[1,1,1]","[-0.06293382281417571,-0.008797272167071742]","[1,1,1]","[0.08266246277417141,0.15392904375496452]","[1,1,1]","[0.1915287287835591,0.05546888151925089]","[1,1,1]","[-0.1239143440443122,0.026583620195243154]","[-1,-1,-1]","[-0.03402233115265593,0.12488302755161673]","[-1,-1,-1]","[-0.022733403231701643,-0.16302594680417518]","[-1,-1,-1]","[0.02,0.02]",116.2018,0,8,8,125,1,,,,,,,
,,,,,,,6665fdcffb9c8e828cd159cd,682f0fba76bbbf506fcebac3,2025-05-22_14h52.25.590,cuing_paradigm_dot,2024.1.5,Win32,144.9275362,682d573fa47f1360d1451895,,,,,,,,,,,116.202,116.7018,,,116.9486,117.9589,left,1.0013,,,,,,,,,0.4,,,,,,116.7018,116.9486,117.9589,"[-0.008794246611498715,0.08552899716039346]","[-1,-1,-1]","[-0.15110503556934438,-0.04392436820773238]","[1,1,1]","[-0.12230198318365282,0.009953194947496916]","[1,1,1]","[-0.19035506546855044,0.05518835187406578]","[-1,-1,-1]","[-0.0338370513763114,0.032038537574979396]","[-1,-1,-1]","[-0.01483983834925559,-0.16683748235374876]","[-1,-1,-1]","[0.04409881372555429,0.14290271717591518]","[1,1,1]","[0.10198200379293479,-0.10100130763144256]","[1,1,1]","[-0.04882089710959059,-0.055183440747269136]","[1,1,1]","[0.10577509602902414,0.0870567682357615]","[1,1,1]","[0.06733734823241089,-0.1672997527392396]","[-1,-1,-1]","[0.08452348170035774,0.0005108554953646119]","[-1,-1,-1]","[0.17986896261515137,-0.025247106502630675]","[1,1,1]","[0.07009631745958189,0.1073727012059428]","[-1,-1,-1]","[-0.13116234795452114,0.13021350976707885]","[-1,-1,-1]","[-0.07659090241332109,-0.13894528471517953]","[-1,-1,-1]","[0.11205543785443518,0.1423981117634799]","[-1,-1,-1]","[0.04503048106663456,-0.11468839096639909]","[1,1,1]","[0.0007349716007078236,-0.04997243456341763]","[-1,-1,-1]","[-0.07167041058389902,0.15156109770830226]","[1,1,1]","[-0.008437594988770216,0.1560255709813319]","[-1,-1,-1]","[0.16127713413216724,0.11768779375831176]","[-1,-1,-1]","[-0.06902119338092046,0.10692505387629454]","[1,1,1]","[0.06091364939068375,-0.05761616174177255]","[1,1,1]","[0.05413968802617979,0.04584940065601777]","[-1,-1,-1]","[-0.02350744553898834,-0.11243162813808126]","[1,1,1]","[-0.16762500316857978,-0.10712351401792486]","[-1,-1,-1]","[0.1254223619200817,-0.03292027145747812]","[-1,-1,-1]","[0.1241526874908312,-0.1498243028569648]","[-1,-1,-1]","[-0.073833097496028,-0.019139138982524263]","[-1,-1,-1]","[-0.16204023995386455,-0.0022244142616005924]","[1,1,1]","[-0.10548270938682301,0.05776064933079599]","[-1,-1,-1]","[0.02,0.02]",119.056,0,9,9,30,1,,,,,,,
,,,,,,,6665fdcffb9c8e828cd159cd,682f0fba76bbbf506fcebac3,2025-05-22_14h52.25.590,cuing_paradigm_dot,2024.1.5,Win32,144.9275362,682d573fa47f1360d1451895,,,,,,,,,,,119.0561,119.556,,,119.8061,120.1671,right,0.3513,,,,,,,,,0.1,,,,,,119.556,119.8061,120.1671,"[0.07347669627029106,0.05086983578937331]","[-1,-1,-1]","[0.10969857260880449,0.12015409263697523]","[-1,-1,-1]","[-0.025626267518900726,-0.1962842487685018]","[-1,-1,-1]","[-0.15673894958475235,0.03110868547559248]","[-1,-1,-1]","[0.15915157573715016,-0.10566855056716393]","[-1,-1,-1]","[0.04082003714544792,0.13553472408108216]","[-1,-1,-1]","[-0.019079163701179427,0.0526046914886687]","[-1,-1,-1]","[-0.1452909895689768,0.12732893291013755]","[-1,-1,-1]","[0.07336573995722862,0.005129487145861648]","[-1,-1,-1]","[-0.11124630893791489,0.017497017638517617]","[-1,-1,-1]","[-0.0553935805138262,-0.15700468984966653]","[-1,-1,-1]","[0.07393498421651368,0.1678735856532297]","[1,1,1]","[-0.010589513610791142,-0.04549885314606647]","[-1,-1,-1]","[0.03759214297787589,-0.18587232571715406]","[-1,-1,-1]","[0.16880102184688825,0.02994535839825012]","[-1,-1,-1]","[-0.09523369144921061,-0.09546320614156768]","[-1,-1,-1]","[0.08036535069718267,-0.1758000155400167]","[-1,-1,-1]","[-0.006530370047184365,0.16460477484212932]","[1,1,1]","[0.12769097140163188,-0.14292276274789656]","[-1,-1,-1]","[0.04788708908661771,-0.04054180655013473]","[-1,-1,-1]","[0.11990605612110779,0.03260289417421446]","[-1,-1,-1]","[0.01753668265832286,-0.11077788584092813]","[-1,-1,-1]","[-0.03459633852761796,-0.11687211943016047]","[-1,-1,-1]","[-0.1496194999568208,-0.11192242822915148]","[-1,-1,-1]","[0.17926482210261308,-0.07071003426065746]","[-1,-1,-1]","[0.030298752554816864,-0.00355978300317966]","[-1,-1,-1]","[-0.08137720590235481,-0.057605531602931935]","[-1,-1,-1]","[0.03973616898771164,0.08704399447547678]","[-1,-1,-1]","[-0.019026917398634664,0.12180476213080726]","[1,1,1]","[0.09925164075583745,-0.06906110266596173]","[-1,-1,-1]","[-0.15984271240987874,0.08328739201025677]","[-1,-1,-1]","[-0.18750465883599968,-0.06071743770943111]","[-1,-1,-1]","[0.02,0.02]",121.2642,0,10,10,4,1,,,,,,,
,,,,,,,6665fdcffb9c8e828cd159cd,682f0fba76bbbf506fcebac3,2025-05-22_14h52.25.590,cuing_paradigm_dot,2024.1.5,Win32,144.9275362,682d573fa47f1360d1451895,,,,,,,,,,,121.2643,121.7641,,,122.0094,122.5142,left,0.4989,,,,,,,,,0.4,,,,,,121.7641,122.0094,122.5142,"[0.07461905480638265,0.1628579939513324]","[-1,-1,-1]","[0.06319340026763134,-0.137088794427105]","[-1,-1,-1]","[-0.052208023473498545,-0.14475558293009255]","[-1,-1,-1]","[0.027533609353464453,0.012617724340057273]","[1,1,1]","[-0.038990697067751476,0.15433421860040475]","[1,1,1]","[-0.08904147132224238,-0.05287948958795537]","[-1,-1,-1]","[0.1696486419011173,-0.054046796310397174]","[-1,-1,-1]","[-0.19744434135535438,-0.0182514643412446]","[1,1,1]","[0.12617608677780498,-0.12952224623418368]","[-1,-1,-1]","[0.05365396117778447,0.04308322963301089]","[-1,-1,-1]","[0.10975756623150426,0.025338864761448067]","[-1,-1,-1]","[-0.007389376667614666,-0.16665277057890582]","[1,1,1]","[-0.13017233365632191,0.012337543610500587]","[-1,-1,-1]","[-0.03989092897871982,-0.09499677079630946]","[1,1,1]","[-0.14772729402509444,-0.08239903233616004]","[1,1,1]","[-0.12161634177307791,0.1393498844851042]","[-1,-1,-1]","[0.1069250576791862,-0.04988797173705539]","[1,1,1]","[0.09712858658812422,-0.09301429404696232]","[1,1,1]","[-0.07058802148145585,0.12256239940975698]","[-1,-1,-1]","[0.00578738674480043,-0.05512803492509621]","[-1,-1,-1]","[-0.18669013245101168,-0.06364783922250848]","[-1,-1,-1]","[0.142830574883739,0.11252270313131973]","[1,1,1]","[-0.11356334007177254,0.09894581651315963]","[-1,-1,-1]","[-0.11389836761633974,-0.13675114497398866]","[1,1,1]","[-0.18359069022776633,0.05920316407635602]","[1,1,1]","[0.04960123565760579,-0.07118943111913219]","[1,1,1]","[0.01503104065918104,-0.1294563717263822]","[-1,-1,-1]","[-0.14380216313971542,-0.03617024634472394]","[-1,-1,-1]","[0.00004395412722147589,0.13413301020440707]","[-1,-1,-1]","[0.04943375146871752,0.0979166570440484]","[-1,-1,-1]","[0.06924859760938033,-0.005536291362538148]","[1,1,1]","[-0.08296220533438071,0.02487240451697722]","[-1,-1,-1]","[0.02,0.02]",123.6114,0,11,11,53,1,,,,,,,
,,,,,,,6665fdcffb9c8e828cd159cd,682f0fba76bbbf506fcebac3,2025-05-22_14h52.25.590,cuing_paradigm_dot,2024.1.5,Win32,144.9275362,682d573fa47f1360d1451895,,,,,,,,,,,123.6116,124.1115,,,124.3614,124.9794,left,0.6069,,,,,,,,,0.6,,,,,,124.1115,124.3614,124.9794,"[-0.0841267184381316,0.04400958508327739]","[1,1,1]","[-0.13815419360722714,-0.1367094816131328]","[1,1,1]","[-0.10348156360365383,0.12133735854091637]","[1,1,1]","[-0.02646747088945285,0.09245640235661619]","[-1,-1,-1]","[0.18563175139645247,0.059918957011195914]","[1,1,1]","[0.008538608869250135,0.05548677641451396]","[-1,-1,-1]","[-0.10040505215283377,-0.03315754689742822]","[1,1,1]","[-0.1647894257988648,-0.05395100936691957]","[1,1,1]","[0.028352045196044333,-0.13103474910360904]","[1,1,1]","[0.0063629834019665,-0.1650724908616097]","[-1,-1,-1]","[0.1390891554372262,0.06676953153517971]","[-1,-1,-1]","[-0.19308502688024806,0.010158476702551192]","[-1,-1,-1]","[0.11063609251916759,0.038107204831484345]","[1,1,1]","[-0.14591369257885636,-0.00027820618607974224]","[1,1,1]","[0.10770072200473364,-0.09414694368507133]","[1,1,1]","[0.10554094505966685,-0.008632050075372244]","[1,1,1]","[0.17461110604087254,-0.058781584028135575]","[1,1,1]","[-0.005292230219310881,-0.09623731086594665]","[-1,-1,-1]","[-0.06787033953224797,-0.009464363657379118]","[-1,-1,-1]","[-0.11127730932492061,-0.09610648722454143]","[-1,-1,-1]","[-0.08866793166862998,-0.17486271972450126]","[-1,-1,-1]","[0.06094933244365939,0.02899233317500477]","[1,1,1]","[0.08395332635082448,-0.055014534454385366]","[1,1,1]","[-0.037432103644195136,-0.1555211424149077]","[1,1,1]","[0.038411851529752516,-0.035001515269647704]","[-1,-1,-1]","[0.08407143529572138,0.17517214211801702]","[1,1,1]","[-0.03491936350931961,0.19508742482920813]","[1,1,1]","[0.08826427328425841,-0.1730637085153856]","[-1,-1,-1]","[0.12761984547430114,-0.15235116878653773]","[1,1,1]","[0.0044750189384490996,-0.006611242912337468]","[-1,-1,-1]","[-0.03306441769495422,0.1488356443620897]","[-1,-1,-1]","[-0.1671508795544653,0.08965466552440492]","[1,1,1]","[0.02,0.02]",126.0765,0,12,12,166,1,,,,,,,
,,,,,,,6665fdcffb9c8e828cd159cd,682f0fba76bbbf506fcebac3,2025-05-22_14h52.25.590,cuing_paradigm_dot,2024.1.5,Win32,144.9275362,682d573fa47f1360d1451895,,,,,,,,,,,126.0766,126.5786,,,126.8296,127.4724,left,0.6357,,,,,,,,,0.45,,,,,,126.5786,126.8296,127.4724,"[0.032193195210275076,-0.058325513782781314]","[-1,-1,-1]","[0.06026726689498775,0.042310477468123005]","[1,1,1]","[0.010378858368585498,0.16517575229337092]","[-1,-1,-1]","[-0.03231013803223279,-0.15728296368623254]","[1,1,1]","[0.1357184302070678,0.005243914286605237]","[-1,-1,-1]","[-0.11411783644667073,-0.1367884862138792]","[-1,-1,-1]","[0.167943918691991,0.10080577653352096]","[-1,-1,-1]","[-0.17975191166363605,-0.0446032117139173]","[1,1,1]","[0.1431623545988383,-0.13802480662167788]","[1,1,1]","[0.13014368841942173,-0.048028682886761]","[-1,-1,-1]","[0.04741483785640442,-0.1498357082950191]","[-1,-1,-1]","[-0.1343728336397385,0.1196687934109534]","[1,1,1]","[0.1113728519564095,-0.08412948212758924]","[1,1,1]","[-0.0660124246017398,-0.07521684391282443]","[-1,-1,-1]","[0.08558044918884797,-0.018704670151449058]","[-1,-1,-1]","[-0.0312677217177933,0.17958585733050744]","[-1,-1,-1]","[-0.0080266125370171,0.0578709766316389]","[-1,-1,-1]","[0.1036074728945488,0.1409738577891188]","[1,1,1]","[-0.16557512538040378,-0.005134759135580377]","[1,1,1]","[-0.012668570806815029,0.09769429733202771]","[1,1,1]","[-0.014897834104218095,-0.10386461619181123]","[-1,-1,-1]","[0.06321391503834614,0.18082315033235227]","[-1,-1,-1]","[0.07621815241154009,-0.10912755928183807]","[-1,-1,-1]","[-0.18719188075684165,0.061114793725192566]","[-1,-1,-1]","[0.028627670995963056,-0.18788578632944677]","[-1,-1,-1]","[-0.08222908454754277,0.16683638401334625]","[-1,-1,-1]","[-0.0811988269753197,-0.03548337540985173]","[-1,-1,-1]","[-0.0490245468703692,0.01759158538035178]","[1,1,1]","[0.04785575467632865,0.08902886543396922]","[1,1,1]","[0.0925906097500425,0.08772633541172903]","[1,1,1]","[-0.13363663935386408,-0.04979057491405552]","[1,1,1]","[-0.12090626834044599,0.0356490729988297]","[1,1,1]","[0.02,0.02]",128.5696,0,13,13,89,1,,,,,,,
,,,,,,,6665fdcffb9c8e828cd159cd,682f0fba76bbbf506fcebac3,2025-05-22_14h52.25.590,cuing_paradigm_dot,2024.1.5,Win32,144.9275362,682d573fa47f1360d1451895,,,,,,,,,,,128.5696,129.0695,,,129.3156,129.8405,right,0.514,,,,,,,,,0.4,,,,,,129.0695,129.3156,129.8406,"[-0.051347619209356286,-0.05347674716891259]","[1,1,1]","[-0.18813787089643985,-0.04514718707261197]","[-1,-1,-1]","[-0.14499199664261336,-0.0173850866320307]","[-1,-1,-1]","[-0.07355842031312512,0.18293076200924238]","[-1,-1,-1]","[-0.03241273773670756,-0.19381934727031827]","[1,1,1]","[0.16996218670566104,0.017727310823616692]","[1,1,1]","[0.009435515104738335,0.1275019147003668]","[-1,-1,-1]","[0.02020149982840132,-0.002966155769510651]","[-1,-1,-1]","[0.01073108564502872,-0.19422760254517296]","[1,1,1]","[-0.1786706343676072,0.06643957757897791]","[-1,-1,-1]","[0.023552817437658444,-0.06366225514831847]","[-1,-1,-1]","[-0.05655947844138782,0.07125786278044985]","[1,1,1]","[-0.16069024748956345,-0.08014279230308594]","[-1,-1,-1]","[0.05458586630779532,-0.18930477931609196]","[1,1,1]","[-0.09657710493042071,-0.0583322183194847]","[-1,-1,-1]","[-0.0276783573333972,-0.01916262558076486]","[-1,-1,-1]","[0.011911888050660166,0.1946457894287766]","[-1,-1,-1]","[0.04513257355754217,0.0643773859502872]","[-1,-1,-1]","[-0.09391105667096493,0.0058746321700293685]","[1,1,1]","[0.1825997018349608,0.07902493680331861]","[-1,-1,-1]","[-0.05580536805496676,-0.11768542955599925]","[1,1,1]","[0.027048656729484474,-0.12794325244647733]","[1,1,1]","[-0.1335634737203016,-0.13101311174970479]","[-1,-1,-1]","[-0.19036298551714592,0.005132428092121898]","[-1,-1,-1]","[0.12241698801488433,0.06736628015027948]","[-1,-1,-1]","[0.06767869957850094,0.1767893340020465]","[1,1,1]","[0.1356888849296924,-0.12223462116311812]","[1,1,1]","[-0.15100517218750417,0.120215078467982]","[-1,-1,-1]","[0.09096680112281065,0.10363241525081424]","[-1,-1,-1]","[-0.11022112368227428,0.07039760551919436]","[-1,-1,-1]","[-0.03419256719563244,0.021388979374945778]","[1,1,1]","[0.10138100472761004,-0.03735485478933565]","[1,1,1]","[0.02,0.02]",130.9375,0,14,14,52,1,,,,,,,
,,,,,,,6665fdcffb9c8e828cd159cd,682f0fba76bbbf506fcebac3,2025-05-22_14h52.25.590,cuing_paradigm_dot,2024.1.5,Win32,144.9275362,682d573fa47f1360d1451895,,,,,,,,,,,130.9377,131.4376,,,131.6876,132.3127,left,0.6147,,,,,,,,,0.9,,,,,,131.4376,131.6876,132.3127,"[-0.0715252541445459,-0.07861310732880093]","[1,1,1]","[0.049444996030856295,-0.12591994871948714]","[1,1,1]","[0.016667328190437952,0.009450449637840478]","[1,1,1]","[0.008173250471117968,-0.1783653706354234]","[1,1,1]","[-0.12998780328728554,-0.11775035548969912]","[1,1,1]","[-0.04510363410999183,-0.12684882672650993]","[1,1,1]","[-0.04283957039790726,-0.17916883576811823]","[1,1,1]","[-0.0000029731765287629494,0.1296497155168806]","[1,1,1]","[0.07919724093447433,-0.0927612056547135]","[1,1,1]","[-0.04428877197572606,-0.003457082390277424]","[1,1,1]","[0.17485880082794691,-0.06744528064071735]","[1,1,1]","[0.13592205902488944,-0.021396527448491787]","[1,1,1]","[-0.08977178152905081,0.039360415352736586]","[1,1,1]","[-0.042306384465970195,0.05637294100098051]","[1,1,1]","[0.049165410714342814,0.13597115780805794]","[1,1,1]","[0.106593065302818,0.018999759755243473]","[1,1,1]","[-0.14623114229813658,0.028762862618937787]","[1,1,1]","[-0.08461549611583577,0.08705749496550028]","[1,1,1]","[-0.19011493782622732,-0.033929739400840035]","[-1,-1,-1]","[-0.14343080701505495,-0.05184869874370704]","[1,1,1]","[0.1302193579932517,0.1504523486841211]","[1,1,1]","[-0.09722541513863135,0.1513380316836526]","[-1,-1,-1]","[0.016673936261817894,0.05309422638365808]","[1,1,1]","[-0.17786022212787259,0.07118375764720426]","[-1,-1,-1]","[0.08135811311488264,0.10810565289652817]","[1,1,1]","[-0.12879770825491144,0.07550724797985948]","[1,1,1]","[0.12064473028722175,-0.06698192395474116]","[1,1,1]","[-0.01713607436295092,-0.09707537713274252]","[1,1,1]","[0.017000370940840677,-0.07163307189537214]","[1,1,1]","[0.18421345505188516,0.005355875404718205]","[1,1,1]","[-0.11612877366252602,-0.003986966017237414]","[1,1,1]","[-0.035117599589135705,-0.0433896829182046]","[1,1,1]","[0.02,0.02]",133.4099,0,15,15,187,1,,,,,,,
,,,,,,,6665fdcffb9c8e828cd159cd,682f0fba76bbbf506fcebac3,2025-05-22_14h52.25.590,cuing_paradigm_dot,2024.1.5,Win32,144.9275362,682d573fa47f1360d1451895,,,,,,,,,,,133.41,133.9097,,,134.1634,134.7432,left,0.5715,,,,,,,,,0.5,,,,,,133.9097,134.1633,134.7432,"[-0.004743287596188762,0.19726103231488532]","[1,1,1]","[-0.06346627186832952,-0.09864777012375364]","[1,1,1]","[0.1524335318851353,0.06294617022684888]","[-1,-1,-1]","[-0.11850726105275593,-0.15637504412852196]","[-1,-1,-1]","[0.02347145383008504,0.08494304213870625]","[1,1,1]","[0.03905189749380524,-0.08754423745335214]","[1,1,1]","[0.08390408462519784,0.12111881718594095]","[1,1,1]","[-0.1449460841930356,0.12866728950756212]","[-1,-1,-1]","[-0.10522464727394834,0.15835290348162237]","[1,1,1]","[0.08460098225489991,0.08097829790782533]","[-1,-1,-1]","[0.023675494766011246,-0.19246466595003506]","[-1,-1,-1]","[0.1876437876568008,0.042755099859610124]","[1,1,1]","[0.0239006125568772,0.15141696189976087]","[-1,-1,-1]","[-0.11536396152249856,0.08738464824680964]","[-1,-1,-1]","[-0.15825912729147276,-0.08542082330482773]","[-1,-1,-1]","[0.12352800331598038,0.00037524805884794725]","[1,1,1]","[0.00021734896717139922,-0.019756710906709347]","[1,1,1]","[-0.05574331952863788,0.17680732638039534]","[1,1,1]","[-0.04092402088458167,0.04397533840399574]","[1,1,1]","[0.13711233154324232,-0.06943125338715989]","[-1,-1,-1]","[-0.19873867353798128,0.0002638244868026824]","[1,1,1]","[-0.03717796725226917,-0.03943329620848483]","[-1,-1,-1]","[0.07470615104156093,-0.051454429479829436]","[1,1,1]","[0.07818499748443976,0.005131202950915685]","[1,1,1]","[-0.07143621594169167,-0.16916899481914793]","[-1,-1,-1]","[-0.11371184384379321,-0.05560986145632949]","[1,1,1]","[0.0918693843041373,0.16808004946777916]","[-1,-1,-1]","[-0.14459588235835705,0.021762593511871414]","[1,1,1]","[0.029393584986110576,0.008347730074075507]","[-1,-1,-1]","[0.17793289641982848,-0.08889211800622265]","[-1,-1,-1]","[-0.05092040703437344,0.09961809322143123]","[-1,-1,-1]","[-0.0085235512258048,-0.13833930478150314]","[-1,-1,-1]","[0.02,0.02]",135.8403,0,16,16,106,1,,,,,,,
,,,,,,,6665fdcffb9c8e828cd159cd,682f0fba76bbbf506fcebac3,2025-05-22_14h52.25.590,cuing_paradigm_dot,2024.1.5,Win32,144.9275362,682d573fa47f1360d1451895,,,,,,,,,,,135.8404,136.3403,,,136.5904,137.2878,left,0.6869,,,,,,,,,0.55,,,,,,136.3403,136.5904,137.2878,"[-0.11087464177223737,-0.08741878671244505]","[1,1,1]","[-0.04248365385025153,0.08792276694022166]","[-1,-1,-1]","[-0.16751467927505415,0.01277999989600569]","[-1,-1,-1]","[0.17291821931350915,0.03627818382183401]","[1,1,1]","[0.003620134441385036,0.05701780649077594]","[1,1,1]","[0.10885348002390004,-0.1533742408452243]","[1,1,1]","[-0.13055799458424103,-0.03707183190355169]","[-1,-1,-1]","[0.07562764473568419,0.019728563130510232]","[-1,-1,-1]","[-0.030638769967590313,-0.11870912483275514]","[-1,-1,-1]","[-0.08517751412150246,-0.15825217938571204]","[1,1,1]","[-0.1588940511896962,-0.0940786599665401]","[1,1,1]","[0.053749990509435464,0.155565977788581]","[1,1,1]","[-0.06709621485953116,0.042301594304180644]","[1,1,1]","[-0.1850156026872364,-0.04311173383282428]","[-1,-1,-1]","[0.026609333520692093,-0.04417997242277221]","[1,1,1]","[0.16490855794889936,0.10275973783152578]","[-1,-1,-1]","[0.1074030915009913,-0.08380128767314393]","[1,1,1]","[-0.13089084754732452,0.036279282105768]","[1,1,1]","[-0.08042944469512764,-0.03309376148412845]","[-1,-1,-1]","[-0.046414654148827124,0.15092244098489252]","[1,1,1]","[-0.11308784212639893,0.12000489286066449]","[1,1,1]","[0.008575804640411583,-0.17111216628454878]","[-1,-1,-1]","[0.05733731289328276,-0.08202778085093552]","[1,1,1]","[-0.03165883035265757,-0.07212091250732762]","[-1,-1,-1]","[0.02412718078530324,0.1254264668660722]","[-1,-1,-1]","[0.12752445946837757,0.11901035275962926]","[-1,-1,-1]","[0.07602984658250472,0.1171296658146385]","[1,1,1]","[0.13580571167895944,-0.12011026753453434]","[1,1,1]","[0.08427419508720033,-0.03140082845444515]","[-1,-1,-1]","[-0.08610586670718395,0.08870297801465109]","[1,1,1]","[0.12337902257389423,0.02556455234973301]","[-1,-1,-1]","[0.16484038340859306,-0.0032692343197425057]","[1,1,1]","[0.02,0.02]",138.3889,0,17,17,128,1,,,,,,,
,,,,,,,6665fdcffb9c8e828cd159cd,682f0fba76bbbf506fcebac3,2025-05-22_14h52.25.590,cuing_paradigm_dot,2024.1.5,Win32,144.9275362,682d573fa47f1360d1451895,,,,,,,,,,,138.389,138.8889,,,139.139,139.4791,right,0.328,,,,,,,,,0.1,,,,,,138.8889,139.1389,139.4792,"[-0.09287147366177666,-0.020783729338129397]","[-1,-1,-1]","[0.08029027083856215,-0.012565210666852712]","[-1,-1,-1]","[0.1379895957444154,-0.1370990812896275]","[-1,-1,-1]","[-0.00908284958145432,0.162042739293153]","[-1,-1,-1]","[-0.03878052661874197,-0.13418050065400083]","[-1,-1,-1]","[0.06218247065060795,-0.13785628280485093]","[-1,-1,-1]","[0.06845908041128736,0.14607576569051953]","[1,1,1]","[0.017714038973710843,0.06994290078437734]","[1,1,1]","[0.11846443423023308,-0.0864856450116604]","[-1,-1,-1]","[-0.0005788824038782261,-0.08714440422755067]","[-1,-1,-1]","[-0.16751151474462475,0.07044466236177002]","[-1,-1,-1]","[0.12540736003643527,0.00869836122194847]","[-1,-1,-1]","[0.18930679499597647,-0.011171199661757357]","[-1,-1,-1]","[-0.02674318241656707,0.03378079549226202]","[-1,-1,-1]","[0.14508769119699794,0.09490696419902026]","[1,1,1]","[-0.149956250596778,-0.07240130824301079]","[-1,-1,-1]","[-0.062488025923934556,0.174673673472621]","[-1,-1,-1]","[0.06777604309759748,0.10251280819623082]","[-1,-1,-1]","[-0.14418422732749586,-0.13133952894941464]","[-1,-1,-1]","[0.041515474827923636,-0.057344798098173375]","[-1,-1,-1]","[-0.14775922821531023,-0.008582565356684032]","[-1,-1,-1]","[0.09955655834880792,0.051220473991829475]","[-1,-1,-1]","[-0.006655499021711654,-0.021664261119106267]","[-1,-1,-1]","[-0.11442097647988915,0.1342703042291216]","[-1,-1,-1]","[-0.03892443113279469,0.0864926421921196]","[-1,-1,-1]","[-0.15279849035530355,0.10938588458972202]","[-1,-1,-1]","[0.03255710430823592,0.17302402257851332]","[-1,-1,-1]","[-0.07831940505262439,0.05568935278385179]","[-1,-1,-1]","[-0.06276135497198783,-0.04799404254092083]","[-1,-1,-1]","[0.17577666802679892,-0.06814811505984225]","[-1,-1,-1]","[0.0010843979698824445,-0.16729827965131627]","[-1,-1,-1]","[-0.05304471463281817,-0.0040500730537875]","[-1,-1,-1]","[0.02,0.02]",140.5762,0,18,18,3,1,,,,,,,
,,,,,,,6665fdcffb9c8e828cd159cd,682f0fba76bbbf506fcebac3,2025-05-22_14h52.25.590,cuing_paradigm_dot,2024.1.5,Win32,144.9275362,682d573fa47f1360d1451895,,,,,,,,,,,140.5763,141.0762,,,141.3264,141.6525,left,0.3151,,,,,,,,,0.9,,,,,,141.0762,141.3264,141.6526,"[0.1936711608958538,0.00037288262426378476]","[1,1,1]","[0.08484585661884687,0.1655521352035059]","[-1,-1,-1]","[-0.05616951672283072,-0.06343490747900664]","[1,1,1]","[-0.12899263298297808,-0.1191283020946784]","[1,1,1]","[0.14640657933604437,0.019980348352759695]","[1,1,1]","[-0.1943964089883957,0.03222394651476735]","[1,1,1]","[-0.06704676506134162,-0.12810415405593942]","[1,1,1]","[0.13773317684073444,-0.0769287876065997]","[1,1,1]","[0.14589352027334657,0.06971273762994204]","[1,1,1]","[-0.09817481554849065,0.11545622275616566]","[-1,-1,-1]","[0.01682424877053582,-0.13723472166876075]","[1,1,1]","[0.10045423932387434,0.012865362538340053]","[1,1,1]","[-0.14497648413497322,0.08094759796230944]","[1,1,1]","[0.07804208119249,-0.1573089672481318]","[1,1,1]","[0.0006198651552622323,-0.18707254899769374]","[1,1,1]","[-0.16592033211761,-0.037418988903326546]","[1,1,1]","[0.10804721352780892,-0.028964567760121965]","[1,1,1]","[0.05251461325096564,-0.06098448508784212]","[1,1,1]","[0.027010274276271652,0.10905699993126614]","[1,1,1]","[-0.14518635681307646,0.01842119369144132]","[1,1,1]","[-0.005371408747692687,0.19235547687419113]","[1,1,1]","[-0.016549513024430914,0.11202074035118843]","[1,1,1]","[-0.0659168700729979,0.07579851147347748]","[1,1,1]","[-0.04074286423741405,0.15136591948586897]","[1,1,1]","[-0.08734267511726031,-0.002081431050179289]","[1,1,1]","[0.13724859368832973,-0.12751896668084875]","[1,1,1]","[0.02688840016245394,0.15650505346911828]","[-1,-1,-1]","[-0.04419493134621555,0.0025752660674508575]","[1,1,1]","[-0.10697754248423472,-0.0801039924906621]","[1,1,1]","[0.05903281808273114,0.026250141598946133]","[1,1,1]","[0.08191566655948748,0.06648035944123938]","[1,1,1]","[0.14819626632863,-0.03654275854781619]","[1,1,1]","[0.02,0.02]",142.7499,0,19,19,181,1,,,,,,,
,,,,,,,6665fdcffb9c8e828cd159cd,682f0fba76bbbf506fcebac3,2025-05-22_14h52.25.590,cuing_paradigm_dot,2024.1.5,Win32,144.9275362,682d573fa47f1360d1451895,,,,,,,,,,,142.75,143.2499,,,143.4999,144.3331,right,0.8197,,,,,,,,,0.4,,,,,,143.2499,143.4999,144.3331,"[-0.10949528522751711,0.15613859917966094]","[-1,-1,-1]","[0.18773522156966785,0.04413534148964331]","[1,1,1]","[-0.03941131360730314,0.00017542162952987434]","[-1,-1,-1]","[0.03767807649342307,0.024150819950328653]","[-1,-1,-1]","[-0.15416807397902327,-0.0076273922490513795]","[-1,-1,-1]","[0.030285180785619762,0.12173634892524782]","[-1,-1,-1]","[-0.07500549744862021,-0.08803051711947064]","[1,1,1]","[-0.019267095095022804,-0.09426863607852148]","[1,1,1]","[0.017539419409686854,-0.19646893377480637]","[1,1,1]","[0.14519668421888168,0.11883736358699815]","[-1,-1,-1]","[-0.058112142939335115,0.15618241375383152]","[-1,-1,-1]","[0.08657204990532838,-0.16306752330302385]","[-1,-1,-1]","[-0.14762621838155324,-0.07924040317156793]","[1,1,1]","[0.03727138911272605,-0.12606565491948962]","[1,1,1]","[-0.14158330198485522,0.04400772032421375]","[-1,-1,-1]","[0.11636264774597146,0.03114440117880495]","[-1,-1,-1]","[-0.011898508215425608,0.16891169402365855]","[1,1,1]","[0.1733983938824721,-0.03283835848883691]","[1,1,1]","[-0.13295284973488425,-0.1396190584150822]","[-1,-1,-1]","[-0.1529712110675074,0.11672376935413883]","[-1,-1,-1]","[-0.1089364297639037,0.07063165954542285]","[-1,-1,-1]","[0.07560777130875194,-0.052127124100177814]","[-1,-1,-1]","[0.056469381175494444,0.15481649356559463]","[-1,-1,-1]","[0.134361149895251,0.06992573535531996]","[1,1,1]","[-0.06021810326072183,0.04518619159031369]","[-1,-1,-1]","[-0.09395536627025285,-0.16807296713280578]","[-1,-1,-1]","[0.07287476692057288,0.10171328535289305]","[1,1,1]","[-0.0467974531136533,-0.05029759458399935]","[1,1,1]","[-0.09692361365802928,0.021569184115377237]","[-1,-1,-1]","[-0.057513210503568925,-0.18470744710256168]","[1,1,1]","[-0.08920121802619266,0.11455302078947406]","[1,1,1]","[0.04873386618028314,0.06311638667121029]","[-1,-1,-1]","[0.02,0.02]",145.4302,0,20,20,45,1,,,,,,,
,,,,,,,6665fdcffb9c8e828cd159cd,682f0fba76bbbf506fcebac3,2025-05-22_14h52.25.590,cuing_paradigm_dot,2024.1.5,Win32,144.9275362,682d573fa47f1360d1451895,,,,,,,,,,,145.4304,145.9331,,,146.1804,146.5344,right,0.3438,,,,,,,,,0.1,,,,,,145.9331,146.1804,146.5345,"[-0.0012397515844699222,0.08863325661410533]","[-1,-1,-1]","[-0.13673842664532526,-0.0598095129878539]","[-1,-1,-1]","[-0.057240755471128134,-0.16269186746561967]","[-1,-1,-1]","[-0.16688367442590907,-0.000679056634082393]","[-1,-1,-1]","[0.11898922275012322,-0.05341334082056632]","[-1,-1,-1]","[-0.1162897044915876,0.07414792794915272]","[-1,-1,-1]","[0.050288467594291814,0.03444895290000163]","[-1,-1,-1]","[0.1623327032106701,0.07647757691004808]","[-1,-1,-1]","[-0.061805714170685755,0.026245556365654663]","[-1,-1,-1]","[0.01126308130683175,0.19122546018728576]","[-1,-1,-1]","[-0.03481642018387339,-0.09139680796492042]","[-1,-1,-1]","[-0.060353292743887205,0.11455554959435486]","[-1,-1,-1]","[0.07465027536112051,0.14699561036671058]","[-1,-1,-1]","[-0.05194789623035943,0.1791948455536792]","[1,1,1]","[0.15125968782092375,-0.08389955527722374]","[1,1,1]","[-0.015629962935611405,0.04403300897139772]","[-1,-1,-1]","[0.11013183833437107,0.04863452229064777]","[-1,-1,-1]","[-0.0027633902774735165,-0.04051097553746042]","[-1,-1,-1]","[0.07026076128805585,-0.00975100182419771]","[-1,-1,-1]","[0.13029139850414698,0.10374578152121705]","[-1,-1,-1]","[-0.043451582204872406,-0.04755342604191798]","[-1,-1,-1]","[-0.16964708928742012,0.06893257815424238]","[1,1,1]","[0.036303045002006346,-0.09265534661256308]","[-1,-1,-1]","[0.004452232146410576,0.1330060247162146]","[-1,-1,-1]","[-0.10859978368983475,-0.14035589738087476]","[-1,-1,-1]","[0.06374909860719946,-0.15388651601705403]","[-1,-1,-1]","[-0.03284958738773973,-0.19672446874753508]","[-1,-1,-1]","[-0.13283791257124797,0.13476576438566754]","[-1,-1,-1]","[0.07692283118379542,-0.06931139329570966]","[-1,-1,-1]","[-0.09115218515679376,-0.017798037436430592]","[-1,-1,-1]","[-0.15755123979306804,-0.09409960410567769]","[-1,-1,-1]","[0.014015635468936543,0.015038023960194264]","[-1,-1,-1]","[0.02,0.02]",147.6315,0,21,21,7,1,,,,,,,
,,,,,,,6665fdcffb9c8e828cd159cd,682f0fba76bbbf506fcebac3,2025-05-22_14h52.25.590,cuing_paradigm_dot,2024.1.5,Win32,144.9275362,682d573fa47f1360d1451895,,,,,,,,,,,147.6317,148.1315,,,148.3816,148.7149,right,0.3225,,,,,,,,,0.1,,,,,,148.1316,148.3816,148.715,"[0.06131920753646413,0.18704216667140772]","[-1,-1,-1]","[0.042992644771053634,-0.1791178336602032]","[-1,-1,-1]","[-0.00226533341800718,-0.11913318223662132]","[-1,-1,-1]","[0.020019157678240133,-0.03776047005362823]","[-1,-1,-1]","[-0.1026786461906401,0.018765292628983014]","[-1,-1,-1]","[0.07083923861648439,0.02948448688311201]","[-1,-1,-1]","[0.12886297264699356,0.10262923729063757]","[-1,-1,-1]","[0.06730303468802235,-0.08362815008267939]","[1,1,1]","[0.1977758612198882,0.010334107076936772]","[1,1,1]","[-0.0019894726389640786,0.03285577344797485]","[-1,-1,-1]","[-0.1528665248590474,-0.11055934274167345]","[-1,-1,-1]","[0.11601211428220602,-0.14959805122857145]","[-1,-1,-1]","[-0.11721354453903786,-0.019000535124949976]","[-1,-1,-1]","[0.03584338685767579,0.0017477011052905512]","[-1,-1,-1]","[-0.023058110016824264,0.16563804288658734]","[-1,-1,-1]","[-0.13007367537707595,0.06324337037986873]","[-1,-1,-1]","[-0.011914129334255797,0.11191575475136412]","[-1,-1,-1]","[-0.0759571041976654,0.15851985402066832]","[-1,-1,-1]","[0.12603672115355388,-0.02391924196838913]","[-1,-1,-1]","[0.1105635369343786,0.14461945439444387]","[-1,-1,-1]","[0.04010557859362886,0.1269369238466249]","[1,1,1]","[-0.07769799474732451,-0.037403063900381506]","[-1,-1,-1]","[0.1749573256564782,-0.09347114442289635]","[-1,-1,-1]","[-0.11154954370381497,-0.1575023487278316]","[-1,-1,-1]","[-0.05588439257939775,0.11920484220442394]","[-1,-1,-1]","[-0.15896499482724105,0.11386482557130012]","[-1,-1,-1]","[0.14966562863154767,0.04159877791740749]","[-1,-1,-1]","[0.03418366315472425,-0.13592972879215118]","[-1,-1,-1]","[-0.14238585165529408,-0.06382480658565044]","[-1,-1,-1]","[-0.06454178010781539,-0.09169135849772413]","[-1,-1,-1]","[0.12549439466851342,-0.09407114981273372]","[-1,-1,-1]","[0.037850977028990776,0.08543072056038974]","[-1,-1,-1]","[0.02,0.02]",149.8121,0,22,22,9,1,,,,,,,
,,,,,,,6665fdcffb9c8e828cd159cd,682f0fba76bbbf506fcebac3,2025-05-22_14h52.25.590,cuing_paradigm_dot,2024.1.5,Win32,144.9275362,682d573fa47f1360d1451895,,,,,,,,,,,149.8121,150.312,,,150.5621,150.9578,right,0.3827,,,,,,,,,0.1,,,,,,150.3121,150.5621,150.9579,"[0.08166946959649683,-0.032713138615486255]","[-1,-1,-1]","[-0.04519658977887418,-0.07281486803980776]","[-1,-1,-1]","[-0.0889698465704014,0.10989121372400662]","[-1,-1,-1]","[0.13798925952390736,-0.039121844357711995]","[-1,-1,-1]","[0.06114997859286122,-0.13614646824478394]","[-1,-1,-1]","[-0.041088676721145946,0.11731636382450833]","[-1,-1,-1]","[0.11734132286175852,0.08275827067616559]","[-1,-1,-1]","[0.06862513444651716,0.12581363601852683]","[-1,-1,-1]","[-0.1739221806366273,0.08606532875199024]","[-1,-1,-1]","[-0.13143169338598665,-0.14331791480637288]","[-1,-1,-1]","[-0.16574909105852423,0.04533844975170124]","[-1,-1,-1]","[0.16740924847697353,0.07667418048356935]","[-1,-1,-1]","[0.01587096588338844,-0.12886131421211527]","[-1,-1,-1]","[-0.07844221010375056,-0.03422080709791926]","[-1,-1,-1]","[-0.12257427145808548,0.08225329901365849]","[1,1,1]","[-0.014315736204369642,0.04839721436470913]","[-1,-1,-1]","[-0.05213564786729196,-0.14969216691870404]","[-1,-1,-1]","[-0.08192681381210665,-0.09980588736301399]","[-1,-1,-1]","[0.05605007477644535,-0.08209785034139763]","[1,1,1]","[0.06245079901405093,0.028757150491832122]","[-1,-1,-1]","[0.11715075337100565,-0.004855505433866337]","[-1,-1,-1]","[0.14221710017446057,-0.11155455564528535]","[-1,-1,-1]","[-0.12256383599667685,0.03429542933336315]","[-1,-1,-1]","[-0.18174582812540394,-0.05237395571751273]","[-1,-1,-1]","[-0.12939531296106108,-0.05838513135761707]","[-1,-1,-1]","[-0.03123917467490691,0.16102571088120335]","[-1,-1,-1]","[-0.169026015502953,-0.09085741272113075]","[-1,-1,-1]","[0.013333017781095831,-0.04400107727748131]","[-1,-1,-1]","[-0.001826589232263979,-0.0064153154244026905]","[-1,-1,-1]","[0.02483225325659257,0.16461318933394029]","[-1,-1,-1]","[0.11176605835004193,0.16361023916200215]","[-1,-1,-1]","[0.009220936461989586,0.1081149634826899]","[1,1,1]","[0.02,0.02]",152.0552,0,23,23,14,1,,,,,,,
,,,,,,,6665fdcffb9c8e828cd159cd,682f0fba76bbbf506fcebac3,2025-05-22_14h52.25.590,cuing_paradigm_dot,2024.1.5,Win32,144.9275362,682d573fa47f1360d1451895,,,,,,,,,,,152.0553,152.5552,,,152.8052,153.0898,left,0.2704,,,,,,,,,0.9,,,,,,152.5552,152.8052,153.0898,"[0.054944520577551614,-0.1450047567336507]","[1,1,1]","[-0.1962808717094374,0.030644540673579163]","[1,1,1]","[0.0056022565589305675,0.06398596130451156]","[1,1,1]","[-0.00839591307065714,0.108353931731467]","[1,1,1]","[-0.11172282779801414,0.1254961211098017]","[1,1,1]","[-0.06962322947645373,-0.07719522577726534]","[-1,-1,-1]","[-0.15812072806018826,-0.01928708619020514]","[1,1,1]","[0.16297457550936081,0.0488074438351333]","[-1,-1,-1]","[0.01745049222550709,-0.014031148803235348]","[-1,-1,-1]","[-0.12854330471749717,-0.05578101640934509]","[1,1,1]","[-0.029717426895567053,-0.10158627461381105]","[1,1,1]","[0.0627870237440392,0.007791868230462408]","[1,1,1]","[-0.08022186959626522,-0.16298913697591294]","[1,1,1]","[0.13400722718067937,-0.045185239434467624]","[1,1,1]","[-0.06646704707692,0.1792444594576644]","[1,1,1]","[-0.06711402554326705,-0.027664656462080613]","[1,1,1]","[0.10454693248762612,-0.13971505950936067]","[1,1,1]","[-0.027237230234241468,-0.04245740426349471]","[1,1,1]","[-0.12826156474858094,0.07263325525336632]","[1,1,1]","[0.10159018725841466,0.0495298184407363]","[1,1,1]","[-0.18424480525572,-0.06688309617754716]","[1,1,1]","[-0.05319311772890846,0.050067343169947785]","[1,1,1]","[-0.1583925310915192,0.11676627239712951]","[1,1,1]","[0.14693233241724,0.1228685533755608]","[1,1,1]","[-0.002871042985974656,-0.16152427563425784]","[1,1,1]","[0.1609513376455326,-0.09837477061067668]","[1,1,1]","[-0.00876302012222268,0.17641138228366904]","[1,1,1]","[-0.09432548891778207,0.03594648614009488]","[1,1,1]","[-0.07523719718870288,0.10825883812704029]","[1,1,1]","[0.09181043447416869,0.09383734141913519]","[1,1,1]","[0.07759656986867036,-0.03792253979772418]","[1,1,1]","[-0.0409641263051947,0.14568379094736195]","[1,1,1]","[0.02,0.02]",154.1869,0,24,24,201,1,,,,,,,
,,,,,,,6665fdcffb9c8e828cd159cd,682f0fba76bbbf506fcebac3,2025-05-22_14h52.25.590,cuing_paradigm_dot,2024.1.5,Win32,144.9275362,682d573fa47f1360d1451895,,,,,,,,,,,154.1871,154.687,,,154.9371,155.2011,right,0.2532,,,,,,,,,0.4,,,,,,154.687,154.9371,155.2011,"[0.0618368991411958,-0.13398902314170136]","[-1,-1,-1]","[-0.0029111536032079876,-0.16314165114352797]","[1,1,1]","[-0.16436973733665672,-0.0703753354942213]","[-1,-1,-1]","[0.003612714780376397,-0.059091802106908335]","[1,1,1]","[0.09581734101759562,-0.09741415744980736]","[-1,-1,-1]","[-0.0689995282773907,-0.005943928192404829]","[-1,-1,-1]","[-0.089737758545363,-0.07456671907525704]","[1,1,1]","[-0.06579409484463043,0.1152870059412445]","[1,1,1]","[0.18211536927548022,-0.05383419003094127]","[-1,-1,-1]","[-0.04789915630484815,-0.08631877516398971]","[-1,-1,-1]","[0.06932658441933465,-0.06701010250296478]","[-1,-1,-1]","[0.1458389710044541,0.0082082360158203]","[-1,-1,-1]","[-0.06811897294606079,-0.13674127508003125]","[-1,-1,-1]","[0.028857014584411995,0.016571473947063788]","[-1,-1,-1]","[-0.1120925580211832,0.10855962135488305]","[-1,-1,-1]","[0.06021115707208937,0.11854424010370626]","[1,1,1]","[-0.175738302034694,0.036353418663374375]","[1,1,1]","[-0.009734186738050215,0.19430075786882955]","[-1,-1,-1]","[0.14458782289386277,-0.07015457792235669]","[-1,-1,-1]","[-0.17698410746567403,0.08455145125871229]","[-1,-1,-1]","[-0.008629972475747979,0.06611568624028578]","[1,1,1]","[0.18896123617361352,0.016364450282395592]","[-1,-1,-1]","[-0.02094163085213995,-0.12256919916107084]","[1,1,1]","[0.13823507564408208,0.13079537441702438]","[-1,-1,-1]","[0.025626873315480126,-0.09798404620435851]","[-1,-1,-1]","[0.17113230158768128,0.06745212135187097]","[-1,-1,-1]","[0.10369803543067699,-0.036883357867210066]","[-1,-1,-1]","[0.06635962264823346,0.18428253699856814]","[1,1,1]","[-0.11491404047921923,0.04721438800681221]","[1,1,1]","[-0.07534304440606834,-0.17946979044251293]","[1,1,1]","[0.10488054255311834,0.02387851066472722]","[1,1,1]","[-0.1325894844984317,-0.003911119610199819]","[1,1,1]","[0.02,0.02]",156.298,0,25,25,50,1,,,,,,,
,,,,,,,6665fdcffb9c8e828cd159cd,682f0fba76bbbf506fcebac3,2025-05-22_14h52.25.590,cuing_paradigm_dot,2024.1.5,Win32,144.9275362,682d573fa47f1360d1451895,,,,,,,,,,,156.2981,156.7981,,,157.048,157.5272,left,0.4671,,,,,,,,,0.5,,,,,,156.7981,157.048,157.5272,"[0.10412731081527568,-0.13789502372182397]","[1,1,1]","[0.15437550182034615,0.10204835081773007]","[1,1,1]","[-0.15861750388955914,0.021190982027553807]","[1,1,1]","[0.19577780470529685,0.03713429735263751]","[1,1,1]","[-0.10905370086538084,-0.15725532737088035]","[-1,-1,-1]","[0.11287578321436548,-0.04657331815559743]","[-1,-1,-1]","[0.026179560227608492,0.023702349124136622]","[1,1,1]","[-0.0629691787762748,0.15987602091241077]","[-1,-1,-1]","[0.02258635470589137,-0.08403721583504088]","[-1,-1,-1]","[-0.016375820918277415,-0.1089360155315117]","[1,1,1]","[-0.049519510952081035,0.033393658132139396]","[1,1,1]","[-0.05311988018352032,0.12096215213781529]","[-1,-1,-1]","[-0.12143960074280666,0.15517052338695211]","[-1,-1,-1]","[0.06922636392286571,0.10373943529923844]","[-1,-1,-1]","[-0.01796816693961782,0.15138717840015328]","[1,1,1]","[-0.1097274914501804,-0.032626238563258095]","[1,1,1]","[-0.06710305782583022,-0.007805140531470356]","[-1,-1,-1]","[0.0016411716478042487,-0.024657555435274002]","[-1,-1,-1]","[0.02369646265645995,-0.14542393414835292]","[1,1,1]","[-0.01171424447846437,0.10984069105892494]","[1,1,1]","[-0.02353241273832926,-0.18577566730336986]","[1,1,1]","[0.11616470139393405,0.11438207199125898]","[1,1,1]","[-0.11142038921844111,0.08381621930004049]","[1,1,1]","[-0.08312006698406924,-0.0791230703094546]","[-1,-1,-1]","[0.07574985754942863,-0.005287804493746942]","[1,1,1]","[-0.10707716629817401,0.03298329543559394]","[-1,-1,-1]","[0.09549551443192861,0.16341674718910054]","[1,1,1]","[0.06277598474139887,-0.13017599267052454]","[-1,-1,-1]","[0.15522035695236092,-0.057233888673857855]","[-1,-1,-1]","[-0.07054791465136376,-0.18461034055250367]","[-1,-1,-1]","[0.14755515500946909,-0.12245341178255105]","[-1,-1,-1]","[-0.13155894388176792,-0.11862532506558264]","[-1,-1,-1]","[0.02,0.02]",158.6245,0,26,26,109,1,,,,,,,
,,,,,,,6665fdcffb9c8e828cd159cd,682f0fba76bbbf506fcebac3,2025-05-22_14h52.25.590,cuing_paradigm_dot,2024.1.5,Win32,144.9275362,682d573fa47f1360d1451895,,,,,,,,,,,158.6246,159.1245,,,159.3744,160.0271,left,0.6394,,,,,,,,,0.45,,,,,,159.1245,159.3744,160.0271,"[-0.12176722099118004,0.0935149497870314]","[1,1,1]","[-0.14566187920136084,-0.11005734641779256]","[1,1,1]","[0.10774301572083175,-0.16238071450723493]","[1,1,1]","[0.035813100071331296,0.08984006103300751]","[1,1,1]","[0.13054901857318635,0.14268490553029897]","[-1,-1,-1]","[0.10203756249161705,-0.02035791043001484]","[-1,-1,-1]","[-0.04777484177766394,-0.012934259703269873]","[-1,-1,-1]","[-0.07596453156425394,0.1195331324547062]","[-1,-1,-1]","[0.05257178176628271,-0.032402276570938054]","[-1,-1,-1]","[-0.12258762116822915,-0.06915266672760026]","[-1,-1,-1]","[-0.05472718311783405,0.08260019593343998]","[1,1,1]","[0.18224647977255048,-0.016244342983521808]","[-1,-1,-1]","[-0.023059634399335775,0.11240219781799946]","[1,1,1]","[-0.03511480032439082,-0.16622644994314323]","[-1,-1,-1]","[-0.06022313992548347,-0.0655667574499875]","[-1,-1,-1]","[0.011533705050767333,0.056102936958186085]","[-1,-1,-1]","[-0.18408213479802246,-0.005416173934614455]","[-1,-1,-1]","[-0.08713690076276746,-0.02940706663095227]","[-1,-1,-1]","[0.1424483109412632,-0.007808769117994553]","[1,1,1]","[0.08041036262467476,0.0359044515702766]","[1,1,1]","[0.11501428938141656,0.10212052686815351]","[1,1,1]","[0.026982583718169,0.14932743749676738]","[1,1,1]","[-0.03954818439438857,-0.11353714118821606]","[-1,-1,-1]","[0.11544128098562505,-0.0833482538006487]","[1,1,1]","[0.02893252853022714,-0.07888303872753626]","[1,1,1]","[0.16420652691591073,0.11225604126730895]","[1,1,1]","[-0.11905866874689322,0.14097861328591949]","[-1,-1,-1]","[-0.13414186375698747,-0.001960998008276314]","[-1,-1,-1]","[-0.07827241696886388,-0.17391515002297486]","[-1,-1,-1]","[-0.011834736974664318,0.020774010700690276]","[1,1,1]","[0.14140782047457987,-0.11799803951341964]","[-1,-1,-1]","[0.03626773230749198,0.19478726129570673]","[-1,-1,-1]","[0.02,0.02]",161.1243,0,27,27,73,1,,,,,,,
,,,,,,,6665fdcffb9c8e828cd159cd,682f0fba76bbbf506fcebac3,2025-05-22_14h52.25.590,cuing_paradigm_dot,2024.1.5,Win32,144.9275362,682d573fa47f1360d1451895,,,,,,,,,,,161.1244,161.6243,,,161.8743,162.2912,left,0.4032,,,,,,,,,0.6,,,,,,161.6243,161.8743,162.2912,"[-0.026568145547939924,-0.17936964459262036]","[1,1,1]","[-0.07531862996252243,-0.10451943838791108]","[1,1,1]","[0.05373995396506872,0.15244976655729037]","[-1,-1,-1]","[0.010324587589873358,-0.0040107785537344875]","[-1,-1,-1]","[0.04022984116690647,0.07092117862964292]","[1,1,1]","[-0.1860429410329036,-0.017672331228218496]","[1,1,1]","[0.1014261712993079,-0.1607336174186453]","[-1,-1,-1]","[0.02137688296796069,-0.06422598024268639]","[1,1,1]","[-0.032069185610837894,0.15481399372314636]","[1,1,1]","[-0.10707723526168986,-0.07370531250628828]","[-1,-1,-1]","[-0.07912557603123957,-0.17383937220473827]","[1,1,1]","[-0.06298540232059614,0.11538066107294702]","[1,1,1]","[0.079924541279496,-0.10581481199493509]","[1,1,1]","[0.1300325690173078,-0.03820187889959865]","[1,1,1]","[-0.04376117852248497,0.03694520827358721]","[1,1,1]","[0.18037461249805162,0.03257245279916621]","[-1,-1,-1]","[-0.07018214580911164,0.16798176212027152]","[1,1,1]","[-0.003102930187417035,0.058524219336275045]","[1,1,1]","[0.15908962905423057,0.07163908397088006]","[-1,-1,-1]","[0.0918405658979774,-0.051047582623826034]","[-1,-1,-1]","[-0.01654344453768986,-0.1222399767789882]","[1,1,1]","[-0.1787451163721153,-0.07848786495956865]","[1,1,1]","[-0.14609419671433402,-0.05516853515401808]","[-1,-1,-1]","[0.10140815337589869,0.016354177056249232]","[-1,-1,-1]","[0.10048497182426137,0.16781867522686997]","[-1,-1,-1]","[-0.03366232983288116,-0.040591094689223124]","[-1,-1,-1]","[0.04656594887480665,0.024261423925555935]","[1,1,1]","[-0.10612185585067362,0.006539515033861943]","[1,1,1]","[0.10327546665138508,0.11857759832712328]","[1,1,1]","[-0.17429547037075077,0.02094208205399234]","[1,1,1]","[0.17379961435504798,-0.07667780350450515]","[-1,-1,-1]","[-0.10477585820664152,0.13814350252488483]","[-1,-1,-1]","[0.02,0.02]",163.3882,0,28,28,172,1,,,,,,,
,,,,,,,6665fdcffb9c8e828cd159cd,682f0fba76bbbf506fcebac3,2025-05-22_14h52.25.590,cuing_paradigm_dot,2024.1.5,Win32,144.9275362,682d573fa47f1360d1451895,,,,,,,,,,,163.3883,163.888,,,164.1383,164.5341,right,0.3821,,,,,,,,,0.4,,,,,,163.888,164.1383,164.5341,"[-0.08432968642638569,0.0836432961709294]","[1,1,1]","[0.061988053814813766,0.17748653687299135]","[1,1,1]","[-0.021227972309316962,0.10839950044284975]","[1,1,1]","[0.014701291105970068,0.013144605014516635]","[-1,-1,-1]","[-0.04702487309259812,0.17085784735304121]","[-1,-1,-1]","[-0.12560012986699962,-0.020542112092132313]","[-1,-1,-1]","[-0.16403232921901123,0.06604931596577376]","[-1,-1,-1]","[0.02205149573129534,-0.05037708096070308]","[1,1,1]","[-0.04547846109444941,-0.030047423309408985]","[1,1,1]","[-0.09261752876165026,-0.048906206361955314]","[-1,-1,-1]","[0.14325918507254498,0.10227685317481137]","[1,1,1]","[-0.14284393486482136,0.11094161299212987]","[-1,-1,-1]","[0.07968783047858886,0.02793002492626752]","[-1,-1,-1]","[0.009956364990026766,-0.12478607910435206]","[-1,-1,-1]","[0.12856762905077423,-0.11026593543184687]","[-1,-1,-1]","[-0.1616256402250172,0.01597310913079296]","[1,1,1]","[0.08016595148950884,0.0833029009958969]","[-1,-1,-1]","[0.0980127336365952,0.14483673584501075]","[-1,-1,-1]","[0.12291281819326551,-0.001154076653170407]","[-1,-1,-1]","[0.002490383424966577,0.19814580037684643]","[1,1,1]","[0.12993157193672233,-0.05428399777359639]","[-1,-1,-1]","[-0.10882327912924296,0.15635763927558]","[-1,-1,-1]","[0.02002892274474497,0.09323488364558173]","[-1,-1,-1]","[0.06372937546172276,-0.1609366207424879]","[1,1,1]","[-0.06855432288526907,-0.1228001237948885]","[1,1,1]","[0.0826664193841603,-0.05884121986448076]","[-1,-1,-1]","[-0.06299470285863437,0.03206423326643325]","[-1,-1,-1]","[-0.18381806218277133,-0.05896050358198301]","[1,1,1]","[0.01847820665139229,-0.16733248965077346]","[1,1,1]","[0.028896402601256317,0.05119131126356528]","[1,1,1]","[-0.10379278081798049,-0.16149001241561048]","[-1,-1,-1]","[0.1833360472359106,-0.03440141109613258]","[-1,-1,-1]","[0.02,0.02]",165.6313,0,29,29,34,1,,,,,,,
,,,,,,,6665fdcffb9c8e828cd159cd,682f0fba76bbbf506fcebac3,2025-05-22_14h52.25.590,cuing_paradigm_dot,2024.1.5,Win32,144.9275362,682d573fa47f1360d1451895,,,,,,,,,,,165.6314,166.1312,,,166.3841,166.659,left,0.2653,,,,,,,,,0.9,,,,,,166.1312,166.3841,166.659,"[0.06472624209338791,0.09255241755857643]","[1,1,1]","[0.1264267583557551,-0.00401219429411334]","[1,1,1]","[0.06418401502987636,-0.05390277917236259]","[1,1,1]","[-0.05157658754317079,0.17376322912764444]","[-1,-1,-1]","[-0.15463380369893778,-0.04899329683879727]","[1,1,1]","[0.06483895442546438,-0.16045568661390366]","[1,1,1]","[0.02150162152303937,-0.10136398238052143]","[1,1,1]","[0.10240735175245706,0.05699331350440762]","[1,1,1]","[-0.1701698192277243,0.06880650851592712]","[1,1,1]","[-0.16264577750244422,-0.11359210016088238]","[-1,-1,-1]","[0.15487550968035727,-0.03940011599957592]","[1,1,1]","[-0.012213019547771485,-0.19484161869802172]","[1,1,1]","[-0.06749085383899374,-0.15443521639836083]","[1,1,1]","[0.09651430765084505,0.1732209627398507]","[-1,-1,-1]","[0.010880082878435273,0.059181980601589475]","[1,1,1]","[-0.09862398228795627,0.052658350058064185]","[1,1,1]","[-0.1258371578576342,0.11114605726886462]","[1,1,1]","[-0.10470038213511883,-0.13731100059453116]","[1,1,1]","[0.022373949963057,0.15492320641432378]","[1,1,1]","[0.032089756198599835,-0.003668217631009488]","[1,1,1]","[0.14082886339631367,0.1387450628400343]","[1,1,1]","[0.08201672879688378,-0.1037717676598169]","[1,1,1]","[-0.04487426480783206,0.06740755319283026]","[1,1,1]","[-0.10222074732297448,-0.0787476446869441]","[1,1,1]","[0.12423542485168199,-0.1426013874421994]","[1,1,1]","[0.17145220034231523,-0.08123838442292433]","[1,1,1]","[-0.02230951115860376,0.10140158413187213]","[1,1,1]","[0.08066070947337299,0.13090396090884995]","[1,1,1]","[0.19161153530022185,0.04978641416723903]","[1,1,1]","[-0.17896446018222115,0.007692824761351561]","[1,1,1]","[0.008333379972912908,-0.039579730274897494]","[1,1,1]","[-0.051693804335252315,-0.11081888642956667]","[1,1,1]","[0.02,0.02]",167.756,0,30,30,195,1,,,,,,,
,,,,,,,6665fdcffb9c8e828cd159cd,682f0fba76bbbf506fcebac3,2025-05-22_14h52.25.590,cuing_paradigm_dot,2024.1.5,Win32,144.9275362,682d573fa47f1360d1451895,,,,,,,,,,,167.7562,168.256,,,168.5061,168.8047,left,0.2848,,,,,,,,,0.9,,,,,,168.256,168.5061,168.8047,"[0.14977396837130125,-0.016102049978899385]","[1,1,1]","[0.18957207615088015,0.013183311915100169]","[1,1,1]","[-0.09627256366334773,-0.1526810181801744]","[1,1,1]","[-0.13576907806706723,-0.1362564299618573]","[1,1,1]","[-0.03890595833461249,0.013124671796627884]","[1,1,1]","[-0.007190345020717855,-0.028041023144624134]","[1,1,1]","[-0.04720992166219116,0.13178106286168267]","[1,1,1]","[0.05281842217894904,-0.1552703523138361]","[1,1,1]","[0.1646312512512415,-0.11264787957679379]","[1,1,1]","[0.005265047583263087,0.11868378911496079]","[1,1,1]","[0.02232133256039887,-0.11432569892132971]","[-1,-1,-1]","[0.057933092483953966,0.09716459583734338]","[1,1,1]","[0.10169121972927629,0.04932898713738662]","[1,1,1]","[-0.13530546608324093,-0.01954484461070818]","[1,1,1]","[-0.01662520786204205,-0.0932597765713947]","[1,1,1]","[0.0403963170298168,0.14596252619008432]","[1,1,1]","[-0.06097640021909739,-0.10459051427272963]","[-1,-1,-1]","[0.02557120628482087,-0.194941952454464]","[1,1,1]","[0.15977109743164922,-0.0655766781499353]","[-1,-1,-1]","[0.09824845121212372,-0.06485720496315378]","[1,1,1]","[-0.1812624360594646,0.013756087900223014]","[1,1,1]","[-0.1897232073049565,-0.03707003071023157]","[1,1,1]","[0.09621611381122365,-0.014348385308742823]","[1,1,1]","[-0.07504401866203932,-0.05037488838373017]","[1,1,1]","[0.004294382640123812,0.07088306667594223]","[1,1,1]","[0.07204963997456726,-0.11129535903102669]","[1,1,1]","[-0.11426571841821134,0.10506314859811725]","[1,1,1]","[0.021130135357874984,0.03225234606292596]","[1,1,1]","[-0.02917869207074725,0.09516433229337071]","[1,1,1]","[0.018964119462311906,0.19450028906995562]","[1,1,1]","[-0.03074363425900481,-0.1511680935464783]","[1,1,1]","[-0.10987420129787816,0.06228452028107014]","[1,1,1]","[0.02,0.02]",169.9018,0,31,31,182,1,,,,,,,
,,,,,,,6665fdcffb9c8e828cd159cd,682f0fba76bbbf506fcebac3,2025-05-22_14h52.25.590,cuing_paradigm_dot,2024.1.5,Win32,144.9275362,682d573fa47f1360d1451895,,,,,,,,,,,169.902,170.4018,,,170.6519,171.1934,left,0.5302,,,,,,,,,0.6,,,,,,170.4018,170.6519,171.1935,"[0.1735613851567862,0.09743327592885477]","[1,1,1]","[0.0027446485798218873,0.11384645518990699]","[1,1,1]","[-0.11865818639493084,-0.012588462584179132]","[1,1,1]","[0.05861159372698848,-0.04468837880785581]","[1,1,1]","[-0.18331535523795603,-0.07733171802887714]","[-1,-1,-1]","[0.16314334954588394,-0.09650393579413122]","[1,1,1]","[-0.1369186880387039,-0.1174909247933716]","[1,1,1]","[-0.005584784158969501,-0.06442831256175455]","[-1,-1,-1]","[-0.05225110458065339,-0.06244461426476411]","[1,1,1]","[0.10099572269021388,0.06756592676008598]","[-1,-1,-1]","[-0.16682589634612335,-0.028961673181210863]","[-1,-1,-1]","[-0.06418558955891722,0.03988289604751919]","[1,1,1]","[0.05889278892557422,-0.1041692650461932]","[-1,-1,-1]","[0.03137538544485227,0.15315206747261248]","[1,1,1]","[0.09659201551989405,-0.0848400237761513]","[-1,-1,-1]","[0.04453602096538011,0.03250602973714758]","[1,1,1]","[0.04205136735561562,-0.17189778545172932]","[-1,-1,-1]","[-0.18527858215876344,0.06395453611461724]","[-1,-1,-1]","[0.07962268603700559,0.001330706611452426]","[1,1,1]","[0.14934487102557487,-0.01699242384877313]","[1,1,1]","[-0.10084141883116945,-0.054496961181652766]","[1,1,1]","[-0.015188600577712425,-0.195895438715776]","[1,1,1]","[-0.03425316367913646,-0.11399130929402913]","[1,1,1]","[0.12344560029366423,0.10483629027930363]","[-1,-1,-1]","[-0.037289600551927614,0.10673035863001186]","[1,1,1]","[0.0024743562284953503,0.02732378665118398]","[1,1,1]","[0.1866857080064244,0.010139657211989733]","[-1,-1,-1]","[-0.01960774932726729,-0.015779944911677186]","[-1,-1,-1]","[-0.11646628479933754,0.04059245002219245]","[-1,-1,-1]","[-0.08327855659761349,0.09283290294845305]","[1,1,1]","[-0.05213899416647291,-0.1782832385484732]","[1,1,1]","[0.02269006712427823,-0.1345895434640274]","[-1,-1,-1]","[0.02,0.02]",172.2908,0,32,32,152,1,,,,,,,
,,,,,,,6665fdcffb9c8e828cd159cd,682f0fba76bbbf506fcebac3,2025-05-22_14h52.25.590,cuing_paradigm_dot,2024.1.5,Win32,144.9275362,682d573fa47f1360d1451895,,,,,,,,,,,172.291,172.7906,,,173.0407,173.5129,right,0.4593,,,,,,,,,0.45,,,,,,172.7906,173.0407,173.5129,"[-0.010366570001722692,-0.06916574963592932]","[-1,-1,-1]","[-0.12842356689661147,0.05609811067880782]","[-1,-1,-1]","[-0.05211754376200658,-0.10813344834325753]","[-1,-1,-1]","[-0.08688178037667692,-0.15230352118871257]","[-1,-1,-1]","[0.08758834651503153,-0.024314360015826195]","[1,1,1]","[-0.007621168299188744,0.027296716738989736]","[-1,-1,-1]","[0.14712336411068103,0.00023568568273966704]","[1,1,1]","[0.060693650588457514,-0.1617742219702256]","[1,1,1]","[-0.006420425083982314,0.132314545681986]","[1,1,1]","[-0.08085966265886031,0.17050884814859216]","[1,1,1]","[0.01607711020759896,-0.014934205252823766]","[1,1,1]","[-0.12912823999633163,-0.11751319839926613]","[1,1,1]","[-0.17424461012076511,-0.08640434057630714]","[-1,-1,-1]","[0.06786160686898056,0.08707461422154598]","[-1,-1,-1]","[0.16240019198357356,-0.09694762717467587]","[-1,-1,-1]","[-0.08242153277737795,0.059777480505677785]","[1,1,1]","[-0.17743245914962633,0.0797767342472215]","[-1,-1,-1]","[-0.13982037811561707,0.11728639717746371]","[-1,-1,-1]","[-0.1845608621852738,0.022555891191155385]","[-1,-1,-1]","[0.13082467548827797,0.13200755179751741]","[1,1,1]","[0.1564155398718875,0.06274730267321758]","[-1,-1,-1]","[-0.07972383688448505,-0.062115541031856764]","[1,1,1]","[-0.053078964374979776,0.024102517818488156]","[-1,-1,-1]","[0.03060192111757217,0.05159503105081563]","[1,1,1]","[-0.08295827631080953,-0.006809361069781951]","[-1,-1,-1]","[-0.12374444752266717,-0.04737995964773805]","[-1,-1,-1]","[0.038851467381721454,0.17173236367449726]","[-1,-1,-1]","[0.11509030667093734,-0.09473456671212321]","[1,1,1]","[0.10569498194649157,0.048382523506858385]","[-1,-1,-1]","[0.1665057746194682,-0.039793348962273496]","[1,1,1]","[0.19705919131448832,0.014817617861576175]","[-1,-1,-1]","[0.04660834343568302,0.01236540032908843]","[1,1,1]","[0.02,0.02]",174.61,0,33,33,79,1,,,,,,,
,,,,,,,6665fdcffb9c8e828cd159cd,682f0fba76bbbf506fcebac3,2025-05-22_14h52.25.590,cuing_paradigm_dot,2024.1.5,Win32,144.9275362,682d573fa47f1360d1451895,,,,,,,,,,,174.6101,175.1102,,,175.3601,175.7352,left,0.3632,,,,,,,,,0.55,,,,,,175.1102,175.3601,175.7352,"[-0.10903872610479949,0.16293425321358762]","[1,1,1]","[-0.11793551650322463,-0.137739590920241]","[1,1,1]","[0.09832833206661554,0.10899713564674345]","[1,1,1]","[0.16753314426022378,-0.031698158490029875]","[-1,-1,-1]","[-0.07029686796436828,0.07111838436245947]","[-1,-1,-1]","[-0.07686937698253658,-0.015335340985221583]","[1,1,1]","[-0.17949728121952524,0.05605170234140577]","[-1,-1,-1]","[0.023211688462140716,-0.05906724601756058]","[-1,-1,-1]","[0.12043810186962657,-0.042231627076025735]","[-1,-1,-1]","[0.1446900209266834,-0.1221112312143456]","[-1,-1,-1]","[-0.15687701727804698,0.12354843985969656]","[1,1,1]","[0.025487883890833368,0.17640232569171457]","[-1,-1,-1]","[0.15666948116810864,0.07514983686400646]","[-1,-1,-1]","[0.05451854170138454,0.06030609432887948]","[1,1,1]","[-0.021472507676544437,-0.10408739097581253]","[1,1,1]","[-0.06162284252398916,-0.09716334272685162]","[-1,-1,-1]","[-0.15116712811890057,0.011779103110727837]","[1,1,1]","[0.10038609319875327,0.1692462675457528]","[1,1,1]","[-0.15194321364723473,-0.0788137843458513]","[1,1,1]","[-0.027940558878889996,-0.036475345923989634]","[-1,-1,-1]","[0.0017864538158166921,0.07823808340090285]","[1,1,1]","[0.0559096489950534,-0.08456181452133227]","[1,1,1]","[-0.1901318830026416,-0.0017752401447660674]","[1,1,1]","[0.055245791788868584,-0.1726993347379892]","[-1,-1,-1]","[0.01440283037578769,-0.13299810631204778]","[-1,-1,-1]","[-0.11050050350375991,-0.08862881341606951]","[-1,-1,-1]","[0.014696805725196166,0.011078512776013842]","[1,1,1]","[-0.12804745041382792,0.07688738671691475]","[1,1,1]","[-0.018898957022145484,-0.17462565677111752]","[-1,-1,-1]","[-0.10739874125901697,0.02619633118761141]","[1,1,1]","[0.08136127891727933,0.020819170280152448]","[1,1,1]","[0.08300851488545999,-0.1158287985688852]","[1,1,1]","[0.02,0.02]",176.8324,0,34,34,140,1,,,,,,,
,,,,,,,6665fdcffb9c8e828cd159cd,682f0fba76bbbf506fcebac3,2025-05-22_14h52.25.590,cuing_paradigm_dot,2024.1.5,Win32,144.9275362,682d573fa47f1360d1451895,,,,,,,,,,,176.8325,177.3323,,,177.5853,178.0059,left,0.4113,,,,,,,,,0.5,,,,,,177.3323,177.5853,178.0059,"[0.026959178298019023,-0.1619273342950643]","[1,1,1]","[0.06193219217962292,0.13520044971372594]","[-1,-1,-1]","[-0.147304389907001,-0.014595355189573124]","[1,1,1]","[-0.19469145802511778,-0.043394488227559286]","[-1,-1,-1]","[0.03328141126356558,0.19526314099072317]","[1,1,1]","[-0.0003573662359743742,-0.09197700315600658]","[1,1,1]","[-0.08743911491517704,0.144693330544654]","[-1,-1,-1]","[0.12109825819146133,-0.14453222384850725]","[1,1,1]","[-0.04216214170643486,0.02879325206476691]","[-1,-1,-1]","[0.07260248872837606,0.007467690016295936]","[-1,-1,-1]","[-0.11328827635207057,0.11216936608268338]","[1,1,1]","[-0.08485382340266405,-0.12803108598983357]","[-1,-1,-1]","[-0.042785541034097804,0.1533064279210095]","[-1,-1,-1]","[0.13483189703198165,-0.07264927013215527]","[1,1,1]","[-0.07242662660815133,-0.0870691243161506]","[1,1,1]","[-0.017303618582058106,-0.0246125750471072]","[-1,-1,-1]","[-0.12394347441577423,-0.08733460886175197]","[-1,-1,-1]","[-0.013688964906613605,0.09810072213606584]","[1,1,1]","[0.06807383648814087,-0.18233322043636244]","[-1,-1,-1]","[0.02067428646439484,-0.002502715703400704]","[-1,-1,-1]","[-0.000041505551774565684,-0.1993492945556116]","[1,1,1]","[0.15244202977124025,-0.008699051278255024]","[1,1,1]","[-0.08526498719385917,-0.04443091687185793]","[1,1,1]","[0.14748136459750735,0.12873462459020918]","[1,1,1]","[0.10447710950949127,0.04853848845657071]","[-1,-1,-1]","[-0.053058506393326293,0.10766400708608807]","[1,1,1]","[0.08062591216785044,-0.06105283618327533]","[-1,-1,-1]","[-0.06838947676238068,0.06719752573067478]","[-1,-1,-1]","[-0.04266548254535734,-0.12855048536343602]","[1,1,1]","[-0.16051500486611767,0.07501411494711306]","[-1,-1,-1]","[-0.10043741602432887,0.021959654708315606]","[-1,-1,-1]","[0.19728351673533165,0.020003856871935826]","[1,1,1]","[0.02,0.02]",179.103,0,35,35,115,1,,,,,,,
,,,,,,,6665fdcffb9c8e828cd159cd,682f0fba76bbbf506fcebac3,2025-05-22_14h52.25.590,cuing_paradigm_dot,2024.1.5,Win32,144.9275362,682d573fa47f1360d1451895,,,,,,,,,,,179.1031,179.603,,,179.8532,180.2281,left,0.363,,,,,,,,,0.9,,,,,,179.603,179.8531,180.2281,"[0.13697613998679353,-0.07345042252795277]","[-1,-1,-1]","[-0.0957458764025114,0.05944317033184093]","[1,1,1]","[0.06568387095069482,-0.18119577948806212]","[-1,-1,-1]","[-0.03551830710082807,0.04481049248576719]","[1,1,1]","[-0.16459949998058915,0.0788072219519843]","[1,1,1]","[-0.11833520183625931,-0.11630204670293239]","[1,1,1]","[0.042950684873607294,0.15846549455279577]","[1,1,1]","[0.04991808950948036,-0.12931301360961728]","[1,1,1]","[0.1776530443442689,-0.08818683513720064]","[1,1,1]","[0.11697581251260328,0.021382790361579796]","[1,1,1]","[0.0008562532096695358,-0.10373848228027269]","[1,1,1]","[0.17378831997588967,-0.02065943957610128]","[1,1,1]","[-0.015673240860311178,-0.16443310149301765]","[1,1,1]","[0.022962977029487668,0.08352628932140221]","[1,1,1]","[-0.07557377390034273,-0.11956822663873698]","[1,1,1]","[0.14878300879619252,0.09438868293563335]","[1,1,1]","[0.07374652354014331,0.046819136599952384]","[1,1,1]","[0.18476963607801006,0.03364704911791927]","[1,1,1]","[-0.11121335859873711,0.008759402905054394]","[1,1,1]","[-0.0027547941130219903,0.18854698554372143]","[1,1,1]","[-0.17760607110688148,0.0004348789934318713]","[1,1,1]","[-0.07627783443743723,0.1594409668303729]","[1,1,1]","[0.10389472779356937,0.14716301251957273]","[1,1,1]","[-0.13051861649814836,0.10696811581058006]","[1,1,1]","[0.04452288758705275,-0.0836512802478968]","[1,1,1]","[-0.09375442541802927,-0.05197490120141069]","[-1,-1,-1]","[0.10455648692564393,-0.16528367528811366]","[1,1,1]","[-0.05240950025089484,0.12544236430280678]","[1,1,1]","[-0.16041098075809399,-0.05621338903570948]","[1,1,1]","[0.029815006494593156,0.02208285162145314]","[1,1,1]","[-0.05647815074968639,-0.15891061741500992]","[1,1,1]","[0.008905309953163399,-0.19827979089753905]","[1,1,1]","[0.02,0.02]",181.3253,0,36,36,192,1,,,,,,,
,,,,,,,6665fdcffb9c8e828cd159cd,682f0fba76bbbf506fcebac3,2025-05-22_14h52.25.590,cuing_paradigm_dot,2024.1.5,Win32,144.9275362,682d573fa47f1360d1451895,,,,,,,,,,,181.3254,181.8253,,,182.0782,182.4156,right,0.3295,,,,,,,,,0.45,,,,,,181.8253,182.0782,182.4157,"[-0.09412293586121175,0.05553554531350363]","[-1,-1,-1]","[-0.163841798332617,-0.007862214872681284]","[-1,-1,-1]","[0.0755061592644119,-0.10629630778139197]","[-1,-1,-1]","[-0.006623528227986488,0.06682924859190173]","[-1,-1,-1]","[-0.04653549966453247,-0.09454186247255933]","[-1,-1,-1]","[0.03288516611930387,0.14045712527360185]","[-1,-1,-1]","[-0.14763464096486678,-0.12146354149433562]","[-1,-1,-1]","[0.1352281722016559,0.08860068981680179]","[1,1,1]","[0.07670386404078845,0.09463398690703445]","[1,1,1]","[0.027885606316826968,0.0016907188222576427]","[1,1,1]","[-0.11958153390175076,-0.09188267563521861]","[1,1,1]","[-0.044950474600655294,-0.18311018060752127]","[-1,-1,-1]","[0.05392475477658698,-0.030112534670052458]","[1,1,1]","[0.04219495575737637,-0.0776141186976575]","[1,1,1]","[-0.04736339041409608,0.09864019667904612]","[-1,-1,-1]","[-0.020971191665184342,0.013996438966372066]","[1,1,1]","[-0.013702743557520582,0.17125605166985122]","[-1,-1,-1]","[0.09609235112541543,-0.17460363168671864]","[1,1,1]","[0.19086017618498216,-0.005171656929777037]","[-1,-1,-1]","[-0.11863897068063588,-0.04409192168989447]","[-1,-1,-1]","[0.10620096828720237,-0.03080994366924979]","[-1,-1,-1]","[0.1071794861815084,0.0235722672177946]","[1,1,1]","[-0.12679964674258523,0.013642485385838416]","[-1,-1,-1]","[-0.016431058825575065,-0.029053584680287407]","[1,1,1]","[0.03477156874007356,0.05710361878472108]","[-1,-1,-1]","[0.05726375395038306,-0.1423170969988286]","[1,1,1]","[0.15977359993639847,0.02308247512472685]","[1,1,1]","[-0.06907953263732872,0.1536527705685808]","[1,1,1]","[-0.10860398320367715,-0.15970160874425163]","[1,1,1]","[0.17508969631236165,0.07529406237457166]","[-1,-1,-1]","[-0.12143712765548051,0.08533028658783705]","[-1,-1,-1]","[-0.1923535305945031,-0.043862236138036075]","[-1,-1,-1]","[0.02,0.02]",183.5126,0,37,37,86,1,,,,,,,
,,,,,,,6665fdcffb9c8e828cd159cd,682f0fba76bbbf506fcebac3,2025-05-22_14h52.25.590,cuing_paradigm_dot,2024.1.5,Win32,144.9275362,682d573fa47f1360d1451895,,,,,,,,,,,183.5128,184.0128,,,184.2626,184.61,left,0.3346,,,,,,,,,0.55,,,,,,184.0128,184.2626,184.61,"[-0.15078601420167348,0.021105383454607576]","[-1,-1,-1]","[0.14098103166112652,-0.12063221275842546]","[1,1,1]","[0.036785252087536656,0.009600679373903295]","[1,1,1]","[-0.1269322867321923,-0.019865893676581526]","[-1,-1,-1]","[-0.1667479285332357,0.06467394975857677]","[1,1,1]","[0.08586441678109603,0.07882238986050225]","[1,1,1]","[-0.09436936219388739,0.007594832682272082]","[-1,-1,-1]","[0.15286660472911315,-0.057699616653308465]","[-1,-1,-1]","[0.1774615002971553,-0.016718338574467976]","[1,1,1]","[-0.08186882209285493,-0.049117748382176585]","[-1,-1,-1]","[0.010455704133297125,-0.14214528471136922]","[1,1,1]","[0.14946044838476413,0.13067268082416855]","[1,1,1]","[0.04402661270731612,-0.05318609374767999]","[1,1,1]","[-0.030970660685695876,-0.1393188384927783]","[1,1,1]","[0.03183165409808282,0.11433320243672698]","[1,1,1]","[-0.030045136379172437,-0.026625555135679987]","[1,1,1]","[-0.040802247481779255,0.17244292773717887]","[1,1,1]","[0.0036362021271173486,-0.07209091201661963]","[1,1,1]","[-0.06276037808649075,0.0579886895816506]","[-1,-1,-1]","[-0.10854316564520422,-0.11729658778567832]","[1,1,1]","[0.06748306519061056,-0.17094281097289485]","[1,1,1]","[0.15926948363078083,0.08381129687648958]","[-1,-1,-1]","[0.09195963753762397,-0.13215797561686515]","[1,1,1]","[0.08731530964436512,-0.07451271623137892]","[-1,-1,-1]","[-0.19567242576851515,-0.020087414324865126]","[-1,-1,-1]","[0.030607142545466075,-0.19416100125231645]","[1,1,1]","[0.045845347994807585,0.18473482236765004]","[-1,-1,-1]","[0.08359465283872726,0.11959041489850977]","[-1,-1,-1]","[-0.0037188501774681596,0.1566692353543171]","[-1,-1,-1]","[0.10587111847019337,0.036956156423627914]","[1,1,1]","[-0.10279990043054725,0.1628177239419819]","[-1,-1,-1]","[-0.015561270130663189,0.04148696756085991]","[-1,-1,-1]","[0.02,0.02]",185.7072,0,38,38,144,1,,,,,,,
,,,,,,,6665fdcffb9c8e828cd159cd,682f0fba76bbbf506fcebac3,2025-05-22_14h52.25.590,cuing_paradigm_dot,2024.1.5,Win32,144.9275362,682d573fa47f1360d1451895,,,,,,,,,,,185.7073,186.2072,,,186.457,186.846,left,0.3781,,,,,,,,,0.55,,,,,,186.2072,186.457,186.846,"[0.06807043960443804,-0.015064969955514037]","[1,1,1]","[0.1443601242524316,-0.09467621025034031]","[-1,-1,-1]","[0.09547872073624333,-0.1538950763431359]","[1,1,1]","[-0.12524239880574553,0.1259839396063598]","[-1,-1,-1]","[-0.07661290236356084,0.02143689920191814]","[1,1,1]","[0.03458836514719218,0.15686823560514324]","[1,1,1]","[0.13929048710058395,0.06692696839445948]","[-1,-1,-1]","[0.025131539858960265,-0.012164520400727453]","[-1,-1,-1]","[0.009500173565798076,-0.14108729696045014]","[-1,-1,-1]","[-0.18567857758056014,0.026356162835927427]","[-1,-1,-1]","[0.1617166596609988,-0.04346240438467897]","[1,1,1]","[-0.04247853018654847,-0.13574765540366834]","[-1,-1,-1]","[-0.14165890856657995,-0.11195185525388565]","[-1,-1,-1]","[-0.012311796264646943,-0.07037183911272676]","[1,1,1]","[0.062197545479557394,0.04442995663269105]","[1,1,1]","[-0.12423391617942123,0.014376614248049587]","[1,1,1]","[-0.02094595939035515,0.11490795595543694]","[-1,-1,-1]","[0.06035734365882971,-0.18070272924866732]","[1,1,1]","[0.09823880455288214,-0.07471899147422775]","[-1,-1,-1]","[0.08423653113191194,0.1548561172273953]","[1,1,1]","[-0.014211716195201679,-0.02568767960450747]","[1,1,1]","[-0.15776373926384862,-0.04865487051546184]","[-1,-1,-1]","[0.031055175610441865,0.08904878601452976]","[1,1,1]","[-0.1320282460649604,0.05537039995736918]","[1,1,1]","[-0.02072852655971761,-0.1968691538359699]","[-1,-1,-1]","[-0.015600839826250273,0.06715923523291334]","[-1,-1,-1]","[-0.08770504899984555,-0.12306458232633506]","[1,1,1]","[-0.06863005632454891,0.1168420220716767]","[-1,-1,-1]","[0.12485325441189078,0.12285158329566019]","[1,1,1]","[0.09458367302399222,0.08666964482062813]","[1,1,1]","[-0.027529335322342266,0.02831791779425389]","[1,1,1]","[-0.017140550099199653,0.1642284603133042]","[1,1,1]","[0.02,0.02]",187.9432,0,39,39,135,1,,,,,,,
,,,,,,,6665fdcffb9c8e828cd159cd,682f0fba76bbbf506fcebac3,2025-05-22_14h52.25.590,cuing_paradigm_dot,2024.1.5,Win32,144.9275362,682d573fa47f1360d1451895,,,,,,,,,,,187.9433,188.4432,,,188.6932,189.0542,right,0.3467,,,,,,,,,0.4,,,,,,188.4432,188.6932,189.0542,"[-0.06458033512298811,-0.10537202686494854]","[-1,-1,-1]","[0.06535287229452405,-0.07376547377185734]","[-1,-1,-1]","[0.06745936952414942,-0.16049689887961477]","[1,1,1]","[-0.03138034484425327,0.18123917076838422]","[-1,-1,-1]","[-0.12368988936602693,0.03761670900606556]","[1,1,1]","[-0.06440853784899432,-0.0047806443614845815]","[-1,-1,-1]","[0.09566695311445281,0.1285111343067074]","[-1,-1,-1]","[0.03161123058517676,-0.05151529184475708]","[1,1,1]","[-0.0887101176010229,0.13359469200136348]","[-1,-1,-1]","[0.0014301489948802695,0.04148034915648243]","[-1,-1,-1]","[-0.19351094311538586,-0.007225236890660638]","[1,1,1]","[0.045983658482838564,0.06680362008122245]","[1,1,1]","[-0.14662287940809518,0.07303714210619322]","[1,1,1]","[-0.030832474419985427,0.1124832457006562]","[1,1,1]","[0.03051952339194412,0.18678249751419093]","[1,1,1]","[-0.027087784650970774,-0.04697461958724904]","[1,1,1]","[-0.010053543882144605,-0.09931042448785346]","[-1,-1,-1]","[0.055703733039557446,0.1361183722342082]","[1,1,1]","[0.10662542100299914,-0.08211498442939166]","[-1,-1,-1]","[-0.1345563699773151,-0.10574098192181298]","[-1,-1,-1]","[0.0069561128709177975,0.09705860869205152]","[1,1,1]","[0.16951062265221198,-0.02679960387029154]","[-1,-1,-1]","[-0.04324474580280409,-0.1861456927356433]","[-1,-1,-1]","[-0.03343784942320687,0.07045142307202568]","[-1,-1,-1]","[0.09557969052763464,-0.13126128061912212]","[1,1,1]","[0.15047592647194089,0.08859733109206305]","[-1,-1,-1]","[0.03658595313689525,0.020701218110220736]","[-1,-1,-1]","[-0.025761325694522507,-0.14356723228292945]","[-1,-1,-1]","[0.13174688249543845,0.016354068119173056]","[-1,-1,-1]","[0.098320732313754,-0.009813067159627757]","[1,1,1]","[-0.08727014092202338,-0.06974441618952266]","[-1,-1,-1]","[0.15785317932513504,-0.11534104523474238]","[-1,-1,-1]","[0.02,0.02]",190.1513,0,40,40,54,1,,,,,,,
,,,,,,,6665fdcffb9c8e828cd159cd,682f0fba76bbbf506fcebac3,2025-05-22_14h52.25.590,cuing_paradigm_dot,2024.1.5,Win32,144.9275362,682d573fa47f1360d1451895,,,,,,,,,,,190.1514,190.6513,,,190.9015,191.2487,left,0.3347,,,,,,,,,0.6,,,,,,190.6513,190.9015,191.2487,"[-0.10846822505122626,-0.10170964895628354]","[1,1,1]","[0.13028691982563081,-0.035778235750694]","[-1,-1,-1]","[-0.03775047056812812,-0.09658951197836774]","[-1,-1,-1]","[-0.07540971159628115,-0.035299811940915145]","[-1,-1,-1]","[-0.1594102870975886,0.10656427580784351]","[-1,-1,-1]","[-0.08657684577220864,-0.16846749849441175]","[1,1,1]","[0.13320766355808406,0.014717393442068898]","[1,1,1]","[0.13313361555977107,0.11168565514841224]","[1,1,1]","[-0.14196005012245486,-0.0062876943751052905]","[-1,-1,-1]","[-0.022741782503736978,0.1733023099463635]","[1,1,1]","[0.031843556001085134,0.08108483091823455]","[-1,-1,-1]","[0.010593933848393477,-0.03675667594708953]","[1,1,1]","[0.04408244262455865,0.1253565539224478]","[1,1,1]","[0.056153959790194226,0.0005951370305978477]","[-1,-1,-1]","[-0.03493074683495804,-0.0031791510036791697]","[1,1,1]","[-0.08473402375699927,0.15029634458310145]","[-1,-1,-1]","[0.09833512759166954,-0.1648593821859112]","[1,1,1]","[-0.15233496271440322,-0.10426771392140956]","[-1,-1,-1]","[0.18852170312615987,0.018328959804483597]","[-1,-1,-1]","[0.009463256411945356,-0.13785015844043513]","[1,1,1]","[-0.19777637531175746,-0.011294110559316067]","[1,1,1]","[-0.10626994364380292,0.06824945618762983]","[1,1,1]","[0.048657051938680376,0.18323328023173724]","[-1,-1,-1]","[0.17550791537817187,0.0807679720487891]","[1,1,1]","[0.039612802232258465,-0.16956292414134044]","[1,1,1]","[-0.13711652200323218,0.03718956702646678]","[1,1,1]","[0.11284683455455218,0.0665190407838003]","[-1,-1,-1]","[-0.0804575465443886,0.011527148453924161]","[1,1,1]","[0.0778404443373194,-0.09975259733325735]","[-1,-1,-1]","[0.05033019972418706,-0.06763398138221592]","[1,1,1]","[-0.0372768539411782,0.1347360475415613]","[1,1,1]","[0.18932320580089632,-0.031429245398904085]","[1,1,1]","[0.02,0.02]",192.3459,0,41,41,170,1,,,,,,,
,,,,,,,6665fdcffb9c8e828cd159cd,682f0fba76bbbf506fcebac3,2025-05-22_14h52.25.590,cuing_paradigm_dot,2024.1.5,Win32,144.9275362,682d573fa47f1360d1451895,,,,,,,,,,,192.346,192.8458,,,193.0958,193.7346,left,0.6253,,,,,,,,,0.4,,,,,,192.8458,193.0958,193.7347,"[0.007688983783688309,-0.18698732975430424]","[1,1,1]","[-0.08879468850785238,0.09878286935100947]","[-1,-1,-1]","[0.008661339135465533,0.09304533356127259]","[1,1,1]","[0.15620934431976113,0.05778947791904875]","[-1,-1,-1]","[0.07378830434622423,-0.09353800213096507]","[-1,-1,-1]","[-0.02430835113605079,-0.04609730362412132]","[-1,-1,-1]","[0.06017376376868971,-0.04066357768665049]","[-1,-1,-1]","[-0.09607858175065333,-0.013797428554354348]","[-1,-1,-1]","[-0.012682372921907457,0.1789825720770563]","[-1,-1,-1]","[0.05305012656903811,0.1072939804473226]","[1,1,1]","[-0.04769553814673362,-0.15399101827874764]","[1,1,1]","[-0.10787962453282476,0.15475651248100195]","[1,1,1]","[0.11512973498375043,0.019876366411255553]","[1,1,1]","[-0.09831271395156425,-0.06632415746695931]","[1,1,1]","[0.1005525031197208,-0.03618159883546689]","[-1,-1,-1]","[0.14669791983053201,-0.10677634358596069]","[-1,-1,-1]","[0.027187275561771213,0.15851746474350967]","[1,1,1]","[-0.039667772255133724,0.0597499771831647]","[-1,-1,-1]","[0.036562383084047446,-0.1590372723996936]","[-1,-1,-1]","[0.08338029037332383,0.1451982032726301]","[1,1,1]","[-0.0740477681734196,0.032904082364082245]","[-1,-1,-1]","[-0.14552043344356091,0.041605975292463425]","[-1,-1,-1]","[0.13531852756351712,0.0978381017393926]","[-1,-1,-1]","[0.16452585835679354,-0.028158218111006137]","[1,1,1]","[0.07430573232621156,0.011105023484347542]","[-1,-1,-1]","[-0.09014849950223042,-0.14462233248281411]","[-1,-1,-1]","[-0.18707269347162178,-0.04983786245298992]","[1,1,1]","[0.09560465764892445,-0.13452899231151824]","[1,1,1]","[-0.1369859627877176,-0.14231248110066527]","[-1,-1,-1]","[-0.06079030388484084,-0.11182295963331353]","[-1,-1,-1]","[0.020518985440410413,-0.060811868997044986]","[1,1,1]","[0.08941684046006503,0.08523006234377759]","[-1,-1,-1]","[0.02,0.02]",194.8317,0,42,42,38,1,,,,,,,
,,,,,,,6665fdcffb9c8e828cd159cd,682f0fba76bbbf506fcebac3,2025-05-22_14h52.25.590,cuing_paradigm_dot,2024.1.5,Win32,144.9275362,682d573fa47f1360d1451895,,,,,,,,,,,194.832,195.3319,,,195.5819,196.0542,left,0.4625,,,,,,,,,0.5,,,,,,195.3319,195.5819,196.0542,"[0.02868565193667105,-0.016210155220768175]","[1,1,1]","[0.053805320221699676,0.18259104714290803]","[1,1,1]","[0.11526844068046772,-0.01427515765675979]","[-1,-1,-1]","[0.014384442780622729,0.08828859528301518]","[-1,-1,-1]","[0.06568199942524819,-0.16783190702092454]","[-1,-1,-1]","[-0.19366849689194535,-0.012809148608685993]","[-1,-1,-1]","[-0.01977529020443512,-0.12907499335468367]","[-1,-1,-1]","[0.006870043025433145,0.03182992999530295]","[-1,-1,-1]","[-0.15405440440405743,-0.030961827235389636]","[-1,-1,-1]","[0.15990104821070494,-0.0737115553900274]","[1,1,1]","[-0.08316773934379898,-0.14142427332764124]","[-1,-1,-1]","[0.15965761777865087,0.01997487130825413]","[-1,-1,-1]","[0.007269310567718283,0.15130850744709406]","[-1,-1,-1]","[-0.09169546016999518,0.08988652792306698]","[-1,-1,-1]","[0.07862529502258048,0.07084253038631431]","[-1,-1,-1]","[-0.08444641789131231,-0.004788530917038967]","[1,1,1]","[0.13746246551872202,0.14034288261230027]","[-1,-1,-1]","[-0.037198091347544544,-0.17922548768785831]","[1,1,1]","[-0.09257944856522642,-0.091235156479388]","[1,1,1]","[-0.04571435213579251,0.15580399164227302]","[1,1,1]","[0.061678646207940065,0.12514101545875764]","[1,1,1]","[0.024912913971828477,-0.10776542400736192]","[1,1,1]","[0.1077843395977594,-0.1303614819419324]","[1,1,1]","[-0.018795813535569875,-0.07663425028096092]","[1,1,1]","[-0.12819736566481058,0.011359848280846671]","[-1,-1,-1]","[-0.134376674303591,0.14175221197980056]","[1,1,1]","[-0.03324791991227319,0.024881942062017395]","[-1,-1,-1]","[-0.03466709807490494,0.1011717718328239]","[1,1,1]","[-0.15201524816289172,0.07976429668543598]","[1,1,1]","[-0.1559952391600504,-0.12372119243964731]","[1,1,1]","[0.1356432395266641,0.05340410652984002]","[1,1,1]","[0.07433742086487773,-0.05225419710235287]","[-1,-1,-1]","[0.02,0.02]",197.1513,0,43,43,90,1,,,,,,,
,,,,,,,6665fdcffb9c8e828cd159cd,682f0fba76bbbf506fcebac3,2025-05-22_14h52.25.590,cuing_paradigm_dot,2024.1.5,Win32,144.9275362,682d573fa47f1360d1451895,,,,,,,,,,,197.1514,197.6511,,,197.9014,198.2136,left,0.3009,,,,,,,,,0.9,,,,,,197.6511,197.9014,198.2136,"[-0.046793117611744504,-0.10612562516268233]","[1,1,1]","[0.05611784938067005,0.0234468249036707]","[1,1,1]","[-0.15780953778781553,-0.024861840961084285]","[1,1,1]","[-0.054570551341069175,0.1710248078037148]","[-1,-1,-1]","[0.028133142382216963,0.16951038112418815]","[1,1,1]","[0.16593395999470648,0.026111342947111652]","[1,1,1]","[0.17041987578965356,-0.10119966837902962]","[1,1,1]","[-0.11486728777494867,-0.052176663729344076]","[1,1,1]","[-0.06325960432833648,0.11898144555086972]","[1,1,1]","[-0.015435741090978184,-0.07808531326153122]","[1,1,1]","[-0.06590269317419473,0.06659867252483806]","[1,1,1]","[0.0996407018282167,0.014222798393579438]","[-1,-1,-1]","[-0.007260631060357833,-0.12894022325280513]","[1,1,1]","[-0.11915695282099939,-0.11281920828211021]","[1,1,1]","[0.12955960514561632,0.1523072371635891]","[1,1,1]","[-0.008653452326283053,0.00037157623693042085]","[1,1,1]","[0.08032866746958427,-0.040598236661534164]","[1,1,1]","[0.09807025581530662,-0.08684587045866624]","[1,1,1]","[0.04794816298570589,0.09793816722260755]","[1,1,1]","[-0.08311944980520976,-0.16062665135504273]","[1,1,1]","[0.0256725915397294,-0.07446530621361777]","[1,1,1]","[-0.026700730639798314,0.04316372702313481]","[1,1,1]","[0.03314410595061561,-0.15958084350543048]","[1,1,1]","[-0.13257057229112204,0.10705465152593116]","[1,1,1]","[-0.05627154421938797,-0.02122497349746048]","[1,1,1]","[0.13227313709867428,-0.010481440430533865]","[1,1,1]","[-0.1635857576839196,0.03854110836190967]","[1,1,1]","[0.07883877889901071,0.14053438792304845]","[1,1,1]","[-0.08455263992442562,-0.08511502666641624]","[1,1,1]","[0.009268292848896213,0.13088889795095993]","[-1,-1,-1]","[-0.024130192268751544,-0.19496168051841592]","[1,1,1]","[0.06143577404155205,-0.10688451319455879]","[1,1,1]","[0.02,0.02]",199.3108,0,44,44,188,1,,,,,,,
