right,left,explain.started,explain.stopped,key_resp_3.keys,key_resp_3.rt,key_resp_3.duration,participant,session,date,expName,psychopyVersion,OS,frameRate,study_id,explain_2.started,explain_2.stopped,key_resp_4.keys,key_resp_4.rt,key_resp_4.duration,explain_3.started,explain_3.stopped,key_resp_5.keys,key_resp_5.rt,key_resp_5.duration,fixation.started,fixation.stopped,practice.started,practice.stopped,response.started,response.stopped,key_resp.keys,key_resp.rt,key_resp.duration,feedback.started,feedback.stopped,trials_2.thisRepN,trials_2.thisTrialN,trials_2.thisN,trials_2.thisIndex,trials_2.ran,white_ratio,explain_4.started,explain_4.stopped,key_resp_6.keys,key_resp_6.rt,key_resp_6.duration,dotDisplay.started,dotDisplay.stopped,ITI.started,polygon_1.pos,polygon_1.color,polygon_2.pos,polygon_2.color,polygon_3.pos,polygon_3.color,polygon_4.pos,polygon_4.color,polygon_5.pos,polygon_5.color,polygon_6.pos,polygon_6.color,polygon_7.pos,polygon_7.color,polygon_8.pos,polygon_8.color,polygon_9.pos,polygon_9.color,polygon_10.pos,polygon_10.color,polygon_11.pos,polygon_11.color,polygon_12.pos,polygon_12.color,polygon_13.pos,polygon_13.color,polygon_14.pos,polygon_14.color,polygon_15.pos,polygon_15.color,polygon_16.pos,polygon_16.color,polygon_17.pos,polygon_17.color,polygon_18.pos,polygon_18.color,polygon_19.pos,polygon_19.color,polygon_20.pos,polygon_20.color,polygon_21.pos,polygon_21.color,polygon_22.pos,polygon_22.color,polygon_23.pos,polygon_23.color,polygon_24.pos,polygon_24.color,polygon_25.pos,polygon_25.color,polygon_26.pos,polygon_26.color,polygon_27.pos,polygon_27.color,polygon_28.pos,polygon_28.color,polygon_29.pos,polygon_29.color,polygon_30.pos,polygon_30.color,polygon_31.pos,polygon_31.color,polygon_32.pos,polygon_32.color,dot_size,ITI.stopped,trials.thisRepN,trials.thisTrialN,trials.thisN,trials.thisIndex,trials.ran,break_2.started,break_2.stopped,trials_3.thisRepN,trials_3.thisTrialN,trials_3.thisN,trials_3.thisIndex,trials_3.ran
subject chose black,subject chose white,0.0003,17.6205,space,2.5712,,666d97ca3efe7fbd33436995,682f0fc200e284689ffa3e7b,2025-05-22_13h21.30.895,cuing_paradigm_dot,2024.1.5,Win32,29.94011976,682d573fa47f1360d1451895,,,,,,,,,,,,,,,,,,,,,,,,,,,,,,,,,,,,,,,,,,,,,,,,,,,,,,,,,,,,,,,,,,,,,,,,,,,,,,,,,,,,,,,,,,,,,,,,,,,,,,,,,,,,,,,,,
,,,,,,,666d97ca3efe7fbd33436995,682f0fc200e284689ffa3e7b,2025-05-22_13h21.30.895,cuing_paradigm_dot,2024.1.5,Win32,29.94011976,682d573fa47f1360d1451895,17.621,49.1199,space,1.4423,,,,,,,,,,,,,,,,,,,,,,,,,,,,,,,,,,,,,,,,,,,,,,,,,,,,,,,,,,,,,,,,,,,,,,,,,,,,,,,,,,,,,,,,,,,,,,,,,,,,,,,,,,,,,
,,,,,,,666d97ca3efe7fbd33436995,682f0fc200e284689ffa3e7b,2025-05-22_13h21.30.895,cuing_paradigm_dot,2024.1.5,Win32,29.94011976,682d573fa47f1360d1451895,,,,,,49.1204,55.3864,space,3.2333,,,,,,,,,,,,,,,,,,,,,,,,,,,,,,,,,,,,,,,,,,,,,,,,,,,,,,,,,,,,,,,,,,,,,,,,,,,,,,,,,,,,,,,,,,,,,,,,,,,,,,,,
,,,,,,,666d97ca3efe7fbd33436995,682f0fc200e284689ffa3e7b,2025-05-22_13h21.30.895,cuing_paradigm_dot,2024.1.5,Win32,29.94011976,682d573fa47f1360d1451895,,,,,,,,,,,55.426,55.9187,55.9197,56.1526,56.1529,57.1191,right,0.916,,57.1196,58.2182,0,0,0,1,1,0.2,,,,,,,,,,,,,,,,,,,,,,,,,,,,,,,,,,,,,,,,,,,,,,,,,,,,,,,,,,,,,,,,,,,,,,,,,,,,,,,,,,,,,,
,,,,,,,666d97ca3efe7fbd33436995,682f0fc200e284689ffa3e7b,2025-05-22_13h21.30.895,cuing_paradigm_dot,2024.1.5,Win32,29.94011976,682d573fa47f1360d1451895,,,,,,,,,,,58.2199,58.7173,58.7174,58.9529,58.9533,59.4847,left,0.5188,,59.4849,60.5839,0,1,1,0,1,0.8,,,,,,,,,,,,,,,,,,,,,,,,,,,,,,,,,,,,,,,,,,,,,,,,,,,,,,,,,,,,,,,,,,,,,,,,,,,,,,,,,,,,,,
,,,,,,,666d97ca3efe7fbd33436995,682f0fc200e284689ffa3e7b,2025-05-22_13h21.30.895,cuing_paradigm_dot,2024.1.5,Win32,29.94011976,682d573fa47f1360d1451895,,,,,,,,,,,,,,,,,,,,,,,,,,,,60.5843,68.685,space,5.0412,,,,,,,,,,,,,,,,,,,,,,,,,,,,,,,,,,,,,,,,,,,,,,,,,,,,,,,,,,,,,,,,,,,,,,,,,,,,,,,,,,
,,,,,,,666d97ca3efe7fbd33436995,682f0fc200e284689ffa3e7b,2025-05-22_13h21.30.895,cuing_paradigm_dot,2024.1.5,Win32,29.94011976,682d573fa47f1360d1451895,,,,,,,,,,,68.7177,69.2173,,,69.4517,70.5517,right,1.0745,,,,,,,,,0.1,,,,,,69.2183,69.4516,70.5527,"[0.12851375156944872,-0.025829003236337997]","[-1,-1,-1]","[-0.07882335237169133,0.014353112105344115]","[-1,-1,-1]","[-0.14496706958946284,-0.062420727723427376]","[-1,-1,-1]","[0.13116551511148425,0.0722598154849806]","[-1,-1,-1]","[-0.1642741218746499,0.01309390068543816]","[-1,-1,-1]","[-0.049346443859556756,-0.08642311690937769]","[-1,-1,-1]","[0.11033018653099982,-0.15673846045667486]","[-1,-1,-1]","[0.03090074412177926,-0.15059513332055213]","[-1,-1,-1]","[0.09498484173727943,0.04937586140719167]","[-1,-1,-1]","[0.08215078696656213,0.15323278214497416]","[-1,-1,-1]","[-0.12953777063897773,-0.11045656079484928]","[-1,-1,-1]","[0.03983356297708223,0.14617123001413995]","[1,1,1]","[0.18851506807371643,0.005946388941537183]","[-1,-1,-1]","[-0.019726636803232767,-0.00883928951550716]","[-1,-1,-1]","[0.0632937922128274,0.016355687875653273]","[-1,-1,-1]","[0.18152419627145652,-0.06620294925382829]","[-1,-1,-1]","[0.04340428183665683,0.07356803741345899]","[-1,-1,-1]","[-0.19366226908751855,-0.047240204733338766]","[-1,-1,-1]","[-0.17582405906272547,-0.08906177396624991]","[-1,-1,-1]","[-0.011462745330643705,0.18185064662409658]","[-1,-1,-1]","[-0.05792949952066424,-0.033320079830756105]","[-1,-1,-1]","[-0.06608462067456772,0.06520920060434915]","[-1,-1,-1]","[-0.0971916205223751,-0.06832835903787449]","[1,1,1]","[-0.1689110865574208,0.0846570767178039]","[-1,-1,-1]","[0.14046964632142517,0.13839667457645158]","[-1,-1,-1]","[-0.06854011924200588,-0.1493827540910605]","[-1,-1,-1]","[0.10082273112152758,-0.09988093277624048]","[-1,-1,-1]","[-0.03512379052098365,0.141884777855631]","[-1,-1,-1]","[-0.026174152141450226,-0.12318320129760442]","[-1,-1,-1]","[-0.11309765083984787,0.15372461547132196]","[-1,-1,-1]","[0.026871753492777314,-0.05459509174949655]","[-1,-1,-1]","[0.015089052988753902,0.0408151283368823]","[1,1,1]","[0.02,0.02]",71.6511,0,0,0,26,1,,,,,,,
,,,,,,,666d97ca3efe7fbd33436995,682f0fc200e284689ffa3e7b,2025-05-22_13h21.30.895,cuing_paradigm_dot,2024.1.5,Win32,29.94011976,682d573fa47f1360d1451895,,,,,,,,,,,71.6527,72.1501,,,72.3855,72.9169,right,0.4991,,,,,,,,,0.1,,,,,,72.1503,72.3855,72.9176,"[-0.14363823109271767,0.12504427986793787]","[-1,-1,-1]","[0.030865305682666523,-0.11552218525580625]","[-1,-1,-1]","[0.11406437373530899,0.06852415387575798]","[-1,-1,-1]","[0.08913941853226455,-0.005687483930879656]","[-1,-1,-1]","[0.1069589110318416,-0.1008435708105743]","[-1,-1,-1]","[-0.008669364197869301,0.037786636797974275]","[-1,-1,-1]","[-0.12236102550269308,-0.02854102416747648]","[1,1,1]","[-0.1790814989148054,-0.036494529337403006]","[-1,-1,-1]","[0.14077167201326238,-0.053595188707680964]","[-1,-1,-1]","[-0.09727411244186217,-0.13903085712974655]","[-1,-1,-1]","[0.17109839224909812,-0.10206187185522328]","[-1,-1,-1]","[-0.005776914567289847,-0.1455538943124175]","[-1,-1,-1]","[0.015335838698790544,0.07510074909220749]","[1,1,1]","[0.07096507355900421,0.04079845408122958]","[-1,-1,-1]","[0.04620980204039907,-0.019351871890789924]","[-1,-1,-1]","[-0.08925261460842791,-0.06874487679696945]","[-1,-1,-1]","[-0.0209662298613156,-0.07599845663466126]","[1,1,1]","[0.0720436277452145,-0.18200680665755034]","[-1,-1,-1]","[-0.16675991035058826,0.0892488802979596]","[-1,-1,-1]","[-0.06271006335790805,-0.18192371845311284]","[-1,-1,-1]","[0.15642226695977238,0.03230149520299606]","[-1,-1,-1]","[-0.14138754462657857,0.04879737728154866]","[-1,-1,-1]","[0.07488470927002627,0.0950033351449337]","[-1,-1,-1]","[-0.025378058904088927,-0.19642174391923797]","[-1,-1,-1]","[-0.04634817496058797,0.1461008503471347]","[-1,-1,-1]","[-0.0958396799467196,0.061740193697563624]","[-1,-1,-1]","[-0.01769723152330515,0.1853635553765536]","[-1,-1,-1]","[0.015524652610006,0.14660998665082425]","[-1,-1,-1]","[0.12937876377982857,0.12860140407075413]","[-1,-1,-1]","[0.06194516223002878,0.13796453085398588]","[-1,-1,-1]","[0.04546344816893296,-0.07492429427612299]","[-1,-1,-1]","[0.18033529772420198,-0.022371581521271278]","[-1,-1,-1]","[0.02,0.02]",74.0177,0,1,1,15,1,,,,,,,
,,,,,,,666d97ca3efe7fbd33436995,682f0fc200e284689ffa3e7b,2025-05-22_13h21.30.895,cuing_paradigm_dot,2024.1.5,Win32,29.94011976,682d573fa47f1360d1451895,,,,,,,,,,,74.0187,74.5171,,,74.7507,75.2831,right,0.5064,,,,,,,,,0.4,,,,,,74.5172,74.7506,75.2833,"[0.022896309749340062,0.008447337851171088]","[-1,-1,-1]","[-0.12652200229212465,-0.08832763017562408]","[-1,-1,-1]","[-0.023133338326225283,-0.06853488773074141]","[1,1,1]","[-0.10286597218528684,-0.04634520225848839]","[1,1,1]","[0.07153672039900011,0.1032695707930861]","[1,1,1]","[-0.04734793057740721,-0.16469585239776305]","[1,1,1]","[-0.05401934818679257,0.026024361996910432]","[-1,-1,-1]","[0.0902930677814181,-0.0069387661115743165]","[1,1,1]","[-0.1189856523340713,0.05296289418045918]","[1,1,1]","[0.12824663193626953,0.0494799746122113]","[-1,-1,-1]","[-0.03156546870351458,-0.11391816921781187]","[1,1,1]","[0.1189751251530907,-0.11183548298440373]","[-1,-1,-1]","[-0.03776209847248063,0.174974919660095]","[-1,-1,-1]","[-0.1887117704970819,0.002715078086709571]","[-1,-1,-1]","[-0.1098063387146752,-0.15331869102729465]","[1,1,1]","[0.15420589882950758,-0.07235048663899041]","[-1,-1,-1]","[0.01581285855010324,-0.10307247791839994]","[-1,-1,-1]","[0.04705501507345164,0.16172066317101283]","[-1,-1,-1]","[-0.08092938888575456,0.09055880460648866]","[-1,-1,-1]","[-0.054792405980255546,0.13408434600339997]","[1,1,1]","[-0.0023176968950880832,0.12758517130415725]","[-1,-1,-1]","[-0.06971804816930033,-0.07251446407043242]","[1,1,1]","[-0.19159636616737521,0.053874506133051]","[-1,-1,-1]","[0.006271956682443451,-0.17388405745564378]","[-1,-1,-1]","[0.19174205693099458,0.02456197083987838]","[-1,-1,-1]","[-0.1926905843484354,-0.038940890039224525]","[1,1,1]","[0.04409688670982475,0.05638228814913014]","[-1,-1,-1]","[0.07173265319646031,-0.17626893228562918]","[1,1,1]","[-0.055173539854615025,-0.020321219242651796]","[1,1,1]","[0.166128583392062,0.09797839102143525]","[-1,-1,-1]","[-0.14658490318411432,0.12809477276766668]","[-1,-1,-1]","[0.12108117617624731,0.11531903493243262]","[-1,-1,-1]","[0.02,0.02]",76.3836,0,2,2,48,1,,,,,,,
,,,,,,,666d97ca3efe7fbd33436995,682f0fc200e284689ffa3e7b,2025-05-22_13h21.30.895,cuing_paradigm_dot,2024.1.5,Win32,29.94011976,682d573fa47f1360d1451895,,,,,,,,,,,76.3855,76.885,,,77.1189,77.5179,left,0.3911,,,,,,,,,0.6,,,,,,76.885,77.1188,77.518,"[-0.008144431136553365,0.0009727036616519131]","[1,1,1]","[0.042708485028445806,0.050419751244281275]","[-1,-1,-1]","[0.048170749146831636,-0.14377990246815112]","[1,1,1]","[-0.15162775849204602,0.08164344364958782]","[-1,-1,-1]","[-0.0006267065670747596,-0.055126862431642054]","[1,1,1]","[-0.062405759814366614,-0.07247799655576802]","[-1,-1,-1]","[-0.06623189357107297,0.08534394318156853]","[1,1,1]","[0.04104300558422484,-0.024862712279065995]","[1,1,1]","[0.024645044227932338,0.10747176188063137]","[1,1,1]","[-0.04816517383806247,0.16088932953548948]","[-1,-1,-1]","[0.08215633062135587,0.010803486284720207]","[-1,-1,-1]","[-0.07034010778143081,0.0011551648412114822]","[1,1,1]","[0.1404821572807439,-0.01487760989744764]","[-1,-1,-1]","[-0.1139677653900525,0.059217193945930946]","[1,1,1]","[-0.06626711071235047,-0.18204403705913663]","[1,1,1]","[0.09046616632121596,-0.14966016779698998]","[1,1,1]","[0.12511177361989054,0.1150595763747636]","[-1,-1,-1]","[0.0016022215832202783,0.14947373612810375]","[1,1,1]","[-0.011428647534972787,0.04154679753910413]","[1,1,1]","[-0.008075182770994303,-0.1273646148000445]","[-1,-1,-1]","[0.08765650126842434,-0.07543569990570713]","[1,1,1]","[-0.12612105966037293,-0.13443403235903476]","[1,1,1]","[-0.06676782750025816,-0.11836123632083762]","[-1,-1,-1]","[-0.1833533466404508,-0.06962691524676136]","[-1,-1,-1]","[0.13670213186070443,-0.08841690863385056]","[1,1,1]","[-0.10907865308642435,0.1347105282041586]","[1,1,1]","[0.05978886260054522,-0.18865750928773178]","[-1,-1,-1]","[-0.19339909570800262,-0.015363982757064595]","[-1,-1,-1]","[-0.03671202313151244,-0.037229695998146184]","[-1,-1,-1]","[-0.13580495047989477,-0.07125256319081258]","[1,1,1]","[0.16457307489908937,0.0837389711015218]","[1,1,1]","[0.1263146769700199,0.03494760203676069]","[1,1,1]","[0.02,0.02]",78.6167,0,3,3,170,1,,,,,,,
,,,,,,,666d97ca3efe7fbd33436995,682f0fc200e284689ffa3e7b,2025-05-22_13h21.30.895,cuing_paradigm_dot,2024.1.5,Win32,29.94011976,682d573fa47f1360d1451895,,,,,,,,,,,78.6188,79.1167,,,79.3505,79.7164,left,0.3398,,,,,,,,,0.6,,,,,,79.1168,79.3504,79.7164,"[-0.11821399184827865,-0.032194554830844525]","[-1,-1,-1]","[-0.023826636947579943,0.160512331181296]","[1,1,1]","[-0.10430601919560803,-0.0704120698455507]","[-1,-1,-1]","[-0.0470887850420381,0.02085049859822473]","[-1,-1,-1]","[0.049541232766560396,0.15711917567039702]","[1,1,1]","[-0.08862841256308894,-0.15300034694815912]","[1,1,1]","[0.1466485481642612,-0.11218695573196906]","[1,1,1]","[-0.038891142859276015,-0.07724144605740953]","[1,1,1]","[0.01369870748631085,0.057499248050425306]","[1,1,1]","[0.11797250666441131,0.03639360824740866]","[-1,-1,-1]","[0.08784745986148558,-0.007853350865176034]","[1,1,1]","[0.0942436479618339,-0.052326212908288226]","[-1,-1,-1]","[0.1337903120236762,0.14653431675641274]","[-1,-1,-1]","[0.14033549390671532,-0.05992055536675632]","[-1,-1,-1]","[-0.05437541553332094,0.06265911496345015]","[-1,-1,-1]","[0.12660675047892436,0.09365811086744788]","[1,1,1]","[-0.08807673006156824,0.14278666857946815]","[-1,-1,-1]","[-0.036473210249351656,0.10105503782915203]","[1,1,1]","[-0.008979153742438219,-0.03355973923169028]","[-1,-1,-1]","[-0.15165132841354426,-0.11539113801374229]","[-1,-1,-1]","[0.12067035387323062,-0.1485426160950468]","[1,1,1]","[0.08690787053619774,-0.17811016081273476]","[1,1,1]","[0.045748050468979555,0.03231034781470013]","[1,1,1]","[-0.13523011292340867,0.10157284080029151]","[1,1,1]","[0.007383542127678787,0.10120631737080113]","[1,1,1]","[-0.16917784312963366,0.025812878848208338]","[1,1,1]","[0.01151572000662861,-0.1590658681217679]","[-1,-1,-1]","[-0.037657422299922465,-0.16666999795073914]","[-1,-1,-1]","[0.18425761930749152,-0.04408362365271306]","[1,1,1]","[0.041530607407465364,-0.06335413475882924]","[1,1,1]","[0.18094324196129755,0.06069541944119872]","[1,1,1]","[-0.1030712316845324,0.047357681471028715]","[1,1,1]","[0.02,0.02]",80.8173,0,4,4,153,1,,,,,,,
,,,,,,,666d97ca3efe7fbd33436995,682f0fc200e284689ffa3e7b,2025-05-22_13h21.30.895,cuing_paradigm_dot,2024.1.5,Win32,29.94011976,682d573fa47f1360d1451895,,,,,,,,,,,80.8197,81.3165,,,81.5525,82.0498,left,0.4798,,,,,,,,,0.55,,,,,,81.3166,81.5523,82.05,"[-0.1172843336723736,-0.027364728542600077]","[1,1,1]","[0.051544192678360905,-0.1272033919943974]","[1,1,1]","[-0.022890010153767567,0.12970433923049787]","[1,1,1]","[-0.1644055327366423,0.029178298674925333]","[-1,-1,-1]","[0.12123892283839582,0.022634758074837065]","[-1,-1,-1]","[0.03783941777439726,0.18093554080287122]","[-1,-1,-1]","[-0.028657343962400435,-0.01228037973631222]","[-1,-1,-1]","[-0.002638421153359112,0.05533838106984789]","[1,1,1]","[0.06684096140847075,-0.06580393422749184]","[1,1,1]","[-0.1622301522064372,-0.017862061017830798]","[1,1,1]","[0.01337788216239745,-0.07679624978651274]","[-1,-1,-1]","[-0.08700363057178949,-0.07623541493547685]","[1,1,1]","[0.11025237635923399,0.16143561722413616]","[-1,-1,-1]","[0.03981777174611552,0.026435716828445963]","[-1,-1,-1]","[-0.05302617738989297,0.17842595571970463]","[1,1,1]","[0.15012560305044576,0.12503087635267776]","[1,1,1]","[-0.10742225381705023,0.1055100967182635]","[1,1,1]","[0.17301288116473001,0.06326505576538202]","[-1,-1,-1]","[0.08586288520135654,-0.10294596882695366]","[-1,-1,-1]","[0.1453564111507046,-0.06348476260549403]","[-1,-1,-1]","[0.05917183145958167,0.11994965019879167]","[1,1,1]","[-0.1098612423907917,0.05218662181030466]","[1,1,1]","[-0.16544692265939107,0.07273214133856261]","[1,1,1]","[-0.1086412495218129,-0.16312481024958161]","[1,1,1]","[-0.08694492745148646,0.15696610055434726]","[-1,-1,-1]","[-0.01943336315868814,-0.10672264747537566]","[-1,-1,-1]","[0.18788373464031638,-0.04252260180145069]","[1,1,1]","[0.09433960452247461,0.09730639446861136]","[1,1,1]","[-0.1256939801133305,-0.10887473274425695]","[-1,-1,-1]","[0.03151821291446797,-0.1664590637534927]","[1,1,1]","[0.11783213663051537,-0.03204232793255501]","[1,1,1]","[0.007765104049094244,-0.03182991367788585]","[-1,-1,-1]","[0.02,0.02]",83.1498,0,5,5,120,1,,,,,,,
,,,,,,,666d97ca3efe7fbd33436995,682f0fc200e284689ffa3e7b,2025-05-22_13h21.30.895,cuing_paradigm_dot,2024.1.5,Win32,29.94011976,682d573fa47f1360d1451895,,,,,,,,,,,83.1517,83.6492,,,83.8836,84.183,left,0.2683,,,,,,,,,0.9,,,,,,83.6493,83.8836,84.1831,"[0.1760294177555372,-0.05230419819886986]","[-1,-1,-1]","[0.1067474851349642,0.046275534365676156]","[1,1,1]","[-0.14340902959164611,0.1280302386615075]","[1,1,1]","[0.0013257732122961036,0.18665931045737644]","[1,1,1]","[-0.034848685045010465,-0.039147491416835156]","[1,1,1]","[0.11543123862882732,-0.03564706597741364]","[1,1,1]","[0.19158019038573412,0.015756996140645574]","[1,1,1]","[0.03958031585069512,-0.0015449585313596712]","[1,1,1]","[0.005069924467243677,-0.1664648263296113]","[1,1,1]","[0.17583071760082017,0.08129094902008711]","[1,1,1]","[-0.14358234098848946,-0.012196125210484587]","[1,1,1]","[-0.06332289462633671,0.14343176540697872]","[1,1,1]","[-0.06979769813385846,-0.10486410708723488]","[1,1,1]","[-0.09117004005043462,-0.16004164643040475]","[-1,-1,-1]","[-0.04987959839854809,-0.169440512129669]","[1,1,1]","[0.039560703755760054,-0.10825494520190483]","[1,1,1]","[-0.020243600205760742,0.10116510345071839]","[1,1,1]","[0.0019191367978073138,0.029055723368793966]","[1,1,1]","[0.02464961598786633,-0.05218072692397677]","[1,1,1]","[-0.023210122342848114,-0.11998023964853201]","[1,1,1]","[0.10359377032264513,0.15623121436472437]","[1,1,1]","[0.10046731135843848,-0.1362344806819386]","[1,1,1]","[-0.11725657256190151,-0.05698823518090743]","[1,1,1]","[0.12204394326562822,0.11850745495658581]","[1,1,1]","[-0.12885692945673524,0.04401814941596627]","[1,1,1]","[0.09588683796754384,0.005806766121633613]","[1,1,1]","[0.049138529359421784,0.07033299825148795]","[1,1,1]","[-0.04056543657758909,0.05581818308562567]","[-1,-1,-1]","[-0.16254081542510113,-0.08502298404235403]","[1,1,1]","[-0.04509371129539236,0.014276115598207156]","[1,1,1]","[-0.08582399360536158,0.04365816119455883]","[1,1,1]","[0.14286878991860186,-0.1285247831099504]","[1,1,1]","[0.02,0.02]",85.2828,0,6,6,184,1,,,,,,,
,,,,,,,666d97ca3efe7fbd33436995,682f0fc200e284689ffa3e7b,2025-05-22_13h21.30.895,cuing_paradigm_dot,2024.1.5,Win32,29.94011976,682d573fa47f1360d1451895,,,,,,,,,,,85.2845,85.7826,,,86.0165,86.2499,left,0.2202,,,,,,,,,0.5,,,,,,85.7835,86.0164,86.25,"[-0.04235823565981125,0.10030378402081341]","[-1,-1,-1]","[0.10248774568656843,-0.05930604402313579]","[-1,-1,-1]","[-0.032084093997679614,-0.036514767262702016]","[1,1,1]","[-0.104656238006782,-0.14818490885115657]","[-1,-1,-1]","[-0.05354125888552358,0.061757218317788506]","[-1,-1,-1]","[0.041975419450727476,0.15074714224228258]","[1,1,1]","[-0.11887888835982878,0.07084152127600656]","[1,1,1]","[-0.13807840621982564,0.13217303825244162]","[1,1,1]","[0.012090421538124467,-0.10673678341815229]","[-1,-1,-1]","[-0.17343941635671992,0.07747424942464744]","[1,1,1]","[-0.0400742271727729,0.1940720800729838]","[-1,-1,-1]","[-0.09978229192227146,-0.05702386273450343]","[-1,-1,-1]","[-0.15391945616314728,0.033114953327740816]","[1,1,1]","[-0.040105589268637595,-0.12254163622365899]","[-1,-1,-1]","[-0.14446300462915201,-0.08313703525217014]","[1,1,1]","[0.031122717078025695,0.18972042412891782]","[1,1,1]","[0.004220767595421569,0.06459028074425176]","[-1,-1,-1]","[-0.023209587611291962,0.019267178957044766]","[1,1,1]","[0.08934406816728108,-0.15635959460390086]","[-1,-1,-1]","[0.03476330758859457,0.038237163281752765]","[1,1,1]","[0.007795667955054734,-0.04388306397539498]","[-1,-1,-1]","[0.011610277505718821,-0.0035956952396957705]","[1,1,1]","[0.1486932908930236,-0.09788892364981443]","[-1,-1,-1]","[0.09386715346067147,-0.019325774808572133]","[1,1,1]","[0.17403658094604535,0.04863094620575162]","[1,1,1]","[0.07624855036168555,0.04597875804897855]","[-1,-1,-1]","[-0.05983207155832626,-0.08628947383807768]","[-1,-1,-1]","[0.18373944355858068,-0.041368777231510244]","[1,1,1]","[0.10155978609890917,-0.10393349842601499]","[1,1,1]","[-0.13065480541612878,-0.02088194814309835]","[1,1,1]","[0.12418667989960123,0.15335736036230377]","[-1,-1,-1]","[0.06097949907416891,-0.12117418527111112]","[-1,-1,-1]","[0.02,0.02]",87.3495,0,7,7,100,1,,,,,,,
,,,,,,,666d97ca3efe7fbd33436995,682f0fc200e284689ffa3e7b,2025-05-22_13h21.30.895,cuing_paradigm_dot,2024.1.5,Win32,29.94011976,682d573fa47f1360d1451895,,,,,,,,,,,87.3509,87.8499,,,88.083,88.3831,right,0.2794,,,,,,,,,0.1,,,,,,87.8499,88.0829,88.3833,"[-0.05747669327907401,0.04649392002821874]","[1,1,1]","[0.020195644816889572,-0.09054815122683282]","[-1,-1,-1]","[0.12910818579162173,0.14546552250995007]","[-1,-1,-1]","[0.11329556326371397,-0.09157264691621768]","[-1,-1,-1]","[0.103019015216596,0.08866321590094935]","[-1,-1,-1]","[0.16916932678095606,-0.008705524697435537]","[-1,-1,-1]","[-0.15616306699717616,-0.09124107793355088]","[-1,-1,-1]","[0.06436836397611448,0.04829154967893784]","[-1,-1,-1]","[0.11852391868226313,0.026135181297375402]","[-1,-1,-1]","[-0.031707690182774015,-0.012739996482970884]","[-1,-1,-1]","[-0.028763641105805874,0.10461131077535572]","[1,1,1]","[0.026873873184829075,-0.14481455023699372]","[-1,-1,-1]","[0.15586091221183607,0.04351237607541516]","[-1,-1,-1]","[-0.19139540982653183,0.0416953142417025]","[-1,-1,-1]","[-0.04141341705380917,-0.16676751273495433]","[1,1,1]","[0.153212754180389,-0.10546900485744251]","[-1,-1,-1]","[-0.0960723845298827,-0.0973223867066955]","[-1,-1,-1]","[0.15447131854930654,-0.05508725475502317]","[-1,-1,-1]","[-0.038375980436335534,0.15424320253994228]","[-1,-1,-1]","[-0.11143405909880452,0.02785642198814446]","[-1,-1,-1]","[0.044825857805992096,-0.19326417413256555]","[-1,-1,-1]","[0.08554082339446593,0.0015840809535545887]","[-1,-1,-1]","[-0.05409855700178423,-0.05571578895424223]","[-1,-1,-1]","[-0.12643864557056364,0.15071713703132367]","[-1,-1,-1]","[-0.15822529187794368,0.06654294628734155]","[-1,-1,-1]","[-0.13153634361429828,-0.01761946640649828]","[-1,-1,-1]","[0.028132157049386628,0.14394467166164437]","[-1,-1,-1]","[-0.016495170784478173,0.19639472197088406]","[-1,-1,-1]","[-0.005791627007936766,0.04029496324267576]","[-1,-1,-1]","[-0.18026399150236042,-0.04187601644271394]","[-1,-1,-1]","[-0.08581266275387378,0.09720988683122629]","[-1,-1,-1]","[0.17297200532438575,0.08967270945512337]","[-1,-1,-1]","[0.02,0.02]",89.4829,0,8,8,19,1,,,,,,,
,,,,,,,666d97ca3efe7fbd33436995,682f0fc200e284689ffa3e7b,2025-05-22_13h21.30.895,cuing_paradigm_dot,2024.1.5,Win32,29.94011976,682d573fa47f1360d1451895,,,,,,,,,,,89.4838,89.9831,,,90.2165,90.649,left,0.3986,,,,,,,,,0.55,,,,,,89.9832,90.2164,90.6491,"[0.010712665844419681,-0.11639408922039667]","[-1,-1,-1]","[0.15427274819707293,0.0016663725800248159]","[1,1,1]","[-0.028145835138623697,-0.0061262243762781644]","[1,1,1]","[0.09150270346755335,0.1275090035970912]","[1,1,1]","[-0.05687831478941772,0.10921056658952145]","[-1,-1,-1]","[0.034894980298935487,-0.06044166299360267]","[1,1,1]","[0.07331683294236221,-0.01843203922902681]","[1,1,1]","[-0.118478173586314,-0.11773275758848772]","[1,1,1]","[-0.07408763012116283,0.041123550477768236]","[1,1,1]","[0.024165320240874297,0.16084720051426465]","[1,1,1]","[0.12465634583138253,-0.054106079766098235]","[-1,-1,-1]","[-0.1688254768033597,0.03681283085643242]","[1,1,1]","[-0.09787007425406707,-0.04469466010289409]","[1,1,1]","[-0.18922331824285246,-0.056452495083601444]","[1,1,1]","[-0.021271723152526862,0.08142950728281939]","[-1,-1,-1]","[-0.06977545640868708,-0.0019104069737789085]","[-1,-1,-1]","[0.1425620378255281,0.1389657766208114]","[-1,-1,-1]","[-0.029027666687214897,0.18946410939729091]","[-1,-1,-1]","[-0.029925351295790676,-0.10867147494731924]","[1,1,1]","[-0.11695048647854488,0.10987140073884377]","[-1,-1,-1]","[0.029189387055136427,0.08450249589133689]","[1,1,1]","[0.10470763937726749,0.05854559288530806]","[1,1,1]","[0.006820804389503328,-0.17188761562009283]","[1,1,1]","[-0.07335217564173405,-0.13275518373303336]","[-1,-1,-1]","[0.0981283537285185,-0.15260022305612708]","[-1,-1,-1]","[0.1396516037443816,-0.09223616586486566]","[1,1,1]","[-0.11164825432654843,0.010180471798934502]","[-1,-1,-1]","[0.18150285153988835,-0.043192890749511985]","[-1,-1,-1]","[-0.15530586065619187,0.08672151184425599]","[1,1,1]","[-0.04814347877314166,-0.1779494105276683]","[-1,-1,-1]","[-0.09801005546092026,0.1468293069422111]","[1,1,1]","[0.06738219522215223,-0.11557564251571172]","[-1,-1,-1]","[0.02,0.02]",91.75,0,9,9,143,1,,,,,,,
,,,,,,,666d97ca3efe7fbd33436995,682f0fc200e284689ffa3e7b,2025-05-22_13h21.30.895,cuing_paradigm_dot,2024.1.5,Win32,29.94011976,682d573fa47f1360d1451895,,,,,,,,,,,91.7506,92.2492,,,92.4844,92.8163,left,0.3006,,,,,,,,,0.6,,,,,,92.2493,92.4844,92.8165,"[0.10148908094515643,0.14087917602563182]","[-1,-1,-1]","[0.027643328862878222,-0.08851878354080203]","[1,1,1]","[-0.10925921196635395,-0.07409222127824701]","[1,1,1]","[0.07498925809565048,-0.06738700159482426]","[1,1,1]","[-0.07793891832775117,0.016164514929439478]","[-1,-1,-1]","[0.046829716636613304,0.0711670322155773]","[1,1,1]","[0.08127074304331659,-0.177703545685658]","[1,1,1]","[0.08861333977400435,0.07024128207605874]","[-1,-1,-1]","[-0.1384223026845387,0.005396407006708403]","[1,1,1]","[-0.05293309525684827,-0.01882024577390966]","[1,1,1]","[-0.019328198108017655,-0.1525115580503075]","[1,1,1]","[-0.17026284203965886,-0.046564404714902516]","[-1,-1,-1]","[-0.12210769889226251,0.09418985121548076]","[1,1,1]","[-0.03723403400470072,0.1617615684654497]","[-1,-1,-1]","[0.06385792592693634,-0.006232828019633006]","[1,1,1]","[-0.007277238332635668,0.10361908516656404]","[-1,-1,-1]","[-0.13861877350062746,-0.11533603765313763]","[-1,-1,-1]","[-0.04020633545532573,0.06704445629779672]","[1,1,1]","[0.16369175984167797,0.10781600200922051]","[-1,-1,-1]","[0.15775037245930293,-0.0054720908281250084]","[1,1,1]","[0.02941239443579187,0.16919903559083802]","[1,1,1]","[0.005820163566169764,0.051509789292261306]","[-1,-1,-1]","[0.09240739366500283,-0.13183319166026658]","[1,1,1]","[-0.0746997253518803,-0.12709175304336098]","[-1,-1,-1]","[0.11451074157762907,-0.04995662111698206]","[1,1,1]","[-0.12379173514629237,0.14675207680315824]","[1,1,1]","[0.04631413571424618,-0.12839267201271462]","[1,1,1]","[-0.03202095092779173,-0.1057407908216876]","[-1,-1,-1]","[0.1797546336927424,0.06107008930668933]","[-1,-1,-1]","[0.19172055836448104,-0.05232918634616527]","[1,1,1]","[-0.10375473469930971,-0.16849413446588188]","[1,1,1]","[-0.012810466838124765,0.006001762538642832]","[-1,-1,-1]","[0.02,0.02]",93.9158,0,10,10,155,1,,,,,,,
,,,,,,,666d97ca3efe7fbd33436995,682f0fc200e284689ffa3e7b,2025-05-22_13h21.30.895,cuing_paradigm_dot,2024.1.5,Win32,29.94011976,682d573fa47f1360d1451895,,,,,,,,,,,93.9171,94.4164,,,94.649,95.3485,left,0.6871,,,,,,,,,0.45,,,,,,94.4164,94.649,95.3485,"[-0.16654818926700754,0.08529615172392276]","[-1,-1,-1]","[0.144804968578413,-0.04844873844571375]","[1,1,1]","[-0.11082951738966407,0.04392427255674305]","[1,1,1]","[-0.022428894662401843,-0.1653471036741898]","[-1,-1,-1]","[0.12311067764346002,0.13755029521847242]","[-1,-1,-1]","[0.17238543337926307,-0.006436686412398478]","[1,1,1]","[-0.08866091957555325,-0.0011427703565501058]","[-1,-1,-1]","[-0.008708780938274024,-0.05340503375293876]","[1,1,1]","[-0.09598579341357619,-0.14535707974314171]","[-1,-1,-1]","[-0.08251138500548012,0.13469979619767883]","[-1,-1,-1]","[-0.04291618618226614,0.17801263670303805]","[-1,-1,-1]","[0.04304380465844404,0.07874033878203181]","[-1,-1,-1]","[-0.04101838279101222,-0.12126584570885503]","[-1,-1,-1]","[0.110105809140127,0.06653750403277163]","[1,1,1]","[0.01012247086801627,0.16890464251756881]","[1,1,1]","[0.045959924579409464,0.1404873748850388]","[-1,-1,-1]","[-0.1674841868922725,0.029788728686977222]","[1,1,1]","[-0.048755966624103975,0.07916400437223477]","[1,1,1]","[0.05202019191334849,-0.12486059601733569]","[-1,-1,-1]","[-0.004255090494730043,0.01511694734839369]","[1,1,1]","[0.01980371827228344,-0.17559185932545276]","[-1,-1,-1]","[0.06501091851564775,0.006833453585872392]","[1,1,1]","[0.03075078778453737,-0.08316425363789874]","[1,1,1]","[-0.182320198258453,-0.04009748787073311]","[1,1,1]","[0.13601273791705154,-0.09753405236860979]","[-1,-1,-1]","[-0.14408527302087681,-0.0775695506394036]","[-1,-1,-1]","[0.0938522519954237,-0.10767268863338361]","[1,1,1]","[0.1434384148358293,0.036289994066543235]","[-1,-1,-1]","[-0.09149406994668735,-0.09674868784262156]","[-1,-1,-1]","[0.1630578442873699,0.09810722815418564]","[-1,-1,-1]","[-0.010066853061429768,0.10212152788944893]","[-1,-1,-1]","[-0.047486896465776425,-0.03685466770114983]","[1,1,1]","[0.02,0.02]",96.4488,0,11,11,74,1,,,,,,,
,,,,,,,666d97ca3efe7fbd33436995,682f0fc200e284689ffa3e7b,2025-05-22_13h21.30.895,cuing_paradigm_dot,2024.1.5,Win32,29.94011976,682d573fa47f1360d1451895,,,,,,,,,,,96.4501,96.9491,,,97.1829,97.5824,right,0.3756,,,,,,,,,0.45,,,,,,96.9491,97.1828,97.5825,"[-0.09038638613491516,0.13928063335643925]","[-1,-1,-1]","[-0.040171409171098356,-0.07532277705443079]","[-1,-1,-1]","[0.16438377809982505,-0.09174812092268181]","[1,1,1]","[-0.02092776143812856,0.16279619703883838]","[1,1,1]","[0.016954134342104188,0.027336497996668548]","[1,1,1]","[0.0939399620086385,-0.08018764924390002]","[-1,-1,-1]","[0.09845837342501915,0.11273532195772638]","[1,1,1]","[-0.13730304499039048,0.11798079626943513]","[-1,-1,-1]","[-0.05603977997347958,0.050387267223173236]","[1,1,1]","[0.02811168032218636,0.19522705445943114]","[1,1,1]","[-0.1371789659210934,0.009561513049503045]","[-1,-1,-1]","[-0.16313391654677417,0.05593096328620399]","[1,1,1]","[-0.03717375341311862,0.00015222155963854543]","[-1,-1,-1]","[0.0402097971751608,-0.024273758493137298]","[1,1,1]","[-0.08025038326153053,-0.10248813881589547]","[1,1,1]","[-0.07302372018042327,0.0912554180751348]","[-1,-1,-1]","[0.1367824463046754,0.08075942272167852]","[-1,-1,-1]","[0.11951009287815918,0.0196017441077219]","[-1,-1,-1]","[0.14244498481594603,-0.04710641691439059]","[-1,-1,-1]","[0.05655857481505719,-0.1596633741564202]","[1,1,1]","[-0.06203704537959465,-0.1486623565245801]","[-1,-1,-1]","[0.08541698413192972,0.04279969810172073]","[-1,-1,-1]","[-0.024474266593961666,-0.11245528774290468]","[-1,-1,-1]","[-0.0937371372418657,0.01741892971374984]","[-1,-1,-1]","[0.11110233658437728,0.1621883495800058]","[1,1,1]","[0.08253358432491918,-0.03803466490105978]","[-1,-1,-1]","[0.035881337101156145,0.09081056984128542]","[-1,-1,-1]","[0.10096670886402989,-0.12570699968765736]","[-1,-1,-1]","[0.018528245886392333,-0.07571923213153195]","[-1,-1,-1]","[0.03203834605172245,0.135416751908663]","[1,1,1]","[0.18049436837344485,-0.00123201772200932]","[1,1,1]","[0.007091404805458022,-0.17925839702062957]","[1,1,1]","[0.02,0.02]",98.6817,0,12,12,69,1,,,,,,,
,,,,,,,666d97ca3efe7fbd33436995,682f0fc200e284689ffa3e7b,2025-05-22_13h21.30.895,cuing_paradigm_dot,2024.1.5,Win32,29.94011976,682d573fa47f1360d1451895,,,,,,,,,,,98.6828,99.1821,,,99.4174,100.0819,left,0.6533,,,,,,,,,0.6,,,,,,99.1822,99.4173,100.082,"[-0.017108137270841924,0.19669364881832804]","[-1,-1,-1]","[0.04787695338379924,0.14838878648246182]","[1,1,1]","[-0.1694613208866222,0.0837138143888513]","[1,1,1]","[-0.010008382688203813,0.0089191010002821]","[1,1,1]","[-0.07870423733362711,0.07862548312447487]","[-1,-1,-1]","[0.0027491435323435415,0.062457422182731474]","[-1,-1,-1]","[0.004535798128834136,-0.19249528108819802]","[1,1,1]","[-0.11080260511287017,0.0437799833235293]","[1,1,1]","[-0.10475854246538022,-0.04040465019024692]","[1,1,1]","[0.10814354565059016,-0.0029115377184248388]","[1,1,1]","[-0.05141422716227349,0.1418738309874661]","[1,1,1]","[0.13628911960376774,0.026382885528666633]","[1,1,1]","[-0.019132166408911116,-0.09610697708075003]","[1,1,1]","[0.05075427533399611,-0.03403917502628859]","[1,1,1]","[0.17620323651658645,-0.030181838324424132]","[1,1,1]","[-0.06669944565902712,-0.15752551296045497]","[-1,-1,-1]","[-0.09481487506127062,0.1757853468132381]","[1,1,1]","[-0.15398212425719354,0.041121531630879136]","[1,1,1]","[-0.08986507546764202,0.006787349718895097]","[1,1,1]","[0.09175308033117777,-0.09179951834600728]","[1,1,1]","[-0.03770788284185586,-0.19029098379178405]","[1,1,1]","[0.055691354342585465,0.08186664212796539]","[1,1,1]","[0.1328233636536978,-0.11604891068421389]","[-1,-1,-1]","[-0.16482035802589745,-0.06526416001885753]","[-1,-1,-1]","[0.05305253572458029,-0.14451453173896656]","[-1,-1,-1]","[0.009744006322214407,-0.04321541568518588]","[-1,-1,-1]","[0.05327576073452596,-0.18628249797533306]","[-1,-1,-1]","[-0.16884179613343914,-0.013757328316059237]","[-1,-1,-1]","[-0.10169049839740528,-0.11487308414815406]","[-1,-1,-1]","[-0.042674155951069014,-0.05933628550806002]","[-1,-1,-1]","[-0.12731121899191117,0.10020821099133981]","[1,1,1]","[0.12163730981886228,0.09121376477878229]","[-1,-1,-1]","[0.02,0.02]",101.1817,0,13,13,161,1,,,,,,,
,,,,,,,666d97ca3efe7fbd33436995,682f0fc200e284689ffa3e7b,2025-05-22_13h21.30.895,cuing_paradigm_dot,2024.1.5,Win32,29.94011976,682d573fa47f1360d1451895,,,,,,,,,,,101.1826,101.6822,,,101.9169,102.383,left,0.4543,,,,,,,,,0.5,,,,,,101.6823,101.9167,102.3831,"[-0.11245058902856701,-0.09214719936098913]","[-1,-1,-1]","[-0.02511260657001954,-0.1896408120464847]","[1,1,1]","[-0.06348447235803052,-0.016109240030242816]","[-1,-1,-1]","[0.01892728526703105,-0.03290883597959909]","[1,1,1]","[0.15154277954759687,-0.07496025183708449]","[-1,-1,-1]","[0.04937401640524678,-0.17319977214447094]","[-1,-1,-1]","[-0.12118971351453452,0.07705522366599578]","[-1,-1,-1]","[-0.1559124379358283,-0.032302589741855486]","[1,1,1]","[0.054127723034655406,-0.08880700819275855]","[1,1,1]","[-0.07104586498559622,0.10956712230875672]","[-1,-1,-1]","[-0.1838915432345202,0.07722888972094988]","[-1,-1,-1]","[0.029623380692256875,0.09538207026808435]","[-1,-1,-1]","[0.11325134881658,0.011279380299216688]","[-1,-1,-1]","[0.1762811948030086,0.05021944336293831]","[1,1,1]","[-0.0059139149648663545,0.02008411932353352]","[1,1,1]","[-0.00752790333510534,-0.07649012682938194]","[-1,-1,-1]","[0.16916797729809963,-0.002294050613810228]","[1,1,1]","[0.06937102695746543,-0.026553855152720917]","[1,1,1]","[-0.14174709625042842,0.12618812903410706]","[1,1,1]","[-0.01865326826905769,-0.122138944300671]","[1,1,1]","[-0.1613057503199656,0.010301955756211144]","[1,1,1]","[-0.07331286906872285,-0.11849537884348944]","[1,1,1]","[0.15196321394537474,0.12677813244623004]","[-1,-1,-1]","[-0.10430247361577025,0.015177445045677635]","[1,1,1]","[0.09894048803809447,0.08166950391664128]","[1,1,1]","[0.09969119757931505,0.1689026120076259]","[1,1,1]","[-0.013781349088188313,0.11236333210241813]","[-1,-1,-1]","[0.19370832702715182,-0.04959955152358046]","[-1,-1,-1]","[-0.016867587162050137,0.06660397826295954]","[-1,-1,-1]","[0.06718829884994525,0.038063699330038406]","[-1,-1,-1]","[-0.066097629873376,0.15798034042314335]","[-1,-1,-1]","[0.09768303565340958,0.12744709858793343]","[1,1,1]","[0.02,0.02]",103.4816,0,14,14,118,1,,,,,,,
,,,,,,,666d97ca3efe7fbd33436995,682f0fc200e284689ffa3e7b,2025-05-22_13h21.30.895,cuing_paradigm_dot,2024.1.5,Win32,29.94011976,682d573fa47f1360d1451895,,,,,,,,,,,103.4829,103.9827,,,104.2165,104.5827,right,0.3334,,,,,,,,,0.1,,,,,,103.9827,104.2164,104.5828,"[0.08964399438974523,-0.013688778766963457]","[-1,-1,-1]","[-0.030254695783083735,-0.13159924547622698]","[-1,-1,-1]","[0.12334801250075801,0.08923509793208816]","[-1,-1,-1]","[0.19246705237408027,0.020620213564870423]","[-1,-1,-1]","[0.005383625646948247,0.07557857331958552]","[1,1,1]","[0.043673386887619695,-0.13184982587163419]","[-1,-1,-1]","[0.00042972732582576917,-0.1918228739176455]","[-1,-1,-1]","[0.07788172633619309,-0.07903340213689257]","[-1,-1,-1]","[-0.19760954788542248,-0.020033545461704966]","[-1,-1,-1]","[0.16448209221956112,0.06759720401787488]","[-1,-1,-1]","[-0.13740770434181881,0.08382969823423052]","[1,1,1]","[0.028804712413912754,-0.055659853238864396]","[-1,-1,-1]","[0.023894524180641294,0.16071770650709924]","[-1,-1,-1]","[-0.11560910142854365,0.15427889686619128]","[-1,-1,-1]","[-0.0726583869917118,0.030526087800201808]","[-1,-1,-1]","[-0.03141706502527044,0.008319507862076183]","[-1,-1,-1]","[-0.10242014799820663,-0.06343715335292405]","[-1,-1,-1]","[-0.0789101285905664,0.1286687707762201]","[-1,-1,-1]","[-0.036784268707573314,0.1284685933492161]","[-1,-1,-1]","[-0.1136570820193877,0.010689604380457345]","[-1,-1,-1]","[0.13565249628511777,-0.130422601394302]","[-1,-1,-1]","[0.03446719923807388,0.11230233626445571]","[-1,-1,-1]","[0.0399689985523543,0.041536871769986314]","[-1,-1,-1]","[-0.036544472296729344,0.08402193358584747]","[-1,-1,-1]","[-0.056330546145127613,-0.07428270004369893]","[-1,-1,-1]","[0.0945474363422246,0.037706251811060874]","[-1,-1,-1]","[0.09972910278440206,0.1350603385022786]","[-1,-1,-1]","[0.14221846325127718,-0.04674829951894059]","[-1,-1,-1]","[0.026714100963829136,-0.005724905113804864]","[-1,-1,-1]","[-0.08476698619277007,-0.17343414195361112]","[-1,-1,-1]","[-0.0615239499927863,-0.0262433769824563]","[-1,-1,-1]","[-0.165373065375733,-0.09435073433812034]","[1,1,1]","[0.02,0.02]",105.6813,0,15,15,11,1,,,,,,,
,,,,,,,666d97ca3efe7fbd33436995,682f0fc200e284689ffa3e7b,2025-05-22_13h21.30.895,cuing_paradigm_dot,2024.1.5,Win32,29.94011976,682d573fa47f1360d1451895,,,,,,,,,,,105.682,106.1824,,,106.4154,106.8483,left,0.4011,,,,,,,,,0.6,,,,,,106.1824,106.4154,106.8484,"[0.18798260571363806,0.0256726291357966]","[1,1,1]","[0.15811079752492166,-0.012716869021806881]","[1,1,1]","[-0.11767692795721449,0.05330526928155037]","[-1,-1,-1]","[0.029765414040804114,0.06733862998294714]","[-1,-1,-1]","[-0.01929491933774793,0.10415071336565886]","[-1,-1,-1]","[-0.039081459353549744,-0.033972970843421026]","[1,1,1]","[0.1248278908930578,-0.08499182792160061]","[1,1,1]","[-0.07736019607695274,0.1510087305801129]","[1,1,1]","[-0.05497761951438249,0.07260786618147456]","[1,1,1]","[0.049752139174615795,-0.0988244796680421]","[1,1,1]","[0.02117972396943858,0.16342932291821033]","[1,1,1]","[0.12922950615446202,0.07119762304638014]","[1,1,1]","[0.06548638286550296,-0.015918857592110515]","[-1,-1,-1]","[0.0997619390110671,0.12492274803245032]","[-1,-1,-1]","[-0.15586216292105182,-0.05052443704777323]","[-1,-1,-1]","[-0.15684981273712167,0.012535035859942251]","[-1,-1,-1]","[-0.001478135147877757,-0.11913757282942376]","[1,1,1]","[-0.12929444184985048,0.13972347496157725]","[1,1,1]","[0.1408726600278358,-0.12628374679531026]","[-1,-1,-1]","[-0.12275514153329951,-0.13422575765820047]","[-1,-1,-1]","[-0.08726226316685691,-0.01444444202306661]","[1,1,1]","[-0.019896551627219643,0.04549487272724832]","[1,1,1]","[0.018447869407155176,-0.00701765982544951]","[1,1,1]","[-0.03502638405643486,0.16823454972294213]","[1,1,1]","[-0.08846364346212496,-0.08873746338195254]","[1,1,1]","[-0.0229068274391357,-0.19086730554211648]","[1,1,1]","[0.05902899982228172,-0.18979225604016844]","[-1,-1,-1]","[-0.04798636202419517,-0.09797161972211964]","[-1,-1,-1]","[0.03247353628594629,0.11976943730575064]","[-1,-1,-1]","[-0.19824650467675992,0.01014943191620218]","[1,1,1]","[0.08543714511811114,0.044518365207989394]","[-1,-1,-1]","[0.08283181312723818,-0.05238919583613991]","[1,1,1]","[0.02,0.02]",107.948,0,16,16,150,1,,,,,,,
,,,,,,,666d97ca3efe7fbd33436995,682f0fc200e284689ffa3e7b,2025-05-22_13h21.30.895,cuing_paradigm_dot,2024.1.5,Win32,29.94011976,682d573fa47f1360d1451895,,,,,,,,,,,107.9488,108.4483,,,108.6827,109.4484,left,0.7358,,,,,,,,,0.5,,,,,,108.4484,108.6827,109.4486,"[0.09468219422584447,0.07531415782006715]","[-1,-1,-1]","[-0.1148989883526772,-0.06778243568579131]","[-1,-1,-1]","[-0.09537017216888422,-0.14684916932444667]","[-1,-1,-1]","[0.05788528214121911,-0.1092837164516733]","[1,1,1]","[-0.05410453838010692,0.04242723764284126]","[1,1,1]","[-0.04237983377638064,-0.1752409722313842]","[1,1,1]","[-0.13678774969204624,0.005156719944112751]","[-1,-1,-1]","[-0.09041251685758074,-0.024059277258499837]","[1,1,1]","[0.0015446002279261087,0.028537220007783404]","[-1,-1,-1]","[0.15325540365159052,0.05879712437977404]","[1,1,1]","[-0.015756936968715652,0.14458727588959766]","[1,1,1]","[0.06295010431429005,-0.021787605130709396]","[-1,-1,-1]","[0.10293545814235287,-0.10957256149916704]","[-1,-1,-1]","[-0.07112587208915656,0.1667538469312497]","[1,1,1]","[-0.03460211565974781,-0.0661128745863331]","[-1,-1,-1]","[0.1288960557348676,0.13164503263458424]","[1,1,1]","[-0.07737353661333884,-0.10914629144367502]","[1,1,1]","[-0.17458193545825773,-0.02477174417375515]","[-1,-1,-1]","[-0.03827223074813799,-0.001107569231829844]","[-1,-1,-1]","[0.04045818292850706,-0.16169956577350897]","[-1,-1,-1]","[0.012709037570938598,-0.07796176176372527]","[1,1,1]","[0.01832695427150143,0.09463072749916425]","[1,1,1]","[0.0378833842701615,0.05524949654595838]","[-1,-1,-1]","[0.03576475936794872,0.14679158112411161]","[1,1,1]","[0.17476997690182733,-0.09670040521694429]","[-1,-1,-1]","[0.05978305918813689,0.18762688515516784]","[1,1,1]","[0.09799118000119264,-0.16005616433760872]","[-1,-1,-1]","[0.0037309734990513253,-0.02271026852920621]","[1,1,1]","[0.0038199676743447364,-0.13594781009265117]","[1,1,1]","[-0.12741574114665097,0.131734526206561]","[-1,-1,-1]","[-0.13774107885234088,0.07230878094143608]","[-1,-1,-1]","[-0.06248073499329353,0.10359967795638253]","[1,1,1]","[0.02,0.02]",110.549,0,17,17,105,1,,,,,,,
,,,,,,,666d97ca3efe7fbd33436995,682f0fc200e284689ffa3e7b,2025-05-22_13h21.30.895,cuing_paradigm_dot,2024.1.5,Win32,29.94011976,682d573fa47f1360d1451895,,,,,,,,,,,110.5499,111.0482,,,111.2824,111.7475,right,0.4451,,,,,,,,,0.1,,,,,,111.0483,111.2824,111.7475,"[0.09991619197439909,-0.15921248214539785]","[-1,-1,-1]","[0.15625411586317595,0.097208352330636]","[-1,-1,-1]","[0.11588985284586689,0.09273789094527694]","[-1,-1,-1]","[0.055324889176367895,0.089158643855836]","[-1,-1,-1]","[0.08026408104999777,-0.029799422010165035]","[-1,-1,-1]","[-0.1689661994121743,0.047745515226706045]","[-1,-1,-1]","[-0.029172199131117592,0.11359134025273182]","[-1,-1,-1]","[0.1530974473506571,-0.00025338601401977197]","[-1,-1,-1]","[0.14670625177696023,-0.08132457425102199]","[-1,-1,-1]","[-0.055400455379233424,-0.05648198006181575]","[-1,-1,-1]","[-0.15553735286664572,-0.017834985326418022]","[-1,-1,-1]","[-0.12087007697787165,0.08214987531106184]","[1,1,1]","[-0.06985359685824377,0.008683002986092921]","[-1,-1,-1]","[0.0796171251306791,-0.09029048590322838]","[-1,-1,-1]","[-0.09489281996582954,-0.03115873581233207]","[-1,-1,-1]","[0.02370996720082183,0.028774344716310695]","[-1,-1,-1]","[0.14380687831434683,0.04928674622480831]","[-1,-1,-1]","[-0.008457398468039432,-0.10847693334504901]","[-1,-1,-1]","[0.09077845884784679,0.13208570599189642]","[-1,-1,-1]","[-0.0428077006376695,-0.15553396118450233]","[-1,-1,-1]","[-0.06794786825549708,-0.09980551327115333]","[-1,-1,-1]","[-0.14708252646151052,0.1299209314012009]","[-1,-1,-1]","[-0.10290705687660655,-0.12581874176526192]","[-1,-1,-1]","[0.033630234870486386,-0.02573272006719481]","[1,1,1]","[0.06661263925101081,0.020192363412666142]","[-1,-1,-1]","[0.014970750340134514,-0.15631385175354087]","[-1,-1,-1]","[0.10847346865963423,-0.05871941807505874]","[1,1,1]","[-0.14553755100026822,-0.08619136783570615]","[-1,-1,-1]","[-0.11194720756555278,0.029564753737098794]","[-1,-1,-1]","[0.10725209795598674,0.007774351516714496]","[-1,-1,-1]","[-0.08281227102742936,-0.16478175144243234]","[-1,-1,-1]","[0.04809094405446001,0.1374234129611584]","[-1,-1,-1]","[0.02,0.02]",112.8481,0,18,18,10,1,,,,,,,
,,,,,,,666d97ca3efe7fbd33436995,682f0fc200e284689ffa3e7b,2025-05-22_13h21.30.895,cuing_paradigm_dot,2024.1.5,Win32,29.94011976,682d573fa47f1360d1451895,,,,,,,,,,,112.8494,113.3478,,,113.5818,113.9474,right,0.3528,,,,,,,,,0.1,,,,,,113.3479,113.5817,113.9475,"[-0.09912820221365772,-0.015248061697888693]","[-1,-1,-1]","[0.10925683881194878,-0.06586859485079385]","[-1,-1,-1]","[0.06067673876009065,0.10402491193253292]","[-1,-1,-1]","[-0.1326842236285571,-0.060371991166651026]","[-1,-1,-1]","[-0.13221231862237431,0.02992012194836276]","[1,1,1]","[0.008744998724477785,-0.033898891777468514]","[-1,-1,-1]","[0.016448183322479187,0.058208447174122976]","[-1,-1,-1]","[-0.023182358171117412,0.03226165948442151]","[-1,-1,-1]","[-0.027288650749915527,-0.10573676330041312]","[-1,-1,-1]","[-0.18803008151251693,-0.05994218218995543]","[-1,-1,-1]","[0.07304906947191196,0.17902195150322275]","[-1,-1,-1]","[0.017329790707180045,-0.1811001524614156]","[-1,-1,-1]","[-0.0412676139640194,-0.1457757694125527]","[1,1,1]","[-0.034429434637840935,0.12470096766019693]","[-1,-1,-1]","[0.13377228565361507,0.006568318290430908]","[-1,-1,-1]","[-0.1184134902307807,0.14732204350120748]","[-1,-1,-1]","[0.030237098204513247,0.16556983152556637]","[-1,-1,-1]","[0.12597030225898062,0.06666559249561754]","[-1,-1,-1]","[-0.14834264399643934,0.1024441712150728]","[1,1,1]","[0.1938786711479952,0.027515969525821252]","[-1,-1,-1]","[0.09035651879845506,0.004212176665279057]","[-1,-1,-1]","[-0.04825034495619014,-0.030252091837886776]","[-1,-1,-1]","[-0.0820064555585446,0.08844561757623656]","[-1,-1,-1]","[-0.10093309331615691,-0.10328143455749259]","[-1,-1,-1]","[0.18796971591064524,-0.01562686470163113]","[-1,-1,-1]","[0.14870449624568569,-0.08877121539373277]","[-1,-1,-1]","[0.010886546818811703,-0.08069889386005875]","[-1,-1,-1]","[-0.15846160237314966,-0.10690136450708414]","[-1,-1,-1]","[0.10796876002822836,0.11496863591791372]","[-1,-1,-1]","[-0.1818009848953027,0.02305412963178773]","[-1,-1,-1]","[0.04080114167140306,-0.005702144719404084]","[-1,-1,-1]","[0.16315266908089895,-0.047001321397158416]","[-1,-1,-1]","[0.02,0.02]",115.0482,0,19,19,4,1,,,,,,,
,,,,,,,666d97ca3efe7fbd33436995,682f0fc200e284689ffa3e7b,2025-05-22_13h21.30.895,cuing_paradigm_dot,2024.1.5,Win32,29.94011976,682d573fa47f1360d1451895,,,,,,,,,,,115.0501,115.5487,,,115.7819,116.3813,left,0.5719,,,,,,,,,0.55,,,,,,115.5494,115.7817,116.3814,"[-0.04894726813034384,0.00687230321093903]","[-1,-1,-1]","[0.06777351004194815,0.013754000941919028]","[1,1,1]","[0.03598247714666081,-0.16214017309034862]","[1,1,1]","[0.0634147792927644,0.0619131153996946]","[-1,-1,-1]","[0.014954137718802697,0.09704106141412658]","[1,1,1]","[0.026718085627350115,0.14819784165930547]","[1,1,1]","[-0.08243484222308022,-0.16506898651626692]","[-1,-1,-1]","[0.053532679177063024,-0.06795729601987228]","[-1,-1,-1]","[-0.00135945718698568,-0.19594921151333786]","[-1,-1,-1]","[-0.029506028232857463,0.10076260179742519]","[-1,-1,-1]","[-0.022346381308444074,-0.10935646359346526]","[1,1,1]","[0.035199477974842575,-0.017901768999792036]","[1,1,1]","[0.17842153529583307,-0.06877967478391535]","[1,1,1]","[-0.19685630986065877,0.024286913418951433]","[1,1,1]","[-0.10548702188480892,0.0892789284593786]","[-1,-1,-1]","[0.019880727315497605,0.04663510819852617]","[1,1,1]","[-0.10694694666635415,0.04217006113875874]","[-1,-1,-1]","[-0.07769923897142415,0.1631329195356587]","[1,1,1]","[-0.016118477314472128,-0.046382628833334175]","[1,1,1]","[-0.11719273429662064,-0.13781725713867607]","[-1,-1,-1]","[0.11201654260319427,-0.07788912099450902]","[1,1,1]","[0.13015878392497282,0.13138731454399752]","[1,1,1]","[0.150322039922174,0.028339287156971725]","[-1,-1,-1]","[0.14876065561448584,-0.03340185959790014]","[1,1,1]","[-0.11197252536887291,-0.051746622148940165]","[-1,-1,-1]","[-0.18534497165175168,-0.01403320583330497]","[1,1,1]","[0.08539115005012747,-0.14336633313564798]","[1,1,1]","[-0.1348894335554906,0.12472297363052362]","[1,1,1]","[0.12197416865810837,-0.00021215849274020747]","[-1,-1,-1]","[-0.15165105967172088,-0.04538194749311891]","[-1,-1,-1]","[0.08492419658055343,0.1681168571677819]","[1,1,1]","[0.06613395914864623,0.12044548605324423]","[-1,-1,-1]","[0.02,0.02]",117.481,0,20,20,134,1,,,,,,,
,,,,,,,666d97ca3efe7fbd33436995,682f0fc200e284689ffa3e7b,2025-05-22_13h21.30.895,cuing_paradigm_dot,2024.1.5,Win32,29.94011976,682d573fa47f1360d1451895,,,,,,,,,,,117.4818,117.9803,,,118.2146,118.6485,left,0.4142,,,,,,,,,0.5,,,,,,117.9804,118.2146,118.6486,"[-0.025822773136910854,0.027532814908470826]","[-1,-1,-1]","[0.040580487408691926,0.07213431431919244]","[1,1,1]","[-0.08651581847121652,-0.031800097564565054]","[1,1,1]","[0.026072090597556632,-0.09104270115996667]","[-1,-1,-1]","[0.12828818011672657,0.009968307627467698]","[1,1,1]","[0.10034886362986749,0.16683631691691933]","[1,1,1]","[-0.04281964734513626,0.15343133343644863]","[-1,-1,-1]","[-0.0689960275857395,-0.14911751499579345]","[1,1,1]","[0.017507927815941154,-0.16976163813179643]","[1,1,1]","[-0.0815854230636903,0.07055611783811949]","[-1,-1,-1]","[-0.1527372975168098,-0.09921273677492265]","[1,1,1]","[0.004021501171527208,-0.03413572264679313]","[-1,-1,-1]","[0.10390660373120073,-0.15646106507942764]","[-1,-1,-1]","[0.13782429970633658,0.05856599636373036]","[1,1,1]","[0.07185775318871625,-0.12006467770179291]","[-1,-1,-1]","[0.08821002110430709,0.06754937567599048]","[-1,-1,-1]","[0.010163156618796625,0.008169679207812428]","[1,1,1]","[-0.04371579878792901,-0.07323859641355301]","[1,1,1]","[-0.12066600589158223,0.034034005563835304]","[1,1,1]","[0.003208968739386186,0.13083133140926995]","[1,1,1]","[-0.19304687972120757,-0.006350640747611822]","[-1,-1,-1]","[0.16817128947147184,-0.08807206286375438]","[-1,-1,-1]","[-0.15232192134055692,-0.037550783149534105]","[1,1,1]","[-0.026348659794963102,-0.19712427011623565]","[-1,-1,-1]","[0.11150279636512248,-0.05264963432824669]","[-1,-1,-1]","[0.054743168658590836,-0.026201195695379098]","[-1,-1,-1]","[-0.06016014427772801,0.005072130061593652]","[-1,-1,-1]","[-0.11359706928354772,0.12002847270959736]","[-1,-1,-1]","[0.04879717798616374,0.1878906656764853]","[1,1,1]","[-0.14866333430493614,0.07191568388229493]","[1,1,1]","[0.17225733433683207,0.01430512478060798]","[-1,-1,-1]","[-0.01965769291874448,0.09091265069333501]","[1,1,1]","[0.02,0.02]",119.7479,0,21,21,117,1,,,,,,,
,,,,,,,666d97ca3efe7fbd33436995,682f0fc200e284689ffa3e7b,2025-05-22_13h21.30.895,cuing_paradigm_dot,2024.1.5,Win32,29.94011976,682d573fa47f1360d1451895,,,,,,,,,,,119.749,120.2471,,,120.4814,120.7146,left,0.2147,,,,,,,,,0.9,,,,,,120.2472,120.4813,120.7147,"[0.003908209449827231,0.16575083337413465]","[1,1,1]","[0.14320065457544906,0.11856892011707397]","[1,1,1]","[-0.07603274346131722,0.1525089013960522]","[1,1,1]","[-0.09945036171880246,-0.09424561885246201]","[1,1,1]","[0.06266723651880039,0.0009112149842177262]","[1,1,1]","[-0.008852714277264834,0.07766182737102194]","[1,1,1]","[-0.13679948721390522,0.020396360494826953]","[1,1,1]","[-0.04865418463900544,0.09142422573908776]","[-1,-1,-1]","[0.12914975350979216,-0.0016794357159490333]","[-1,-1,-1]","[0.05969396481307746,0.17581059906753946]","[1,1,1]","[-0.008342150350346958,-0.06220302966528459]","[1,1,1]","[-0.12415398970852749,-0.14504188804090076]","[1,1,1]","[0.12393214485798143,-0.09078576100432328]","[1,1,1]","[-0.08070593744586825,0.02464932616530056]","[1,1,1]","[-0.03785705656033035,-0.11230934261639294]","[1,1,1]","[0.17664147091033355,-0.04661869465533751]","[1,1,1]","[0.09418611807707249,-0.13476832665655517]","[1,1,1]","[0.06033343956244701,-0.16034874294901377]","[1,1,1]","[-0.10898709563630245,0.05394408761608223]","[-1,-1,-1]","[-0.179925550109293,-0.07253367920355176]","[1,1,1]","[0.06799019671054009,0.06870606473402423]","[1,1,1]","[0.02109408486987738,-0.19399303514469315]","[1,1,1]","[-0.13192016043534116,-0.03523628943931193]","[1,1,1]","[0.1300419299095336,0.04116497073953588]","[1,1,1]","[-0.12096497524684789,0.09519716303454578]","[1,1,1]","[0.03468602639735164,0.0426562921764192]","[1,1,1]","[0.012108026589518752,-0.12382619313574765]","[1,1,1]","[-0.014693639763305599,0.12837232501826273]","[1,1,1]","[-0.08214548006608681,-0.05378285636232756]","[1,1,1]","[-0.023519875656135263,-0.16045439130727882]","[1,1,1]","[-0.12517804580668984,0.15474999671644316]","[1,1,1]","[0.1892469829401555,0.023661952935611824]","[1,1,1]","[0.02,0.02]",121.8138,0,22,22,200,1,,,,,,,
,,,,,,,666d97ca3efe7fbd33436995,682f0fc200e284689ffa3e7b,2025-05-22_13h21.30.895,cuing_paradigm_dot,2024.1.5,Win32,29.94011976,682d573fa47f1360d1451895,,,,,,,,,,,121.8146,122.3137,,,122.5483,123.2142,right,0.6338,,,,,,,,,0.4,,,,,,122.3138,122.5483,123.2143,"[-0.06064530411133485,-0.06582008036390387]","[-1,-1,-1]","[0.10386559912425634,0.06070112042747242]","[1,1,1]","[0.17490442101334494,-0.04169236525335744]","[1,1,1]","[-0.00594595426671793,-0.18792424214626394]","[-1,-1,-1]","[-0.14893204023068976,-0.06303562207962671]","[-1,-1,-1]","[0.15424359525886053,-0.08376166887914126]","[1,1,1]","[-0.13107919785159283,0.013647934862214217]","[1,1,1]","[-0.033271479777700654,0.13498007731562678]","[1,1,1]","[-0.17822335734550826,0.03764623046928285]","[-1,-1,-1]","[-0.05425140439708948,0.09650678567910687]","[-1,-1,-1]","[0.05775770930608327,0.02866064978106241]","[1,1,1]","[0.01994548115411111,0.1853657160511055]","[1,1,1]","[-0.0010253922217255454,0.05465744522905051]","[1,1,1]","[0.059410058662415874,0.11509475523974441]","[-1,-1,-1]","[0.053017700459451984,-0.06943952012097215]","[-1,-1,-1]","[-0.1211529240518438,0.09886196778178231]","[-1,-1,-1]","[-0.17612182725484324,-0.017479588971513783]","[-1,-1,-1]","[-0.12309366623113617,-0.027483150086317985]","[-1,-1,-1]","[0.09357315819782698,0.15091051146432147]","[-1,-1,-1]","[-0.10751741710890973,-0.14951812833732492]","[1,1,1]","[0.13980522218213143,-0.005433087608607585]","[1,1,1]","[0.10431417906567658,-0.031209186880787162]","[-1,-1,-1]","[0.07194225908176204,-0.10643768415294448]","[-1,-1,-1]","[-0.025752206351503937,-0.1496170927640705]","[-1,-1,-1]","[0.11960581970258355,-0.10661604164867686]","[-1,-1,-1]","[-0.023158359409866436,-0.1012596043081563]","[-1,-1,-1]","[-0.06804653108600146,0.033480553540835095]","[1,1,1]","[0.18151296949906065,0.0762985162490726]","[1,1,1]","[0.13673491347538852,0.10022922261305098]","[-1,-1,-1]","[-0.011283110768107101,-0.03667178182489946]","[1,1,1]","[0.07437758021422183,-0.1653618910231861]","[-1,-1,-1]","[0.0556170709453438,0.07372359754784134]","[-1,-1,-1]","[0.02,0.02]",124.3135,0,23,23,38,1,,,,,,,
,,,,,,,666d97ca3efe7fbd33436995,682f0fc200e284689ffa3e7b,2025-05-22_13h21.30.895,cuing_paradigm_dot,2024.1.5,Win32,29.94011976,682d573fa47f1360d1451895,,,,,,,,,,,124.3149,124.8141,,,125.0479,125.4805,left,0.4106,,,,,,,,,0.9,,,,,,124.8142,125.0477,125.4806,"[0.02941236029279776,0.17572319555157928]","[1,1,1]","[-0.13883770579768434,-0.026364613664392387]","[1,1,1]","[-0.1445511625970579,0.06898400312125784]","[1,1,1]","[0.05861038581836297,0.10175571945873596]","[1,1,1]","[-0.033154621459991276,-0.07271842067161831]","[1,1,1]","[-0.10807949488048813,-0.07783500641394736]","[1,1,1]","[-0.038801393460528015,0.06307790486361321]","[1,1,1]","[-0.007195855194662185,-0.17146806105527024]","[1,1,1]","[-0.06839939010215322,-0.032347997261682686]","[1,1,1]","[-0.0469895688977176,0.17886367273323456]","[1,1,1]","[0.11236937698543525,0.1322844375095556]","[-1,-1,-1]","[-0.15190264740462728,-0.1279278185486416]","[1,1,1]","[0.14789055630874626,-0.06276043279271908]","[1,1,1]","[0.16620934555133848,0.05168505907670333]","[1,1,1]","[0.09287759959378426,0.03327753068138977]","[1,1,1]","[0.1110033653505761,-0.1495429260860387]","[1,1,1]","[-0.0015490054495112791,-0.024502264675251646]","[1,1,1]","[0.0583649753771778,-0.08537137549877229]","[1,1,1]","[-0.031936234595388246,0.10609171946483907]","[1,1,1]","[0.026163424997909406,0.12891335595056055]","[1,1,1]","[0.030343991078955235,0.062117296633693725]","[1,1,1]","[0.035969662855747556,0.011496968114035746]","[1,1,1]","[0.11669789142050295,-0.0240614951164106]","[1,1,1]","[-0.17803738753405735,-0.06765338595143269]","[-1,-1,-1]","[0.15260322900028683,0.126367373793532]","[-1,-1,-1]","[-0.07930841408106715,-0.1238757844568461]","[1,1,1]","[-0.06714574531383803,-0.1754211952963837]","[1,1,1]","[0.19350091065276398,0.003857772356746992]","[1,1,1]","[0.047123720031286426,-0.13652554026597852]","[1,1,1]","[-0.10604565487036752,0.13693907629864394]","[1,1,1]","[-0.044114256312969016,0.015138194848356337]","[1,1,1]","[-0.10629552270340693,0.09080321991891072]","[1,1,1]","[0.02,0.02]",126.5803,0,24,24,196,1,,,,,,,
,,,,,,,666d97ca3efe7fbd33436995,682f0fc200e284689ffa3e7b,2025-05-22_13h21.30.895,cuing_paradigm_dot,2024.1.5,Win32,29.94011976,682d573fa47f1360d1451895,,,,,,,,,,,126.5818,127.0806,,,127.3149,128.1142,left,0.7692,,,,,,,,,0.9,,,,,,127.0807,127.3149,128.1144,"[-0.18157918790914312,0.01717610165454749]","[1,1,1]","[0.15621990199590877,0.10393159256974725]","[-1,-1,-1]","[-0.005662274488799376,0.18058369460242454]","[1,1,1]","[0.03064675628854101,-0.016466463480239637]","[1,1,1]","[0.07595235103307771,0.1726314265602409]","[1,1,1]","[-0.01654667355045808,-0.14108712239485693]","[1,1,1]","[-0.15275244657234605,0.0766882581862446]","[1,1,1]","[0.13122038046115125,-0.0362889238009599]","[1,1,1]","[-0.06571115169096522,0.021519715470849257]","[-1,-1,-1]","[0.0674012097701879,-0.11501922878569515]","[1,1,1]","[-0.06672206868153074,0.08183808317996417]","[1,1,1]","[0.08795586752300032,0.017696590787485107]","[1,1,1]","[0.014353298924532614,-0.09979363947227335]","[1,1,1]","[0.19023749347978466,-0.013937089321642006]","[1,1,1]","[0.02832986058454588,0.05162359513603558]","[1,1,1]","[-0.01882121634053999,-0.05076660197667323]","[1,1,1]","[0.03233687245140984,0.12318708255710337]","[1,1,1]","[0.06863002451694743,-0.0659001357221137]","[1,1,1]","[0.11407585385165583,-0.08242409517494821]","[1,1,1]","[-0.021036768247327708,-0.19851754877156524]","[1,1,1]","[0.0753954820102259,0.07174004593014008]","[-1,-1,-1]","[-0.12617012990084872,-0.1065764122973906]","[1,1,1]","[-0.1435621310309229,-0.05609118904410848]","[1,1,1]","[-0.07788907750461241,-0.1644105948161331]","[1,1,1]","[0.19329060488164582,0.0441857501822951]","[1,1,1]","[-0.02802508489596357,-0.005007326289405069]","[1,1,1]","[0.04192028706614091,-0.15219317581568434]","[1,1,1]","[-0.06966401106583169,0.15812049078991122]","[1,1,1]","[-0.17670180984971162,-0.07982577022912417]","[1,1,1]","[0.17899013994414925,-0.07335985675347759]","[1,1,1]","[0.035870393144394865,0.1648571025323848]","[1,1,1]","[-0.19287835935434414,-0.03599696727867309]","[1,1,1]","[0.02,0.02]",129.2137,0,25,25,197,1,,,,,,,
,,,,,,,666d97ca3efe7fbd33436995,682f0fc200e284689ffa3e7b,2025-05-22_13h21.30.895,cuing_paradigm_dot,2024.1.5,Win32,29.94011976,682d573fa47f1360d1451895,,,,,,,,,,,129.2149,129.7132,,,129.9466,130.4138,right,0.4444,,,,,,,,,0.1,,,,,,129.7132,129.9465,130.4139,"[0.06202503236246455,0.07058071204102344]","[1,1,1]","[-0.15459823132608955,0.05449121758707386]","[-1,-1,-1]","[0.08693501610770007,-0.11108989097440643]","[-1,-1,-1]","[0.10881876925740755,0.019768243154219524]","[-1,-1,-1]","[-0.09980871494276311,0.04721285466699888]","[-1,-1,-1]","[-0.04739451898893927,0.023131914028992107]","[-1,-1,-1]","[-0.010904015375999342,-0.09256487838959078]","[-1,-1,-1]","[0.010983302142071641,0.1350839836687306]","[-1,-1,-1]","[-0.10743597937147448,0.00575280862406267]","[-1,-1,-1]","[0.1729879270423923,-0.08770087978789445]","[-1,-1,-1]","[0.19731423772301898,0.030620351561773448]","[-1,-1,-1]","[0.04037525376802953,-0.16066341986220672]","[-1,-1,-1]","[-0.13580299268766596,0.12816088947618595]","[-1,-1,-1]","[-0.07676368135480674,-0.02923096565025582]","[-1,-1,-1]","[-0.18059214448050934,-0.041686699256015966]","[-1,-1,-1]","[-0.06631948905451919,-0.07950397582696053]","[-1,-1,-1]","[0.12504594958223203,0.11169422242669608]","[-1,-1,-1]","[0.030761719645407328,-0.009008927429900318]","[-1,-1,-1]","[-0.05566666794490951,0.07662151830046292]","[-1,-1,-1]","[-0.14237079420442375,-0.07673866023328826]","[-1,-1,-1]","[0.12385339234001279,-0.018579225359974538]","[-1,-1,-1]","[-0.028566157383364345,-0.020218563068332984]","[-1,-1,-1]","[0.0612692143216446,0.174215431237803]","[-1,-1,-1]","[0.1592372105610646,-0.04526717809985947]","[-1,-1,-1]","[0.13949999818422726,-0.13266844147895698]","[-1,-1,-1]","[-0.07704285579826219,0.13267404867261096]","[1,1,1]","[0.01033623035430395,0.04389615336347752]","[-1,-1,-1]","[-0.05127506776026538,-0.1877412905141795]","[-1,-1,-1]","[-0.01785646956171569,0.09167725605437864]","[-1,-1,-1]","[-0.1284242273934231,0.08529983104166926]","[-1,-1,-1]","[0.14431073475520975,0.04801718958143302]","[-1,-1,-1]","[0.09713682454580455,0.14528249399554677]","[1,1,1]","[0.02,0.02]",131.5133,0,26,26,16,1,,,,,,,
,,,,,,,666d97ca3efe7fbd33436995,682f0fc200e284689ffa3e7b,2025-05-22_13h21.30.895,cuing_paradigm_dot,2024.1.5,Win32,29.94011976,682d573fa47f1360d1451895,,,,,,,,,,,131.5142,132.0138,,,132.2472,132.7802,right,0.5011,,,,,,,,,0.4,,,,,,132.0138,132.247,132.7803,"[0.1490555942967751,-0.06737236929572527]","[-1,-1,-1]","[0.04784266124626878,-0.0482455469796253]","[-1,-1,-1]","[0.13341192691834258,0.12509537472217844]","[-1,-1,-1]","[-0.06713210937626456,-0.13841743729107894]","[-1,-1,-1]","[-0.08334707263839898,-0.0679593002038173]","[1,1,1]","[0.017692085087384474,-0.12969209240580015]","[-1,-1,-1]","[-0.020689806035762568,0.006397895672448303]","[1,1,1]","[-0.004161748900604489,-0.1882048680146505]","[-1,-1,-1]","[-0.049122961116907796,0.15672564732725758]","[-1,-1,-1]","[0.03861043514541687,0.19235936456844416]","[-1,-1,-1]","[-0.011042172476978564,-0.1011658898622799]","[1,1,1]","[0.044214888066670024,0.004620338937862397]","[1,1,1]","[-0.003236671604480495,0.16810929104861957]","[-1,-1,-1]","[0.0945086255001668,-0.12728974808148816]","[1,1,1]","[0.15995537760901973,0.019527158782579455]","[1,1,1]","[0.09613943105537745,0.04815533294204826]","[1,1,1]","[-0.15371126699882215,-0.029143719719619564]","[-1,-1,-1]","[-0.005199268399502429,-0.03332761925030543]","[-1,-1,-1]","[-0.1223011642835945,0.14600678611570336]","[1,1,1]","[-0.13574470660723081,-0.13103552613333183]","[-1,-1,-1]","[-0.06412235532329848,0.11210812106573106]","[1,1,1]","[0.08195570063222099,-0.017769179103370277]","[-1,-1,-1]","[-0.1070772532691686,0.009557602203270678]","[1,1,1]","[-0.16221992218937875,-0.08405214344805154]","[1,1,1]","[0.10004829835532267,0.17272763240700126]","[-1,-1,-1]","[0.005212723432428655,0.11692791532041508]","[1,1,1]","[0.13738483407954402,0.05474575385424778]","[-1,-1,-1]","[-0.09230303794581393,0.06731754704335648]","[1,1,1]","[-0.15764399004953722,0.09498086078911101]","[-1,-1,-1]","[0.06329187055140026,-0.15694260176192268]","[-1,-1,-1]","[-0.059285837375269664,0.03426911744380804]","[-1,-1,-1]","[0.08853522853062938,-0.06344687083799981]","[-1,-1,-1]","[0.02,0.02]",133.8804,0,27,27,42,1,,,,,,,
,,,,,,,666d97ca3efe7fbd33436995,682f0fc200e284689ffa3e7b,2025-05-22_13h21.30.895,cuing_paradigm_dot,2024.1.5,Win32,29.94011976,682d573fa47f1360d1451895,,,,,,,,,,,133.8814,134.3799,,,134.6139,134.8467,left,0.2057,,,,,,,,,0.4,,,,,,134.3799,134.6138,134.8469,"[0.0432166715477025,-0.1077405307953527]","[-1,-1,-1]","[0.12951051610932193,-0.1084690312516062]","[1,1,1]","[0.1556679033007362,-0.028081070173489178]","[1,1,1]","[-0.09979527584053298,-0.030162747937012555]","[-1,-1,-1]","[0.04262520486573558,0.029257348754816916]","[1,1,1]","[0.11092217854500544,0.10760343840428939]","[-1,-1,-1]","[0.004744152278549348,-0.028515913891073615]","[-1,-1,-1]","[0.07579078503903976,-0.0227628709177065]","[1,1,1]","[-0.02636275706045639,0.11641815987328859]","[-1,-1,-1]","[-0.07949111839993443,0.058864187171587985]","[1,1,1]","[-0.020504626063183533,-0.16478037864363443]","[-1,-1,-1]","[-0.12963828779347736,0.03417611999812188]","[-1,-1,-1]","[-0.05509370655484917,-0.09041988573608177]","[1,1,1]","[0.017544164863334613,0.0672020503251085]","[-1,-1,-1]","[0.019206428650568846,-0.15889766111619474]","[-1,-1,-1]","[-0.18290440445825903,0.03046192032741588]","[1,1,1]","[0.09325957830910778,0.02673965846129929]","[-1,-1,-1]","[0.021696290018250384,0.1682826958601033]","[-1,-1,-1]","[-0.10747674142813617,0.16691339861052137]","[-1,-1,-1]","[-0.06458034825555604,0.13407851854007155]","[1,1,1]","[0.13415842488083093,0.05311642295264381]","[1,1,1]","[0.14364608117804153,-0.0709061492815225]","[-1,-1,-1]","[0.15180063230970217,0.016627648364401275]","[-1,-1,-1]","[0.15340593727420945,0.09728215682809747]","[1,1,1]","[0.050151062243223785,-0.057475290741149654]","[-1,-1,-1]","[-0.029000403774078466,0.0016866671635489717]","[1,1,1]","[-0.14085162852453137,0.111283739298471]","[-1,-1,-1]","[-0.0492950549871763,0.183532154737463]","[1,1,1]","[-0.16138977501617807,-0.1176208402445718]","[-1,-1,-1]","[0.03889527580203125,-0.19610185874059383]","[1,1,1]","[0.05623650894140596,0.10408659436754865]","[-1,-1,-1]","[-0.10993709311809577,-0.1461982558696992]","[-1,-1,-1]","[0.02,0.02]",135.9469,0,28,28,59,1,,,,,,,
,,,,,,,666d97ca3efe7fbd33436995,682f0fc200e284689ffa3e7b,2025-05-22_13h21.30.895,cuing_paradigm_dot,2024.1.5,Win32,29.94011976,682d573fa47f1360d1451895,,,,,,,,,,,135.9482,136.4464,,,136.6796,137.7147,right,1.0012,,,,,,,,,0.5,,,,,,136.4465,136.6796,137.7148,"[-0.12954839393488218,-0.04109604014287527]","[-1,-1,-1]","[-0.018605557352340978,0.04218148270565008]","[-1,-1,-1]","[-0.15673015597974477,0.031941890706686314]","[-1,-1,-1]","[0.014136152860906522,0.15298584361633416]","[-1,-1,-1]","[-0.02678420768111177,-0.00728122349546011]","[-1,-1,-1]","[-0.12034337582801836,-0.14032968754827613]","[1,1,1]","[-0.05480264242840351,-0.14425031439405284]","[-1,-1,-1]","[-0.07061785916529234,0.14289587298927908]","[1,1,1]","[0.07219123807400693,0.14000255531705633]","[-1,-1,-1]","[0.18441430185290902,0.03733705844442751]","[1,1,1]","[0.02881379907732744,0.006741476099014023]","[-1,-1,-1]","[0.12837615725526563,0.01883121766074739]","[1,1,1]","[0.11097249650929511,0.08715955037716623]","[-1,-1,-1]","[-0.018399375068091584,-0.06052531669273183]","[-1,-1,-1]","[0.06768593400154731,-0.15297844376613773]","[1,1,1]","[-0.06400146707149043,-0.038251057499250396]","[1,1,1]","[0.1314541018329167,0.12287864947717042]","[-1,-1,-1]","[0.06560367135559816,-0.07686927439225906]","[1,1,1]","[0.17068832552633226,-0.014001653754096208]","[1,1,1]","[-0.09060105068537562,-0.09794061208238537]","[-1,-1,-1]","[-0.10434878608617693,0.04403135906851344]","[-1,-1,-1]","[-0.07983522852418513,-0.0009080540484074276]","[1,1,1]","[0.13214365400414566,-0.07102775014979794]","[1,1,1]","[0.017101608067247927,-0.13184869960342702]","[-1,-1,-1]","[0.09687384878774004,-0.025224290542268952]","[-1,-1,-1]","[-0.05892873239954314,0.056816711996147545]","[1,1,1]","[-0.0970797355476476,0.10236896113991993]","[1,1,1]","[0.03901203536516446,0.0676076591268759]","[1,1,1]","[0.08378796120770544,0.04704874926731273]","[1,1,1]","[-0.14717135284067684,-0.1085002082432202]","[1,1,1]","[-0.02051090207977137,0.11521452108237315]","[1,1,1]","[0.04971450978611215,-0.032641088080401455]","[-1,-1,-1]","[0.02,0.02]",138.8132,0,29,29,116,1,,,,,,,
,,,,,,,666d97ca3efe7fbd33436995,682f0fc200e284689ffa3e7b,2025-05-22_13h21.30.895,cuing_paradigm_dot,2024.1.5,Win32,29.94011976,682d573fa47f1360d1451895,,,,,,,,,,,138.8145,139.3136,,,139.546,139.8804,right,0.3219,,,,,,,,,0.45,,,,,,139.3137,139.546,139.8804,"[-0.03279929987173959,0.1919749489110775]","[1,1,1]","[-0.14075214170370737,-0.0765108378330239]","[-1,-1,-1]","[0.09340120467147545,-0.011876957443949815]","[-1,-1,-1]","[-0.12822164005446446,0.010004243439009405]","[1,1,1]","[0.07054516412840087,0.07156973889512142]","[-1,-1,-1]","[0.11604138215370435,0.1590273352854931]","[-1,-1,-1]","[0.16173774540697877,0.025185178435680647]","[-1,-1,-1]","[-0.05208678641924089,-0.14963765451955907]","[1,1,1]","[-0.005479493938708724,0.14569693850894225]","[1,1,1]","[0.04855881319920269,0.12450254693776801]","[-1,-1,-1]","[0.008709681744377603,0.07396151331683593]","[1,1,1]","[-0.09895811910885342,0.05946332700787254]","[-1,-1,-1]","[0.0049201438654725834,-0.1297825250326441]","[1,1,1]","[-0.11282167122517688,0.1570389508371391]","[-1,-1,-1]","[-0.019612861929209056,0.008062037865312247]","[-1,-1,-1]","[0.0056149910874303864,-0.0833219165230581]","[-1,-1,-1]","[0.09412105456974472,-0.060668091811358675]","[1,1,1]","[0.13902651614340905,-0.10214221411093824]","[1,1,1]","[0.11378932917684598,0.05298895869142753]","[-1,-1,-1]","[-0.1611850542394282,-0.028299907435277768]","[-1,-1,-1]","[-0.056213283169297294,-0.05846674064475929]","[1,1,1]","[-0.1734380503135471,0.01577900358375632]","[-1,-1,-1]","[0.04235619252897058,0.02665645806384462]","[-1,-1,-1]","[0.14824912384441574,0.08413794928855146]","[1,1,1]","[-0.13060345292448866,-0.11698029037484729]","[-1,-1,-1]","[-0.08760393857045082,-0.022374409902193786]","[1,1,1]","[0.053820273572247154,-0.06684074129577909]","[-1,-1,-1]","[0.05537412298437479,-0.16737143657784762]","[-1,-1,-1]","[-0.021677941610140163,-0.19311595752533633]","[1,1,1]","[-0.04530742492157993,0.1090527902997913]","[1,1,1]","[-0.05251269915480226,0.047821379849137945]","[1,1,1]","[-0.1781363895197464,0.05732457604750952]","[-1,-1,-1]","[0.02,0.02]",140.9796,0,30,30,71,1,,,,,,,
,,,,,,,666d97ca3efe7fbd33436995,682f0fc200e284689ffa3e7b,2025-05-22_13h21.30.895,cuing_paradigm_dot,2024.1.5,Win32,29.94011976,682d573fa47f1360d1451895,,,,,,,,,,,140.9801,141.4801,,,141.7132,142.6461,right,0.9117,,,,,,,,,0.5,,,,,,141.4802,141.713,142.6461,"[0.18273346976300286,0.01585455635340126]","[1,1,1]","[-0.19367294778546237,0.030169578736473104]","[-1,-1,-1]","[0.14852814123891378,-0.04699681619815623]","[-1,-1,-1]","[-0.08469168943389949,0.03378587809653018]","[1,1,1]","[0.06218565500323207,-0.10155735333767325]","[1,1,1]","[0.03239238718154867,-0.13091387234652474]","[1,1,1]","[-0.06466651037395198,-0.10020634763337542]","[1,1,1]","[0.12250454066848968,-0.08138641914177264]","[1,1,1]","[-0.1234819182492842,-0.09677583850144059]","[-1,-1,-1]","[0.033815909956173805,0.14845821735286796]","[-1,-1,-1]","[-0.14967418562298743,0.03708840220983757]","[1,1,1]","[-0.09849387315496994,0.16568465335531923]","[1,1,1]","[0.1094818762529391,0.03022947453134799]","[-1,-1,-1]","[0.0060258283538651165,0.002703439450958786]","[-1,-1,-1]","[-0.1295155335143754,-0.055153708847522645]","[-1,-1,-1]","[-0.16438361744341554,0.11004963602053179]","[-1,-1,-1]","[-0.01847245739857879,-0.05465732260676021]","[-1,-1,-1]","[0.06682492851865718,0.10575879890485877]","[1,1,1]","[0.11989560676074121,0.10160091204785804]","[-1,-1,-1]","[0.0701107897839875,-0.15633524846709157]","[1,1,1]","[-0.0137784687221437,0.10300351826046043]","[-1,-1,-1]","[-0.08464537457813082,-0.05132074924175479]","[1,1,1]","[-0.06027438599374577,-0.18990311410445943]","[1,1,1]","[0.050233661326039306,0.025335087688533396]","[-1,-1,-1]","[-0.17360774270251123,-0.09253280196804875]","[1,1,1]","[-0.0763381129407407,0.07391192081534309]","[-1,-1,-1]","[-0.09337152675254218,-0.1513041864065363]","[1,1,1]","[0.11345843710707332,-0.14338488326077456]","[1,1,1]","[0.005594573031195836,-0.17214647213402975]","[-1,-1,-1]","[-0.040552149849723614,0.1684856738581988]","[1,1,1]","[-0.008388035063358938,0.05457587583958498]","[-1,-1,-1]","[-0.0614468018045413,0.12669278268191575]","[-1,-1,-1]","[0.02,0.02]",143.7459,0,31,31,108,1,,,,,,,
,,,,,,,666d97ca3efe7fbd33436995,682f0fc200e284689ffa3e7b,2025-05-22_13h21.30.895,cuing_paradigm_dot,2024.1.5,Win32,29.94011976,682d573fa47f1360d1451895,,,,,,,,,,,143.7464,144.247,,,144.4801,145.0471,right,0.5369,,,,,,,,,0.4,,,,,,144.2471,144.48,145.0471,"[0.05548453575894887,-0.16102174046320986]","[-1,-1,-1]","[-0.036334395422580414,0.0004577057915850954]","[-1,-1,-1]","[-0.1743664578126274,0.09364762319678811]","[-1,-1,-1]","[0.15089145139779897,-0.10751584246105896]","[1,1,1]","[-0.023280654477006453,-0.04820228213619627]","[-1,-1,-1]","[0.021918141953141693,-0.044285923348739986]","[-1,-1,-1]","[0.010510034709152873,-0.13076254625713557]","[-1,-1,-1]","[0.08287705120145393,0.09221283666616875]","[1,1,1]","[-0.12244393382844693,0.025263301451759156]","[1,1,1]","[0.06841119476172954,0.04089762202423963]","[-1,-1,-1]","[-0.10598663467267279,0.10078983483289605]","[-1,-1,-1]","[-0.02424518113201861,-0.17749665521347932]","[-1,-1,-1]","[0.14197356622925086,-0.062266136004890206]","[1,1,1]","[-0.024046855777747393,0.12355942682832444]","[-1,-1,-1]","[0.012713512292591595,0.027069242877044545]","[1,1,1]","[0.07524089441732357,-0.029874387017523256]","[-1,-1,-1]","[0.1492787832757773,0.12836136911278945]","[-1,-1,-1]","[0.01530044991981067,0.08819399477621892]","[1,1,1]","[-0.07816786637216071,0.14028420847551326]","[1,1,1]","[0.014800390616809897,0.13662772551562338]","[-1,-1,-1]","[0.11601201540687504,0.04139857821055842]","[-1,-1,-1]","[0.08492293562915591,-0.1103413510284674]","[-1,-1,-1]","[-0.15334292432248886,-0.07784555302037069]","[-1,-1,-1]","[-0.0645797620174716,0.042991450904910786]","[1,1,1]","[-0.10505963928803003,-0.04207663038992338]","[1,1,1]","[-0.06254376160270125,-0.08597371862935767]","[1,1,1]","[-0.03480861428346391,-0.13596974742648313]","[-1,-1,-1]","[0.10151230701118144,-0.07094235279370241]","[-1,-1,-1]","[-0.1868520876650639,0.05321060234318382]","[1,1,1]","[-0.17667414985445504,-0.02192536356520976]","[1,1,1]","[0.17085955931889982,0.06385871410479614]","[-1,-1,-1]","[-0.09848136986783924,-0.14936698934949555]","[1,1,1]","[0.02,0.02]",146.146,0,32,32,58,1,,,,,,,
,,,,,,,666d97ca3efe7fbd33436995,682f0fc200e284689ffa3e7b,2025-05-22_13h21.30.895,cuing_paradigm_dot,2024.1.5,Win32,29.94011976,682d573fa47f1360d1451895,,,,,,,,,,,146.1471,146.6464,,,146.8802,147.3793,right,0.4832,,,,,,,,,0.5,,,,,,146.6465,146.8802,147.3794,"[-0.12622882043466777,0.08208303592292612]","[1,1,1]","[0.020891982807387157,0.13923761033023468]","[-1,-1,-1]","[0.0683540849874656,-0.031194456221826438]","[-1,-1,-1]","[-0.18935210861569085,-0.04150965574286667]","[-1,-1,-1]","[-0.006877300870016346,-0.1149771447364875]","[-1,-1,-1]","[-0.007279979610369774,0.17494087158422775]","[1,1,1]","[-0.1366777593712156,0.14120454955341727]","[-1,-1,-1]","[0.04975295175188943,-0.10396197364758593]","[-1,-1,-1]","[-0.16686375816254984,0.08337502893001038]","[1,1,1]","[-0.09684473734042709,0.12831549380641163]","[1,1,1]","[0.1434113558930037,0.06090886355767895]","[-1,-1,-1]","[0.050849289301261376,0.08614868957658892]","[-1,-1,-1]","[-0.10527605759068234,0.03000649867037848]","[-1,-1,-1]","[0.08798948431866976,-0.07567871175111235]","[1,1,1]","[-0.07297047030288574,0.08902634299279177]","[1,1,1]","[-0.004390339358134632,0.028741607773764086]","[1,1,1]","[-0.05025990221519449,-0.12230999144331922]","[1,1,1]","[0.045952461634584905,-0.18241794621461857]","[-1,-1,-1]","[0.16979702481165895,-0.01616313583856502]","[1,1,1]","[0.08481786695577351,-0.16301398535822048]","[1,1,1]","[-0.03591719588092213,0.11335513686353207]","[-1,-1,-1]","[-0.13100790911052554,-0.12057965527162888]","[-1,-1,-1]","[0.13198308230514622,-0.06125957823021101]","[-1,-1,-1]","[-0.1545163621131708,0.009272567339846573]","[-1,-1,-1]","[-0.05957779556691204,0.17838143884860982]","[1,1,1]","[-0.08416990190757337,-0.04439602892778017]","[1,1,1]","[0.150716036569582,0.10514060666183848]","[1,1,1]","[0.09927009511127594,0.0863447322117951]","[-1,-1,-1]","[-0.026043514732154535,-0.16029583236269176]","[-1,-1,-1]","[-0.03727674220036069,0.05434589790609435]","[1,1,1]","[0.015331264379565092,-0.04828423939292688]","[1,1,1]","[-0.1534168664927662,-0.07688089383754061]","[1,1,1]","[0.02,0.02]",148.4797,0,33,33,90,1,,,,,,,
,,,,,,,666d97ca3efe7fbd33436995,682f0fc200e284689ffa3e7b,2025-05-22_13h21.30.895,cuing_paradigm_dot,2024.1.5,Win32,29.94011976,682d573fa47f1360d1451895,,,,,,,,,,,148.481,148.9785,,,149.2141,149.7128,left,0.4692,,,,,,,,,0.6,,,,,,148.9786,149.2141,149.7131,"[0.14175955628702386,-0.13211779643295704]","[-1,-1,-1]","[0.03188314781904237,0.18088086010058785]","[1,1,1]","[0.08279504025821456,0.020688280127152483]","[1,1,1]","[0.0719091415654234,-0.1371135525791979]","[1,1,1]","[0.0117414349517887,-0.1271023673144652]","[1,1,1]","[-0.15848910843334987,-0.019918810385316784]","[-1,-1,-1]","[-0.04188898994533101,-0.17459875525288934]","[-1,-1,-1]","[-0.17645984743447007,-0.08788824589036151]","[-1,-1,-1]","[0.06556469509662162,0.14902684362101667]","[1,1,1]","[-0.03203291695951624,0.09287087017151127]","[1,1,1]","[-0.016985242440496373,0.02191963473519226]","[1,1,1]","[-0.09796640259532789,-0.15068323839036302]","[-1,-1,-1]","[0.13075753643630803,-0.084740767583276]","[-1,-1,-1]","[0.14187631162623957,-0.017386955713720138]","[-1,-1,-1]","[-0.1096221611709366,0.0967339889049125]","[1,1,1]","[-0.05191982497847252,-0.12157104777349055]","[1,1,1]","[-0.0693157914610297,-0.06674287720931794]","[1,1,1]","[-0.041931584513457465,0.18673033085554047]","[-1,-1,-1]","[0.14201128583401817,0.12908772473471333]","[-1,-1,-1]","[-0.09939038967524141,0.020690298106704124]","[1,1,1]","[0.12733455882341477,0.07647184748947111]","[1,1,1]","[-0.11158521539550306,-0.1031532266177382]","[1,1,1]","[0.036670573895934575,-0.06365133900082039]","[1,1,1]","[0.021706778143195056,0.003927835962569894]","[1,1,1]","[0.01854027999416655,0.07192938808050746]","[-1,-1,-1]","[-0.023126554554226398,-0.02997356026301104]","[1,1,1]","[-0.18520297923553591,0.04574386135421788]","[-1,-1,-1]","[-0.13334756772338782,0.04724755367943873]","[1,1,1]","[-0.020247282007470363,-0.08143615310435624]","[1,1,1]","[0.09711130043071627,0.11560788662577905]","[-1,-1,-1]","[0.16221458682394896,0.05579718010670004]","[1,1,1]","[-0.12601538007048252,-0.04603973634697222]","[-1,-1,-1]","[0.02,0.02]",150.8122,0,34,34,157,1,,,,,,,
,,,,,,,666d97ca3efe7fbd33436995,682f0fc200e284689ffa3e7b,2025-05-22_13h21.30.895,cuing_paradigm_dot,2024.1.5,Win32,29.94011976,682d573fa47f1360d1451895,,,,,,,,,,,150.8144,151.3124,,,151.546,152.2452,right,0.6702,,,,,,,,,0.1,,,,,,151.3124,151.5459,152.2454,"[-0.09206762805186909,0.15728589287511888]","[-1,-1,-1]","[-0.09559604603945977,0.02747410456612175]","[-1,-1,-1]","[-0.08720728090312403,-0.1123828205305771]","[-1,-1,-1]","[0.08830277580325006,0.0533626467786277]","[1,1,1]","[0.12053554567764524,0.0004937859264978277]","[-1,-1,-1]","[-0.012856820913600176,-0.18011712605489297]","[-1,-1,-1]","[0.09959502899811383,0.13256756514603624]","[-1,-1,-1]","[0.13310670369540217,-0.09223755144301417]","[-1,-1,-1]","[-0.1551672055801505,0.08168336260001355]","[-1,-1,-1]","[0.07685438706609345,-0.16478825641443537]","[-1,-1,-1]","[0.04634961033208942,-0.12670670108022566]","[-1,-1,-1]","[0.056642962894360493,-0.06829939439290833]","[-1,-1,-1]","[-0.1954520659471685,-0.013120469002272943]","[-1,-1,-1]","[0.014609286928531109,0.04108414757893289]","[-1,-1,-1]","[-0.01693760204775317,0.1829950227665879]","[1,1,1]","[0.03496637924858179,-0.017155394552228854]","[-1,-1,-1]","[-0.17023055525025416,-0.05808951405845044]","[-1,-1,-1]","[-0.09634162255030664,-0.16882520911354276]","[-1,-1,-1]","[0.13039820341447367,-0.14108072445804307]","[-1,-1,-1]","[0.18523899669337654,0.061601404562725025]","[-1,-1,-1]","[0.026844882040347323,0.13508356208988398]","[-1,-1,-1]","[0.03688600700434736,0.1800996569272408]","[-1,-1,-1]","[0.1419106257494816,0.04942938307515786]","[-1,-1,-1]","[-0.06653227444392372,0.05644146559905633]","[-1,-1,-1]","[-0.1104807174226473,-0.055500893189946145]","[-1,-1,-1]","[0.17807205523810052,-0.0894296720270329]","[1,1,1]","[-0.03610936143245969,-0.10290496152165508]","[-1,-1,-1]","[0.19816235069002408,0.014188248147802365]","[-1,-1,-1]","[-0.016435346349129177,0.009638578374019902]","[-1,-1,-1]","[-0.006266355167049577,-0.03429652313973582]","[-1,-1,-1]","[-0.14114748898006577,0.011084407936370595]","[-1,-1,-1]","[-0.15392160926461687,-0.10587877526023745]","[-1,-1,-1]","[0.02,0.02]",153.3453,0,35,35,25,1,,,,,,,
,,,,,,,666d97ca3efe7fbd33436995,682f0fc200e284689ffa3e7b,2025-05-22_13h21.30.895,cuing_paradigm_dot,2024.1.5,Win32,29.94011976,682d573fa47f1360d1451895,,,,,,,,,,,153.346,153.8467,,,154.079,154.4118,left,0.3217,,,,,,,,,0.9,,,,,,153.8468,154.0789,154.4118,"[0.1793715603329916,-0.05916514106117058]","[1,1,1]","[-0.001592082114511348,0.01704955047040622]","[1,1,1]","[0.01607272594716705,0.1931287025806239]","[1,1,1]","[0.09320997244251447,0.12973878189924617]","[1,1,1]","[-0.06782987900410009,0.13408098205158736]","[-1,-1,-1]","[0.008372773871727392,-0.0645413292304325]","[1,1,1]","[-0.17587944779669715,-0.09351429083259401]","[1,1,1]","[-0.06855616033575068,0.18024481343669724]","[1,1,1]","[0.12993837591874238,-0.1410073604719798]","[1,1,1]","[0.040663864571371694,-0.0025500288688810094]","[1,1,1]","[0.06158021367414021,-0.12116074675544694]","[1,1,1]","[-0.18388089965786514,-0.04416876045525233]","[1,1,1]","[0.09318076976177168,-0.05728570161654189]","[1,1,1]","[0.1845871392549816,0.06299196570154124]","[1,1,1]","[0.012649950749810603,-0.14700541398150482]","[1,1,1]","[0.07702874029480114,0.1807849831776932]","[1,1,1]","[-0.11178295680864729,-0.06381925959698204]","[1,1,1]","[-0.02885988309054478,0.1699283426814105]","[1,1,1]","[-0.11080694860618644,0.017731900226999248]","[1,1,1]","[-0.10230769297323895,0.09147570543022362]","[1,1,1]","[-0.0888683387020262,-0.17767936764291847]","[1,1,1]","[0.1410390563947579,-0.009686000388933254]","[1,1,1]","[-0.06629995208100684,-0.12922537122167052]","[1,1,1]","[-0.07628940145180717,0.05590170986657701]","[1,1,1]","[-0.1343994319114746,0.05041751456002737]","[1,1,1]","[0.13198599818467577,0.10541083907623348]","[-1,-1,-1]","[0.18082577972023733,0.003166176769766497]","[1,1,1]","[-0.1693992111511268,0.08402707115414833]","[-1,-1,-1]","[-0.03237639478629722,0.07759352830232297]","[1,1,1]","[0.09936549868569396,0.015226035120099825]","[1,1,1]","[-0.026051044428633097,-0.02241423879932576]","[1,1,1]","[0.0013876498686658284,-0.18950462144711772]","[1,1,1]","[0.02,0.02]",155.5122,0,36,36,180,1,,,,,,,
,,,,,,,666d97ca3efe7fbd33436995,682f0fc200e284689ffa3e7b,2025-05-22_13h21.30.895,cuing_paradigm_dot,2024.1.5,Win32,29.94011976,682d573fa47f1360d1451895,,,,,,,,,,,155.5133,156.0121,,,156.2463,157.0124,right,0.7351,,,,,,,,,0.45,,,,,,156.0122,156.2463,157.0124,"[0.05361926819509148,-0.11797868447330016]","[1,1,1]","[0.021156377871932443,0.10522448561159332]","[1,1,1]","[0.11175754360459905,0.05042297758686567]","[-1,-1,-1]","[0.03364061644733229,-0.06255021730540207]","[1,1,1]","[-0.08965481252052071,-0.11052760828086565]","[-1,-1,-1]","[-0.08373514112163705,-0.05807861905428167]","[-1,-1,-1]","[0.11691068327859783,0.12631984911024519]","[1,1,1]","[-0.15108874653160137,0.020715378565995875]","[1,1,1]","[0.07636657581357614,0.1356099191954736]","[1,1,1]","[0.0063874807720784845,-0.141825923716148]","[-1,-1,-1]","[-0.05606409591455176,-0.18046793655123056]","[1,1,1]","[0.15408620642491402,-0.03621996820268041]","[-1,-1,-1]","[0.11563635308258251,-0.16294970345912596]","[1,1,1]","[-0.10318601132013028,-0.012019782562266795]","[-1,-1,-1]","[0.07199083548284609,0.0654180414826198]","[1,1,1]","[-0.07420615234414134,0.10181934952005425]","[1,1,1]","[-0.07129052542759765,0.17492790207421133]","[-1,-1,-1]","[0.10917239769012194,-0.11708737735689567]","[-1,-1,-1]","[-0.0418650758741246,0.07647053158759783]","[1,1,1]","[-0.10945521358983804,0.039104303588865866]","[-1,-1,-1]","[0.05161506712660853,0.013268110142227264]","[-1,-1,-1]","[0.04432167093469199,0.1790808214979563]","[-1,-1,-1]","[-0.0030003912194759143,0.1581384649000791]","[-1,-1,-1]","[0.030961275687155305,-0.1943377038314296]","[1,1,1]","[-0.01895732239326055,-0.03879724171197253]","[-1,-1,-1]","[0.08977685064671394,-0.06234553135927934]","[-1,-1,-1]","[-0.16129232981436883,-0.03579477526597208]","[1,1,1]","[-0.18413268648996162,0.055966758226683386]","[-1,-1,-1]","[0.17237042098681263,0.08963300111729705]","[-1,-1,-1]","[0.19459155652844168,-0.00979376252466795]","[-1,-1,-1]","[-0.15826009472851207,0.09393346990053349]","[-1,-1,-1]","[0.15000737857407928,-0.1153009920145239]","[1,1,1]","[0.02,0.02]",158.113,0,37,37,77,1,,,,,,,
,,,,,,,666d97ca3efe7fbd33436995,682f0fc200e284689ffa3e7b,2025-05-22_13h21.30.895,cuing_paradigm_dot,2024.1.5,Win32,29.94011976,682d573fa47f1360d1451895,,,,,,,,,,,158.114,158.6121,,,158.8461,159.5455,left,0.6758,,,,,,,,,0.5,,,,,,158.6121,158.846,159.5456,"[0.05510865251681189,-0.08435759379962438]","[1,1,1]","[0.046042716277461614,0.1298026072702394]","[-1,-1,-1]","[-0.014818332966533582,0.018675770821005588]","[-1,-1,-1]","[-0.08033186336810308,-0.04326885859932101]","[1,1,1]","[-0.04735353206883316,0.14248992023208293]","[1,1,1]","[-0.08966964328862356,-0.13584314333481984]","[-1,-1,-1]","[-0.09331695944916726,0.042332336631042244]","[1,1,1]","[0.04237970139758991,0.0007907869163102329]","[-1,-1,-1]","[0.13828089141831293,0.10534506070581491]","[-1,-1,-1]","[-0.048443460551452634,-0.10038733085377503]","[-1,-1,-1]","[-0.1409336912753522,0.05137684591991058]","[-1,-1,-1]","[0.14708119496200375,-0.0779538835560157]","[1,1,1]","[-0.1308649259083232,-0.12218830016589785]","[1,1,1]","[0.10129985672755656,0.08825043267881601]","[1,1,1]","[-0.08324044411666287,0.10180175843628045]","[1,1,1]","[-0.14690475779970955,0.10870658035468414]","[-1,-1,-1]","[-0.03239415183541953,0.08807241841099195]","[-1,-1,-1]","[0.11031359548340604,0.01370378815914814]","[1,1,1]","[0.173714910229383,0.03550212197293891]","[-1,-1,-1]","[-0.1493643789095816,-0.06604551359569687]","[-1,-1,-1]","[-0.004274874470300316,-0.040809328629355344]","[1,1,1]","[0.15330126749259984,-0.010765939246460602]","[1,1,1]","[0.07802330556099805,-0.1626945670646059]","[1,1,1]","[0.1177475893087249,0.14481919759673478]","[-1,-1,-1]","[0.035071912915549446,-0.1749712126821986]","[1,1,1]","[-0.10614102144160321,-0.08812684074657422]","[1,1,1]","[0.0006259034104848612,0.1772925567692271]","[-1,-1,-1]","[0.09066826538811272,-0.055569753485018775]","[1,1,1]","[0.1463001236654692,-0.12706599694187334]","[-1,-1,-1]","[-0.09654921565066377,-0.001151746052171421]","[1,1,1]","[-0.008888835195847213,-0.14154701529472155]","[-1,-1,-1]","[-0.01948142177453623,-0.19191448125166055]","[-1,-1,-1]","[0.02,0.02]",160.6451,0,38,38,112,1,,,,,,,
,,,,,,,666d97ca3efe7fbd33436995,682f0fc200e284689ffa3e7b,2025-05-22_13h21.30.895,cuing_paradigm_dot,2024.1.5,Win32,29.94011976,682d573fa47f1360d1451895,,,,,,,,,,,160.6467,161.1461,,,161.379,162.2459,left,0.8358,,,,,,,,,0.6,,,,,,161.1462,161.3789,162.246,"[-0.18021692034607054,-0.014360656984865135]","[1,1,1]","[-0.0030338002532882217,-0.10025266354392642]","[1,1,1]","[-0.133059569497774,-0.05140010949894909]","[1,1,1]","[0.14426746984744285,-0.10228595392861976]","[1,1,1]","[-0.004932879747900562,0.14906044699455526]","[1,1,1]","[0.09989244510467428,-0.04824822936083794]","[-1,-1,-1]","[0.035865310150078517,-0.019143577991010123]","[-1,-1,-1]","[-0.1172670423757993,0.14114181828531913]","[-1,-1,-1]","[0.05578952955273597,0.17343495366837586]","[-1,-1,-1]","[0.08084837229684134,-0.09987679728643456]","[1,1,1]","[0.07855391631004875,-0.15934139979479187]","[1,1,1]","[-0.030158947485617902,-0.14100354965874126]","[1,1,1]","[0.17898904448605882,0.064636712975167]","[1,1,1]","[-0.08319850743575721,-0.0700258365877471]","[1,1,1]","[-0.14256418861117012,0.01970377623123298]","[-1,-1,-1]","[-0.16720743197379423,0.07072131143392285]","[1,1,1]","[-0.11084993352590708,0.06609834090209485]","[-1,-1,-1]","[0.015507583626463057,-0.15192516540595644]","[1,1,1]","[0.1937995935515899,-0.02849567723437566]","[1,1,1]","[0.10242246337414852,0.06568317856238733]","[-1,-1,-1]","[-0.020120188628489993,-0.18601172104409625]","[1,1,1]","[-0.002607158292721618,0.03224819240395944]","[-1,-1,-1]","[-0.018817706142679955,0.0858873819304149]","[1,1,1]","[0.043742225505604714,0.11236277296121207]","[-1,-1,-1]","[-0.046411328538182264,0.012444644923040248]","[-1,-1,-1]","[0.1347611138861525,0.09676295196660914]","[-1,-1,-1]","[-0.06587168950185593,0.1457222871722293]","[-1,-1,-1]","[-0.06589226679582312,0.10136812857339832]","[1,1,1]","[0.017302204566113904,-0.0563598310161579]","[1,1,1]","[-0.10496749216442106,-0.0103235979742613]","[-1,-1,-1]","[0.16333919513602196,0.016136737162209237]","[1,1,1]","[0.1365343531839942,-0.030671453171263022]","[1,1,1]","[0.02,0.02]",163.3448,0,39,39,163,1,,,,,,,
,,,,,,,666d97ca3efe7fbd33436995,682f0fc200e284689ffa3e7b,2025-05-22_13h21.30.895,cuing_paradigm_dot,2024.1.5,Win32,29.94011976,682d573fa47f1360d1451895,,,,,,,,,,,163.3458,163.8452,,,164.0785,164.8791,right,0.7921,,,,,,,,,0.5,,,,,,163.8455,164.0785,164.8793,"[0.0940955248564072,-0.07030124528435269]","[-1,-1,-1]","[-0.12244527734911927,0.010981699971489425]","[-1,-1,-1]","[0.16394871308426934,0.0784106135268919]","[-1,-1,-1]","[-0.14484761410237212,0.04642566718571301]","[1,1,1]","[0.038828055418308145,-0.0007026718839837909]","[-1,-1,-1]","[-0.004556105878748905,-0.17801116445005521]","[1,1,1]","[0.13542806977249194,0.02698269461687928]","[-1,-1,-1]","[-0.028568504906162515,0.06452604823793956]","[1,1,1]","[-0.015211957474537154,-0.07380550161197105]","[-1,-1,-1]","[0.14265932363175585,-0.06517814822929034]","[-1,-1,-1]","[-0.13111389530928758,0.1014876708105781]","[1,1,1]","[-0.08684665414285501,0.17939669050409018]","[-1,-1,-1]","[-0.06888913429947552,0.004951463269431861]","[1,1,1]","[0.014106525662541789,-0.1267009798760566]","[1,1,1]","[0.07719623028027102,0.17970801647714246]","[1,1,1]","[-0.10711275709322578,-0.08012774631114679]","[1,1,1]","[0.13471830442123578,-0.13163612176164377]","[1,1,1]","[0.11426962357068839,-0.008455600693872894]","[1,1,1]","[0.018748642829093342,0.04262299246305087]","[-1,-1,-1]","[0.05660741399993551,-0.15618480212644076]","[-1,-1,-1]","[0.021593495752470753,0.1811639629683956]","[1,1,1]","[0.18715136892029322,0.017903099503879333]","[1,1,1]","[-0.06101417826326624,-0.13102319896963616]","[-1,-1,-1]","[0.08242814682710749,0.020255986176363906]","[1,1,1]","[0.046640218677053105,0.09115614484854329]","[1,1,1]","[-0.14726303721353817,-0.028339533057381263]","[1,1,1]","[0.11924343359960238,0.06948734380461914]","[-1,-1,-1]","[-0.03537108981027633,0.18728335131626156]","[1,1,1]","[-0.06545713546238717,0.14113527059355863]","[-1,-1,-1]","[0.0400545979986519,-0.04809872591799195]","[-1,-1,-1]","[0.055707018694605724,-0.09722716956483872]","[-1,-1,-1]","[-0.1992034615106526,-0.007935282558916424]","[-1,-1,-1]","[0.02,0.02]",165.9784,0,40,40,102,1,,,,,,,
,,,,,,,666d97ca3efe7fbd33436995,682f0fc200e284689ffa3e7b,2025-05-22_13h21.30.895,cuing_paradigm_dot,2024.1.5,Win32,29.94011976,682d573fa47f1360d1451895,,,,,,,,,,,165.9797,166.4778,,,166.7117,167.0113,left,0.2876,,,,,,,,,0.9,,,,,,166.4779,166.7117,167.0115,"[0.12105335131502254,-0.13940540671838297]","[1,1,1]","[-0.07495122796171694,-0.1748590394069075]","[1,1,1]","[-0.19544742472974763,-0.025638238044579764]","[1,1,1]","[0.16355446322884265,0.04241515155389471]","[1,1,1]","[-0.1364895892577475,0.122723047820526]","[1,1,1]","[-0.07901511626221348,-0.12774761295818382]","[1,1,1]","[-0.19786389449625344,0.016439403415594987]","[1,1,1]","[-0.03466683634458992,-0.044108207621125384]","[1,1,1]","[-0.04056550532781581,0.1867346766569212]","[1,1,1]","[-0.023973697772061098,0.131481429687587]","[1,1,1]","[-0.10370983182876267,0.09827501270303754]","[1,1,1]","[-0.06680706345969943,-0.005537432243669728]","[1,1,1]","[0.04186029852374503,-0.000727086595602344]","[-1,-1,-1]","[-0.0019276064764992573,-0.10165195657663671]","[1,1,1]","[0.07720567105056324,-0.0441533885544951]","[1,1,1]","[0.06107157320225208,-0.14133797799844483]","[1,1,1]","[0.002508804875973496,0.03789400829646977]","[1,1,1]","[0.1444362858644478,0.12258698897526381]","[1,1,1]","[0.13781399911471245,-0.05302732874419539]","[1,1,1]","[0.09350305316188569,0.07557036123306998]","[1,1,1]","[0.05834448372701416,0.05123693713789081]","[1,1,1]","[0.09493471880866654,0.02738617003927649]","[1,1,1]","[-0.08331655297965095,0.04499863267341968]","[1,1,1]","[-0.019758191162443376,-0.15084285924420515]","[1,1,1]","[-0.15341633714985317,0.048662662465749025]","[1,1,1]","[0.029078462663577814,0.16170328107178056]","[1,1,1]","[0.1728534287430079,-0.0801303932066885]","[-1,-1,-1]","[-0.12629316648421884,-0.08501059025927561]","[1,1,1]","[0.07536792454043414,0.14912331953650754]","[1,1,1]","[-0.09761063925418276,-0.03167121514118971]","[-1,-1,-1]","[-0.0899030638593872,0.17679017126394686]","[1,1,1]","[0.14796575082620791,0.08094678559011435]","[1,1,1]","[0.02,0.02]",168.1116,0,41,41,194,1,,,,,,,
,,,,,,,666d97ca3efe7fbd33436995,682f0fc200e284689ffa3e7b,2025-05-22_13h21.30.895,cuing_paradigm_dot,2024.1.5,Win32,29.94011976,682d573fa47f1360d1451895,,,,,,,,,,,168.1136,168.6118,,,168.8452,169.1449,left,0.2752,,,,,,,,,0.9,,,,,,168.6119,168.8451,169.145,"[-0.16089363914995405,-0.06897444070260007]","[1,1,1]","[0.0908162000539191,-0.1724677708994327]","[1,1,1]","[-0.04502166997348338,-0.017227237228441137]","[1,1,1]","[-0.1314892324036631,0.14468696498300235]","[1,1,1]","[-0.09371294492244459,-0.14888548381810918]","[1,1,1]","[-0.0331081722144334,-0.17992263910737838]","[1,1,1]","[-0.12081346498544354,-0.03470277457707939]","[1,1,1]","[0.0006310250530090262,0.16229779456830715]","[1,1,1]","[-0.05953839526069227,0.05190293940400448]","[1,1,1]","[-0.13862547056244737,0.04476989728592963]","[1,1,1]","[0.04478261064766675,0.14415111623883364]","[1,1,1]","[0.15054774313575184,0.12258758348605246]","[1,1,1]","[0.10629609810649697,0.108400037390588]","[1,1,1]","[-0.046698259906727414,0.15590045933900348]","[1,1,1]","[0.0603184034951388,-0.14427357778295669]","[-1,-1,-1]","[0.008092617401041481,-0.0899062576480565]","[1,1,1]","[-0.08204760947422432,0.10119444085688688]","[1,1,1]","[-0.0033841868635367763,-0.03361398014393359]","[1,1,1]","[0.13843514502142898,-0.07618345279831223]","[1,1,1]","[-0.09253369060714246,-0.07566040979064809]","[-1,-1,-1]","[-0.06434558281328696,-0.11551750985396483]","[1,1,1]","[0.15260060382443708,0.03772681702723693]","[1,1,1]","[-0.028188905803124335,0.07702846864492212]","[1,1,1]","[0.1315590946319041,-0.019324413257859382]","[1,1,1]","[0.10662903217762784,-0.11883005944451377]","[1,1,1]","[0.04420742491520734,0.07581960210352567]","[1,1,1]","[-0.17615469948712315,-0.01316919046374171]","[1,1,1]","[-0.080443513379121,0.18293182397137503]","[1,1,1]","[0.013946217734470762,0.11443921366809515]","[1,1,1]","[0.07784232940990064,0.18377149689931127]","[1,1,1]","[0.03788591810773911,-0.03498803218134524]","[-1,-1,-1]","[0.048164334398345096,0.033539078796642564]","[1,1,1]","[0.02,0.02]",170.2449,0,42,42,187,1,,,,,,,
,,,,,,,666d97ca3efe7fbd33436995,682f0fc200e284689ffa3e7b,2025-05-22_13h21.30.895,cuing_paradigm_dot,2024.1.5,Win32,29.94011976,682d573fa47f1360d1451895,,,,,,,,,,,170.2456,170.7446,,,170.979,171.5774,left,0.5665,,,,,,,,,0.45,,,,,,170.7447,170.979,171.5775,"[-0.025264560446197886,0.0926917343423197]","[-1,-1,-1]","[0.04159241782813968,-0.1312624894686918]","[-1,-1,-1]","[-0.027068474373618253,-0.034814188611348384]","[-1,-1,-1]","[0.10402324837989958,-0.04953372802122925]","[-1,-1,-1]","[0.028150859464500026,-0.018351912868702306]","[-1,-1,-1]","[0.09581896249063032,0.1551169952037682]","[-1,-1,-1]","[-0.13633506750043012,-0.014765408593277572]","[-1,-1,-1]","[-0.03904208308980382,0.13455964517901534]","[1,1,1]","[0.0772712765665998,-0.15352153216842684]","[-1,-1,-1]","[0.07012342959637455,0.008314801518331198]","[1,1,1]","[-0.07316095398014164,-0.060944654287708726]","[1,1,1]","[-0.06272241592598259,0.045492764374196894]","[1,1,1]","[0.13647660770992062,0.11685374568136318]","[1,1,1]","[-0.10520927572509407,-0.15322907086955662]","[-1,-1,-1]","[-0.15433330532765366,0.07277120108958636]","[1,1,1]","[0.11059455149298252,0.013981304837524222]","[1,1,1]","[-0.0236768622203677,-0.11017356224353132]","[-1,-1,-1]","[-0.17555345495916597,0.01953194854822248]","[-1,-1,-1]","[0.1611230122129256,0.07532037721257225]","[1,1,1]","[0.040133527989089354,0.14058886463487028]","[1,1,1]","[0.10099499219963216,0.06841680311033209]","[1,1,1]","[0.1873969317655918,0.003856870753382457]","[-1,-1,-1]","[-0.06741696230757524,-0.12678996596212153]","[-1,-1,-1]","[-0.03819942509080474,-0.18783443951801734]","[1,1,1]","[-0.099059359472837,0.15797696064116934]","[-1,-1,-1]","[-0.0659694741769919,0.08604141202540964]","[-1,-1,-1]","[-0.017763793350314437,0.009613757691236203]","[1,1,1]","[0.01997316681474499,0.047908146189669064]","[1,1,1]","[0.01705846516750602,-0.07537680231687242]","[-1,-1,-1]","[0.011259847778448599,0.17714156043722906]","[-1,-1,-1]","[0.12355531282207059,-0.11720364646380128]","[1,1,1]","[-0.06297016396115968,-0.015830485113824386]","[-1,-1,-1]","[0.02,0.02]",172.6777,0,43,43,87,1,,,,,,,
,,,,,,,666d97ca3efe7fbd33436995,682f0fc200e284689ffa3e7b,2025-05-22_13h21.30.895,cuing_paradigm_dot,2024.1.5,Win32,29.94011976,682d573fa47f1360d1451895,,,,,,,,,,,172.6782,173.1777,,,173.4117,173.844,left,0.4014,,,,,,,,,0.55,,,,,,173.1778,173.4116,173.8441,"[0.17875425142845844,-0.06684721927306533]","[1,1,1]","[-0.19441376681302946,0.004986567189895757]","[1,1,1]","[-0.09795579624331777,-0.03130500365998521]","[-1,-1,-1]","[-0.0030632781117224577,0.07839203048597704]","[-1,-1,-1]","[-0.01769960071103557,-0.09034188795232574]","[1,1,1]","[-0.029688452117225254,0.14928231603735262]","[1,1,1]","[-0.1351021277360585,0.05051730729862144]","[1,1,1]","[0.049854432598752524,0.112297890125161]","[-1,-1,-1]","[0.10877801867554324,-0.1672120347397781]","[-1,-1,-1]","[0.06521850798974567,-0.17486745794253783]","[-1,-1,-1]","[0.09024752605997914,0.07723113906738922]","[-1,-1,-1]","[0.05489109045317836,0.03082867258423256]","[1,1,1]","[-0.15380595393810265,-0.12390250210375117]","[1,1,1]","[-0.029557224189975025,0.19699899600428986]","[-1,-1,-1]","[0.12457872795278667,-0.06585403942287286]","[-1,-1,-1]","[0.039363427691544245,-0.09499881402877546]","[1,1,1]","[0.04007920371397344,0.1659848562304541]","[-1,-1,-1]","[-0.08312771971907017,0.007751072346337338]","[-1,-1,-1]","[-0.047397248302874645,-0.04626523052010546]","[1,1,1]","[0.07117304951108817,-0.016670528617987103]","[1,1,1]","[-0.10196146752008169,0.1594792258649066]","[1,1,1]","[-0.0990397327275193,-0.09222134569851323]","[1,1,1]","[0.1574147548365154,0.11139714682698111]","[-1,-1,-1]","[0.12446116980484415,0.003244473619632187]","[-1,-1,-1]","[-0.038330355750313405,-0.1882809138094892]","[-1,-1,-1]","[0.08800236223595896,0.140626681098516]","[-1,-1,-1]","[-0.14483682121358907,-0.08132218157013753]","[1,1,1]","[0.16160663218774313,0.055625046928071485]","[1,1,1]","[0.028552818619891455,-0.19642897366405926]","[1,1,1]","[-0.0497949753768941,0.05192499414575559]","[1,1,1]","[-0.18385184373476782,0.06978629783571338]","[1,1,1]","[0.1848966972260563,0.0024452052871267948]","[1,1,1]","[0.02,0.02]",174.9443,0,44,44,126,1,,,,,,,
