right,left,explain.started,explain.stopped,key_resp_3.keys,key_resp_3.rt,key_resp_3.duration,participant,session,date,expName,psychopyVersion,OS,frameRate,study_id,explain_2.started,explain_2.stopped,key_resp_4.keys,key_resp_4.rt,key_resp_4.duration,explain_3.started,explain_3.stopped,key_resp_5.keys,key_resp_5.rt,key_resp_5.duration,fixation.started,fixation.stopped,practice.started,practice.stopped,response.started,response.stopped,key_resp.keys,feedback.started,feedback.stopped,trials_2.thisRepN,trials_2.thisTrialN,trials_2.thisN,trials_2.thisIndex,trials_2.ran,white_ratio,key_resp.rt,key_resp.duration,explain_4.started,explain_4.stopped,key_resp_6.keys,key_resp_6.rt,key_resp_6.duration,dotDisplay.started,dotDisplay.stopped,ITI.started,polygon_1.pos,polygon_1.color,polygon_2.pos,polygon_2.color,polygon_3.pos,polygon_3.color,polygon_4.pos,polygon_4.color,polygon_5.pos,polygon_5.color,polygon_6.pos,polygon_6.color,polygon_7.pos,polygon_7.color,polygon_8.pos,polygon_8.color,polygon_9.pos,polygon_9.color,polygon_10.pos,polygon_10.color,polygon_11.pos,polygon_11.color,polygon_12.pos,polygon_12.color,polygon_13.pos,polygon_13.color,polygon_14.pos,polygon_14.color,polygon_15.pos,polygon_15.color,polygon_16.pos,polygon_16.color,polygon_17.pos,polygon_17.color,polygon_18.pos,polygon_18.color,polygon_19.pos,polygon_19.color,polygon_20.pos,polygon_20.color,polygon_21.pos,polygon_21.color,polygon_22.pos,polygon_22.color,polygon_23.pos,polygon_23.color,polygon_24.pos,polygon_24.color,polygon_25.pos,polygon_25.color,polygon_26.pos,polygon_26.color,polygon_27.pos,polygon_27.color,polygon_28.pos,polygon_28.color,polygon_29.pos,polygon_29.color,polygon_30.pos,polygon_30.color,polygon_31.pos,polygon_31.color,polygon_32.pos,polygon_32.color,dot_size,ITI.stopped,trials.thisRepN,trials.thisTrialN,trials.thisN,trials.thisIndex,trials.ran,break_2.started,break_2.stopped,trials_3.thisRepN,trials_3.thisTrialN,trials_3.thisN,trials_3.thisIndex,trials_3.ran
subject chose black,subject chose white,0.0003,87.8382,space,72.8169,,667da6b83c73b101dbb3f463,682f0fbe640a0622f8619bb6,2025-05-22_13h52.27.631,cuing_paradigm_dot,2024.1.5,Win32,142.8571429,682d573fa47f1360d1451895,,,,,,,,,,,,,,,,,,,,,,,,,,,,,,,,,,,,,,,,,,,,,,,,,,,,,,,,,,,,,,,,,,,,,,,,,,,,,,,,,,,,,,,,,,,,,,,,,,,,,,,,,,,,,,,,,
,,,,,,,667da6b83c73b101dbb3f463,682f0fbe640a0622f8619bb6,2025-05-22_13h52.27.631,cuing_paradigm_dot,2024.1.5,Win32,142.8571429,682d573fa47f1360d1451895,87.8388,131.5091,space,13.6628,,,,,,,,,,,,,,,,,,,,,,,,,,,,,,,,,,,,,,,,,,,,,,,,,,,,,,,,,,,,,,,,,,,,,,,,,,,,,,,,,,,,,,,,,,,,,,,,,,,,,,,,,,,,,
,,,,,,,667da6b83c73b101dbb3f463,682f0fbe640a0622f8619bb6,2025-05-22_13h52.27.631,cuing_paradigm_dot,2024.1.5,Win32,142.8571429,682d573fa47f1360d1451895,,,,,,131.5094,135.0536,space,0.5402,,,,,,,,,,,,,,,,,,,,,,,,,,,,,,,,,,,,,,,,,,,,,,,,,,,,,,,,,,,,,,,,,,,,,,,,,,,,,,,,,,,,,,,,,,,,,,,,,,,,,,,,
,,,,,,,667da6b83c73b101dbb3f463,682f0fbe640a0622f8619bb6,2025-05-22_13h52.27.631,cuing_paradigm_dot,2024.1.5,Win32,142.8571429,682d573fa47f1360d1451895,,,,,,,,,,,135.07,135.5583,135.5592,135.8071,135.8072,137.3091,,137.3096,138.4045,0,0,0,0,1,0.8,,,,,,,,,,,,,,,,,,,,,,,,,,,,,,,,,,,,,,,,,,,,,,,,,,,,,,,,,,,,,,,,,,,,,,,,,,,,,,,,,,,,,,,,
,,,,,,,667da6b83c73b101dbb3f463,682f0fbe640a0622f8619bb6,2025-05-22_13h52.27.631,cuing_paradigm_dot,2024.1.5,Win32,142.8571429,682d573fa47f1360d1451895,,,,,,,,,,,138.405,138.9036,138.9037,139.1512,139.1512,139.7559,right,139.7559,140.8533,0,1,1,1,1,0.2,0.5981,,,,,,,,,,,,,,,,,,,,,,,,,,,,,,,,,,,,,,,,,,,,,,,,,,,,,,,,,,,,,,,,,,,,,,,,,,,,,,,,,,,,,,,
,,,,,,,667da6b83c73b101dbb3f463,682f0fbe640a0622f8619bb6,2025-05-22_13h52.27.631,cuing_paradigm_dot,2024.1.5,Win32,142.8571429,682d573fa47f1360d1451895,,,,,,,,,,,,,,,,,,,,,,,,,,,,140.8538,153.2288,space,9.3702,,,,,,,,,,,,,,,,,,,,,,,,,,,,,,,,,,,,,,,,,,,,,,,,,,,,,,,,,,,,,,,,,,,,,,,,,,,,,,,,,,
,,,,,,,667da6b83c73b101dbb3f463,682f0fbe640a0622f8619bb6,2025-05-22_13h52.27.631,cuing_paradigm_dot,2024.1.5,Win32,142.8571429,682d573fa47f1360d1451895,,,,,,,,,,,153.2386,153.7328,,,153.9797,154.8481,right,,,,,,,,0.45,0.8576,,,,,,,153.7331,153.9796,154.8484,"[0.18922022798970983,-0.05582273002208685]","[-1,-1,-1]","[0.012442441875076943,-0.14812170188084461]","[1,1,1]","[0.12554502755161134,0.11878208940823408]","[-1,-1,-1]","[-0.17446114867446796,-0.06162874526207047]","[1,1,1]","[0.04224305977082558,0.019182233462536995]","[1,1,1]","[0.05083226630692146,-0.09504575296551208]","[-1,-1,-1]","[0.005205493174612062,0.07613036118156163]","[1,1,1]","[0.1447304658879129,0.012104189815312489]","[1,1,1]","[-0.07945353887572794,-0.12530304080247787]","[-1,-1,-1]","[0.10250758165721613,0.019572197426827906]","[1,1,1]","[0.06860059985547212,0.15454861591399496]","[-1,-1,-1]","[0.12184985066241642,-0.11458180187712858]","[1,1,1]","[0.005666898182023615,0.0005449991488523357]","[-1,-1,-1]","[-0.11748299053012917,-0.07987892395774646]","[-1,-1,-1]","[-0.0031459926485655192,0.11650877060198597]","[1,1,1]","[0.010530784904438682,-0.05786015912878482]","[-1,-1,-1]","[-0.14697677288065242,0.10860416162191686]","[-1,-1,-1]","[0.09352008073636198,-0.03248052294346899]","[-1,-1,-1]","[0.034456822827391535,0.189684259004743]","[-1,-1,-1]","[-0.050891130855496375,0.14300533145447278]","[1,1,1]","[-0.13681795114677112,0.04436845325549462]","[1,1,1]","[-0.19524612422744317,-0.02257026458663603]","[1,1,1]","[-0.09012925117678823,0.011984611749573893]","[1,1,1]","[0.05802306132441737,0.07504306088262232]","[-1,-1,-1]","[-0.03859670053057484,-0.13173025567269078]","[1,1,1]","[0.07389020317950942,-0.17845909545635175]","[-1,-1,-1]","[0.039587555212818766,0.12452661235766911]","[1,1,1]","[-0.08875184202623061,0.10703429279393685]","[-1,-1,-1]","[-0.04618949027009226,-0.08600861175209133]","[-1,-1,-1]","[0.09898355072012698,0.0666517523357943]","[-1,-1,-1]","[0.00886102553550272,-0.10645498067250429]","[-1,-1,-1]","[0.08805932816318167,-0.07699920196167902]","[-1,-1,-1]","[0.02,0.02]",155.9467,0,0,0,89,1,,,,,,,
,,,,,,,667da6b83c73b101dbb3f463,682f0fbe640a0622f8619bb6,2025-05-22_13h52.27.631,cuing_paradigm_dot,2024.1.5,Win32,142.8571429,682d573fa47f1360d1451895,,,,,,,,,,,155.947,156.4485,,,156.6955,157.6418,right,,,,,,,,0.4,0.9394,,,,,,,156.4486,156.6954,157.642,"[0.03916806526139789,0.09567330557674451]","[-1,-1,-1]","[-0.13513228050716197,-0.036210044205196724]","[1,1,1]","[0.10447779456963677,-0.021965005709714]","[-1,-1,-1]","[-0.10967652748190763,0.03132073767574912]","[1,1,1]","[-0.04458072948821128,0.016770521543444487]","[-1,-1,-1]","[-0.011883245267839857,0.08807817176651243]","[-1,-1,-1]","[-0.01976409620560708,-0.08199422839077228]","[-1,-1,-1]","[0.05985875162728267,-0.16450467209376907]","[1,1,1]","[-0.13754236298609748,0.1118425921508945]","[1,1,1]","[0.12778031987199834,0.04137133576042492]","[-1,-1,-1]","[-0.14765932908517293,0.017483206225569967]","[1,1,1]","[0.14383568551431888,-0.10169229058656083]","[-1,-1,-1]","[0.00795920308821895,0.14294068681149083]","[-1,-1,-1]","[-0.021860382302351017,0.190024318081888]","[-1,-1,-1]","[0.06873768564074485,0.13954278994597002]","[1,1,1]","[0.14376167827956443,0.1069245954660177]","[-1,-1,-1]","[-0.19450756414478199,-0.013253145493957928]","[-1,-1,-1]","[-0.0550916956529889,-0.025528738939524988]","[-1,-1,-1]","[-0.008212879248574773,-0.17754339623214851]","[-1,-1,-1]","[-0.0954840889476056,0.15666160993070447]","[-1,-1,-1]","[0.06204425953254938,0.007122115265831332]","[1,1,1]","[0.16662804550926918,-0.022028089388822482]","[1,1,1]","[-0.16437500735443053,0.06327395941633929]","[-1,-1,-1]","[-0.04483903552579909,0.11791154922034401]","[-1,-1,-1]","[0.07808323548967191,0.06673204569783142]","[-1,-1,-1]","[0.014836564644732892,0.0014287425824463032]","[1,1,1]","[0.08431980524745158,-0.12890391071093604]","[-1,-1,-1]","[-0.14398205965441677,-0.11417211623757302]","[1,1,1]","[-0.1156731248604008,-0.15213720977421566]","[-1,-1,-1]","[0.1680153584527589,0.03422785690740307]","[1,1,1]","[-0.06345802609766163,-0.12361010933856703]","[1,1,1]","[-0.06877196181277372,0.06399393074086107]","[1,1,1]","[0.02,0.02]",158.7434,0,1,1,49,1,,,,,,,
,,,,,,,667da6b83c73b101dbb3f463,682f0fbe640a0622f8619bb6,2025-05-22_13h52.27.631,cuing_paradigm_dot,2024.1.5,Win32,142.8571429,682d573fa47f1360d1451895,,,,,,,,,,,158.744,159.2437,,,159.4936,160.0692,right,,,,,,,,0.1,0.5689,,,,,,,159.2438,159.4936,160.0694,"[-0.036450035784668336,0.18719683348380484]","[-1,-1,-1]","[-0.053859082142845065,-0.1806410497056377]","[1,1,1]","[0.04908241722455218,-0.076234096623208]","[-1,-1,-1]","[-0.13844024787726592,-0.07758496164701875]","[-1,-1,-1]","[0.010294123860348198,-0.05515801120951227]","[-1,-1,-1]","[0.03320234791801909,-0.01882318545141941]","[-1,-1,-1]","[0.0951854536852979,0.16836916868199434]","[-1,-1,-1]","[0.06922269281946086,0.08717167948638455]","[-1,-1,-1]","[-0.013473343538423483,-0.004440839308485689]","[-1,-1,-1]","[0.10395638631165563,0.052141639348431607]","[1,1,1]","[0.07071392987893103,-0.12499552406267085]","[-1,-1,-1]","[0.10486956997636779,-0.15547241060785455]","[-1,-1,-1]","[0.14597452899890245,-0.00786666998667481]","[-1,-1,-1]","[-0.12328753551913291,-0.03896348540747274]","[-1,-1,-1]","[-0.1522119762867659,0.1169385913673965]","[-1,-1,-1]","[-0.06417458500354607,0.03924731985087866]","[-1,-1,-1]","[-0.015452500997034617,0.1326262063119246]","[1,1,1]","[0.17572996551786216,0.07677310604213722]","[-1,-1,-1]","[-0.047795111128327884,-0.0992284105075849]","[-1,-1,-1]","[0.1354184505915318,0.09395264889970652]","[-1,-1,-1]","[0.060491145333701764,0.02658880079384333]","[-1,-1,-1]","[-0.18916638868212543,-0.007004222289059072]","[-1,-1,-1]","[0.015307874140814293,-0.120229294317098]","[-1,-1,-1]","[-0.056801927470563854,-0.030184239423092465]","[-1,-1,-1]","[0.14742348313421208,-0.06122835667867984]","[-1,-1,-1]","[-0.12590228645422655,0.05828068736372484]","[-1,-1,-1]","[-0.07325138510300791,0.1441662629064391]","[-1,-1,-1]","[0.05106807462266092,0.19034895501403865]","[-1,-1,-1]","[-0.10980603743651791,0.00979445816617214]","[-1,-1,-1]","[0.10383052592956472,-0.07589236900012925]","[-1,-1,-1]","[0.04463726313301046,0.14727944886550032]","[-1,-1,-1]","[0.005516303703184815,0.07089434365113272]","[-1,-1,-1]","[0.02,0.02]",161.1706,0,2,2,28,1,,,,,,,
,,,,,,,667da6b83c73b101dbb3f463,682f0fbe640a0622f8619bb6,2025-05-22_13h52.27.631,cuing_paradigm_dot,2024.1.5,Win32,142.8571429,682d573fa47f1360d1451895,,,,,,,,,,,161.1708,161.6704,,,161.9262,163.0171,right,,,,,,,,0.5,1.084,,,,,,,161.6704,161.9262,163.0171,"[0.14610439057239757,-0.08776738407143915]","[-1,-1,-1]","[0.0666207851451032,-0.007063471473066816]","[-1,-1,-1]","[0.03902052370215923,0.18743852778520337]","[1,1,1]","[0.023532419617200342,0.12576797554839544]","[1,1,1]","[-0.09843254964968706,-0.15063421967569893]","[-1,-1,-1]","[0.029899088216017087,-0.1286277209383318]","[1,1,1]","[-0.02715839751452835,0.06486034098971159]","[-1,-1,-1]","[0.08215561376207184,-0.1464985753265633]","[-1,-1,-1]","[-0.07447664076044477,0.13755835254705587]","[1,1,1]","[0.18863645804070495,0.017739819489799254]","[-1,-1,-1]","[-0.12075894654180949,-0.11448594252570383]","[1,1,1]","[-0.16714042477962168,-0.00649661018505264]","[1,1,1]","[0.07655598165671666,0.109991643706822]","[-1,-1,-1]","[0.1083820176102312,0.085444214591879]","[-1,-1,-1]","[-0.029293229535798646,0.019387186951462174]","[-1,-1,-1]","[-0.028811758515259703,-0.13949084693493016]","[1,1,1]","[-0.14615467280289252,0.029911826039490053]","[-1,-1,-1]","[-0.1561116692118869,0.11586408210405844]","[1,1,1]","[-0.11045817338213985,0.12002393973799234]","[1,1,1]","[-0.07435160832522314,-0.02797389568742909]","[-1,-1,-1]","[0.09211945333232245,-0.04682195815514906]","[-1,-1,-1]","[-0.023368757984974498,-0.1794842473587689]","[-1,-1,-1]","[0.13635227597365318,0.005426749769297615]","[1,1,1]","[-0.0388410301830765,-0.06448938573112749]","[-1,-1,-1]","[-0.14725699514178872,-0.0632199899666369]","[1,1,1]","[0.017322675205430457,-0.046199978633578026]","[1,1,1]","[0.01088854752022654,0.04661390086621127]","[1,1,1]","[-0.003732026244807155,-0.10457200640418535]","[1,1,1]","[-0.0015622349318517041,0.1580963827372311]","[-1,-1,-1]","[-0.09797919788600089,0.012325395405359284]","[-1,-1,-1]","[0.07884920364126682,-0.09647382553526769]","[1,1,1]","[0.19522805084134415,-0.034338131418421715]","[1,1,1]","[0.02,0.02]",164.1206,0,3,3,113,1,,,,,,,
,,,,,,,667da6b83c73b101dbb3f463,682f0fbe640a0622f8619bb6,2025-05-22_13h52.27.631,cuing_paradigm_dot,2024.1.5,Win32,142.8571429,682d573fa47f1360d1451895,,,,,,,,,,,164.1218,164.6201,,,164.8682,165.3907,left,,,,,,,,0.6,0.514,,,,,,,164.6202,164.8682,165.391,"[0.06958550829300957,-0.07240082759889252]","[1,1,1]","[0.154286372627833,0.08201354846298319]","[1,1,1]","[0.12344581634725249,-0.06644745735808667]","[-1,-1,-1]","[-0.001718348791885331,0.08823341964953987]","[-1,-1,-1]","[-0.18049914567344555,-0.0700007892977807]","[1,1,1]","[-0.09233633252691488,0.14342559059721707]","[1,1,1]","[0.15813225759259888,0.12193802603440361]","[1,1,1]","[-0.03180843454876667,0.14354994616705052]","[1,1,1]","[0.0329851460427428,0.03551725061464469]","[-1,-1,-1]","[0.13132361399503045,-0.13476658373757766]","[1,1,1]","[-0.09156817483813547,-0.06867400969879428]","[1,1,1]","[0.15954414250562166,0.022474712913836865]","[-1,-1,-1]","[-0.10216381569652885,-0.14800494180561435]","[1,1,1]","[0.09503675038270167,0.06738767126241431]","[1,1,1]","[-0.15956842325488108,0.03646145782948061]","[1,1,1]","[0.050142099919938156,-0.11588103886458574]","[1,1,1]","[0.02605252247418002,-0.19716929227200405]","[1,1,1]","[-0.111206120544525,0.040642789327433135]","[-1,-1,-1]","[-0.13489631538087862,-0.10765464391267371]","[1,1,1]","[-0.014969407557079662,-0.12450575603150377]","[-1,-1,-1]","[-0.04482301839743319,0.0843049349063101]","[-1,-1,-1]","[-0.014127612113720248,0.025410676342156602]","[1,1,1]","[-0.13957678892000178,-0.020552255807998195]","[-1,-1,-1]","[0.09047758942357144,-0.02509710983703242]","[-1,-1,-1]","[0.05248496265450572,0.08718538122754138]","[-1,-1,-1]","[0.03493954624047313,0.17131615187158852]","[1,1,1]","[0.036004966633035956,-0.040038758842848195]","[-1,-1,-1]","[0.06773439217498985,0.1456872845791155]","[-1,-1,-1]","[-0.05502581997017377,-0.021357963704309223]","[1,1,1]","[-0.021860777082751817,-0.07310770780031506]","[1,1,1]","[-0.1788899923245575,0.07571314634203703]","[1,1,1]","[0.16657214443385376,-0.021599344170524656]","[-1,-1,-1]","[0.02,0.02]",166.4857,0,4,4,173,1,,,,,,,
,,,,,,,667da6b83c73b101dbb3f463,682f0fbe640a0622f8619bb6,2025-05-22_13h52.27.631,cuing_paradigm_dot,2024.1.5,Win32,142.8571429,682d573fa47f1360d1451895,,,,,,,,,,,166.4859,166.9778,,,167.225,167.7825,left,,,,,,,,0.6,0.5493,,,,,,,166.978,167.2249,167.7826,"[0.15807062689715484,0.060470348794022404]","[-1,-1,-1]","[0.013490710803983723,-0.046232406853031906]","[1,1,1]","[-0.02864083387140669,-0.08062814556372035]","[-1,-1,-1]","[0.04901297497171773,-0.08200769744442502]","[1,1,1]","[0.031241910230151087,0.19107346886338683]","[-1,-1,-1]","[-0.1868811982452498,0.0056935700117516485]","[1,1,1]","[0.1362003187149833,-0.05650375406495775]","[-1,-1,-1]","[0.10197571221246496,-0.13467122336299303]","[1,1,1]","[0.04407765741724126,0.037669144887070655]","[-1,-1,-1]","[0.12119188540357881,-0.007127226988571066]","[1,1,1]","[-0.037724914621422086,-0.13000964990573932]","[1,1,1]","[-0.005127564117760709,0.1707801210334872]","[1,1,1]","[-0.13212433129192816,-0.07798598965585532]","[1,1,1]","[0.057961432225287095,0.09716284819324997]","[-1,-1,-1]","[-0.14663052925551937,-0.12081952133323048]","[-1,-1,-1]","[0.12138799668428749,0.133602326879626]","[1,1,1]","[0.17987377577824282,-0.05445271062337516]","[1,1,1]","[-0.183496446929942,-0.04231448736940326]","[-1,-1,-1]","[0.13604722640330708,0.09471699888319823]","[1,1,1]","[0.07296163872514466,-0.017524739792605493]","[1,1,1]","[-0.011745786803558048,0.058048066179636926]","[-1,-1,-1]","[0.10243825790755404,0.03248172316035666]","[-1,-1,-1]","[-0.05924749132763585,0.10553675000328515]","[1,1,1]","[-0.12372977668522456,0.08162261372341831]","[1,1,1]","[0.007350021942230149,0.11212915188416527]","[1,1,1]","[-0.10109747964056637,0.1186990876697078]","[1,1,1]","[0.03498790965036031,-0.1945155197208994]","[1,1,1]","[-0.06213142172064284,0.030343754652511625]","[1,1,1]","[0.1372775619263565,-0.112596570611451]","[1,1,1]","[-0.10390780835489041,-0.04075942692762826]","[-1,-1,-1]","[0.10176084898997692,0.07288849159930356]","[-1,-1,-1]","[0.1654800718985478,-0.016847340643686336]","[-1,-1,-1]","[0.02,0.02]",168.8853,0,5,5,162,1,,,,,,,
,,,,,,,667da6b83c73b101dbb3f463,682f0fbe640a0622f8619bb6,2025-05-22_13h52.27.631,cuing_paradigm_dot,2024.1.5,Win32,142.8571429,682d573fa47f1360d1451895,,,,,,,,,,,168.8856,169.3839,,,169.6322,170.6989,right,,,,,,,,0.45,1.0618,,,,,,,169.384,169.6322,170.699,"[-0.008170968747329472,-0.0712807300665975]","[-1,-1,-1]","[0.10257164164491708,0.01517549314554968]","[-1,-1,-1]","[-0.03827998615918052,-0.020560594474147088]","[1,1,1]","[-0.12320116204180814,-0.10550289035086698]","[-1,-1,-1]","[-0.09761586136433759,-0.008884576118173327]","[-1,-1,-1]","[-0.006391854577972963,0.1878523666457552]","[-1,-1,-1]","[-0.022500105882282715,0.020413082020339972]","[-1,-1,-1]","[0.10505446086320777,-0.08506285130714564]","[-1,-1,-1]","[0.1710315114724883,0.03793922534281912]","[1,1,1]","[-0.050427643107553016,0.13346352512243004]","[-1,-1,-1]","[-0.05340457749579917,0.18093709809931682]","[-1,-1,-1]","[-0.16430653679587034,0.04525841604611977]","[1,1,1]","[-0.1100246269700447,0.14249631012836]","[-1,-1,-1]","[0.05285947505330625,-0.021907035604609833]","[-1,-1,-1]","[-0.1434536182767943,-0.014630051771584423]","[1,1,1]","[-0.0029923669513691165,0.13750833355875525]","[-1,-1,-1]","[-0.1383455695327511,-0.05565191230697074]","[1,1,1]","[0.07637325220319462,0.15855899699424483]","[1,1,1]","[0.030734630217423106,-0.1633045646463915]","[1,1,1]","[-0.014760028981725027,0.08984656511706289]","[1,1,1]","[-0.08366071721853816,0.07353943354482578]","[-1,-1,-1]","[-0.07102656372798657,-0.1526155063912215]","[1,1,1]","[-0.16257551175290172,-0.11490196928507172]","[1,1,1]","[0.034746127344400815,0.15411577990174136]","[-1,-1,-1]","[0.15229686773666384,0.09464992302901833]","[1,1,1]","[0.05958998218735275,0.031606045447651505]","[-1,-1,-1]","[0.1574899661956015,-0.06015624468717147]","[1,1,1]","[0.08223015968723356,-0.1530475443621127]","[-1,-1,-1]","[0.15711152256234726,-0.12128616211590061]","[1,1,1]","[0.06253488793344181,-0.09561125472227779]","[-1,-1,-1]","[-0.165142264795744,0.10516998469447059]","[-1,-1,-1]","[0.12798825908348166,0.15000924136344665]","[1,1,1]","[0.02,0.02]",171.8005,0,6,6,79,1,,,,,,,
,,,,,,,667da6b83c73b101dbb3f463,682f0fbe640a0622f8619bb6,2025-05-22_13h52.27.631,cuing_paradigm_dot,2024.1.5,Win32,142.8571429,682d573fa47f1360d1451895,,,,,,,,,,,171.8008,172.2998,,,172.5502,173.1607,left,,,,,,,,0.5,0.5991,,,,,,,172.3,172.5501,173.1608,"[0.0731215488043483,0.07023991557397881]","[-1,-1,-1]","[0.12053158354857506,-0.08760963652348096]","[-1,-1,-1]","[-0.17034679326459987,-0.09976459267866465]","[1,1,1]","[0.052990025655792174,-0.11832358927398197]","[1,1,1]","[-0.1877211815428282,-0.006195468815019556]","[-1,-1,-1]","[0.012247311310816638,-0.06170970615113161]","[-1,-1,-1]","[-0.0593615289879771,-0.16727157232873527]","[-1,-1,-1]","[-0.08030290280616512,0.09153180471985932]","[1,1,1]","[0.13697551196779872,0.013491673839777774]","[-1,-1,-1]","[0.04066313884313033,-0.16154455860885178]","[-1,-1,-1]","[0.1224353568328658,0.10689167249390816]","[-1,-1,-1]","[-0.05240459021845962,0.13354468599266126]","[1,1,1]","[-0.032328964293915775,-0.0927146582790263]","[-1,-1,-1]","[-0.055917690977616064,0.026489374149187762]","[1,1,1]","[-0.1850940943365968,0.051052032510706294]","[1,1,1]","[0.14305742531399518,-0.13624051927232855]","[1,1,1]","[0.06344386806606624,-0.06547796596717485]","[1,1,1]","[0.03629428606760481,0.19390147586467524]","[1,1,1]","[-0.09816289379581658,-0.02756913547615601]","[-1,-1,-1]","[0.05622633607773422,-0.022975078152251215]","[1,1,1]","[-0.12512425039047517,0.11577066589264536]","[-1,-1,-1]","[0.013845121753812268,0.13406303764739375]","[-1,-1,-1]","[-0.11022103138392966,-0.07872372274456813]","[-1,-1,-1]","[0.0011720685040053469,-0.14053863376124484]","[-1,-1,-1]","[-0.027660549812258083,-0.020838883760731827]","[1,1,1]","[0.18059662101961974,0.022362055326731817]","[1,1,1]","[0.09117884590030352,0.16676603523861358]","[-1,-1,-1]","[-0.018134101503749923,0.06722285505299508]","[1,1,1]","[0.023924675507639166,0.008156344895323481]","[-1,-1,-1]","[0.0650010593571983,0.13143836359837513]","[1,1,1]","[0.1809523229043653,0.07850875418539688]","[1,1,1]","[-0.14970766482385325,-0.02395133148022177]","[1,1,1]","[0.02,0.02]",174.2621,0,7,7,102,1,,,,,,,
,,,,,,,667da6b83c73b101dbb3f463,682f0fbe640a0622f8619bb6,2025-05-22_13h52.27.631,cuing_paradigm_dot,2024.1.5,Win32,142.8571429,682d573fa47f1360d1451895,,,,,,,,,,,174.2625,174.7609,,,175.0128,175.6643,left,,,,,,,,0.5,0.6464,,,,,,,174.761,175.0127,175.6645,"[0.002163048507134565,0.06796776399571819]","[1,1,1]","[0.1563750918663871,-0.12078306893258434]","[-1,-1,-1]","[0.07886901568072582,0.1687496576052034]","[-1,-1,-1]","[0.14771584191533574,0.11971504649673609]","[-1,-1,-1]","[0.00955123137823295,-0.0033106061017773563]","[-1,-1,-1]","[0.16948555303175952,-0.048156470430887575]","[1,1,1]","[0.09904672495208713,0.10954697092964817]","[-1,-1,-1]","[0.07580761259349987,0.04909922476517535]","[-1,-1,-1]","[-0.0708453300468614,-0.1257284171749239]","[1,1,1]","[-0.17766590757065207,-0.03989034027431687]","[1,1,1]","[0.004277352597161309,-0.0857055024814387]","[1,1,1]","[-0.13998597963711223,0.10974156607798048]","[-1,-1,-1]","[0.13039385061898726,-0.0646588613034746]","[1,1,1]","[0.02543653273974666,-0.16808881818319382]","[-1,-1,-1]","[-0.12287149918726598,-0.11356424148687673]","[1,1,1]","[0.11152864448212217,-0.13435002211926686]","[-1,-1,-1]","[-0.07430205785725408,0.1337272422633723]","[1,1,1]","[0.028531995715743257,-0.042110067958807604]","[1,1,1]","[-0.14999270250110325,0.0034187428610022064]","[-1,-1,-1]","[0.006213646272711381,0.17250221722319234]","[1,1,1]","[-0.018318665507633034,0.1111205027716367]","[-1,-1,-1]","[-0.18458187948541357,0.057166891715170795]","[1,1,1]","[-0.048520244878968055,-0.045623003375687796]","[-1,-1,-1]","[0.08661865381532492,-0.04716480351263093]","[-1,-1,-1]","[0.03536581328445832,-0.11506406306631023]","[1,1,1]","[0.026098776517284986,0.13016030731253792]","[-1,-1,-1]","[-0.038819330686052686,-0.0031925226042749015]","[1,1,1]","[-0.09708998103844828,0.060812042873848844]","[1,1,1]","[0.13935848662229428,0.034443370146453]","[1,1,1]","[-0.05086419650996409,-0.19177469576904957]","[1,1,1]","[-0.1939238178620013,0.007894752512008373]","[-1,-1,-1]","[-0.11412540835292377,0.1582016343356316]","[-1,-1,-1]","[0.02,0.02]",176.7598,0,8,8,112,1,,,,,,,
,,,,,,,667da6b83c73b101dbb3f463,682f0fbe640a0622f8619bb6,2025-05-22_13h52.27.631,cuing_paradigm_dot,2024.1.5,Win32,142.8571429,682d573fa47f1360d1451895,,,,,,,,,,,176.7606,177.2622,,,177.5101,178.0644,right,,,,,,,,0.45,0.5492,,,,,,,177.2622,177.51,178.0645,"[0.015920050818004673,0.09827398337036848]","[-1,-1,-1]","[-0.024351904861091372,0.16533525510962435]","[-1,-1,-1]","[-0.15044395996321475,-0.07349634890446073]","[-1,-1,-1]","[-0.026006742737680135,0.019781494724808824]","[-1,-1,-1]","[-0.12642549985887325,0.030665902073921305]","[-1,-1,-1]","[-0.0429609100046324,-0.09121626030005459]","[1,1,1]","[-0.13206446293463392,0.11427216118447528]","[-1,-1,-1]","[0.07533496740440472,0.05613586317249658]","[1,1,1]","[-0.17042806699987073,-0.013518885642261565]","[1,1,1]","[0.16732085084881207,-0.04378344055377166]","[1,1,1]","[-0.06365510703612905,0.0717834613742244]","[-1,-1,-1]","[0.10194927349518483,0.1479208023023342]","[1,1,1]","[-0.17604811938893325,0.04392493829372095]","[-1,-1,-1]","[0.11114203664075326,-0.12580575811893624]","[-1,-1,-1]","[-0.028960776540352215,-0.1740119831718366]","[1,1,1]","[0.020038366227534268,0.1438644077687684]","[-1,-1,-1]","[0.0771254922822199,0.0020818959118787637]","[1,1,1]","[0.052345928458769245,-0.14429876430907065]","[-1,-1,-1]","[0.12536243371748254,0.042941130002122484]","[1,1,1]","[-0.07885909692922344,-0.02077656615865026]","[-1,-1,-1]","[-0.022843115149887187,-0.033480359358521145]","[-1,-1,-1]","[0.14523203647549093,0.10909088154834114]","[1,1,1]","[0.01565144525968346,-0.16586112607619882]","[-1,-1,-1]","[0.152560889782173,-0.11173897917948292]","[1,1,1]","[-0.017530657579941867,0.06301596695467719]","[1,1,1]","[-0.07730528466283744,0.16357466132487064]","[1,1,1]","[0.05438219069824455,-0.10134611919773057]","[1,1,1]","[0.03153617154324515,0.018602824542924664]","[-1,-1,-1]","[0.039054054401618084,-0.04470408330008089]","[-1,-1,-1]","[0.017299656481558855,0.19092900683557487]","[-1,-1,-1]","[-0.10752482160800515,-0.1635708889170676]","[-1,-1,-1]","[0.09766639264996965,-0.04175829074494356]","[1,1,1]","[0.02,0.02]",179.161,0,9,9,87,1,,,,,,,
,,,,,,,667da6b83c73b101dbb3f463,682f0fbe640a0622f8619bb6,2025-05-22_13h52.27.631,cuing_paradigm_dot,2024.1.5,Win32,142.8571429,682d573fa47f1360d1451895,,,,,,,,,,,179.1615,179.6573,,,179.905,180.5965,left,,,,,,,,0.4,0.6799,,,,,,,179.6574,179.905,180.5965,"[0.11269601670554158,-0.04630648562257626]","[1,1,1]","[-0.1549563419253098,-0.08555486246048224]","[1,1,1]","[0.005665591422655893,-0.16610979768356812]","[-1,-1,-1]","[0.03603191357709596,0.17438615687753983]","[-1,-1,-1]","[-0.13058288161336354,0.06363011670718892]","[1,1,1]","[0.11799651125630618,0.03178421614370016]","[-1,-1,-1]","[-0.024655969903960354,0.10033612181884083]","[-1,-1,-1]","[0.05799547576133998,0.01311836981804146]","[-1,-1,-1]","[-0.05210143812121182,0.016512512026773347]","[1,1,1]","[-0.03229259110194399,0.18736557425037786]","[-1,-1,-1]","[-0.06559543445456198,0.16231846585396142]","[-1,-1,-1]","[0.08645229536769174,-0.14833280291298484]","[-1,-1,-1]","[-0.13068137848640546,0.12547246667852086]","[-1,-1,-1]","[0.17464469436589222,-0.09259907423948732]","[-1,-1,-1]","[-0.0792703514147031,-0.14418737709322202]","[1,1,1]","[-0.19146391739933813,-0.054786163851354]","[-1,-1,-1]","[-0.05397868161941548,-0.05000455681702476]","[-1,-1,-1]","[0.053293998973491304,-0.10775160714264041]","[1,1,1]","[-0.08567679474205385,-0.013335294198210126]","[-1,-1,-1]","[0.07537761363774777,0.10204774909672774]","[1,1,1]","[0.18368873478664016,-0.01314251642078393]","[-1,-1,-1]","[-0.12156328477472468,-0.12788192754611774]","[1,1,1]","[0.13676927252622378,0.08797145405139799]","[-1,-1,-1]","[-0.19005511048485868,0.04468485178693378]","[1,1,1]","[-0.12452529429530329,0.005965386575953836]","[-1,-1,-1]","[0.0724997232825288,-0.028589563070247157]","[-1,-1,-1]","[0.059039059332888784,0.05554881996091728]","[-1,-1,-1]","[-0.0869715202343778,0.0649208875432279]","[1,1,1]","[0.03579870044238826,-0.19633128989165052]","[1,1,1]","[0.13658576042856546,-0.1191822856785037]","[1,1,1]","[0.01117554733128989,0.036284433033506626]","[1,1,1]","[0.18980435129188325,-0.05455845794130573]","[-1,-1,-1]","[0.02,0.02]",181.6926,0,10,10,56,1,,,,,,,
,,,,,,,667da6b83c73b101dbb3f463,682f0fbe640a0622f8619bb6,2025-05-22_13h52.27.631,cuing_paradigm_dot,2024.1.5,Win32,142.8571429,682d573fa47f1360d1451895,,,,,,,,,,,181.6932,182.1912,,,182.4395,183.1358,right,,,,,,,,0.5,0.6891,,,,,,,182.1912,182.4395,183.1358,"[0.03609047191589321,0.020223040469793667]","[-1,-1,-1]","[-0.10559160081150228,0.09425775871969548]","[1,1,1]","[0.0944390126671857,0.13095891088132516]","[1,1,1]","[-0.15056026776155335,0.02487334153343568]","[-1,-1,-1]","[-0.04530106330292896,0.09767067721095339]","[-1,-1,-1]","[0.007577992609800953,-0.12284349633582448]","[-1,-1,-1]","[0.1387274327543392,-0.07770338966552114]","[-1,-1,-1]","[0.059535101628886936,0.09773496834862512]","[-1,-1,-1]","[0.0103508409357118,-0.04507836199142863]","[-1,-1,-1]","[-0.1292735330773158,-0.021117442455326985]","[-1,-1,-1]","[0.0896574438169781,-0.1449198253398793]","[1,1,1]","[0.18221690134863133,-0.05926506982030568]","[-1,-1,-1]","[-0.17569667118486718,-0.06835103432116273]","[1,1,1]","[0.031589919967129856,0.06733441558090607]","[1,1,1]","[-0.09675172164202621,0.14768532261431014]","[1,1,1]","[-0.08818570796196624,-0.06842084584387377]","[1,1,1]","[-0.13532315864168515,0.12537494469451102]","[1,1,1]","[-0.05187954908450493,0.1448541500215512]","[1,1,1]","[0.1070862176049767,0.06407431438827842]","[-1,-1,-1]","[0.03509828333116625,0.13226254810592658]","[-1,-1,-1]","[-0.06547651180390661,-0.1844525998102113]","[-1,-1,-1]","[-0.03599436137186317,0.046166343200644624]","[1,1,1]","[-0.08098705087730312,0.02320898729539366]","[1,1,1]","[0.030398946655646658,-0.19122168216456922]","[1,1,1]","[0.1325762356543181,0.14888527183667194]","[1,1,1]","[-0.09288235684654701,-0.12958864304576814]","[-1,-1,-1]","[-0.02253043435356708,-0.009067173714619113]","[-1,-1,-1]","[-0.03036379488684563,-0.14702791533245133]","[1,1,1]","[0.0414011766003727,0.17397868831868704]","[1,1,1]","[0.1510282583639795,0.1055047873271622]","[-1,-1,-1]","[0.12707322915470304,0.008799686066444387]","[-1,-1,-1]","[0.001174077840134345,0.09807330190399889]","[1,1,1]","[0.02,0.02]",184.2324,0,11,11,93,1,,,,,,,
,,,,,,,667da6b83c73b101dbb3f463,682f0fbe640a0622f8619bb6,2025-05-22_13h52.27.631,cuing_paradigm_dot,2024.1.5,Win32,142.8571429,682d573fa47f1360d1451895,,,,,,,,,,,184.2329,184.7365,,,184.9921,185.9642,right,,,,,,,,0.45,0.9647,,,,,,,184.7366,184.992,185.9642,"[-0.1329647244912224,0.005914995255018387]","[-1,-1,-1]","[-0.17523018296491197,-0.0628872209018972]","[1,1,1]","[-0.17363112350581686,-0.021200018748807337]","[1,1,1]","[-0.061321941144222375,-0.06528261928461622]","[-1,-1,-1]","[0.000789548494386035,-0.1021793140966692]","[1,1,1]","[-0.18780433865410584,0.05620875850346306]","[-1,-1,-1]","[0.10676108551391231,0.09720908312118294]","[-1,-1,-1]","[-0.11623587016269542,0.05841482926215627]","[-1,-1,-1]","[-0.02837967652494712,0.06218576489650542]","[-1,-1,-1]","[0.006589700685393416,-0.018808603857904612]","[1,1,1]","[0.14754795864283765,0.10732726861005037]","[-1,-1,-1]","[0.024931769612442305,-0.15448267751659897]","[-1,-1,-1]","[0.06140107817713444,0.10720887580266253]","[-1,-1,-1]","[0.09823377129448974,0.02261926430282275]","[-1,-1,-1]","[-0.03971608775889788,0.1387108260111659]","[-1,-1,-1]","[-0.1274531987231655,-0.06573842787213996]","[1,1,1]","[0.13058025551002775,-0.12930161961467715]","[-1,-1,-1]","[-0.06483777312636588,-0.10670271782396593]","[-1,-1,-1]","[-0.07589893991792092,0.15878276091238122]","[-1,-1,-1]","[-0.10721833010046021,-0.13480195082224822]","[1,1,1]","[0.09127161818610766,-0.04375242304082618]","[1,1,1]","[-0.016148788842661015,0.10135367878883796]","[1,1,1]","[0.12429667973324873,-0.07661632444032848]","[-1,-1,-1]","[0.014299902655198564,0.17975706598370075]","[1,1,1]","[0.15947864344264248,0.009228085157433416]","[1,1,1]","[0.18711562739457682,0.05694226913442781]","[1,1,1]","[0.1854061466366122,-0.056703516203536114]","[-1,-1,-1]","[0.03530967956846275,0.06083075272384426]","[1,1,1]","[-0.02564023565401517,-0.18865940400019582]","[1,1,1]","[-0.17217437500450924,0.09933922193181759]","[1,1,1]","[-0.05609785292648669,-0.023708394740407465]","[-1,-1,-1]","[-0.055274179653609624,0.018089271224762494]","[-1,-1,-1]","[0.02,0.02]",187.0621,0,12,12,88,1,,,,,,,
,,,,,,,667da6b83c73b101dbb3f463,682f0fbe640a0622f8619bb6,2025-05-22_13h52.27.631,cuing_paradigm_dot,2024.1.5,Win32,142.8571429,682d573fa47f1360d1451895,,,,,,,,,,,187.0627,187.5596,,,187.8054,188.5599,left,,,,,,,,0.45,0.7435,,,,,,,187.5597,187.8053,188.5599,"[0.03803003962192178,-0.18563247212227893]","[1,1,1]","[0.11460398909699651,-0.16075112831438237]","[1,1,1]","[0.004358862910073445,0.19467064089080297]","[1,1,1]","[-0.06642660269961574,0.03194949021120103]","[-1,-1,-1]","[-0.02870368088563695,-0.19792730949133586]","[1,1,1]","[0.06542638663286511,0.05762328440258062]","[1,1,1]","[-0.03547322929270089,-0.022000337392143465]","[1,1,1]","[0.08491077093742004,-0.1126119915430162]","[-1,-1,-1]","[0.004130355644744216,-0.012215609012431412]","[1,1,1]","[-0.031117150964299865,0.1617614978591459]","[-1,-1,-1]","[-0.14967664658025656,-0.10623561427860294]","[-1,-1,-1]","[0.1521934402037101,0.10330005662322965]","[-1,-1,-1]","[-0.0429333214818962,0.09085426913715595]","[-1,-1,-1]","[-0.18370443065946862,-0.05759634798020073]","[-1,-1,-1]","[0.0073138439678247374,-0.1375998731767298]","[-1,-1,-1]","[-0.1933460904927654,0.04639862434442443]","[-1,-1,-1]","[0.12846945234894117,-0.01482155812701235]","[1,1,1]","[-0.09192188180161905,-0.159527573872026]","[-1,-1,-1]","[0.06398123305919917,0.15922727820002375]","[-1,-1,-1]","[-0.12225983533616594,-0.06921038976736196]","[-1,-1,-1]","[-0.13921576794168578,0.10405115518152765]","[1,1,1]","[0.059602533605529855,-0.06623574900148596]","[1,1,1]","[0.10113986991924744,0.12158682015068728]","[-1,-1,-1]","[-0.14137893130407894,-0.014142993318766648]","[-1,-1,-1]","[0.17128133638800006,0.05902050525086929]","[-1,-1,-1]","[0.12114265871052397,0.026777196896212083]","[-1,-1,-1]","[-0.15639348917317683,0.06257730851896688]","[-1,-1,-1]","[0.022815017339834095,0.04139964390905501]","[1,1,1]","[-0.07635698040550679,-0.07701817116057154]","[1,1,1]","[0.06986919234051407,0.0017570188746578157]","[-1,-1,-1]","[-0.041223788042004536,-0.09813898539996309]","[1,1,1]","[-0.0010003194120268948,0.10917328507625981]","[1,1,1]","[0.02,0.02]",189.6616,0,13,13,60,1,,,,,,,
,,,,,,,667da6b83c73b101dbb3f463,682f0fbe640a0622f8619bb6,2025-05-22_13h52.27.631,cuing_paradigm_dot,2024.1.5,Win32,142.8571429,682d573fa47f1360d1451895,,,,,,,,,,,189.662,190.163,,,190.4132,191.0857,right,,,,,,,,0.1,0.6596,,,,,,,190.163,190.4132,191.0859,"[-0.013336146154501205,-0.02383671032570353]","[-1,-1,-1]","[0.08478388509150711,0.12928254549116097]","[-1,-1,-1]","[0.14338608691969518,0.009041747394114357]","[-1,-1,-1]","[-0.12684425506772495,0.08368031530707076]","[-1,-1,-1]","[-0.04869014092244387,0.07544991975729362]","[-1,-1,-1]","[-0.12498687633775092,-0.07077568321666111]","[-1,-1,-1]","[0.06651059148664205,-0.07948185041101037]","[-1,-1,-1]","[0.10944345831093819,-0.09265850675526997]","[-1,-1,-1]","[0.12395987318575659,-0.04277125109821552]","[-1,-1,-1]","[0.16628577642762996,0.047072915673912724]","[-1,-1,-1]","[0.023910046067890538,-0.16320966734816963]","[-1,-1,-1]","[-0.17905826573732603,0.0068236704709568755]","[-1,-1,-1]","[-0.18621740546420668,-0.055139498505033635]","[-1,-1,-1]","[0.12169651557018894,0.08203755817211111]","[-1,-1,-1]","[-0.009184872223683327,-0.12858394153338515]","[1,1,1]","[-0.1539695407488479,-0.12656592948265866]","[1,1,1]","[-0.15341759497513965,0.12308931058739273]","[-1,-1,-1]","[-0.09912466733984705,-0.03374544580018612]","[-1,-1,-1]","[-0.13414418607524625,0.006665437395113301]","[-1,-1,-1]","[0.06377931967529983,0.16954145439922183]","[1,1,1]","[0.09945793730723144,0.0017570262569272968]","[-1,-1,-1]","[-0.06680217331832176,-0.10186075581077676]","[-1,-1,-1]","[0.12259237577869629,0.14962800877473095]","[-1,-1,-1]","[-0.17152757882355946,0.05326006917326133]","[-1,-1,-1]","[-0.012779598182545012,0.16368897230161114]","[-1,-1,-1]","[-0.033436234181014164,-0.17629267728887715]","[-1,-1,-1]","[-0.08317613715911822,0.1618324405602045]","[-1,-1,-1]","[0.060400999487356034,0.07485751131195388]","[-1,-1,-1]","[0.19800352952726477,-0.020219163644574437]","[-1,-1,-1]","[-0.11196833438347387,-0.16031666825209687]","[-1,-1,-1]","[0.12668552117060103,-0.13591866316597914]","[-1,-1,-1]","[-0.004514623129035773,0.020555340756367838]","[-1,-1,-1]","[0.02,0.02]",192.1825,0,14,14,17,1,,,,,,,
,,,,,,,667da6b83c73b101dbb3f463,682f0fbe640a0622f8619bb6,2025-05-22_13h52.27.631,cuing_paradigm_dot,2024.1.5,Win32,142.8571429,682d573fa47f1360d1451895,,,,,,,,,,,192.1829,192.6796,,,192.9315,193.5003,left,,,,,,,,0.55,0.5557,,,,,,,192.6797,192.9314,193.5005,"[-0.10037558498895516,0.059286313487131974]","[1,1,1]","[-0.06775054124677189,-0.10787287917964185]","[1,1,1]","[-0.012798041283609701,-0.02464370183094411]","[1,1,1]","[-0.18117163483575566,0.07434689468742758]","[1,1,1]","[0.03873292455927276,0.002151249195065551]","[-1,-1,-1]","[0.08670784499494409,0.12915793492376573]","[1,1,1]","[0.13497765205657428,0.1055550187013837]","[1,1,1]","[0.03940717579981769,0.0549015620298894]","[-1,-1,-1]","[0.06328539256725164,-0.11654919843763284]","[-1,-1,-1]","[-0.08394689802681307,-0.04509744449600209]","[1,1,1]","[-0.15345760236768227,-0.09478183826757039]","[1,1,1]","[-0.13703209498301572,0.07582691215513283]","[-1,-1,-1]","[0.13873967461965173,-0.09483024929891061]","[1,1,1]","[0.020530695697837463,0.11707284214873634]","[-1,-1,-1]","[-0.03999491277885835,-0.17636352030053196]","[-1,-1,-1]","[0.19257298256910318,0.009445662873845462]","[-1,-1,-1]","[0.00011314515715183805,-0.13956463176280498]","[1,1,1]","[-0.13338947181962324,0.12039687269249481]","[-1,-1,-1]","[-0.04500347946634145,0.14408813350815083]","[-1,-1,-1]","[-0.013492200869410135,0.042762699035889876]","[-1,-1,-1]","[0.09043591526155312,0.014837525984444683]","[-1,-1,-1]","[0.049691786831795204,-0.15910479940056216]","[1,1,1]","[0.01555096038824353,0.16804099543668197]","[-1,-1,-1]","[0.1549936847581168,-0.017959307326703748]","[1,1,1]","[-0.03685797986879509,0.1913294304467486]","[1,1,1]","[-0.12676163600972912,0.004662297495205922]","[1,1,1]","[0.07895375686580927,0.17391189232031615]","[1,1,1]","[0.08241015886739335,0.07415169522372979]","[1,1,1]","[0.09879966997936097,-0.0582794042914514]","[-1,-1,-1]","[-0.01465607617668772,0.08282645142850471]","[1,1,1]","[-0.06381683172984101,0.09595760557505528]","[1,1,1]","[-0.1061481309490149,-0.12503478995715195]","[-1,-1,-1]","[0.02,0.02]",194.5961,0,15,15,121,1,,,,,,,
,,,,,,,667da6b83c73b101dbb3f463,682f0fbe640a0622f8619bb6,2025-05-22_13h52.27.631,cuing_paradigm_dot,2024.1.5,Win32,142.8571429,682d573fa47f1360d1451895,,,,,,,,,,,194.5964,195.096,,,195.3454,196.2761,right,,,,,,,,0.5,0.9256,,,,,,,195.0961,195.3453,196.2761,"[-0.07496342270654015,0.16504819678390054]","[1,1,1]","[-0.13971495537283196,-0.06943987832190221]","[-1,-1,-1]","[0.11293024550623204,0.14282551691763976]","[-1,-1,-1]","[-0.029588411684500892,-0.11559075426519264]","[1,1,1]","[-0.06910225825686009,-0.037155354330872685]","[-1,-1,-1]","[0.07638964307213329,0.018103498574393202]","[1,1,1]","[0.0297586915843846,-0.024959270038397038]","[1,1,1]","[0.1456926719240705,-0.05386422673713519]","[1,1,1]","[-0.019831915080974448,0.15206619384356007]","[-1,-1,-1]","[0.16449066764098622,0.06222182345469214]","[1,1,1]","[0.17007264206388045,-0.007463355458038721]","[-1,-1,-1]","[-0.09641238902494043,0.018877303599204746]","[-1,-1,-1]","[0.1260964155087404,-0.016731066639636503]","[-1,-1,-1]","[-0.1137787421908868,0.09649444469399217]","[-1,-1,-1]","[-0.16629232544806716,0.07263327298146338]","[-1,-1,-1]","[0.04292576949521404,0.16061697255856053]","[-1,-1,-1]","[-0.13938109644373683,0.1323105486781563]","[-1,-1,-1]","[-0.18826264353386293,0.026061753844513015]","[1,1,1]","[-0.021176828746536373,-0.060222292413555936]","[1,1,1]","[0.06973333730419119,0.06943735168195883]","[1,1,1]","[-0.030739721237859043,-0.011925997638262763]","[1,1,1]","[-0.04706850859740248,0.08933634627611625]","[1,1,1]","[-0.025542935503711933,-0.18969110669390216]","[1,1,1]","[-0.15469118226152173,-0.12070299780640449]","[-1,-1,-1]","[0.021475389052047822,0.10462658679922152]","[1,1,1]","[0.0007564559930268377,0.020095644253801392]","[1,1,1]","[0.10047404744413987,-0.05711348986679287]","[-1,-1,-1]","[0.011995019534747494,-0.11860826353110693]","[1,1,1]","[-0.11035411207756736,-0.129604755183565]","[-1,-1,-1]","[0.05777792824474709,-0.14780263967231064]","[1,1,1]","[0.020631449711972928,-0.17705163600398188]","[-1,-1,-1]","[0.10786662102459013,0.05245583833565194]","[-1,-1,-1]","[0.02,0.02]",197.3714,0,16,16,109,1,,,,,,,
,,,,,,,667da6b83c73b101dbb3f463,682f0fbe640a0622f8619bb6,2025-05-22_13h52.27.631,cuing_paradigm_dot,2024.1.5,Win32,142.8571429,682d573fa47f1360d1451895,,,,,,,,,,,197.372,197.8716,,,198.1215,198.8151,right,,,,,,,,0.6,0.6864,,,,,,,197.8716,198.1215,198.8151,"[0.04240064943740365,0.015524233397996858]","[1,1,1]","[0.15092475921108595,-0.015093404727747903]","[1,1,1]","[-0.10453825846445972,-0.13334567171214207]","[-1,-1,-1]","[-0.14122896694224019,0.015864805868575495]","[-1,-1,-1]","[-0.04028258910739904,0.016707759445643722]","[-1,-1,-1]","[-0.09549274097420679,0.017369662089118987]","[1,1,1]","[-0.016546414323405156,0.13033127291201083]","[1,1,1]","[-0.0027927266217923877,-0.03130926535263512]","[-1,-1,-1]","[-0.11725065678339128,-0.043046955448615]","[1,1,1]","[-0.11173093296797973,0.07583972518967538]","[1,1,1]","[0.02996851387449902,-0.1960035286195586]","[1,1,1]","[0.07757393568015815,0.1575263658774738]","[-1,-1,-1]","[0.08885237846798073,-0.009710498420536588]","[-1,-1,-1]","[-0.11464065584323761,0.14408108684853868]","[1,1,1]","[0.14512783809012106,-0.13146752621490382]","[1,1,1]","[-0.05770352272673606,-0.11060169560771668]","[-1,-1,-1]","[-0.17590669226033717,0.07748297228809611]","[1,1,1]","[-0.041904190040958744,-0.04021475087127956]","[1,1,1]","[0.06143476934745848,-0.11645624112820456]","[1,1,1]","[-0.17735774006151733,-0.015566877920497569]","[-1,-1,-1]","[-0.0019513058791896798,-0.1351854190206374]","[-1,-1,-1]","[-0.06050480930510459,0.11293504163681437]","[-1,-1,-1]","[0.12507868377976672,0.0763010989268754]","[1,1,1]","[-0.1901650813943163,-0.05878201854300562]","[1,1,1]","[-0.06707707102029328,0.1692529663470563]","[1,1,1]","[0.11624304168085897,-0.07740765188708744]","[1,1,1]","[0.05059831718421534,0.05621881615578427]","[1,1,1]","[0.048726444770496424,0.11002669979215926]","[-1,-1,-1]","[0.14775538548997016,0.1179799085166153]","[1,1,1]","[0.009639865668904013,0.03884803557537996]","[-1,-1,-1]","[-0.056202864303745,-0.18461292703768767]","[1,1,1]","[0.1838185039026955,0.07004435609306431]","[-1,-1,-1]","[0.02,0.02]",199.9172,0,17,17,179,1,,,,,,,
,,,,,,,667da6b83c73b101dbb3f463,682f0fbe640a0622f8619bb6,2025-05-22_13h52.27.631,cuing_paradigm_dot,2024.1.5,Win32,142.8571429,682d573fa47f1360d1451895,,,,,,,,,,,199.9178,200.4168,,,200.6707,201.8736,right,,,,,,,,0.5,1.1954,,,,,,,200.4169,200.6706,201.8737,"[0.1867906105471091,0.05443288124687163]","[-1,-1,-1]","[-0.086181568121062,-0.15959953930977297]","[1,1,1]","[0.038707303148506594,-0.04520669746699512]","[-1,-1,-1]","[-0.1530814872420737,-0.04905827866812876]","[-1,-1,-1]","[0.029347246687755416,0.048057033598407344]","[1,1,1]","[0.12099759743787927,-0.11840787551195583]","[-1,-1,-1]","[-0.04316500930287943,-0.09209814777442409]","[1,1,1]","[-0.11308438315643446,0.10239804283656077]","[1,1,1]","[-0.02643762015085589,0.13980145370058664]","[1,1,1]","[0.07312710867351396,-0.07656925981607915]","[-1,-1,-1]","[-0.008482794511702453,-0.03823799793587832]","[1,1,1]","[0.07960620709170066,-0.030949040629539168]","[-1,-1,-1]","[-0.09661302750786142,0.13984752728596808]","[1,1,1]","[-0.09505195490010614,0.06584574584583838]","[1,1,1]","[-0.1830523017492485,-0.014193304710640254]","[-1,-1,-1]","[-0.1727000931284156,0.09430160357721726]","[1,1,1]","[0.09556018477070753,0.10110172754102048]","[-1,-1,-1]","[-0.024840402426848474,0.08287498988034729]","[-1,-1,-1]","[0.019764970744297852,-0.1322282221960635]","[-1,-1,-1]","[0.059801845162641476,-0.1787770849063131]","[-1,-1,-1]","[0.13513409933604453,0.1195554537842494]","[-1,-1,-1]","[-0.19169739954043102,0.046190863208188715]","[1,1,1]","[0.14894761654534777,-0.07538719447225072]","[1,1,1]","[0.14007243580740344,-0.016459013356589634]","[-1,-1,-1]","[-0.11195289705079348,-0.034294145064306676]","[1,1,1]","[0.19029009622280912,0.013428280643083965]","[1,1,1]","[0.07525722183560657,0.17053208605568562]","[1,1,1]","[-0.10629695177471082,-0.07522171223350926]","[1,1,1]","[0.04136066502865268,0.10452977638642406]","[-1,-1,-1]","[-0.14678628947116182,0.05563549717803925]","[1,1,1]","[-0.07097134976624185,-0.013630603235342003]","[-1,-1,-1]","[-0.0681343942033038,0.03174592109247906]","[-1,-1,-1]","[0.02,0.02]",202.9695,0,18,18,118,1,,,,,,,
,,,,,,,667da6b83c73b101dbb3f463,682f0fbe640a0622f8619bb6,2025-05-22_13h52.27.631,cuing_paradigm_dot,2024.1.5,Win32,142.8571429,682d573fa47f1360d1451895,,,,,,,,,,,202.9704,203.4687,,,203.7233,204.4844,left,,,,,,,,0.55,0.7564,,,,,,,203.4687,203.7233,204.4844,"[-0.18994825421329237,-0.03436289600202264]","[-1,-1,-1]","[-0.15438427454502593,-0.10071335195960247]","[-1,-1,-1]","[-0.02996030211238578,-0.08620668699732038]","[1,1,1]","[0.008145462034385239,0.12275727805788947]","[-1,-1,-1]","[-0.1028400025685643,-0.09929667256903343]","[-1,-1,-1]","[0.04988550844364195,0.00113966332822683]","[-1,-1,-1]","[-0.04398183711706,0.07267164334799416]","[1,1,1]","[-0.10226672438448793,0.15989897791522562]","[1,1,1]","[-0.10721147325726824,-0.02871106826935889]","[1,1,1]","[0.16116768561076242,-0.059214971214218176]","[1,1,1]","[-0.019696045499525014,0.17854491529498473]","[1,1,1]","[0.09203417296790267,0.16112386025157072]","[1,1,1]","[-0.0656903518946702,-0.034280899265372075]","[1,1,1]","[0.034709562532551926,-0.12346776966549167]","[1,1,1]","[0.06545692680222523,0.10249192783487811]","[-1,-1,-1]","[0.14823027970591834,0.08925762961562969]","[1,1,1]","[0.07464381456785117,0.056564179006486394]","[-1,-1,-1]","[-0.09741266697905866,-0.16548863036955344]","[-1,-1,-1]","[0.14597443548301312,0.13138901539647088]","[1,1,1]","[-0.13043377561410993,0.08766755243749069]","[-1,-1,-1]","[0.01248909851265283,0.06608589633298875]","[1,1,1]","[-0.011738923140270424,0.01904383442424694]","[-1,-1,-1]","[-0.17133602500428682,0.016846474044673692]","[1,1,1]","[0.11033958761032385,-0.12702014608668613]","[1,1,1]","[-0.0882023539404678,0.09989186765251687]","[-1,-1,-1]","[-0.17666666407016085,0.07325818882482482]","[-1,-1,-1]","[-0.02330288751580689,-0.15844209120791436]","[1,1,1]","[0.025863486712004852,0.1700189340954393]","[-1,-1,-1]","[0.08705984853563203,-0.053322850110070937]","[1,1,1]","[0.11418896322335284,0.0653713812702454]","[1,1,1]","[-0.09250662613213419,0.050366266128841534]","[1,1,1]","[0.1717668426650393,-0.009366638347651132]","[-1,-1,-1]","[0.02,0.02]",205.585,0,19,19,124,1,,,,,,,
,,,,,,,667da6b83c73b101dbb3f463,682f0fbe640a0622f8619bb6,2025-05-22_13h52.27.631,cuing_paradigm_dot,2024.1.5,Win32,142.8571429,682d573fa47f1360d1451895,,,,,,,,,,,205.5854,206.0843,,,206.3316,207.298,left,,,,,,,,0.9,0.9618,,,,,,,206.0843,206.3316,207.298,"[-0.006154761332474878,0.08753052897749347]","[1,1,1]","[-0.15603321120090372,-0.083363191135593]","[1,1,1]","[0.17264860260209527,-0.06259149872306151]","[1,1,1]","[-0.10136072896026488,0.1299819018903049]","[1,1,1]","[0.01837047013776348,-0.12351218979786803]","[1,1,1]","[0.0370615414107746,0.15227271766777786]","[1,1,1]","[0.0886993775191432,-0.1380912391253222]","[1,1,1]","[0.059754534534111156,-0.0443497715255777]","[-1,-1,-1]","[0.05003431713880347,-0.18002631275908876]","[1,1,1]","[-0.17846675765951447,0.04065082571545365]","[1,1,1]","[0.08256246758288105,0.10380909432168242]","[1,1,1]","[-0.03806856536448514,0.0630085918010532]","[-1,-1,-1]","[-0.06602994353212073,-0.17501635014015315]","[1,1,1]","[-0.1472366956080247,0.07296305813214732]","[1,1,1]","[0.08392729914347677,0.026788872198239087]","[1,1,1]","[0.12536724364201718,-0.013592634544910017]","[1,1,1]","[-0.02217092497251904,-0.0016803211806463135]","[1,1,1]","[-0.04854281706451742,0.1291342609166695]","[1,1,1]","[-0.06642790403519677,0.015627592168974882]","[1,1,1]","[-0.11523723622925248,0.02643590068913977]","[-1,-1,-1]","[-0.08982787993968934,0.17217679381247156]","[1,1,1]","[-0.1402347205580334,-0.019586598091477666]","[1,1,1]","[0.1443110646419964,0.12041017629828843]","[1,1,1]","[0.08828984589308188,0.1435451041149766]","[1,1,1]","[0.1490286977376167,0.0374836089761217]","[1,1,1]","[0.03290790171429584,0.023945474996242454]","[1,1,1]","[0.00044719821507088585,0.18971825664367384]","[1,1,1]","[0.019193728666698908,-0.03884785847327625]","[1,1,1]","[0.13280180994829457,-0.0583933648472062]","[1,1,1]","[-0.02375998066643697,-0.04432469243745597]","[1,1,1]","[0.1382039504539274,-0.13454707328436952]","[1,1,1]","[-0.06352170352970603,-0.05218477124112736]","[1,1,1]","[0.02,0.02]",208.3945,0,20,20,202,1,,,,,,,
,,,,,,,667da6b83c73b101dbb3f463,682f0fbe640a0622f8619bb6,2025-05-22_13h52.27.631,cuing_paradigm_dot,2024.1.5,Win32,142.8571429,682d573fa47f1360d1451895,,,,,,,,,,,208.3949,208.8941,,,209.1484,209.8996,right,,,,,,,,0.4,0.7438,,,,,,,208.8941,209.1484,209.8997,"[0.15461288731795417,-0.10976790804084698]","[1,1,1]","[0.1182269980165042,-0.05686044769422662]","[-1,-1,-1]","[-0.07821691445508507,-0.058725727021617026]","[-1,-1,-1]","[-0.14313027083013855,-0.028932800191017013]","[-1,-1,-1]","[0.05785107786870017,0.0020742726097797664]","[-1,-1,-1]","[0.04375057527018424,-0.1331252753824453]","[1,1,1]","[0.005314412062826328,0.15247554717636527]","[-1,-1,-1]","[-0.07495259745780139,0.10879939430121628]","[1,1,1]","[-0.15231200423168686,0.0328796382875735]","[1,1,1]","[-0.05171635681738354,-0.02312741005479425]","[-1,-1,-1]","[-0.02508472698311547,0.05622941178021016]","[1,1,1]","[-0.027370694551715168,-0.09228176508353651]","[1,1,1]","[0.03589341082727528,-0.06541266305910573]","[1,1,1]","[-0.16641015565678383,0.08881079351169263]","[-1,-1,-1]","[-0.1547601719957423,-0.0753652921798731]","[1,1,1]","[0.15887995975936398,0.04088223149624687]","[-1,-1,-1]","[0.10644350018077775,-0.16062387381816878]","[-1,-1,-1]","[-0.12485693367188465,0.07300182710178509]","[1,1,1]","[-0.08210511667452969,-0.11686930846736034]","[-1,-1,-1]","[0.09290532704718557,0.023113649351969443]","[-1,-1,-1]","[-0.09938212565354956,0.005717710778295455]","[-1,-1,-1]","[0.08905462916263228,0.13629441903502432]","[-1,-1,-1]","[0.1084107176881573,0.09222268274001218]","[1,1,1]","[0.15819226554437138,-0.030456738819541387]","[1,1,1]","[0.04404587879212249,0.05393565986963229]","[-1,-1,-1]","[-0.013867096667256147,0.09837804552742206]","[-1,-1,-1]","[0.014665681406203118,-0.03100219683223116]","[-1,-1,-1]","[-0.08571122088777157,0.16729950284828976]","[-1,-1,-1]","[0.015581810239368492,-0.19473023256001984]","[-1,-1,-1]","[-0.034477488346706955,-0.19155802057300422]","[1,1,1]","[-0.179570145366275,-0.011772002920963615]","[1,1,1]","[0.0745032247776763,-0.03787585474137805]","[-1,-1,-1]","[0.02,0.02]",210.996,0,21,21,59,1,,,,,,,
,,,,,,,667da6b83c73b101dbb3f463,682f0fbe640a0622f8619bb6,2025-05-22_13h52.27.631,cuing_paradigm_dot,2024.1.5,Win32,142.8571429,682d573fa47f1360d1451895,,,,,,,,,,,210.9964,211.4954,,,211.7453,212.4783,right,,,,,,,,0.1,0.7219,,,,,,,211.4955,211.7453,212.4784,"[0.13814985591219078,-0.12067004770766353]","[-1,-1,-1]","[0.036935145035556484,-0.04726913690624819]","[-1,-1,-1]","[-0.013923335230801177,0.012372745594879435]","[-1,-1,-1]","[0.19769957981860956,-0.00822577476802589]","[-1,-1,-1]","[-0.0069447008291638485,0.1443941557487652]","[-1,-1,-1]","[-0.01277600032720656,-0.08902279032278987]","[-1,-1,-1]","[-0.1864385760760364,-0.030196074683616108]","[-1,-1,-1]","[-0.08930086332320354,0.07855879682686878]","[-1,-1,-1]","[0.012769770933258802,0.05365814993353823]","[-1,-1,-1]","[0.14600005695006266,-0.05212804391571264]","[-1,-1,-1]","[0.042350839080331576,0.13486980879531696]","[-1,-1,-1]","[0.040892744676956194,-0.1678041222216502]","[-1,-1,-1]","[0.020483281839940994,-0.12647788895310347]","[1,1,1]","[0.12195984677292307,-0.008347246043445162]","[-1,-1,-1]","[0.08345960373455948,0.0320083312430516]","[-1,-1,-1]","[0.10582197785176678,-0.07056659884795202]","[-1,-1,-1]","[-0.15696307022134082,0.06266858362334482]","[-1,-1,-1]","[-0.07636211555135819,-0.12390447868877072]","[-1,-1,-1]","[-0.07625865237029916,-0.07223735840998669]","[-1,-1,-1]","[-0.11639725665006036,0.14649955989861926]","[1,1,1]","[-0.06572903689794819,0.17018920268248375]","[-1,-1,-1]","[-0.13857045350549183,0.012955925751498355]","[-1,-1,-1]","[0.13023211122440181,0.09354467396921753]","[-1,-1,-1]","[0.12600771634035923,0.04949629221966873]","[-1,-1,-1]","[-0.030589835539981996,0.052857030291205885]","[1,1,1]","[0.1779110713849298,0.08853907392705351]","[-1,-1,-1]","[0.0595752090984199,0.08219075523563604]","[-1,-1,-1]","[0.16183151354276673,0.014115695585648248]","[-1,-1,-1]","[0.030908324163135468,0.1950320931017321]","[-1,-1,-1]","[0.05140838823488452,-0.09440989349578562]","[-1,-1,-1]","[-0.0005830757579100989,-0.1821227680841815]","[-1,-1,-1]","[-0.12363399115758943,-0.07485467503021846]","[-1,-1,-1]","[0.02,0.02]",213.5767,0,22,22,19,1,,,,,,,
,,,,,,,667da6b83c73b101dbb3f463,682f0fbe640a0622f8619bb6,2025-05-22_13h52.27.631,cuing_paradigm_dot,2024.1.5,Win32,142.8571429,682d573fa47f1360d1451895,,,,,,,,,,,213.5773,214.076,,,214.3286,214.9,left,,,,,,,,0.45,0.5677,,,,,,,214.0761,214.3286,214.9001,"[0.04666072293654625,-0.015595767284107812]","[1,1,1]","[-0.010651685580370681,-0.043673420519951885]","[1,1,1]","[-0.022721733399283378,0.15681957850004738]","[-1,-1,-1]","[0.18832737320325296,-0.03456674163106408]","[-1,-1,-1]","[-0.15298627742858117,0.07691776986440592]","[-1,-1,-1]","[-0.030568659779083452,-0.10378975345171322]","[1,1,1]","[-0.12392431635655582,-0.026583471452630424]","[1,1,1]","[0.07756901409455466,-0.06556613251372562]","[-1,-1,-1]","[-0.1532937464002181,-0.07525874176517905]","[-1,-1,-1]","[0.08094858714042417,0.026682748584044434]","[1,1,1]","[0.036676904010127485,0.028038169367466257]","[1,1,1]","[-0.06319397255973352,-0.04822815846867264]","[-1,-1,-1]","[-0.04700326667227707,0.10928719690387008]","[1,1,1]","[-0.013369050798567428,-0.14074854146443677]","[-1,-1,-1]","[-0.06985570993169331,0.06370055706518984]","[-1,-1,-1]","[0.040063872538301536,0.16198213551505072]","[1,1,1]","[0.17308623514512425,0.030231126590412816]","[-1,-1,-1]","[-0.10611088256359431,0.15973538919671573]","[-1,-1,-1]","[0.11287506074626606,-0.15107541759878662]","[1,1,1]","[-0.11149918311641917,0.04482982703034425]","[-1,-1,-1]","[0.05697668600885582,0.11084915966770088]","[-1,-1,-1]","[-0.029526202709082478,-0.002353774146511592]","[1,1,1]","[0.15052149876389143,0.07639407231919915]","[1,1,1]","[-0.06845652242235946,-0.17775240174942508]","[-1,-1,-1]","[-0.10495429794926737,-0.0901428378456337]","[1,1,1]","[0.11957810703406616,-0.10021528731367922]","[-1,-1,-1]","[0.10423025392227313,0.08859988149561158]","[-1,-1,-1]","[0.1490269471567853,0.12510541714781018]","[1,1,1]","[0.0023500770669948913,0.11464412772773658]","[1,1,1]","[-0.019794073560907434,-0.18335248089408843]","[-1,-1,-1]","[0.14883356185509808,-0.06575202818105168]","[-1,-1,-1]","[-0.06584484038280672,-0.13290051446982643]","[-1,-1,-1]","[0.02,0.02]",215.9958,0,23,23,78,1,,,,,,,
,,,,,,,667da6b83c73b101dbb3f463,682f0fbe640a0622f8619bb6,2025-05-22_13h52.27.631,cuing_paradigm_dot,2024.1.5,Win32,142.8571429,682d573fa47f1360d1451895,,,,,,,,,,,215.996,216.497,,,216.7467,217.926,left,,,,,,,,0.4,1.1658,,,,,,,216.497,216.7467,217.9261,"[-0.12203093785408871,0.07366280388939254]","[1,1,1]","[-0.07243541320969679,-0.05682706353743878]","[1,1,1]","[-0.039363257336426045,-0.14781096319540316]","[1,1,1]","[-0.02095492115646766,-0.08750929922527174]","[1,1,1]","[-0.12396029474890044,0.1314639234129815]","[-1,-1,-1]","[0.048623497349614096,-0.05054475431158895]","[-1,-1,-1]","[-0.02061492542713032,-0.18731002020244952]","[1,1,1]","[0.1582526541425641,-0.01961152299496567]","[-1,-1,-1]","[0.13204337214034284,0.13315543781183314]","[-1,-1,-1]","[0.07729180258156187,0.01109302011043931]","[-1,-1,-1]","[-0.06842128075728586,0.0024032192378273553]","[-1,-1,-1]","[-0.17284884748306492,-0.0038563060057296215]","[-1,-1,-1]","[-0.0811747920619653,-0.16782813549606693]","[1,1,1]","[0.016240283216394424,0.12742594101639543]","[-1,-1,-1]","[0.03547337234917779,0.1746496264708546]","[-1,-1,-1]","[-0.0019777957748510658,0.07012840874629372]","[1,1,1]","[0.19953303065991965,-0.011338453327158307]","[1,1,1]","[0.04787129828746938,-0.16392581927626704]","[-1,-1,-1]","[-0.11804980251359244,0.022138122613027167]","[-1,-1,-1]","[0.08908604236677857,-0.14199310254785713]","[1,1,1]","[0.14730249865880307,0.09555951589493408]","[-1,-1,-1]","[-0.1191785311559999,-0.037394618091579186]","[1,1,1]","[0.09396625618597682,-0.044441970236595595]","[1,1,1]","[-0.17207753345753932,0.09638769931423767]","[-1,-1,-1]","[-0.01007668947361778,-0.02406262483524818]","[-1,-1,-1]","[0.029938483247368617,-0.1159387573724293]","[1,1,1]","[-0.06211059160596869,-0.10462753841072465]","[-1,-1,-1]","[-0.14797150590959463,-0.06775339376851423]","[-1,-1,-1]","[-0.13579614237018087,-0.10674942338872843]","[1,1,1]","[0.045204815544631925,0.04100641578086279]","[-1,-1,-1]","[0.06403192861072379,0.1105491662258849]","[-1,-1,-1]","[-0.06753517087326234,0.0858761962462114]","[-1,-1,-1]","[0.02,0.02]",219.0233,0,24,24,36,1,,,,,,,
,,,,,,,667da6b83c73b101dbb3f463,682f0fbe640a0622f8619bb6,2025-05-22_13h52.27.631,cuing_paradigm_dot,2024.1.5,Win32,142.8571429,682d573fa47f1360d1451895,,,,,,,,,,,219.0237,219.5219,,,219.7748,220.8173,left,,,,,,,,0.6,1.0346,,,,,,,219.522,219.7748,220.8174,"[0.0005312041600376811,0.1444240858162892]","[-1,-1,-1]","[-0.035891702839862615,-0.044632408201066585]","[1,1,1]","[-0.18995787451871687,0.049860676092110215]","[1,1,1]","[-0.07465050923635846,0.15359730412177466]","[1,1,1]","[-0.1279398222353842,-0.13970432641258024]","[-1,-1,-1]","[-0.1457155129415201,0.02328346206063688]","[-1,-1,-1]","[-0.11731476639779048,0.13452812924786162]","[1,1,1]","[0.06111197234609313,-0.13435106972154312]","[1,1,1]","[-0.04202041696311638,-0.16430957197313056]","[1,1,1]","[0.11086595210388231,0.15564805595309908]","[1,1,1]","[-0.027415232095296473,-0.09062060841407454]","[1,1,1]","[0.045476088615579384,0.05396599478974944]","[1,1,1]","[0.10816665649709593,0.11234168152860281]","[1,1,1]","[0.15839968832080847,0.10863475964764448]","[1,1,1]","[0.0012256624695318546,-0.169053196898424]","[1,1,1]","[-0.07230412003081246,0.05431221112800811]","[-1,-1,-1]","[0.055288171417177776,0.12291180050676052]","[-1,-1,-1]","[0.0788209245496536,0.011758117229800481]","[-1,-1,-1]","[0.0220278790055026,-0.04491915480681227]","[1,1,1]","[-0.16943518542829378,-0.10222632052354995]","[-1,-1,-1]","[-0.15006611845095089,-0.056733492869213704]","[-1,-1,-1]","[-0.10985453920755715,-0.03779127640188541]","[-1,-1,-1]","[0.17068179569905234,-0.0338414061906817]","[1,1,1]","[0.021042602727738044,-0.11828434498768674]","[1,1,1]","[-0.01322839031508374,0.07435388798453622]","[1,1,1]","[-0.10353701331178604,0.023493087919066222]","[1,1,1]","[0.12141717596093704,-0.10459032191024431]","[-1,-1,-1]","[0.1796694913842748,0.045678536788295684]","[-1,-1,-1]","[0.07649344764387932,0.17840283569501889]","[-1,-1,-1]","[0.11478320210420245,-0.021376938786901164]","[1,1,1]","[-0.05788434048355095,0.1133763454570364]","[-1,-1,-1]","[0.021752648518799947,0.0011915030902447754]","[1,1,1]","[0.02,0.02]",221.915,0,25,25,165,1,,,,,,,
,,,,,,,667da6b83c73b101dbb3f463,682f0fbe640a0622f8619bb6,2025-05-22_13h52.27.631,cuing_paradigm_dot,2024.1.5,Win32,142.8571429,682d573fa47f1360d1451895,,,,,,,,,,,221.9154,222.4145,,,222.6615,223.2377,right,,,,,,,,0.1,0.569,,,,,,,222.4146,222.6615,223.2377,"[-0.10609638519861558,-0.12387055696262228]","[-1,-1,-1]","[0.007097013140690524,-0.006031870228839168]","[-1,-1,-1]","[-0.1596908894982876,-0.06052975303249043]","[1,1,1]","[0.18091265090470252,0.027515147897678827]","[1,1,1]","[-0.197754023270732,0.016292572588159644]","[-1,-1,-1]","[0.020088593519178407,-0.11434837541645765]","[-1,-1,-1]","[0.1137159503472056,-0.08605639350192718]","[-1,-1,-1]","[0.022767993898852555,-0.18110259510153884]","[-1,-1,-1]","[-0.0421623895996831,-0.012010388867230446]","[-1,-1,-1]","[0.05575329750034555,0.09847639244379015]","[-1,-1,-1]","[-0.10538996549618043,-0.08319251939675476]","[-1,-1,-1]","[0.17004488582479682,0.10192123819062822]","[-1,-1,-1]","[0.16532212384212025,-0.026761231920448422]","[-1,-1,-1]","[-0.11169999062705951,0.06656930690283121]","[-1,-1,-1]","[0.006478464251099588,0.13665434358068515]","[-1,-1,-1]","[0.060154736661752195,-0.1282119210663936]","[-1,-1,-1]","[0.0633296539544347,0.17438563161838658]","[-1,-1,-1]","[-0.12599696639011038,0.15076934567405947]","[-1,-1,-1]","[0.13931167760660454,0.042221110728445956]","[-1,-1,-1]","[-0.15471047164810114,-0.018959334577599293]","[-1,-1,-1]","[-0.04318612467600715,0.18027356073672512]","[-1,-1,-1]","[-0.04375826521651478,0.03255820592827962]","[-1,-1,-1]","[-0.07315639125835074,0.10553949445168656]","[-1,-1,-1]","[-0.041325946326326815,-0.061212555023506324]","[-1,-1,-1]","[0.10596886028987507,0.11087067392289618]","[-1,-1,-1]","[-0.14104659893124616,0.03250545137294394]","[-1,-1,-1]","[0.050433623485692386,0.029042808931964863]","[-1,-1,-1]","[-0.024086938938826047,0.10481152216481193]","[-1,-1,-1]","[-0.10831697405455207,-0.03830945961024384]","[-1,-1,-1]","[-0.018811227911636846,-0.10016282422464202]","[-1,-1,-1]","[0.07207808677802326,-0.05467310760866238]","[1,1,1]","[0.14213980379013053,-0.1165754648526213]","[-1,-1,-1]","[0.02,0.02]",224.3364,0,26,26,5,1,,,,,,,
,,,,,,,667da6b83c73b101dbb3f463,682f0fbe640a0622f8619bb6,2025-05-22_13h52.27.631,cuing_paradigm_dot,2024.1.5,Win32,142.8571429,682d573fa47f1360d1451895,,,,,,,,,,,224.337,224.8359,,,225.0836,225.7155,left,,,,,,,,0.55,0.6253,,,,,,,224.836,225.0835,225.7156,"[0.02749488350620565,-0.07863739341579619]","[1,1,1]","[-0.19739475368346035,-0.026358379673548496]","[1,1,1]","[0.1479145865523758,0.09234570795336197]","[-1,-1,-1]","[0.02986791285609539,-0.02916593240415843]","[1,1,1]","[0.14034097727407455,-0.008203708319554668]","[-1,-1,-1]","[-0.037296491107030406,-0.17934850896143134]","[-1,-1,-1]","[0.02003995241754933,-0.16648771432303575]","[1,1,1]","[0.05597790550105841,0.013617948152591956]","[1,1,1]","[0.12271015045900632,0.1480508265897666]","[-1,-1,-1]","[-0.08656140357554284,0.11019722653230796]","[1,1,1]","[-0.04433359729053432,0.07216217262584734]","[1,1,1]","[-0.12797195252532448,0.10406483460773554]","[-1,-1,-1]","[-0.05254460934219024,-0.1249236012536767]","[1,1,1]","[0.0449621919245754,0.10464988274630059]","[-1,-1,-1]","[-0.013718109054879656,-0.1439215159744231]","[1,1,1]","[0.10127505895264075,-0.039416475259367034]","[-1,-1,-1]","[0.006447616797489083,0.12344668629933764]","[-1,-1,-1]","[0.04096029303774841,0.1790248133610047]","[1,1,1]","[0.17937693141567929,-0.04444541186725371]","[1,1,1]","[-0.07576495330126137,-0.16383610563662254]","[1,1,1]","[0.05505199844088939,-0.14226423155459736]","[-1,-1,-1]","[-0.10531605397514239,-0.060480933196964994]","[-1,-1,-1]","[-0.026777486517368883,-0.07108701075945294]","[1,1,1]","[-0.15938900308322904,-0.06369095542500748]","[-1,-1,-1]","[0.08469133008741535,0.07710091264237043]","[1,1,1]","[-0.16527249504820188,-0.10383666649586848]","[1,1,1]","[0.169263544178721,0.05749710375665702]","[1,1,1]","[0.1386575281556357,-0.12022889445311999]","[-1,-1,-1]","[0.09008531970012147,-0.08153734932867303]","[1,1,1]","[0.16715708728129705,-0.09019536182007061]","[-1,-1,-1]","[-0.1680896939348361,0.056799673910434396]","[1,1,1]","[-0.025107800981420115,0.015078443712508213]","[-1,-1,-1]","[0.02,0.02]",226.813,0,27,27,133,1,,,,,,,
,,,,,,,667da6b83c73b101dbb3f463,682f0fbe640a0622f8619bb6,2025-05-22_13h52.27.631,cuing_paradigm_dot,2024.1.5,Win32,142.8571429,682d573fa47f1360d1451895,,,,,,,,,,,226.8135,227.3126,,,227.5582,228.1865,left,,,,,,,,0.9,0.6186,,,,,,,227.3127,227.5582,228.1865,"[-0.11739561670611155,0.050909791757220844]","[1,1,1]","[-0.10954441917460134,-0.07136291056617718]","[1,1,1]","[0.13324606723665314,-0.07891947852481059]","[1,1,1]","[0.05595704145241514,0.022359885729805788]","[1,1,1]","[-0.017046023666535643,0.10026741162469777]","[1,1,1]","[-0.02582373365737212,-0.05285131079901119]","[1,1,1]","[-0.13460601082700288,-0.035012902780802595]","[1,1,1]","[0.053273922496210845,-0.07674460406232489]","[-1,-1,-1]","[-0.16882944293450197,0.08701806913276365]","[1,1,1]","[0.07138043759840104,-0.179693810557201]","[1,1,1]","[-0.1563780518605608,-0.11262897637636375]","[1,1,1]","[0.061250058902260006,0.1327855303365611]","[1,1,1]","[0.002215990425267452,0.047487093978945606]","[-1,-1,-1]","[-0.093276332075569,-0.11122916213638558]","[-1,-1,-1]","[0.01095176824055339,-0.014686093433284317]","[1,1,1]","[0.0016620343970920606,-0.18217871904383154]","[1,1,1]","[0.1440568348430928,0.09918091531397323]","[1,1,1]","[0.13882915057337727,0.01639502898305063]","[1,1,1]","[-0.08622438262861629,0.09713474483428453]","[1,1,1]","[0.18388870626352105,-0.01209630274502205]","[1,1,1]","[0.11444952338690295,-0.14659820716533603]","[1,1,1]","[-0.051045409513967466,-0.11768895604798782]","[1,1,1]","[-0.12772532007271112,0.11028298387891798]","[1,1,1]","[0.12297306028310263,0.06388538567760266]","[1,1,1]","[-0.04970718084070722,-0.16773077920576493]","[1,1,1]","[-0.06609667305676441,-0.029569814254120395]","[1,1,1]","[0.06323238044759903,-0.022464999684488826]","[1,1,1]","[0.07333930346841808,0.08136283810362537]","[1,1,1]","[0.17719434775397017,-0.0832046690460202]","[1,1,1]","[-0.19285982990358724,-0.03711291495103671]","[1,1,1]","[-0.00119173491617814,-0.13047324016109874]","[1,1,1]","[-0.14983601700514146,0.01272900205300617]","[1,1,1]","[0.02,0.02]",229.2823,0,28,28,206,1,,,,,,,
,,,,,,,667da6b83c73b101dbb3f463,682f0fbe640a0622f8619bb6,2025-05-22_13h52.27.631,cuing_paradigm_dot,2024.1.5,Win32,142.8571429,682d573fa47f1360d1451895,,,,,,,,,,,229.2828,229.7821,,,230.0285,231.2433,left,,,,,,,,0.5,1.2105,,,,,,,229.7821,230.0285,231.2433,"[-0.1758043508460091,0.01064740354901839]","[-1,-1,-1]","[-0.011644712586380473,-0.17077888900649243]","[1,1,1]","[0.0008933498840095954,0.10055184460269162]","[1,1,1]","[-0.09247674745094722,-0.15875125066993706]","[1,1,1]","[0.1674535349746466,0.054057367969731554]","[-1,-1,-1]","[0.04378824628429085,-0.005962890919531971]","[-1,-1,-1]","[0.05919005355649243,-0.11750117261888947]","[1,1,1]","[-0.010171825153956553,-0.0469514214025833]","[-1,-1,-1]","[-0.022675150331039427,0.00838765657448534]","[-1,-1,-1]","[-0.0851404773412149,-0.10465072046191434]","[-1,-1,-1]","[-0.1460886831665074,-0.12255162517794226]","[1,1,1]","[-0.11040959452760388,0.10609713434097054]","[1,1,1]","[-0.11922465885077187,0.00247816608973998]","[-1,-1,-1]","[-0.0005088849396504756,0.18769611350960802]","[-1,-1,-1]","[0.09988865332190759,0.043321384060299506]","[1,1,1]","[0.056863123319115694,0.09177270904710112]","[-1,-1,-1]","[-0.07906236480172284,0.005447936574838743]","[1,1,1]","[0.03303124703855838,0.04739325919372116]","[1,1,1]","[-0.1529353875892407,0.06871568911762138]","[1,1,1]","[0.1343763543235416,0.09198498543361706]","[-1,-1,-1]","[0.10048735399972518,-0.1470574046175223]","[-1,-1,-1]","[0.028583006867597505,-0.0823965995890535]","[-1,-1,-1]","[0.10563740604765483,-0.022090822510782405]","[1,1,1]","[0.004643002700123057,-0.12258136277343736]","[1,1,1]","[0.040106209554075414,0.19546618828099824]","[-1,-1,-1]","[-0.1348143893755675,-0.041857634075310304]","[1,1,1]","[-0.06006450807027388,0.13364068364032552]","[1,1,1]","[0.08126605018438432,0.15697245405701488]","[-1,-1,-1]","[0.05275532474205564,-0.15882059734176415]","[1,1,1]","[0.1463836462384605,-0.0841537981831019]","[-1,-1,-1]","[-0.04375470523849519,-0.13807951169542643]","[-1,-1,-1]","[0.17821400411030758,0.014163140256565265]","[1,1,1]","[0.02,0.02]",232.3417,0,29,29,101,1,,,,,,,
,,,,,,,667da6b83c73b101dbb3f463,682f0fbe640a0622f8619bb6,2025-05-22_13h52.27.631,cuing_paradigm_dot,2024.1.5,Win32,142.8571429,682d573fa47f1360d1451895,,,,,,,,,,,232.3421,232.8463,,,233.0917,234.4028,right,,,,,,,,0.5,1.2983,,,,,,,232.8463,233.0915,234.4028,"[0.07831705415004198,-0.001421987419001399]","[1,1,1]","[0.11563320146214377,0.14692513884796424]","[1,1,1]","[0.11055417558879752,0.0873265045473292]","[1,1,1]","[0.08465783248721487,-0.08655969737389053]","[1,1,1]","[0.14555842125007518,-0.12179796170808906]","[-1,-1,-1]","[0.0691616412063322,0.11598748557166219]","[-1,-1,-1]","[-0.00908790598404512,-0.04888116906021268]","[-1,-1,-1]","[-0.10998636299204785,-0.050520294257321345]","[1,1,1]","[0.18011659094351698,0.0006967001309238237]","[-1,-1,-1]","[-0.06705641360301767,0.055694442035168]","[-1,-1,-1]","[-0.09746808906907822,-0.14525825179774363]","[-1,-1,-1]","[-0.18571562647135295,-0.029895705927105075]","[-1,-1,-1]","[0.03489770601128551,-0.19531255728969268]","[1,1,1]","[0.02344059620614058,0.02182742905020743]","[1,1,1]","[-0.030012201944781897,0.00675331423621073]","[1,1,1]","[0.1644763199138125,0.06942743710074466]","[1,1,1]","[0.054725554420091305,-0.1180909295832163]","[-1,-1,-1]","[0.07206331210585999,0.04459310762289186]","[1,1,1]","[0.12168529754885554,-0.046841921099189214]","[-1,-1,-1]","[-0.18452680124552112,0.05118298053727382]","[-1,-1,-1]","[-0.13295311551799965,0.13673915592858193]","[1,1,1]","[0.12813023620473912,0.035267252279651364]","[1,1,1]","[-0.02434071765305944,-0.09232348644065139]","[-1,-1,-1]","[-0.055723376308791046,-0.03243715381595501]","[1,1,1]","[-0.0548046207295071,0.15872017298677335]","[1,1,1]","[-0.012677242552098476,0.0639468042197491]","[-1,-1,-1]","[0.01746895855138954,-0.13958552536536062]","[1,1,1]","[-0.157219897061288,0.020177026063491168]","[-1,-1,-1]","[-0.07775458663669588,0.10674376791397751]","[-1,-1,-1]","[0.06835882611837138,0.15691137175189743]","[-1,-1,-1]","[0.1518430480947588,0.11339220637692522]","[-1,-1,-1]","[-0.1330582885225134,-0.0978770288385327]","[1,1,1]","[0.02,0.02]",235.5024,0,30,30,107,1,,,,,,,
,,,,,,,667da6b83c73b101dbb3f463,682f0fbe640a0622f8619bb6,2025-05-22_13h52.27.631,cuing_paradigm_dot,2024.1.5,Win32,142.8571429,682d573fa47f1360d1451895,,,,,,,,,,,235.5031,236.0084,,,236.2591,236.905,left,,,,,,,,0.9,0.6412,,,,,,,236.0084,236.259,236.905,"[-0.022767227969139055,0.018762372472974354]","[1,1,1]","[-0.08406863441099935,-0.13471019015153904]","[1,1,1]","[-0.14198636140352996,-0.06712183936422841]","[1,1,1]","[0.09985092171229118,0.1608269847650448]","[1,1,1]","[0.024766241638728773,0.17701687944211378]","[1,1,1]","[-0.022853896054265622,-0.033450624234750176]","[1,1,1]","[0.07259778358140086,-0.0965055976124026]","[1,1,1]","[0.0038567855538761634,0.10914079546722598]","[1,1,1]","[0.022517534192435722,0.043684809101924]","[1,1,1]","[0.0936811123814463,-0.02340226344368253]","[1,1,1]","[-0.06000946760440861,0.042983038420980606]","[-1,-1,-1]","[0.12472707125449219,0.029810590565033407]","[1,1,1]","[-0.14276775496049218,0.06353386966239198]","[1,1,1]","[0.1738085963661693,0.058530926512288056]","[1,1,1]","[-0.09593285862655149,-0.08958167375290031]","[1,1,1]","[-0.19572683636263813,0.015980392210963233]","[1,1,1]","[0.16676146488321733,-0.10652146607807167]","[1,1,1]","[0.1315620515542653,-0.04016210402445044]","[1,1,1]","[-0.17363182173262576,-0.02136154088160097]","[-1,-1,-1]","[-0.10442104811753544,0.04875781234543506]","[-1,-1,-1]","[0.0632078740913151,0.018233568785323315]","[1,1,1]","[0.0667918344715118,0.06406318336921075]","[1,1,1]","[0.1122593016118358,0.08266116420719943]","[1,1,1]","[0.02273463914544708,-0.18223324835541546]","[1,1,1]","[-0.04047199812319397,-0.1511373180615884]","[1,1,1]","[-0.11326028201286512,0.11985344090472945]","[1,1,1]","[0.10693804208967313,-0.1667732958794675]","[1,1,1]","[-0.062474707934843526,-0.005626517828952086]","[1,1,1]","[-0.10855021751403898,-0.01889884866847356]","[1,1,1]","[-0.10550751217396702,0.16610816971735473]","[1,1,1]","[0.028902790972965265,-0.04445492422780199]","[1,1,1]","[-0.07647874529205193,0.13596724778616984]","[1,1,1]","[0.02,0.02]",238.0028,0,31,31,194,1,,,,,,,
,,,,,,,667da6b83c73b101dbb3f463,682f0fbe640a0622f8619bb6,2025-05-22_13h52.27.631,cuing_paradigm_dot,2024.1.5,Win32,142.8571429,682d573fa47f1360d1451895,,,,,,,,,,,238.004,238.4991,,,238.7488,239.4042,left,,,,,,,,0.9,0.6499,,,,,,,238.4991,238.7487,239.4042,"[-0.04590196225450034,0.0165273053328528]","[1,1,1]","[0.057202763852727205,-0.1624410063164825]","[1,1,1]","[-0.04831946937859304,-0.141273545899987]","[1,1,1]","[0.1371511647772916,0.09329711731548185]","[1,1,1]","[-0.1602529675152291,0.11427482743346058]","[1,1,1]","[0.12543252817762024,-0.08068923980971932]","[1,1,1]","[0.01902562862744976,0.05152308468669458]","[1,1,1]","[-0.010587699975742814,-0.16032355650929672]","[1,1,1]","[-0.11445266587578065,-0.059801736083654466]","[1,1,1]","[-0.1404074954417437,0.017822799723339312]","[1,1,1]","[0.026260999586171545,-0.049927846395414165]","[1,1,1]","[-0.0025480221227473657,-0.019034354756938418]","[1,1,1]","[-0.09254136961163881,0.07899777477805525]","[1,1,1]","[-0.028171747799223063,0.10113610920983755]","[1,1,1]","[-0.05032986755144919,-0.08084140370657152]","[1,1,1]","[0.11227051987847975,0.017914867521201003]","[1,1,1]","[0.05363422003462852,0.1652569524380566]","[1,1,1]","[0.07449599596995533,-0.01498969981941671]","[-1,-1,-1]","[-0.05601151881420933,0.1534716025514742]","[1,1,1]","[-0.08829417477170215,-0.10024978252775099]","[-1,-1,-1]","[-0.007619285695543494,0.19369227906402017]","[1,1,1]","[-0.12209480903278253,-0.14172226943144436]","[1,1,1]","[0.10029924597422246,-0.1478072368334547]","[1,1,1]","[0.09828968108292173,0.06635270360125783]","[1,1,1]","[-0.11768399421992924,-0.01668489469861898]","[1,1,1]","[0.16975184020685202,-0.019728641568374193]","[-1,-1,-1]","[0.03488315946266941,-0.0949479913193941]","[1,1,1]","[-0.13974244812838488,0.05960567407596525]","[1,1,1]","[0.16814438206432192,-0.062311738337162456]","[1,1,1]","[0.07773452031682153,-0.061592765314991645]","[1,1,1]","[0.16809970564718393,0.02058334554148469]","[1,1,1]","[0.1765393751680978,0.07273660639092484]","[1,1,1]","[0.02,0.02]",240.4999,0,32,32,197,1,,,,,,,
,,,,,,,667da6b83c73b101dbb3f463,682f0fbe640a0622f8619bb6,2025-05-22_13h52.27.631,cuing_paradigm_dot,2024.1.5,Win32,142.8571429,682d573fa47f1360d1451895,,,,,,,,,,,240.5004,240.9993,,,241.2471,241.9708,left,,,,,,,,0.55,0.7143,,,,,,,240.9994,241.2471,241.9709,"[-0.1629879207231146,0.024613776780638582]","[-1,-1,-1]","[-0.14614158174717345,-0.10989607978607548]","[1,1,1]","[-0.008084131950914626,-0.1686084071187095]","[1,1,1]","[-0.0852885347549173,-0.11823792728249347]","[-1,-1,-1]","[0.010979439081294659,0.15114368849649382]","[1,1,1]","[0.04007015701634429,0.0464152526683169]","[1,1,1]","[0.1117028257182813,-0.08618667274466874]","[1,1,1]","[0.09237796211988422,-0.01452993737473561]","[-1,-1,-1]","[-0.11137229391712362,0.10854122960955707]","[-1,-1,-1]","[-0.08045438347898153,0.019263640400235725]","[-1,-1,-1]","[0.07136954481222861,-0.145311288038224]","[-1,-1,-1]","[0.0838309544623389,0.18136060777792984]","[1,1,1]","[0.01291465269371909,-0.07996897325919344]","[1,1,1]","[0.13755643800013842,0.006675375837620492]","[1,1,1]","[-0.10206261638501647,-0.06207916575324395]","[-1,-1,-1]","[-0.004419010348004425,0.040717739593105165]","[1,1,1]","[-0.0043480388934037766,-0.035625631650972926]","[-1,-1,-1]","[0.097722488801916,0.07317529046586103]","[-1,-1,-1]","[0.06475740934426011,0.12486092633664264]","[1,1,1]","[0.0414187080945493,0.19117246826625384]","[1,1,1]","[0.18768812273308183,-0.014405414863781614]","[-1,-1,-1]","[0.15620563862492745,0.0724478779775076]","[1,1,1]","[-0.034749224504097925,0.18106882862854767]","[1,1,1]","[0.1601511303672227,-0.08882540484261757]","[1,1,1]","[-0.14884437003675977,0.07304599448561255]","[-1,-1,-1]","[0.130197390412384,-0.13414310484286776]","[1,1,1]","[-0.09783512188611897,0.15950515104461396]","[-1,-1,-1]","[-0.04196019233572133,-0.14327101896867805]","[-1,-1,-1]","[0.1543963439631074,0.12031009075969756]","[1,1,1]","[-0.1053147996486084,-0.01829054811608849]","[-1,-1,-1]","[-0.053781207510519416,-0.06076203215372268]","[1,1,1]","[-0.03470895079169107,0.11567589590232094]","[1,1,1]","[0.02,0.02]",243.072,0,33,33,144,1,,,,,,,
,,,,,,,667da6b83c73b101dbb3f463,682f0fbe640a0622f8619bb6,2025-05-22_13h52.27.631,cuing_paradigm_dot,2024.1.5,Win32,142.8571429,682d573fa47f1360d1451895,,,,,,,,,,,243.0724,243.5732,,,243.8282,244.2195,left,,,,,,,,0.9,0.3856,,,,,,,243.5732,243.8281,244.2195,"[-0.058883563793862996,-0.17616675782626998]","[1,1,1]","[0.05539005966575279,-0.12887651563898464]","[1,1,1]","[0.11323163271892676,0.053600106037085087]","[-1,-1,-1]","[-0.1390358771320895,0.054857376457909564]","[1,1,1]","[-0.055660446431772384,0.0045618907757635765]","[1,1,1]","[0.14786135280167284,0.09642934134071562]","[1,1,1]","[0.0740884549768068,0.07490597442305634]","[1,1,1]","[-0.1774059303217656,0.01168466022131735]","[1,1,1]","[0.10070590550358842,-0.11114342927637236]","[1,1,1]","[-0.1003414893594947,-0.15103845263435034]","[1,1,1]","[0.022436116058579952,0.06556794011244968]","[1,1,1]","[0.04872046240617306,0.14125919456636493]","[1,1,1]","[-0.1157359514685612,0.15402874155143007]","[1,1,1]","[-0.02618604606909727,-0.050484788375042125]","[1,1,1]","[-0.05757828560297077,0.06162962013768632]","[1,1,1]","[-0.09505948541175091,0.09833920299879863]","[1,1,1]","[-0.043677078740849806,0.11722510993141888]","[1,1,1]","[0.006257241838991192,-0.12637645667659478]","[1,1,1]","[0.17917462446832386,0.05425124043542524]","[1,1,1]","[-0.10830232240424534,0.02816656862553278]","[1,1,1]","[0.15757166482028484,-0.12006832788354915]","[-1,-1,-1]","[-0.07545049803531753,-0.05666639817661727]","[1,1,1]","[-0.011814337482786713,0.03464711889224913]","[1,1,1]","[0.07566096009505499,0.1776414886278607]","[1,1,1]","[-0.0010486777432222741,-0.08576133352568886]","[1,1,1]","[0.1265775164471859,-0.05471381011832412]","[-1,-1,-1]","[0.18209953017772496,-0.01857602107154093]","[1,1,1]","[-0.14875718907315658,-0.06425386098776592]","[1,1,1]","[-0.13754689363409708,0.10738960115670747]","[1,1,1]","[-0.0036799390523458188,0.18501762021170864]","[1,1,1]","[0.07061956469788522,-0.03695807875010017]","[1,1,1]","[0.12101160223542277,0.14428898029039589]","[1,1,1]","[0.02,0.02]",245.3212,0,34,34,205,1,,,,,,,
,,,,,,,667da6b83c73b101dbb3f463,682f0fbe640a0622f8619bb6,2025-05-22_13h52.27.631,cuing_paradigm_dot,2024.1.5,Win32,142.8571429,682d573fa47f1360d1451895,,,,,,,,,,,245.3217,245.8209,,,246.0716,246.7034,right,,,,,,,,0.1,0.6265,,,,,,,245.8211,246.0716,246.7035,"[0.1439833615617837,-0.0643745707086471]","[-1,-1,-1]","[-0.06805942077989892,-0.14042604289254199]","[-1,-1,-1]","[-0.143825100022378,-0.05452629779085542]","[-1,-1,-1]","[0.1512551671644153,0.018338312741987495]","[-1,-1,-1]","[-0.006952649112185649,0.07076127655397611]","[-1,-1,-1]","[-0.012513024934022827,0.17975906074602618]","[-1,-1,-1]","[0.031175876763348178,0.013493524333956291]","[1,1,1]","[0.015797350942685567,-0.05810535611697061]","[1,1,1]","[0.060537715530029707,-0.11613656933484767]","[-1,-1,-1]","[-0.07484948946061813,-0.0024545713497606]","[-1,-1,-1]","[-0.05715296415883651,0.0968628256491207]","[1,1,1]","[-0.02268343530044083,0.0101604047559146]","[-1,-1,-1]","[0.12283021734858422,0.14171998964703345]","[-1,-1,-1]","[-0.07874798448802972,0.05578953025351714]","[-1,-1,-1]","[-0.11208152081310259,0.15970682460195537]","[-1,-1,-1]","[-0.13623146695761873,0.0853175888485476]","[-1,-1,-1]","[-0.035003364008310715,-0.168851058364929]","[-1,-1,-1]","[-0.10439247769490652,-0.16181799384456041]","[-1,-1,-1]","[0.11653775082151697,0.04980641430434084]","[-1,-1,-1]","[-0.16367826759852636,0.035465956029834475]","[-1,-1,-1]","[0.08237951985570875,0.10377984564800082]","[-1,-1,-1]","[-0.1750989288927405,-0.012470034718970317]","[-1,-1,-1]","[0.07569690568492711,0.03752721356416641]","[-1,-1,-1]","[-0.11606121640112384,-0.01731171888938254]","[-1,-1,-1]","[-0.17365885218629082,-0.09470837578696274]","[-1,-1,-1]","[0.03128941570658472,0.0569151681217599]","[-1,-1,-1]","[0.07448549096432654,-0.18413123608570048]","[-1,-1,-1]","[0.010196542374842093,-0.11608877967745017]","[-1,-1,-1]","[0.100761182644641,-0.019643600624192282]","[-1,-1,-1]","[0.08910517302479182,0.17736699084466356]","[-1,-1,-1]","[0.03297941304475815,0.194910425810936]","[-1,-1,-1]","[0.15353299396400788,0.11153210086608818]","[-1,-1,-1]","[0.02,0.02]",247.8026,0,35,35,23,1,,,,,,,
,,,,,,,667da6b83c73b101dbb3f463,682f0fbe640a0622f8619bb6,2025-05-22_13h52.27.631,cuing_paradigm_dot,2024.1.5,Win32,142.8571429,682d573fa47f1360d1451895,,,,,,,,,,,247.8028,248.3095,,,248.5546,249.1512,left,,,,,,,,0.6,0.586,,,,,,,248.3095,248.5545,249.1512,"[-0.09305127218049256,0.17125754625476944]","[1,1,1]","[-0.032272307140891,0.1688197998344511]","[-1,-1,-1]","[-0.09062144746725083,-0.17766036685486794]","[-1,-1,-1]","[0.13583970910491588,0.06700401708269227]","[1,1,1]","[-0.1710697035473292,-0.08863301176537357]","[1,1,1]","[-0.11232340869709481,0.06601675015693857]","[1,1,1]","[-0.017226345221891076,-0.19874753943729054]","[-1,-1,-1]","[-0.14309226762162344,0.1143068776926662]","[1,1,1]","[0.1366505761316036,0.13998206201028932]","[1,1,1]","[-0.011657826361215939,-0.15477013711482465]","[1,1,1]","[-0.11526118403051148,0.011812116913964207]","[1,1,1]","[-0.07461400380175923,0.11139638268164617]","[-1,-1,-1]","[0.15973801837506202,0.01404107096929703]","[-1,-1,-1]","[0.01043222969780782,-0.10110349470181361]","[-1,-1,-1]","[0.06253644027700354,0.09488156042267465]","[1,1,1]","[0.05175327027442196,-0.09278123292268364]","[-1,-1,-1]","[0.02099927182013028,0.15473125128276433]","[-1,-1,-1]","[-0.15301458945326873,0.06653023926900647]","[1,1,1]","[-0.0514172035462319,-0.04886475479542696]","[-1,-1,-1]","[0.15379001136880507,-0.03552730194292322]","[1,1,1]","[0.03222489406205119,0.0474021299491398]","[-1,-1,-1]","[0.11045955786413224,-0.16570140166336647]","[1,1,1]","[-0.17246002996641477,-0.042895118897972526]","[-1,-1,-1]","[0.013487129185902636,-0.06091921362223896]","[1,1,1]","[0.022605531032753895,-0.0034463518957472405]","[1,1,1]","[-0.06560154017073985,-0.11009340152228479]","[-1,-1,-1]","[0.05048665961872992,-0.19164182275424516]","[-1,-1,-1]","[0.08014044952974719,-0.05682607274586152]","[1,1,1]","[0.10964670707033751,0.10789810389920765]","[1,1,1]","[0.1326618524610951,-0.10632895189899623]","[1,1,1]","[-0.005286830073536319,0.09840559004315157]","[1,1,1]","[-0.11627776936847319,-0.10063310932070711]","[1,1,1]","[0.02,0.02]",250.247,0,36,36,161,1,,,,,,,
,,,,,,,667da6b83c73b101dbb3f463,682f0fbe640a0622f8619bb6,2025-05-22_13h52.27.631,cuing_paradigm_dot,2024.1.5,Win32,142.8571429,682d573fa47f1360d1451895,,,,,,,,,,,250.2477,250.7449,,,250.9963,251.948,right,,,,,,,,0.1,0.9457,,,,,,,250.7449,250.9963,251.948,"[-0.03240568391277283,0.06421355430795446]","[-1,-1,-1]","[-0.01622912124657945,-0.052670166408050875]","[1,1,1]","[0.086806038491391,-0.05475348249150299]","[-1,-1,-1]","[0.11679335283549327,0.009223097090844855]","[-1,-1,-1]","[-0.03948650160805013,0.007200393810552508]","[-1,-1,-1]","[0.11177914721110545,0.05800835583094535]","[-1,-1,-1]","[0.11586384977694873,0.1377339420669422]","[1,1,1]","[0.01633296442509221,-0.1492210453524408]","[1,1,1]","[0.005923897342035283,0.1766428959688151]","[-1,-1,-1]","[0.04509968299701069,0.11520287612309]","[-1,-1,-1]","[-0.10666236360922497,0.04102943289008501]","[-1,-1,-1]","[-0.08873285558006722,0.14599484679818678]","[-1,-1,-1]","[-0.01231784807630504,-0.1083849026880997]","[-1,-1,-1]","[0.03215552213942944,-0.06394855402926111]","[-1,-1,-1]","[0.05644213993359776,-0.15222219590579916]","[-1,-1,-1]","[0.09143689153663581,0.10206177471591027]","[-1,-1,-1]","[0.17740784994645684,0.007030444027770647]","[-1,-1,-1]","[-0.15085271917332618,-0.005159822775814423]","[-1,-1,-1]","[0.03879357861146307,-0.11517363888079865]","[-1,-1,-1]","[-0.0028606235275829245,0.023307790175809775]","[-1,-1,-1]","[-0.10693908254879396,-0.1046732610644979]","[-1,-1,-1]","[-0.1863277404557756,-0.06610562022290224]","[-1,-1,-1]","[-0.060917762381244536,-0.18217447789841182]","[-1,-1,-1]","[-0.07809614219854635,-0.028184711714730883]","[-1,-1,-1]","[0.14924865287857245,-0.03251401718930962]","[-1,-1,-1]","[0.02473182291838909,-0.008678631079540866]","[-1,-1,-1]","[-0.10953126739289654,-0.1491581220794304]","[-1,-1,-1]","[-0.07089345515317634,-0.06931277412482532]","[-1,-1,-1]","[0.08949088827936459,-0.09719324979917714]","[-1,-1,-1]","[0.13417376877148737,-0.11074082107442865]","[-1,-1,-1]","[-0.14540391517972548,0.09890823002250491]","[-1,-1,-1]","[-0.1982978353228241,-0.010084082041404064]","[-1,-1,-1]","[0.02,0.02]",253.0431,0,37,37,7,1,,,,,,,
,,,,,,,667da6b83c73b101dbb3f463,682f0fbe640a0622f8619bb6,2025-05-22_13h52.27.631,cuing_paradigm_dot,2024.1.5,Win32,142.8571429,682d573fa47f1360d1451895,,,,,,,,,,,253.0438,253.5439,,,253.793,254.5204,left,,,,,,,,0.55,0.7208,,,,,,,253.5439,253.7929,254.5206,"[-0.08929860550102213,-0.10858952260439719]","[1,1,1]","[-0.13003918352890118,0.022633505919513408]","[-1,-1,-1]","[-0.03423253504310823,-0.13341363236627873]","[1,1,1]","[-0.02094096911334714,0.1847562032617972]","[-1,-1,-1]","[0.12184733649512018,0.15647061343826657]","[1,1,1]","[0.04630282892927136,0.010104345725446382]","[-1,-1,-1]","[0.12928437015741323,0.046455876033421245]","[1,1,1]","[0.10780893417399293,-0.08924743814761772]","[-1,-1,-1]","[-0.03224880559978221,-0.18901727604908514]","[-1,-1,-1]","[0.17964902868434962,-0.07421376336716598]","[1,1,1]","[0.03824725256707705,0.14520443743338987]","[1,1,1]","[0.1589855556355079,-0.11070690867076709]","[1,1,1]","[-0.01640215883950774,0.0008407451838625956]","[1,1,1]","[-0.08612136956397987,0.17412118853430766]","[1,1,1]","[0.03142292658622944,-0.11020515624926619]","[-1,-1,-1]","[-0.06404776781348542,0.057040048981214266]","[-1,-1,-1]","[-0.038494782537500806,-0.09028369944008967]","[-1,-1,-1]","[-0.18014939043712774,0.051701817552724204]","[-1,-1,-1]","[0.08255051927984472,0.10334103811521889]","[-1,-1,-1]","[-0.05752807140783664,-0.01735786939243332]","[1,1,1]","[0.00932896731025557,-0.197649755986418]","[-1,-1,-1]","[0.019845471769624565,0.08331328304249253]","[1,1,1]","[-0.10923820730061722,0.06335787694659147]","[1,1,1]","[-0.14040382838409624,0.11424586277248354]","[1,1,1]","[0.06768248325686109,0.17963057741300784]","[1,1,1]","[0.005411212269180515,-0.07087718519278045]","[1,1,1]","[0.029047412224960007,-0.030303378567474074]","[-1,-1,-1]","[-0.1582780028949372,-0.09176240222046621]","[-1,-1,-1]","[-0.19492574353984146,0.002041004774106056]","[1,1,1]","[0.05792146431828286,0.06831630378822443]","[-1,-1,-1]","[-0.02382771556222588,0.10587092179593037]","[1,1,1]","[0.15089609748053862,0.08948607795924213]","[1,1,1]","[0.02,0.02]",255.6169,0,38,38,122,1,,,,,,,
,,,,,,,667da6b83c73b101dbb3f463,682f0fbe640a0622f8619bb6,2025-05-22_13h52.27.631,cuing_paradigm_dot,2024.1.5,Win32,142.8571429,682d573fa47f1360d1451895,,,,,,,,,,,255.6175,256.1165,,,256.3655,257.0812,left,,,,,,,,0.9,0.7102,,,,,,,256.1165,256.3655,257.0813,"[-0.0215613042207103,-0.04062040295815217]","[-1,-1,-1]","[0.09165541787616631,-0.15107790593473258]","[1,1,1]","[-0.14714599135217846,0.07582601382061663]","[1,1,1]","[-0.10091383020857377,0.018128661065747627]","[1,1,1]","[-0.015165628595216446,0.16797925105139244]","[1,1,1]","[-0.08966694539851562,0.11612025195204169]","[1,1,1]","[0.036615331241797215,0.018645101955909314]","[1,1,1]","[-0.07141778033151952,0.17886294331001137]","[-1,-1,-1]","[0.16722989255943155,-0.008973747407489725]","[1,1,1]","[-0.08017776388520358,0.07650499280019565]","[1,1,1]","[0.03265177118993623,0.12845507913309803]","[-1,-1,-1]","[-0.14357205509867338,-0.05570306999288716]","[1,1,1]","[0.041572931617804995,0.17442323789431027]","[1,1,1]","[0.10966147013441575,0.0648428133617767]","[1,1,1]","[0.04700318635068684,-0.0854800516329852]","[1,1,1]","[0.11116841478188084,0.004381555493182759]","[1,1,1]","[0.046066698811943335,-0.1763094201618226]","[1,1,1]","[0.14613800435542834,0.1113078162780817]","[1,1,1]","[-0.0693130986670767,-0.01451547041103637]","[1,1,1]","[-0.06367988286487275,-0.16111309328973383]","[1,1,1]","[-0.02765041088201259,0.07177090394328053]","[1,1,1]","[-0.1636039624821272,0.01618428620594643]","[1,1,1]","[-0.01603281550942456,-0.1847439756806148]","[1,1,1]","[-0.11494743328241704,-0.12457237245563606]","[1,1,1]","[0.004610594370318833,-0.1356979249986926]","[1,1,1]","[-0.11054350789959633,-0.029154838502630263]","[1,1,1]","[0.05975926462288278,-0.04588864072275342]","[1,1,1]","[0.15335673107041112,-0.0965031268956275]","[1,1,1]","[0.1601271776833374,0.050926788677625796]","[1,1,1]","[0.05598282856971393,0.06753021278535468]","[1,1,1]","[-0.06443392474487629,-0.06496376526410486]","[1,1,1]","[-0.048568900783908124,0.14512315772595424]","[1,1,1]","[0.02,0.02]",258.1772,0,39,39,195,1,,,,,,,
,,,,,,,667da6b83c73b101dbb3f463,682f0fbe640a0622f8619bb6,2025-05-22_13h52.27.631,cuing_paradigm_dot,2024.1.5,Win32,142.8571429,682d573fa47f1360d1451895,,,,,,,,,,,258.1777,258.6769,,,258.926,259.6046,left,,,,,,,,0.6,0.6723,,,,,,,258.6769,258.9259,259.6046,"[-0.16066063798532085,-0.005185060535035571]","[-1,-1,-1]","[0.10839331102054771,0.05891583611267827]","[1,1,1]","[0.17743529153306364,0.01689845676390939]","[1,1,1]","[-0.028351515296893566,-0.04091382777541565]","[1,1,1]","[-0.12127600790347033,-0.030177272630679302]","[1,1,1]","[-0.16343098923357138,0.09394905385167797]","[-1,-1,-1]","[0.07924838560422472,0.11505852576033446]","[-1,-1,-1]","[0.07793190061472335,-0.14307409868635232]","[1,1,1]","[-0.1906770556340651,-0.056955817070867366]","[-1,-1,-1]","[0.10793041344733809,-0.09442368515323182]","[1,1,1]","[0.008196899720699912,0.09501099235056516]","[1,1,1]","[0.11754068366083975,-0.1556895330928309]","[1,1,1]","[-0.06175761973295144,0.12453900450246576]","[1,1,1]","[-0.06812099852927464,0.17336004659926144]","[1,1,1]","[0.06367951467003356,0.15736898459046272]","[-1,-1,-1]","[-0.10408034896950037,0.03653622308085556]","[1,1,1]","[-0.11067732005970188,0.1583919641591413]","[-1,-1,-1]","[0.12165397849515824,0.15329664633645826]","[-1,-1,-1]","[0.1742061265225967,0.08307472735821053]","[1,1,1]","[0.002526938735130433,-0.1689477970726107]","[1,1,1]","[0.10472852542475972,0.017683739862730436]","[-1,-1,-1]","[-0.04386510258484961,-0.13921351184220507]","[1,1,1]","[-0.16008823322606022,-0.08811675952809887]","[-1,-1,-1]","[0.12512768638829594,0.10046182662968868]","[1,1,1]","[0.07510911153021697,-0.021940666805175476]","[-1,-1,-1]","[-0.10133505628692542,-0.13646927766211844]","[1,1,1]","[0.06659804666598562,0.031629354897881795]","[-1,-1,-1]","[-0.08551276521801518,-0.06437263022958538]","[1,1,1]","[-0.10736675536889409,0.08525489908680742]","[-1,-1,-1]","[-0.013121203599168752,0.019805965861699044]","[1,1,1]","[-0.06267667392749457,-0.0974025703449275]","[-1,-1,-1]","[0.03449923878536213,-0.06542187810656372]","[1,1,1]","[0.02,0.02]",260.7013,0,40,40,170,1,,,,,,,
,,,,,,,667da6b83c73b101dbb3f463,682f0fbe640a0622f8619bb6,2025-05-22_13h52.27.631,cuing_paradigm_dot,2024.1.5,Win32,142.8571429,682d573fa47f1360d1451895,,,,,,,,,,,260.7023,261.2056,,,261.4549,262.3934,left,,,,,,,,0.55,0.9344,,,,,,,261.2058,261.4549,262.3934,"[-0.08412971293729646,-0.04673930632370555]","[1,1,1]","[-0.15457851177448997,0.0047068818035557085]","[1,1,1]","[0.029105317771743022,0.13454023943733304]","[1,1,1]","[-0.11006056152839618,0.07068947682029697]","[-1,-1,-1]","[-0.03342787785367318,0.046287799451011594]","[1,1,1]","[0.0372150991241373,-0.09280062583681846]","[1,1,1]","[0.13833718225815242,-0.09212767548804277]","[-1,-1,-1]","[-0.11257715156434668,0.1358631309285227]","[1,1,1]","[-0.036542490811262374,-0.17287400829993674]","[-1,-1,-1]","[-0.04473802047978725,0.08769833920734131]","[-1,-1,-1]","[-0.10825115817076178,-0.002700790005724463]","[1,1,1]","[0.0832497327292584,0.11683655784046795]","[1,1,1]","[-0.04108221021066525,0.19482976263266213]","[-1,-1,-1]","[-0.0633917988684673,-0.08432203507164629]","[1,1,1]","[0.103018129614954,-0.06957988154779338]","[-1,-1,-1]","[0.02620573579029485,-0.0044030039428453]","[1,1,1]","[0.16418483835154185,0.07020702030940545]","[-1,-1,-1]","[-0.08694595091818816,-0.13775401101899476]","[-1,-1,-1]","[0.031031216857839973,-0.1646856072301624]","[1,1,1]","[-0.17345579341490613,-0.0759549160931787]","[1,1,1]","[-0.013065949093524582,-0.12201690201076583]","[-1,-1,-1]","[-0.05084361207120017,-0.007120506009536915]","[-1,-1,-1]","[0.025642893431817117,0.07098121022341748]","[1,1,1]","[0.13908174456881758,-0.0371048137955936]","[-1,-1,-1]","[0.18907729810784282,0.010355562888650038]","[1,1,1]","[0.17617997245343595,-0.0630000281332737]","[-1,-1,-1]","[0.12413822637458063,0.04559583493266414]","[1,1,1]","[0.034310221123898005,0.1920397535560279]","[1,1,1]","[0.14640247731529035,-0.13197684614017868]","[1,1,1]","[-0.15330486366387874,0.0495052130485141]","[1,1,1]","[0.08636933397222919,-0.17610128221188875]","[-1,-1,-1]","[0.06964498678689549,0.04903367973522511]","[-1,-1,-1]","[0.02,0.02]",263.4902,0,41,41,123,1,,,,,,,
,,,,,,,667da6b83c73b101dbb3f463,682f0fbe640a0622f8619bb6,2025-05-22_13h52.27.631,cuing_paradigm_dot,2024.1.5,Win32,142.8571429,682d573fa47f1360d1451895,,,,,,,,,,,263.4906,263.9896,,,264.2394,264.9656,left,,,,,,,,0.55,0.7157,,,,,,,263.9897,264.2394,264.9656,"[-0.018459805658655674,-0.1259876878919444]","[1,1,1]","[-0.0397971695290789,-0.005066291564941474]","[1,1,1]","[0.028215165864700853,0.031239406440101928]","[1,1,1]","[-0.05838190727094656,0.1599060098241609]","[1,1,1]","[-0.08945629808812236,-0.015946622739739524]","[-1,-1,-1]","[-0.016806191843341638,0.16385260042000602]","[1,1,1]","[0.06038795976866379,-0.08655790435394353]","[-1,-1,-1]","[-0.12103054633717962,0.06383108662762374]","[1,1,1]","[-0.02330793053460449,-0.16640875563139554]","[-1,-1,-1]","[0.16361134938921532,0.10260272101297878]","[1,1,1]","[0.11822100681819935,0.03288643368558745]","[1,1,1]","[0.1798611970514665,-0.021919692585682025]","[-1,-1,-1]","[0.11225544624841048,-0.10578630227722711]","[-1,-1,-1]","[0.02643081342246685,-0.140750870665717]","[-1,-1,-1]","[-0.15460370928723835,0.10056089307931237]","[1,1,1]","[-0.11893680460750561,-0.14437561021702955]","[-1,-1,-1]","[0.06824680983570339,-0.04329560665488552]","[-1,-1,-1]","[-0.15991899511525082,-0.08405482772809758]","[1,1,1]","[0.16900833142337143,0.04142801574803161]","[-1,-1,-1]","[0.15652158986080897,-0.054833338745763294]","[-1,-1,-1]","[-0.03939972762608843,-0.081024169956456]","[1,1,1]","[0.048286769274656215,0.07594856613246254]","[1,1,1]","[-0.19236003976076196,0.020381060695258593]","[1,1,1]","[0.1233888602015518,-0.14852812932398946]","[1,1,1]","[-0.024820477936940633,0.040142935467038496]","[-1,-1,-1]","[-0.07953151295374497,0.06102650736124185]","[1,1,1]","[-0.11026877387426974,0.1056042362497631]","[-1,-1,-1]","[0.1709085868756899,-0.09592323299579286]","[-1,-1,-1]","[-0.0000027175475748006077,0.08719987294667805]","[1,1,1]","[0.014194630591415762,-0.19886583848954928]","[-1,-1,-1]","[-0.10696561434857574,0.15249254952576463]","[1,1,1]","[-0.07359359889556505,-0.14517877383769306]","[1,1,1]","[0.02,0.02]",266.0641,0,42,42,147,1,,,,,,,
,,,,,,,667da6b83c73b101dbb3f463,682f0fbe640a0622f8619bb6,2025-05-22_13h52.27.631,cuing_paradigm_dot,2024.1.5,Win32,142.8571429,682d573fa47f1360d1451895,,,,,,,,,,,266.0646,266.5635,,,266.8136,267.3266,right,,,,,,,,0.1,0.5064,,,,,,,266.5636,266.8136,267.3267,"[-0.16072295501273115,-0.0028178709501303074]","[-1,-1,-1]","[-0.044734264064421325,0.18224972267843387]","[-1,-1,-1]","[0.10645608040734968,-0.019645553801130523]","[-1,-1,-1]","[-0.12083852626464267,0.05948565346340909]","[-1,-1,-1]","[-0.10992523309166584,-0.05331323511170409]","[-1,-1,-1]","[0.17568906019772776,-0.07636654251248311]","[1,1,1]","[0.07011477034254161,0.012154424541719326]","[-1,-1,-1]","[0.0765162860610447,-0.11846789842496822]","[-1,-1,-1]","[0.09385923591088186,0.17625221071404557]","[-1,-1,-1]","[0.019666714316068354,0.09236077896124648]","[-1,-1,-1]","[-0.03065900407471425,0.10941487082894431]","[-1,-1,-1]","[0.0552611168534144,0.1166379131728654]","[-1,-1,-1]","[-0.034693086075165726,-0.1901277080109331]","[-1,-1,-1]","[0.14935235639064395,0.02211262104488316]","[-1,-1,-1]","[-0.07961806441242418,0.05226919937902145]","[-1,-1,-1]","[-0.004629136584290607,0.051911223087872806]","[-1,-1,-1]","[-0.17092491849195804,-0.09168509199024412]","[-1,-1,-1]","[-0.07910428016938134,-0.10227528371769912]","[-1,-1,-1]","[0.08894513505503245,0.09422044294908834]","[-1,-1,-1]","[0.09254787509961736,0.05214044841380277]","[-1,-1,-1]","[-0.09816212544441019,-0.16753363530324764]","[-1,-1,-1]","[-0.08515347677924455,0.13838061883663988]","[-1,-1,-1]","[0.031919929975019835,-0.006014602229439468]","[-1,-1,-1]","[-0.005680314941003953,-0.1338252667619575]","[1,1,1]","[-0.01484695557280741,-0.0777606105349853]","[1,1,1]","[0.029788113033540172,0.19083583683850688]","[-1,-1,-1]","[0.052036122254682564,0.049549210269793954]","[-1,-1,-1]","[0.13818202993990528,-0.12671390976670815]","[-1,-1,-1]","[0.01793017805508958,0.13954930734417215]","[-1,-1,-1]","[0.1939129016059443,0.014130665429335016]","[-1,-1,-1]","[0.09646673196405477,-0.0609368954245876]","[-1,-1,-1]","[-0.12075613548648853,-0.09205413363593033]","[-1,-1,-1]","[0.02,0.02]",268.4279,0,43,43,29,1,,,,,,,
,,,,,,,667da6b83c73b101dbb3f463,682f0fbe640a0622f8619bb6,2025-05-22_13h52.27.631,cuing_paradigm_dot,2024.1.5,Win32,142.8571429,682d573fa47f1360d1451895,,,,,,,,,,,268.4283,268.9239,,,269.1707,269.6712,left,,,,,,,,0.9,0.4942,,,,,,,268.924,269.1706,269.6713,"[0.06614516382659733,0.17196470481747203]","[1,1,1]","[0.07393936155257867,0.1282641752173819]","[1,1,1]","[-0.0666899356813361,-0.11979603664389196]","[1,1,1]","[0.10539683328762578,-0.05682430878865472]","[1,1,1]","[0.09089871565726765,-0.09654711621907743]","[1,1,1]","[0.03906932826205669,-0.1347807666996073]","[1,1,1]","[0.017551144299384792,0.0794394846114769]","[1,1,1]","[0.0044944528729106235,0.1524833824602271]","[1,1,1]","[0.03219689907280556,-0.05295744865625635]","[1,1,1]","[0.17133310822486855,0.05428528941623114]","[1,1,1]","[-0.1742943545967957,0.010792049129012654]","[1,1,1]","[-0.020533794834149438,-0.1492009105984198]","[1,1,1]","[0.04997397101543853,0.017011813224798705]","[1,1,1]","[-0.10972735535734995,-0.07118367486706605]","[1,1,1]","[0.16461311959485503,-0.050277298327885904]","[1,1,1]","[0.162218729406655,-0.09788361109290991]","[1,1,1]","[0.009538365025282398,0.005326553144435327]","[1,1,1]","[-0.07690374141519771,0.1478930809700712]","[1,1,1]","[0.12105347378744394,0.07270355066386684]","[1,1,1]","[-0.071176517807408,0.07348782668180158]","[-1,-1,-1]","[0.17977944175050126,-0.004403330842737398]","[1,1,1]","[-0.06648897299426565,-0.1829963860630419]","[1,1,1]","[0.1108021798464621,-0.14877999884875515]","[1,1,1]","[0.059918512674675586,0.08900762892277374]","[1,1,1]","[0.00462288160924379,-0.1837921875413775]","[1,1,1]","[-0.062336371171426014,0.02062880825994778]","[1,1,1]","[-0.17224022423637073,0.0840307733614412]","[-1,-1,-1]","[-0.003041894917774897,-0.10338741371172785]","[1,1,1]","[-0.01999277943975669,0.04673991125800575]","[1,1,1]","[-0.13955983770181787,-0.1102086663149611]","[1,1,1]","[-0.04037670205428171,-0.08887639146155747]","[-1,-1,-1]","[-0.08956097499711406,-0.012484899627378485]","[1,1,1]","[0.02,0.02]",270.7672,0,44,44,187,1,,,,,,,
