right,left,explain.started,explain.stopped,key_resp_3.keys,key_resp_3.rt,key_resp_3.duration,participant,session,date,expName,psychopyVersion,OS,frameRate,study_id,explain_2.started,explain_2.stopped,key_resp_4.keys,key_resp_4.rt,key_resp_4.duration,explain_3.started,explain_3.stopped,key_resp_5.keys,key_resp_5.rt,key_resp_5.duration,fixation.started,fixation.stopped,practice.started,practice.stopped,response.started,response.stopped,key_resp.keys,key_resp.rt,key_resp.duration,feedback.started,feedback.stopped,trials_2.thisRepN,trials_2.thisTrialN,trials_2.thisN,trials_2.thisIndex,trials_2.ran,white_ratio,explain_4.started,explain_4.stopped,key_resp_6.keys,key_resp_6.rt,key_resp_6.duration,dotDisplay.started,dotDisplay.stopped,ITI.started,polygon_1.pos,polygon_1.color,polygon_2.pos,polygon_2.color,polygon_3.pos,polygon_3.color,polygon_4.pos,polygon_4.color,polygon_5.pos,polygon_5.color,polygon_6.pos,polygon_6.color,polygon_7.pos,polygon_7.color,polygon_8.pos,polygon_8.color,polygon_9.pos,polygon_9.color,polygon_10.pos,polygon_10.color,polygon_11.pos,polygon_11.color,polygon_12.pos,polygon_12.color,polygon_13.pos,polygon_13.color,polygon_14.pos,polygon_14.color,polygon_15.pos,polygon_15.color,polygon_16.pos,polygon_16.color,polygon_17.pos,polygon_17.color,polygon_18.pos,polygon_18.color,polygon_19.pos,polygon_19.color,polygon_20.pos,polygon_20.color,polygon_21.pos,polygon_21.color,polygon_22.pos,polygon_22.color,polygon_23.pos,polygon_23.color,polygon_24.pos,polygon_24.color,polygon_25.pos,polygon_25.color,polygon_26.pos,polygon_26.color,polygon_27.pos,polygon_27.color,polygon_28.pos,polygon_28.color,polygon_29.pos,polygon_29.color,polygon_30.pos,polygon_30.color,polygon_31.pos,polygon_31.color,polygon_32.pos,polygon_32.color,dot_size,ITI.stopped,trials.thisRepN,trials.thisTrialN,trials.thisN,trials.thisIndex,trials.ran,break_2.started,break_2.stopped,trials_3.thisRepN,trials_3.thisTrialN,trials_3.thisN,trials_3.thisIndex,trials_3.ran
subject chose white,subject chose black,0.0001,23.9838,space,8.9691,,667efdb899d18edd67681784,682db3a893015186939ce41c,2025-05-21_13h06.55.432,cuing_paradigm_dot,2024.1.5,MacIntel,60.24096386,682d556593cb38ad0a074487,,,,,,,,,,,,,,,,,,,,,,,,,,,,,,,,,,,,,,,,,,,,,,,,,,,,,,,,,,,,,,,,,,,,,,,,,,,,,,,,,,,,,,,,,,,,,,,,,,,,,,,,,,,,,,,,,
,,,,,,,667efdb899d18edd67681784,682db3a893015186939ce41c,2025-05-21_13h06.55.432,cuing_paradigm_dot,2024.1.5,MacIntel,60.24096386,682d556593cb38ad0a074487,23.9841,63.6698,space,9.6718,,,,,,,,,,,,,,,,,,,,,,,,,,,,,,,,,,,,,,,,,,,,,,,,,,,,,,,,,,,,,,,,,,,,,,,,,,,,,,,,,,,,,,,,,,,,,,,,,,,,,,,,,,,,,
,,,,,,,667efdb899d18edd67681784,682db3a893015186939ce41c,2025-05-21_13h06.55.432,cuing_paradigm_dot,2024.1.5,MacIntel,60.24096386,682d556593cb38ad0a074487,,,,,,63.67,67.9364,space,1.2374,,,,,,,,,,,,,,,,,,,,,,,,,,,,,,,,,,,,,,,,,,,,,,,,,,,,,,,,,,,,,,,,,,,,,,,,,,,,,,,,,,,,,,,,,,,,,,,,,,,,,,,,
,,,,,,,667efdb899d18edd67681784,682db3a893015186939ce41c,2025-05-21_13h06.55.432,cuing_paradigm_dot,2024.1.5,MacIntel,60.24096386,682d556593cb38ad0a074487,,,,,,,,,,,67.9622,68.452,68.4525,68.7033,68.7036,69.6528,right,0.9205,,69.6529,70.7524,0,0,0,1,1,0.2,,,,,,,,,,,,,,,,,,,,,,,,,,,,,,,,,,,,,,,,,,,,,,,,,,,,,,,,,,,,,,,,,,,,,,,,,,,,,,,,,,,,,,
,,,,,,,667efdb899d18edd67681784,682db3a893015186939ce41c,2025-05-21_13h06.55.432,cuing_paradigm_dot,2024.1.5,MacIntel,60.24096386,682d556593cb38ad0a074487,,,,,,,,,,,70.7527,71.2514,71.2515,71.5034,71.5034,72.0694,right,0.5498,,72.0696,73.1695,0,1,1,0,1,0.8,,,,,,,,,,,,,,,,,,,,,,,,,,,,,,,,,,,,,,,,,,,,,,,,,,,,,,,,,,,,,,,,,,,,,,,,,,,,,,,,,,,,,,
,,,,,,,667efdb899d18edd67681784,682db3a893015186939ce41c,2025-05-21_13h06.55.432,cuing_paradigm_dot,2024.1.5,MacIntel,60.24096386,682d556593cb38ad0a074487,,,,,,,,,,,,,,,,,,,,,,,,,,,,73.1701,77.887,space,1.7005,,,,,,,,,,,,,,,,,,,,,,,,,,,,,,,,,,,,,,,,,,,,,,,,,,,,,,,,,,,,,,,,,,,,,,,,,,,,,,,,,,
,,,,,,,667efdb899d18edd67681784,682db3a893015186939ce41c,2025-05-21_13h06.55.432,cuing_paradigm_dot,2024.1.5,MacIntel,60.24096386,682d556593cb38ad0a074487,,,,,,,,,,,77.9074,78.4031,,,78.654,79.4522,left,0.7825,,,,,,,,,0.4,,,,,,78.4037,78.6539,79.4527,"[-0.08423355774563035,0.12401582513238044]","[-1,-1,-1]","[0.06260613799459222,-0.11439019827184076]","[-1,-1,-1]","[-0.11508314300211686,-0.12445377652494538]","[-1,-1,-1]","[0.17322150245496076,-0.04388292015632089]","[-1,-1,-1]","[-0.005915824437790959,-0.1913148946041534]","[1,1,1]","[-0.18658662934414147,-0.04442362235537139]","[-1,-1,-1]","[-0.08750223879339185,-0.15429590933488285]","[-1,-1,-1]","[-0.0409956715834641,0.04457350673501165]","[1,1,1]","[-0.07327879236411113,0.07441701880608871]","[1,1,1]","[0.11165037340778632,0.036424885841431026]","[1,1,1]","[0.034664514253552756,0.0026552385626177084]","[-1,-1,-1]","[-0.043771766962914786,-0.10801990399531185]","[-1,-1,-1]","[-0.07016734321902256,0.18697287168752252]","[1,1,1]","[-0.07750719731459917,-0.04353149373949254]","[1,1,1]","[0.02557246641519022,0.17933114227221775]","[-1,-1,-1]","[0.045964055703856595,-0.18194838710654843]","[-1,-1,-1]","[-0.04619192262553698,-0.17786281023534098]","[1,1,1]","[-0.02025110191640406,-0.04013931342690269]","[-1,-1,-1]","[0.12600735204262586,-0.08104610145267654]","[-1,-1,-1]","[-0.12925949457898983,-0.008410050236862497]","[-1,-1,-1]","[0.1644846876801279,-0.004512270858551214]","[1,1,1]","[-0.15891118057623538,0.11478580058554363]","[-1,-1,-1]","[0.07221195545738349,-0.037669322607252365]","[-1,-1,-1]","[-0.10764982475739306,0.16064727198147807]","[-1,-1,-1]","[0.10341629238541647,0.15728187183601341]","[1,1,1]","[-0.12032729098463178,0.035887150683173406]","[1,1,1]","[0.11751007996489904,-0.14696194664063258]","[-1,-1,-1]","[-0.1971024491733478,-0.001935627295449002]","[-1,-1,-1]","[0.0032795083067672453,0.10189906809670285]","[1,1,1]","[0.16272336902495704,0.0688781255065772]","[1,1,1]","[-0.025239697134649096,0.14452786865791048]","[-1,-1,-1]","[0.00581434976330924,-0.10450877513653106]","[1,1,1]","[0.02,0.02]",80.5533,0,0,0,43,1,,,,,,,
,,,,,,,667efdb899d18edd67681784,682db3a893015186939ce41c,2025-05-21_13h06.55.432,cuing_paradigm_dot,2024.1.5,MacIntel,60.24096386,682d556593cb38ad0a074487,,,,,,,,,,,80.5538,81.0522,,,81.3029,82.2365,left,0.9208,,,,,,,,,0.45,,,,,,81.0524,81.3029,82.2366,"[0.1815685060755796,-0.04355074229415458]","[1,1,1]","[-0.07601081629155672,-0.007374579389891119]","[1,1,1]","[-0.14667472356177544,0.10971962882018632]","[1,1,1]","[-0.02940844021761334,-0.12085061139356862]","[1,1,1]","[-0.07323107097668563,-0.11633786961510677]","[1,1,1]","[-0.01562024756319459,0.1758506431639131]","[-1,-1,-1]","[-0.014570427656975438,0.008482482977849759]","[-1,-1,-1]","[0.09813297506775803,-0.07792885347624597]","[1,1,1]","[0.010322785478099332,0.04241465805808824]","[1,1,1]","[0.07001973808166669,0.1738100976972523]","[-1,-1,-1]","[-0.14951392296376007,-0.028834902728335637]","[-1,-1,-1]","[-0.10037761233315978,-0.04225307494959372]","[-1,-1,-1]","[0.1149711994926692,0.06125710426869534]","[-1,-1,-1]","[-0.15096922121212578,-0.08641178313003613]","[-1,-1,-1]","[0.08850714481728549,-0.12017357973964296]","[1,1,1]","[0.032374482301209914,-0.1398243167515556]","[1,1,1]","[-0.04084407959695953,0.09279394896303803]","[1,1,1]","[-0.10518264866924071,0.16444317365645894]","[1,1,1]","[-0.13271488855134556,0.029710017241837843]","[1,1,1]","[0.10835763087020794,-0.165198311547695]","[-1,-1,-1]","[-0.05387347582072171,0.04418813067524125]","[-1,-1,-1]","[-0.11985374903419777,0.07301013280078854]","[-1,-1,-1]","[-0.14463252829526582,-0.13188090889723467]","[-1,-1,-1]","[0.10209247325042248,0.10904361336285724]","[-1,-1,-1]","[-0.02004710613640686,-0.19547994218487344]","[1,1,1]","[0.012155413785699783,-0.09380392107101691]","[-1,-1,-1]","[0.13916779963791184,-0.06860984750716191]","[-1,-1,-1]","[0.15307581176357354,0.1252769451438082]","[-1,-1,-1]","[0.05541934155448214,-0.01773498778179902]","[-1,-1,-1]","[0.1428943090528147,-0.11978435654815078]","[-1,-1,-1]","[-0.17514039558793704,0.011956762517359276]","[1,1,1]","[-0.001554933905940188,0.12588403397152692]","[-1,-1,-1]","[0.02,0.02]",83.3357,0,1,1,78,1,,,,,,,
,,,,,,,667efdb899d18edd67681784,682db3a893015186939ce41c,2025-05-21_13h06.55.432,cuing_paradigm_dot,2024.1.5,MacIntel,60.24096386,682d556593cb38ad0a074487,,,,,,,,,,,83.3363,83.8366,,,84.0872,84.6025,left,0.4998,,,,,,,,,0.1,,,,,,83.8367,84.0871,84.6026,"[-0.008344507216865957,0.1153028850788347]","[-1,-1,-1]","[-0.04295408030912861,-0.17652779438421498]","[-1,-1,-1]","[0.11741246798449097,-0.025544062276611375]","[-1,-1,-1]","[0.08466202453774645,0.096008855048111]","[-1,-1,-1]","[0.10092432200741078,-0.15431224161519091]","[-1,-1,-1]","[-0.012609470825429684,-0.03052392075253803]","[-1,-1,-1]","[0.015038979774374737,0.07698066616308141]","[-1,-1,-1]","[0.0859088781578268,0.01012372880498962]","[-1,-1,-1]","[0.011486827033526013,-0.19033397824671525]","[1,1,1]","[0.02990340593235933,-0.0733470866375511]","[-1,-1,-1]","[-0.06112645817320354,0.1729613924463667]","[1,1,1]","[0.007361225342017422,0.16520382917044774]","[-1,-1,-1]","[0.13699587774654678,0.03190440419638621]","[-1,-1,-1]","[0.011557213028676312,0.021328778728775862]","[-1,-1,-1]","[0.06974451639317283,0.18285167881707487]","[-1,-1,-1]","[0.08741714797517641,-0.09821685610114186]","[-1,-1,-1]","[-0.14682202835329358,-0.057504144636416336]","[-1,-1,-1]","[-0.1221720980645887,0.07316807283343234]","[-1,-1,-1]","[-0.12341023770896009,-0.01807720319014393]","[1,1,1]","[-0.06916779855517992,0.12456203459033344]","[-1,-1,-1]","[-0.09708834865708824,-0.15883924358547982]","[-1,-1,-1]","[0.15897304055704098,0.08846634283419638]","[-1,-1,-1]","[0.1936597988824209,-0.0020933831901849753]","[-1,-1,-1]","[-0.04531914987540009,-0.11868062267719849]","[-1,-1,-1]","[0.03858691634196145,0.11676573046199903]","[-1,-1,-1]","[0.12804433873163457,-0.1036773239890399]","[-1,-1,-1]","[-0.19646137340702038,-0.03668446325095872]","[-1,-1,-1]","[-0.02613816809432515,-0.0743472786973474]","[-1,-1,-1]","[0.02480047818151915,-0.1291332905746406]","[-1,-1,-1]","[-0.11996445560887266,0.14322129514046908]","[-1,-1,-1]","[0.16366521096023876,-0.039231235049986934]","[-1,-1,-1]","[0.054565849323073776,-0.1625585621205883]","[-1,-1,-1]","[0.02,0.02]",85.703,0,2,2,13,1,,,,,,,
,,,,,,,667efdb899d18edd67681784,682db3a893015186939ce41c,2025-05-21_13h06.55.432,cuing_paradigm_dot,2024.1.5,MacIntel,60.24096386,682d556593cb38ad0a074487,,,,,,,,,,,85.7032,86.2029,,,86.4531,87.1535,right,0.6856,,,,,,,,,0.45,,,,,,86.2029,86.453,87.1536,"[-0.11807708119116309,0.02595680395946821]","[-1,-1,-1]","[0.08577802033039791,0.07569378564075555]","[-1,-1,-1]","[0.08005708251747314,0.18091479080120706]","[1,1,1]","[-0.076626043171609,-0.08423402505819963]","[-1,-1,-1]","[0.17423773779368237,0.05784443480775616]","[-1,-1,-1]","[0.05999568916047329,-0.14428812623963244]","[-1,-1,-1]","[-0.1910721423308499,-0.0283885634191636]","[-1,-1,-1]","[-0.19214561355861048,0.01539450782654975]","[-1,-1,-1]","[0.013386069305538158,0.1297121283702884]","[1,1,1]","[-0.1344779646200756,0.1275784343036249]","[1,1,1]","[0.014829896735109083,0.02354574474302309]","[1,1,1]","[0.09588425122890042,0.015162434013585833]","[-1,-1,-1]","[-0.07245876025631935,0.05624293104131147]","[1,1,1]","[-0.09872950111271338,-0.009438995834157205]","[-1,-1,-1]","[0.15225529419029835,-0.05011445178117413]","[1,1,1]","[-0.12553590361649,-0.1283307873155269]","[-1,-1,-1]","[0.02910677455501698,-0.038863307742017066]","[1,1,1]","[-0.1547811763324685,0.04848098621136213]","[-1,-1,-1]","[-0.05539057070211967,0.133810308032054]","[1,1,1]","[0.053948327722617644,-0.09510171502874785]","[-1,-1,-1]","[-0.04124252321463063,-0.1282631141355077]","[1,1,1]","[0.12170081996322486,0.11309540028838215]","[-1,-1,-1]","[-0.014353537571303757,0.10060664109984765]","[-1,-1,-1]","[-0.028768054658780105,-0.0326602850961526]","[-1,-1,-1]","[0.012334384436096685,-0.14777124702257255]","[-1,-1,-1]","[0.11652286772481112,-0.1357829798199507]","[-1,-1,-1]","[0.03171526275902872,0.169426374791606]","[1,1,1]","[-0.1462357121276481,-0.054023705140906715]","[-1,-1,-1]","[-0.018754095422151056,0.17418294102772366]","[1,1,1]","[0.04367253853338518,-0.18589471923313564]","[1,1,1]","[0.03996675163022878,0.07131313750434048]","[1,1,1]","[-0.06999403032053166,-0.16963130731603035]","[1,1,1]","[0.02,0.02]",88.2535,0,3,3,81,1,,,,,,,
,,,,,,,667efdb899d18edd67681784,682db3a893015186939ce41c,2025-05-21_13h06.55.432,cuing_paradigm_dot,2024.1.5,MacIntel,60.24096386,682d556593cb38ad0a074487,,,,,,,,,,,88.254,88.7526,,,89.004,89.9693,left,0.9548,,,,,,,,,0.5,,,,,,88.7526,89.004,89.9694,"[-0.0061101170775031315,-0.07168005563084136]","[1,1,1]","[0.1367359904298964,0.05088182962658083]","[-1,-1,-1]","[0.16064473419810588,-0.00042266365268059294]","[-1,-1,-1]","[-0.02134398607873364,-0.15327403858590216]","[-1,-1,-1]","[-0.12554182435531958,-0.040712323211420647]","[-1,-1,-1]","[0.04327308807214851,0.1835103554039593]","[1,1,1]","[0.04991638274452653,0.0006018733085719508]","[-1,-1,-1]","[-0.11742324709333507,0.007516101039596234]","[-1,-1,-1]","[-0.02868282296757557,0.010686896324837563]","[1,1,1]","[-0.050883075321451525,0.10323619405502552]","[1,1,1]","[0.07273742235835773,0.10815707154645561]","[1,1,1]","[0.028146831847855408,0.04867303169913457]","[1,1,1]","[-0.07993550443504403,-0.07917620974084986]","[-1,-1,-1]","[-0.07212168113538894,-0.004000681721463487]","[-1,-1,-1]","[0.11347231666190084,-0.06766932897533515]","[-1,-1,-1]","[0.16245288850551046,-0.10455050520428362]","[-1,-1,-1]","[-0.018610929034713338,0.12966500586822993]","[-1,-1,-1]","[-0.18060856977335646,0.04148323722761243]","[1,1,1]","[-0.042832718780341644,0.17351773291953845]","[-1,-1,-1]","[0.07851290154866201,-0.11857387467823771]","[1,1,1]","[0.06708478161474522,-0.06596648225257949]","[1,1,1]","[-0.042203788749389765,0.05980810445049814]","[1,1,1]","[-0.19852182886002742,0.004514749103196271]","[-1,-1,-1]","[-0.13788643175351023,-0.1160268445902246]","[1,1,1]","[-0.12535196833355364,0.15101944488429325]","[-1,-1,-1]","[0.19250038968849958,0.03536230686296419]","[1,1,1]","[0.13189026602764337,0.12794563706348244]","[1,1,1]","[0.022148973152911592,-0.10394061181532586]","[-1,-1,-1]","[-0.09723472836489318,-0.1279375983634642]","[-1,-1,-1]","[-0.16198953077405873,0.08480480954427219]","[1,1,1]","[-0.08699739844398609,0.1745676950849642]","[1,1,1]","[-0.10179623232664031,0.04808172479230471]","[1,1,1]","[0.02,0.02]",91.0702,0,4,4,92,1,,,,,,,
,,,,,,,667efdb899d18edd67681784,682db3a893015186939ce41c,2025-05-21_13h06.55.432,cuing_paradigm_dot,2024.1.5,MacIntel,60.24096386,682d556593cb38ad0a074487,,,,,,,,,,,91.0708,91.5704,,,91.8205,92.7704,right,0.9341,,,,,,,,,0.5,,,,,,91.5704,91.8205,92.7705,"[-0.1241416193371574,-0.011945124014435047]","[-1,-1,-1]","[-0.08229646491218019,0.1741628132432045]","[1,1,1]","[-0.10968382812710852,0.046691859572529165]","[-1,-1,-1]","[0.006243981625702624,0.0435836896264435]","[1,1,1]","[-0.08175384825290555,-0.06344784905111647]","[-1,-1,-1]","[0.07933507780257261,-0.08702302393948712]","[1,1,1]","[-0.16463496530268115,0.05363353603199877]","[1,1,1]","[-0.13789345176493342,0.11417288506298454]","[1,1,1]","[0.1782347273894826,-0.008998434600585881]","[-1,-1,-1]","[-0.0215403378881587,-0.0936588389531766]","[1,1,1]","[0.04588227926295859,0.13025546390214282]","[-1,-1,-1]","[-0.03806392529502205,-0.0000718573845346576]","[-1,-1,-1]","[0.1445071535568852,0.1354575279051021]","[1,1,1]","[0.033360332129952305,-0.06833670943016397]","[-1,-1,-1]","[-0.03019130818725897,0.11213518954697388]","[1,1,1]","[-0.03804993841285003,0.06194584345393847]","[1,1,1]","[-0.08544833389836536,0.0031719609272241197]","[-1,-1,-1]","[-0.0396471009379141,-0.13911157151207282]","[1,1,1]","[0.013309978351501415,-0.12071650119817702]","[-1,-1,-1]","[0.04678506019272937,0.18179422524895156]","[1,1,1]","[0.09746645140839355,-0.016588849750567406]","[1,1,1]","[0.053983405576815295,0.013291137577020808]","[1,1,1]","[-0.08026841803647375,-0.17841879629923973]","[1,1,1]","[0.0921205314767147,0.09293412464026012]","[-1,-1,-1]","[0.09554966154478203,0.03735490481199416]","[-1,-1,-1]","[0.18003495363937402,-0.07007305501727408]","[-1,-1,-1]","[-0.15535239079832341,-0.11251311134114471]","[-1,-1,-1]","[0.08111781295973819,0.15166542786562687]","[1,1,1]","[0.12932688757166924,-0.09774958601037446]","[1,1,1]","[0.0006796530094681732,-0.18092959422593632]","[-1,-1,-1]","[0.19216241987672938,0.031068230976117335]","[-1,-1,-1]","[-0.07082292661630853,-0.10871033343099555]","[-1,-1,-1]","[0.02,0.02]",93.8701,0,5,5,107,1,,,,,,,
,,,,,,,667efdb899d18edd67681784,682db3a893015186939ce41c,2025-05-21_13h06.55.432,cuing_paradigm_dot,2024.1.5,MacIntel,60.24096386,682d556593cb38ad0a074487,,,,,,,,,,,93.8704,94.3704,,,94.6198,95.2038,right,0.5667,,,,,,,,,0.9,,,,,,94.3704,94.6198,95.2038,"[-0.05290909209324415,0.17043206444855205]","[-1,-1,-1]","[-0.13567925588433344,0.12679633683760222]","[1,1,1]","[0.18926641680729578,0.060121213031014566]","[1,1,1]","[-0.1289140307048094,-0.14448949968083516]","[1,1,1]","[-0.14150662052436366,0.019871152701943534]","[1,1,1]","[0.07423312700954332,-0.05674530732340252]","[1,1,1]","[0.0504575937789172,-0.1324806680685512]","[1,1,1]","[-0.05906186764307473,-0.12038656802826882]","[1,1,1]","[0.026019319767616792,0.17532057490101963]","[1,1,1]","[0.0055708834188803865,-0.15612622973917742]","[1,1,1]","[-0.04528393529539806,-0.009563092645849775]","[-1,-1,-1]","[-0.0074653700286175725,-0.04660840895455951]","[1,1,1]","[0.18445768239248259,-0.058852009839493236]","[1,1,1]","[-0.06905188052818234,0.06811276798117587]","[1,1,1]","[0.029370798555685945,-0.09744326427003491]","[1,1,1]","[0.14110537392389247,-0.011658789909966393]","[1,1,1]","[-0.1105539808942679,-0.015335661292240519]","[1,1,1]","[-0.10695093158012706,-0.07642504619811377]","[1,1,1]","[0.10006582790354974,-0.1554741977522764]","[1,1,1]","[0.10211011058585151,-0.08773709111268892]","[-1,-1,-1]","[0.07252139806305626,0.08273537826584794]","[1,1,1]","[0.10494271491794367,0.12374710125271977]","[1,1,1]","[-0.16463204632930162,-0.08181059637383298]","[1,1,1]","[0.00565671170699948,0.1042661817233633]","[1,1,1]","[0.06053838965285273,-0.011778179444981586]","[1,1,1]","[-0.03285511650296621,0.02868311697906227]","[1,1,1]","[-0.07973325960748592,0.11649592235044991]","[1,1,1]","[-0.16767535311745121,-0.04131650930256721]","[1,1,1]","[-0.15163284460844267,0.0855542079843003]","[1,1,1]","[0.02092328243469583,0.04369161858262701]","[1,1,1]","[-0.10254513323655692,0.15710716369267547]","[1,1,1]","[-0.0427990110839157,-0.16657546998133918]","[1,1,1]","[0.02,0.02]",96.3039,0,6,6,181,1,,,,,,,
,,,,,,,667efdb899d18edd67681784,682db3a893015186939ce41c,2025-05-21_13h06.55.432,cuing_paradigm_dot,2024.1.5,MacIntel,60.24096386,682d556593cb38ad0a074487,,,,,,,,,,,96.3044,96.8029,,,97.0543,97.5696,left,0.4986,,,,,,,,,0.4,,,,,,96.8029,97.0542,97.5697,"[0.1367310739221028,-0.07012462125824989]","[1,1,1]","[-0.06030220857776531,-0.16939712361436754]","[-1,-1,-1]","[0.08503977335744488,0.15888413874371118]","[1,1,1]","[-0.04425146077556447,-0.0270148304754533]","[1,1,1]","[0.13253069512244958,0.040360835855797965]","[-1,-1,-1]","[0.06512605110469752,-0.1185820774798352]","[1,1,1]","[0.11153281093684654,-0.12387220092790674]","[-1,-1,-1]","[-0.020016544070998645,-0.09684992087759467]","[-1,-1,-1]","[-0.09151913963870967,-0.023154731971813784]","[1,1,1]","[-0.07558351631673442,-0.11877920015633162]","[-1,-1,-1]","[-0.035211521952312815,0.17034587614723634]","[-1,-1,-1]","[0.08386219673285351,0.08427686712015901]","[-1,-1,-1]","[0.02537772765441396,-0.0825678699604541]","[1,1,1]","[-0.12259364328196136,0.008403131911508297]","[-1,-1,-1]","[-0.164892029322829,-0.035978087152721376]","[1,1,1]","[0.04150721528515934,0.1547852820815016]","[1,1,1]","[-0.15034808242640343,-0.12341054357031286]","[-1,-1,-1]","[-0.062498054337527455,0.03618610889463861]","[1,1,1]","[0.071234436350654,0.0170858187848634]","[-1,-1,-1]","[0.1295628706701049,0.09695141536045863]","[1,1,1]","[-0.02257613586790712,-0.1528919564500576]","[-1,-1,-1]","[-0.03256099185613133,0.07682934982392305]","[-1,-1,-1]","[-0.12469128589941496,0.1023614154956463]","[-1,-1,-1]","[0.18717492288620882,0.04053688056131412]","[-1,-1,-1]","[0.1693215142104715,-0.003962425479831333]","[-1,-1,-1]","[-0.16561071810530628,0.11075297988289726]","[-1,-1,-1]","[0.13304156223394184,0.1425826940094209]","[1,1,1]","[-0.11492180252899158,-0.06442100563577345]","[-1,-1,-1]","[-0.002110489449969868,0.026626455948193024]","[-1,-1,-1]","[-0.16904569584938187,0.02160587337015031]","[-1,-1,-1]","[0.00746180699833048,-0.18778745217752563]","[1,1,1]","[0.07133060849620722,-0.16875992717274424]","[1,1,1]","[0.02,0.02]",98.6706,0,7,7,42,1,,,,,,,
,,,,,,,667efdb899d18edd67681784,682db3a893015186939ce41c,2025-05-21_13h06.55.432,cuing_paradigm_dot,2024.1.5,MacIntel,60.24096386,682d556593cb38ad0a074487,,,,,,,,,,,98.6712,99.1698,,,99.4203,99.9197,right,0.4871,,,,,,,,,0.4,,,,,,99.1698,99.4203,99.9198,"[-0.04933930598225894,-0.18117071945664143]","[1,1,1]","[-0.11840509768601873,-0.08493732139494926]","[-1,-1,-1]","[0.1392281225985084,0.018083995440132825]","[-1,-1,-1]","[0.03479597753795852,-0.002697240548095963]","[1,1,1]","[-0.04168354392577406,-0.07654943688094487]","[-1,-1,-1]","[0.15683028425056617,0.07587935316142227]","[-1,-1,-1]","[0.01842423702969515,-0.09821263831141012]","[-1,-1,-1]","[-0.13760356019649791,0.13966966697122735]","[1,1,1]","[-0.08742171144933832,0.1013418476329962]","[1,1,1]","[-0.06535652644261046,0.040878758025905446]","[1,1,1]","[-0.07635516743351184,-0.023777380448067494]","[-1,-1,-1]","[0.08937447014845848,-0.04075097894842808]","[-1,-1,-1]","[0.1918132051984578,-0.011366679440271666]","[1,1,1]","[0.08128282382814916,-0.08290615179175159]","[-1,-1,-1]","[0.19360494750921886,0.04858899398003391]","[1,1,1]","[0.05044427252098097,-0.1753241624115578]","[-1,-1,-1]","[-0.010035640416545933,-0.03879318819081125]","[-1,-1,-1]","[0.09866421294324232,-0.16242926199316937]","[1,1,1]","[-0.028641576004968996,0.15325940722488363]","[-1,-1,-1]","[0.1353661421237474,-0.09703932246098812]","[1,1,1]","[-0.12276045664498217,-0.14110716598331244]","[1,1,1]","[0.036818364437350024,0.18185754859706416]","[-1,-1,-1]","[-0.0748318293874112,-0.1311898727273539]","[-1,-1,-1]","[-0.1367703963999417,-0.02309767799230477]","[1,1,1]","[-0.02203451438301059,0.10879681627304241]","[-1,-1,-1]","[-0.16854113626185585,-0.08386563465928576]","[-1,-1,-1]","[0.09503654191540378,0.08139015084721307]","[1,1,1]","[0.15882002167878873,-0.055855337197967106]","[-1,-1,-1]","[-0.13077304792660546,0.021815937936933073]","[1,1,1]","[0.08498361907448375,0.02699393087145773]","[-1,-1,-1]","[-0.1570487060743803,0.08698723449004919]","[-1,-1,-1]","[-0.19316252283341476,-0.013901978769879336]","[-1,-1,-1]","[0.02,0.02]",101.0194,0,8,8,38,1,,,,,,,
,,,,,,,667efdb899d18edd67681784,682db3a893015186939ce41c,2025-05-21_13h06.55.432,cuing_paradigm_dot,2024.1.5,MacIntel,60.24096386,682d556593cb38ad0a074487,,,,,,,,,,,101.0196,101.5206,,,101.7705,102.404,right,0.6281,,,,,,,,,0.55,,,,,,101.5206,101.7704,102.404,"[-0.1824102836476368,0.05672527223311902]","[-1,-1,-1]","[0.1522172561628655,-0.016164891114388277]","[-1,-1,-1]","[0.12412773583719734,0.04220267418098841]","[1,1,1]","[-0.12918349288816444,0.04530051313763168]","[1,1,1]","[-0.019446628920680102,0.15653630260747833]","[1,1,1]","[0.13865463972906056,-0.0885447625000699]","[1,1,1]","[0.07136957090621994,0.13379011771691862]","[-1,-1,-1]","[0.1809936251707471,0.07713828692377922]","[1,1,1]","[-0.16766645409761138,-0.03346554738601352]","[-1,-1,-1]","[0.0976987937498985,0.007358994592280959]","[-1,-1,-1]","[-0.1202133096759646,-0.04045619790915037]","[-1,-1,-1]","[0.07800619422455234,0.0841304149428709]","[1,1,1]","[-0.08756538340726822,0.062086061022270086]","[-1,-1,-1]","[0.19734689017592227,-0.007646128370941719]","[1,1,1]","[-0.14395312609314334,0.08741315548101922]","[1,1,1]","[-0.15090133843789302,-0.10192897342870136]","[-1,-1,-1]","[-0.05974202302981424,-0.10119826857386627]","[-1,-1,-1]","[-0.04911949798600222,0.18545345479404982]","[1,1,1]","[0.020985322798679006,-0.14785819309481538]","[1,1,1]","[0.14273014017821206,0.11410853185533411]","[-1,-1,-1]","[0.028733858274790535,0.17706572645580518]","[-1,-1,-1]","[-0.03495886847367599,0.11512189118011132]","[1,1,1]","[-0.03289745756332676,-0.0012801754970095658]","[1,1,1]","[0.03496360570905444,-0.05050799468308296]","[1,1,1]","[-0.07378106471154511,-0.0009760611728146952]","[-1,-1,-1]","[-0.09311812159731982,0.14104900334275514]","[1,1,1]","[-0.02791795969182227,-0.1775685100023083]","[1,1,1]","[-0.08421260683232143,-0.059457046586449756]","[-1,-1,-1]","[0.14093573219905037,-0.1368557398785026]","[-1,-1,-1]","[0.03038278722589935,0.04983770350206673]","[1,1,1]","[-0.01609463790982165,-0.09595688003055057]","[1,1,1]","[0.103378836503677,0.16157201703289642]","[1,1,1]","[0.02,0.02]",103.5041,0,9,9,132,1,,,,,,,
,,,,,,,667efdb899d18edd67681784,682db3a893015186939ce41c,2025-05-21_13h06.55.432,cuing_paradigm_dot,2024.1.5,MacIntel,60.24096386,682d556593cb38ad0a074487,,,,,,,,,,,103.5046,104.0041,,,104.2547,104.8207,right,0.5609,,,,,,,,,0.9,,,,,,104.0042,104.2547,104.8208,"[-0.11303289041015552,-0.014852381590594946]","[1,1,1]","[-0.044064170231183475,0.06578028319108008]","[1,1,1]","[-0.13690931413295004,-0.0778855157446344]","[-1,-1,-1]","[0.14769550628657863,-0.04833402456381225]","[1,1,1]","[0.028647985038032772,0.17303357647118214]","[1,1,1]","[0.0347140976986765,-0.05847626883294878]","[1,1,1]","[-0.10690897527524634,-0.16806154394429984]","[1,1,1]","[-0.04566797105347008,-0.07825147144139251]","[1,1,1]","[0.12560144028198272,-0.09674618617234493]","[1,1,1]","[0.08946987819710558,0.06190441272619802]","[1,1,1]","[-0.053230926215544205,0.021814168880372714]","[1,1,1]","[-0.17046749197696412,-0.039929501331532585]","[1,1,1]","[-0.06324811705837276,-0.13597791283258656]","[1,1,1]","[-0.0666239126461377,0.10922924328908598]","[1,1,1]","[0.06889181013579716,-0.13700782308716455]","[1,1,1]","[-0.14382458820659705,0.11533378251884326]","[1,1,1]","[0.1742658585819627,0.0036561341349246384]","[1,1,1]","[0.04454019107247798,0.09938503942310327]","[1,1,1]","[-0.1870252467981723,0.03046973480546575]","[1,1,1]","[-0.03579686612268428,-0.03147655282606538]","[1,1,1]","[-0.014886605348232874,-0.1800074275342467]","[1,1,1]","[0.01806798477415867,-0.10209071004270737]","[1,1,1]","[0.015152672015984223,0.05458920154243697]","[-1,-1,-1]","[-0.11512069134286142,0.0817913890429656]","[-1,-1,-1]","[-0.07606121548391234,-0.030918694664412383]","[1,1,1]","[-0.0611647882526696,0.1542236342489653]","[1,1,1]","[0.08653931418965771,-0.08209239068721684]","[1,1,1]","[0.0070994000645067884,-0.14368171227607396]","[1,1,1]","[0.07856029612687553,-0.014918950198971454]","[1,1,1]","[0.13478943075809371,0.1454010623568324]","[1,1,1]","[0.13861859641664617,0.07532473922675084]","[1,1,1]","[0.03754739961025704,0.017921523881885542]","[1,1,1]","[0.02,0.02]",105.92,0,10,10,186,1,,,,,,,
,,,,,,,667efdb899d18edd67681784,682db3a893015186939ce41c,2025-05-21_13h06.55.432,cuing_paradigm_dot,2024.1.5,MacIntel,60.24096386,682d556593cb38ad0a074487,,,,,,,,,,,105.9206,106.4199,,,106.6716,107.1543,right,0.4664,,,,,,,,,0.9,,,,,,106.42,106.6716,107.1543,"[0.1346269212055568,0.06962383807930217]","[1,1,1]","[-0.13038472005758764,0.14296443561558392]","[1,1,1]","[0.014107827206326754,0.06510420360321766]","[1,1,1]","[-0.011977498853678109,0.18398427268986392]","[-1,-1,-1]","[0.08294123178448423,-0.06493835917848034]","[1,1,1]","[-0.08837084417592636,0.02820874945541307]","[1,1,1]","[-0.14593691023578076,-0.029614261205015657]","[1,1,1]","[-0.14926116484469765,0.03639772919248849]","[-1,-1,-1]","[-0.05043667942417742,-0.1278853390018439]","[1,1,1]","[-0.019371144178837663,-0.04394569153868892]","[1,1,1]","[-0.18226731771566074,0.007558156180981333]","[1,1,1]","[0.011984387460500763,0.015291889912322741]","[1,1,1]","[-0.05203846335539882,-0.186593263055159]","[1,1,1]","[0.1199713220810993,0.015802135264583704]","[1,1,1]","[0.03639109892109198,0.1850152458069299]","[1,1,1]","[-0.08216978275211038,-0.09075541453527787]","[1,1,1]","[0.003216790743181103,-0.1544400647182802]","[1,1,1]","[-0.14541049351738672,-0.07462325349830724]","[1,1,1]","[0.11832964184632729,-0.12218351324748508]","[1,1,1]","[0.06877513128698157,0.058454637540762494]","[1,1,1]","[0.1617177850316447,-0.040533641077618324]","[1,1,1]","[0.05884894070592012,-0.15025675806194863]","[1,1,1]","[-0.11968834569025084,0.07927851024032725]","[1,1,1]","[-0.02042357972024967,0.1213002500663561]","[-1,-1,-1]","[0.10171338796373117,0.12667353488321775]","[1,1,1]","[0.18288483485283352,0.07564921522848131]","[1,1,1]","[0.021562131863064906,-0.035317897922733064]","[1,1,1]","[-0.07741885510738866,-0.01636997852293345]","[1,1,1]","[-0.049012685244745655,0.06794534310301843]","[1,1,1]","[-0.11061879891018346,-0.15204495639995694]","[1,1,1]","[0.013759231173905368,-0.11507552309178372]","[1,1,1]","[0.04224272114359605,-0.1872224625177897]","[1,1,1]","[0.02,0.02]",108.2533,0,11,11,208,1,,,,,,,
,,,,,,,667efdb899d18edd67681784,682db3a893015186939ce41c,2025-05-21_13h06.55.432,cuing_paradigm_dot,2024.1.5,MacIntel,60.24096386,682d556593cb38ad0a074487,,,,,,,,,,,108.2536,108.754,,,109.004,109.4202,left,0.4019,,,,,,,,,0.1,,,,,,108.754,109.004,109.4202,"[0.0656631368735338,0.13371986036445224]","[-1,-1,-1]","[-0.142831021176954,0.05801858918128233]","[-1,-1,-1]","[-0.03664418024338252,0.07325345096466224]","[1,1,1]","[0.16141062147261134,-0.021797718580645477]","[-1,-1,-1]","[-0.03211508356696698,0.032937283248223544]","[-1,-1,-1]","[-0.10081344009084114,-0.11268811576860212]","[-1,-1,-1]","[0.12931914206205194,-0.14688800348145786]","[-1,-1,-1]","[-0.007780976328050264,-0.149720786315854]","[1,1,1]","[-0.15467233388401155,-0.011543821805826091]","[-1,-1,-1]","[0.10995033433111132,0.12663490557050167]","[-1,-1,-1]","[0.020797868640519974,0.1608320747052274]","[-1,-1,-1]","[-0.10771532766132356,0.08812201120469008]","[-1,-1,-1]","[0.1149681874291234,-0.08578536954527118]","[-1,-1,-1]","[0.04292857852650665,-0.02665837383830338]","[-1,-1,-1]","[0.11006400304950173,0.00962471715011953]","[-1,-1,-1]","[0.05847619267798368,0.04733375384955765]","[-1,-1,-1]","[0.06380971592671751,0.09245458267194934]","[-1,-1,-1]","[0.01809677976817516,-0.06451424461145457]","[-1,-1,-1]","[0.1599452554034505,-0.08058913635272609]","[-1,-1,-1]","[-0.19627265768693192,0.02550617868777992]","[-1,-1,-1]","[-0.17462333287209134,-0.06494975284629878]","[-1,-1,-1]","[-0.07006081853845283,-0.05767523456045048]","[-1,-1,-1]","[-0.138358963745324,-0.13999979288656195]","[-1,-1,-1]","[-0.03634966586052581,-0.18660208652367322]","[-1,-1,-1]","[-0.04028197717363057,-0.0068864453556372225]","[-1,-1,-1]","[0.13180087178921646,0.07554592074106246]","[-1,-1,-1]","[0.0068774646847943165,0.04886151724853645]","[-1,-1,-1]","[-0.12337145742966676,-0.06372108267128224]","[-1,-1,-1]","[0.1632916728279859,0.02719134412268247]","[1,1,1]","[-0.02447023838538876,-0.05986911368650322]","[-1,-1,-1]","[0.01477860630930141,0.11374081499126157]","[-1,-1,-1]","[-0.09840140814143253,0.15337566682706744]","[-1,-1,-1]","[0.02,0.02]",110.5212,0,12,12,14,1,,,,,,,
,,,,,,,667efdb899d18edd67681784,682db3a893015186939ce41c,2025-05-21_13h06.55.432,cuing_paradigm_dot,2024.1.5,MacIntel,60.24096386,682d556593cb38ad0a074487,,,,,,,,,,,110.5217,111.0211,,,111.2707,111.571,left,0.2955,,,,,,,,,0.1,,,,,,111.0211,111.2705,111.5711,"[0.11316074458713823,0.07053822444752049]","[1,1,1]","[-0.12325487916837526,-0.011211970127683673]","[-1,-1,-1]","[0.14111528900334053,-0.03467488423474392]","[-1,-1,-1]","[-0.0562246085955848,-0.09553429913199928]","[-1,-1,-1]","[0.18987455934724584,0.05309212412734254]","[-1,-1,-1]","[0.007573184776965104,-0.11581390672826751]","[-1,-1,-1]","[-0.07321656577569276,0.1360045028532746]","[-1,-1,-1]","[-0.10901737502606879,0.06199035054681073]","[-1,-1,-1]","[0.08543987021890556,-0.010174908862360017]","[-1,-1,-1]","[-0.01109823449461217,0.04632407694211542]","[1,1,1]","[0.025189559365967798,-0.17075591156961104]","[-1,-1,-1]","[0.004436458636756768,0.10938466861559318]","[-1,-1,-1]","[-0.08031409286225681,0.01154971883612126]","[-1,-1,-1]","[-0.05611534307348838,-0.18412224771874117]","[-1,-1,-1]","[0.0266831937963384,-0.044120937757825315]","[-1,-1,-1]","[0.1746629863425678,-0.06329214495869653]","[-1,-1,-1]","[-0.11693718906673274,-0.09038495587047685]","[-1,-1,-1]","[0.04058899316127749,0.1523801641737158]","[1,1,1]","[-0.071516519191769,-0.05105384407317206]","[-1,-1,-1]","[-0.17360516689255687,0.00606937953700395]","[-1,-1,-1]","[-0.16655117510045847,-0.0762866859815225]","[-1,-1,-1]","[-0.135528792538884,0.0931166000352481]","[-1,-1,-1]","[0.073058829254004,-0.12970474973911167]","[-1,-1,-1]","[0.12456799450031844,-0.14583201171651905]","[-1,-1,-1]","[-0.06065616193452477,0.06676794568191376]","[-1,-1,-1]","[-0.01777231089663629,-0.0026889460664085625]","[-1,-1,-1]","[-0.01976246452402245,-0.06585506457299432]","[-1,-1,-1]","[-0.03476032115713927,0.09851800901914187]","[-1,-1,-1]","[-0.02148443952066739,0.19163049382154546]","[-1,-1,-1]","[0.11223267604791935,0.1402262441614263]","[-1,-1,-1]","[0.02602849433344523,0.011217748736599961]","[-1,-1,-1]","[0.15253308405399904,0.036884781651882574]","[-1,-1,-1]","[0.02,0.02]",112.6702,0,13,13,3,1,,,,,,,
,,,,,,,667efdb899d18edd67681784,682db3a893015186939ce41c,2025-05-21_13h06.55.432,cuing_paradigm_dot,2024.1.5,MacIntel,60.24096386,682d556593cb38ad0a074487,,,,,,,,,,,112.6708,113.1713,,,113.421,114.0046,right,0.5674,,,,,,,,,0.45,,,,,,113.1713,113.4209,114.0046,"[0.12547027801780458,-0.1370036176740194]","[-1,-1,-1]","[0.028877746276570818,0.10496024738321048]","[-1,-1,-1]","[-0.13411436274692162,-0.11798381013832011]","[-1,-1,-1]","[0.013375779367411342,0.062211930297486256]","[-1,-1,-1]","[0.153110830182085,-0.1044320243553386]","[1,1,1]","[-0.03742251549740334,-0.15380374369200212]","[1,1,1]","[0.09528755357037208,-0.03959436937303572]","[-1,-1,-1]","[0.12228548176964457,0.04556427570309575]","[1,1,1]","[-0.1691916811682589,0.09138589568299652]","[-1,-1,-1]","[-0.09351071340990239,0.08457200425829191]","[-1,-1,-1]","[-0.04800968467590214,0.11467843286921788]","[1,1,1]","[0.014285782574922265,0.14942663931423886]","[-1,-1,-1]","[0.011773221245119406,-0.10105182068723371]","[1,1,1]","[-0.08339865875179703,0.14253801034836022]","[1,1,1]","[-0.19979696580955703,0.005305941693886947]","[-1,-1,-1]","[-0.13820154358831027,0.03791462583027225]","[1,1,1]","[0.13672196254365265,0.08497923820947761]","[-1,-1,-1]","[-0.04769276724969332,-0.09044997947255076]","[1,1,1]","[-0.1430945825716337,0.1258015321166158]","[-1,-1,-1]","[-0.021786333109198586,-0.021421075170714694]","[-1,-1,-1]","[-0.11931041852342379,-0.05891022242773618]","[-1,-1,-1]","[0.081465930959487,0.10782767519359569]","[-1,-1,-1]","[0.17622070632460618,0.004187365137891764]","[1,1,1]","[0.1941525903772453,-0.04059792947165947]","[1,1,1]","[0.0729978862229377,-0.11386245309411025]","[-1,-1,-1]","[0.12885143101989996,-0.06351409308023324]","[-1,-1,-1]","[0.12451677599679808,0.15561738040646456]","[-1,-1,-1]","[0.05497565801568204,-0.05494421523840928]","[1,1,1]","[-0.03963090251575615,0.07015809202140402]","[-1,-1,-1]","[-0.019644660666097165,-0.19882513617802558]","[1,1,1]","[0.1847296816823949,0.06736971633422581]","[1,1,1]","[-0.162592083276892,-0.023720258404799556]","[1,1,1]","[0.02,0.02]",115.1047,0,14,14,67,1,,,,,,,
,,,,,,,667efdb899d18edd67681784,682db3a893015186939ce41c,2025-05-21_13h06.55.432,cuing_paradigm_dot,2024.1.5,MacIntel,60.24096386,682d556593cb38ad0a074487,,,,,,,,,,,115.1052,115.6042,,,115.8535,116.638,right,0.7692,,,,,,,,,0.4,,,,,,115.6042,115.8535,116.6381,"[0.0899295457210267,-0.059687208279518136]","[-1,-1,-1]","[0.13916072390035894,0.1394970090763472]","[-1,-1,-1]","[-0.14340293291345746,0.08488951485086768]","[-1,-1,-1]","[-0.07947839214975998,-0.11222004605399277]","[1,1,1]","[-0.0291316590754246,-0.09921351276889344]","[1,1,1]","[0.12460191543479511,0.015141050211995088]","[-1,-1,-1]","[0.03234911825235586,0.07889478531121662]","[-1,-1,-1]","[-0.1627602655285766,-0.007531721460502075]","[-1,-1,-1]","[0.14319604992580856,-0.06790753149628864]","[-1,-1,-1]","[-0.1214401157973401,-0.02890558739681426]","[-1,-1,-1]","[-0.09136386929138547,-0.15291851786459607]","[-1,-1,-1]","[-0.021700429139556374,0.06158942786201258]","[1,1,1]","[-0.13849697556802146,0.13669361758973356]","[1,1,1]","[-0.03065850798146411,-0.01064654986000858]","[1,1,1]","[-0.038347517864407155,0.1266527222214811]","[-1,-1,-1]","[0.15336470174218098,-0.12633259763720878]","[1,1,1]","[0.09512073305656375,0.10504754560987571]","[-1,-1,-1]","[0.17287496523312634,0.044143574942044336]","[1,1,1]","[0.06971859524106236,0.14087729589595843]","[-1,-1,-1]","[0.0869180875796191,-0.16592902716866023]","[1,1,1]","[0.16345901386917672,0.08869051234870541]","[1,1,1]","[0.07499797270853134,0.03727141860577783]","[-1,-1,-1]","[-0.08587104066032733,0.16433414323570872]","[1,1,1]","[0.02870075900894011,0.010932966032706817]","[-1,-1,-1]","[-0.18568988311202814,0.04009542396438791]","[-1,-1,-1]","[0.11239951401850791,0.05534724850078158]","[-1,-1,-1]","[-0.07598234094599164,-0.06294522160953854]","[-1,-1,-1]","[-0.0944857759815319,0.11952464943850984]","[1,1,1]","[0.04094893336943414,-0.08901458206048847]","[1,1,1]","[0.0035682457240582646,0.1978416993347071]","[-1,-1,-1]","[-0.021891525692627572,-0.19084429414460222]","[1,1,1]","[-0.09421402074564458,0.05307899956136592]","[-1,-1,-1]","[0.02,0.02]",117.7372,0,15,15,59,1,,,,,,,
,,,,,,,667efdb899d18edd67681784,682db3a893015186939ce41c,2025-05-21_13h06.55.432,cuing_paradigm_dot,2024.1.5,MacIntel,60.24096386,682d556593cb38ad0a074487,,,,,,,,,,,117.7377,118.2379,,,118.4876,119.1373,left,0.6344,,,,,,,,,0.5,,,,,,118.238,118.4875,119.1374,"[-0.11818681699140401,-0.03275612276178134]","[1,1,1]","[-0.10624252644043437,0.1182450919504752]","[-1,-1,-1]","[0.1505536573555897,-0.10208600132120162]","[1,1,1]","[-0.017734007035944188,-0.0891892349761288]","[1,1,1]","[-0.17172091376453896,0.08900603594763976]","[1,1,1]","[-0.028619402391863943,-0.02202425325000987]","[-1,-1,-1]","[0.07104133839855664,0.055755387445305706]","[1,1,1]","[0.05647471437330444,-0.14013262651983752]","[1,1,1]","[-0.09305102300932262,0.06886280396957223]","[1,1,1]","[0.006168463929108567,-0.17519315297269147]","[1,1,1]","[-0.021894386821750815,0.11153379242589802]","[-1,-1,-1]","[0.1973377203296418,-0.026804346649198164]","[-1,-1,-1]","[0.028762576904298703,0.0515524955795344]","[-1,-1,-1]","[-0.028883263631469973,0.15187741192939383]","[1,1,1]","[0.12917677020399038,-0.034397399446230416]","[-1,-1,-1]","[0.07724214026589382,0.005796668621764288]","[1,1,1]","[-0.1653610199975061,-0.05863467387933516]","[1,1,1]","[0.039464028850060916,0.1785714532343975]","[-1,-1,-1]","[-0.06020277767069687,0.1893545962493852]","[-1,-1,-1]","[0.10613782148889583,-0.0732235454993499]","[-1,-1,-1]","[-0.04083683573562537,-0.17122291634984382]","[-1,-1,-1]","[-0.1522103701959058,0.0384974659069587]","[1,1,1]","[0.18216681922129077,-0.0722681530742437]","[-1,-1,-1]","[-0.09652771364511088,-0.16467919779201706]","[-1,-1,-1]","[0.032948924213671196,0.13327927698047196]","[-1,-1,-1]","[0.14697765552747477,0.1290283281901389]","[1,1,1]","[0.009741741572835468,-0.054767819296842615]","[1,1,1]","[0.1499436481281483,0.05935707801734746]","[-1,-1,-1]","[-0.07042849968965349,-0.025473717432747706]","[-1,-1,-1]","[-0.17190673698487943,-0.012437848982795322]","[1,1,1]","[-0.08293651677779916,0.01791834138507162]","[1,1,1]","[-0.19454794301308287,0.03770818809165121]","[-1,-1,-1]","[0.02,0.02]",120.2382,0,16,16,105,1,,,,,,,
,,,,,,,667efdb899d18edd67681784,682db3a893015186939ce41c,2025-05-21_13h06.55.432,cuing_paradigm_dot,2024.1.5,MacIntel,60.24096386,682d556593cb38ad0a074487,,,,,,,,,,,120.2387,120.7382,,,120.9875,121.6381,left,0.6337,,,,,,,,,0.5,,,,,,120.7383,120.9874,121.6382,"[0.18104650658587465,0.05266084908586128]","[1,1,1]","[-0.022713221714408142,0.16311408002620092]","[1,1,1]","[0.1336982088151745,-0.05545340191254424]","[1,1,1]","[-0.14647526621402093,0.06071586059727534]","[-1,-1,-1]","[-0.18611432743385345,0.018598724387671246]","[-1,-1,-1]","[0.04211133728501826,-0.0890912210763353]","[-1,-1,-1]","[0.04356697488971767,0.16420683743728726]","[1,1,1]","[-0.14604618944241454,-0.010077508305400983]","[1,1,1]","[0.11368665723351214,0.04230306653170451]","[-1,-1,-1]","[-0.04018883393447831,-0.11020076481056916]","[1,1,1]","[0.0637594369846668,-0.025111610805868812]","[-1,-1,-1]","[0.12955500261404687,-0.09935981779338941]","[1,1,1]","[-0.0655126293453607,0.10049583639844935]","[-1,-1,-1]","[0.06041683187699116,0.09116121580429788]","[1,1,1]","[0.06713637643693277,-0.16330984377234636]","[-1,-1,-1]","[-0.11311107183441071,-0.12507663602024013]","[1,1,1]","[-0.0817258468448482,-0.1526701252494176]","[1,1,1]","[0.17813252581923159,-0.08764792971009402]","[-1,-1,-1]","[0.012871480592706359,0.19077210791595378]","[-1,-1,-1]","[-0.17756664024281746,-0.08277243951274975]","[1,1,1]","[-0.10441239949711056,0.16228728728353686]","[-1,-1,-1]","[-0.020447869741195248,0.11818236065392372]","[-1,-1,-1]","[-0.13594463272001328,-0.060142016018934555]","[1,1,1]","[0.027330537910751844,0.00536750319556602]","[-1,-1,-1]","[0.11967332534302284,-0.15393945492682792]","[-1,-1,-1]","[-0.016196928058358543,-0.007396900078500687]","[-1,-1,-1]","[-0.003879266692619617,-0.04546900306832321]","[1,1,1]","[-0.04432051118050394,-0.05152257040996504]","[1,1,1]","[-0.0773849723798806,-0.009355610987345296]","[1,1,1]","[0.021152779648671665,-0.19087956588457097]","[1,1,1]","[-0.150635682673969,0.12763006505359734]","[-1,-1,-1]","[-0.057688003032638026,0.027889887554064276]","[-1,-1,-1]","[0.02,0.02]",122.7382,0,17,17,113,1,,,,,,,
,,,,,,,667efdb899d18edd67681784,682db3a893015186939ce41c,2025-05-21_13h06.55.432,cuing_paradigm_dot,2024.1.5,MacIntel,60.24096386,682d556593cb38ad0a074487,,,,,,,,,,,122.7388,123.2374,,,123.488,124.1051,right,0.6035,,,,,,,,,0.4,,,,,,123.2374,123.4879,124.1052,"[-0.11305518926347577,0.06257553427367911]","[-1,-1,-1]","[0.09410597764229515,0.15682662851754997]","[1,1,1]","[0.14374588311599037,0.12527584011147141]","[1,1,1]","[0.023362505792525586,-0.1736340217689859]","[1,1,1]","[-0.1757458590193514,-0.044449198249303434]","[-1,-1,-1]","[-0.09880112173160797,0.1550384805004633]","[1,1,1]","[-0.11019981509104815,-0.15525843791464475]","[-1,-1,-1]","[0.10761606317880211,-0.01883535679473512]","[-1,-1,-1]","[-0.0480298656814307,-0.18176947210547753]","[-1,-1,-1]","[0.12368856327267023,-0.11286072148226374]","[-1,-1,-1]","[0.052479348639818645,0.0604781071647657]","[-1,-1,-1]","[0.08305126979331807,-0.16415596500619012]","[-1,-1,-1]","[-0.14578039353461342,-0.11720488392671503]","[1,1,1]","[-0.05194465163683302,-0.12266685947699826]","[1,1,1]","[0.03708591417754722,0.16644943377207577]","[-1,-1,-1]","[-0.13903473267504707,-0.026150736572598275]","[-1,-1,-1]","[-0.07423917211022817,0.04789266974201414]","[-1,-1,-1]","[-0.15216319813137938,0.043860496722112945]","[-1,-1,-1]","[0.1791860765680923,0.02441031112834631]","[1,1,1]","[-0.17582321484366348,0.08677912581173731]","[-1,-1,-1]","[-0.0034972109851722356,0.12810153332736]","[-1,-1,-1]","[-0.0863063588484068,0.1071867174973039]","[1,1,1]","[-0.12726520713296674,0.12457037016432024]","[-1,-1,-1]","[-0.06363684018480341,0.18333530803412137]","[1,1,1]","[-0.005416933126683945,-0.017147508268816315]","[-1,-1,-1]","[-0.029584904129306297,0.03746592244659858]","[1,1,1]","[0.13887515383782317,0.007280398386921749]","[-1,-1,-1]","[-0.10718918618450363,0.02162670998968434]","[-1,-1,-1]","[-0.19369832558575098,0.04608895342047676]","[1,1,1]","[0.0640218130594939,-0.12500315629710668]","[-1,-1,-1]","[-0.08070793153626023,-0.08726905219557005]","[1,1,1]","[0.022802509690281053,-0.0904619014311894]","[1,1,1]","[0.02,0.02]",125.205,0,18,18,34,1,,,,,,,
,,,,,,,667efdb899d18edd67681784,682db3a893015186939ce41c,2025-05-21_13h06.55.432,cuing_paradigm_dot,2024.1.5,MacIntel,60.24096386,682d556593cb38ad0a074487,,,,,,,,,,,125.2055,125.7038,,,125.9548,126.4207,left,0.4521,,,,,,,,,0.1,,,,,,125.7038,125.9548,126.4207,"[-0.10493779860922932,0.08163805118146451]","[-1,-1,-1]","[-0.0309339481867093,0.02441403543040118]","[-1,-1,-1]","[0.005210823341602699,-0.14408264776423155]","[-1,-1,-1]","[0.09371930048029094,0.07598061222704502]","[-1,-1,-1]","[-0.060800690323717856,0.10880957244124906]","[-1,-1,-1]","[-0.033673881089354825,-0.026859980381027226]","[-1,-1,-1]","[0.009220982737697328,-0.0767267251412589]","[-1,-1,-1]","[0.09915793307931085,-0.1384989344968968]","[-1,-1,-1]","[0.03526385493065049,0.1456594326158444]","[-1,-1,-1]","[0.0542341872311067,0.017290793989931105]","[-1,-1,-1]","[-0.16222148948695783,0.0701704895387685]","[1,1,1]","[0.08871655597317957,0.16311834967804809]","[-1,-1,-1]","[-0.10186525577354232,0.03694429131856345]","[1,1,1]","[0.15896112530785747,-0.012713213858642583]","[-1,-1,-1]","[0.033999009638851024,-0.18590088740864721]","[-1,-1,-1]","[-0.06883188508212267,-0.12484821642780852]","[-1,-1,-1]","[0.10500062118434648,0.01736221870019958]","[-1,-1,-1]","[-0.008283276307260667,0.06781223579720635]","[-1,-1,-1]","[-0.0457255775611826,-0.08471106617814242]","[-1,-1,-1]","[0.05230002400132236,-0.07945821508175295]","[-1,-1,-1]","[-0.02972670810867089,0.14184826887913873]","[-1,-1,-1]","[0.18322693159325215,-0.07412936607642485]","[-1,-1,-1]","[-0.14643184443171467,-0.08679777374410508]","[-1,-1,-1]","[-0.08709530358515864,-0.07145836187399791]","[-1,-1,-1]","[-0.17831817439587913,-0.01142018377782882]","[-1,-1,-1]","[-0.040038678722674456,0.19256415319529716]","[-1,-1,-1]","[0.12103848194319348,0.10565131363937427]","[-1,-1,-1]","[0.07698229342280592,-0.1815814653614794]","[-1,-1,-1]","[-0.11046569906519337,-0.14335779511170205]","[-1,-1,-1]","[-0.13777829806762598,-0.0058920097247523165]","[1,1,1]","[-0.13792091270843485,0.11590981228484068]","[-1,-1,-1]","[0.11208425325142707,-0.08454575293226876]","[-1,-1,-1]","[0.02,0.02]",127.5218,0,19,19,20,1,,,,,,,
,,,,,,,667efdb899d18edd67681784,682db3a893015186939ce41c,2025-05-21_13h06.55.432,cuing_paradigm_dot,2024.1.5,MacIntel,60.24096386,682d556593cb38ad0a074487,,,,,,,,,,,127.5222,128.0209,,,128.2715,128.6219,left,0.3352,,,,,,,,,0.4,,,,,,128.021,128.2713,128.6219,"[0.12245319488461674,-0.11260892478581397]","[1,1,1]","[-0.038792836528316124,0.16418672950502716]","[-1,-1,-1]","[-0.01911775513690756,-0.15153850731387178]","[-1,-1,-1]","[0.032827532403767165,0.027178035241059804]","[-1,-1,-1]","[-0.07133369226597931,-0.1779475644025434]","[-1,-1,-1]","[-0.028134552922001618,-0.11179054411501912]","[-1,-1,-1]","[-0.12390412854052094,-0.034040866795370835]","[1,1,1]","[-0.050666545551656665,-0.058708510832633974]","[1,1,1]","[-0.15530189159931335,0.044790489238056085]","[-1,-1,-1]","[-0.026433057086844777,0.06645934997788927]","[-1,-1,-1]","[-0.08972004193462611,0.07292348415265497]","[-1,-1,-1]","[-0.1257964679580481,-0.1342694780367947]","[-1,-1,-1]","[-0.1585844585485882,-0.06043073036344213]","[1,1,1]","[0.06317536921196899,0.10517838843659551]","[1,1,1]","[0.1251684047323729,0.09539940484532919]","[-1,-1,-1]","[0.005853465703855267,-0.015287654378798188]","[-1,-1,-1]","[0.0698737398756157,0.05221273347789264]","[-1,-1,-1]","[-0.09496986993383691,0.13595044576613224]","[-1,-1,-1]","[0.09994868335001682,0.14875469101090552]","[1,1,1]","[0.027701881854796877,-0.16571032834430433]","[1,1,1]","[-0.10920333045526714,0.017119297309048515]","[-1,-1,-1]","[0.14756392971321694,-0.06905437602325362]","[-1,-1,-1]","[0.11160272514820771,0.05606305706148043]","[-1,-1,-1]","[0.184484243326667,0.05899019304397782]","[-1,-1,-1]","[0.06546411775668619,-0.034073166457911565]","[-1,-1,-1]","[-0.16551467229420536,-0.007212060823557198]","[1,1,1]","[0.05532765945519527,0.19122502886035198]","[1,1,1]","[0.03552723859420361,0.1457050582086822]","[1,1,1]","[0.029142214876231826,-0.12563987287346648]","[1,1,1]","[0.10218578973774109,-0.15665421454855977]","[1,1,1]","[-0.14344709827340962,0.0919677531695147]","[-1,-1,-1]","[-0.08785647315689384,-0.09750904880340666]","[1,1,1]","[0.02,0.02]",129.7208,0,20,20,30,1,,,,,,,
,,,,,,,667efdb899d18edd67681784,682db3a893015186939ce41c,2025-05-21_13h06.55.432,cuing_paradigm_dot,2024.1.5,MacIntel,60.24096386,682d556593cb38ad0a074487,,,,,,,,,,,129.721,130.2211,,,130.4722,131.0375,right,0.5506,,,,,,,,,0.45,,,,,,130.2211,130.4721,131.0375,"[0.12961828309421322,-0.08653705727651416]","[-1,-1,-1]","[-0.09192742151513694,-0.04583035295725683]","[-1,-1,-1]","[0.0849777071041036,-0.13654564601691305]","[1,1,1]","[-0.020134669090273418,-0.12893176303632645]","[-1,-1,-1]","[0.09751381979465924,0.14830569869816093]","[1,1,1]","[-0.12278640087016995,0.016777169127437402]","[1,1,1]","[0.026226720051312727,-0.013663228904445286]","[1,1,1]","[0.01857388909327859,-0.07727693357937641]","[-1,-1,-1]","[-0.11440097859477792,-0.14918669093845116]","[1,1,1]","[-0.06764312087280418,0.03152559777778801]","[-1,-1,-1]","[0.04642479025346221,0.04491332899186193]","[-1,-1,-1]","[0.17714057340465178,-0.09255538927013532]","[-1,-1,-1]","[0.1391350992135452,0.09390010393551931]","[1,1,1]","[0.10208022173225412,0.022271790243367326]","[-1,-1,-1]","[-0.18408888110506033,0.0010668725671006205]","[1,1,1]","[0.1413997151178528,-0.040992527061727436]","[-1,-1,-1]","[0.15943090509828978,0.037163178674057634]","[1,1,1]","[0.03099123299833941,0.13933124307645947]","[-1,-1,-1]","[0.02705184624555785,0.18724215497418178]","[1,1,1]","[0.08222115335097929,-0.17871069342557253]","[1,1,1]","[-0.015091875248317085,-0.0049201998185271914]","[1,1,1]","[-0.17403135833367955,0.05822639538947193]","[1,1,1]","[-0.03420687883689118,0.19174289756019963]","[-1,-1,-1]","[-0.009025339262476367,0.14172791133495277]","[1,1,1]","[-0.022737580284091227,0.08103464451160253]","[-1,-1,-1]","[-0.029109172440715304,-0.060655166849481364]","[-1,-1,-1]","[0.037233421946616344,-0.15593326839502578]","[-1,-1,-1]","[0.08958015341402734,0.06588427055219527]","[1,1,1]","[-0.096729212744238,0.15099937529221477]","[-1,-1,-1]","[-0.17869490903716148,-0.04168473120131901]","[-1,-1,-1]","[0.12551339475031234,-0.1345112539617913]","[-1,-1,-1]","[-0.011372973326622867,-0.1946282692224579]","[-1,-1,-1]","[0.02,0.02]",132.1377,0,21,21,89,1,,,,,,,
,,,,,,,667efdb899d18edd67681784,682db3a893015186939ce41c,2025-05-21_13h06.55.432,cuing_paradigm_dot,2024.1.5,MacIntel,60.24096386,682d556593cb38ad0a074487,,,,,,,,,,,132.1382,132.6387,,,132.8882,133.2878,right,0.3951,,,,,,,,,0.9,,,,,,132.6388,132.8882,133.2879,"[-0.11516472053080377,0.10299573333977846]","[1,1,1]","[0.1213056713792065,0.04979092708584672]","[1,1,1]","[-0.023769626041006766,0.023900689930924437]","[-1,-1,-1]","[0.05640178501031982,-0.0335218768319674]","[1,1,1]","[-0.1472562874282655,0.04678168372270243]","[1,1,1]","[0.08022012305364612,-0.14662473425072708]","[1,1,1]","[0.012979014384874232,-0.18601494702697524]","[1,1,1]","[-0.02248888710233004,-0.05818081053756155]","[-1,-1,-1]","[0.016521799147159937,0.13487059894077327]","[1,1,1]","[0.010642379022276412,-0.026071790494508588]","[1,1,1]","[-0.12571875560962167,-0.09430416088825448]","[1,1,1]","[0.0770482069744471,0.06529627489209859]","[1,1,1]","[0.18625639761226004,-0.007021178624800094]","[1,1,1]","[-0.06840006643190022,0.16686671240482556]","[1,1,1]","[-0.1418353572691062,-0.1341155198865174]","[1,1,1]","[-0.17142285088490125,-0.08508601520327773]","[1,1,1]","[0.13412853453866846,-0.0812680561183818]","[1,1,1]","[-0.1279603226350158,0.0000225237413778373]","[1,1,1]","[0.005968691914631419,0.07416450658123658]","[1,1,1]","[0.06752996056700482,0.152410900324145]","[1,1,1]","[0.0788485964426541,0.020069419597178555]","[1,1,1]","[0.18106571604458824,-0.07765170947876214]","[1,1,1]","[-0.027911021590227684,-0.14433221732917512]","[1,1,1]","[0.13788913753032225,-0.14288027326441308]","[1,1,1]","[-0.058428299748765115,0.09880355649837284]","[1,1,1]","[-0.08627889292064526,0.0593837416068876]","[1,1,1]","[-0.14444310792398507,-0.03994642207437077]","[1,1,1]","[0.03246063305044416,0.19328311787454552]","[1,1,1]","[0.025849741710289507,0.028011399550085084]","[1,1,1]","[0.053273614223187764,-0.08871239453484717]","[1,1,1]","[-0.10044348974348592,-0.13784060910390533]","[1,1,1]","[-0.17444130347375733,0.0030859156014406614]","[-1,-1,-1]","[0.02,0.02]",134.3888,0,22,22,194,1,,,,,,,
,,,,,,,667efdb899d18edd67681784,682db3a893015186939ce41c,2025-05-21_13h06.55.432,cuing_paradigm_dot,2024.1.5,MacIntel,60.24096386,682d556593cb38ad0a074487,,,,,,,,,,,134.3894,134.8883,,,135.1384,135.5043,left,0.3537,,,,,,,,,0.45,,,,,,134.8884,135.1384,135.5044,"[0.12494066489998706,-0.057667118019981096]","[1,1,1]","[-0.15093823425006278,-0.04660018885095122]","[-1,-1,-1]","[-0.09760481698359334,0.040116807955925]","[-1,-1,-1]","[-0.18145036078649104,-0.07267828384709249]","[1,1,1]","[0.03419887419798578,0.011476440347487639]","[1,1,1]","[-0.1028281283332638,-0.03728522927001746]","[-1,-1,-1]","[-0.07995142126423047,-0.12966414264471693]","[-1,-1,-1]","[0.08115902209748775,-0.10842757557826381]","[-1,-1,-1]","[-0.13136197857594364,-0.1324584256563516]","[1,1,1]","[0.03902337403166148,0.1779403986342758]","[1,1,1]","[0.044541503785508606,-0.16043594547128964]","[1,1,1]","[0.14889532649830597,0.07887690364114278]","[-1,-1,-1]","[0.006603983520770646,-0.0204036370397528]","[-1,-1,-1]","[0.006686562813065347,-0.1832433947442841]","[-1,-1,-1]","[-0.16268236766413166,0.042319420557615485]","[-1,-1,-1]","[0.12582215780142897,0.032295619084805494]","[1,1,1]","[-0.10119299506280613,0.1289177350402231]","[1,1,1]","[0.028618897680090388,0.09637313512161769]","[1,1,1]","[-0.012286495166576296,0.06148943429707294]","[-1,-1,-1]","[-0.06689518871750899,-0.0017122678589732538]","[-1,-1,-1]","[-0.015668544439998287,0.18772595527347713]","[-1,-1,-1]","[-0.0636158957454403,0.14377842182478554]","[-1,-1,-1]","[-0.04199894148685836,-0.10507913822143009]","[-1,-1,-1]","[-0.024945028665575363,0.11380731961144679]","[-1,-1,-1]","[0.017608649713860874,-0.11583631397728275]","[1,1,1]","[0.10976529273899423,-0.014274095508213444]","[1,1,1]","[0.11888356769446135,0.1381672547818759]","[-1,-1,-1]","[-0.03766252291011982,-0.16203348251662278]","[-1,-1,-1]","[0.12157766882573137,-0.12937369495547235]","[1,1,1]","[-0.0679436090831206,-0.05788913964267777]","[1,1,1]","[-0.06067015779150025,0.1879404179842472]","[-1,-1,-1]","[-0.15963988669025886,0.11044365321722836]","[1,1,1]","[0.02,0.02]",136.6051,0,23,23,83,1,,,,,,,
,,,,,,,667efdb899d18edd67681784,682db3a893015186939ce41c,2025-05-21_13h06.55.432,cuing_paradigm_dot,2024.1.5,MacIntel,60.24096386,682d556593cb38ad0a074487,,,,,,,,,,,136.6052,137.1055,,,137.3551,137.9548,left,0.5842,,,,,,,,,0.45,,,,,,137.1056,137.3551,137.9548,"[-0.11679796800844085,0.09113018892328945]","[1,1,1]","[-0.05602714172233403,0.11278347789248785]","[-1,-1,-1]","[0.06582112263970799,-0.11809488460273214]","[-1,-1,-1]","[0.047186472466902205,-0.17907648558387992]","[-1,-1,-1]","[0.05096507475088491,-0.06703494576639887]","[-1,-1,-1]","[-0.025909378745898676,-0.016546321566216163]","[-1,-1,-1]","[0.060638043508754694,-0.009921737932144917]","[-1,-1,-1]","[0.1551816472028095,-0.05368245400700157]","[-1,-1,-1]","[0.14679302764929356,-0.013900028128334137]","[1,1,1]","[0.07901259040621018,0.10595791594213357]","[1,1,1]","[-0.11903423028852946,0.010458469220039767]","[1,1,1]","[-0.05043396898134984,0.1684123072581693]","[1,1,1]","[-0.023970388805724954,-0.13395265979913434]","[-1,-1,-1]","[-0.08695587045472337,-0.14891590303191746]","[1,1,1]","[-0.06184954434425438,-0.0814174076244571]","[1,1,1]","[0.15052792390124334,0.07654103415484621]","[1,1,1]","[0.05646513678608505,0.1728056455982267]","[1,1,1]","[-0.16435741141417898,-0.10728100231984519]","[-1,-1,-1]","[0.10257465856055942,0.01771054195773619]","[1,1,1]","[0.02354689110244568,-0.13157219573517315]","[-1,-1,-1]","[0.13881388729874466,0.1273155551986651]","[-1,-1,-1]","[0.10892295591794918,0.06694605742516833]","[1,1,1]","[-0.14785643033786536,-0.029658499807293116]","[-1,-1,-1]","[0.031087460551380987,0.032491078215606414]","[1,1,1]","[-0.1916077410140394,0.051446136647735445]","[-1,-1,-1]","[-0.018825181915261852,0.0807672207963855]","[-1,-1,-1]","[-0.09510025683003186,0.05574595469932585]","[-1,-1,-1]","[-0.03920007076096576,-0.17179382610718902]","[1,1,1]","[0.027048204360831773,0.12681045440616734]","[-1,-1,-1]","[-0.15961982531697552,0.10586233015251043]","[-1,-1,-1]","[0.013344928520590379,-0.04064575588090142]","[1,1,1]","[0.14833193987222543,-0.1288492808103767]","[-1,-1,-1]","[0.02,0.02]",139.0557,0,24,24,84,1,,,,,,,
,,,,,,,667efdb899d18edd67681784,682db3a893015186939ce41c,2025-05-21_13h06.55.432,cuing_paradigm_dot,2024.1.5,MacIntel,60.24096386,682d556593cb38ad0a074487,,,,,,,,,,,139.0562,139.5548,,,139.8061,140.2719,right,0.4494,,,,,,,,,0.55,,,,,,139.5548,139.806,140.272,"[0.03628033880336997,0.17687215102610332]","[-1,-1,-1]","[-0.01893850036291091,0.09678951230705317]","[-1,-1,-1]","[-0.07323771392808068,0.004387354712594659]","[1,1,1]","[0.16950530622996118,-0.10292204345715525]","[-1,-1,-1]","[0.012520913436034611,-0.1701717518706401]","[1,1,1]","[-0.05392290330322118,0.18578278233567858]","[1,1,1]","[-0.018087101598356775,-0.06883251007514142]","[-1,-1,-1]","[-0.12748437042214347,-0.15384429573626748]","[1,1,1]","[0.09321568570228733,0.1354918087812591]","[-1,-1,-1]","[0.06641112472023726,-0.1818786455198254]","[-1,-1,-1]","[0.06826178308036802,0.0877198207482919]","[-1,-1,-1]","[0.18910705600408098,-0.05089090003512416]","[-1,-1,-1]","[-0.030282626327971584,-0.16598595233050883]","[1,1,1]","[0.1696209074390351,0.033253830437516736]","[-1,-1,-1]","[0.1032020239158255,-0.09030610729230737]","[1,1,1]","[-0.07775034767618838,0.07605042741455281]","[-1,-1,-1]","[0.08208992123693512,0.029591767965711807]","[-1,-1,-1]","[-0.0016905527387544284,0.13548376608470877]","[1,1,1]","[-0.1268549033732763,0.0579774266277736]","[1,1,1]","[-0.1283455871653132,-0.09450095721289205]","[1,1,1]","[0.058908207705276265,-0.05962598834273961]","[1,1,1]","[-0.07250815898447889,-0.1301143165029063]","[1,1,1]","[-0.14225684847008557,-0.050825125591641686]","[1,1,1]","[0.13738269051047422,-0.02532190551044704]","[1,1,1]","[-0.04720889138767966,0.1280870425519393]","[1,1,1]","[0.13583590422174005,0.08728928610337196]","[-1,-1,-1]","[-0.13706361773375203,0.11840395125829117]","[1,1,1]","[-0.03815127666696583,-0.015463392014877526]","[1,1,1]","[-0.09875330817629605,-0.04499264037968112]","[1,1,1]","[0.05027826626717029,-0.12241362813142335]","[1,1,1]","[0.09704138208787788,-0.01779580804666535]","[-1,-1,-1]","[-0.18820083823561357,-0.06678499208832987]","[-1,-1,-1]","[0.02,0.02]",141.3714,0,25,25,143,1,,,,,,,
,,,,,,,667efdb899d18edd67681784,682db3a893015186939ce41c,2025-05-21_13h06.55.432,cuing_paradigm_dot,2024.1.5,MacIntel,60.24096386,682d556593cb38ad0a074487,,,,,,,,,,,141.372,141.8715,,,142.1229,142.5559,right,0.4159,,,,,,,,,0.6,,,,,,141.8716,142.1228,142.5559,"[0.027846779636502363,0.15896535567157596]","[1,1,1]","[0.060158832691394305,0.05471254209745178]","[1,1,1]","[0.014853786172078717,-0.19523531493435306]","[1,1,1]","[0.13799886252048413,-0.07219575537360172]","[1,1,1]","[-0.10432504295071421,-0.01760394652776379]","[-1,-1,-1]","[-0.16282881844289215,0.02452128090673438]","[-1,-1,-1]","[0.09555264677613994,-0.14308140349787554]","[1,1,1]","[0.18203368143704357,0.06005735780886414]","[-1,-1,-1]","[0.028743482583402386,-0.037762775933102476]","[1,1,1]","[0.14079879423043914,0.057490513827754934]","[1,1,1]","[0.1396402481817083,0.013075049530675916]","[-1,-1,-1]","[-0.1707606093284285,0.06853382420992621]","[1,1,1]","[-0.0027013247617438166,-0.14420319857452465]","[1,1,1]","[-0.045943791625212185,-0.06085926096218375]","[1,1,1]","[-0.07404300220593948,-0.09577669253102493]","[-1,-1,-1]","[0.055020555593380496,-0.11612496016697078]","[1,1,1]","[0.1815346549687577,-0.07732806846571887]","[-1,-1,-1]","[0.03139218881854883,0.10371424469981673]","[1,1,1]","[0.18567833132482656,0.009451377549829096]","[1,1,1]","[0.15470127244832277,-0.10877401737739299]","[1,1,1]","[-0.017946663295527503,0.08695576648192979]","[-1,-1,-1]","[-0.07566387962849258,-0.16219212744146722]","[-1,-1,-1]","[0.09891678470104133,0.09159772987972294]","[1,1,1]","[-0.02840842820571701,-0.1771735687034488]","[-1,-1,-1]","[-0.08714662306123447,0.05212071588770504]","[-1,-1,-1]","[-0.04083554924582817,0.15193050653800996]","[-1,-1,-1]","[-0.096805712471025,0.11763710196114219]","[-1,-1,-1]","[-0.14144471840624503,-0.13689542433701726]","[1,1,1]","[-0.04843826381271182,0.023246901806389223]","[1,1,1]","[-0.11180315611624145,-0.062451243676218446]","[-1,-1,-1]","[-0.14832591740800558,-0.01784063434382689]","[1,1,1]","[0.15921013803444478,0.09338911137130346]","[1,1,1]","[0.02,0.02]",143.6558,0,26,26,179,1,,,,,,,
,,,,,,,667efdb899d18edd67681784,682db3a893015186939ce41c,2025-05-21_13h06.55.432,cuing_paradigm_dot,2024.1.5,MacIntel,60.24096386,682d556593cb38ad0a074487,,,,,,,,,,,143.6564,144.1558,,,144.406,144.9391,right,0.5273,,,,,,,,,0.9,,,,,,144.1559,144.406,144.9391,"[0.0023235793151254276,0.052158465626059636]","[1,1,1]","[-0.09358944008416444,0.08916000486378069]","[1,1,1]","[-0.13641800521097935,-0.11357595491777292]","[1,1,1]","[-0.12443168806881012,0.14301201616197506]","[1,1,1]","[-0.05983909769001941,-0.1068181274215328]","[1,1,1]","[0.18685450734591058,0.06547748282669573]","[1,1,1]","[0.09770183144865237,0.16973196636571114]","[1,1,1]","[-0.12963138549038267,0.04843136298887144]","[1,1,1]","[-0.04120335036335713,0.19217841520859696]","[-1,-1,-1]","[0.10356592259260801,0.10823907592251943]","[1,1,1]","[0.0043527913845459515,-0.03847502707163352]","[1,1,1]","[-0.16759580625642204,0.06621753317371917]","[1,1,1]","[0.11443820002655565,-0.03262185159589717]","[1,1,1]","[0.030806706943527044,0.16736096283771124]","[-1,-1,-1]","[0.19148925632748806,0.008585448498325226]","[1,1,1]","[0.08620527636421356,-0.13382051733185404]","[1,1,1]","[0.03281797195041899,-0.09561818339390876]","[1,1,1]","[-0.13907350136525126,-0.06153437990200145]","[1,1,1]","[0.14858163747730427,0.003872102076567784]","[1,1,1]","[0.13991312729517413,-0.12827969219223007]","[1,1,1]","[-0.06139573974721017,-0.01841056325855538]","[-1,-1,-1]","[0.04901857608729276,0.12795925534656638]","[1,1,1]","[-0.013173131398438379,-0.08619740473343723]","[1,1,1]","[0.19006105622876804,-0.054449832377964184]","[1,1,1]","[0.09256587238415896,0.04070024847138939]","[1,1,1]","[0.05224423187004968,-0.017290681119731508]","[1,1,1]","[-0.029227707556752854,0.021859390885353387]","[1,1,1]","[-0.10029935957886901,-0.08438018362149227]","[1,1,1]","[0.04924183932139153,-0.16065345108748547]","[1,1,1]","[0.14020055626680533,0.049672847502307625]","[1,1,1]","[-0.0188209516091147,-0.13784277418349342]","[1,1,1]","[-0.0811711858316619,-0.146471014727256]","[1,1,1]","[0.02,0.02]",146.0389,0,27,27,183,1,,,,,,,
,,,,,,,667efdb899d18edd67681784,682db3a893015186939ce41c,2025-05-21_13h06.55.432,cuing_paradigm_dot,2024.1.5,MacIntel,60.24096386,682d556593cb38ad0a074487,,,,,,,,,,,146.039,146.5393,,,146.79,147.2217,left,0.4203,,,,,,,,,0.45,,,,,,146.5393,146.7899,147.2217,"[-0.04014806374198334,-0.1914261011585278]","[1,1,1]","[0.12625323914002815,-0.012208777757802205]","[1,1,1]","[-0.047053308582465224,0.07789557775403709]","[-1,-1,-1]","[0.0580464028587612,-0.05732426296206331]","[1,1,1]","[0.0033409465243025146,-0.023770825567774163]","[1,1,1]","[0.0359484291184008,0.06274553293153216]","[-1,-1,-1]","[-0.10327902284940232,0.079363455361776]","[1,1,1]","[-0.1254200551368747,0.11493036444038605]","[-1,-1,-1]","[-0.17243702564453495,0.0934778646987184]","[-1,-1,-1]","[0.15435730780463133,-0.08810646672216492]","[-1,-1,-1]","[-0.14793865005805598,-0.04526895321672321]","[1,1,1]","[-0.05864580075599257,-0.017879801190939123]","[-1,-1,-1]","[0.18610248728935064,0.051074861400777855]","[-1,-1,-1]","[-0.09774944857931075,-0.03415956384958375]","[-1,-1,-1]","[-0.17465531713373467,-0.0015821466080489773]","[-1,-1,-1]","[-0.10072600861465396,0.16667576569388554]","[1,1,1]","[-0.10711692627354488,-0.12242470668296258]","[-1,-1,-1]","[0.07989295166696567,0.026727643665581658]","[1,1,1]","[-0.08112419943041135,0.12154017856543482]","[-1,-1,-1]","[-0.07498561836395823,0.03731537931296923]","[-1,-1,-1]","[-0.0228093570304301,-0.14125578931438032]","[-1,-1,-1]","[-0.013071595931496809,0.16835090220246857]","[1,1,1]","[-0.010621798320675307,0.014936195828295633]","[1,1,1]","[0.08354880482459082,-0.11441571059919886]","[1,1,1]","[0.16028907533837775,0.0991148281829226]","[-1,-1,-1]","[0.13535706629469982,0.13797541501735675]","[-1,-1,-1]","[0.05751130370880601,0.1387438664776845]","[1,1,1]","[-0.15721676218223907,-0.12110652185576119]","[-1,-1,-1]","[-0.07026776851916818,-0.09598422128189336]","[1,1,1]","[0.07850882418455976,-0.014646884879981722]","[-1,-1,-1]","[0.025764672818123193,0.11014828290960381]","[-1,-1,-1]","[0.02209474517431745,-0.11378413377232705]","[1,1,1]","[0.02,0.02]",148.3227,0,28,28,86,1,,,,,,,
,,,,,,,667efdb899d18edd67681784,682db3a893015186939ce41c,2025-05-21_13h06.55.432,cuing_paradigm_dot,2024.1.5,MacIntel,60.24096386,682d556593cb38ad0a074487,,,,,,,,,,,148.3232,148.8227,,,149.0735,149.4228,right,0.3342,,,,,,,,,0.1,,,,,,148.8227,149.0735,149.4228,"[-0.10740652562461728,-0.0858009783583261]","[-1,-1,-1]","[-0.03138476318730241,0.04395837291942025]","[-1,-1,-1]","[0.10231110336075158,-0.0749602324120429]","[-1,-1,-1]","[0.007800388937634733,0.05665860636556502]","[-1,-1,-1]","[0.05785660351285916,-0.05648741674514405]","[-1,-1,-1]","[0.0879326222812401,0.005565297339534644]","[-1,-1,-1]","[-0.09963124778548633,0.060017636179833356]","[-1,-1,-1]","[0.031662060250743196,0.14456657455720898]","[-1,-1,-1]","[-0.023259984760873834,0.1194231596142968]","[-1,-1,-1]","[-0.044327322310637934,-0.06058035851588055]","[-1,-1,-1]","[0.023291292988320493,-0.17873012210852707]","[1,1,1]","[0.007195934731458021,-0.00453375368503676]","[-1,-1,-1]","[0.16647076307530748,-0.04567443761699363]","[-1,-1,-1]","[-0.007126733204610088,0.19836183993584044]","[-1,-1,-1]","[0.0017649085108559222,-0.1258098991693866]","[-1,-1,-1]","[-0.0989046432567263,0.15090169783476592]","[-1,-1,-1]","[-0.0572269772611409,-0.11016794943772167]","[-1,-1,-1]","[-0.18243993476099316,0.028431993033741085]","[1,1,1]","[0.14029295330903668,-0.12716452573656184]","[-1,-1,-1]","[-0.1744054546447444,0.08099829914238675]","[-1,-1,-1]","[-0.1316092948756521,0.03276477244195989]","[1,1,1]","[-0.07915651069818012,-0.012419817051184012]","[-1,-1,-1]","[0.055470394101885194,0.04565518857042921]","[-1,-1,-1]","[-0.043738997735037026,-0.18380016393410695]","[-1,-1,-1]","[0.09465244794875058,0.1521007117129233]","[-1,-1,-1]","[-0.12271805424256076,0.09705070718305951]","[-1,-1,-1]","[0.16407136792516103,0.023383656687789585]","[-1,-1,-1]","[0.043651952870108375,-0.1318953176973692]","[-1,-1,-1]","[-0.05866472287971176,0.14722644092091985]","[-1,-1,-1]","[-0.14781500589780677,-0.09800310011090044]","[-1,-1,-1]","[-0.1941406515027689,-0.021088429302906962]","[-1,-1,-1]","[-0.10484385413791326,-0.1574832831277521]","[-1,-1,-1]","[0.02,0.02]",150.5228,0,29,29,2,1,,,,,,,
,,,,,,,667efdb899d18edd67681784,682db3a893015186939ce41c,2025-05-21_13h06.55.432,cuing_paradigm_dot,2024.1.5,MacIntel,60.24096386,682d556593cb38ad0a074487,,,,,,,,,,,150.5235,151.0227,,,151.2732,151.7896,right,0.4994,,,,,,,,,0.6,,,,,,151.0227,151.2731,151.7896,"[-0.023541133607695205,0.02679607021211301]","[1,1,1]","[-0.0005316307929200579,0.1577442061888932]","[-1,-1,-1]","[-0.19857415812306617,-0.013024038568080723]","[-1,-1,-1]","[0.020276975967402723,0.0674339481735942]","[1,1,1]","[0.09298538692204189,0.041023856138979936]","[1,1,1]","[-0.05720826122110732,-0.1415886811846445]","[-1,-1,-1]","[-0.13060303421645988,-0.007103341099574023]","[1,1,1]","[-0.01141047836091021,-0.15512780222033162]","[-1,-1,-1]","[-0.11790767350119911,-0.057998792152414234]","[1,1,1]","[0.06206077929905552,-0.04405904736730946]","[-1,-1,-1]","[0.19244190978516412,-0.01124718880866695]","[1,1,1]","[-0.17014358166726876,-0.07580165028681068]","[1,1,1]","[-0.09750381132428253,0.058853693913042855]","[1,1,1]","[-0.15277845349517863,0.07173751983352518]","[-1,-1,-1]","[0.04820975326820637,0.13641635131941163]","[1,1,1]","[-0.048339552163295434,-0.024779307434683123]","[-1,-1,-1]","[-0.09203834464151002,0.15740294815105293]","[1,1,1]","[-0.022327901964101914,0.12355256258892221]","[1,1,1]","[0.05218929123026813,-0.18153327447009265]","[1,1,1]","[0.14669570787315375,0.09621619263683659]","[-1,-1,-1]","[0.12984515817498904,-0.030280732092644026]","[1,1,1]","[0.09076040436510606,-0.14955149676149593]","[-1,-1,-1]","[-0.08049431996391511,-0.10703355161808438]","[1,1,1]","[0.10802951112277767,-0.07199700284762534]","[1,1,1]","[0.1682418671190738,-0.05941584451273514]","[-1,-1,-1]","[0.19342727018495176,0.03421597470979343]","[-1,-1,-1]","[-0.12245327397700935,0.11189483871263389]","[-1,-1,-1]","[-0.009230102923890654,-0.08819430836028527]","[1,1,1]","[-0.03889684794500497,-0.1861862158913531]","[1,1,1]","[0.06837509678277202,0.008055241750964351]","[1,1,1]","[-0.04281627838651702,0.07031884818703822]","[1,1,1]","[-0.10136244135959364,-0.14411477219641905]","[-1,-1,-1]","[0.02,0.02]",152.8895,0,30,30,174,1,,,,,,,
,,,,,,,667efdb899d18edd67681784,682db3a893015186939ce41c,2025-05-21_13h06.55.432,cuing_paradigm_dot,2024.1.5,MacIntel,60.24096386,682d556593cb38ad0a074487,,,,,,,,,,,152.89,153.3897,,,153.6391,154.1396,left,0.4894,,,,,,,,,0.5,,,,,,153.3897,153.6391,154.1396,"[-0.04089576358390603,-0.08794811949065706]","[-1,-1,-1]","[0.09731392976376237,0.16345277853240286]","[-1,-1,-1]","[0.14034520851681678,-0.04000385510883515]","[1,1,1]","[0.11936003008013361,0.11362456367473497]","[1,1,1]","[-0.06928345578775193,-0.14434985439477327]","[-1,-1,-1]","[-0.1311102173612973,0.08819165289193738]","[-1,-1,-1]","[0.05648194017965428,0.11037787610411491]","[-1,-1,-1]","[0.024538031833429855,-0.01963019546142012]","[1,1,1]","[0.054660478627827955,-0.06766621489508336]","[1,1,1]","[0.060862586477757136,-0.15737309850297695]","[1,1,1]","[-0.042495856000675604,0.11935842629293741]","[-1,-1,-1]","[0.0978973784744399,0.04616378261227958]","[-1,-1,-1]","[0.027418817895760717,0.18664607062009028]","[-1,-1,-1]","[-0.1358884754960435,0.0046861665476863506]","[1,1,1]","[0.018577242628645695,-0.15332967235344197]","[1,1,1]","[-0.12036238475713389,-0.12236408080796538]","[1,1,1]","[0.13703236251113926,0.07053503119187712]","[1,1,1]","[0.08591875611193717,-0.010540663819203332]","[-1,-1,-1]","[-0.06681668195056582,0.1715545585869117]","[-1,-1,-1]","[-0.07571980250110909,-0.034135147514916836]","[1,1,1]","[-0.042719972903887404,0.06035214945054125]","[1,1,1]","[-0.1285774700686038,-0.06803182608695693]","[1,1,1]","[-0.01609865490526613,-0.022352299894368963]","[-1,-1,-1]","[0.19394181830464102,0.017612542160089225]","[-1,-1,-1]","[0.041286937745738536,0.05502340556680008]","[-1,-1,-1]","[-0.019443750979441732,-0.1924686988733006]","[1,1,1]","[0.14059744635230373,0.021656344834127476]","[-1,-1,-1]","[-0.19111872886488454,-0.011349066789199417]","[1,1,1]","[0.10785093224891694,-0.11483767469132337]","[-1,-1,-1]","[-0.09121894399686055,0.06838893444602795]","[1,1,1]","[-0.16759046690192841,-0.05550645170055984]","[1,1,1]","[-0.13006713591470706,0.13072698203531274]","[-1,-1,-1]","[0.02,0.02]",155.2397,0,31,31,103,1,,,,,,,
,,,,,,,667efdb899d18edd67681784,682db3a893015186939ce41c,2025-05-21_13h06.55.432,cuing_paradigm_dot,2024.1.5,MacIntel,60.24096386,682d556593cb38ad0a074487,,,,,,,,,,,155.2402,155.7396,,,155.9901,156.5398,right,0.533,,,,,,,,,0.55,,,,,,155.7397,155.99,156.5398,"[-0.08605082967225863,0.04476076429856859]","[-1,-1,-1]","[-0.18150575310952746,-0.006683924463212556]","[1,1,1]","[0.13948594608176512,0.04602293024890267]","[-1,-1,-1]","[-0.1410820376606579,-0.09672783775276703]","[1,1,1]","[0.07830997094239879,0.1500817914570413]","[-1,-1,-1]","[0.08192731759470638,-0.13001519998325423]","[-1,-1,-1]","[-0.167045690873693,0.060282249546317564]","[-1,-1,-1]","[0.16546874242895013,0.001179773573208968]","[-1,-1,-1]","[-0.1408111674364457,-0.04303430040605583]","[1,1,1]","[-0.04814555130774713,0.17349276910246048]","[1,1,1]","[0.06482438040109496,-0.0014104935482589544]","[-1,-1,-1]","[-0.12632958444417142,0.05539801116999809]","[-1,-1,-1]","[-0.08378329411132315,-0.1743256234107179]","[1,1,1]","[-0.023810667815143655,0.10266836225319428]","[1,1,1]","[-0.05228193890429924,-0.01654680608734531]","[1,1,1]","[0.007741154599508047,-0.17234334559200426]","[-1,-1,-1]","[-0.0683316458112694,0.08242754744988076]","[-1,-1,-1]","[0.06792133070569316,0.09921925285680014]","[-1,-1,-1]","[0.14472101383551342,-0.05085138605452819]","[1,1,1]","[-0.10212903708887107,-0.06240398660822182]","[1,1,1]","[0.09673604691039439,0.05463443684733812]","[1,1,1]","[-0.03837211941822847,-0.1359288423233243]","[1,1,1]","[0.00915279776733472,0.021400723812673664]","[-1,-1,-1]","[-0.16030117281021838,0.10569603224247183]","[1,1,1]","[0.03577844117223707,0.059785641387602444]","[1,1,1]","[-0.05193189641728876,0.13217129286853968]","[1,1,1]","[-0.0038330776823936054,-0.07339705916165043]","[1,1,1]","[0.1769815041082744,-0.08856853276441186]","[-1,-1,-1]","[0.1272961294138357,0.09367107817433074]","[1,1,1]","[0.009825514708936528,0.18118841113178638]","[-1,-1,-1]","[-0.11897610583046873,0.15875513777386854]","[1,1,1]","[0.1361567479039117,-0.1176038186095182]","[1,1,1]","[0.02,0.02]",157.6393,0,32,32,140,1,,,,,,,
,,,,,,,667efdb899d18edd67681784,682db3a893015186939ce41c,2025-05-21_13h06.55.432,cuing_paradigm_dot,2024.1.5,MacIntel,60.24096386,682d556593cb38ad0a074487,,,,,,,,,,,157.6396,158.1398,,,158.3894,158.6056,left,0.2005,,,,,,,,,0.4,,,,,,158.1399,158.3893,158.6056,"[0.05201350150494515,-0.09319511109535764]","[1,1,1]","[-0.08700139468700795,0.03265703165623124]","[-1,-1,-1]","[0.09554279454124896,-0.02228263172848472]","[1,1,1]","[-0.10067787186717302,-0.11303794201957795]","[-1,-1,-1]","[0.03144357914428853,-0.04589163213541172]","[1,1,1]","[0.14694912352275039,-0.09560733349708492]","[-1,-1,-1]","[-0.025614571706326094,0.1034101977273887]","[-1,-1,-1]","[-0.03028928744909993,0.1617617690970544]","[1,1,1]","[-0.06657792318357456,-0.1732023752515216]","[-1,-1,-1]","[0.1504128643419362,-0.030854055571759246]","[1,1,1]","[-0.09187355493242848,0.1495799707970976]","[1,1,1]","[0.16412954580458228,0.040814155353169644]","[-1,-1,-1]","[-0.000879890199626865,-0.018010414586608008]","[-1,-1,-1]","[-0.029427281168300658,0.03238257907622753]","[1,1,1]","[0.04537924051152814,0.014210577202136327]","[-1,-1,-1]","[-0.04558258819366103,-0.06839626144135076]","[1,1,1]","[-0.015023177899776769,-0.14712806455636554]","[-1,-1,-1]","[-0.12250759570740732,-0.026122576303457646]","[-1,-1,-1]","[-0.048163983187903076,-0.11769599287320161]","[-1,-1,-1]","[0.10604170356998947,-0.16130315695382427]","[1,1,1]","[0.020634231838587418,0.09076446581249592]","[1,1,1]","[0.08409065411521591,0.14391055179574586]","[-1,-1,-1]","[-0.17254875737930572,0.03162278205056301]","[-1,-1,-1]","[-0.1763118040678536,-0.03192640454528345]","[1,1,1]","[0.11199129472783277,0.026531843062996236]","[-1,-1,-1]","[-0.10514305644569549,0.08152304125752577]","[1,1,1]","[0.015878571739715817,0.15498907339232876]","[-1,-1,-1]","[0.06646791303214214,0.0717318559359345]","[-1,-1,-1]","[-0.13585792473389263,0.1363906471617723]","[-1,-1,-1]","[0.05474153202514134,-0.18644644438395203]","[-1,-1,-1]","[-0.1435219796114941,-0.10849108588253167]","[-1,-1,-1]","[0.006913210438084104,0.19691547878435692]","[1,1,1]","[0.02,0.02]",159.7055,0,33,33,32,1,,,,,,,
,,,,,,,667efdb899d18edd67681784,682db3a893015186939ce41c,2025-05-21_13h06.55.432,cuing_paradigm_dot,2024.1.5,MacIntel,60.24096386,682d556593cb38ad0a074487,,,,,,,,,,,159.706,160.2056,,,160.4567,160.672,left,0.198,,,,,,,,,0.4,,,,,,160.2056,160.4567,160.672,"[-0.011773319582919226,0.18026991873940815]","[-1,-1,-1]","[-0.08492938442158984,-0.08012021218358777]","[-1,-1,-1]","[-0.12522863175569784,-0.018931947222723188]","[-1,-1,-1]","[0.09712784903837685,-0.16096401195038276]","[1,1,1]","[-0.007121535389230064,-0.10257348043443523]","[1,1,1]","[-0.03873139845750322,-0.18018460625882918]","[1,1,1]","[0.004234729392263681,0.1396210763689268]","[-1,-1,-1]","[-0.16077790845085022,0.10543870518062812]","[1,1,1]","[0.07834576525690083,-0.013630206064377958]","[-1,-1,-1]","[0.0034546100347006645,-0.14667776196619525]","[1,1,1]","[0.16876704788827618,-0.02624589660116785]","[-1,-1,-1]","[0.09196256473305592,-0.05174439716811467]","[1,1,1]","[0.11850347524648033,-0.006524345510418233]","[-1,-1,-1]","[-0.14323152608009534,-0.12376592468480267]","[-1,-1,-1]","[-0.036669660834400944,-0.13326884281333345]","[-1,-1,-1]","[-0.17082086923691556,-0.09120291176896438]","[-1,-1,-1]","[0.012955254472726632,0.016323951830383977]","[-1,-1,-1]","[0.09011764351740494,0.05769813226460647]","[-1,-1,-1]","[-0.07279303415565765,0.07123485581321608]","[-1,-1,-1]","[0.004707648175408832,-0.03242845184021146]","[1,1,1]","[0.03152539331492992,0.060603722454401834]","[-1,-1,-1]","[-0.16326880668886778,0.04413467541354081]","[1,1,1]","[-0.09089573420065387,-0.12062529708528302]","[1,1,1]","[0.13719238402837003,-0.12162551569221447]","[-1,-1,-1]","[0.04141314477844779,-0.16834303498691602]","[1,1,1]","[0.09428401705526272,0.1697528872989207]","[-1,-1,-1]","[0.024671403723567693,-0.07615747105109423]","[-1,-1,-1]","[-0.042551601173898175,0.13069685778880208]","[1,1,1]","[-0.05363915109165729,0.001606498907708548]","[-1,-1,-1]","[0.10693933470222318,0.12369469982860956]","[1,1,1]","[0.08095395940882902,-0.10056442486103506]","[-1,-1,-1]","[-0.024430718632057716,0.07934315757044336]","[1,1,1]","[0.02,0.02]",161.7732,0,34,34,44,1,,,,,,,
,,,,,,,667efdb899d18edd67681784,682db3a893015186939ce41c,2025-05-21_13h06.55.432,cuing_paradigm_dot,2024.1.5,MacIntel,60.24096386,682d556593cb38ad0a074487,,,,,,,,,,,161.7737,162.2724,,,162.5229,162.9734,left,0.4325,,,,,,,,,0.55,,,,,,162.2724,162.5228,162.9734,"[-0.06609578769599095,0.020697796490120317]","[1,1,1]","[-0.1279093487293075,0.07572929314923353]","[-1,-1,-1]","[-0.01860461712926542,-0.06158447701409617]","[1,1,1]","[-0.06545633256115632,0.16705184163093534]","[1,1,1]","[0.03978440361280198,0.04035812895703192]","[-1,-1,-1]","[-0.015634119248172516,0.05062143214060084]","[-1,-1,-1]","[-0.12437989914527724,0.02292902784198034]","[-1,-1,-1]","[0.03931871577064146,-0.11609038578672773]","[1,1,1]","[0.1446247011415244,-0.012507294686309864]","[1,1,1]","[0.07576373362023718,-0.07400442986995201]","[-1,-1,-1]","[-0.11609037597367153,-0.1324315573053281]","[1,1,1]","[0.14676942264631052,-0.10778339939556375]","[-1,-1,-1]","[-0.12028492916049281,0.1226480241057972]","[1,1,1]","[0.13371556529165474,0.09986048421657238]","[1,1,1]","[0.02463164550043405,-0.05305523921283105]","[1,1,1]","[0.019153606023255443,0.14826298972905932]","[-1,-1,-1]","[0.08390772135357788,0.12460314029012116]","[1,1,1]","[0.00600430333653991,-0.19846481634677274]","[1,1,1]","[-0.14392634928103776,-0.07355052624153513]","[-1,-1,-1]","[0.19627860906838646,0.02815341914065516]","[1,1,1]","[0.05711288789000958,-0.15538300025930932]","[1,1,1]","[-0.041915544375021443,0.09147770685697956]","[-1,-1,-1]","[-0.17231563350685428,-0.004192328375421171]","[-1,-1,-1]","[-0.04542571399020231,-0.10631571512658199]","[1,1,1]","[-0.004005181606103413,0.006343419283053192]","[-1,-1,-1]","[0.0570721772781881,0.08298009075248974]","[-1,-1,-1]","[-0.06855413397335265,-0.04965747338130107]","[1,1,1]","[-0.1600655026377222,-0.11312576560186802]","[1,1,1]","[-0.028217647995557493,0.13959437309600958]","[-1,-1,-1]","[-0.06684450952485035,-0.14536418403272428]","[1,1,1]","[-0.005197336170476919,-0.09936895567813914]","[-1,-1,-1]","[0.09441241983499891,-0.11745951597709517]","[1,1,1]","[0.02,0.02]",164.0733,0,35,35,128,1,,,,,,,
,,,,,,,667efdb899d18edd67681784,682db3a893015186939ce41c,2025-05-21_13h06.55.432,cuing_paradigm_dot,2024.1.5,MacIntel,60.24096386,682d556593cb38ad0a074487,,,,,,,,,,,164.0739,164.5734,,,164.823,165.2402,left,0.3991,,,,,,,,,0.5,,,,,,164.5734,164.823,165.2402,"[-0.03400784524185638,0.14673003776140264]","[1,1,1]","[0.03937954629575948,0.11530564457987932]","[1,1,1]","[0.025472506022593884,0.19355756016946996]","[-1,-1,-1]","[0.10509479273001782,0.04523550657591994]","[-1,-1,-1]","[-0.02177883536599441,-0.16475508526379984]","[-1,-1,-1]","[-0.05649107296519424,-0.11387312572745575]","[1,1,1]","[0.17314328104384066,0.09842346859901493]","[1,1,1]","[-0.18565112488225355,0.011556243748445981]","[1,1,1]","[0.10871770268875171,-0.14033122344401622]","[-1,-1,-1]","[-0.11665472731577553,-0.011840107250105812]","[-1,-1,-1]","[-0.014516627363784304,-0.11161796899447854]","[-1,-1,-1]","[-0.14776455703011784,-0.12849497186607703]","[-1,-1,-1]","[-0.08552306127078373,0.16636723247167148]","[-1,-1,-1]","[0.14916676068383544,-0.0968063286925723]","[1,1,1]","[-0.12746661645816326,-0.08650219343139454]","[-1,-1,-1]","[-0.053253505855348444,0.06146498207218149]","[-1,-1,-1]","[0.08885660289727261,0.16600970932998885]","[-1,-1,-1]","[0.03545384650720067,0.047990334430715195]","[1,1,1]","[0.06777188298557252,-0.0431523718489785]","[-1,-1,-1]","[0.13832868058896133,0.13781180650545471]","[-1,-1,-1]","[-0.07259575120000346,-0.1605478827937867]","[1,1,1]","[-0.09279130082744382,0.09007869411664758]","[1,1,1]","[-0.1518758869181186,0.10399061800212688]","[-1,-1,-1]","[-0.019245574200268525,0.0206126261330431]","[1,1,1]","[-0.06306315604480181,0.016620750501143988]","[-1,-1,-1]","[-0.02152626329287052,-0.02797085200214488]","[1,1,1]","[0.1381309535783323,-0.004522407843900118]","[1,1,1]","[-0.15708916672680137,0.04905506299839861]","[1,1,1]","[-0.10528797584960799,-0.1271402455742266]","[1,1,1]","[0.19061701847960857,0.02197342004394995]","[-1,-1,-1]","[0.11144029418405592,0.09094345723896695]","[1,1,1]","[-0.034449139931997455,0.10495801193433536]","[1,1,1]","[0.02,0.02]",166.3402,0,36,36,106,1,,,,,,,
,,,,,,,667efdb899d18edd67681784,682db3a893015186939ce41c,2025-05-21_13h06.55.432,cuing_paradigm_dot,2024.1.5,MacIntel,60.24096386,682d556593cb38ad0a074487,,,,,,,,,,,166.3407,166.8401,,,167.0907,167.4728,left,0.3657,,,,,,,,,0.45,,,,,,166.8403,167.0906,167.4728,"[-0.1239632733527739,0.14695873462889117]","[-1,-1,-1]","[0.09898279460072255,0.08852466199822698]","[-1,-1,-1]","[-0.053563063809243666,-0.03308249908865874]","[-1,-1,-1]","[-0.09934150609075669,-0.004607466362234775]","[-1,-1,-1]","[-0.06742796874206115,0.10002277204167626]","[-1,-1,-1]","[0.10698277506010946,-0.018091474520561972]","[-1,-1,-1]","[-0.1981813321374094,-0.025470302619194796]","[1,1,1]","[0.028855776765943062,-0.07379012920205257]","[1,1,1]","[0.01707838710147627,-0.1275022052526274]","[-1,-1,-1]","[-0.06803434757375237,0.16087759438291577]","[1,1,1]","[0.06284181498606002,-0.12508987922064]","[1,1,1]","[-0.05447856375210278,0.05736545705625387]","[-1,-1,-1]","[0.04015033727676257,0.11714926094568971]","[-1,-1,-1]","[0.12946245767714942,-0.11252609490034328]","[-1,-1,-1]","[-0.15394389428548452,0.10520540838352296]","[-1,-1,-1]","[-0.1765078550361418,-0.0922532551841382]","[-1,-1,-1]","[-0.05413427145608332,-0.08989389057543293]","[-1,-1,-1]","[-0.09348103431507632,-0.1545740229501526]","[1,1,1]","[0.04659617852995609,0.031713160619399286]","[1,1,1]","[-0.02521248121808254,0.19073573806989078]","[1,1,1]","[-0.0038527665575453438,0.06516609042389838]","[1,1,1]","[0.07855069796750201,0.1551188281257362]","[1,1,1]","[-0.1281757988892118,-0.04408161072947342]","[-1,-1,-1]","[-0.04404643052004102,0.015465583041682504]","[1,1,1]","[-0.015068972204293712,0.1430161439218433]","[1,1,1]","[0.18816514981356,-0.06246502561777695]","[1,1,1]","[0.06167454282583451,0.07249209433435914]","[1,1,1]","[0.14308308719633545,0.06173624136659547]","[-1,-1,-1]","[-0.007370356485033377,-0.031190052639448393]","[1,1,1]","[-0.10506828598892902,-0.10670444792987166]","[-1,-1,-1]","[-0.12105970199160301,0.06289552917317767]","[-1,-1,-1]","[0.14202905572250193,-0.06200347155414451]","[-1,-1,-1]","[0.02,0.02]",168.5737,0,37,37,79,1,,,,,,,
,,,,,,,667efdb899d18edd67681784,682db3a893015186939ce41c,2025-05-21_13h06.55.432,cuing_paradigm_dot,2024.1.5,MacIntel,60.24096386,682d556593cb38ad0a074487,,,,,,,,,,,168.5741,169.0736,,,169.3228,169.7403,right,0.4038,,,,,,,,,0.6,,,,,,169.0736,169.3227,169.7404,"[0.07672206490641434,-0.06560805233155133]","[-1,-1,-1]","[0.14287995745427373,-0.12969314514807254]","[1,1,1]","[0.04409469626880493,-0.14560775272012028]","[1,1,1]","[-0.0035277169277878294,-0.13401439656145714]","[1,1,1]","[-0.03776356426622009,0.029291803594619675]","[-1,-1,-1]","[-0.13518890682956286,0.052428376118613555]","[1,1,1]","[0.04158709486379179,-0.0177927074294913]","[1,1,1]","[0.03888672137349733,-0.09660735865039996]","[1,1,1]","[0.008418628365622826,0.06717928045352882]","[1,1,1]","[0.13047360699292584,0.15134015718408342]","[1,1,1]","[0.10218202170828238,0.07631667494661075]","[-1,-1,-1]","[0.1547907153376773,0.11579133935503337]","[1,1,1]","[-0.07876070910363388,0.041873305186993004]","[1,1,1]","[0.16012422963269934,-0.07289328347312456]","[1,1,1]","[0.03246068174622658,0.17381549060985502]","[-1,-1,-1]","[-0.1554991243452274,0.12300673243151143]","[1,1,1]","[-0.06468309328696832,0.10170432546933607]","[1,1,1]","[-0.17725223617736602,0.0654999814336507]","[1,1,1]","[-0.05560164681102703,-0.09718396992062918]","[-1,-1,-1]","[0.18897172403096024,0.0193497160903061]","[-1,-1,-1]","[-0.11646114684842093,-0.06066157491287761]","[-1,-1,-1]","[0.054004667993243834,0.03441200367541445]","[-1,-1,-1]","[0.015015848513357546,0.017916452148431426]","[1,1,1]","[-0.10556351260252898,0.1394457563047839]","[-1,-1,-1]","[0.11594371824146771,0.011067246145801724]","[-1,-1,-1]","[-0.04027492903696238,-0.18181502686878276]","[-1,-1,-1]","[0.025586334128720137,0.13339411250060504]","[1,1,1]","[0.013776192242282385,-0.1857934869837012]","[1,1,1]","[0.09154484179711919,0.12107132870510642]","[1,1,1]","[-0.08807534841149693,0.17796955342182688]","[-1,-1,-1]","[-0.04561973997836225,0.18982962233963005]","[-1,-1,-1]","[-0.13365631178966317,-0.13055687458366122]","[1,1,1]","[0.02,0.02]",170.8392,0,38,38,161,1,,,,,,,
,,,,,,,667efdb899d18edd67681784,682db3a893015186939ce41c,2025-05-21_13h06.55.432,cuing_paradigm_dot,2024.1.5,MacIntel,60.24096386,682d556593cb38ad0a074487,,,,,,,,,,,170.8396,171.3403,,,171.5909,172.0237,left,0.4207,,,,,,,,,0.4,,,,,,171.3404,171.5908,172.0237,"[-0.005731001958323202,-0.16071090550005157]","[1,1,1]","[-0.16808981180767363,0.061699656705727586]","[1,1,1]","[0.03079182597261836,0.008432457872408339]","[-1,-1,-1]","[0.1447188496259582,-0.023185668945548146]","[1,1,1]","[0.13487437600188704,0.03164465086445592]","[-1,-1,-1]","[0.05389107249543157,-0.11058769825050468]","[-1,-1,-1]","[-0.005337577778491835,0.08855771075013322]","[-1,-1,-1]","[-0.0788989886490668,0.08083305304093177]","[1,1,1]","[-0.030911398602533904,0.01651620169673156]","[-1,-1,-1]","[0.08691356508723079,0.07419379697148766]","[1,1,1]","[-0.11027823270754417,0.0389134745339092]","[-1,-1,-1]","[0.1501438077383632,0.09888566903249686]","[-1,-1,-1]","[-0.12389828387031392,-0.054448776384550354]","[-1,-1,-1]","[-0.04240283192741643,-0.17869703944769208]","[1,1,1]","[-0.052705917003220706,0.11666716578685792]","[-1,-1,-1]","[-0.14285222623453972,-0.10344714039654336]","[1,1,1]","[0.00562019301613161,-0.026751322306215044]","[1,1,1]","[-0.01936542372069135,-0.08361380611695374]","[-1,-1,-1]","[0.09918647930592665,-0.09028418430731783]","[-1,-1,-1]","[-0.13270340514053894,0.10828128456056345]","[-1,-1,-1]","[0.188392023614893,0.02247272875559632]","[-1,-1,-1]","[-0.07289691178110903,0.1767052451639771]","[1,1,1]","[0.07208169662953946,0.02916569500293373]","[-1,-1,-1]","[0.1537516858766376,-0.08068884149024223]","[1,1,1]","[0.07752649125646895,0.11495583577518914]","[1,1,1]","[0.08550346171026615,0.16283716045614727]","[1,1,1]","[0.032906096253658125,-0.17252792120894261]","[-1,-1,-1]","[-0.0931729104906009,-0.016004910227100877]","[-1,-1,-1]","[-0.18130817229081114,0.01114230316844948]","[1,1,1]","[-0.015742309029308572,0.15999956571562332]","[-1,-1,-1]","[-0.07231011007746248,-0.1267363996219456]","[-1,-1,-1]","[-0.16543372370259524,-0.05599999803821771]","[-1,-1,-1]","[0.02,0.02]",173.1237,0,39,39,56,1,,,,,,,
,,,,,,,667efdb899d18edd67681784,682db3a893015186939ce41c,2025-05-21_13h06.55.432,cuing_paradigm_dot,2024.1.5,MacIntel,60.24096386,682d556593cb38ad0a074487,,,,,,,,,,,173.1243,173.6227,,,173.8731,174.1905,left,0.3023,,,,,,,,,0.1,,,,,,173.6227,173.873,174.1906,"[-0.008596265723542343,-0.000697727546837962]","[-1,-1,-1]","[0.1799585066330229,-0.02637678118105391]","[1,1,1]","[-0.17424670282592333,-0.09189982564362756]","[-1,-1,-1]","[-0.08816553063256476,0.029435090027383773]","[-1,-1,-1]","[0.17575458255799184,0.09301420004921893]","[-1,-1,-1]","[0.08588242454804026,-0.09100344571325554]","[-1,-1,-1]","[0.0505974748593928,0.17111020114703185]","[-1,-1,-1]","[0.13947786997842884,0.06583237067864627]","[-1,-1,-1]","[-0.1639292178585364,0.0014905612677067269]","[-1,-1,-1]","[0.06544000998130449,0.11313103117362304]","[-1,-1,-1]","[-0.09512361941270685,-0.07253550682264072]","[-1,-1,-1]","[-0.1170994062542922,-0.1549263629240399]","[-1,-1,-1]","[-0.023923916399681285,-0.0445720275210006]","[-1,-1,-1]","[-0.18038191459081201,0.046902925191222335]","[-1,-1,-1]","[0.02111802188991863,0.03089425897949873]","[-1,-1,-1]","[-0.08601820809600101,-0.018059231618976414]","[-1,-1,-1]","[-0.04645440335592201,0.07769838107525373]","[-1,-1,-1]","[0.12161990903665885,-0.15318723394679656]","[-1,-1,-1]","[-0.07696277290365966,0.18166095782062994]","[-1,-1,-1]","[-0.12719561706153099,0.14335055642073471]","[-1,-1,-1]","[0.1285057400396835,-0.10728004296753028]","[1,1,1]","[0.18548303774185798,0.03554720512773936]","[-1,-1,-1]","[-0.12681225830700052,-0.11233911222378493]","[-1,-1,-1]","[0.11414626651739926,0.12760920063885534]","[-1,-1,-1]","[0.007757723203388479,-0.16710685182965862]","[-1,-1,-1]","[-0.14944158541420305,0.10948980953610014]","[-1,-1,-1]","[0.1001667484085873,-0.03417940089717096]","[-1,-1,-1]","[-0.06155684222331772,-0.1392049791411598]","[1,1,1]","[0.08112314782062581,0.022027424242455868]","[-1,-1,-1]","[-0.04571757297270647,0.14628413861879402]","[-1,-1,-1]","[-0.13997208996927152,-0.06530515958938406]","[-1,-1,-1]","[0.13746745906841346,0.025307643696536316]","[-1,-1,-1]","[0.02,0.02]",175.2896,0,40,40,24,1,,,,,,,
,,,,,,,667efdb899d18edd67681784,682db3a893015186939ce41c,2025-05-21_13h06.55.432,cuing_paradigm_dot,2024.1.5,MacIntel,60.24096386,682d556593cb38ad0a074487,,,,,,,,,,,175.2902,175.7901,,,176.0403,176.623,right,0.5682,,,,,,,,,0.9,,,,,,175.7901,176.0403,176.6231,"[0.09797298777783156,-0.07551906782673963]","[1,1,1]","[-0.10026759306349668,-0.17147797643119952]","[1,1,1]","[-0.06884126430549586,-0.011638695187648311]","[1,1,1]","[-0.19854806582893755,-0.005030178327983078]","[1,1,1]","[-0.11824966122365152,-0.08924827595533621]","[-1,-1,-1]","[-0.15971063542488795,-0.056418775183063784]","[1,1,1]","[0.04778620912836211,-0.10224985241373384]","[1,1,1]","[-0.18831136399353846,0.04054358365661899]","[1,1,1]","[0.17402351271826264,-0.08437225811599504]","[1,1,1]","[0.10395883450669767,0.07038637916739834]","[1,1,1]","[0.12665328503062873,-0.12303342243678106]","[1,1,1]","[-0.04703468434963969,0.08326345761168463]","[1,1,1]","[-0.008891567525737132,-0.005090811846620143]","[1,1,1]","[-0.022727652953582204,-0.09474843371040932]","[1,1,1]","[0.06378526419405697,-0.011225920584749716]","[1,1,1]","[0.12631577126225962,-0.025739059991456776]","[1,1,1]","[0.0493373977203521,-0.17777577978104048]","[1,1,1]","[-0.10214210729824842,0.05193625638950584]","[1,1,1]","[0.021623503265778905,0.02963239003728949]","[1,1,1]","[-0.15015629268763886,0.11929880244287365]","[1,1,1]","[-0.02998006578214728,0.039901533521811645]","[1,1,1]","[-0.04331245555815843,-0.05295599338205501]","[1,1,1]","[0.06389388250976454,0.04286477715483173]","[-1,-1,-1]","[0.040753582282890506,0.17259978364537976]","[1,1,1]","[-0.11807380011144114,-0.04795477543901787]","[1,1,1]","[-0.13916200558733302,0.00046859062993949804]","[1,1,1]","[-0.015074801859710494,0.12594823122824433]","[-1,-1,-1]","[-0.07277937852503177,-0.08562090476814245]","[1,1,1]","[0.11056311698876227,0.1152358714285459]","[1,1,1]","[0.1724169707654653,0.027353546020284898]","[1,1,1]","[-0.13768352124628921,-0.1267172423082374]","[1,1,1]","[0.006277303518222082,-0.14968809839606048]","[1,1,1]","[0.02,0.02]",177.724,0,41,41,180,1,,,,,,,
,,,,,,,667efdb899d18edd67681784,682db3a893015186939ce41c,2025-05-21_13h06.55.432,cuing_paradigm_dot,2024.1.5,MacIntel,60.24096386,682d556593cb38ad0a074487,,,,,,,,,,,177.7245,178.2229,,,178.4745,178.9573,left,0.4658,,,,,,,,,0.5,,,,,,178.223,178.4744,178.9574,"[0.032739248926271634,-0.010193959912152935]","[-1,-1,-1]","[0.11584417120342952,0.11743167536289743]","[-1,-1,-1]","[-0.12573127491782068,-0.09776907931337513]","[1,1,1]","[-0.05071420656152581,-0.013924664820770557]","[1,1,1]","[-0.14134184057057034,0.06640234675491782]","[-1,-1,-1]","[0.08587138956377738,-0.16589434618343207]","[1,1,1]","[0.1469612509886339,0.054318623694940754]","[1,1,1]","[-0.0382215577058361,-0.06058192632288493]","[-1,-1,-1]","[0.030612771488599585,0.05536502107064913]","[1,1,1]","[-0.07506041798230113,0.12972774365051182]","[-1,-1,-1]","[-0.08012132297888262,0.0893967692799421]","[-1,-1,-1]","[-0.09320222643812723,-0.0652119125620146]","[1,1,1]","[0.05804954585750869,-0.13490873399935233]","[-1,-1,-1]","[-0.0006791968352767401,-0.07717988331026102]","[-1,-1,-1]","[0.13734863815229764,-0.022164997105315477]","[-1,-1,-1]","[-0.000925120503472354,-0.12874690215076187]","[-1,-1,-1]","[0.09078502634590002,0.07261877926879771]","[1,1,1]","[-0.12600087672555696,0.012602910543436254]","[1,1,1]","[-0.11758883206855372,0.13195009108918768]","[1,1,1]","[-0.014869292611133436,0.19795232904558163]","[1,1,1]","[0.05526177526320656,0.11225169864300116]","[1,1,1]","[-0.101976912806802,-0.022349281851190343]","[-1,-1,-1]","[0.035843393157640256,0.18481438822393126]","[1,1,1]","[0.10148880647730793,0.16957402862049287]","[1,1,1]","[0.058891714097669266,0.0214218215734448]","[-1,-1,-1]","[-0.16798208928034483,-0.0959143447940392]","[-1,-1,-1]","[-0.043859941464527055,0.02691014803461213]","[-1,-1,-1]","[0.17150285898336884,-0.05037080413306725]","[1,1,1]","[-0.0170971760205911,0.14770081106718772]","[1,1,1]","[-0.16980959939225337,-0.006686674185699884]","[-1,-1,-1]","[0.09340756592984954,-0.04204491434116774]","[-1,-1,-1]","[-0.01606991707535737,0.08281110982064101]","[1,1,1]","[0.02,0.02]",180.0574,0,42,42,111,1,,,,,,,
,,,,,,,667efdb899d18edd67681784,682db3a893015186939ce41c,2025-05-21_13h06.55.432,cuing_paradigm_dot,2024.1.5,MacIntel,60.24096386,682d556593cb38ad0a074487,,,,,,,,,,,180.0579,180.5564,,,180.808,181.1074,right,0.2825,,,,,,,,,0.55,,,,,,180.5564,180.808,181.1075,"[-0.07241295009483682,-0.1141841798454961]","[-1,-1,-1]","[0.15054491114999816,0.0040981807312682125]","[1,1,1]","[0.07292177807641026,-0.06685885936081608]","[-1,-1,-1]","[0.002648424909375183,0.1826167052843944]","[1,1,1]","[-0.022182037555582627,0.10070160500971174]","[1,1,1]","[0.1246184370091448,0.04972241869594731]","[-1,-1,-1]","[0.021981662509822204,-0.02332067861546404]","[-1,-1,-1]","[0.06340967089673578,0.00859062641898402]","[1,1,1]","[-0.11688264517084926,0.09184517889559556]","[-1,-1,-1]","[-0.18205484529566235,-0.01952375864591651]","[1,1,1]","[0.049994094701611896,-0.12200084652754552]","[-1,-1,-1]","[0.13085482722582245,0.12678218819800197]","[1,1,1]","[-0.10190895121900201,0.14636192087942254]","[1,1,1]","[-0.06638547129230322,-0.17709353264281855]","[1,1,1]","[-0.15280520556683225,-0.06434184120656239]","[1,1,1]","[0.16685275719654308,-0.03414167596573608]","[1,1,1]","[-0.0875902865170639,-0.052041741189206084]","[1,1,1]","[-0.020610758441379738,-0.006436598840256892]","[-1,-1,-1]","[-0.1594559886017323,0.038687277040865845]","[-1,-1,-1]","[0.11058643443709348,0.010281541139070656]","[-1,-1,-1]","[-0.013760684466535977,-0.09683040942027567]","[1,1,1]","[0.0957512399020765,0.0823009315292976]","[-1,-1,-1]","[-0.108334291518037,-0.012166100726800038]","[1,1,1]","[-0.0677146935294848,0.06091894208238254]","[1,1,1]","[0.1985149488767383,0.01427123110946359]","[-1,-1,-1]","[0.007405985975083021,0.054359716205251006]","[1,1,1]","[-0.1378771343725144,-0.12872810246781966]","[-1,-1,-1]","[0.0069357382224001975,-0.17561149771431833]","[-1,-1,-1]","[0.10800206416900653,-0.10068410933853116]","[1,1,1]","[0.07855998034354235,-0.1587274047899915]","[1,1,1]","[0.15790006971878862,0.08166900611134549]","[1,1,1]","[0.0783650822571437,0.164884242654773]","[-1,-1,-1]","[0.02,0.02]",182.2072,0,43,43,125,1,,,,,,,
,,,,,,,667efdb899d18edd67681784,682db3a893015186939ce41c,2025-05-21_13h06.55.432,cuing_paradigm_dot,2024.1.5,MacIntel,60.24096386,682d556593cb38ad0a074487,,,,,,,,,,,182.2075,182.7074,,,182.9578,183.3576,left,0.3828,,,,,,,,,0.45,,,,,,182.7075,182.9577,183.3577,"[0.018317108377736247,-0.19800451254466342]","[1,1,1]","[-0.007887571024888273,-0.1399186614776673]","[-1,-1,-1]","[0.17974499781450684,-0.03131346871398471]","[-1,-1,-1]","[-0.13581875976188237,-0.022033282907539017]","[1,1,1]","[-0.05774954300124487,-0.09690323579828997]","[1,1,1]","[0.044845799669820295,0.15344120797293265]","[-1,-1,-1]","[-0.1753373206775746,-0.05815829377994799]","[1,1,1]","[-0.09581342409760574,-0.14339885999759489]","[-1,-1,-1]","[0.09023482666582065,-0.17765372071360222]","[1,1,1]","[-0.011504657385206002,0.04026836517182139]","[-1,-1,-1]","[0.03512655357900339,0.06844547114885292]","[1,1,1]","[-0.06553005253680533,0.18651401981864638]","[1,1,1]","[0.1337496909331187,0.07711346800371059]","[-1,-1,-1]","[0.13389918438168072,-0.014562233553840724]","[-1,-1,-1]","[0.03577118413131015,0.007912448993048864]","[-1,-1,-1]","[0.11383463385052207,0.12201980190531193]","[-1,-1,-1]","[-0.1201843306171235,0.15895462476064776]","[1,1,1]","[-0.00620978084065401,0.12863937771813724]","[-1,-1,-1]","[-0.07287867212983437,0.026528148487561815]","[-1,-1,-1]","[0.09239358087820676,0.04730519534603942]","[-1,-1,-1]","[-0.05054133289461351,-0.011568908715207049]","[-1,-1,-1]","[-0.10825867932798502,0.12065304763520344]","[-1,-1,-1]","[0.08937084160114793,-0.13537355815326815]","[-1,-1,-1]","[-0.11468124115080021,0.018344959112044045]","[-1,-1,-1]","[-0.1221855198535324,0.06651263634923048]","[1,1,1]","[0.04617438218189876,-0.046480198638199195]","[1,1,1]","[-0.04927338677798937,0.07112308869271863]","[-1,-1,-1]","[0.12097267786686086,-0.07511101961509285]","[1,1,1]","[-0.1710242318145144,0.027105356572201145]","[-1,-1,-1]","[-0.1240795574673451,-0.08392846114429935]","[1,1,1]","[0.16637374240139588,-0.07787164193981379]","[1,1,1]","[0.058466684694782056,0.10107444532960351]","[1,1,1]","[0.02,0.02]",184.4576,0,44,44,87,1,,,,,,,
