right,left,explain.started,explain.stopped,key_resp_3.keys,key_resp_3.rt,key_resp_3.duration,participant,session,date,expName,psychopyVersion,OS,frameRate,study_id,explain_2.started,explain_2.stopped,key_resp_4.keys,key_resp_4.rt,key_resp_4.duration,explain_3.started,explain_3.stopped,key_resp_5.keys,key_resp_5.rt,key_resp_5.duration,fixation.started,fixation.stopped,practice.started,practice.stopped,response.started,response.stopped,key_resp.keys,key_resp.rt,key_resp.duration,feedback.started,feedback.stopped,trials_2.thisRepN,trials_2.thisTrialN,trials_2.thisN,trials_2.thisIndex,trials_2.ran,white_ratio,explain_4.started,explain_4.stopped,key_resp_6.keys,key_resp_6.rt,key_resp_6.duration,dotDisplay.started,dotDisplay.stopped,ITI.started,polygon_1.pos,polygon_1.color,polygon_2.pos,polygon_2.color,polygon_3.pos,polygon_3.color,polygon_4.pos,polygon_4.color,polygon_5.pos,polygon_5.color,polygon_6.pos,polygon_6.color,polygon_7.pos,polygon_7.color,polygon_8.pos,polygon_8.color,polygon_9.pos,polygon_9.color,polygon_10.pos,polygon_10.color,polygon_11.pos,polygon_11.color,polygon_12.pos,polygon_12.color,polygon_13.pos,polygon_13.color,polygon_14.pos,polygon_14.color,polygon_15.pos,polygon_15.color,polygon_16.pos,polygon_16.color,polygon_17.pos,polygon_17.color,polygon_18.pos,polygon_18.color,polygon_19.pos,polygon_19.color,polygon_20.pos,polygon_20.color,polygon_21.pos,polygon_21.color,polygon_22.pos,polygon_22.color,polygon_23.pos,polygon_23.color,polygon_24.pos,polygon_24.color,polygon_25.pos,polygon_25.color,polygon_26.pos,polygon_26.color,polygon_27.pos,polygon_27.color,polygon_28.pos,polygon_28.color,polygon_29.pos,polygon_29.color,polygon_30.pos,polygon_30.color,polygon_31.pos,polygon_31.color,polygon_32.pos,polygon_32.color,dot_size,ITI.stopped,trials.thisRepN,trials.thisTrialN,trials.thisN,trials.thisIndex,trials.ran,break_2.started,break_2.stopped,trials_3.thisRepN,trials_3.thisTrialN,trials_3.thisN,trials_3.thisIndex,trials_3.ran
subject chose white,subject chose black,0.0004,67.7825,space,52.7564,,66954eb024a4cac04db35d5a,682db3a2508d56241bf0eefc,2025-05-21_13h34.35.329,cuing_paradigm_dot,2024.1.5,Win32,60.24096386,682d556593cb38ad0a074487,,,,,,,,,,,,,,,,,,,,,,,,,,,,,,,,,,,,,,,,,,,,,,,,,,,,,,,,,,,,,,,,,,,,,,,,,,,,,,,,,,,,,,,,,,,,,,,,,,,,,,,,,,,,,,,,,
,,,,,,,66954eb024a4cac04db35d5a,682db3a2508d56241bf0eefc,2025-05-21_13h34.35.329,cuing_paradigm_dot,2024.1.5,Win32,60.24096386,682d556593cb38ad0a074487,67.7833,124.5759,space,26.7849,,,,,,,,,,,,,,,,,,,,,,,,,,,,,,,,,,,,,,,,,,,,,,,,,,,,,,,,,,,,,,,,,,,,,,,,,,,,,,,,,,,,,,,,,,,,,,,,,,,,,,,,,,,,,
,,,,,,,66954eb024a4cac04db35d5a,682db3a2508d56241bf0eefc,2025-05-21_13h34.35.329,cuing_paradigm_dot,2024.1.5,Win32,60.24096386,682d556593cb38ad0a074487,,,,,,124.5761,128.5927,space,1.0113,,,,,,,,,,,,,,,,,,,,,,,,,,,,,,,,,,,,,,,,,,,,,,,,,,,,,,,,,,,,,,,,,,,,,,,,,,,,,,,,,,,,,,,,,,,,,,,,,,,,,,,,
,,,,,,,66954eb024a4cac04db35d5a,682db3a2508d56241bf0eefc,2025-05-21_13h34.35.329,cuing_paradigm_dot,2024.1.5,Win32,60.24096386,682d556593cb38ad0a074487,,,,,,,,,,,128.6467,129.114,129.1148,129.3465,129.3469,130.0755,right,0.6777,,130.0758,131.1713,0,0,0,0,1,0.8,,,,,,,,,,,,,,,,,,,,,,,,,,,,,,,,,,,,,,,,,,,,,,,,,,,,,,,,,,,,,,,,,,,,,,,,,,,,,,,,,,,,,,
,,,,,,,66954eb024a4cac04db35d5a,682db3a2508d56241bf0eefc,2025-05-21_13h34.35.329,cuing_paradigm_dot,2024.1.5,Win32,60.24096386,682d556593cb38ad0a074487,,,,,,,,,,,131.173,131.6708,131.6708,131.9166,131.9167,132.3297,left,0.3972,,132.33,133.426,0,1,1,1,1,0.2,,,,,,,,,,,,,,,,,,,,,,,,,,,,,,,,,,,,,,,,,,,,,,,,,,,,,,,,,,,,,,,,,,,,,,,,,,,,,,,,,,,,,,
,,,,,,,66954eb024a4cac04db35d5a,682db3a2508d56241bf0eefc,2025-05-21_13h34.35.329,cuing_paradigm_dot,2024.1.5,Win32,60.24096386,682d556593cb38ad0a074487,,,,,,,,,,,,,,,,,,,,,,,,,,,,133.4274,157.4822,space,21.0393,,,,,,,,,,,,,,,,,,,,,,,,,,,,,,,,,,,,,,,,,,,,,,,,,,,,,,,,,,,,,,,,,,,,,,,,,,,,,,,,,,
,,,,,,,66954eb024a4cac04db35d5a,682db3a2508d56241bf0eefc,2025-05-21_13h34.35.329,cuing_paradigm_dot,2024.1.5,Win32,60.24096386,682d556593cb38ad0a074487,,,,,,,,,,,157.5719,157.9876,,,158.2427,159.0462,right,0.782,,,,,,,,,0.6,,,,,,157.9889,158.2423,159.0468,"[0.08208961325317442,-0.16119543302528402]","[-1,-1,-1]","[-0.06494288221063436,0.020844396598675693]","[1,1,1]","[0.0523935040655315,0.08447298001419744]","[-1,-1,-1]","[0.17945274625982632,-0.015291053807986966]","[-1,-1,-1]","[-0.015236858128661206,-0.10467209403368086]","[-1,-1,-1]","[-0.16149954597877852,0.04336057311957526]","[-1,-1,-1]","[0.013126704558139914,-0.14831315362016345]","[1,1,1]","[0.04401542066109574,-0.08138745366117146]","[-1,-1,-1]","[-0.1683113147127225,-0.10480074991557256]","[-1,-1,-1]","[-0.11035641528132643,-0.02939625553060758]","[-1,-1,-1]","[0.135407612589786,-0.0501328646281837]","[1,1,1]","[0.08548099099398238,-0.061129312826123564]","[-1,-1,-1]","[-0.03349781431511439,0.048939498954972044]","[-1,-1,-1]","[-0.13288249112042674,0.07388932526634147]","[1,1,1]","[-0.0531258805380291,0.12231857507132385]","[1,1,1]","[0.01779041695509145,0.1281216015160841]","[1,1,1]","[0.11265172859662544,0.1430236750836553]","[1,1,1]","[-0.12566103537589302,-0.07464987286762262]","[1,1,1]","[0.16317304006640063,-0.08920915984487497]","[1,1,1]","[0.16979778984125138,0.035640990224576306]","[1,1,1]","[0.055477671726398475,0.1585595140377934]","[1,1,1]","[0.1479479880600547,0.12018833402315357]","[1,1,1]","[-0.030093462273268746,-0.03204073562512831]","[1,1,1]","[0.03295007499716047,-0.03570426064550947]","[1,1,1]","[-0.1670844334483289,-0.0558044272134719]","[1,1,1]","[-0.14749157570124644,-0.012716894197454245]","[-1,-1,-1]","[-0.044470459640105875,0.19063242519455054]","[-1,-1,-1]","[-0.07076637064482472,-0.16789970152916558]","[1,1,1]","[0.009576199323744533,0.1941823577689713]","[1,1,1]","[0.11334934478483655,0.03559524104941122]","[-1,-1,-1]","[-0.11857474957575312,-0.14050601075130065]","[1,1,1]","[0.07614906889279702,-0.01778835227925352]","[1,1,1]","[0.02,0.02]",160.1394,0,0,0,154,1,,,,,,,
,,,,,,,66954eb024a4cac04db35d5a,682db3a2508d56241bf0eefc,2025-05-21_13h34.35.329,cuing_paradigm_dot,2024.1.5,Win32,60.24096386,682d556593cb38ad0a074487,,,,,,,,,,,160.14,160.6385,,,160.8973,161.1702,left,0.2406,,,,,,,,,0.1,,,,,,160.6389,160.8973,161.1703,"[0.08611712289172717,0.127527105741573]","[-1,-1,-1]","[0.13693782864567658,-0.1161251813401148]","[-1,-1,-1]","[0.1756461706340917,-0.06821210806130243]","[-1,-1,-1]","[0.14599236406188726,-0.01524219608653873]","[-1,-1,-1]","[-0.054070016182301665,-0.14407324515258485]","[-1,-1,-1]","[-0.020364440656379747,0.05413038416309977]","[-1,-1,-1]","[-0.18966232871373745,0.03638653404698308]","[-1,-1,-1]","[0.04396571237833675,0.09669019387264889]","[-1,-1,-1]","[-0.002652309486831315,-0.07180258334479662]","[-1,-1,-1]","[-0.09953358135519849,-0.08605508804593863]","[-1,-1,-1]","[-0.18739354150274867,-0.04618385428887921]","[1,1,1]","[-0.019331854100230476,-0.1912873910069669]","[-1,-1,-1]","[0.08432421531942923,-0.09793272481689941]","[-1,-1,-1]","[-0.14901011261875027,0.10462909533005954]","[-1,-1,-1]","[0.022344701008643032,-0.14673659043280718]","[-1,-1,-1]","[0.03765758973009271,0.03359818353017508]","[-1,-1,-1]","[-0.0713852414108133,-0.008446327072858903]","[-1,-1,-1]","[-0.12612183323983012,-0.03742378718392983]","[-1,-1,-1]","[0.16728855313563548,0.0751475267508123]","[-1,-1,-1]","[0.08511139896054519,0.006155728324013995]","[1,1,1]","[0.11454892724181369,0.08540224844289092]","[-1,-1,-1]","[-0.16310046652179516,-0.013187090159814572]","[-1,-1,-1]","[0.015063053708282967,0.13864639050456232]","[1,1,1]","[-0.034531759119902035,0.14506416830944044]","[-1,-1,-1]","[-0.09148959158711943,-0.1681112813922975]","[-1,-1,-1]","[-0.16941044793418134,-0.08901213519534174]","[-1,-1,-1]","[-0.07422688918772619,0.07268153979931759]","[-1,-1,-1]","[-0.06183543996805847,0.031391130028614024]","[-1,-1,-1]","[-0.07231949109187306,-0.051121199726538495]","[-1,-1,-1]","[-0.11275853140969798,0.15807220860648152]","[-1,-1,-1]","[0.09925895421225711,0.16935085611636577]","[-1,-1,-1]","[-0.13453204118178697,-0.12156594829812271]","[-1,-1,-1]","[0.02,0.02]",162.2801,0,1,1,8,1,,,,,,,
,,,,,,,66954eb024a4cac04db35d5a,682db3a2508d56241bf0eefc,2025-05-21_13h34.35.329,cuing_paradigm_dot,2024.1.5,Win32,60.24096386,682d556593cb38ad0a074487,,,,,,,,,,,162.281,162.7828,,,163.0295,163.3608,left,0.3128,,,,,,,,,0.9,,,,,,162.7829,163.0294,163.361,"[0.018762107364180984,0.06454100548036136]","[1,1,1]","[0.04710224504323345,0.09330799884907372]","[1,1,1]","[-0.1766146298261839,-0.08039047794446835]","[1,1,1]","[0.08964777926246038,-0.1305581980621402]","[1,1,1]","[0.06682685467459512,-0.05227543796418202]","[1,1,1]","[0.14599151690239778,-0.13514611491288]","[1,1,1]","[-0.047254595523718725,-0.08338565140221665]","[1,1,1]","[-0.013333076296284352,-0.14010329503765703]","[1,1,1]","[-0.02120207577291282,0.09451687633321]","[1,1,1]","[-0.1052291336584156,0.07425841031669402]","[1,1,1]","[-0.12052421465097397,0.11817083431105929]","[1,1,1]","[-0.05685247849320838,0.1776740600115145]","[1,1,1]","[0.18978572642289984,0.03162110193407203]","[-1,-1,-1]","[-0.09256686815833882,-0.04920684659965132]","[1,1,1]","[-0.05091157149515358,0.13127477184604236]","[1,1,1]","[0.1510165568599259,-0.01722120187652775]","[-1,-1,-1]","[-0.07786764101646008,-0.13695431586245693]","[1,1,1]","[-0.10353561148053064,-0.09886898035251472]","[1,1,1]","[0.11038550412558598,0.006154706346035157]","[1,1,1]","[0.05765895076187073,0.05409842291285521]","[-1,-1,-1]","[-0.17494442917407668,0.06066510737922078]","[1,1,1]","[0.1188509385411645,-0.09861658452713852]","[1,1,1]","[0.046064595664730215,-0.16550644561011238]","[1,1,1]","[-0.11607429652757772,0.03545000828441201]","[1,1,1]","[0.1054156878544914,0.1414682291688375]","[1,1,1]","[-0.06251797486446442,-0.18107423828065963]","[1,1,1]","[-0.01566470973540712,-0.02454280448556722]","[1,1,1]","[-0.016569675059100394,0.04332762480612139]","[1,1,1]","[0.1492640329013528,0.11455321817939415]","[1,1,1]","[0.04305993843373234,-0.0011570808222422682]","[1,1,1]","[0.19183940241410632,-0.010178105383939947]","[1,1,1]","[0.016384994051774352,0.16057593331542627]","[1,1,1]","[0.02,0.02]",164.4545,0,2,2,183,1,,,,,,,
,,,,,,,66954eb024a4cac04db35d5a,682db3a2508d56241bf0eefc,2025-05-21_13h34.35.329,cuing_paradigm_dot,2024.1.5,Win32,60.24096386,682d556593cb38ad0a074487,,,,,,,,,,,164.4559,164.9466,,,165.1919,165.7056,right,0.486,,,,,,,,,0.9,,,,,,164.9467,165.1918,165.7058,"[0.0334911660905682,-0.024800658344453403]","[1,1,1]","[0.002882100842416564,-0.16853808549188168]","[-1,-1,-1]","[-0.060900735981279625,0.1742550259445664]","[-1,-1,-1]","[-0.12693966130280154,-0.11923292666864992]","[1,1,1]","[-0.026202139381726337,0.0738360388462238]","[1,1,1]","[0.12379371400105978,0.08937030489242169]","[1,1,1]","[0.16735530972186954,-0.014272497837765484]","[1,1,1]","[0.12296309347223776,0.048402865645171184]","[1,1,1]","[0.056979888202585,-0.1197330557210996]","[-1,-1,-1]","[0.18753601361734193,-0.05912873595797195]","[1,1,1]","[-0.014400681780393993,-0.08013156563322371]","[1,1,1]","[0.12047001644421046,-0.14242932868990718]","[1,1,1]","[-0.08115637334548283,-0.17148058953561654]","[1,1,1]","[0.03411279226106331,0.10328682593551526]","[1,1,1]","[-0.17549484783287092,0.09553971483214173]","[1,1,1]","[-0.07817656961587709,0.022168671200416663]","[1,1,1]","[0.1083892276197861,0.12955550832270543]","[1,1,1]","[-0.09858125717957697,0.15665851703964737]","[1,1,1]","[0.0831566474157307,0.0747033380026523]","[1,1,1]","[0.06702105788156629,0.018090259107702598]","[1,1,1]","[0.06266056080382461,-0.07302124137374523]","[1,1,1]","[0.16537285413985445,-0.09988351852453242]","[1,1,1]","[0.031620523379966486,-0.19675247567114318]","[1,1,1]","[-0.09130218674824805,-0.031155969598872395]","[1,1,1]","[0.1808582624591973,0.0387589331005621]","[1,1,1]","[0.006430103119738496,0.17752824069293616]","[1,1,1]","[-0.08937643298333194,0.07590646350082597]","[1,1,1]","[0.11885635868462054,-0.00360245372557995]","[1,1,1]","[0.10914128742030806,-0.08495675674692095]","[1,1,1]","[0.06302950335750526,0.16086918062887112]","[1,1,1]","[-0.11780181541864142,-0.07572393568135055]","[1,1,1]","[-0.04920297970460825,-0.13536031423096792]","[1,1,1]","[0.02,0.02]",166.8048,0,3,3,182,1,,,,,,,
,,,,,,,66954eb024a4cac04db35d5a,682db3a2508d56241bf0eefc,2025-05-21_13h34.35.329,cuing_paradigm_dot,2024.1.5,Win32,60.24096386,682d556593cb38ad0a074487,,,,,,,,,,,166.8061,167.299,,,167.5462,167.9585,left,0.3924,,,,,,,,,0.45,,,,,,167.299,167.546,167.9586,"[-0.14629649280444218,-0.07712049542179404]","[1,1,1]","[0.18544404171020604,-0.06921625529632489]","[1,1,1]","[0.09718496176019802,0.040281142716187775]","[1,1,1]","[0.1550942889586208,0.11947782647465076]","[1,1,1]","[-0.15099684395663715,0.015433718984242546]","[-1,-1,-1]","[0.014620613554734813,-0.10714022075122233]","[1,1,1]","[-0.11389202879305423,0.09042537664742381]","[-1,-1,-1]","[0.15080705019779472,0.005769015272119213]","[-1,-1,-1]","[-0.15088189079599743,0.061636079074689674]","[1,1,1]","[-0.13517243279463756,0.13848687158285533]","[-1,-1,-1]","[0.07176811216361242,-0.06506557721701237]","[-1,-1,-1]","[0.020206526220510175,0.13588656035250563]","[-1,-1,-1]","[0.09752423043973962,-0.10684608280105107]","[-1,-1,-1]","[0.08388950369745636,0.1475351352100969]","[-1,-1,-1]","[-0.09714166540256888,-0.02944264503314419]","[-1,-1,-1]","[-0.004248379545941859,-0.05967662972328482]","[1,1,1]","[0.004047747372648846,0.027150163639932397]","[-1,-1,-1]","[0.07216190951015776,0.10902653832577533]","[1,1,1]","[-0.05835115309811034,0.06435506775687974]","[1,1,1]","[-0.05890320247563871,0.15982060175175172]","[-1,-1,-1]","[0.035276660975693055,-0.00681246663159268]","[1,1,1]","[-0.047710719955154204,-0.13991224096173122]","[-1,-1,-1]","[0.047060795133321155,-0.19239272914394268]","[-1,-1,-1]","[-0.16139615596368523,-0.030336928067075827]","[1,1,1]","[-0.19794116428152828,-0.0036866220350874924]","[-1,-1,-1]","[0.10888835815096447,-0.15074602437910478]","[-1,-1,-1]","[-0.010518830939255487,-0.019448300487921004]","[1,1,1]","[-0.07279942337013644,0.020382535804215368]","[-1,-1,-1]","[0.04891524270976731,0.039906800449248714]","[1,1,1]","[-0.04754289729007708,-0.08104620236607776]","[-1,-1,-1]","[0.0487197683337396,0.18792525880914118]","[1,1,1]","[-0.08981512381470745,-0.07157767192477213]","[-1,-1,-1]","[0.02,0.02]",169.0555,0,4,4,83,1,,,,,,,
,,,,,,,66954eb024a4cac04db35d5a,682db3a2508d56241bf0eefc,2025-05-21_13h34.35.329,cuing_paradigm_dot,2024.1.5,Win32,60.24096386,682d556593cb38ad0a074487,,,,,,,,,,,169.0565,169.5483,,,169.7999,170.4144,right,0.5975,,,,,,,,,0.55,,,,,,169.5483,169.7998,170.4145,"[-0.08299136318728516,0.08945589425725615]","[-1,-1,-1]","[0.001773138090685044,-0.0044262396424451875]","[-1,-1,-1]","[0.029801779891034944,-0.17128664507591349]","[1,1,1]","[-0.0838166463839498,-0.10863694757280032]","[1,1,1]","[-0.08237728400643365,-0.04123118245680349]","[1,1,1]","[0.1541563740390334,-0.03177138147135012]","[1,1,1]","[-0.021474707404673835,-0.10412758169486835]","[-1,-1,-1]","[0.057637360395850996,0.029410627820923584]","[1,1,1]","[0.17902398627319357,0.08601637318766858]","[1,1,1]","[0.11861241745834267,-0.09304530317447102]","[1,1,1]","[-0.0797654047536961,-0.16887177759476651]","[1,1,1]","[-0.15015149660056282,0.09347759603374023]","[1,1,1]","[0.0779191547461353,-0.10025461745499589]","[1,1,1]","[-0.1417823908540934,-0.02064919176409564]","[1,1,1]","[-0.11827703659591723,0.12706337601533738]","[1,1,1]","[-0.09570016407546175,0.03320999806536684]","[-1,-1,-1]","[-0.0471644401896427,0.03701055593851282]","[-1,-1,-1]","[-0.0762573919419357,0.15067190086477206]","[1,1,1]","[-0.13869395999600265,-0.09566798414848902]","[1,1,1]","[-0.015024201698778042,0.09978660911196455]","[-1,-1,-1]","[-0.06850585531934696,-0.002838348482934629]","[1,1,1]","[-0.032990662666654846,-0.18093682011272]","[-1,-1,-1]","[0.015894476710411103,0.18209531824755676]","[1,1,1]","[-0.015257551123429703,0.14138259617160037]","[-1,-1,-1]","[0.14479067162550463,0.11748111100982749]","[-1,-1,-1]","[0.0821374995252495,-0.0565905282294573]","[-1,-1,-1]","[0.038929790251616,0.1463694849049713]","[-1,-1,-1]","[-0.004404310072445719,-0.04818158322988969]","[-1,-1,-1]","[0.1081130139194495,0.005858904997297492]","[-1,-1,-1]","[0.11690451540878997,0.07942828507731467]","[-1,-1,-1]","[0.034886399283171984,0.09351893932531155]","[1,1,1]","[0.03371710703649448,-0.10545272660867865]","[1,1,1]","[0.02,0.02]",171.504,0,5,5,134,1,,,,,,,
,,,,,,,66954eb024a4cac04db35d5a,682db3a2508d56241bf0eefc,2025-05-21_13h34.35.329,cuing_paradigm_dot,2024.1.5,Win32,60.24096386,682d556593cb38ad0a074487,,,,,,,,,,,171.505,172.0054,,,172.2418,172.8436,left,0.5857,,,,,,,,,0.6,,,,,,172.0055,172.2418,172.8439,"[-0.0002833101218703266,-0.19629238517375097]","[1,1,1]","[0.17290061646160176,-0.06183903205889659]","[-1,-1,-1]","[0.08511320817073532,0.12654681889781924]","[-1,-1,-1]","[-0.06914701865868654,-0.17616873407461575]","[1,1,1]","[-0.06786406279989639,0.10164669787852491]","[-1,-1,-1]","[0.035430127410704865,-0.08187819996166858]","[1,1,1]","[-0.01581787127221469,0.01894721006215351]","[1,1,1]","[0.012727389716179783,0.09866242782268253]","[-1,-1,-1]","[-0.18357851777657014,-0.0237405873764296]","[-1,-1,-1]","[-0.08374524087807608,-0.028727848187737628]","[-1,-1,-1]","[-0.06170839484849814,0.05838931648117978]","[1,1,1]","[0.054952475265357306,0.04126015870319429]","[-1,-1,-1]","[-0.11401811036368976,0.0006425469044074334]","[1,1,1]","[-0.18277158796807327,0.0639223486661268]","[-1,-1,-1]","[0.10592544916345001,0.09074746713935436]","[1,1,1]","[-0.039388576537442876,-0.09946272104462472]","[1,1,1]","[-0.10106819978597295,-0.13108574892904107]","[1,1,1]","[0.14828765478406014,0.09849034146722636]","[1,1,1]","[0.12101350174328113,-0.1057297696249784]","[1,1,1]","[0.10988248049417434,0.16060534294953224]","[-1,-1,-1]","[-0.009893237479311338,-0.06569299976877896]","[-1,-1,-1]","[-0.11653323136058683,0.04071783209755832]","[-1,-1,-1]","[-0.1387376279290732,-0.10826427957218995]","[-1,-1,-1]","[0.03350070301985557,-0.13890823392676258]","[1,1,1]","[-0.09927872480394888,0.15363222901012066]","[1,1,1]","[0.06420461152902812,0.1853038455697737]","[1,1,1]","[0.08674548323913533,-0.018409559559006895]","[-1,-1,-1]","[-0.1565946016971206,-0.06742178706755558]","[1,1,1]","[0.14504513643178218,0.028217041530100722]","[1,1,1]","[0.010829676568875802,0.18865537853215059]","[1,1,1]","[0.018305701585943874,-0.024786762519653657]","[1,1,1]","[-0.14730081593103875,0.11193633278170195]","[1,1,1]","[0.02,0.02]",173.9472,0,6,6,151,1,,,,,,,
,,,,,,,66954eb024a4cac04db35d5a,682db3a2508d56241bf0eefc,2025-05-21_13h34.35.329,cuing_paradigm_dot,2024.1.5,Win32,60.24096386,682d556593cb38ad0a074487,,,,,,,,,,,173.9483,174.4421,,,174.6892,175.1994,right,0.496,,,,,,,,,0.9,,,,,,174.4422,174.6891,175.1994,"[-0.0192898997023576,-0.10805599852035302]","[1,1,1]","[0.16405441837012413,0.07361225963694765]","[-1,-1,-1]","[0.1914980195789059,-0.049747687344088756]","[1,1,1]","[-0.11342438267866388,0.134884383239842]","[1,1,1]","[0.08309970443411059,-0.12708686156624693]","[1,1,1]","[-0.16288194648489213,-0.0668321098006741]","[1,1,1]","[0.10272257115590569,0.051035492278343066]","[1,1,1]","[0.07028956733393443,0.15218596249629604]","[-1,-1,-1]","[-0.07824459240955668,0.01444248649798883]","[1,1,1]","[-0.06396271366407362,0.18667774391995995]","[1,1,1]","[-0.009301115131119291,0.14400106272252078]","[1,1,1]","[0.06367722453598014,0.03796819386177223]","[1,1,1]","[-0.12449291673134426,-0.13578261010893006]","[1,1,1]","[0.05192157616403947,-0.06910116434686174]","[1,1,1]","[0.0006231921593944842,0.028272360505158915]","[1,1,1]","[-0.12962733837762705,-0.005845134310399406]","[1,1,1]","[-0.11889135404111087,-0.07879084573435417]","[1,1,1]","[0.16654085051670428,0.018450738610855368]","[1,1,1]","[0.0003699326142790122,0.08135316361822618]","[1,1,1]","[0.10155155490285155,0.004358336518867738]","[1,1,1]","[-0.10335937578211342,0.0703483998879103]","[-1,-1,-1]","[0.04244393245293559,-0.12885518857616574]","[1,1,1]","[-0.15263325073043307,0.12540254536068704]","[1,1,1]","[0.009488996316379656,-0.04821836961365419]","[1,1,1]","[-0.04691433161739723,0.0904442669264917]","[1,1,1]","[0.10328862287264683,-0.16266876736013597]","[1,1,1]","[0.07265472874050354,0.09813220325925277]","[1,1,1]","[-0.011165966375876303,-0.15653002940164992]","[1,1,1]","[-0.03244275237625097,-0.03917557264770503]","[1,1,1]","[0.056211411177109094,-0.01002752144232923]","[1,1,1]","[-0.057358998876588,-0.12991240826629089]","[1,1,1]","[-0.16579273304002143,0.0875340205508851]","[1,1,1]","[0.02,0.02]",176.2888,0,7,7,197,1,,,,,,,
,,,,,,,66954eb024a4cac04db35d5a,682db3a2508d56241bf0eefc,2025-05-21_13h34.35.329,cuing_paradigm_dot,2024.1.5,Win32,60.24096386,682d556593cb38ad0a074487,,,,,,,,,,,176.2903,176.7974,,,177.0402,177.7516,right,0.6998,,,,,,,,,0.6,,,,,,176.7975,177.0402,177.7517,"[0.026995493104081912,0.09035884497877328]","[1,1,1]","[0.09745277251758934,-0.017264033021361612]","[1,1,1]","[-0.017712228671280677,-0.17673989314869507]","[1,1,1]","[-0.07395970244810943,-0.0934593816396938]","[1,1,1]","[-0.14303858900374822,0.0014963050687604286]","[1,1,1]","[0.06189418645673453,0.11305037890817672]","[1,1,1]","[0.186665679054344,-0.06226165062324368]","[-1,-1,-1]","[-0.06014261705909698,0.023376595451717386]","[1,1,1]","[-0.03363603958435166,0.08495501972786879]","[-1,-1,-1]","[0.16604924593309808,0.10305337854544555]","[-1,-1,-1]","[-0.07445194122103124,0.15724943704213024]","[-1,-1,-1]","[0.03899672084443347,-0.19229226581632192]","[1,1,1]","[-0.15230266523617908,0.07377877933148477]","[-1,-1,-1]","[-0.058985296333685946,-0.18427247140756675]","[-1,-1,-1]","[-0.17232731335930657,-0.033399773630451046]","[-1,-1,-1]","[0.014157085896715691,-0.04376560707101853]","[1,1,1]","[0.07279109193910645,-0.056093502731602955]","[1,1,1]","[-0.11474759837248341,0.034353431159507876]","[-1,-1,-1]","[-0.10687070074275562,-0.1637006981639823]","[1,1,1]","[-0.06284081159971391,-0.03229401759559704]","[-1,-1,-1]","[0.108167823066817,0.16363445941603577]","[-1,-1,-1]","[0.17900865459828985,0.052272805179325706]","[1,1,1]","[-0.036132772599880375,-0.0685319583267785]","[-1,-1,-1]","[0.16132796084577905,-0.02244748112648205]","[1,1,1]","[0.119224523093021,-0.09168867538815875]","[1,1,1]","[-0.1149493150893089,-0.09420912365573565]","[1,1,1]","[0.1446336208807606,0.02357459314145239]","[1,1,1]","[-0.15555813303006513,-0.10316527709630757]","[-1,-1,-1]","[0.10045806867272451,-0.16588102778135]","[1,1,1]","[0.0353086220045725,-0.008851012252998398]","[-1,-1,-1]","[-0.01869841087288173,0.03529561696226626]","[1,1,1]","[0.0746623103240867,0.05731296324770081]","[1,1,1]","[0.02,0.02]",178.8458,0,8,8,156,1,,,,,,,
,,,,,,,66954eb024a4cac04db35d5a,682db3a2508d56241bf0eefc,2025-05-21_13h34.35.329,cuing_paradigm_dot,2024.1.5,Win32,60.24096386,682d556593cb38ad0a074487,,,,,,,,,,,178.8469,179.3452,,,179.5729,180.5313,left,0.9424,,,,,,,,,0.5,,,,,,179.3452,179.5728,180.5315,"[0.16632119174097584,-0.07555904465826868]","[-1,-1,-1]","[-0.09079616828534207,0.10679455223768784]","[1,1,1]","[0.07781793076107871,-0.12226299096693816]","[1,1,1]","[-0.013773422992128952,-0.09909207137661012]","[-1,-1,-1]","[0.05935517081501906,-0.04599907827601126]","[-1,-1,-1]","[0.0036869691629860665,0.09514885421476749]","[-1,-1,-1]","[-0.03153509163939299,-0.14182385426451474]","[1,1,1]","[0.010448839502323042,0.1779360072256614]","[1,1,1]","[-0.05286944838208516,0.07404739679719788]","[-1,-1,-1]","[-0.1738217660715698,-0.050274872944124235]","[-1,-1,-1]","[-0.0700452743704834,-0.07841510890766515]","[1,1,1]","[-0.10570272797152606,-0.008953474245666377]","[1,1,1]","[0.034437843438212476,0.12079631649023223]","[1,1,1]","[0.1862122856090468,0.035111683290746966]","[-1,-1,-1]","[-0.12030498058280306,-0.06050059856083785]","[1,1,1]","[0.10813203612747305,-0.06624957641771803]","[-1,-1,-1]","[-0.1700834756545318,0.04617031316935994]","[-1,-1,-1]","[0.037189486507758274,0.017414954771660926]","[-1,-1,-1]","[0.18201074745144213,-0.023371038308558585]","[-1,-1,-1]","[0.06228229881110747,-0.17536015505961502]","[-1,-1,-1]","[0.08974451869327393,0.10255760151142597]","[1,1,1]","[-0.036019598471452564,0.13938045249950196]","[-1,-1,-1]","[-0.06864378431985504,-0.16785689868098821]","[1,1,1]","[-0.13987710197467954,0.08541079258639409]","[1,1,1]","[-0.10836778678136633,-0.14241761914117163]","[1,1,1]","[-0.0076842347646828004,-0.004616421385690204]","[1,1,1]","[0.07257000782956778,0.16727794328830686]","[1,1,1]","[0.0840902096660662,0.014171788858063793]","[-1,-1,-1]","[0.12887597843882495,0.12293863810682498]","[-1,-1,-1]","[0.12351629591966364,0.05041074000219246]","[-1,-1,-1]","[0.015577081826636991,-0.15310926027883354]","[1,1,1]","[0.04441580716738076,0.07276304028527361]","[1,1,1]","[0.02,0.02]",181.6204,0,9,9,112,1,,,,,,,
,,,,,,,66954eb024a4cac04db35d5a,682db3a2508d56241bf0eefc,2025-05-21_13h34.35.329,cuing_paradigm_dot,2024.1.5,Win32,60.24096386,682d556593cb38ad0a074487,,,,,,,,,,,181.6212,182.1211,,,182.3741,182.9718,right,0.5796,,,,,,,,,0.6,,,,,,182.1213,182.3739,182.9719,"[-0.1402065632114567,0.032370937523228734]","[1,1,1]","[-0.010648041004357988,0.08124977036248403]","[1,1,1]","[-0.11246480231255758,0.14637587591521997]","[-1,-1,-1]","[0.1853550763374627,0.010096018535251376]","[-1,-1,-1]","[0.14769365099491436,-0.10513699850623934]","[1,1,1]","[-0.1786580923134217,-0.08647303242348098]","[-1,-1,-1]","[-0.18327307154127837,-0.023064038266548664]","[1,1,1]","[-0.08922452465043113,-0.11864886345901487]","[1,1,1]","[-0.022419873257824508,-0.18074258529922002]","[1,1,1]","[-0.012570280504993482,-0.05030120152188756]","[-1,-1,-1]","[0.012901401767092171,0.1531077057923318]","[-1,-1,-1]","[0.15314586748427658,0.06225000776111815]","[-1,-1,-1]","[-0.009147663653958084,0.025566896061720062]","[1,1,1]","[-0.14480507882780833,-0.1153199398241322]","[1,1,1]","[0.035766206823099445,-0.1780321029072421]","[1,1,1]","[0.13984653879591077,0.013550102586298659]","[1,1,1]","[0.06196741336552949,0.15456025646805924]","[-1,-1,-1]","[0.10358744284896557,0.14588977734227931]","[1,1,1]","[0.05323796049781483,0.014675314638484425]","[-1,-1,-1]","[0.16221657295961928,-0.028761756900486962]","[1,1,1]","[-0.05471798821546539,0.15586202843396096]","[1,1,1]","[-0.15542083270659363,0.11990395355379582]","[-1,-1,-1]","[0.11455343671859092,0.07768372508002148]","[1,1,1]","[-0.027608767571809047,0.19002767528109607]","[1,1,1]","[-0.12051126204460097,-0.048207603556993446]","[-1,-1,-1]","[-0.05579485053755396,0.08653429191395005]","[-1,-1,-1]","[0.053598584631565895,-0.07671300388090926]","[-1,-1,-1]","[0.18425973898287062,-0.06791730182225007]","[1,1,1]","[0.06008733550215697,-0.027395420101309593]","[-1,-1,-1]","[0.02739111318069017,0.19040044385533672]","[1,1,1]","[0.10816377928596778,-0.04053747425909142]","[1,1,1]","[0.16100812675476645,0.11382031507433751]","[1,1,1]","[0.02,0.02]",184.0813,0,10,10,172,1,,,,,,,
,,,,,,,66954eb024a4cac04db35d5a,682db3a2508d56241bf0eefc,2025-05-21_13h34.35.329,cuing_paradigm_dot,2024.1.5,Win32,60.24096386,682d556593cb38ad0a074487,,,,,,,,,,,184.0834,184.5824,,,184.8282,185.6975,left,0.8495,,,,,,,,,0.4,,,,,,184.5826,184.8282,185.6976,"[0.030299667667717856,0.008872031111494086]","[-1,-1,-1]","[-0.18488118403729448,-0.04289348427778739]","[1,1,1]","[0.07670190557374577,-0.05684929980737225]","[1,1,1]","[0.11659705904242888,-0.08677835151679089]","[1,1,1]","[0.07158319664505837,0.16459284983264558]","[1,1,1]","[-0.0338373707918314,0.0299091608257774]","[-1,-1,-1]","[-0.08130045425811441,0.06423700220706884]","[-1,-1,-1]","[0.0694251669575428,-0.09675159283073712]","[-1,-1,-1]","[0.1398399264469743,-0.040306916685558344]","[-1,-1,-1]","[0.15981893396741742,0.05287109351118915]","[-1,-1,-1]","[-0.07122337983509716,0.00300009517269323]","[1,1,1]","[-0.03539639131072108,0.13059478063331975]","[1,1,1]","[0.016417778481941942,0.19625834542384513]","[-1,-1,-1]","[0.16785612733065453,-0.06950212175105416]","[-1,-1,-1]","[-0.12691827134163125,-0.13179246591934934]","[-1,-1,-1]","[0.1173586619900255,-0.15752690617020718]","[-1,-1,-1]","[0.11935892114435862,0.1556501293349593]","[-1,-1,-1]","[-0.06735477409910408,-0.03835020899326755]","[1,1,1]","[-0.16687352184518173,-0.0001771933744121899]","[-1,-1,-1]","[-0.11403709879478524,-0.02011097407196629]","[1,1,1]","[-0.14848206818089,-0.08606370114225141]","[1,1,1]","[0.016606599589434095,0.09512063573456649]","[-1,-1,-1]","[0.08664312582827856,0.010000744366580857]","[-1,-1,-1]","[0.052908739077859035,0.12791487563401577]","[1,1,1]","[-0.01830716904933082,-0.07151314734066443]","[-1,-1,-1]","[-0.0214991302961509,0.18114325203858764]","[-1,-1,-1]","[-0.080572077228421,-0.13935614346405245]","[-1,-1,-1]","[0.004163528904291503,-0.14261549460592599]","[1,1,1]","[-0.09288399004401914,-0.0756749604167791]","[-1,-1,-1]","[-0.11142960646291009,0.0967969399961388]","[1,1,1]","[-0.051128433997290584,-0.18702395825270005]","[1,1,1]","[0.1972258136162009,-0.00809601134504083]","[-1,-1,-1]","[0.02,0.02]",186.8012,0,11,11,41,1,,,,,,,
,,,,,,,66954eb024a4cac04db35d5a,682db3a2508d56241bf0eefc,2025-05-21_13h34.35.329,cuing_paradigm_dot,2024.1.5,Win32,60.24096386,682d556593cb38ad0a074487,,,,,,,,,,,186.8037,187.2947,,,187.5478,188.033,right,0.4685,,,,,,,,,0.6,,,,,,187.2947,187.5477,188.0331,"[0.11177773413350843,0.09198970037598118]","[1,1,1]","[-0.10317445481759083,0.055344269833635155]","[-1,-1,-1]","[-0.03759286657440579,0.04216653500555099]","[1,1,1]","[0.11966512827870826,-0.016770357601547062]","[1,1,1]","[0.01685055950867362,-0.17404636458376513]","[1,1,1]","[0.07761605566392708,-0.11391766364492739]","[1,1,1]","[0.19452795881779594,-0.04535640838415127]","[1,1,1]","[0.0712901804495203,0.03176994784282809]","[-1,-1,-1]","[-0.19128693460292787,0.02439566663694327]","[-1,-1,-1]","[-0.06744113427793086,-0.09590600720873546]","[1,1,1]","[-0.11279135093270214,0.16118655242823143]","[1,1,1]","[0.15328885863693706,0.12356997071555642]","[1,1,1]","[-0.06549715420987987,-0.03971887007842834]","[-1,-1,-1]","[0.09735388132595202,-0.1536419659919498]","[1,1,1]","[-0.02720781307004862,-0.08261058922186211]","[-1,-1,-1]","[0.006492816947905721,0.07360560024153415]","[-1,-1,-1]","[-0.003691652985504879,0.17189490954007083]","[1,1,1]","[-0.060684136887139035,0.13556954906467159]","[-1,-1,-1]","[-0.020383695142010112,0.10522314704559578]","[-1,-1,-1]","[-0.1182061961165698,-0.11231180617191043]","[1,1,1]","[0.046655622709887296,-0.006258037181034054]","[-1,-1,-1]","[-0.10027715235217567,-0.15870896410165372]","[-1,-1,-1]","[-0.02438472545754465,-0.1682214433183403]","[1,1,1]","[-0.1668092599916561,-0.10993280154120126]","[1,1,1]","[-0.14215661789843337,0.07674049451408357]","[-1,-1,-1]","[-0.08976552412177112,0.10341795382591526]","[1,1,1]","[0.06659061362936587,0.12161803335525863]","[1,1,1]","[-0.15795807048934662,-0.051174998375744594]","[1,1,1]","[0.18567264823166077,0.061363821953317445]","[1,1,1]","[0.03283103323965535,-0.08960581255634008]","[-1,-1,-1]","[-0.132067717221126,-0.01487716211639103]","[1,1,1]","[0.10814260311350009,-0.060569848633354226]","[-1,-1,-1]","[0.02,0.02]",189.1287,0,12,12,171,1,,,,,,,
,,,,,,,66954eb024a4cac04db35d5a,682db3a2508d56241bf0eefc,2025-05-21_13h34.35.329,cuing_paradigm_dot,2024.1.5,Win32,60.24096386,682d556593cb38ad0a074487,,,,,,,,,,,189.1295,189.6273,,,189.8726,190.4623,right,0.5729,,,,,,,,,0.6,,,,,,189.6273,189.8725,190.4625,"[0.003932753468529799,0.08857786002616955]","[1,1,1]","[0.022558265040911064,-0.004372322758695617]","[-1,-1,-1]","[0.07783799610622993,0.10383414920804154]","[-1,-1,-1]","[-0.04723381874645973,0.12042071898364855]","[1,1,1]","[-0.19558985207444535,0.03815545782023628]","[-1,-1,-1]","[-0.1376400235300539,0.023905591377762853]","[1,1,1]","[-0.18048800235166287,-0.02763106331402036]","[-1,-1,-1]","[0.1599766294833938,0.04033534456865336]","[1,1,1]","[0.043391979462214396,-0.04249536862837527]","[1,1,1]","[-0.14007999913081973,0.12268935482879831]","[1,1,1]","[0.10322578187222793,0.056767838496889544]","[1,1,1]","[0.07204884857476657,-0.09443762853785712]","[-1,-1,-1]","[-0.1423383206522084,-0.1098577682800059]","[1,1,1]","[-0.008450225624671846,-0.03815900802986379]","[1,1,1]","[0.028129172718901432,-0.14426736603711426]","[1,1,1]","[0.033014356648113995,0.1645432693914376]","[1,1,1]","[-0.037617627521852236,0.07407964139435899]","[1,1,1]","[-0.09394485468810225,0.12044715687491087]","[1,1,1]","[0.10028590290840775,-0.06018556468817729]","[-1,-1,-1]","[0.15125377451655195,-0.0740600203428799]","[1,1,1]","[0.17034863500245603,0.08531544048196693]","[1,1,1]","[-0.06505459299201628,-0.035489357305352]","[-1,-1,-1]","[-0.09949782458952558,-0.010091450268854654]","[-1,-1,-1]","[-0.14188503602048522,0.07128245001920182]","[1,1,1]","[-0.12702667188953357,-0.07168111468490226]","[-1,-1,-1]","[-0.045653415934800136,0.1927416620316355]","[1,1,1]","[-0.07274957878329699,-0.11391858599374761]","[-1,-1,-1]","[-0.08149765392257534,-0.1539345993788919]","[1,1,1]","[-0.03679726234687816,0.017735355722227605]","[-1,-1,-1]","[-0.08144117979031795,0.16969128159221436]","[1,1,1]","[-0.00476322121072186,-0.17087247584120746]","[-1,-1,-1]","[-0.08309897211436436,0.055935015739937706]","[-1,-1,-1]","[0.02,0.02]",191.5613,0,13,13,177,1,,,,,,,
,,,,,,,66954eb024a4cac04db35d5a,682db3a2508d56241bf0eefc,2025-05-21_13h34.35.329,cuing_paradigm_dot,2024.1.5,Win32,60.24096386,682d556593cb38ad0a074487,,,,,,,,,,,191.5619,192.0646,,,192.3145,192.8481,left,0.5173,,,,,,,,,0.45,,,,,,192.0646,192.3145,192.8482,"[-0.09682788446750616,-0.14179098686731204]","[1,1,1]","[0.04472056460998755,-0.13673451592352803]","[-1,-1,-1]","[-0.1665087674400835,0.09296883030455153]","[1,1,1]","[-0.035195533288263824,0.04178461529999511]","[-1,-1,-1]","[0.09149294434306209,-0.04758028236269645]","[1,1,1]","[0.028443546942094233,-0.07564904370293406]","[-1,-1,-1]","[0.18918193952423015,0.014743906111496478]","[-1,-1,-1]","[-0.16980425405012595,0.044747672793449156]","[-1,-1,-1]","[0.1580179432270715,-0.06602729226722559]","[1,1,1]","[-0.07595155456931549,0.036677839613556]","[-1,-1,-1]","[-0.12779773261160676,0.04643228048373956]","[1,1,1]","[-0.09257911131308212,0.1119722960479069]","[1,1,1]","[0.13565527260889648,0.07770137041203608]","[1,1,1]","[0.13245598045120563,-0.016479287583518666]","[-1,-1,-1]","[0.06444926028621666,0.1246578219017097]","[1,1,1]","[-0.1631669958319933,-0.0057786356073845175]","[-1,-1,-1]","[-0.12456480192171054,0.08784077743976541]","[1,1,1]","[0.035846952689624505,-0.17993276423875276]","[1,1,1]","[0.0799798532691632,-0.17599433137568296]","[-1,-1,-1]","[0.1293019838026719,-0.1505701624969086]","[-1,-1,-1]","[-0.05022468847359127,-0.01644034975065909]","[-1,-1,-1]","[-0.0263979773981855,0.15829840934439796]","[1,1,1]","[-0.15312515625623555,-0.09306405315149019]","[1,1,1]","[-0.002830946216609944,-0.13375734311020512]","[-1,-1,-1]","[0.019848690020719467,0.009979096159839508]","[-1,-1,-1]","[-0.10858545452395625,0.16632923261715973]","[-1,-1,-1]","[-0.0025379945777122873,0.07105841415702902]","[-1,-1,-1]","[0.06821751607487714,-0.08660216415555032]","[-1,-1,-1]","[0.08100285523680048,0.17135876667129515]","[1,1,1]","[-0.04098328498801681,-0.14905042533361343]","[-1,-1,-1]","[0.10500464481667429,0.11197992596826381]","[-1,-1,-1]","[-0.09641593777845141,-0.08549294930840597]","[1,1,1]","[0.02,0.02]",193.938,0,14,14,88,1,,,,,,,
,,,,,,,66954eb024a4cac04db35d5a,682db3a2508d56241bf0eefc,2025-05-21_13h34.35.329,cuing_paradigm_dot,2024.1.5,Win32,60.24096386,682d556593cb38ad0a074487,,,,,,,,,,,193.9395,194.441,,,194.6813,195.4607,left,0.7619,,,,,,,,,0.5,,,,,,194.441,194.6812,195.4608,"[-0.10601771672722143,-0.13819930637241523]","[-1,-1,-1]","[0.09501636150386707,-0.05299088997106958]","[1,1,1]","[-0.08317921369643831,-0.04788886351759146]","[-1,-1,-1]","[0.19279559285392167,0.009906402253507612]","[1,1,1]","[-0.033902471621254655,-0.14724928132038215]","[-1,-1,-1]","[0.05807694133683636,0.15481672366740423]","[-1,-1,-1]","[-0.033977407835746966,0.19295352415678946]","[-1,-1,-1]","[-0.13031580788418656,0.05845065808352862]","[1,1,1]","[0.10888934776158538,-0.12955757501736584]","[-1,-1,-1]","[0.030289633075426356,-0.040676189245734816]","[-1,-1,-1]","[0.15690176221017904,-0.10328604398272474]","[1,1,1]","[-0.13408448312106255,-0.06294006427143632]","[1,1,1]","[0.060357845306438763,-0.11724006799432969]","[1,1,1]","[-0.04611304662553247,0.07771812968327958]","[1,1,1]","[-0.03258028030820062,-0.034830307516860955]","[-1,-1,-1]","[-0.0489012723805421,0.02022980493709236]","[1,1,1]","[0.05112854965942703,0.10161156744795997]","[1,1,1]","[-0.1966857755197354,0.032080210258198086]","[1,1,1]","[-0.09590735486634876,0.10476484051265994]","[-1,-1,-1]","[0.00428166999663612,0.09440163175123607]","[1,1,1]","[0.04076139602077282,0.0012602025136836529]","[-1,-1,-1]","[0.017237831160044428,-0.1721222541145309]","[-1,-1,-1]","[-0.06311877604709619,-0.10138132654105565]","[-1,-1,-1]","[0.141362715368856,-0.04230538497171627]","[-1,-1,-1]","[-0.008654913024387919,-0.1041119448519707]","[-1,-1,-1]","[0.06154803868959679,-0.16718090116623066]","[1,1,1]","[-0.1520335466918699,-0.11135775595397646]","[-1,-1,-1]","[-0.16051786552285743,0.09173927943740956]","[1,1,1]","[0.1696241355009006,0.10084479437522065]","[-1,-1,-1]","[0.06798658958710604,0.04070819314547769]","[1,1,1]","[-0.10286008650381794,0.028238895838857764]","[1,1,1]","[0.10222130715722944,0.06887066365699442]","[1,1,1]","[0.02,0.02]",196.5558,0,15,15,103,1,,,,,,,
,,,,,,,66954eb024a4cac04db35d5a,682db3a2508d56241bf0eefc,2025-05-21_13h34.35.329,cuing_paradigm_dot,2024.1.5,Win32,60.24096386,682d556593cb38ad0a074487,,,,,,,,,,,196.5567,197.0549,,,197.3121,197.6885,right,0.3534,,,,,,,,,0.55,,,,,,197.0559,197.312,197.6888,"[0.13415840923612976,0.14362136318633195]","[1,1,1]","[0.09275087533138225,-0.020618281356153734]","[1,1,1]","[0.04116059213785313,0.14134315999002553]","[-1,-1,-1]","[0.011562626457973253,0.08511191340582198]","[1,1,1]","[-0.11898512577788249,-0.11783710862236603]","[1,1,1]","[-0.16143304010640686,0.018237030999141708]","[1,1,1]","[0.12154410078042252,-0.11064128751049969]","[-1,-1,-1]","[0.1878631881540776,-0.008120100040752422]","[1,1,1]","[0.14197300161966048,0.10138659439003524]","[1,1,1]","[0.05124309244642483,0.023921915130526935]","[-1,-1,-1]","[-0.028412444971008047,0.1397816160976018]","[-1,-1,-1]","[0.15854860172777324,-0.08414514977060583]","[-1,-1,-1]","[0.07833347844545227,-0.1448307546661785]","[-1,-1,-1]","[-0.003930385931553221,0.009362481129192081]","[1,1,1]","[-0.10536355909680822,0.007170469465756384]","[1,1,1]","[-0.04422758538078878,-0.12451638647993676]","[1,1,1]","[-0.07216217163496647,-0.07822543147121737]","[1,1,1]","[-0.05125592226350388,0.05867360159460074]","[-1,-1,-1]","[0.05713473202266745,-0.04360140997153413]","[-1,-1,-1]","[-0.05024973386014983,-0.17149929549038948]","[1,1,1]","[0.08261081014908672,0.10086491803195033]","[1,1,1]","[-0.1304514310331698,0.11608172187296939]","[-1,-1,-1]","[-0.02482383748901293,-0.0846835159807997]","[1,1,1]","[-0.0062784992625251786,-0.03328296785766919]","[1,1,1]","[-0.19777392951212627,-0.009469802330863197]","[1,1,1]","[-0.07728702837755638,0.16287921633389488]","[1,1,1]","[-0.04936915583155021,0.00833863523459121]","[-1,-1,-1]","[0.11236286808337019,0.03950427404038504]","[1,1,1]","[0.166532115556002,0.05323472153143227]","[-1,-1,-1]","[-0.08889081521324571,-0.15431454554382137]","[-1,-1,-1]","[-0.12410140409852163,-0.05889858542832474]","[-1,-1,-1]","[0.010602592361752313,-0.14018915938571117]","[-1,-1,-1]","[0.02,0.02]",198.7788,0,16,16,122,1,,,,,,,
,,,,,,,66954eb024a4cac04db35d5a,682db3a2508d56241bf0eefc,2025-05-21_13h34.35.329,cuing_paradigm_dot,2024.1.5,Win32,60.24096386,682d556593cb38ad0a074487,,,,,,,,,,,198.7797,199.2705,,,199.5229,200.1216,left,0.5709,,,,,,,,,0.45,,,,,,199.2707,199.5228,200.1217,"[0.0014669372645205621,-0.1921542234145819]","[-1,-1,-1]","[0.0483095840721976,0.055235439665542514]","[-1,-1,-1]","[-0.03368845869891824,0.02147379594152534]","[1,1,1]","[0.014586487830829522,0.1008395227085265]","[-1,-1,-1]","[0.06624317298173962,-0.0419264879956746]","[-1,-1,-1]","[-0.04149609604302254,-0.1167878851202578]","[1,1,1]","[-0.18557842770775426,-0.0640423397947391]","[-1,-1,-1]","[0.12220723788236391,0.13326982506038548]","[-1,-1,-1]","[-0.19783272627989323,0.00530273706942229]","[-1,-1,-1]","[-0.08199698703193797,0.1684802267422789]","[1,1,1]","[-0.13845582691745395,0.03255429802149539]","[1,1,1]","[-0.14246453592550654,-0.08512846898738988]","[1,1,1]","[0.09844440294250843,0.03565090995152197]","[1,1,1]","[0.037586299199188586,-0.08994327573285453]","[1,1,1]","[0.04801349101548638,-0.1635496259361932]","[-1,-1,-1]","[0.18545715503727314,0.003928493533321064]","[-1,-1,-1]","[0.12434152884669504,-0.07713501932304452]","[1,1,1]","[0.017084336280101302,-0.04496818225441334]","[1,1,1]","[-0.01744924163545189,0.06564467409466469]","[-1,-1,-1]","[-0.05831130675315775,-0.07082130277246229]","[-1,-1,-1]","[-0.09888060929231249,-0.17323535994109168]","[-1,-1,-1]","[0.16290299738912314,0.06199238659261846]","[-1,-1,-1]","[0.09553791723458939,-0.009849133982359225]","[1,1,1]","[-0.10114992517458049,-0.06263576764170639]","[1,1,1]","[-0.0715728359213301,0.08917062944444937]","[-1,-1,-1]","[0.14597824557556185,-0.027110904033029987]","[1,1,1]","[0.06228992766191637,-0.12214646840791664]","[-1,-1,-1]","[0.16710184843288856,-0.08821932460114157]","[1,1,1]","[-0.10769455132808761,-0.13010413730991638]","[-1,-1,-1]","[-0.13212614914221701,0.13351317286643824]","[-1,-1,-1]","[-0.12916728104038144,0.07977409902380599]","[-1,-1,-1]","[0.18381407296236388,-0.043535260824474196]","[1,1,1]","[0.02,0.02]",201.2207,0,17,17,72,1,,,,,,,
,,,,,,,66954eb024a4cac04db35d5a,682db3a2508d56241bf0eefc,2025-05-21_13h34.35.329,cuing_paradigm_dot,2024.1.5,Win32,60.24096386,682d556593cb38ad0a074487,,,,,,,,,,,201.2217,201.7203,,,201.9676,202.9264,left,0.9431,,,,,,,,,0.4,,,,,,201.7204,201.9676,202.9265,"[-0.10573775437433122,-0.14066716033889154]","[-1,-1,-1]","[0.10130255819120204,0.048391215924070495]","[-1,-1,-1]","[-0.17832101861601943,0.017068869573777908]","[1,1,1]","[0.03789081164596319,0.1963358121821717]","[1,1,1]","[0.09468146426508434,0.17259546139993873]","[-1,-1,-1]","[0.06891926692448493,-0.09140365567586116]","[1,1,1]","[0.18977529172959903,-0.030443268105016564]","[1,1,1]","[-0.06360553397761974,-0.019740917136638787]","[1,1,1]","[0.0052630695448926115,-0.09116776442380613]","[-1,-1,-1]","[-0.04460411163538313,-0.18721678765829797]","[1,1,1]","[-0.041637171253207955,-0.07121946233225336]","[-1,-1,-1]","[-0.06402475481100973,-0.10483312666029024]","[-1,-1,-1]","[-0.000452485959618043,0.11392353244674508]","[-1,-1,-1]","[-0.0903059184036293,0.02924510292395614]","[1,1,1]","[0.03411158763070397,0.0257131473001953]","[1,1,1]","[0.08491073822020208,-0.15190452921258435]","[-1,-1,-1]","[0.0687495626836429,0.1064555600904026]","[-1,-1,-1]","[-0.08824635857602259,0.1028127608741058]","[-1,-1,-1]","[-0.048937849296215516,0.13688473468754192]","[-1,-1,-1]","[0.00316496737308439,0.06434470575889756]","[-1,-1,-1]","[0.16873594250011942,-0.07952439039160512]","[-1,-1,-1]","[0.1230248923653091,0.11760623598014808]","[1,1,1]","[-0.12391836354432735,0.05652703735057227]","[1,1,1]","[-0.031631239930749455,-0.1447165851780662]","[-1,-1,-1]","[0.15628463039685334,0.05068907535598682]","[-1,-1,-1]","[-0.17444801187024114,-0.07073470147174227]","[1,1,1]","[0.0398191429050079,0.1466663923462145]","[-1,-1,-1]","[0.10530395148266734,-0.018062450048245398]","[1,1,1]","[0.04280751006370358,-0.15993582994370606]","[1,1,1]","[-0.1550804733076323,0.08721384612120459]","[-1,-1,-1]","[-0.12893140387422647,-0.03211416338653783]","[-1,-1,-1]","[-0.03220645471055842,0.006480910343288265]","[-1,-1,-1]","[0.02,0.02]",204.0234,0,18,18,58,1,,,,,,,
,,,,,,,66954eb024a4cac04db35d5a,682db3a2508d56241bf0eefc,2025-05-21_13h34.35.329,cuing_paradigm_dot,2024.1.5,Win32,60.24096386,682d556593cb38ad0a074487,,,,,,,,,,,204.0246,204.5218,,,204.7706,205.8988,right,1.1152,,,,,,,,,0.5,,,,,,204.5218,204.7705,205.8988,"[0.05854779058757613,0.16930109573952448]","[-1,-1,-1]","[-0.1713223998667332,-0.07803968116953804]","[-1,-1,-1]","[0.17423298678565852,0.07559092807229044]","[1,1,1]","[0.041967724096096254,-0.003167987656534565]","[1,1,1]","[-0.07947858017892893,-0.16897171159720034]","[-1,-1,-1]","[0.14096520494666975,-0.05095650821046653]","[1,1,1]","[-0.06315137074984398,0.01489285921729321]","[-1,-1,-1]","[0.07402892027245504,0.07151331756731158]","[1,1,1]","[-0.14112876328565663,0.08122715465148526]","[1,1,1]","[0.10219531796898511,-0.024154529372300358]","[-1,-1,-1]","[-0.18095359168545702,0.007738122235986902]","[1,1,1]","[0.13202038231737287,0.04452860673822583]","[-1,-1,-1]","[0.06039770306799908,-0.17199637870700063]","[1,1,1]","[-0.017658841588488138,0.16799315112912416]","[1,1,1]","[-0.029283823576702454,-0.1376721556099306]","[-1,-1,-1]","[-0.0027787454315052777,-0.024617074871169674]","[-1,-1,-1]","[-0.08046512872375836,-0.024882498654795096]","[-1,-1,-1]","[-0.10829681266353457,-0.05582027585066124]","[1,1,1]","[0.1487196549713156,-0.09478792083780839]","[-1,-1,-1]","[0.009864894599215007,-0.181938682338009]","[1,1,1]","[0.14239880695550952,0.1365361873362948]","[-1,-1,-1]","[-0.043325022742377955,-0.18919973691242267]","[-1,-1,-1]","[0.05485573815595754,-0.0827577265060542]","[1,1,1]","[0.0992010825236975,0.13867484488744325]","[1,1,1]","[0.18317155107633679,-0.053982740342937735]","[-1,-1,-1]","[-0.12436244168338118,-0.13552259266584937]","[1,1,1]","[0.04997115663041485,-0.12779587544835302]","[-1,-1,-1]","[-0.14768822315505487,0.035948098778028695]","[1,1,1]","[-0.07522562349086377,0.08116532348587106]","[1,1,1]","[-0.04903933328540414,-0.10196335388728255]","[-1,-1,-1]","[0.0982974812040256,0.016360049855137105]","[1,1,1]","[0.041680740533879705,0.0371116414764407]","[-1,-1,-1]","[0.02,0.02]",206.9923,0,19,19,109,1,,,,,,,
,,,,,,,66954eb024a4cac04db35d5a,682db3a2508d56241bf0eefc,2025-05-21_13h34.35.329,cuing_paradigm_dot,2024.1.5,Win32,60.24096386,682d556593cb38ad0a074487,,,,,,,,,,,206.9937,207.4886,,,207.7296,208.1883,right,0.4382,,,,,,,,,0.9,,,,,,207.4888,207.7295,208.1884,"[0.15979125018955695,-0.05306150320362985]","[1,1,1]","[-0.12430987404103933,0.13953685971908267]","[1,1,1]","[0.055366831942364705,0.14383365147393368]","[-1,-1,-1]","[-0.14695909121725562,-0.023818749664057812]","[1,1,1]","[0.032943950659094896,-0.11724749468508038]","[-1,-1,-1]","[0.11076532787804261,0.043707574114496696]","[1,1,1]","[0.0003716600807005182,0.022618478825882256]","[1,1,1]","[-0.06014690248209127,0.11934329222668219]","[1,1,1]","[0.09518071325897348,0.005826690383192214]","[1,1,1]","[-0.06649059629745144,-0.007372128634689417]","[1,1,1]","[-0.03067166346442564,0.17022861708656864]","[1,1,1]","[0.03292187200106198,0.08769572038992916]","[1,1,1]","[0.16031651624550677,-0.09326030395083783]","[1,1,1]","[-0.13149032277471012,0.09451815189891885]","[1,1,1]","[-0.06837784411910541,-0.17277664196022008]","[1,1,1]","[-0.10790130490588565,-0.09035400585857388]","[1,1,1]","[0.16114958440410673,0.0755343344597268]","[1,1,1]","[-0.015047531767678977,-0.17913753631136534]","[1,1,1]","[0.13277880830334404,-0.008374899989242518]","[1,1,1]","[0.13901208416115152,0.11931450691804325]","[1,1,1]","[0.06734193208491795,-0.07552173890556392]","[1,1,1]","[-0.1879181525324139,-0.05992590238654185]","[1,1,1]","[-0.0011478576769027287,-0.048007615996685606]","[1,1,1]","[-0.18787471529207778,0.06073850068081098]","[1,1,1]","[0.16381266854434515,0.0237017785251077]","[1,1,1]","[-0.03839778137509468,-0.07176009091045644]","[-1,-1,-1]","[0.0038853674626185323,0.19530576325102067]","[1,1,1]","[0.0455513165838516,-0.19016138794211115]","[1,1,1]","[0.07663262245786684,-0.13875481070055798]","[1,1,1]","[-0.0076218248378369146,0.11357067793724321]","[1,1,1]","[0.12040583311074482,-0.11955138356139107]","[1,1,1]","[-0.14388035395072973,-0.12422667158774392]","[1,1,1]","[0.02,0.02]",209.2806,0,20,20,202,1,,,,,,,
,,,,,,,66954eb024a4cac04db35d5a,682db3a2508d56241bf0eefc,2025-05-21_13h34.35.329,cuing_paradigm_dot,2024.1.5,Win32,60.24096386,682d556593cb38ad0a074487,,,,,,,,,,,209.2811,209.7776,,,210.0331,211.1795,left,1.1304,,,,,,,,,0.45,,,,,,209.7777,210.033,211.1796,"[-0.09731420029926438,-0.16610606357219412]","[1,1,1]","[-0.1156813275634007,-0.09609547805038555]","[-1,-1,-1]","[0.15014412045537448,-0.05157905303409185]","[1,1,1]","[0.05408083762611797,-0.17417079275314815]","[-1,-1,-1]","[-0.09673028060354277,0.0818882561966472]","[-1,-1,-1]","[0.007982823141423399,-0.04276712946427656]","[-1,-1,-1]","[-0.07398454808078404,-0.061559701062281126]","[1,1,1]","[0.00563221298658453,0.14221960024055197]","[-1,-1,-1]","[-0.03509545978990823,-0.028415971697435354]","[-1,-1,-1]","[0.10813030371266875,-0.15869772258627707]","[-1,-1,-1]","[0.027225673540636118,-0.1300307461188706]","[1,1,1]","[0.05615896490408551,-0.037379752121195785]","[-1,-1,-1]","[0.02498649764382319,0.04528996196762234]","[1,1,1]","[0.15951102953868532,-0.1038964783117033]","[-1,-1,-1]","[-0.0766586286702519,-0.019780667117321002]","[1,1,1]","[-0.07989817726675207,0.17850896694271734]","[1,1,1]","[-0.16732962428995926,0.07878548150039283]","[1,1,1]","[-0.03175599519469285,0.09900251409552781]","[1,1,1]","[0.1232288755264259,0.13881148298761056]","[1,1,1]","[0.09854399582199282,0.10391361433739409]","[-1,-1,-1]","[0.11019849596253839,-0.03983833710028303]","[-1,-1,-1]","[0.15227753379037515,0.007640342840597622]","[-1,-1,-1]","[-0.13427562192161263,-0.13446347925324514]","[1,1,1]","[0.04568274900222497,-0.07612791036660482]","[1,1,1]","[-0.18285969145729233,-0.014065840659452851]","[-1,-1,-1]","[0.11104724254117436,-0.11838624185692305]","[1,1,1]","[-0.018364341638417808,-0.19855612747373227]","[-1,-1,-1]","[0.09275125805716257,0.022236603257958565]","[-1,-1,-1]","[-0.11947063301093906,-0.010214793517027311]","[1,1,1]","[-0.020286827386595343,-0.14954427049167732]","[-1,-1,-1]","[-0.04302558240053227,-0.0967900141002246]","[-1,-1,-1]","[-0.1338275772881106,0.03827242092017969]","[-1,-1,-1]","[0.02,0.02]",212.2797,0,21,21,70,1,,,,,,,
,,,,,,,66954eb024a4cac04db35d5a,682db3a2508d56241bf0eefc,2025-05-21_13h34.35.329,cuing_paradigm_dot,2024.1.5,Win32,60.24096386,682d556593cb38ad0a074487,,,,,,,,,,,212.2802,212.7731,,,213.0261,213.7478,left,0.7002,,,,,,,,,0.4,,,,,,212.7731,213.0261,213.7478,"[-0.030577635221112676,-0.03530268305420067]","[-1,-1,-1]","[0.02424743096548589,0.1444708725221765]","[-1,-1,-1]","[0.15643116147896674,0.05118255896147864]","[-1,-1,-1]","[0.06526627040455447,-0.10265871656400581]","[1,1,1]","[-0.05953939306278829,-0.1490157653163734]","[1,1,1]","[0.02677337925630935,0.055821515797760464]","[1,1,1]","[-0.07598909139836729,-0.06899564974651663]","[-1,-1,-1]","[-0.03953053857220931,-0.09563312862682591]","[1,1,1]","[0.09764956140639897,0.05420703452497598]","[-1,-1,-1]","[0.04835629889143778,-0.037181558295069084]","[1,1,1]","[-0.16072047025958494,-0.07082240710393456]","[-1,-1,-1]","[0.18614747200185555,-0.016656842250987944]","[-1,-1,-1]","[-0.09958181470332937,0.12437254389001329]","[1,1,1]","[0.11750927089798831,-0.10465485950735234]","[1,1,1]","[-0.1491970125925342,0.02430085761456925]","[-1,-1,-1]","[-0.06704362627755335,0.08864607869183132]","[-1,-1,-1]","[-0.04065431898603346,0.13208677810916317]","[-1,-1,-1]","[0.12555636137917067,0.09637371209250763]","[-1,-1,-1]","[-0.030718938017407958,-0.19355719909853294]","[1,1,1]","[0.00146623342146581,0.011888072464937708]","[1,1,1]","[0.13646568417728822,0.1428283858695763]","[1,1,1]","[0.045434835147908643,-0.16788674466485143]","[-1,-1,-1]","[0.10132008651150759,-0.024707548346157664]","[-1,-1,-1]","[-0.10476821007188088,0.053139220882668765]","[-1,-1,-1]","[0.08437659528377355,0.153999947256041]","[1,1,1]","[-0.014907935243582946,0.07710026420967929]","[-1,-1,-1]","[-0.08514220252880436,-0.005284308891814451]","[-1,-1,-1]","[-0.13098294906390207,-0.1321166088739757]","[-1,-1,-1]","[-0.19029711293140286,0.0050372573499295695]","[1,1,1]","[0.06436906488937603,0.10802264259348746]","[-1,-1,-1]","[0.14817071164264234,-0.07723235536399767]","[1,1,1]","[-0.08483650891568122,-0.11649009954981486]","[-1,-1,-1]","[0.02,0.02]",214.8457,0,22,22,47,1,,,,,,,
,,,,,,,66954eb024a4cac04db35d5a,682db3a2508d56241bf0eefc,2025-05-21_13h34.35.329,cuing_paradigm_dot,2024.1.5,Win32,60.24096386,682d556593cb38ad0a074487,,,,,,,,,,,214.8474,215.3401,,,215.5815,216.0777,right,0.4786,,,,,,,,,0.55,,,,,,215.3402,215.5813,216.078,"[-0.05022942357447669,-0.175575651175214]","[1,1,1]","[-0.021535719287010507,0.008098158619069694]","[1,1,1]","[-0.028619730840725582,0.05106025897958298]","[1,1,1]","[-0.08235181352233215,-0.03227878570969959]","[-1,-1,-1]","[-0.1958134548754156,0.015183810954001002]","[-1,-1,-1]","[0.004872002221767445,-0.05198440056352308]","[-1,-1,-1]","[-0.1353339793546239,0.1100753936550912]","[1,1,1]","[0.06868010594025031,0.08540334550535768]","[1,1,1]","[-0.02976254632023889,-0.13097513505079397]","[1,1,1]","[0.16871387838094073,0.04052048338192244]","[1,1,1]","[0.08109610043592001,0.14841048508558688]","[-1,-1,-1]","[-0.10159491727052274,0.17096859940072248]","[1,1,1]","[0.0076595801966815695,0.11018647969342305]","[-1,-1,-1]","[0.0776378636368284,-0.15713279721533244]","[-1,-1,-1]","[0.0355528543647641,-0.15112912450391397]","[1,1,1]","[-0.0620929467805564,0.18704344259263436]","[-1,-1,-1]","[0.03875391123563515,-0.011516300710373246]","[1,1,1]","[-0.11517267950697885,-0.104550799278297]","[-1,-1,-1]","[-0.09771575497688251,-0.15033559493499077]","[-1,-1,-1]","[-0.12242010649247356,-0.02995173794855006]","[1,1,1]","[0.09436693795250514,-0.024690218499121775]","[1,1,1]","[0.06284440197220903,-0.09510367157906592]","[1,1,1]","[-0.005861927626118182,-0.17193611301484182]","[-1,-1,-1]","[0.13152280422131632,0.1079155899854372]","[1,1,1]","[0.12876617683504255,-0.05104376111077568]","[1,1,1]","[-0.1356637866417795,0.04856317072318096]","[-1,-1,-1]","[-0.0028430797771696,0.15378380931118932]","[1,1,1]","[0.16301771053485972,-0.08781990472674955]","[-1,-1,-1]","[-0.17195797933584017,-0.06781229713786523]","[1,1,1]","[-0.09483984154121561,0.081440817568652]","[1,1,1]","[-0.07806773192563131,0.008908423385407494]","[-1,-1,-1]","[-0.06016275716845957,0.11601746410881936]","[-1,-1,-1]","[0.02,0.02]",217.1706,0,23,23,146,1,,,,,,,
,,,,,,,66954eb024a4cac04db35d5a,682db3a2508d56241bf0eefc,2025-05-21_13h34.35.329,cuing_paradigm_dot,2024.1.5,Win32,60.24096386,682d556593cb38ad0a074487,,,,,,,,,,,217.172,217.6705,,,217.9282,218.5082,right,0.5603,,,,,,,,,0.9,,,,,,217.6705,217.9281,218.5082,"[-0.0936723043160024,0.037292686738158366]","[1,1,1]","[0.003982079332109801,0.0760441460720653]","[1,1,1]","[-0.061247388022110466,0.08588251735098083]","[1,1,1]","[0.19139168697245798,0.021151321286550617]","[1,1,1]","[0.09605955369315149,0.16639195117493685]","[1,1,1]","[-0.09307288625816343,0.17502338098916703]","[1,1,1]","[-0.06861399270921743,-0.0019668764500550885]","[-1,-1,-1]","[-0.16358388536030208,-0.0207679700530098]","[1,1,1]","[0.06017454630153668,0.0030182923004861127]","[1,1,1]","[0.016795841371725788,-0.13175391310419965]","[1,1,1]","[-0.038642687751061514,-0.1286738481314615]","[1,1,1]","[0.08644972656562042,-0.11223057491160279]","[1,1,1]","[-0.01986972899644999,-0.03707065117397493]","[1,1,1]","[-0.11414664436377214,-0.06261740670055048]","[1,1,1]","[-0.16680888202881974,0.022874219223110177]","[1,1,1]","[-0.010495075471142826,-0.08369107769693716]","[1,1,1]","[0.10606571799043103,-0.0683868965767262]","[1,1,1]","[-0.12773048140878127,-0.1460700567427504]","[1,1,1]","[0.1352406273088707,0.07174072360568436]","[1,1,1]","[0.11845536676178776,-0.024635088978354303]","[1,1,1]","[-0.18416604941692208,0.059496476379197576]","[1,1,1]","[0.1766305833590907,-0.036123001986853434]","[-1,-1,-1]","[-0.08142943036433084,-0.14387140582163713]","[-1,-1,-1]","[-0.1712902474637677,0.10229924169760607]","[1,1,1]","[-0.10184546765938095,0.1087656834802499]","[1,1,1]","[-0.135462414125274,-0.10533333997270845]","[1,1,1]","[0.052681013628835115,-0.08918993343006909]","[1,1,1]","[0.16208881793938515,-0.08383260326416837]","[1,1,1]","[0.01687008587134604,0.17211378284117215]","[1,1,1]","[-0.028616204961993602,0.12937154887678776]","[1,1,1]","[0.07200102209546752,-0.15829370165434864]","[1,1,1]","[-0.13092547129581444,0.14159075930738096]","[1,1,1]","[0.02,0.02]",219.6096,0,24,24,195,1,,,,,,,
,,,,,,,66954eb024a4cac04db35d5a,682db3a2508d56241bf0eefc,2025-05-21_13h34.35.329,cuing_paradigm_dot,2024.1.5,Win32,60.24096386,682d556593cb38ad0a074487,,,,,,,,,,,219.6105,220.106,,,220.3565,221.0209,left,0.6486,,,,,,,,,0.55,,,,,,220.1061,220.3565,221.0209,"[0.03490718665664271,-0.004476127022706998]","[1,1,1]","[-0.14756577180041636,-0.015628231505192738]","[1,1,1]","[0.040316211867760854,0.17715701605881304]","[1,1,1]","[-0.036076142795415427,-0.17304362758769692]","[-1,-1,-1]","[-0.09820762401580173,0.06617330201773676]","[-1,-1,-1]","[0.15306413076423475,-0.01819255151951323]","[1,1,1]","[0.01087252386743991,-0.1294946224994948]","[-1,-1,-1]","[0.029629816624182525,0.1299981889525581]","[1,1,1]","[-0.1297743653973243,-0.10556456191934889]","[1,1,1]","[-0.08278446549545711,-0.0743108878273009]","[1,1,1]","[0.07888514450286191,0.020698569258462845]","[-1,-1,-1]","[-0.05118683682706641,-0.01733501913671569]","[-1,-1,-1]","[0.14599529403144335,0.06769223842637968]","[1,1,1]","[0.06354144554992275,-0.05992364937071859]","[-1,-1,-1]","[-0.08391462512058125,-0.17778133436905727]","[1,1,1]","[0.1956955870546382,0.033916141927422996]","[1,1,1]","[-0.09977029202524046,-0.013038172311655029]","[-1,-1,-1]","[0.1925981036783371,-0.028425431417141257]","[-1,-1,-1]","[0.05207519885974808,-0.1262474151932294]","[-1,-1,-1]","[0.019204344734426164,-0.19517275088948463]","[1,1,1]","[0.17462861605761984,-0.0698409665056394]","[-1,-1,-1]","[-0.10989512146277507,0.13174667244718832]","[1,1,1]","[0.09506357930929243,-0.14611356991258276]","[1,1,1]","[0.10753995185602895,-0.05770473424397009]","[-1,-1,-1]","[-0.06580162980281165,0.1375287297378091]","[-1,-1,-1]","[-0.013434465129887897,0.17758779574461553]","[1,1,1]","[-0.1974054437175499,0.005419654328090158]","[1,1,1]","[-0.1736192214559856,0.07115825904672045]","[-1,-1,-1]","[-0.03955795871139557,-0.08241829568328804]","[1,1,1]","[0.12933249115811352,0.14707299804626814]","[1,1,1]","[-0.011823262506998188,0.12864330455604714]","[1,1,1]","[0.10179191421105452,-0.017803844874253138]","[-1,-1,-1]","[0.02,0.02]",222.1208,0,25,25,124,1,,,,,,,
,,,,,,,66954eb024a4cac04db35d5a,682db3a2508d56241bf0eefc,2025-05-21_13h34.35.329,cuing_paradigm_dot,2024.1.5,Win32,60.24096386,682d556593cb38ad0a074487,,,,,,,,,,,222.122,222.6111,,,222.8493,223.4593,right,0.5966,,,,,,,,,0.45,,,,,,222.6112,222.8493,223.4594,"[0.008400837560310452,-0.1095937830034991]","[-1,-1,-1]","[0.04902781811075755,0.03326105906447183]","[-1,-1,-1]","[-0.051010353172847335,-0.056700803841452145]","[1,1,1]","[-0.0908280637126648,-0.14283545963566863]","[-1,-1,-1]","[-0.09237924434729614,0.14692778153650587]","[1,1,1]","[0.020202499635498417,0.09397650522002786]","[1,1,1]","[-0.13318857642664045,0.10254765350861504]","[1,1,1]","[0.08099006953879126,-0.05865649552298272]","[-1,-1,-1]","[0.18430601186810186,0.04188976563416297]","[-1,-1,-1]","[-0.0031355864983733874,0.16968294334109357]","[-1,-1,-1]","[0.044487231392023055,0.1594730403420259]","[-1,-1,-1]","[-0.16118928962485596,-0.0497279183551115]","[1,1,1]","[0.1108046095622619,-0.09614186888187859]","[-1,-1,-1]","[0.05413083136358634,-0.09470400349106708]","[-1,-1,-1]","[0.04674651735904825,-0.19338686917034142]","[-1,-1,-1]","[0.013407808251445592,-0.15542366217757478]","[-1,-1,-1]","[0.14449587081633403,0.06270797596293531]","[-1,-1,-1]","[-0.09843434523796699,0.044831946955387905]","[-1,-1,-1]","[-0.10341859088027351,-0.026190133615059577]","[-1,-1,-1]","[0.03468324690488711,-0.05732536929596066]","[1,1,1]","[-0.07562891455501122,-0.09914398427652434]","[1,1,1]","[-0.1915498208237633,-0.017547839858792477]","[1,1,1]","[-0.1401407990903256,0.004747759607782639]","[-1,-1,-1]","[0.10982753774898288,0.010820247166579065]","[-1,-1,-1]","[0.07773352028342616,0.0742277747141422]","[-1,-1,-1]","[-0.031188655300602504,0.10889685701423925]","[1,1,1]","[0.15475667589530648,-0.09258547557319202]","[1,1,1]","[-0.03689845301560822,-0.12424303708114358]","[1,1,1]","[-0.045242686651760185,0.023555387926154477]","[-1,-1,-1]","[0.1460101745497071,-0.04208781305678593]","[1,1,1]","[0.010788037902459448,-0.021477306376521378]","[1,1,1]","[0.12038524201644511,0.12043946448135111]","[1,1,1]","[0.02,0.02]",224.5536,0,26,26,73,1,,,,,,,
,,,,,,,66954eb024a4cac04db35d5a,682db3a2508d56241bf0eefc,2025-05-21_13h34.35.329,cuing_paradigm_dot,2024.1.5,Win32,60.24096386,682d556593cb38ad0a074487,,,,,,,,,,,224.5543,225.0543,,,225.3053,225.6704,right,0.3485,,,,,,,,,0.1,,,,,,225.0544,225.3052,225.6705,"[-0.17575582571120324,0.08356608373491757]","[-1,-1,-1]","[0.12885509086181435,-0.10610814805242702]","[-1,-1,-1]","[-0.008810877863705576,-0.10142849947776063]","[-1,-1,-1]","[0.17680485272823268,-0.02257037110572171]","[-1,-1,-1]","[-0.0072619717959919285,-0.1443800035103687]","[-1,-1,-1]","[-0.11800277228136327,0.12881357875990593]","[-1,-1,-1]","[0.08215104861652675,-0.14499099319259617]","[-1,-1,-1]","[-0.05059724486136396,-0.003391722570075178]","[-1,-1,-1]","[-0.04777321689322058,-0.1216382419504089]","[-1,-1,-1]","[-0.1859557108115746,0.04402142173013999]","[1,1,1]","[-0.11933275481198849,-0.13929128594502854]","[-1,-1,-1]","[-0.117311702367201,0.000694472049375982]","[1,1,1]","[-0.12655304892088584,-0.07817592789169135]","[-1,-1,-1]","[0.0746595287240826,0.0838147826989923]","[-1,-1,-1]","[0.10100966980251025,0.15336300779621773]","[-1,-1,-1]","[0.04287106934027043,0.16437625082103802]","[-1,-1,-1]","[0.019287891024872793,-0.17902236160166488]","[-1,-1,-1]","[-0.015562767177642649,0.1847094183287416]","[-1,-1,-1]","[0.031014800743018836,-0.07204933694226107]","[-1,-1,-1]","[-0.17611383451730966,-0.01669955142267177]","[1,1,1]","[-0.09670248481930818,0.07291436128760333]","[-1,-1,-1]","[0.04285785132349696,-0.11390850739396077]","[-1,-1,-1]","[0.14600761631902504,0.07030693932724037]","[-1,-1,-1]","[0.10321316789036221,-0.017048186203553507]","[-1,-1,-1]","[0.08933237543655884,-0.08234231169887167]","[-1,-1,-1]","[-0.058197851882833974,0.14784501644489917]","[-1,-1,-1]","[-0.0489350022305107,0.04485093405655812]","[-1,-1,-1]","[-0.17655363922682105,-0.08643383606054142]","[-1,-1,-1]","[-0.08175400295791682,-0.048236036650250544]","[-1,-1,-1]","[0.016482279535144757,-0.021791882950947365]","[-1,-1,-1]","[0.13485240164827456,0.11809364660737859]","[-1,-1,-1]","[0.05191318268186189,0.05076344803197809]","[-1,-1,-1]","[0.02,0.02]",226.7701,0,27,27,18,1,,,,,,,
,,,,,,,66954eb024a4cac04db35d5a,682db3a2508d56241bf0eefc,2025-05-21_13h34.35.329,cuing_paradigm_dot,2024.1.5,Win32,60.24096386,682d556593cb38ad0a074487,,,,,,,,,,,226.7708,227.2598,,,227.5159,228.1825,left,0.6493,,,,,,,,,0.4,,,,,,227.2599,227.5158,228.1825,"[-0.059809374327304675,0.14737812256511967]","[-1,-1,-1]","[-0.1020800698158082,-0.14200073980759195]","[1,1,1]","[0.14492300411792358,0.13773258603176494]","[-1,-1,-1]","[0.158657442189182,0.003769495807779817]","[1,1,1]","[-0.011714146676970873,-0.12858727804469322]","[-1,-1,-1]","[-0.18085247607867497,-0.04597319583237664]","[-1,-1,-1]","[-0.014090337132376528,-0.17863370629661848]","[-1,-1,-1]","[0.061177120025082014,0.03690552419250622]","[1,1,1]","[0.05313330114762251,-0.159557721438052]","[1,1,1]","[-0.12826974631011717,-0.04461491078521827]","[-1,-1,-1]","[0.006324497427840386,0.13737608885112168]","[1,1,1]","[0.15604460216805574,-0.10414817593526592]","[-1,-1,-1]","[-0.1850398324755806,0.07485050972010729]","[1,1,1]","[0.035903685694106846,-0.015152930511855234]","[1,1,1]","[-0.133287471800098,0.1282119282001462]","[1,1,1]","[0.06311783642302521,-0.05183974021613955]","[-1,-1,-1]","[0.11976065390877526,0.06939019429713043]","[-1,-1,-1]","[-0.07680442501915077,0.013579163929001492]","[-1,-1,-1]","[0.12191979214990177,0.023258095047719436]","[-1,-1,-1]","[-0.0668270810047554,-0.11304546326225538]","[1,1,1]","[0.011753622155992934,-0.048502398583923134]","[-1,-1,-1]","[-0.10390413423098217,0.07231286565358679]","[-1,-1,-1]","[0.17101580693295818,-0.04861114490528522]","[-1,-1,-1]","[0.08115199611592354,0.139420713244774]","[1,1,1]","[-0.0774307401383046,-0.03696863935723909]","[1,1,1]","[-0.1641027560047485,-0.08352324260840736]","[-1,-1,-1]","[0.08616667463117676,0.09590833280945579]","[-1,-1,-1]","[-0.14616393431815544,0.05605098580292237]","[-1,-1,-1]","[-0.014288764540042706,0.09891771974830507]","[-1,-1,-1]","[-0.1717382076666832,0.000922631218509481]","[-1,-1,-1]","[0.02550400549212185,0.06395855053054633]","[1,1,1]","[-0.04718039485197542,-0.07385229278911996]","[1,1,1]","[0.02,0.02]",229.2726,0,28,28,53,1,,,,,,,
,,,,,,,66954eb024a4cac04db35d5a,682db3a2508d56241bf0eefc,2025-05-21_13h34.35.329,cuing_paradigm_dot,2024.1.5,Win32,60.24096386,682d556593cb38ad0a074487,,,,,,,,,,,229.2736,229.7711,,,230.0288,230.6071,left,0.5604,,,,,,,,,0.45,,,,,,229.7712,230.0287,230.6071,"[-0.06624595912498173,0.02317265837593712]","[1,1,1]","[0.1566706550845379,0.013164372598077189]","[1,1,1]","[0.13468094187900895,0.059569273251405555]","[-1,-1,-1]","[0.06924929656803416,-0.0738896492983435]","[1,1,1]","[-0.06906630958891469,0.06982908775113654]","[-1,-1,-1]","[0.1234837711999487,0.1330159961173997]","[-1,-1,-1]","[0.049325831452468584,-0.11527383946421461]","[-1,-1,-1]","[-0.0418811723845711,-0.1027242486890211]","[1,1,1]","[0.15683708692068407,-0.11541063050275233]","[-1,-1,-1]","[0.05965243703101289,0.14832025608062754]","[-1,-1,-1]","[-0.12428944966563696,-0.0340111023225937]","[1,1,1]","[0.09711019523284657,-0.17470008892918057]","[1,1,1]","[-0.17153992865166706,0.08922971621940322]","[-1,-1,-1]","[0.07656308424287124,0.033446622959947415]","[1,1,1]","[-0.10998947646943995,-0.15497887561591406]","[1,1,1]","[-0.020932295362441015,-0.02252199971678095]","[1,1,1]","[-0.14395305158948937,0.04949847173450285]","[-1,-1,-1]","[0.04054760495303734,-0.024803477816989553]","[1,1,1]","[-0.15362896520805197,-0.09449128787597992]","[-1,-1,-1]","[0.0311024823866932,0.0555349892909676]","[-1,-1,-1]","[0.018246143374276706,-0.08833724021520258]","[-1,-1,-1]","[0.013067614603191266,0.0060964936323241155]","[-1,-1,-1]","[0.1127828814370403,0.002405040358508795]","[1,1,1]","[0.011087528907559057,0.14387448200210498]","[-1,-1,-1]","[-0.007429976236356427,-0.13245550443341841]","[-1,-1,-1]","[-0.02047853837747807,-0.1887733050451829]","[-1,-1,-1]","[-0.16668729724622092,-0.003113714313526393]","[1,1,1]","[-0.06560613690850212,0.1357392720723468]","[1,1,1]","[0.09021073788693254,0.1050497970581373]","[-1,-1,-1]","[0.042333366315546184,-0.18370185072690973]","[1,1,1]","[0.007214165190844764,0.10227479311806792]","[-1,-1,-1]","[0.175248138942134,-0.03654943241574869]","[-1,-1,-1]","[0.02,0.02]",231.7084,0,29,29,61,1,,,,,,,
,,,,,,,66954eb024a4cac04db35d5a,682db3a2508d56241bf0eefc,2025-05-21_13h34.35.329,cuing_paradigm_dot,2024.1.5,Win32,60.24096386,682d556593cb38ad0a074487,,,,,,,,,,,231.7093,232.2103,,,232.461,233.1388,left,0.6551,,,,,,,,,0.45,,,,,,232.2103,232.4608,233.1389,"[0.03298975838147014,0.13609494674057382]","[1,1,1]","[-0.11541518541134554,0.08262197391393755]","[1,1,1]","[0.09637560545460468,-0.16902057481228025]","[1,1,1]","[-0.1403280095488865,-0.06877845555371827]","[1,1,1]","[0.09029789173761113,0.017420004983322402]","[-1,-1,-1]","[0.14207270650504794,-0.05717166366728168]","[1,1,1]","[0.14584563921062746,-0.13475335653087633]","[-1,-1,-1]","[0.030921533483930626,-0.09425978013626904]","[-1,-1,-1]","[0.0016140217859960504,0.019284280506850084]","[1,1,1]","[-0.0008357843143085245,-0.02492663064359196]","[-1,-1,-1]","[-0.026030536241658773,0.1536509550878106]","[-1,-1,-1]","[0.037877294941639904,-0.14127051653914713]","[-1,-1,-1]","[0.06528356364167585,0.16686258831235276]","[-1,-1,-1]","[0.07932772375383433,0.1263113895792792]","[1,1,1]","[-0.19351340465069755,-0.043654476807812245]","[1,1,1]","[0.010429561836723172,0.17146380915402443]","[-1,-1,-1]","[-0.09098675163714592,0.17543078301871107]","[1,1,1]","[-0.16555435239481386,-0.002203406555758116]","[1,1,1]","[0.16321084938674185,-0.012600659898421332]","[1,1,1]","[0.07716410812636981,-0.12317787985100558]","[-1,-1,-1]","[-0.08883567621447731,-0.15372297043914193]","[-1,-1,-1]","[0.08770688090732658,-0.04366538616764293]","[1,1,1]","[0.0954062738571024,0.06917572955081888]","[-1,-1,-1]","[-0.047781156460741984,-0.09027953043106311]","[-1,-1,-1]","[0.03923312151765998,-0.0054013852464501605]","[1,1,1]","[-0.09760457596309727,-0.003111858215485856]","[-1,-1,-1]","[-0.006256626765730643,0.10919524514959916]","[-1,-1,-1]","[-0.05283349688153689,0.06616579064951895]","[-1,-1,-1]","[0.12381802641650154,0.11558849020093659]","[1,1,1]","[-0.15591191222594464,0.08066099241773945]","[-1,-1,-1]","[-0.016086044996427643,-0.12199331340265396]","[-1,-1,-1]","[-0.010551069990947657,-0.19148142334051133]","[-1,-1,-1]","[0.02,0.02]",234.2401,0,30,30,66,1,,,,,,,
,,,,,,,66954eb024a4cac04db35d5a,682db3a2508d56241bf0eefc,2025-05-21_13h34.35.329,cuing_paradigm_dot,2024.1.5,Win32,60.24096386,682d556593cb38ad0a074487,,,,,,,,,,,234.2415,234.7484,,,234.9942,235.4425,left,0.4273,,,,,,,,,0.1,,,,,,234.7485,234.9941,235.4426,"[-0.08419986163494461,0.10751304807259536]","[-1,-1,-1]","[-0.0613259326314813,0.0010092510719026397]","[-1,-1,-1]","[-0.10218438782415658,-0.03272203241268221]","[1,1,1]","[0.10444443375278054,-0.024413670338942966]","[-1,-1,-1]","[-0.07633403703781141,-0.10799126469131826]","[-1,-1,-1]","[-0.16096440368257636,-0.01018045425265986]","[-1,-1,-1]","[-0.11936169261143519,-0.14535798232857644]","[-1,-1,-1]","[0.0540050113963202,0.17972225478024775]","[-1,-1,-1]","[-0.060315037540311166,-0.06102657224420982]","[-1,-1,-1]","[0.09290431003029505,0.08038393258224337]","[-1,-1,-1]","[-0.14661786118832623,0.033976054636536565]","[-1,-1,-1]","[0.089006362352911,-0.11281560897050256]","[-1,-1,-1]","[-0.15685326747303205,-0.07116989677668525]","[1,1,1]","[-0.05420041480873861,0.052014621390807786]","[-1,-1,-1]","[0.07995300899981682,-0.16847849467180523]","[-1,-1,-1]","[0.09147276053736354,0.13007440108729593]","[1,1,1]","[0.0004122123175698773,-0.0011067775959823513]","[-1,-1,-1]","[-0.0012742227197425422,-0.16985841407248362]","[-1,-1,-1]","[-0.16611240159772633,0.07802153209443]","[-1,-1,-1]","[0.17332761289221305,0.09854821199412792]","[-1,-1,-1]","[0.14652264768338127,-0.025499314851438675]","[-1,-1,-1]","[0.04532242913414031,0.14015193149799093]","[-1,-1,-1]","[-0.06698528742579751,0.14814031364644806]","[-1,-1,-1]","[-0.012127416799678655,0.04976082846181434]","[-1,-1,-1]","[0.031062121683443536,-0.10101052865258947]","[-1,-1,-1]","[-0.10659377485309622,0.0404524388669608]","[-1,-1,-1]","[-0.06679747947374888,-0.16979804819792654]","[-1,-1,-1]","[-0.13685038224913318,0.13102667021861356]","[-1,-1,-1]","[-0.01318976886253374,0.11440990614509004]","[-1,-1,-1]","[0.17823707415415466,-0.06902916027773352]","[-1,-1,-1]","[0.051494494801175544,0.045140200160604035]","[-1,-1,-1]","[0.009189160018198432,0.19168442300559604]","[-1,-1,-1]","[0.02,0.02]",236.5384,0,31,31,29,1,,,,,,,
,,,,,,,66954eb024a4cac04db35d5a,682db3a2508d56241bf0eefc,2025-05-21_13h34.35.329,cuing_paradigm_dot,2024.1.5,Win32,60.24096386,682d556593cb38ad0a074487,,,,,,,,,,,236.5398,237.0383,,,237.2897,237.7078,left,0.4048,,,,,,,,,0.4,,,,,,237.0384,237.2895,237.708,"[-0.04606818456320607,0.15636969788850874]","[-1,-1,-1]","[-0.11806200061286673,-0.1593188507481074]","[-1,-1,-1]","[0.10510179382321087,0.12344255435740545]","[1,1,1]","[0.10704367667578578,0.07893484925231724]","[-1,-1,-1]","[-0.10112517128596378,-0.06840496567408388]","[-1,-1,-1]","[-0.0012125620274477727,0.02153474501770048]","[1,1,1]","[0.03048310576591962,-0.10414643127285929]","[-1,-1,-1]","[-0.032080157510598034,0.06039638578725814]","[-1,-1,-1]","[0.13999683221777026,-0.02339615283828887]","[1,1,1]","[-0.0712453550576242,-0.005458066887927711]","[-1,-1,-1]","[0.018862241535407293,-0.05002709369290903]","[-1,-1,-1]","[-0.04674301748561518,-0.12206785483076327]","[-1,-1,-1]","[-0.011338055495647995,-0.1439907570002449]","[-1,-1,-1]","[-0.12426645729268725,0.13084649012087873]","[1,1,1]","[0.0467667054429328,-0.01452506726536714]","[-1,-1,-1]","[-0.009200994511050373,0.18049189493695086]","[-1,-1,-1]","[-0.1575351877041624,-0.03730883567040079]","[-1,-1,-1]","[0.16827929184378065,-0.08099447345651874]","[1,1,1]","[-0.08046949123143898,0.042002798863138145]","[1,1,1]","[0.032853787407127896,0.1876273756668536]","[1,1,1]","[0.09333460229689546,-0.17457269651792495]","[1,1,1]","[0.14587515982300633,0.04518810652860426]","[-1,-1,-1]","[0.015076644915195142,0.13666693235869515]","[-1,-1,-1]","[-0.06419564853394112,-0.18582641522710364]","[1,1,1]","[-0.14540216001002407,0.01917717564965022]","[1,1,1]","[-0.10403173876263999,0.07913077365829092]","[-1,-1,-1]","[-0.0475047186980805,-0.06755872515155006]","[-1,-1,-1]","[-0.017986033190534895,-0.19414986072045562]","[-1,-1,-1]","[0.10271455454217629,0.03834801797382838]","[1,1,1]","[0.04867998186846643,-0.1808687324202812]","[1,1,1]","[-0.15240976652371588,0.06155628172578676]","[-1,-1,-1]","[0.09893903325205153,-0.09113380688552657]","[1,1,1]","[0.02,0.02]",238.8057,0,32,32,30,1,,,,,,,
,,,,,,,66954eb024a4cac04db35d5a,682db3a2508d56241bf0eefc,2025-05-21_13h34.35.329,cuing_paradigm_dot,2024.1.5,Win32,60.24096386,682d556593cb38ad0a074487,,,,,,,,,,,238.8064,239.3036,,,239.5547,240.2575,left,0.6905,,,,,,,,,0.45,,,,,,239.3036,239.5546,240.2577,"[-0.005735057456143279,0.01662542135810238]","[1,1,1]","[-0.08047332995576138,0.10840227856308363]","[-1,-1,-1]","[0.055490961373019114,-0.047123628673671765]","[1,1,1]","[-0.060250023261345036,-0.09981820051266585]","[-1,-1,-1]","[-0.1776700614408901,0.06874180206337605]","[1,1,1]","[0.07756147383948318,-0.09584076627949216]","[-1,-1,-1]","[0.17324820113586198,0.0695424076257981]","[1,1,1]","[-0.06921402386993576,0.0200615592018562]","[-1,-1,-1]","[-0.009411873625342236,-0.09074759512876834]","[1,1,1]","[-0.18221902822074293,-0.01893754403208212]","[-1,-1,-1]","[0.0791393388469918,0.16814272272361744]","[-1,-1,-1]","[0.056775001980771345,-0.14786825426712796]","[1,1,1]","[0.09906609882372963,-0.13614554375016658]","[-1,-1,-1]","[0.09558445991151095,-0.05534828943361425]","[-1,-1,-1]","[-0.10758886874514854,-0.11131457487144567]","[1,1,1]","[-0.08685218715521975,-0.04375890616580906]","[1,1,1]","[0.11220677259548666,0.08710731463263746]","[-1,-1,-1]","[0.015353023473001283,-0.1770902661971025]","[1,1,1]","[-0.12330504596762487,0.11378839768395699]","[-1,-1,-1]","[-0.14145420605886166,-0.13652090345502138]","[1,1,1]","[0.11231759040489459,-0.010038386674829017]","[1,1,1]","[0.01566225217683152,0.07889470863651682]","[1,1,1]","[-0.05133225546467886,0.17100226710244595]","[-1,-1,-1]","[-0.16882866878178676,0.0266019207342287]","[-1,-1,-1]","[0.07847284634280198,0.04556850151253067]","[1,1,1]","[0.014516380615416045,-0.020701117816495383]","[-1,-1,-1]","[0.05961498792238947,-0.003868918853567791]","[-1,-1,-1]","[-0.03579985820065689,-0.059859739745906096]","[-1,-1,-1]","[0.02347739777693216,0.14048073284438126]","[-1,-1,-1]","[0.0763095697813956,0.10698578354410754]","[1,1,1]","[-0.1488662427023819,-0.06934134002168635]","[-1,-1,-1]","[-0.007444985820946775,0.18365135185356227]","[-1,-1,-1]","[0.02,0.02]",241.3477,0,33,33,89,1,,,,,,,
,,,,,,,66954eb024a4cac04db35d5a,682db3a2508d56241bf0eefc,2025-05-21_13h34.35.329,cuing_paradigm_dot,2024.1.5,Win32,60.24096386,682d556593cb38ad0a074487,,,,,,,,,,,241.3488,241.8391,,,242.0885,242.4912,left,0.3777,,,,,,,,,0.1,,,,,,241.8391,242.0884,242.4914,"[-0.1278891365400404,0.059426812954958705]","[-1,-1,-1]","[0.17736307490108205,-0.05578148031142609]","[-1,-1,-1]","[-0.00438904882839662,-0.1728681090410796]","[-1,-1,-1]","[0.07633446826427491,-0.11878591874831917]","[-1,-1,-1]","[0.16406773823429874,0.012547319205884892]","[1,1,1]","[0.136237250096374,0.04939464645098915]","[-1,-1,-1]","[-0.05376190311975997,0.17889617014762]","[-1,-1,-1]","[-0.0639094871139638,0.11961053726301565]","[-1,-1,-1]","[0.18222994938892395,0.05683885960161383]","[-1,-1,-1]","[-0.12860808491219303,-0.11925712394212852]","[-1,-1,-1]","[-0.1278316079942862,0.008884275582116425]","[-1,-1,-1]","[-0.09917593333855272,-0.050709826341423236]","[-1,-1,-1]","[0.01120119789211919,-0.05610874166309972]","[-1,-1,-1]","[-0.03983319107978993,-0.01016619610776727]","[-1,-1,-1]","[0.13915174131392335,0.14304364413729223]","[-1,-1,-1]","[-0.06584685134130314,-0.14742743923102522]","[-1,-1,-1]","[0.07293815031855844,0.16579872214802804]","[-1,-1,-1]","[-0.0008820159498368033,0.02244660352515836]","[-1,-1,-1]","[0.10341120507423888,0.10453779214722396]","[-1,-1,-1]","[-0.17796513099717678,-0.01371288153159987]","[1,1,1]","[0.000927162097149881,-0.12682273296411428]","[-1,-1,-1]","[-0.052489136535695285,-0.08565695958524855]","[-1,-1,-1]","[-0.1084109213525318,0.15499950402679524]","[-1,-1,-1]","[-0.14648422419068646,-0.05303217129310617]","[-1,-1,-1]","[0.009941158629481923,0.13991209035803892]","[1,1,1]","[0.08630879998175515,0.0001838596465750212]","[-1,-1,-1]","[0.007722864308669033,0.06656296736198249]","[-1,-1,-1]","[-0.18669897508882152,0.05129187680003521]","[-1,-1,-1]","[-0.07321251254089385,0.013199962985495231]","[-1,-1,-1]","[0.11430307172007342,-0.03819534902918704]","[-1,-1,-1]","[-0.17182791721093338,-0.09615441799571264]","[-1,-1,-1]","[0.10892567522375847,-0.16163637797420077]","[-1,-1,-1]","[0.02,0.02]",243.5884,0,34,34,0,1,,,,,,,
,,,,,,,66954eb024a4cac04db35d5a,682db3a2508d56241bf0eefc,2025-05-21_13h34.35.329,cuing_paradigm_dot,2024.1.5,Win32,60.24096386,682d556593cb38ad0a074487,,,,,,,,,,,243.5898,244.0871,,,244.3269,245.1137,right,0.7774,,,,,,,,,0.5,,,,,,244.0873,244.3269,245.1139,"[0.13590336124028585,-0.1447211081683716]","[1,1,1]","[-0.11958655054114012,-0.1332644109604984]","[1,1,1]","[-0.06377000320319341,-0.03789230337986494]","[-1,-1,-1]","[0.005992340873415189,0.04704534661217522]","[-1,-1,-1]","[0.1702532227930274,-0.058314792892806847]","[1,1,1]","[0.01987160728908328,0.17756737468376058]","[-1,-1,-1]","[-0.12682531890605506,-0.05236299318392624]","[1,1,1]","[-0.023245739971412726,0.10263925209372808]","[-1,-1,-1]","[0.013084626864556475,0.13698827966418187]","[-1,-1,-1]","[0.053917455413202565,0.08786655010703599]","[1,1,1]","[0.05827444103818336,-0.1299241974350137]","[1,1,1]","[-0.12551290262341305,0.007025541393808267]","[1,1,1]","[0.11962094919332918,-0.07288282426963531]","[1,1,1]","[0.04032422955260516,-0.030095200517475322]","[1,1,1]","[0.13097431406427137,0.0945401602787578]","[-1,-1,-1]","[-0.016643151311734918,-0.1435637200888153]","[1,1,1]","[0.09227612421691085,0.15652963155274377]","[-1,-1,-1]","[-0.02802005057539848,-0.06264443581451987]","[1,1,1]","[-0.10634877490869159,0.09945861939160856]","[1,1,1]","[-0.15002805316238038,0.11832752249385922]","[-1,-1,-1]","[0.16852218998168386,0.012953748272055586]","[-1,-1,-1]","[-0.19070939001412265,-0.05324394736459185]","[1,1,1]","[-0.06021749744833816,0.010965954979612988]","[-1,-1,-1]","[-0.1664178586682689,-0.017294449410791942]","[-1,-1,-1]","[-0.05592256911880853,0.05228607767427595]","[-1,-1,-1]","[0.01847071015907858,-0.08826088277891057]","[-1,-1,-1]","[-0.07483011995361818,-0.15946869646344253]","[1,1,1]","[-0.1643440316837902,0.060051048832709265]","[1,1,1]","[0.08258292319392965,-0.16357502632165724]","[-1,-1,-1]","[-0.048079683677339995,-0.11679647496544138]","[1,1,1]","[-0.0858317381234118,0.13606582848770324]","[-1,-1,-1]","[0.12918227501520937,0.04839281292213832]","[-1,-1,-1]","[0.02,0.02]",246.2043,0,35,35,107,1,,,,,,,
,,,,,,,66954eb024a4cac04db35d5a,682db3a2508d56241bf0eefc,2025-05-21_13h34.35.329,cuing_paradigm_dot,2024.1.5,Win32,60.24096386,682d556593cb38ad0a074487,,,,,,,,,,,246.2057,246.7035,,,246.9614,248.3381,left,1.3642,,,,,,,,,0.45,,,,,,246.7036,246.9614,248.3382,"[-0.031913548090289866,0.19093601636313365]","[1,1,1]","[-0.13515386811925612,0.09990943479665244]","[-1,-1,-1]","[0.08513066165336736,0.13517920235603512]","[-1,-1,-1]","[-0.0759436728276628,-0.012224899074751248]","[-1,-1,-1]","[-0.01570872900404349,-0.020647595596079725]","[-1,-1,-1]","[-0.04402965087372889,0.14728448788146192]","[-1,-1,-1]","[0.07074233648155093,-0.17738473653500567]","[1,1,1]","[-0.05554691314504183,-0.08242740932922828]","[-1,-1,-1]","[-0.1291817918288724,0.01407908415992804]","[-1,-1,-1]","[-0.08152262010186209,0.18218331819544203]","[1,1,1]","[0.09899949047367121,-0.08806039945844936]","[-1,-1,-1]","[-0.011397229832068007,-0.08944273791393138]","[-1,-1,-1]","[-0.09130762747765099,-0.1440049309545688]","[1,1,1]","[0.08958710558143469,-0.13221713307848412]","[1,1,1]","[-0.15324208376396317,-0.019170282249233613]","[1,1,1]","[-0.025998001383550143,0.07558352531407579]","[1,1,1]","[-0.16204133674600343,-0.07653352251489724]","[1,1,1]","[-0.11631375814834456,-0.065106352757912]","[-1,-1,-1]","[0.02117357764732122,0.004294203272464209]","[-1,-1,-1]","[0.04834967177802345,-0.03775608893386766]","[-1,-1,-1]","[0.029776875514178482,0.13804899978250307]","[-1,-1,-1]","[0.12338215301677485,-0.007647806990161226]","[1,1,1]","[-0.11746249857495342,0.05275147898134416]","[1,1,1]","[0.0156774542064568,0.09521296141513536]","[1,1,1]","[0.03440120231220177,-0.13510401723889276]","[-1,-1,-1]","[0.19050201824354385,0.0419782733939285]","[-1,-1,-1]","[-0.05006182988163925,-0.13007417096303064]","[1,1,1]","[-0.09246370846286378,0.08939651915683157]","[1,1,1]","[0.07740907426499853,0.18184164260890315]","[-1,-1,-1]","[0.0875627952623361,0.03881348192547872]","[1,1,1]","[-0.009319077526032926,-0.1781755805726308]","[-1,-1,-1]","[0.14543160825566762,-0.05815515091398386]","[-1,-1,-1]","[0.02,0.02]",249.4319,0,36,36,85,1,,,,,,,
,,,,,,,66954eb024a4cac04db35d5a,682db3a2508d56241bf0eefc,2025-05-21_13h34.35.329,cuing_paradigm_dot,2024.1.5,Win32,60.24096386,682d556593cb38ad0a074487,,,,,,,,,,,249.4327,249.9267,,,250.1718,251.131,right,0.9347,,,,,,,,,0.6,,,,,,249.9267,250.1717,251.131,"[0.0468737748909027,0.07541231621712458]","[1,1,1]","[0.15107708569864445,0.05553048492332262]","[-1,-1,-1]","[-0.1775169930961358,0.022523975992948184]","[1,1,1]","[-0.0895422295019002,0.1368976456908343]","[-1,-1,-1]","[-0.12132798179367577,0.004136524691209248]","[1,1,1]","[0.15983575816095166,-0.10014126025556906]","[1,1,1]","[-0.028037991727335416,0.1319902579205477]","[1,1,1]","[-0.11515978892571346,-0.11115137704860019]","[-1,-1,-1]","[-0.0016326655285747054,0.0832306306879525]","[-1,-1,-1]","[0.15670468026025328,-0.05183585471498113]","[1,1,1]","[0.06506286701313543,-0.17814660873969146]","[-1,-1,-1]","[0.08937650213786372,0.1605857200513796]","[-1,-1,-1]","[-0.02743943229039071,-0.1908004683427431]","[-1,-1,-1]","[-0.027168086062509127,0.1836687654272934]","[-1,-1,-1]","[-0.07787187965739024,0.053818823565183374]","[1,1,1]","[-0.1222956874019417,-0.05726182569234493]","[1,1,1]","[-0.04150232248443261,-0.06974736193708979]","[-1,-1,-1]","[0.050041845519783516,-0.019282930522330124]","[1,1,1]","[0.10771010135930272,-0.11466128991251498]","[1,1,1]","[-0.07412995165918582,0.007605028519063371]","[1,1,1]","[-0.08928724563722751,-0.1749699239678979]","[-1,-1,-1]","[-0.011784290290436069,0.005245010671413602]","[1,1,1]","[-0.1920729036839364,-0.04235548514486447]","[-1,-1,-1]","[0.11711795980288296,0.011939486364990074]","[1,1,1]","[0.025339820234089358,0.1673491853771117]","[1,1,1]","[-0.009677984644717313,-0.09851184809811277]","[-1,-1,-1]","[0.07349012892179715,-0.08641603052377637]","[-1,-1,-1]","[0.11047686299051174,-0.03165607978085299]","[1,1,1]","[-0.10952090208995992,0.09904675135830393]","[1,1,1]","[-0.14469520071663208,0.06866070732140411]","[1,1,1]","[0.11170156632891887,0.0811492120120326]","[1,1,1]","[0.17299654267592646,0.09279959688071018]","[1,1,1]","[0.02,0.02]",252.2297,0,37,37,159,1,,,,,,,
,,,,,,,66954eb024a4cac04db35d5a,682db3a2508d56241bf0eefc,2025-05-21_13h34.35.329,cuing_paradigm_dot,2024.1.5,Win32,60.24096386,682d556593cb38ad0a074487,,,,,,,,,,,252.2304,252.7227,,,252.9656,253.6317,left,0.6534,,,,,,,,,0.5,,,,,,252.7227,252.9654,253.6318,"[0.1538635181846197,-0.11499011684449759]","[-1,-1,-1]","[0.013183098388033953,0.057365030211944765]","[1,1,1]","[-0.008731797841100508,-0.032320572528033976]","[1,1,1]","[-0.08512077871252789,-0.05108211742686764]","[-1,-1,-1]","[-0.0019014181446278405,0.1629036628851633]","[-1,-1,-1]","[-0.16864477747461054,-0.08934685573101304]","[1,1,1]","[-0.12804170451965627,0.09398692380205464]","[1,1,1]","[0.17863024607180503,0.07290732353505323]","[-1,-1,-1]","[0.07990316775537955,0.13513206997989247]","[-1,-1,-1]","[0.06698764530784193,-0.04826769368416789]","[-1,-1,-1]","[-0.09826343641479947,0.15667005032316933]","[-1,-1,-1]","[-0.05193010478808447,0.14027380475739806]","[-1,-1,-1]","[-0.03385059962198334,0.015096794133498783]","[-1,-1,-1]","[0.007270671441903599,0.1012938490963277]","[-1,-1,-1]","[0.06997240655090656,-0.17722340132345393]","[-1,-1,-1]","[-0.0696774615863295,-0.16003516660749023]","[1,1,1]","[-0.008375954959738141,-0.1813655978508338]","[-1,-1,-1]","[0.07147170456084231,0.05975902167569707]","[1,1,1]","[-0.02192359127701029,-0.09271098280773116]","[1,1,1]","[0.03264549304647425,-0.15975883772210825]","[1,1,1]","[-0.06797936118545554,0.04191070474086642]","[1,1,1]","[-0.14576825022638698,0.013556808640906765]","[-1,-1,-1]","[-0.15104281222839602,-0.04512618522370801]","[-1,-1,-1]","[0.04952996634575239,-0.09442474270643603]","[1,1,1]","[-0.1547019138135434,0.06045221424643633]","[-1,-1,-1]","[0.049498184976527505,0.10344253190331154]","[1,1,1]","[-0.10870729854731688,0.03358763314569049]","[1,1,1]","[0.13440146936788622,-0.046006934908832266]","[1,1,1]","[-0.05194712036212991,0.18641055896256617]","[1,1,1]","[0.13232391131012383,0.07005705445052898]","[1,1,1]","[0.1658933850509083,-0.0019656063957158216]","[-1,-1,-1]","[0.07523159060324484,0.17720558935441252]","[1,1,1]","[0.02,0.02]",254.7249,0,38,38,93,1,,,,,,,
,,,,,,,66954eb024a4cac04db35d5a,682db3a2508d56241bf0eefc,2025-05-21_13h34.35.329,cuing_paradigm_dot,2024.1.5,Win32,60.24096386,682d556593cb38ad0a074487,,,,,,,,,,,254.7265,255.2256,,,255.4781,255.9228,left,0.4233,,,,,,,,,0.1,,,,,,255.2257,255.478,255.9228,"[-0.13253150567165878,0.13007155394213354]","[-1,-1,-1]","[0.044692000355783405,0.12512825912331876]","[1,1,1]","[-0.03255607986838217,-0.16056086524495206]","[-1,-1,-1]","[0.02300222012486912,-0.13235082246548038]","[-1,-1,-1]","[-0.09868577912250277,0.036660665548320835]","[-1,-1,-1]","[-0.09950977958144167,0.10389180790399574]","[-1,-1,-1]","[0.13085360096676685,-0.0696118606312099]","[-1,-1,-1]","[0.08325523081693995,-0.15040795024753437]","[-1,-1,-1]","[-0.09586907439967858,-0.0709566040946774]","[-1,-1,-1]","[0.17744171535452194,-0.005569848504567781]","[-1,-1,-1]","[0.0064837663535349255,0.16254686052181752]","[-1,-1,-1]","[0.10198904224483273,0.10597446712891906]","[-1,-1,-1]","[-0.08294942469989512,0.1436711006660684]","[-1,-1,-1]","[0.15647773130187156,0.0624961458207887]","[1,1,1]","[0.09575138044234205,0.1651150575990868]","[-1,-1,-1]","[0.1382248075149422,-0.11506028544364916]","[-1,-1,-1]","[0.02818743372407239,0.06648188114368957]","[-1,-1,-1]","[0.08521006811966282,-0.07670424635496632]","[-1,-1,-1]","[-0.14806020494151045,0.014998969508714028]","[-1,-1,-1]","[-0.06631896443442024,-0.0145765172485167]","[-1,-1,-1]","[-0.11210483302960199,-0.1651897334344244]","[-1,-1,-1]","[-0.04393323133342678,-0.11781505198892576]","[-1,-1,-1]","[0.0877664004757872,0.05111928151358909]","[-1,-1,-1]","[0.18893263598924873,-0.0476030529657926]","[-1,-1,-1]","[0.03809003833659709,-0.034519003618334106]","[-1,-1,-1]","[-0.16224876527184728,0.06756522127282144]","[1,1,1]","[-0.03691876155672274,-0.044746439831190435]","[-1,-1,-1]","[0.024664278248056372,-0.18315059030898062]","[-1,-1,-1]","[0.1199033769736479,0.020801001014623337]","[-1,-1,-1]","[0.128405963046202,0.14185465247275345]","[-1,-1,-1]","[0.0010152778712677983,0.01100619864732135]","[-1,-1,-1]","[-0.0009218163640851124,-0.07936836182536157]","[-1,-1,-1]","[0.02,0.02]",257.0101,0,39,39,6,1,,,,,,,
,,,,,,,66954eb024a4cac04db35d5a,682db3a2508d56241bf0eefc,2025-05-21_13h34.35.329,cuing_paradigm_dot,2024.1.5,Win32,60.24096386,682d556593cb38ad0a074487,,,,,,,,,,,257.0113,257.5113,,,257.7555,258.4732,left,0.6995,,,,,,,,,0.45,,,,,,257.5114,257.7553,258.4734,"[-0.1490790522889596,0.1252927583806216]","[1,1,1]","[0.022031400349109876,-0.1556744764087096]","[1,1,1]","[0.012277113440643707,-0.024873175490331408]","[1,1,1]","[-0.06257940264320819,0.016010411716402814]","[1,1,1]","[-0.04731265006341158,0.13904419129180517]","[-1,-1,-1]","[0.1864427176468925,-0.0014627858723358375]","[-1,-1,-1]","[-0.18279712940010037,-0.021208556447286187]","[1,1,1]","[-0.0713317386153182,-0.04350714763185715]","[1,1,1]","[0.094287785320315,0.13855601850926233]","[1,1,1]","[0.03054690732796704,0.06341762032002024]","[-1,-1,-1]","[-0.13931319696519928,-0.12705660410544098]","[-1,-1,-1]","[0.055980425064916,-0.12497386377911421]","[1,1,1]","[-0.031965665033379706,0.19434980491925696]","[-1,-1,-1]","[0.14680502870386916,0.07402878289219653]","[-1,-1,-1]","[-0.01411161617711798,-0.07174296999322126]","[-1,-1,-1]","[-0.10210993446764934,-0.08031926110101248]","[-1,-1,-1]","[-0.15356541336819168,0.01790269573966041]","[1,1,1]","[-0.04198806904910028,-0.14430225140390696]","[-1,-1,-1]","[0.05794730028789771,0.012103409081908953]","[-1,-1,-1]","[0.05562600679004449,-0.07990814106839847]","[-1,-1,-1]","[-0.01838873088241533,0.08106470772127164]","[-1,-1,-1]","[-0.17255451965481838,0.08110213153316301]","[-1,-1,-1]","[-0.018952534807293257,0.027664492378404355]","[-1,-1,-1]","[0.00198149004152732,-0.11967295533362064]","[1,1,1]","[-0.10619725687431147,-0.16334125497815322]","[1,1,1]","[0.019114924460357764,0.17190333856836001]","[1,1,1]","[-0.11545495801589645,-0.024891477016411954]","[-1,-1,-1]","[0.10694931210708292,-0.002703114186432512]","[-1,-1,-1]","[-0.15430509471214654,-0.06783591385727422]","[-1,-1,-1]","[0.14886758866410205,0.13082991760077253]","[1,1,1]","[0.09712754754997847,-0.059781187295595936]","[-1,-1,-1]","[0.04392351582029387,0.10969107805940638]","[1,1,1]","[0.02,0.02]",259.5666,0,40,40,75,1,,,,,,,
,,,,,,,66954eb024a4cac04db35d5a,682db3a2508d56241bf0eefc,2025-05-21_13h34.35.329,cuing_paradigm_dot,2024.1.5,Win32,60.24096386,682d556593cb38ad0a074487,,,,,,,,,,,259.5672,260.0563,,,260.3112,260.9117,left,0.5831,,,,,,,,,0.5,,,,,,260.0564,260.3111,260.9118,"[0.054584101088287346,0.09680185414022556]","[1,1,1]","[-0.11822018255659159,-0.039640076273311814]","[-1,-1,-1]","[-0.0178712778671651,-0.009286730092885711]","[-1,-1,-1]","[-0.061529823841975397,0.12834171962746932]","[-1,-1,-1]","[-0.09257989029418616,-0.16678779359522553]","[1,1,1]","[0.08509674170937966,-0.08075433308978172]","[-1,-1,-1]","[0.13279705328002178,0.0206040976409734]","[1,1,1]","[-0.09947228224234429,0.003091041055467837]","[-1,-1,-1]","[-0.13393834687406722,-0.12969937240088508]","[1,1,1]","[0.1711182491898727,0.07545547103699515]","[1,1,1]","[0.056634296614837834,-0.11111813752851228]","[1,1,1]","[-0.16808367358830473,0.008702577080507336]","[-1,-1,-1]","[-0.02926136770949897,0.07599620215147512]","[1,1,1]","[0.1236218602935211,-0.1470515228190773]","[-1,-1,-1]","[0.1984393872116286,0.000058729252003848344]","[1,1,1]","[0.030869660202754494,-0.07445559605177403]","[1,1,1]","[0.15905259069492916,-0.08442659330492598]","[1,1,1]","[-0.1526613234910837,0.04834360451152493]","[-1,-1,-1]","[-0.0292151491753121,0.18359026458216873]","[1,1,1]","[-0.04485148542456822,-0.1604087570408484]","[1,1,1]","[0.11354554479876353,0.12129642313055726]","[-1,-1,-1]","[0.017065394550631278,-0.1717785395552221]","[-1,-1,-1]","[0.01601515623032179,0.18474801254359208]","[-1,-1,-1]","[0.09068451436922768,-0.023745664739562116]","[-1,-1,-1]","[-0.08407099782645014,-0.11669041086032797]","[-1,-1,-1]","[-0.19893667473872734,-0.016941678611636996]","[-1,-1,-1]","[-0.0103096831832026,-0.08804809934740175]","[1,1,1]","[-0.13669259976799522,-0.08557361050452815]","[-1,-1,-1]","[-0.10973816628334168,0.06345121492243443]","[-1,-1,-1]","[0.11420892729376657,0.07345361096383879]","[1,1,1]","[0.023699664218388535,0.04973426584249147]","[1,1,1]","[0.07788492144292976,0.017763429148330127]","[1,1,1]","[0.02,0.02]",262.004,0,41,41,95,1,,,,,,,
,,,,,,,66954eb024a4cac04db35d5a,682db3a2508d56241bf0eefc,2025-05-21_13h34.35.329,cuing_paradigm_dot,2024.1.5,Win32,60.24096386,682d556593cb38ad0a074487,,,,,,,,,,,262.0049,262.4961,,,262.7414,263.1379,left,0.3688,,,,,,,,,0.45,,,,,,262.4962,262.7413,263.1381,"[0.04802919221984282,0.16205441653150857]","[1,1,1]","[0.09913696631670318,-0.009664958840065713]","[1,1,1]","[-0.03910683673186063,0.02047977337508225]","[1,1,1]","[-0.06974370335397656,-0.0987213133495647]","[-1,-1,-1]","[0.1823828210985089,-0.04313422121382188]","[1,1,1]","[0.07521210269840949,-0.07717549685784011]","[-1,-1,-1]","[0.0973135064287793,0.10084631067695218]","[-1,-1,-1]","[0.15164009145620255,0.0674277046183087]","[1,1,1]","[0.1503984343608764,-0.005052981577662254]","[1,1,1]","[0.10899842352237522,0.16583363266299547]","[-1,-1,-1]","[-0.17960879512309583,0.06564456638967224]","[1,1,1]","[0.03219629964878769,0.025484724675350973]","[-1,-1,-1]","[-0.10014811972905967,0.17073983609310783]","[-1,-1,-1]","[-0.16677099236389586,0.022228298430494255]","[-1,-1,-1]","[-0.0053257559616074895,-0.1064486774055967]","[-1,-1,-1]","[-0.08611299486231816,-0.14285809584230438]","[-1,-1,-1]","[-0.16439789710700622,-0.08418973974043006]","[1,1,1]","[-0.009731105281833387,0.04935832701799797]","[-1,-1,-1]","[-0.02655461416691307,-0.029147073997882484]","[-1,-1,-1]","[0.1976219234667134,0.026678303222318605]","[1,1,1]","[0.14052420964794088,-0.05681008981441861]","[-1,-1,-1]","[-0.12984788675636427,-0.0014639011081412374]","[1,1,1]","[-0.11015038349173041,-0.042346667683025294]","[-1,-1,-1]","[-0.09972229966826027,0.1257973496179738]","[-1,-1,-1]","[-0.037519445948869246,0.15382854900241708]","[1,1,1]","[0.13030124874109225,-0.09646673755919144]","[1,1,1]","[-0.03910670528753284,-0.19003707193465555]","[1,1,1]","[0.0458497818316438,-0.12401006368761998]","[-1,-1,-1]","[-0.14777910480292455,0.09471421522077723]","[-1,-1,-1]","[0.04661357877145554,0.07286441504461433]","[-1,-1,-1]","[0.10312756657891813,-0.13001742164798377]","[-1,-1,-1]","[0.018710937850427836,-0.163698453697583]","[1,1,1]","[0.02,0.02]",264.23,0,42,42,80,1,,,,,,,
,,,,,,,66954eb024a4cac04db35d5a,682db3a2508d56241bf0eefc,2025-05-21_13h34.35.329,cuing_paradigm_dot,2024.1.5,Win32,60.24096386,682d556593cb38ad0a074487,,,,,,,,,,,264.2306,264.7204,,,264.96,265.4892,left,0.5018,,,,,,,,,0.55,,,,,,264.7207,264.959,265.4892,"[0.03199722886177614,-0.09212518568712266]","[-1,-1,-1]","[-0.002073718367985486,0.08825196751117036]","[1,1,1]","[0.09092412688395819,0.03080822187898986]","[1,1,1]","[0.07040528803438757,0.11154299934271798]","[-1,-1,-1]","[-0.03921719100362919,0.01213117515703039]","[-1,-1,-1]","[0.16644719212948075,-0.003906763246450746]","[1,1,1]","[-0.12485075421360149,-0.10194599259487296]","[-1,-1,-1]","[-0.1304948529847369,0.011790096411663677]","[-1,-1,-1]","[-0.04284607196492934,0.08281661532507831]","[-1,-1,-1]","[0.024148083171480657,-0.1960940345714398]","[-1,-1,-1]","[-0.057862821537696035,0.17346008114968864]","[1,1,1]","[0.013941358423256734,0.15770988021542443]","[1,1,1]","[-0.022660172256460397,-0.08654405773940213]","[-1,-1,-1]","[0.18097843131615862,0.041188253814110926]","[1,1,1]","[0.08942586109843659,-0.15423462026548607]","[1,1,1]","[0.08190794210249343,-0.10154648913209322]","[-1,-1,-1]","[0.09987543961886934,0.16038479444533135]","[1,1,1]","[0.06385607312906134,-0.007389857238922804]","[1,1,1]","[-0.07189009701637415,-0.13034693810546003]","[1,1,1]","[0.006725988450383584,-0.04221070205028231]","[-1,-1,-1]","[-0.1794206064958493,0.0058596525106392894]","[1,1,1]","[0.004929990085806117,-0.12979584308300593]","[1,1,1]","[-0.12736792747594802,0.06286575815669815]","[1,1,1]","[0.12837566793940342,-0.09416047231514116]","[-1,-1,-1]","[-0.036627831175991665,-0.1721154221232963]","[1,1,1]","[0.18429120109189578,-0.06388713643261455]","[1,1,1]","[-0.12077959001365549,0.12334102988090316]","[-1,-1,-1]","[-0.09050396523632515,0.03270213918903511]","[1,1,1]","[0.17447824463942055,0.09013317712732626]","[1,1,1]","[-0.1053271691080897,-0.049757703668206275]","[-1,-1,-1]","[-0.16873311213512587,0.06233281764701545]","[1,1,1]","[0.11619316840308734,-0.0018624875544028235]","[-1,-1,-1]","[0.02,0.02]",266.5884,0,43,43,133,1,,,,,,,
,,,,,,,66954eb024a4cac04db35d5a,682db3a2508d56241bf0eefc,2025-05-21_13h34.35.329,cuing_paradigm_dot,2024.1.5,Win32,60.24096386,682d556593cb38ad0a074487,,,,,,,,,,,266.5898,267.0878,,,267.3273,267.7211,right,0.3708,,,,,,,,,0.9,,,,,,267.0879,267.3273,267.7212,"[-0.06562198317843924,0.018176746827870443]","[1,1,1]","[0.13176286595764072,0.12801384526685156]","[1,1,1]","[-0.1783704042165447,0.08614042889089121]","[1,1,1]","[-0.060741529781307015,-0.05726481579770268]","[1,1,1]","[0.05358455437278176,-0.0430496000536216]","[1,1,1]","[0.17934349446079925,0.06545681850497531]","[1,1,1]","[-0.12747081710794977,-0.07019746232658196]","[1,1,1]","[0.10595396136111374,0.02068962131305248]","[1,1,1]","[0.05139141673372303,-0.09567950230612295]","[1,1,1]","[-0.15936135678726884,-0.03204019394968495]","[1,1,1]","[0.05595563157801319,0.14818630070759486]","[1,1,1]","[-0.04317720332115766,0.08254140121439597]","[1,1,1]","[-0.1420071844281844,0.06025050302204119]","[1,1,1]","[0.05575894242164896,0.09620497934917754]","[1,1,1]","[0.12933475611986112,-0.040231022801021254]","[1,1,1]","[0.09920144066524288,-0.16678643636979062]","[1,1,1]","[-0.09901708164205321,0.11817993482011524]","[1,1,1]","[-0.07465205170314876,0.18116112575979734]","[-1,-1,-1]","[-0.134157907754263,-0.11012848032055543]","[1,1,1]","[0.02627820337709849,0.1981323711186155]","[1,1,1]","[-0.10584834594040403,0.016898287091913183]","[1,1,1]","[0.1410820360483547,-0.13208225294569095]","[1,1,1]","[-0.0643592380934002,-0.153807601703992]","[1,1,1]","[-0.02244417804579302,-0.19765719950459465]","[1,1,1]","[-0.027970252715185207,-0.014544013068180787]","[-1,-1,-1]","[-0.09128326650607813,0.059055644592629866]","[1,1,1]","[-0.07448777186407834,-0.10356113968164148]","[1,1,1]","[0.06437005174420986,0.015587899195974864]","[1,1,1]","[0.17070529313974503,-0.03070489324866382]","[-1,-1,-1]","[-0.004465528219828511,0.019491085494470227]","[1,1,1]","[-0.11446043677755562,-0.15938792489297748]","[1,1,1]","[0.01970862227875126,-0.19015117166161283]","[1,1,1]","[0.02,0.02]",268.8207,0,44,44,189,1,,,,,,,
