right,left,explain.started,explain.stopped,key_resp_3.keys,key_resp_3.rt,key_resp_3.duration,participant,session,date,expName,psychopyVersion,OS,frameRate,study_id,explain_2.started,explain_2.stopped,key_resp_4.keys,key_resp_4.rt,key_resp_4.duration,explain_3.started,explain_3.stopped,key_resp_5.keys,key_resp_5.rt,key_resp_5.duration,fixation.started,fixation.stopped,practice.started,practice.stopped,response.started,response.stopped,key_resp.keys,feedback.started,feedback.stopped,trials_2.thisRepN,trials_2.thisTrialN,trials_2.thisN,trials_2.thisIndex,trials_2.ran,white_ratio,key_resp.rt,key_resp.duration,explain_4.started,explain_4.stopped,key_resp_6.keys,key_resp_6.rt,key_resp_6.duration,dotDisplay.started,dotDisplay.stopped,ITI.started,polygon_1.pos,polygon_1.color,polygon_2.pos,polygon_2.color,polygon_3.pos,polygon_3.color,polygon_4.pos,polygon_4.color,polygon_5.pos,polygon_5.color,polygon_6.pos,polygon_6.color,polygon_7.pos,polygon_7.color,polygon_8.pos,polygon_8.color,polygon_9.pos,polygon_9.color,polygon_10.pos,polygon_10.color,polygon_11.pos,polygon_11.color,polygon_12.pos,polygon_12.color,polygon_13.pos,polygon_13.color,polygon_14.pos,polygon_14.color,polygon_15.pos,polygon_15.color,polygon_16.pos,polygon_16.color,polygon_17.pos,polygon_17.color,polygon_18.pos,polygon_18.color,polygon_19.pos,polygon_19.color,polygon_20.pos,polygon_20.color,polygon_21.pos,polygon_21.color,polygon_22.pos,polygon_22.color,polygon_23.pos,polygon_23.color,polygon_24.pos,polygon_24.color,polygon_25.pos,polygon_25.color,polygon_26.pos,polygon_26.color,polygon_27.pos,polygon_27.color,polygon_28.pos,polygon_28.color,polygon_29.pos,polygon_29.color,polygon_30.pos,polygon_30.color,polygon_31.pos,polygon_31.color,polygon_32.pos,polygon_32.color,dot_size,ITI.stopped,trials.thisRepN,trials.thisTrialN,trials.thisN,trials.thisIndex,trials.ran,break_2.started,break_2.stopped,trials_3.thisRepN,trials_3.thisTrialN,trials_3.thisN,trials_3.thisIndex,trials_3.ran
subject chose white,subject chose black,0.0002,70.8726,space,55.8239,,66ae2a21915bde402f570746,682db4ddce8e618f33fa5b8b,2025-05-21_13h14.36.943,cuing_paradigm_dot,2024.1.5,Win32,60.60606061,682d556593cb38ad0a074487,,,,,,,,,,,,,,,,,,,,,,,,,,,,,,,,,,,,,,,,,,,,,,,,,,,,,,,,,,,,,,,,,,,,,,,,,,,,,,,,,,,,,,,,,,,,,,,,,,,,,,,,,,,,,,,,,
,,,,,,,66ae2a21915bde402f570746,682db4ddce8e618f33fa5b8b,2025-05-21_13h14.36.943,cuing_paradigm_dot,2024.1.5,Win32,60.60606061,682d556593cb38ad0a074487,70.873,114.4267,space,13.5425,,,,,,,,,,,,,,,,,,,,,,,,,,,,,,,,,,,,,,,,,,,,,,,,,,,,,,,,,,,,,,,,,,,,,,,,,,,,,,,,,,,,,,,,,,,,,,,,,,,,,,,,,,,,,
,,,,,,,66ae2a21915bde402f570746,682db4ddce8e618f33fa5b8b,2025-05-21_13h14.36.943,cuing_paradigm_dot,2024.1.5,Win32,60.60606061,682d556593cb38ad0a074487,,,,,,114.4269,135.4778,space,18.0261,,,,,,,,,,,,,,,,,,,,,,,,,,,,,,,,,,,,,,,,,,,,,,,,,,,,,,,,,,,,,,,,,,,,,,,,,,,,,,,,,,,,,,,,,,,,,,,,,,,,,,,,
,,,,,,,66ae2a21915bde402f570746,682db4ddce8e618f33fa5b8b,2025-05-21_13h14.36.943,cuing_paradigm_dot,2024.1.5,Win32,60.60606061,682d556593cb38ad0a074487,,,,,,,,,,,135.5266,135.9798,135.9805,136.236,136.2365,137.7279,,137.728,138.8304,0,0,0,0,1,0.8,,,,,,,,,,,,,,,,,,,,,,,,,,,,,,,,,,,,,,,,,,,,,,,,,,,,,,,,,,,,,,,,,,,,,,,,,,,,,,,,,,,,,,,,
,,,,,,,66ae2a21915bde402f570746,682db4ddce8e618f33fa5b8b,2025-05-21_13h14.36.943,cuing_paradigm_dot,2024.1.5,Win32,60.60606061,682d556593cb38ad0a074487,,,,,,,,,,,138.8319,139.3286,139.3292,139.5681,139.5682,139.881,left,139.8811,140.9794,0,1,1,1,1,0.2,0.2855,,,,,,,,,,,,,,,,,,,,,,,,,,,,,,,,,,,,,,,,,,,,,,,,,,,,,,,,,,,,,,,,,,,,,,,,,,,,,,,,,,,,,,,
,,,,,,,66ae2a21915bde402f570746,682db4ddce8e618f33fa5b8b,2025-05-21_13h14.36.943,cuing_paradigm_dot,2024.1.5,Win32,60.60606061,682d556593cb38ad0a074487,,,,,,,,,,,,,,,,,,,,,,,,,,,,140.9809,163.0302,space,19.0259,,,,,,,,,,,,,,,,,,,,,,,,,,,,,,,,,,,,,,,,,,,,,,,,,,,,,,,,,,,,,,,,,,,,,,,,,,,,,,,,,,
,,,,,,,66ae2a21915bde402f570746,682db4ddce8e618f33fa5b8b,2025-05-21_13h14.36.943,cuing_paradigm_dot,2024.1.5,Win32,60.60606061,682d556593cb38ad0a074487,,,,,,,,,,,163.045,163.5466,,,163.7839,164.2531,right,,,,,,,,0.45,0.4492,,,,,,,163.5473,163.7839,164.2537,"[0.11183165732623031,-0.0671355385346692]","[1,1,1]","[0.11962438843524673,0.1088943561626538]","[1,1,1]","[0.15922445538840138,0.03537574812294862]","[-1,-1,-1]","[-0.07915941957103013,-0.007327890228511535]","[-1,-1,-1]","[-0.15926890306470834,-0.08198206630718886]","[1,1,1]","[-0.11121270456450899,-0.09500308317115519]","[-1,-1,-1]","[-0.10649387132940726,0.1562211806537163]","[-1,-1,-1]","[0.17399187698086832,0.08806070045562159]","[-1,-1,-1]","[-0.05988512422782439,-0.14211658262863242]","[-1,-1,-1]","[-0.11248559040006925,0.03484804695804102]","[1,1,1]","[0.015684363181783498,0.009617804456038177]","[-1,-1,-1]","[0.09863264939690829,-0.0004470457950133794]","[-1,-1,-1]","[-0.050906523824542874,0.153784286215513]","[1,1,1]","[0.05936633132160091,0.10058863606968571]","[-1,-1,-1]","[0.03524409325260529,-0.03665464011012069]","[1,1,1]","[0.10114826597425584,0.1538956821872904]","[1,1,1]","[-0.015962048113427187,-0.14782615947058997]","[-1,-1,-1]","[-0.03694278688317617,0.043304696189965255]","[1,1,1]","[0.10830834393272007,-0.12119280963503375]","[1,1,1]","[-0.16301867443531082,0.04575639929885607]","[-1,-1,-1]","[-0.02104419495781929,-0.038593540313660614]","[1,1,1]","[0.14205387148609686,-0.09394530435188207]","[1,1,1]","[0.01508656064944098,0.07191437565929533]","[-1,-1,-1]","[-0.011111455515392157,0.10675978714567583]","[1,1,1]","[-0.010168654426493815,0.17705155573963494]","[-1,-1,-1]","[-0.025924852579707745,-0.0912754867082716]","[-1,-1,-1]","[0.04441961032817973,-0.11914489771594551]","[1,1,1]","[-0.03888071133187691,-0.1930529815271679]","[-1,-1,-1]","[0.14727869712505978,-0.007104886034828997]","[-1,-1,-1]","[-0.08170646198469365,0.06496566705992438]","[-1,-1,-1]","[-0.14139858547302617,0.08241376339768272]","[-1,-1,-1]","[-0.15335192132646255,0.1230675171022645]","[1,1,1]","[0.02,0.02]",165.3532,0,0,0,78,1,,,,,,,
,,,,,,,66ae2a21915bde402f570746,682db4ddce8e618f33fa5b8b,2025-05-21_13h14.36.943,cuing_paradigm_dot,2024.1.5,Win32,60.60606061,682d556593cb38ad0a074487,,,,,,,,,,,165.354,165.8527,,,166.1035,166.1686,left,,,,,,,,0.5,0.0479,,,,,,,165.8528,166.1034,166.1686,"[-0.1512420517775908,0.07678385739684794]","[1,1,1]","[-0.07009079873526679,0.1739812645476375]","[-1,-1,-1]","[-0.058908755568554745,0.12004714984751684]","[-1,-1,-1]","[0.15544270724013906,-0.0442373757940632]","[1,1,1]","[-0.08347672430250762,0.08216606387897095]","[-1,-1,-1]","[0.09688504766690612,-0.13930305986187866]","[-1,-1,-1]","[0.07683288496753156,0.018674721765407607]","[1,1,1]","[-0.15092813268552427,0.12141148587342333]","[-1,-1,-1]","[0.05922845671313854,-0.08652935575640129]","[1,1,1]","[0.06586120009231641,-0.03610354564828138]","[-1,-1,-1]","[-0.05046631862540328,-0.08719225434900395]","[1,1,1]","[-0.1305113329175278,-0.018070878712474026]","[1,1,1]","[0.11641257839877572,-0.021622874510199754]","[-1,-1,-1]","[-0.06920569674414183,-0.14942106904266889]","[1,1,1]","[-0.1329300699130765,-0.08230013925248046]","[1,1,1]","[-0.18064791152943652,0.026496686769875342]","[1,1,1]","[-0.17991267731638194,-0.08584322886550348]","[1,1,1]","[0.07958407669506837,0.06286856274482112]","[-1,-1,-1]","[-0.07417694862390029,-0.023765381726596705]","[1,1,1]","[0.057917998391148445,0.1687785779810788]","[-1,-1,-1]","[0.11987901131218025,0.14950361264098275]","[-1,-1,-1]","[0.018034855888566452,-0.18758229090112022]","[-1,-1,-1]","[-0.11902312655443409,-0.15096200875028867]","[-1,-1,-1]","[-0.017686734314616814,-0.014499908556073035]","[-1,-1,-1]","[0.05821057917555717,0.10587667170956755]","[-1,-1,-1]","[0.02737589454117034,0.058677041802021955]","[1,1,1]","[0.029318282148229704,0.009799118406850342]","[1,1,1]","[-0.12670285662391167,0.039105887791086084]","[1,1,1]","[0.015387564983667041,0.1171280666341282]","[1,1,1]","[0.11777698536980535,-0.1005076209488142]","[1,1,1]","[0.049116631494562454,-0.1470757065082692]","[-1,-1,-1]","[0.15314859279289506,0.09974822835855608]","[-1,-1,-1]","[0.02,0.02]",167.2625,0,1,1,102,1,,,,,,,
,,,,,,,66ae2a21915bde402f570746,682db4ddce8e618f33fa5b8b,2025-05-21_13h14.36.943,cuing_paradigm_dot,2024.1.5,Win32,60.60606061,682d556593cb38ad0a074487,,,,,,,,,,,167.2638,167.7626,,,168.0143,168.114,right,,,,,,,,0.5,0.0688,,,,,,,167.7629,168.0141,168.1142,"[-0.12583870403258723,-0.06506302232303943]","[-1,-1,-1]","[-0.031157077027754974,-0.012519673717252714]","[-1,-1,-1]","[-0.03559522642073163,0.13530023352013673]","[1,1,1]","[0.015521453202574819,0.1374205213570801]","[-1,-1,-1]","[0.16880277399686722,-0.08093310727864181]","[-1,-1,-1]","[0.0008692376676352726,-0.17909288688013078]","[-1,-1,-1]","[0.18471949359303633,0.02880498451532828]","[-1,-1,-1]","[0.020960690125740065,0.07535728244493552]","[-1,-1,-1]","[-0.061101519558927134,0.18975801986875732]","[1,1,1]","[0.13938960467314204,0.096953635295092]","[1,1,1]","[0.0004284411804104972,-0.08047458851644014]","[-1,-1,-1]","[-0.09183479484754682,0.04013893755601579]","[1,1,1]","[0.024398905714852853,-0.015120064278545555]","[-1,-1,-1]","[-0.051855357099613066,-0.1845631490434579]","[-1,-1,-1]","[0.12926784061608293,0.03454937942276333]","[1,1,1]","[-0.18057765413544755,-0.045820181537283705]","[-1,-1,-1]","[0.043863097850450866,-0.14991102685226854]","[1,1,1]","[-0.16214580248525778,-0.09564463071237328]","[1,1,1]","[0.05792758606634004,0.15060220321517287]","[1,1,1]","[0.07806636959151005,0.05801557650680662]","[1,1,1]","[0.0939143597844787,-0.12767507861305089]","[-1,-1,-1]","[0.09447584090077732,-0.032640000813903745]","[-1,-1,-1]","[0.009572970550114794,0.19121538237308733]","[1,1,1]","[0.14385751808328925,-0.1239491766966012]","[-1,-1,-1]","[-0.06356164427606399,0.0767719315404342]","[-1,-1,-1]","[-0.02191848071331827,0.07862147912378825]","[1,1,1]","[-0.15049241983554856,0.06285063913327811]","[1,1,1]","[-0.06298442295728285,-0.09720610345473363]","[1,1,1]","[-0.049086621549804615,-0.05905862873210619]","[1,1,1]","[-0.09526674399866514,0.1421866487654789]","[1,1,1]","[-0.08443889625524417,-0.029066334155429908]","[-1,-1,-1]","[0.11405228454813655,0.13334481469598947]","[1,1,1]","[0.02,0.02]",169.214,0,2,2,98,1,,,,,,,
,,,,,,,66ae2a21915bde402f570746,682db4ddce8e618f33fa5b8b,2025-05-21_13h14.36.943,cuing_paradigm_dot,2024.1.5,Win32,60.60606061,682d556593cb38ad0a074487,,,,,,,,,,,169.2155,169.7127,,,169.9543,170.1139,left,,,,,,,,0.1,0.1346,,,,,,,169.7129,169.9543,170.1142,"[0.0031556537748672142,-0.17173677149223826]","[1,1,1]","[-0.10429495249827395,-0.020445089083749736]","[-1,-1,-1]","[-0.13525211619151797,-0.081777324573516]","[-1,-1,-1]","[0.04456847155315792,0.046949178816143744]","[-1,-1,-1]","[0.18372424991743222,0.0034097265098720544]","[-1,-1,-1]","[0.0843047697356208,0.08276667875267793]","[-1,-1,-1]","[-0.13037363020260273,-0.1300875980706832]","[-1,-1,-1]","[0.0034346485244840883,-0.056173641463808786]","[1,1,1]","[-0.16890882246956251,-0.045181322246004234]","[-1,-1,-1]","[-0.09848473414223063,0.03293350367712007]","[-1,-1,-1]","[0.1363753793472364,-0.082438798340478]","[-1,-1,-1]","[0.13817298377952292,0.13620802427842987]","[-1,-1,-1]","[0.06772252826857404,-0.012937897317790594]","[-1,-1,-1]","[-0.05222666756327389,-0.022421619777304305]","[-1,-1,-1]","[0.06349082961191028,-0.16086433512201717]","[-1,-1,-1]","[-0.04615813652320666,0.12427652766389248]","[-1,-1,-1]","[0.01439294673403357,-0.11070535036608681]","[1,1,1]","[0.09873500549575746,0.12590455390917168]","[-1,-1,-1]","[-0.031000588133329558,0.04349019041842426]","[-1,-1,-1]","[-0.02687924696892128,-0.14087846903205353]","[-1,-1,-1]","[-0.14334782535206692,0.08566412655053333]","[-1,-1,-1]","[-0.090393962859312,0.09613729673947817]","[-1,-1,-1]","[0.18548229859856266,-0.059591291114183695]","[-1,-1,-1]","[0.062329270173954024,-0.05575477654664033]","[-1,-1,-1]","[-0.06874575529280537,-0.12348351657282028]","[-1,-1,-1]","[0.03741340332200323,0.1774451957421888]","[-1,-1,-1]","[0.14394534976618614,0.050528816955236804]","[-1,-1,-1]","[0.0849027164064638,-0.10032201504008992]","[-1,-1,-1]","[-0.15359316599209047,-0.002044443124722445]","[-1,-1,-1]","[-0.16210425377639007,0.04003732592168701]","[-1,-1,-1]","[-0.01707049422504591,0.19190626030888133]","[-1,-1,-1]","[0.09650108873269564,0.032635083602095355]","[-1,-1,-1]","[0.02,0.02]",171.2126,0,3,3,5,1,,,,,,,
,,,,,,,66ae2a21915bde402f570746,682db4ddce8e618f33fa5b8b,2025-05-21_13h14.36.943,cuing_paradigm_dot,2024.1.5,Win32,60.60606061,682d556593cb38ad0a074487,,,,,,,,,,,171.213,171.7126,,,171.9631,172.2962,left,,,,,,,,0.5,0.3221,,,,,,,171.7127,171.963,172.2963,"[-0.10233299823940883,-0.16781596923197886]","[-1,-1,-1]","[-0.06721405872912525,-0.0008670877890369604]","[-1,-1,-1]","[0.017445437745017247,-0.03952425908622662]","[1,1,1]","[0.13922698736753158,-0.057666825608251454]","[1,1,1]","[-0.17852303565346112,0.01563778041178672]","[-1,-1,-1]","[0.06443729495851273,-0.1166860127871604]","[-1,-1,-1]","[-0.10340250747542248,0.02850588548905219]","[-1,-1,-1]","[-0.09458659271830126,-0.07367873054539638]","[-1,-1,-1]","[-0.1380155434919036,-0.05086453227396394]","[1,1,1]","[-0.03545574335018928,-0.031668494547554396]","[1,1,1]","[0.008751454894699105,0.09060976597927357]","[-1,-1,-1]","[0.0669747951193035,0.07112221068213806]","[-1,-1,-1]","[-0.03804128168708987,-0.09972585443086582]","[1,1,1]","[-0.1322818765813658,-0.11918411907983197]","[1,1,1]","[0.12223932902967549,-0.12423606025560065]","[-1,-1,-1]","[0.12206774591508837,0.020610432785808513]","[1,1,1]","[0.00975516043996036,-0.1419380722605382]","[1,1,1]","[0.04041757056112594,0.002860286032261108]","[1,1,1]","[0.12666250112849908,0.09162316496703017]","[1,1,1]","[-0.02032247374647536,0.13480040187841213]","[-1,-1,-1]","[-0.1274720400378387,0.1434111379091988]","[1,1,1]","[0.17797050101133935,-0.03702190623820208]","[-1,-1,-1]","[0.08833557537318394,-0.17773307886400577]","[1,1,1]","[0.03923627736451101,0.13028449738384285]","[1,1,1]","[0.02133125416383136,-0.09183360279737833]","[1,1,1]","[-0.11707310782538294,0.09073581305313758]","[-1,-1,-1]","[0.0845164237026872,-0.03634254563008975]","[-1,-1,-1]","[-0.17293368496785236,0.09339851787603023]","[-1,-1,-1]","[-0.02615510157102343,0.0467055844978187]","[-1,-1,-1]","[0.015792524620018955,0.038547318221040426]","[1,1,1]","[-0.032039883872072746,-0.17375444444790525]","[1,1,1]","[0.04568937015753017,-0.18591081720898786]","[-1,-1,-1]","[0.02,0.02]",173.3975,0,4,4,104,1,,,,,,,
,,,,,,,66ae2a21915bde402f570746,682db4ddce8e618f33fa5b8b,2025-05-21_13h14.36.943,cuing_paradigm_dot,2024.1.5,Win32,60.60606061,682d556593cb38ad0a074487,,,,,,,,,,,173.3981,173.8973,,,174.1474,174.5137,left,,,,,,,,0.55,0.3543,,,,,,,173.8974,174.1474,174.5138,"[-0.056342890685494806,-0.08563564978375524]","[1,1,1]","[0.12668512530811327,-0.03518661253711525]","[-1,-1,-1]","[-0.18255842740001132,-0.06872452110824123]","[1,1,1]","[0.042500814049627585,-0.03512428287293471]","[-1,-1,-1]","[-0.03609351228489702,0.048904232280207766]","[1,1,1]","[-0.196943143105915,-0.005587694140952932]","[-1,-1,-1]","[-0.13384167918827522,-0.020081705097916555]","[-1,-1,-1]","[-0.017681588043419332,0.14787730368428534]","[1,1,1]","[-0.1043782581663556,0.07643291219354147]","[1,1,1]","[0.1313178927074621,0.013370511730107434]","[-1,-1,-1]","[0.13048162606462746,-0.09954675584881956]","[1,1,1]","[0.12303879318432501,0.08998998139591816]","[1,1,1]","[-0.0010678647287936645,-0.050922388855159435]","[1,1,1]","[0.19016351258904166,0.006820345519497619]","[-1,-1,-1]","[-0.12916354710800257,0.13449223787514858]","[1,1,1]","[0.008832569684332376,-0.10969829225039607]","[1,1,1]","[-0.08164212390166516,-0.1333650605239097]","[-1,-1,-1]","[0.07759245047506884,-0.1052511606534728]","[1,1,1]","[-0.06122650590695346,-0.18167171233298562]","[1,1,1]","[-0.01819663364098865,-0.148186556298749]","[-1,-1,-1]","[-0.06496754677392512,-0.006172025766058378]","[-1,-1,-1]","[0.013889308709043483,0.08909453521858914]","[-1,-1,-1]","[-0.005833603218730938,0.19969878337463925]","[-1,-1,-1]","[-0.1430444452824397,-0.10829559668635397]","[1,1,1]","[0.05784059087393449,-0.18719213527788614]","[-1,-1,-1]","[0.006520154247555713,0.04421374542698233]","[1,1,1]","[0.03503685444464006,0.13868750653777395]","[-1,-1,-1]","[-0.14933927522457374,0.027459930099990308]","[1,1,1]","[0.09197788330703129,0.0534536180257277]","[-1,-1,-1]","[0.15618814619575308,0.12447346282469397]","[1,1,1]","[-0.15060249150633298,0.08323017664523041]","[1,1,1]","[0.020640476856667433,-0.17205961644010195]","[1,1,1]","[0.02,0.02]",175.6046,0,5,5,146,1,,,,,,,
,,,,,,,66ae2a21915bde402f570746,682db4ddce8e618f33fa5b8b,2025-05-21_13h14.36.943,cuing_paradigm_dot,2024.1.5,Win32,60.60606061,682d556593cb38ad0a074487,,,,,,,,,,,175.6051,176.0984,,,176.3469,176.4801,right,,,,,,,,0.4,0.117,,,,,,,176.0987,176.3467,176.4804,"[0.08130779345613996,-0.055202544057624654]","[1,1,1]","[0.01723337147562787,-0.03959757381279446]","[1,1,1]","[-0.1664364477079181,-0.011868659100447921]","[-1,-1,-1]","[0.05760672910146292,-0.1205379203458088]","[-1,-1,-1]","[-0.11476145487056887,-0.12901622858373038]","[-1,-1,-1]","[-0.02038815441024027,0.09154189760736042]","[-1,-1,-1]","[0.17205570573105072,-0.014987284306318419]","[-1,-1,-1]","[-0.029368734068899546,0.19110727546895506]","[-1,-1,-1]","[0.1135231999464304,-0.14333504696218613]","[-1,-1,-1]","[-0.08743887856961523,0.01587126157962354]","[1,1,1]","[0.15646580261185425,0.09259417196822652]","[-1,-1,-1]","[-0.1514561143874327,0.11975030455905156]","[1,1,1]","[-0.022068815761542498,0.013414928404289116]","[-1,-1,-1]","[-0.06680365467797883,0.1309642764576694]","[-1,-1,-1]","[-0.09353792566477513,-0.08728396760687465]","[1,1,1]","[0.011409800463937535,-0.19931519787042376]","[-1,-1,-1]","[0.09887123738923907,0.16870152271675504]","[-1,-1,-1]","[-0.09942731144877553,0.16061850776384096]","[-1,-1,-1]","[0.07420072249804525,0.07260123458921319]","[1,1,1]","[-0.0002223144231575786,-0.14045809436727613]","[1,1,1]","[-0.054050855659963655,-0.09600405536373845]","[-1,-1,-1]","[-0.0497233222019929,-0.184830247622703]","[-1,-1,-1]","[-0.1062567356253734,0.06374719757792977]","[-1,-1,-1]","[0.07519634982636067,0.1311543046317798]","[1,1,1]","[0.06527358736198886,-0.008780702527375813]","[-1,-1,-1]","[-0.009605372690409814,-0.09317430483772333]","[1,1,1]","[-0.06879978776789837,0.08642996360686012]","[1,1,1]","[0.04659282072661268,0.1763697156525145]","[1,1,1]","[0.18569419676236495,0.032680581863573734]","[1,1,1]","[0.03296302201201698,0.12082187663828584]","[1,1,1]","[-0.17170494041153767,0.03509632303745867]","[-1,-1,-1]","[-0.15957094042721665,-0.08040884085952132]","[-1,-1,-1]","[0.02,0.02]",177.5807,0,6,6,57,1,,,,,,,
,,,,,,,66ae2a21915bde402f570746,682db4ddce8e618f33fa5b8b,2025-05-21_13h14.36.943,cuing_paradigm_dot,2024.1.5,Win32,60.60606061,682d556593cb38ad0a074487,,,,,,,,,,,177.582,178.0807,,,178.3392,178.3816,left,,,,,,,,0.5,0.0186,,,,,,,178.081,178.3391,178.3818,"[-0.02656864377916111,0.14875662163484724]","[1,1,1]","[-0.006665260045056484,0.018415791110447288]","[-1,-1,-1]","[0.04514848668802511,0.132536166594452]","[1,1,1]","[0.09586757004129721,0.09116328948089503]","[1,1,1]","[-0.07103805944142473,0.09447550595552037]","[-1,-1,-1]","[0.05948301612729459,0.005489914368376171]","[-1,-1,-1]","[0.009103813459683028,-0.19407884096237546]","[1,1,1]","[-0.08578225633482671,-0.06589746322448499]","[1,1,1]","[0.11529732343350693,0.054933676808821684]","[1,1,1]","[-0.09965646657295815,0.0547972203361507]","[-1,-1,-1]","[0.05026262373195555,-0.06385082868404243]","[-1,-1,-1]","[0.01804314815381564,-0.0359156249662157]","[-1,-1,-1]","[-0.04806762745919644,-0.16301975869490606]","[-1,-1,-1]","[-0.11941791986203908,-0.03444893351985372]","[1,1,1]","[0.1582252500368632,0.06180229132698399]","[-1,-1,-1]","[-0.14685206428638636,0.11861252088341057]","[1,1,1]","[0.1471104558143378,-0.08812711313321385]","[-1,-1,-1]","[-0.13353346371475605,-0.13573152571951974]","[-1,-1,-1]","[-0.13969474852442526,0.054616663037196055]","[1,1,1]","[0.1848011014236727,-0.06596968746282453]","[1,1,1]","[0.032279336920577696,-0.12229334574243118]","[-1,-1,-1]","[0.09499757769661456,-0.14033527527172165]","[-1,-1,-1]","[-0.09290464357443141,0.15669307649330466]","[-1,-1,-1]","[0.004575156306799937,0.07888660196550443]","[1,1,1]","[0.06306642754328501,-0.1843304383126898]","[1,1,1]","[-0.19211644754270316,0.036954127268708295]","[1,1,1]","[0.13384976593687495,0.00622503721216631]","[1,1,1]","[0.04979767592730162,0.17923722801472283]","[1,1,1]","[0.08875316275121631,0.1371582231048046]","[-1,-1,-1]","[-0.028986704313158123,0.10320111745381412]","[-1,-1,-1]","[-0.0375678939255978,0.06021285598397337]","[1,1,1]","[-0.17181098936277073,-0.009717815872354707]","[-1,-1,-1]","[0.02,0.02]",179.4709,0,7,7,114,1,,,,,,,
,,,,,,,66ae2a21915bde402f570746,682db4ddce8e618f33fa5b8b,2025-05-21_13h14.36.943,cuing_paradigm_dot,2024.1.5,Win32,60.60606061,682d556593cb38ad0a074487,,,,,,,,,,,179.4716,179.9642,,,180.2204,180.3304,left,,,,,,,,0.4,0.087,,,,,,,179.9645,180.2204,180.3307,"[-0.020979540757548494,0.09061811624084246]","[1,1,1]","[0.09221808182488357,0.06899600621560208]","[1,1,1]","[0.15428043860512466,0.08377068451646724]","[-1,-1,-1]","[-0.11665269242450062,-0.08509433021990816]","[-1,-1,-1]","[-0.07452458612842815,-0.1367767099028573]","[-1,-1,-1]","[-0.015503860942208623,0.05013247821446553]","[1,1,1]","[-0.07904948199228698,0.025749853273573885]","[-1,-1,-1]","[-0.073871237867233,0.11028404180727931]","[-1,-1,-1]","[0.03594346221892217,-0.05221479402074358]","[1,1,1]","[0.13315687464326048,-0.11105805496723335]","[-1,-1,-1]","[0.0025796198468480717,0.12476667523770041]","[1,1,1]","[0.1541481373563884,-0.06732486955057165]","[1,1,1]","[0.028852468593626817,0.1946060971309866]","[1,1,1]","[0.11800762104930335,0.008569283033160352]","[-1,-1,-1]","[-0.029068245122913165,-0.1795425889059078]","[1,1,1]","[0.11948499107338116,0.13621563515648352]","[1,1,1]","[-0.13480938152459787,0.13297776305787723]","[-1,-1,-1]","[-0.027787261888472928,-0.060825765804399884]","[1,1,1]","[0.03561791634583117,0.05362254860428887]","[1,1,1]","[0.024959352223963026,-0.09520009241828295]","[-1,-1,-1]","[-0.0692550042844373,-0.061147282645907554]","[-1,-1,-1]","[-0.11721286126855623,-0.021848645460804964]","[-1,-1,-1]","[0.0738873122037568,0.14929869604522203]","[-1,-1,-1]","[-0.18902902253697446,-0.052292523603022514]","[-1,-1,-1]","[0.06849612109945334,-0.14786378719694507]","[-1,-1,-1]","[0.17698409179250174,0.0133936036654996]","[-1,-1,-1]","[0.01186460592735172,-0.17696523248658583]","[-1,-1,-1]","[-0.0729945706572818,0.16246536286865151]","[-1,-1,-1]","[-0.16327524647887,-0.10749547948006355]","[-1,-1,-1]","[0.04323672715620097,0.10524497388651455]","[-1,-1,-1]","[0.034907898680114145,-0.00909883032995272]","[1,1,1]","[0.12380650448163995,-0.03520278592594482]","[1,1,1]","[0.02,0.02]",181.4299,0,8,8,35,1,,,,,,,
,,,,,,,66ae2a21915bde402f570746,682db4ddce8e618f33fa5b8b,2025-05-21_13h14.36.943,cuing_paradigm_dot,2024.1.5,Win32,60.60606061,682d556593cb38ad0a074487,,,,,,,,,,,181.4311,181.9311,,,182.1709,182.398,right,,,,,,,,0.4,0.2047,,,,,,,181.9316,182.1708,182.3984,"[0.07593852722889738,0.0011427465241863437]","[-1,-1,-1]","[-0.0013209963411073321,-0.1976769949454648]","[-1,-1,-1]","[-0.12643606580448263,0.07778898334175118]","[-1,-1,-1]","[0.1648039322470143,0.07808103850045753]","[-1,-1,-1]","[-0.02622782689431003,-0.004550667551315473]","[-1,-1,-1]","[0.03132256530936526,0.1500481108295751]","[-1,-1,-1]","[-0.031217358172143977,0.08791929940558141]","[-1,-1,-1]","[0.04498899860834908,0.06988219690675994]","[-1,-1,-1]","[-0.15210377252421747,-0.054178651682444644]","[1,1,1]","[-0.16246865816855144,-0.0011667532055839361]","[1,1,1]","[-0.09357381845237721,0.16051280731163586]","[1,1,1]","[0.09795511404623823,0.0739716186213611]","[-1,-1,-1]","[0.002891076612458019,0.18124016973555465]","[1,1,1]","[0.07932497139186406,-0.17758171461419986]","[1,1,1]","[-0.05580351541661299,0.13555198988495934]","[-1,-1,-1]","[0.1612801077955194,-0.04986557689061154]","[1,1,1]","[0.13428188518276715,0.00011390758662998749]","[-1,-1,-1]","[0.11805750230055158,-0.15486200612451803]","[1,1,1]","[-0.03377493601503281,-0.0622724661163145]","[-1,-1,-1]","[0.13342962932523603,0.10586181691723506]","[1,1,1]","[0.06842869836126035,0.10629235248239392]","[1,1,1]","[0.0009682545813669726,-0.10946626374900148]","[1,1,1]","[0.006458433810563851,0.04322957699486519]","[-1,-1,-1]","[-0.05870042225468954,-0.029436366235947076]","[-1,-1,-1]","[-0.10595455213977656,-0.07062191531684645]","[-1,-1,-1]","[0.038622347100717866,-0.032364150003055134]","[-1,-1,-1]","[-0.05026056550842424,-0.10529811365141986]","[-1,-1,-1]","[0.10682625607689711,-0.05894879589283053]","[1,1,1]","[0.14988103519453622,-0.12585315508169967]","[1,1,1]","[0.10880888763501571,-0.10422255109869222]","[-1,-1,-1]","[0.011284447952861747,0.11190448727672825]","[-1,-1,-1]","[-0.1181335602655171,-0.02130023185770215]","[1,1,1]","[0.02,0.02]",183.4973,0,9,9,56,1,,,,,,,
,,,,,,,66ae2a21915bde402f570746,682db4ddce8e618f33fa5b8b,2025-05-21_13h14.36.943,cuing_paradigm_dot,2024.1.5,Win32,60.60606061,682d556593cb38ad0a074487,,,,,,,,,,,183.4989,183.998,,,184.239,184.6173,right,,,,,,,,0.9,0.3722,,,,,,,183.9982,184.2389,184.6173,"[-0.12615542256655518,-0.011121663674852674]","[1,1,1]","[-0.17419223649595753,-0.0891075777129829]","[1,1,1]","[-0.030354703325592026,-0.135145503954885]","[1,1,1]","[0.046332735751780874,-0.03805472093023489]","[1,1,1]","[-0.012566704010096345,0.03321327206566527]","[1,1,1]","[-0.03767372421033682,0.15080125246831844]","[1,1,1]","[-0.14386282818332155,-0.12556670081560506]","[1,1,1]","[0.16768613680140582,-0.058027021243900044]","[1,1,1]","[-0.10306124720241222,-0.12668839205686508]","[1,1,1]","[0.17737846874460547,-0.007666801876997258]","[1,1,1]","[-0.005477912046781225,0.09289101128874962]","[1,1,1]","[0.012816281928401275,-0.006117463475647246]","[1,1,1]","[0.04296598195391517,0.06197927239012198]","[1,1,1]","[0.05206359212264175,-0.17207592524816115]","[1,1,1]","[-0.13085894914865395,-0.05399638812247767]","[1,1,1]","[-0.03303067110461264,-0.04174740681419965]","[1,1,1]","[-0.1397508285341196,0.03698263407779709]","[-1,-1,-1]","[0.0191266699226162,-0.09747020376149117]","[1,1,1]","[0.09635380045258501,-0.0795816409248607]","[1,1,1]","[-0.12522651885517808,0.10724849969019146]","[1,1,1]","[0.14249245060399252,0.038085102168784926]","[1,1,1]","[-0.05246294117327212,-0.1854066354470492]","[1,1,1]","[0.03136029120452355,0.1859723204195185]","[1,1,1]","[-0.19311436348845537,0.012029816682962007]","[1,1,1]","[-0.0737145140271986,-0.001395048963692671]","[1,1,1]","[0.08430750062145421,0.07883020214763414]","[1,1,1]","[-0.18039593685634586,0.06971759101602872]","[1,1,1]","[-0.07172059314736136,-0.08706115070635055]","[1,1,1]","[0.186083971621748,0.047770659417370354]","[-1,-1,-1]","[0.15169088250168908,0.11688984674966939]","[1,1,1]","[0.11480760788955306,-0.16142253582012872]","[-1,-1,-1]","[0.09464294311210478,-0.03575542613277941]","[1,1,1]","[0.02,0.02]",185.7143,0,10,10,198,1,,,,,,,
,,,,,,,66ae2a21915bde402f570746,682db4ddce8e618f33fa5b8b,2025-05-21_13h14.36.943,cuing_paradigm_dot,2024.1.5,Win32,60.60606061,682d556593cb38ad0a074487,,,,,,,,,,,185.7155,186.2144,,,186.4699,186.6669,left,,,,,,,,0.1,0.1775,,,,,,,186.2146,186.4698,186.6669,"[0.06757760758277352,0.021772422920906247]","[-1,-1,-1]","[-0.19166493756135514,-0.052178097592595146]","[-1,-1,-1]","[-0.147846809784227,-0.035667773292091996]","[-1,-1,-1]","[0.06733057988850558,0.1871659739880083]","[-1,-1,-1]","[0.04157666372962126,-0.1834514352483991]","[-1,-1,-1]","[0.02576434135136685,-0.09740059800639567]","[1,1,1]","[0.01696903402722642,0.12639870653321889]","[1,1,1]","[-0.06780347363695197,-0.1688719344501596]","[-1,-1,-1]","[0.058843532652746514,0.1304727726691594]","[-1,-1,-1]","[-0.0626914844219317,0.0892806888663043]","[-1,-1,-1]","[0.12887716548604652,-0.03997361011498206]","[-1,-1,-1]","[-0.0006567277302766011,-0.17508223420825048]","[-1,-1,-1]","[0.1829756062909375,-0.05757158818560887]","[-1,-1,-1]","[0.012808312499772304,0.183765085139944]","[-1,-1,-1]","[-0.17254884544480303,0.02708457667707313]","[-1,-1,-1]","[-0.03224775653084116,0.12942175902282158]","[-1,-1,-1]","[-0.00959882676643316,0.04872113438178256]","[-1,-1,-1]","[-0.13682486543568442,0.05854735415863826]","[1,1,1]","[0.01855866960065852,-0.13986101997145248]","[-1,-1,-1]","[0.15614266207793884,0.0719608847552608]","[-1,-1,-1]","[0.19952561910912128,-0.003461691291930201]","[-1,-1,-1]","[0.1066687678179187,0.12747480976562414]","[-1,-1,-1]","[-0.1390361806600993,0.12273924707656245]","[-1,-1,-1]","[-0.11080164780981047,-0.12286348885234619]","[-1,-1,-1]","[0.0017242348619637483,-0.02619578223664542]","[-1,-1,-1]","[0.0905391450306887,-0.10750501928067428]","[-1,-1,-1]","[-0.09658799040114319,-0.015892269469529888]","[-1,-1,-1]","[-0.09108823123150293,-0.06687976569902694]","[-1,-1,-1]","[-0.05810025082759637,0.023135315478533546]","[-1,-1,-1]","[0.07916005140436826,0.0697658411009103]","[-1,-1,-1]","[-0.16304293057375896,-0.10289732803103473]","[-1,-1,-1]","[-0.030943955212891307,-0.06621940251066999]","[-1,-1,-1]","[0.02,0.02]",187.7646,0,11,11,16,1,,,,,,,
,,,,,,,66ae2a21915bde402f570746,682db4ddce8e618f33fa5b8b,2025-05-21_13h14.36.943,cuing_paradigm_dot,2024.1.5,Win32,60.60606061,682d556593cb38ad0a074487,,,,,,,,,,,187.766,188.2636,,,188.5047,188.8491,left,,,,,,,,0.5,0.3196,,,,,,,188.2637,188.5047,188.8492,"[0.14218219313974423,0.07259047738723017]","[1,1,1]","[-0.0026407714215380784,0.1864462033685444]","[1,1,1]","[0.043822471762937826,-0.046708411299291354]","[-1,-1,-1]","[-0.06993251627281204,-0.04042171513140055]","[-1,-1,-1]","[0.14193270490819543,0.02986853403520579]","[1,1,1]","[-0.14528998366262796,-0.09143377497176884]","[1,1,1]","[-0.019055562507039586,-0.14002978109514091]","[-1,-1,-1]","[-0.039416043002978865,-0.09364821615055552]","[1,1,1]","[-0.04268875897908367,0.1357886030508291]","[1,1,1]","[0.028852333482036578,0.010212169763225969]","[-1,-1,-1]","[0.0852809770241538,0.14289638280179795]","[1,1,1]","[-0.07357894167385823,0.16294442763643746]","[1,1,1]","[0.13160485018304258,-0.011189435321464963]","[-1,-1,-1]","[0.13735670164130795,-0.12896474252004644]","[1,1,1]","[-0.19394992346752535,-0.03537818461429689]","[1,1,1]","[-0.11995268644339456,0.002511434403163473]","[-1,-1,-1]","[-0.1395095230131897,0.11227092770946326]","[1,1,1]","[0.022388833246018258,-0.18244109460372523]","[1,1,1]","[0.18589083818149751,-0.0425697767023381]","[-1,-1,-1]","[-0.0016865176356028945,0.07123945496738646]","[-1,-1,-1]","[-0.00862528218223363,-0.06725511954470266]","[-1,-1,-1]","[-0.047159867133851285,0.029781738345902233]","[1,1,1]","[-0.1292499078940002,0.05096966027550193]","[-1,-1,-1]","[0.15160610762461688,0.121510993231115]","[-1,-1,-1]","[0.07720038248109673,-0.1542631031686716]","[-1,-1,-1]","[0.08700602077287302,0.04229682433507112]","[-1,-1,-1]","[-0.07993124679716514,0.07016274370624159]","[-1,-1,-1]","[-0.05999972820331477,-0.13727232827003083]","[-1,-1,-1]","[0.054326578940560095,0.10143385471034809]","[1,1,1]","[0.08441948381949602,-0.017788883988209655]","[1,1,1]","[-0.11176959381094578,0.14232530437522725]","[1,1,1]","[-0.0223741188474911,-0.00297300398455625]","[-1,-1,-1]","[0.02,0.02]",189.9492,0,12,12,109,1,,,,,,,
,,,,,,,66ae2a21915bde402f570746,682db4ddce8e618f33fa5b8b,2025-05-21_13h14.36.943,cuing_paradigm_dot,2024.1.5,Win32,60.60606061,682d556593cb38ad0a074487,,,,,,,,,,,189.9506,190.4495,,,190.705,191.349,right,,,,,,,,0.55,0.6275,,,,,,,190.4497,190.7049,191.3493,"[0.0667866878845025,-0.1766849513213647]","[-1,-1,-1]","[-0.027837694250488793,0.07461608202538685]","[1,1,1]","[-0.1698886679597029,0.07250893318262665]","[-1,-1,-1]","[0.008077563607751073,0.04915129541123029]","[1,1,1]","[-0.06515091502530442,-0.07682498446166566]","[-1,-1,-1]","[0.10642913444856458,-0.12090132670670616]","[1,1,1]","[-0.012780493522865793,0.14220709830413647]","[-1,-1,-1]","[-0.0865043456636269,-0.15210434767444667]","[1,1,1]","[-0.09567452120329857,0.0018507519804919104]","[1,1,1]","[0.11287123349314956,0.14838440914647913]","[-1,-1,-1]","[0.011165812647335257,-0.19132014298243558]","[-1,-1,-1]","[0.1815261907498473,-0.04241848741804724]","[-1,-1,-1]","[0.11903770218498398,0.09656289059047878]","[-1,-1,-1]","[0.12341116788642562,0.0023831736625520845]","[1,1,1]","[0.19315932955860554,0.03895420792261688]","[-1,-1,-1]","[-0.06735968389527519,-0.029178747721701308]","[1,1,1]","[-0.035304816455307086,-0.12445295444331353]","[1,1,1]","[-0.12300361211629052,-0.0605029066681558]","[1,1,1]","[0.05105406508724398,-0.039247310241114525]","[1,1,1]","[-0.0880968194995051,0.09003680735334328]","[1,1,1]","[-0.0036980232215949663,-0.06554619542726589]","[-1,-1,-1]","[0.03170753838666419,-0.0900008109705454]","[1,1,1]","[-0.08262786372697764,0.1502644642177623]","[-1,-1,-1]","[-0.17882320497717022,0.018095058830678502]","[-1,-1,-1]","[-0.17063421521503366,-0.08574640218025673]","[1,1,1]","[0.059243510888760904,0.08583471483581354]","[1,1,1]","[0.05781795840352302,0.042579742930849575]","[1,1,1]","[0.017848902056808676,0.10363319600288341]","[-1,-1,-1]","[-0.0012517410713036147,0.19481468503807617]","[1,1,1]","[-0.11617104363471353,0.12394448539767916]","[1,1,1]","[-0.18110648255601827,-0.03492626576637528]","[1,1,1]","[0.06343901586604132,0.14848199560499317]","[-1,-1,-1]","[0.02,0.02]",192.449,0,13,13,123,1,,,,,,,
,,,,,,,66ae2a21915bde402f570746,682db4ddce8e618f33fa5b8b,2025-05-21_13h14.36.943,cuing_paradigm_dot,2024.1.5,Win32,60.60606061,682d556593cb38ad0a074487,,,,,,,,,,,192.4503,192.9479,,,193.2042,193.4153,left,,,,,,,,0.6,0.1951,,,,,,,192.948,193.2041,193.4155,"[0.056625887927289675,-0.04140507224958023]","[1,1,1]","[-0.045342245186787936,-0.19302690384235888]","[1,1,1]","[-0.13278482040983558,0.0902448389375814]","[1,1,1]","[-0.06367328065319863,0.13278725323895033]","[-1,-1,-1]","[0.1068429755268371,0.010580093906836771]","[-1,-1,-1]","[-0.15047644861212323,-0.062384488366586076]","[-1,-1,-1]","[0.18977449719837275,0.051836621006489884]","[1,1,1]","[0.1251868409301837,-0.04447228453227273]","[-1,-1,-1]","[0.13055506299297184,0.06830863813659958]","[-1,-1,-1]","[0.1474945337824374,-0.08144627917461059]","[1,1,1]","[-0.05708599968786961,-0.11342587309187328]","[-1,-1,-1]","[-0.009126503692307174,0.03699572080036189]","[1,1,1]","[0.029612389489709685,-0.15765483228003038]","[-1,-1,-1]","[0.06474907223832414,-0.11410566607709541]","[1,1,1]","[-0.089161151868434,0.16448634193383563]","[1,1,1]","[0.1939237360160024,-0.005904507157249579]","[1,1,1]","[0.05526270705991172,0.12645492678953454]","[1,1,1]","[-0.08438324622698984,0.013288334365212645]","[1,1,1]","[-0.1097283750393407,-0.1440328251838376]","[1,1,1]","[0.0033767882121783026,0.08683609318188613]","[-1,-1,-1]","[0.0790949449007178,0.06897085709005554]","[1,1,1]","[0.007577445859133154,-0.01636363039617445]","[-1,-1,-1]","[-0.04439211267998828,0.17152656359957136]","[-1,-1,-1]","[0.15891819382139108,0.11329515621691796]","[-1,-1,-1]","[0.01377117439762648,-0.08795557914723828]","[1,1,1]","[0.0734555309165345,0.1842843771647598]","[1,1,1]","[-0.04149010373094264,0.0017362396073336847]","[1,1,1]","[-0.061248872495391814,-0.05448591533399377]","[1,1,1]","[-0.007696713085471563,-0.13265472675820583]","[-1,-1,-1]","[-0.1776328802785585,-0.01655619540819234]","[-1,-1,-1]","[-0.08705389216798086,0.07634166037531712]","[1,1,1]","[0.09964135813403487,0.14328339171118168]","[1,1,1]","[0.02,0.02]",194.5153,0,14,14,176,1,,,,,,,
,,,,,,,66ae2a21915bde402f570746,682db4ddce8e618f33fa5b8b,2025-05-21_13h14.36.943,cuing_paradigm_dot,2024.1.5,Win32,60.60606061,682d556593cb38ad0a074487,,,,,,,,,,,194.5165,195.0155,,,195.2558,195.8827,right,,,,,,,,0.6,0.6106,,,,,,,195.0156,195.2557,195.8828,"[-0.13134396657036554,-0.0686585183131789]","[1,1,1]","[-0.16764758028495846,0.08107736059475351]","[1,1,1]","[0.16273955116320962,0.07457834802192093]","[-1,-1,-1]","[-0.03559369094429246,0.02660002395854323]","[1,1,1]","[-0.027768327572148106,-0.15200865440134576]","[-1,-1,-1]","[-0.1377600108785963,0.032655553765900514]","[-1,-1,-1]","[-0.16778441808658132,-0.1023129316018626]","[1,1,1]","[0.10580974536270663,-0.031205507652805192]","[-1,-1,-1]","[0.032089732164833754,0.16971689227018136]","[1,1,1]","[0.06528189005061506,0.00033198390257009516]","[-1,-1,-1]","[-0.09163275227255192,0.11280985822777212]","[1,1,1]","[-0.0975221723334605,-0.1685320291598678]","[1,1,1]","[0.02407483934451012,-0.15644088502943337]","[-1,-1,-1]","[-0.08366618857381813,-0.05279521332067198]","[-1,-1,-1]","[0.16809930171947876,0.016616631435943024]","[1,1,1]","[0.10226765176250135,-0.1522184477821277]","[1,1,1]","[0.04278533202699247,0.057185458890115]","[1,1,1]","[0.05975622026965333,-0.18722245104958327]","[1,1,1]","[0.12518011839362903,0.03977852355781122]","[1,1,1]","[-0.04500062742912703,-0.08482909876892636]","[-1,-1,-1]","[-0.06913891674382998,0.06823163919268452]","[1,1,1]","[-0.10441414935186707,-0.013689781880971015]","[-1,-1,-1]","[-0.006178787652750477,-0.020219063187732537]","[-1,-1,-1]","[0.03821488214858889,-0.0655841216066171]","[1,1,1]","[0.12326950747760518,-0.11462823689098263]","[1,1,1]","[-0.058001976377782184,0.13836775655597186]","[1,1,1]","[0.17197620449497078,-0.05620624153602525]","[-1,-1,-1]","[0.14878644330558402,0.11406980559192148]","[1,1,1]","[0.0804223124316774,0.17522281879037047]","[-1,-1,-1]","[-0.010734883163842052,0.12310211458252035]","[1,1,1]","[0.0916106141361835,0.12789861055759302]","[1,1,1]","[-0.18492570724330823,-0.0009582205819084952]","[-1,-1,-1]","[0.02,0.02]",196.9821,0,15,15,169,1,,,,,,,
,,,,,,,66ae2a21915bde402f570746,682db4ddce8e618f33fa5b8b,2025-05-21_13h14.36.943,cuing_paradigm_dot,2024.1.5,Win32,60.60606061,682d556593cb38ad0a074487,,,,,,,,,,,196.9835,197.4817,,,197.7369,198.1997,left,,,,,,,,0.1,0.4417,,,,,,,197.4818,197.7369,198.1999,"[-0.07765189040623321,-0.10834980950309026]","[-1,-1,-1]","[0.007370359697324017,0.11079447830083579]","[-1,-1,-1]","[0.04979682912705785,-0.0034758155418532794]","[-1,-1,-1]","[0.07990111618510368,-0.0950232754371489]","[-1,-1,-1]","[-0.15588601148066322,0.0422029063853115]","[-1,-1,-1]","[-0.05428521246466832,0.11653594059789327]","[-1,-1,-1]","[0.060098612854255884,0.11551923083514072]","[-1,-1,-1]","[0.011969777230364364,-0.033724523752715445]","[-1,-1,-1]","[-0.12175040366356406,0.009542550879362321]","[-1,-1,-1]","[0.11159382869661007,-0.03342354018860453]","[-1,-1,-1]","[0.15593733327441864,-0.06936576165585193]","[-1,-1,-1]","[0.14611091407334562,0.056048433558222144]","[-1,-1,-1]","[0.11872778879857568,0.15890413310982873]","[-1,-1,-1]","[0.010165379893009844,-0.10344225770168992]","[-1,-1,-1]","[-0.14324648400835516,-0.08276045107230261]","[-1,-1,-1]","[-0.031083758462968982,-0.03234919935126217]","[1,1,1]","[-0.11284674882344516,0.13894292038216083]","[-1,-1,-1]","[-0.18625565044234413,-0.004446412276571181]","[-1,-1,-1]","[0.021289823623835566,0.07008998355017428]","[-1,-1,-1]","[0.043624449989558195,0.1634711545340228]","[-1,-1,-1]","[0.029708601988048547,-0.14467500479586062]","[-1,-1,-1]","[-0.15290509168762373,-0.030282916258234562]","[-1,-1,-1]","[0.04521042283401358,-0.1895446467720349]","[-1,-1,-1]","[0.151752298275841,0.11215706085305734]","[1,1,1]","[-0.09007618358038189,0.09802852318448066]","[1,1,1]","[-0.005465795982916432,0.0341270482955071]","[-1,-1,-1]","[-0.06313609928160019,0.15986445515854344]","[-1,-1,-1]","[-0.05219168185234853,0.044701367029297674]","[-1,-1,-1]","[0.16416806393533742,-0.017380664350257213]","[-1,-1,-1]","[0.10355613576332437,0.10048504121416062]","[-1,-1,-1]","[0.08810718374636177,0.02908111313460171]","[-1,-1,-1]","[0.09056051788151662,-0.16511057176125168]","[-1,-1,-1]","[0.02,0.02]",199.2987,0,16,16,20,1,,,,,,,
,,,,,,,66ae2a21915bde402f570746,682db4ddce8e618f33fa5b8b,2025-05-21_13h14.36.943,cuing_paradigm_dot,2024.1.5,Win32,60.60606061,682d556593cb38ad0a074487,,,,,,,,,,,199.3005,199.7993,,,200.0379,200.516,right,,,,,,,,0.6,0.4527,,,,,,,199.7995,200.0379,200.5162,"[-0.06561781056401349,0.06985474002400431]","[1,1,1]","[0.12132440553003217,0.10000466654725727]","[1,1,1]","[-0.117055149074672,-0.0012400294943963241]","[-1,-1,-1]","[0.16357810322761107,0.09216987835990308]","[1,1,1]","[0.027480645257698347,-0.16933878622533668]","[1,1,1]","[-0.08484296777805453,-0.1693344954329268]","[1,1,1]","[0.1287687366489449,-0.12355684132543614]","[1,1,1]","[-0.07082915067750505,0.1476779962146634]","[1,1,1]","[0.0633871300822163,-0.01038450632000942]","[-1,-1,-1]","[-0.01829022696367186,0.11197086858113865]","[-1,-1,-1]","[0.05587743549445069,0.056132088221738916]","[1,1,1]","[0.16351857693476568,-0.061837369475546036]","[1,1,1]","[-0.17972101841090427,-0.014262742711038525]","[1,1,1]","[0.0003413171514043971,0.194060122985824]","[1,1,1]","[-0.14312449052553514,-0.1350614698559823]","[-1,-1,-1]","[0.032268558349348865,0.13080916281069618]","[-1,-1,-1]","[-0.17478793954467448,0.08289121958863829]","[1,1,1]","[0.020737971510566444,-0.09743803484406853]","[-1,-1,-1]","[-0.02346271702179462,-0.16311224011016673]","[-1,-1,-1]","[-0.1388956916242484,0.1182273882277655]","[-1,-1,-1]","[0.06024038407885117,0.1833579260691081]","[-1,-1,-1]","[0.10286645463304449,-0.017630411981528163]","[1,1,1]","[-0.09553606955800557,-0.0637626229721759]","[1,1,1]","[-0.022567314909538276,-0.05652172636294917]","[-1,-1,-1]","[0.0730785490080114,-0.1488199818267288]","[-1,-1,-1]","[0.16631125981170464,0.019227411650725657]","[1,1,1]","[-0.156014513330152,-0.08150205831277321]","[1,1,1]","[0.10920375692506187,-0.060004545997762476]","[-1,-1,-1]","[0.09450447247392307,0.029390916025261577]","[1,1,1]","[-0.07330211071807777,-0.0005546910570957502]","[1,1,1]","[-0.04035282653165841,0.19567966576037654]","[-1,-1,-1]","[0.1949947485544402,-0.012023696111035837]","[1,1,1]","[0.02,0.02]",201.6231,0,17,17,175,1,,,,,,,
,,,,,,,66ae2a21915bde402f570746,682db4ddce8e618f33fa5b8b,2025-05-21_13h14.36.943,cuing_paradigm_dot,2024.1.5,Win32,60.60606061,682d556593cb38ad0a074487,,,,,,,,,,,201.6238,202.1147,,,202.3739,202.8324,left,,,,,,,,0.45,0.4354,,,,,,,202.115,202.3738,202.8326,"[0.05883135339993091,-0.028644872562455303]","[-1,-1,-1]","[-0.09766435537881878,-0.13305000765589298]","[-1,-1,-1]","[-0.15375525031077,-0.03971971273190601]","[-1,-1,-1]","[-0.019153732555252025,-0.13993750581600542]","[1,1,1]","[0.07207756848725638,0.14922418340359678]","[1,1,1]","[-0.1870650968601518,0.039446291425883934]","[-1,-1,-1]","[0.09049400294979965,-0.1657018259035399]","[-1,-1,-1]","[0.08972067874061378,0.006923806352718795]","[-1,-1,-1]","[0.012932212752598248,0.05424594295459227]","[1,1,1]","[0.08697139274355717,0.10192774227069179]","[1,1,1]","[0.03600380852401992,-0.1758156598257638]","[-1,-1,-1]","[-0.007819289901895628,-0.03533535902797554]","[1,1,1]","[0.13004970614776173,-0.13064884026229423]","[-1,-1,-1]","[0.02367517436982485,0.13485830083423764]","[1,1,1]","[-0.029136145539476275,0.012035914702275162]","[1,1,1]","[-0.08562153184120966,-0.1712430104862939]","[-1,-1,-1]","[-0.01128274249552546,0.15494604452579974]","[-1,-1,-1]","[-0.1399091802926825,0.09843899429629144]","[1,1,1]","[-0.10503006140982767,0.034683988372691335]","[-1,-1,-1]","[0.0718510862712545,-0.07563403332785183]","[-1,-1,-1]","[-0.07376158758777873,0.09692967564120912]","[-1,-1,-1]","[-0.13131726334044916,-0.10641889042379635]","[1,1,1]","[0.1526898928145361,0.07777931178242584]","[-1,-1,-1]","[-0.05807335210086001,0.183916001599002]","[-1,-1,-1]","[0.1456521947100294,0.13675835368410966]","[1,1,1]","[0.05049927685517324,-0.1226607536092828]","[-1,-1,-1]","[0.030869055635559063,-0.071735722999413]","[-1,-1,-1]","[0.11659744047092144,-0.059680412361446965]","[1,1,1]","[0.1337888455788198,0.03907550816993605]","[1,1,1]","[-0.1111228673848414,-0.02830692268391074]","[1,1,1]","[-0.0122492660188097,-0.19575954646584443]","[1,1,1]","[0.15388377613345544,-0.043900128544612706]","[-1,-1,-1]","[0.02,0.02]",203.9322,0,18,18,61,1,,,,,,,
,,,,,,,66ae2a21915bde402f570746,682db4ddce8e618f33fa5b8b,2025-05-21_13h14.36.943,cuing_paradigm_dot,2024.1.5,Win32,60.60606061,682d556593cb38ad0a074487,,,,,,,,,,,203.9333,204.432,,,204.6856,205.0514,left,,,,,,,,0.5,0.3582,,,,,,,204.4322,204.6855,205.0514,"[-0.05084079654534514,0.18035237814820604]","[-1,-1,-1]","[0.07206114497218741,0.08594183015193213]","[-1,-1,-1]","[-0.052075105213801806,0.06783424168158744]","[-1,-1,-1]","[0.13836377095481783,0.11165983665680942]","[-1,-1,-1]","[0.09550608393250226,0.13916707166333855]","[1,1,1]","[0.08884364320416678,-0.17870122365668173]","[1,1,1]","[0.003929725424247631,-0.03313963012155849]","[-1,-1,-1]","[0.06749556207825398,0.17299774895628725]","[1,1,1]","[-0.08807079672454801,-0.07476512845800592]","[-1,-1,-1]","[-0.050686276809802,0.1319171138726038]","[1,1,1]","[0.09832203976759853,-0.09292930637773525]","[-1,-1,-1]","[0.06306141605007531,-0.02484787445937735]","[1,1,1]","[0.03480382755193685,-0.09100316695536183]","[1,1,1]","[-0.09109212996405217,-0.12352033267073664]","[1,1,1]","[-0.19677987420463441,-0.03057724247019988]","[1,1,1]","[-0.09383089398600311,0.1271094409953245]","[1,1,1]","[-0.12090572262309529,0.03297530328851332]","[-1,-1,-1]","[-0.04422705340397622,-0.19467133465565495]","[1,1,1]","[-0.149243846748792,-0.013012240098099473]","[-1,-1,-1]","[0.059317282196885625,-0.1409612470820124]","[1,1,1]","[-0.005431129045735621,0.18346460310706703]","[1,1,1]","[-0.05054517436522567,-0.053584692454393304]","[1,1,1]","[-0.15434173017916125,-0.12677060538343107]","[-1,-1,-1]","[0.018691356601454552,0.07001887211501949]","[-1,-1,-1]","[0.1186105605518038,-0.1374904770344933]","[-1,-1,-1]","[-0.06568653667908116,-0.015206723836133217]","[-1,-1,-1]","[-0.15272461726243455,0.08345072005965826]","[-1,-1,-1]","[-0.02551465127655706,-0.09645210380533564]","[1,1,1]","[-0.00044598106443818956,0.12341420803495133]","[-1,-1,-1]","[0.17722444708812798,0.010884388004579842]","[1,1,1]","[0.011674458326791877,0.012780011857338488]","[1,1,1]","[0.14044176676286446,-0.04499968462189746]","[-1,-1,-1]","[0.02,0.02]",206.1495,0,19,19,91,1,,,,,,,
,,,,,,,66ae2a21915bde402f570746,682db4ddce8e618f33fa5b8b,2025-05-21_13h14.36.943,cuing_paradigm_dot,2024.1.5,Win32,60.60606061,682d556593cb38ad0a074487,,,,,,,,,,,206.1508,206.65,,,206.9061,207.1162,left,,,,,,,,0.45,0.1889,,,,,,,206.6502,206.9061,207.1164,"[0.1610307542175068,0.0628852681393256]","[1,1,1]","[-0.1266927047378525,-0.031111026499915456]","[-1,-1,-1]","[0.1255342113073769,-0.0866776525484393]","[1,1,1]","[-0.08447250797296522,0.1258691673464156]","[-1,-1,-1]","[-0.05780543145280467,0.03564039920858664]","[1,1,1]","[-0.14407383025202575,0.029378795376774874]","[1,1,1]","[-0.1682547091022622,-0.013476947380391674]","[-1,-1,-1]","[-0.039268952832064684,0.164227561407725]","[1,1,1]","[0.08806478419801775,-0.1642018417321375]","[-1,-1,-1]","[0.026131470922519346,-0.11184421889362435]","[-1,-1,-1]","[0.11529755341424172,0.019454116067774054]","[1,1,1]","[-0.056131122093384334,-0.06761087172657339]","[-1,-1,-1]","[0.027432406876696923,-0.05885541273735709]","[-1,-1,-1]","[0.12441978736483865,0.11880788324839704]","[-1,-1,-1]","[-0.017539790496991524,0.010760804328979679]","[-1,-1,-1]","[-0.172270411092622,-0.07768109332227813]","[1,1,1]","[-0.1192391117128705,-0.08627918535656955]","[-1,-1,-1]","[-0.16674300171042156,0.07041192072514299]","[1,1,1]","[-0.027915013957215084,0.10149850610964554]","[1,1,1]","[-0.07008723660075675,-0.014177121608950374]","[1,1,1]","[-0.041092354393479205,-0.17679083145718538]","[-1,-1,-1]","[-0.008529347436468611,-0.14507311936362802]","[-1,-1,-1]","[-0.07277078472775526,0.07491164177383272]","[-1,-1,-1]","[0.13229152637394118,-0.042936988064501996]","[1,1,1]","[0.0034432633392186287,0.06772017240298242]","[-1,-1,-1]","[-0.13655365909212086,-0.12798885728921186]","[-1,-1,-1]","[-0.013268297985840779,-0.08679340143777527]","[-1,-1,-1]","[0.030305256418265248,0.18377625734929395]","[1,1,1]","[0.04569029363321917,0.08890194208560562]","[-1,-1,-1]","[-0.015456367762847265,-0.04042106724052079]","[1,1,1]","[0.11193296776735844,0.06603608368955186]","[-1,-1,-1]","[0.08268326064377016,0.10497744105648787]","[1,1,1]","[0.02,0.02]",208.2161,0,20,20,66,1,,,,,,,
,,,,,,,66ae2a21915bde402f570746,682db4ddce8e618f33fa5b8b,2025-05-21_13h14.36.943,cuing_paradigm_dot,2024.1.5,Win32,60.60606061,682d556593cb38ad0a074487,,,,,,,,,,,208.2181,208.7162,,,208.9743,209.1826,right,,,,,,,,0.9,0.1932,,,,,,,208.7164,208.9742,209.1828,"[-0.17104454936317953,-0.06486915290075318]","[1,1,1]","[-0.06843731928137575,-0.03415759597006218]","[1,1,1]","[-0.10699157186875856,-0.07229563389801824]","[1,1,1]","[-0.15306001122864238,0.0964068063531857]","[1,1,1]","[-0.09523190743355948,0.10221699368123661]","[1,1,1]","[0.0350701291356836,-0.04535880859458777]","[1,1,1]","[0.1559501994985706,-0.07830499675243882]","[1,1,1]","[-0.18504749322890887,0.06404822367588567]","[1,1,1]","[-0.010879551771523692,-0.004554209095186]","[1,1,1]","[0.07209540775231736,0.029012453122853082]","[1,1,1]","[0.08185315558365172,0.16679208497887582]","[1,1,1]","[0.12884697586321825,-0.010251518711508683]","[1,1,1]","[0.13422854617930782,0.1215925357117794]","[1,1,1]","[0.027579142284332444,-0.11343605395521306]","[1,1,1]","[-0.01876891598796342,0.16682057741035353]","[1,1,1]","[-0.02087952357490523,-0.19691402572471745]","[1,1,1]","[-0.022675519684028537,-0.0648589768748544]","[1,1,1]","[-0.0720983451762737,0.170353622552639]","[1,1,1]","[-0.007448545319321661,0.049873049996425986]","[1,1,1]","[-0.046690045095014766,0.1111735930505418]","[1,1,1]","[0.12922640518472717,0.0378169946127689]","[1,1,1]","[0.1692973354136782,-0.011701184576031897]","[1,1,1]","[0.18369930650933844,0.07106953452087779]","[-1,-1,-1]","[0.019559012395560738,0.15068771949348456]","[1,1,1]","[-0.06812456494895318,-0.17970910224014452]","[1,1,1]","[0.03183324526109184,-0.16272923906941625]","[-1,-1,-1]","[-0.03271796417235791,-0.15114221864468802]","[1,1,1]","[-0.06943689362663233,0.02011564155382334]","[1,1,1]","[0.08403073379859607,0.09342166246106566]","[1,1,1]","[-0.18711319831255502,0.011994514404831262]","[1,1,1]","[0.09561449931272754,-0.09941739236964016]","[1,1,1]","[-0.12215974907468923,0.0012707751365751804]","[-1,-1,-1]","[0.02,0.02]",210.2839,0,21,21,201,1,,,,,,,
,,,,,,,66ae2a21915bde402f570746,682db4ddce8e618f33fa5b8b,2025-05-21_13h14.36.943,cuing_paradigm_dot,2024.1.5,Win32,60.60606061,682d556593cb38ad0a074487,,,,,,,,,,,210.2856,210.7831,,,211.0393,211.6836,right,,,,,,,,0.5,0.618,,,,,,,210.7833,211.0392,211.6839,"[-0.1501921613005686,0.11817809500310444]","[-1,-1,-1]","[-0.10138924052107878,0.07055342045629968]","[1,1,1]","[-0.012714641452790845,-0.016069723206511868]","[1,1,1]","[-0.11295369646140559,-0.10313299781741525]","[1,1,1]","[-0.02685047909487001,0.14617541839922418]","[-1,-1,-1]","[0.036665644845824345,-0.08791062101877307]","[-1,-1,-1]","[-0.025788041723173845,0.07172252761700214]","[1,1,1]","[0.01742861029969659,0.1716602369265653]","[1,1,1]","[-0.07191665776572559,0.00809853630353485]","[1,1,1]","[0.1421338758203644,0.018645602751082863]","[-1,-1,-1]","[0.14349322180022103,-0.11217716208851003]","[-1,-1,-1]","[-0.08524141924784195,0.13400466564264524]","[1,1,1]","[-0.03359348843885955,-0.082525929331718]","[1,1,1]","[-0.11781168307856767,-0.00430237013920698]","[-1,-1,-1]","[0.034689368057273066,-0.14259640184726194]","[-1,-1,-1]","[0.07516982789212992,0.11777280719192794]","[-1,-1,-1]","[-0.1511896090027326,0.056404682591676074]","[1,1,1]","[0.08094395090551502,-0.12993984034732523]","[1,1,1]","[-0.17763548025559525,-0.005078975486099296]","[1,1,1]","[-0.08649487771671512,-0.13695808092134606]","[-1,-1,-1]","[0.1296611199004879,0.13883426324473866]","[1,1,1]","[0.02912018008218973,-0.017997576585396056]","[-1,-1,-1]","[-0.00742026636937828,-0.1173828961683655]","[1,1,1]","[-0.06446577833767365,-0.18322840252790304]","[-1,-1,-1]","[0.09180377191497671,-0.060943888381411924]","[-1,-1,-1]","[0.035121771679777564,0.12828988229879626]","[-1,-1,-1]","[-0.07492361332910609,0.1799071773150724]","[-1,-1,-1]","[0.015618434142725676,-0.18237834960324256]","[1,1,1]","[0.1824029322425128,0.08048191262378575]","[-1,-1,-1]","[0.0808436024653468,0.01980137626898078]","[1,1,1]","[0.187341075042467,-0.06749462312979357]","[-1,-1,-1]","[0.11646280503699054,0.06120179188265125]","[1,1,1]","[0.02,0.02]",212.783,0,22,22,101,1,,,,,,,
,,,,,,,66ae2a21915bde402f570746,682db4ddce8e618f33fa5b8b,2025-05-21_13h14.36.943,cuing_paradigm_dot,2024.1.5,Win32,60.60606061,682d556593cb38ad0a074487,,,,,,,,,,,212.7844,213.2825,,,213.5218,213.7999,left,,,,,,,,0.5,0.2577,,,,,,,213.2827,213.5217,213.8,"[-0.011145186123505959,-0.14053910107657136]","[-1,-1,-1]","[-0.08825230513813559,0.040276519880762474]","[1,1,1]","[-0.013505451529989148,-0.041333860069670866]","[1,1,1]","[0.08173094983682475,-0.0935009560561902]","[-1,-1,-1]","[0.06732562975252132,0.13722809104049977]","[1,1,1]","[-0.13752603705727837,-0.05432362975123902]","[1,1,1]","[-0.07989826018613733,0.11933701382758753]","[1,1,1]","[-0.05442746488407505,-0.09931278022799535]","[1,1,1]","[0.1550805508678469,-0.10195766731205383]","[-1,-1,-1]","[-0.1390001092843149,-0.10081474022184245]","[-1,-1,-1]","[0.08694054119294625,0.06460867012514557]","[1,1,1]","[0.05334677289608033,-0.018605535183355427]","[-1,-1,-1]","[-0.14001322339543198,0.08563319626779435]","[-1,-1,-1]","[-0.10862229575622961,-0.16409911463152416]","[1,1,1]","[-0.17788571669670802,-0.08731219000520536]","[-1,-1,-1]","[0.04123737739531726,0.18010901632595394]","[1,1,1]","[-0.10007872455542624,0.1611610829244017]","[1,1,1]","[0.16770532086365428,0.014704864804117137]","[-1,-1,-1]","[0.11883909968014772,0.03246875402849965]","[-1,-1,-1]","[0.04304410466065896,-0.11031216745378142]","[1,1,1]","[-0.008652989074417599,-0.0004700076296414707]","[1,1,1]","[0.09614994120755506,-0.04148645038092778]","[1,1,1]","[-0.1269175093072852,0.02437644507984576]","[-1,-1,-1]","[-0.06257481600700841,-0.1809330000266724]","[1,1,1]","[0.004930579887061948,-0.083190169778448]","[-1,-1,-1]","[-0.017713040710638683,0.06686791468603927]","[1,1,1]","[0.14474150604670416,-0.03808564896346405]","[1,1,1]","[0.07030809654177145,-0.18686005047629206]","[-1,-1,-1]","[-0.1826896914051086,0.06955073109530638]","[-1,-1,-1]","[0.02696603261243971,-0.1804080582086447]","[-1,-1,-1]","[-0.09751052662691077,-0.042305034156827945]","[-1,-1,-1]","[0.1363210391455798,0.1059493480521587]","[-1,-1,-1]","[0.02,0.02]",214.8997,0,23,23,111,1,,,,,,,
,,,,,,,66ae2a21915bde402f570746,682db4ddce8e618f33fa5b8b,2025-05-21_13h14.36.943,cuing_paradigm_dot,2024.1.5,Win32,60.60606061,682d556593cb38ad0a074487,,,,,,,,,,,214.9009,215.3999,,,215.6532,215.9178,left,,,,,,,,0.5,0.2522,,,,,,,215.4,215.6532,215.9181,"[-0.1840480748452504,0.05867515121271669]","[-1,-1,-1]","[0.07772972710832395,0.044312658320316785]","[-1,-1,-1]","[0.02645974920293323,-0.007407946360334719]","[1,1,1]","[0.053736436230752395,-0.1608854592612888]","[-1,-1,-1]","[-0.0003875812709341697,0.037337075672042155]","[-1,-1,-1]","[-0.04193239769225349,-0.08753549053473902]","[1,1,1]","[0.15848207213282678,0.0745253939817412]","[-1,-1,-1]","[0.18998508145648244,-0.055285052495668265]","[1,1,1]","[0.07025266988106219,-0.12014489662298576]","[1,1,1]","[-0.11006105920819063,0.020350632545246335]","[-1,-1,-1]","[-0.06310385064990928,-0.15886492203364883]","[1,1,1]","[-0.10836455088914793,0.13826409770167017]","[-1,-1,-1]","[0.12193986856722518,0.039907016499514884]","[1,1,1]","[0.014676313767340422,0.19574636970966613]","[1,1,1]","[-0.04643152927786671,0.039170298786474954]","[-1,-1,-1]","[-0.06340385074552175,0.14476589127151607]","[1,1,1]","[0.0021396637976418076,-0.09349026758586108]","[1,1,1]","[-0.11848801632318924,0.08613676557212768]","[1,1,1]","[-0.18952231175200995,-0.042496650172343095]","[-1,-1,-1]","[-0.009649298729501628,0.08330810000443921]","[-1,-1,-1]","[0.11637248023254883,0.1079099696009928]","[-1,-1,-1]","[0.05003446774452139,-0.07465160560154117]","[1,1,1]","[0.14452408265231548,-0.09394481744241732]","[1,1,1]","[0.030216355748761324,-0.12199080911753524]","[-1,-1,-1]","[-0.1603510417873916,0.02124138517631549]","[1,1,1]","[-0.12282751974184308,-0.14231804356675]","[-1,-1,-1]","[-0.06350537105212359,0.10111565919570284]","[1,1,1]","[-0.11013651765667844,-0.05969033587575753]","[1,1,1]","[-0.008941695003046361,0.1436653365847511]","[-1,-1,-1]","[0.10142677251778721,-0.057647571965297136]","[-1,-1,-1]","[-0.04809546613650742,-0.02683751474952978]","[-1,-1,-1]","[0.09932685146873638,-0.005283990527873043]","[1,1,1]","[0.02,0.02]",217.0169,0,24,24,92,1,,,,,,,
,,,,,,,66ae2a21915bde402f570746,682db4ddce8e618f33fa5b8b,2025-05-21_13h14.36.943,cuing_paradigm_dot,2024.1.5,Win32,60.60606061,682d556593cb38ad0a074487,,,,,,,,,,,217.019,217.5159,,,217.7727,218,left,,,,,,,,0.45,0.2191,,,,,,,217.5159,217.7727,218.0001,"[0.1432741660580583,0.044659500564548]","[-1,-1,-1]","[-0.04820594920796814,-0.029895696038415173]","[1,1,1]","[-0.09708479019102259,0.17300222930937625]","[-1,-1,-1]","[-0.13727055880354203,-0.07283540777108564]","[-1,-1,-1]","[-0.0764303859103895,-0.06445164848739134]","[-1,-1,-1]","[-0.006299744516007971,-0.09361136510688035]","[-1,-1,-1]","[-0.06489947942498073,0.13750623758868674]","[-1,-1,-1]","[0.06007113303416811,0.04511634179099735]","[-1,-1,-1]","[0.10215287127492687,-0.007775339787506856]","[-1,-1,-1]","[0.12532372159864644,-0.12817093657605147]","[1,1,1]","[-0.05807379272510675,0.03900623540775691]","[-1,-1,-1]","[-0.12242466702811901,0.06731522353962094]","[1,1,1]","[0.05276271743629559,-0.1146575537289041]","[1,1,1]","[0.0798714615946821,0.10466980609963297]","[-1,-1,-1]","[0.05214455365781916,0.16439344044743862]","[-1,-1,-1]","[-0.08834192300242248,-0.0258643798262583]","[-1,-1,-1]","[-0.17923214485706987,0.044159928702821025]","[-1,-1,-1]","[0.17062798678471316,0.08199057464937198]","[-1,-1,-1]","[0.031724072335815576,-0.1597717899713947]","[-1,-1,-1]","[0.018925698084963184,-0.012101319139013715]","[-1,-1,-1]","[-0.00760242386574592,-0.18096237264606016]","[1,1,1]","[-0.05402818996160292,-0.11879687743463735]","[1,1,1]","[0.1696461240281748,-0.04632273776749893]","[1,1,1]","[-0.10657475109490161,-0.11092311453703765]","[1,1,1]","[0.010456189049256631,0.1963379441107541]","[-1,-1,-1]","[0.17808016769513713,0.00998199059136387]","[1,1,1]","[0.09854622323052006,0.06557713891487403]","[1,1,1]","[0.13333560142092027,-0.07029996576270983]","[1,1,1]","[0.14447668590831794,0.13423362669580807]","[-1,-1,-1]","[-0.13411811794251596,0.1253600489119367]","[1,1,1]","[-0.02356376739072265,0.14461541193387364]","[1,1,1]","[-0.005529818520190902,0.08531752164254512]","[1,1,1]","[0.02,0.02]",219.1,0,25,25,76,1,,,,,,,
,,,,,,,66ae2a21915bde402f570746,682db4ddce8e618f33fa5b8b,2025-05-21_13h14.36.943,cuing_paradigm_dot,2024.1.5,Win32,60.60606061,682d556593cb38ad0a074487,,,,,,,,,,,219.101,219.5993,,,219.8573,219.966,left,,,,,,,,0.55,0.0918,,,,,,,219.5995,219.8573,219.9661,"[0.0839100507095465,-0.15393358102460683]","[-1,-1,-1]","[-0.05820441211466477,0.04024680348591682]","[1,1,1]","[0.08867705299008465,-0.061641460096103856]","[1,1,1]","[-0.1708065178532641,-0.06542076825250692]","[1,1,1]","[-0.05135447202803258,0.19225591129947228]","[-1,-1,-1]","[-0.09527621517445645,0.12439981277591253]","[1,1,1]","[0.04211344299121536,0.1948157194540476]","[-1,-1,-1]","[0.07196427709962624,0.1339629004032757]","[-1,-1,-1]","[-0.013417538900644689,0.09872289620490515]","[1,1,1]","[0.09000637213608847,0.03279171243714075]","[-1,-1,-1]","[-0.015442750505525547,-0.0781450332726539]","[1,1,1]","[-0.06630194819993517,-0.1337027288549451]","[-1,-1,-1]","[-0.12443283900768798,-0.14827952280417012]","[1,1,1]","[-0.03490300168514174,-0.03902265495458733]","[-1,-1,-1]","[0.13918128412220662,0.005906196069710786]","[1,1,1]","[0.016756391934814818,-0.021750651293295932]","[1,1,1]","[-0.19151931122167823,0.002285641483544837]","[-1,-1,-1]","[0.060121340543822996,-0.01969064888555792]","[1,1,1]","[-0.058152965927276166,0.08077048015333671]","[-1,-1,-1]","[0.12774986266152474,0.06652596985575361]","[-1,-1,-1]","[-0.12033008751252029,0.028617562541999625]","[-1,-1,-1]","[0.14501306066435818,-0.07619040542973392]","[-1,-1,-1]","[0.027961594602704528,-0.16569484259948622]","[-1,-1,-1]","[-0.09878750859129073,-0.10371820647861736]","[1,1,1]","[-0.1808282712888334,0.046871273201687456]","[1,1,1]","[0.018333044063901155,0.027623665053999887]","[1,1,1]","[0.1374428291903629,-0.12056201714566524]","[1,1,1]","[0.19206367048564982,-0.024713433329214003]","[1,1,1]","[-0.1281034633528589,0.077194640941907]","[1,1,1]","[0.14639016941748237,0.10528777291873863]","[1,1,1]","[-0.03439007679524945,-0.16607334271310184]","[-1,-1,-1]","[-0.08935517770900497,-0.03903560377686885]","[1,1,1]","[0.02,0.02]",221.0674,0,26,26,135,1,,,,,,,
,,,,,,,66ae2a21915bde402f570746,682db4ddce8e618f33fa5b8b,2025-05-21_13h14.36.943,cuing_paradigm_dot,2024.1.5,Win32,60.60606061,682d556593cb38ad0a074487,,,,,,,,,,,221.0687,221.5667,,,221.8062,222.1158,left,,,,,,,,0.45,0.3017,,,,,,,221.5669,221.8062,222.116,"[0.16263073770803094,0.10202026159169279]","[-1,-1,-1]","[0.08952368199753809,0.1335835243914192]","[-1,-1,-1]","[0.062404731801034764,0.1026779743141803]","[-1,-1,-1]","[0.02722370429786217,-0.09318243637032406]","[-1,-1,-1]","[0.07427852381053242,0.04616193966227539]","[1,1,1]","[0.13134092834480626,-0.011640347323929122]","[-1,-1,-1]","[0.03248606069533611,-0.046713580219627876]","[-1,-1,-1]","[0.13114528577132675,-0.09466456729684579]","[-1,-1,-1]","[-0.12160469978826392,0.03372797538554231]","[-1,-1,-1]","[-0.11862974730250166,0.14583996528701232]","[-1,-1,-1]","[0.020332138638418512,0.12543890144107644]","[1,1,1]","[0.19679478804037015,0.03269142771284635]","[-1,-1,-1]","[-0.06360569283844979,0.06578973485763835]","[1,1,1]","[-0.029974975016645592,0.038029961474345966]","[-1,-1,-1]","[-0.09870544744013267,-0.1531723496991595]","[-1,-1,-1]","[0.19341469362435193,-0.009193326156419452]","[-1,-1,-1]","[-0.16596673832478173,0.10690868203120961]","[1,1,1]","[0.0024693697832034868,-0.17056620275005416]","[1,1,1]","[-0.06444853230039609,-0.0618720144745337]","[1,1,1]","[-0.07478138234713655,0.007160149789518121]","[1,1,1]","[-0.1569153872752095,0.05918034094736099]","[-1,-1,-1]","[-0.024396607142588296,-0.0112733587832312]","[1,1,1]","[-0.19662523530875323,0.03494632289159201]","[1,1,1]","[-0.023280788788756588,-0.06944680956448358]","[-1,-1,-1]","[-0.05124456037042685,0.12946621317017257]","[-1,-1,-1]","[0.01985624356339424,0.04590837444858509]","[-1,-1,-1]","[-0.06561371894241877,-0.17867900941287826]","[1,1,1]","[-0.16998100230606947,-0.09009727119550583]","[-1,-1,-1]","[-0.008011992023984652,-0.1267414093821789]","[1,1,1]","[0.04499209381050543,0.0005156852767820039]","[1,1,1]","[0.009121595671300898,0.19534158232072613]","[1,1,1]","[0.11236495045526626,-0.16498905408057474]","[1,1,1]","[0.02,0.02]",223.2158,0,27,27,87,1,,,,,,,
,,,,,,,66ae2a21915bde402f570746,682db4ddce8e618f33fa5b8b,2025-05-21_13h14.36.943,cuing_paradigm_dot,2024.1.5,Win32,60.60606061,682d556593cb38ad0a074487,,,,,,,,,,,223.2173,223.7161,,,223.972,224.3331,right,,,,,,,,0.55,0.349,,,,,,,223.7163,223.972,224.3332,"[-0.010202236614733809,0.11037252417539171]","[-1,-1,-1]","[0.035637632015564275,-0.1614995644331559]","[-1,-1,-1]","[-0.020266571781426802,-0.0349385812309168]","[1,1,1]","[-0.189653284933253,-0.0015044862990084796]","[1,1,1]","[0.17115897361241178,-0.03628262747706098]","[-1,-1,-1]","[0.09345346447501772,0.0060036200167277246]","[1,1,1]","[-0.04274505718161675,0.03869881818647113]","[1,1,1]","[0.07805502381846573,-0.03725059854167016]","[-1,-1,-1]","[0.039474513293142235,-0.10503450118416706]","[1,1,1]","[-0.06571831558657265,0.07407344945736201]","[1,1,1]","[0.12868280459403003,0.0687083531363739]","[1,1,1]","[-0.1345549059843785,0.14239280834501247]","[1,1,1]","[0.03506856248934845,-0.05502315874890673]","[1,1,1]","[-0.049200368643249656,0.1798062330763955]","[1,1,1]","[-0.11236240285043793,-0.004789859854406153]","[-1,-1,-1]","[0.03136881704268872,0.08906259605814944]","[1,1,1]","[0.0812780539523707,0.14044332732615744]","[1,1,1]","[-0.18641134561491254,0.0672893795166759]","[-1,-1,-1]","[0.07637667551336111,0.06629445898275495]","[-1,-1,-1]","[-0.06065464496233285,-0.08291413205686435]","[-1,-1,-1]","[0.056152764814508864,0.021497951774157757]","[-1,-1,-1]","[-0.005504249784765489,0.15493146651853784]","[1,1,1]","[0.1729796488938854,0.0666667576814932]","[-1,-1,-1]","[-0.1359387431090495,-0.09028130490279908]","[1,1,1]","[0.13978888015173604,-0.13549921971889978]","[1,1,1]","[-0.1397761548660035,-0.1324944817597407]","[-1,-1,-1]","[-0.03591642522382997,-0.16046309975688433]","[1,1,1]","[0.07055928535168712,-0.13823538522914836]","[-1,-1,-1]","[0.02909268090470253,0.19232111645567945]","[-1,-1,-1]","[0.14361428477742516,-0.0017858242072977643]","[1,1,1]","[-0.09345301589208271,-0.15978781303947262]","[1,1,1]","[0.18295905089694897,0.020518628396629587]","[-1,-1,-1]","[0.02,0.02]",225.4332,0,28,28,127,1,,,,,,,
,,,,,,,66ae2a21915bde402f570746,682db4ddce8e618f33fa5b8b,2025-05-21_13h14.36.943,cuing_paradigm_dot,2024.1.5,Win32,60.60606061,682d556593cb38ad0a074487,,,,,,,,,,,225.4346,225.9341,,,226.1742,226.4494,left,,,,,,,,0.1,0.2605,,,,,,,225.9343,226.1741,226.4495,"[0.15192209086264497,0.05759708622779483]","[-1,-1,-1]","[0.044532865850379896,0.02345697535115363]","[-1,-1,-1]","[0.05745660007336656,0.1461422604819159]","[-1,-1,-1]","[-0.004330770638065948,0.06132973364120241]","[-1,-1,-1]","[-0.11555364515102814,-0.08565567335697291]","[-1,-1,-1]","[-0.009254910966132374,-0.09031342919081142]","[-1,-1,-1]","[0.08367270982026245,-0.14826572209899488]","[-1,-1,-1]","[-0.08440900893304937,0.17175175817517108]","[-1,-1,-1]","[-0.08518790362748443,0.017126877747076497]","[-1,-1,-1]","[0.13486416900162324,-0.05915824321798894]","[-1,-1,-1]","[0.1379910505234021,-0.014784337423657166]","[-1,-1,-1]","[-0.09702993816605561,0.09657568243164714]","[-1,-1,-1]","[-0.09875742470842148,-0.03815774184922616]","[-1,-1,-1]","[0.03385007843036194,-0.07048029659590178]","[-1,-1,-1]","[0.04073912961597907,-0.14000257389634957]","[-1,-1,-1]","[0.16733192798801827,-0.09010355580973298]","[-1,-1,-1]","[-0.11281954552908109,0.05287362087022565]","[-1,-1,-1]","[-0.054154363638564275,-0.17984101417746992]","[-1,-1,-1]","[0.17409450420758812,-0.045976098566931085]","[-1,-1,-1]","[-0.18736057904996248,0.026728324556787073]","[-1,-1,-1]","[0.008362262384110265,-0.03806066631724273]","[-1,-1,-1]","[0.030940379170714648,0.1918574305484991]","[-1,-1,-1]","[-0.001544109533598185,0.13271278785531568]","[1,1,1]","[0.1410095763210417,0.09809128714940488]","[-1,-1,-1]","[-0.18400515049324728,-0.061531885924622005]","[1,1,1]","[-0.11034412477997833,-0.12571058574436603]","[-1,-1,-1]","[0.08769900826846282,-0.016437470307036833]","[-1,-1,-1]","[-0.04947401465381041,-0.05232786120437318]","[1,1,1]","[0.08178353273037005,-0.08686110477485089]","[-1,-1,-1]","[0.1823061281748764,-0.0008504441201393028]","[-1,-1,-1]","[0.12009041781993929,-0.11371526345094428]","[-1,-1,-1]","[-0.03099179990046599,-0.011925424756321263]","[-1,-1,-1]","[0.02,0.02]",227.5503,0,29,29,9,1,,,,,,,
,,,,,,,66ae2a21915bde402f570746,682db4ddce8e618f33fa5b8b,2025-05-21_13h14.36.943,cuing_paradigm_dot,2024.1.5,Win32,60.60606061,682d556593cb38ad0a074487,,,,,,,,,,,227.5518,228.0493,,,228.3073,228.9871,right,,,,,,,,0.55,0.6614,,,,,,,228.0495,228.3072,228.9871,"[-0.12225775198683278,0.11083257827497839]","[-1,-1,-1]","[-0.08444169433790545,-0.1657083466148566]","[-1,-1,-1]","[-0.11710537918933729,0.040528781842636294]","[-1,-1,-1]","[0.11953824812927843,0.05120860512027824]","[-1,-1,-1]","[0.04672652628610356,0.07264767881756597]","[-1,-1,-1]","[0.00901601332760968,0.039253537855611115]","[-1,-1,-1]","[-0.06101428738955206,-0.09743868074536693]","[-1,-1,-1]","[0.05920783908877294,0.1408906530504202]","[-1,-1,-1]","[0.051251606885904265,0.1899256485388972]","[1,1,1]","[-0.0729635573424647,0.16342156133085614]","[1,1,1]","[-0.16796340384163438,-0.07178199124668182]","[1,1,1]","[-0.11867970809212705,-0.08407235519288064]","[1,1,1]","[-0.034250362140753526,-0.1860115319284251]","[1,1,1]","[-0.08065872342006107,0.009436559432869791]","[1,1,1]","[0.08534616744780492,0.012185812210493547]","[1,1,1]","[-0.1505986724704456,0.007901819425531626]","[-1,-1,-1]","[0.03024069779351176,-0.034834222451848286]","[1,1,1]","[-0.1627761775009306,0.053609820197545274]","[1,1,1]","[-0.03503578460347778,0.06295599358558072]","[1,1,1]","[-0.11311200441892356,-0.1342318727574403]","[1,1,1]","[-0.00900021651568457,-0.08473452591727389]","[-1,-1,-1]","[-0.13737564616800338,-0.03403077082031874]","[-1,-1,-1]","[0.15990040891192522,0.06504623863528607]","[1,1,1]","[0.025961090928755003,-0.18081790775681025]","[1,1,1]","[0.18627955055890297,-0.05576907844017086]","[1,1,1]","[0.11793309141013163,-0.13661727092663103]","[1,1,1]","[-0.07705802580117237,0.08706582450133378]","[1,1,1]","[0.18466742498290126,0.02264826432213619]","[-1,-1,-1]","[0.03453717893910614,-0.08143790951018862]","[-1,-1,-1]","[0.15123553960740715,-0.0004827064989618526]","[1,1,1]","[0.051641121021301625,-0.13340426942113723]","[-1,-1,-1]","[-0.04165611501710898,0.10823287954399695]","[1,1,1]","[0.02,0.02]",230.0835,0,30,30,120,1,,,,,,,
,,,,,,,66ae2a21915bde402f570746,682db4ddce8e618f33fa5b8b,2025-05-21_13h14.36.943,cuing_paradigm_dot,2024.1.5,Win32,60.60606061,682d556593cb38ad0a074487,,,,,,,,,,,230.0845,230.5836,,,230.8229,231.0667,left,,,,,,,,0.1,0.2184,,,,,,,230.5839,230.8229,231.0668,"[-0.1490809073607616,0.019502873433882274]","[-1,-1,-1]","[0.09376263815274455,-0.10535257448427378]","[-1,-1,-1]","[0.11484724692495954,-0.052476961591782924]","[-1,-1,-1]","[-0.04905001007459074,0.022877951098594255]","[-1,-1,-1]","[-0.021017905441196496,0.13718725266595438]","[-1,-1,-1]","[-0.07747020368682088,-0.08983421879324027]","[-1,-1,-1]","[0.17482239980640188,0.012580713378378851]","[-1,-1,-1]","[0.05033228177142572,0.11257057189204218]","[1,1,1]","[0.005105079814534807,-0.06721912451295953]","[-1,-1,-1]","[0.07644823596128422,-0.030162626374429215]","[-1,-1,-1]","[0.1339511415797016,-0.1436263432099021]","[-1,-1,-1]","[-0.14588600623282028,-0.10447807634650723]","[-1,-1,-1]","[0.07953835307561274,0.07352025460657254]","[-1,-1,-1]","[-0.10653757390491533,-0.16131618062602823]","[-1,-1,-1]","[-0.037623338465468927,0.09242440560433315]","[-1,-1,-1]","[-0.13076541835370445,0.11706479909430025]","[-1,-1,-1]","[-0.0307498671956901,0.18901365967437064]","[1,1,1]","[-0.08593896123555636,0.11540553024756825]","[-1,-1,-1]","[-0.023431231936304465,-0.18724871833978918]","[-1,-1,-1]","[-0.1402133707201044,0.0707215045723647]","[-1,-1,-1]","[0.07914487447746049,0.16561379263663686]","[-1,-1,-1]","[0.1306686922563353,0.02150482166982128]","[-1,-1,-1]","[0.1763704187899925,-0.06786403146326778]","[-1,-1,-1]","[0.014650011818589116,0.06292274631562983]","[-1,-1,-1]","[0.052279371563941204,0.025983708255048397]","[-1,-1,-1]","[-0.07655651452190357,0.1814152932320299]","[-1,-1,-1]","[-0.07482703722195132,-0.046041595562315726]","[-1,-1,-1]","[-0.022199245832482586,-0.09719531952793309]","[-1,-1,-1]","[-0.14748096219868678,-0.026478086946922337]","[-1,-1,-1]","[-0.034493244781702,-0.04168450483389652]","[-1,-1,-1]","[-0.17322130174896358,0.09922126103799356]","[1,1,1]","[0.04896369256709416,-0.19324541694507216]","[-1,-1,-1]","[0.02,0.02]",232.1571,0,31,31,27,1,,,,,,,
,,,,,,,66ae2a21915bde402f570746,682db4ddce8e618f33fa5b8b,2025-05-21_13h14.36.943,cuing_paradigm_dot,2024.1.5,Win32,60.60606061,682d556593cb38ad0a074487,,,,,,,,,,,232.1574,232.6519,,,232.8924,233.2173,right,,,,,,,,0.6,0.3148,,,,,,,232.6522,232.8923,233.2175,"[-0.12432542610649924,0.09136160560814718]","[1,1,1]","[-0.13882149515261996,-0.05117287044068167]","[1,1,1]","[-0.05285990712997732,0.1741717067552758]","[-1,-1,-1]","[-0.06233290214501479,-0.14404757898517498]","[-1,-1,-1]","[0.01978122898575475,0.1266541970832357]","[1,1,1]","[0.05489666746655661,-0.05151120795265611]","[1,1,1]","[-0.013035705076220521,-0.12793760512127478]","[1,1,1]","[0.1332874614664616,0.02071826590343586]","[1,1,1]","[-0.03615384435118813,0.0346753425405719]","[1,1,1]","[-0.16276207866481665,0.07686935692530923]","[-1,-1,-1]","[0.08544331242091713,-0.13959930563330925]","[1,1,1]","[-0.11411148380220107,-0.002298031381587659]","[1,1,1]","[0.03212873393601209,0.023773911176692385]","[1,1,1]","[0.1568734962517094,-0.03886606676942364]","[1,1,1]","[0.0713471852360846,0.1679823027476143]","[1,1,1]","[-0.021064073625412287,0.14568674130880555]","[-1,-1,-1]","[0.1819804410286369,0.06272191199944654]","[1,1,1]","[-0.11101256046578611,-0.11118772979500387]","[-1,-1,-1]","[-0.0309088892120852,-0.05628253251155075]","[1,1,1]","[-0.09111804405759363,-0.05404763709575947]","[-1,-1,-1]","[-0.14086087229468516,0.040364325982913646]","[-1,-1,-1]","[0.07577319210009432,-0.0867378909011075]","[-1,-1,-1]","[0.11316886017224422,0.07067837860554832]","[1,1,1]","[-0.1915349574648556,0.04147764322020948]","[-1,-1,-1]","[0.026421803834526195,-0.08158115061810482]","[1,1,1]","[-0.0871644176897112,0.1181352811085501]","[-1,-1,-1]","[0.0703152490441246,0.04414641530235624]","[1,1,1]","[-0.029548070027837235,0.09279099185851797]","[-1,-1,-1]","[0.19408151979502047,-0.015675938050036003]","[-1,-1,-1]","[0.1275310064067758,0.11267294879172163]","[1,1,1]","[0.11565862799462957,-0.07995353605413409]","[-1,-1,-1]","[-0.12703067638919877,-0.14900853898048805]","[1,1,1]","[0.02,0.02]",234.3177,0,32,32,168,1,,,,,,,
,,,,,,,66ae2a21915bde402f570746,682db4ddce8e618f33fa5b8b,2025-05-21_13h14.36.943,cuing_paradigm_dot,2024.1.5,Win32,60.60606061,682d556593cb38ad0a074487,,,,,,,,,,,234.3194,234.817,,,235.0753,235.385,left,,,,,,,,0.6,0.2847,,,,,,,234.8172,235.0752,235.3852,"[0.014536838775094839,0.13335688515535066]","[1,1,1]","[0.09512527075079726,-0.1292867775829491]","[-1,-1,-1]","[-0.07708942183050727,0.12318421269832264]","[1,1,1]","[0.1679329647240083,-0.0015930894037541404]","[-1,-1,-1]","[-0.04519841107633768,-0.006669591226817969]","[1,1,1]","[0.048501510886687776,-0.04969207709358077]","[1,1,1]","[-0.08285102986274152,-0.1741960392644264]","[1,1,1]","[-0.12613916516183177,0.006911530567080177]","[-1,-1,-1]","[0.08290609439994549,-0.09063996105505726]","[1,1,1]","[-0.059267415198361546,0.07937084433039113]","[-1,-1,-1]","[0.12515186972889658,-0.0598507319636266]","[1,1,1]","[-0.1824024739745288,-0.05113527844926473]","[-1,-1,-1]","[-0.11542507422420986,-0.1256473976237304]","[1,1,1]","[-0.1423013940614423,-0.04360964058669654]","[-1,-1,-1]","[0.04054164821304765,-0.1666943636758794]","[-1,-1,-1]","[0.08329034522691342,0.031175286003223116]","[-1,-1,-1]","[0.17942563586435764,0.07187726227714214]","[1,1,1]","[-0.18169902180313635,0.07680543071597053]","[1,1,1]","[0.17175398566422218,-0.04837689914635004]","[1,1,1]","[0.027583717383923664,0.05955406987809891]","[1,1,1]","[-0.02444273735233304,-0.08412286200013538]","[-1,-1,-1]","[-0.15780654323921695,-0.10429682150603051]","[-1,-1,-1]","[0.06553046259074458,0.17111554188385167]","[1,1,1]","[0.061516375333750546,-0.00838667105703699]","[-1,-1,-1]","[-0.02283836385049058,0.15175077711436047]","[1,1,1]","[0.1336677600293718,0.09820601410803768]","[-1,-1,-1]","[0.11997002867388243,0.010292254077766334]","[-1,-1,-1]","[0.035021902171075744,-0.09430068957416482]","[1,1,1]","[-0.12476979141449064,0.10762276103836788]","[1,1,1]","[0.16424838826647759,-0.1132059961540461]","[1,1,1]","[-0.13343366585655628,0.051704276124551106]","[1,1,1]","[-0.04755787893296454,0.18625190352196289]","[1,1,1]","[0.02,0.02]",236.4839,0,33,33,159,1,,,,,,,
,,,,,,,66ae2a21915bde402f570746,682db4ddce8e618f33fa5b8b,2025-05-21_13h14.36.943,cuing_paradigm_dot,2024.1.5,Win32,60.60606061,682d556593cb38ad0a074487,,,,,,,,,,,236.4855,236.9847,,,237.2263,237.5012,left,,,,,,,,0.1,0.2547,,,,,,,236.9849,237.2261,237.5014,"[-0.023600407920898524,0.0427357287176651]","[-1,-1,-1]","[0.13210973289950723,0.1429983664955362]","[-1,-1,-1]","[-0.06903343381752193,-0.14673253039424922]","[-1,-1,-1]","[0.07071841095889063,-0.034417197752191334]","[-1,-1,-1]","[-0.16210495509305003,0.015912712299077435]","[-1,-1,-1]","[0.03127361167659466,0.07288707454220003]","[-1,-1,-1]","[-0.026972982011450666,0.1364830893497795]","[-1,-1,-1]","[0.05592915542167437,-0.1554972967853224]","[-1,-1,-1]","[-0.0825576365748296,0.007288248297373885]","[-1,-1,-1]","[0.010720890840592481,-0.019148867870606004]","[-1,-1,-1]","[0.00717471333358368,0.18358307054995918]","[1,1,1]","[0.006108917246630879,-0.14926167734215148]","[-1,-1,-1]","[-0.10313644493252516,0.1558273167532916]","[-1,-1,-1]","[-0.09954260336139137,-0.08031485921669626]","[1,1,1]","[-0.004304419692857298,-0.0659315872339351]","[-1,-1,-1]","[-0.16106391851982033,0.09010269568133093]","[-1,-1,-1]","[0.1715524066143308,-0.031197102029887493]","[-1,-1,-1]","[-0.0700702154365862,-0.03915313129598908]","[-1,-1,-1]","[-0.10319765397210481,-0.16953563199881333]","[-1,-1,-1]","[0.17318646276360197,0.022950991790713523]","[-1,-1,-1]","[-0.04213655100018416,0.19355005762101554]","[-1,-1,-1]","[-0.1251906077043348,-0.0025364479425768866]","[-1,-1,-1]","[0.14261545303510287,0.08826087773906889]","[-1,-1,-1]","[-0.14689079281431763,-0.05166977572344825]","[-1,-1,-1]","[0.09370454440432577,0.004995351451198321]","[-1,-1,-1]","[-0.1895744993473899,-0.050370958058995906]","[-1,-1,-1]","[-0.0909057136414358,0.05639209702719134]","[1,1,1]","[0.055866443186763,-0.08133893499680302]","[-1,-1,-1]","[-0.12352283356270273,-0.11494634038773636]","[-1,-1,-1]","[-0.0026494590707824544,0.09742421056035455]","[-1,-1,-1]","[-0.028846740673611898,-0.1864284322471536]","[-1,-1,-1]","[0.0841463995815371,0.14657328645545106]","[-1,-1,-1]","[0.02,0.02]",238.6009,0,34,34,15,1,,,,,,,
,,,,,,,66ae2a21915bde402f570746,682db4ddce8e618f33fa5b8b,2025-05-21_13h14.36.943,cuing_paradigm_dot,2024.1.5,Win32,60.60606061,682d556593cb38ad0a074487,,,,,,,,,,,238.6021,239.1012,,,239.3594,239.5677,right,,,,,,,,0.9,0.1861,,,,,,,239.1015,239.3593,239.568,"[0.1637976455068949,-0.05461808100267784]","[1,1,1]","[-0.014285542458498838,-0.13064172928760345]","[1,1,1]","[0.06923020095081774,-0.04938103094946623]","[1,1,1]","[0.14069334519893137,-0.1300182433359254]","[1,1,1]","[0.001542427118482286,-0.05822844256183033]","[1,1,1]","[0.09269123654359868,0.12589895242402208]","[1,1,1]","[-0.19239397746267736,0.027667099254590353]","[1,1,1]","[0.023335398652760866,0.05935905968822948]","[1,1,1]","[-0.10607516024602844,0.13218933838069108]","[-1,-1,-1]","[-0.039569335342751435,-0.17214710280222575]","[1,1,1]","[-0.14724837545085537,0.10282586723306249]","[1,1,1]","[0.06375315319984522,-0.0962582550030026]","[1,1,1]","[-0.06555924308826747,-0.08788975820693136]","[1,1,1]","[-0.12349197696612743,0.05436969657894274]","[-1,-1,-1]","[0.05456359347106704,0.01473233799741341]","[1,1,1]","[0.11925526564024225,-0.0399286896742334]","[1,1,1]","[0.0190582963036951,-0.004614767190155599]","[1,1,1]","[0.034170049864154776,0.1601828746182362]","[1,1,1]","[-0.04441290643060775,0.08687088203131883]","[1,1,1]","[-0.09563020031574429,-0.00010858243664774177]","[1,1,1]","[0.13913109256416648,0.05738621349897116]","[1,1,1]","[0.06199349514218578,0.08442489778713842]","[1,1,1]","[-0.11835925627556675,-0.11097318215734821]","[1,1,1]","[0.13822838813197943,0.13325036405803375]","[1,1,1]","[0.07360480794394696,0.17327974076907282]","[1,1,1]","[0.10040997164348114,0.027896873966643806]","[1,1,1]","[-0.18362406563117445,-0.04469694599403898]","[1,1,1]","[-0.1072293446555938,-0.061748693068825675]","[1,1,1]","[0.17563746230872598,-0.09413936577949193]","[1,1,1]","[-0.018326561772199244,0.13471778076761187]","[1,1,1]","[-0.09535784526522055,-0.17358864690603523]","[-1,-1,-1]","[0.004486550784775778,-0.16751738544307115]","[1,1,1]","[0.02,0.02]",240.6669,0,35,35,194,1,,,,,,,
,,,,,,,66ae2a21915bde402f570746,682db4ddce8e618f33fa5b8b,2025-05-21_13h14.36.943,cuing_paradigm_dot,2024.1.5,Win32,60.60606061,682d556593cb38ad0a074487,,,,,,,,,,,240.6681,241.1672,,,241.4097,241.6847,left,,,,,,,,0.45,0.2656,,,,,,,241.1674,241.4096,241.6848,"[-0.07546952324794193,0.0009785410483144153]","[1,1,1]","[0.010247518684104744,0.1522083995893857]","[-1,-1,-1]","[-0.0201490955458938,-0.12816565844506722]","[1,1,1]","[0.09942364726324492,0.0864035453379375]","[1,1,1]","[0.017658381029114663,-0.09009582235354484]","[1,1,1]","[0.11430298046006719,-0.026426586300316655]","[-1,-1,-1]","[-0.00018772136660240722,0.19514945554684981]","[1,1,1]","[0.070263560533153,-0.17247877311274876]","[1,1,1]","[-0.04424246598469877,0.06246602343554095]","[-1,-1,-1]","[-0.0529210734557076,0.17269419425293062]","[-1,-1,-1]","[-0.02503110516696525,-0.19788078274289278]","[1,1,1]","[0.15112568038051705,0.003371480371566483]","[-1,-1,-1]","[0.06933694506283684,0.013684084523334205]","[-1,-1,-1]","[-0.07891860116453667,0.1057874603307402]","[-1,-1,-1]","[0.11870480791141677,-0.12224778154152224]","[-1,-1,-1]","[-0.16677831298060886,0.10584598644513311]","[1,1,1]","[0.0638686989609528,-0.07018679753138458]","[-1,-1,-1]","[0.0637198534041669,0.18514846380187694]","[1,1,1]","[0.005259502768970983,-0.038230693118972765]","[1,1,1]","[-0.18325453392574542,0.052122111599855164]","[-1,-1,-1]","[-0.13877961423112842,-0.10308643536557145]","[-1,-1,-1]","[0.14512905247603292,-0.05350745038787819]","[-1,-1,-1]","[-0.009415417429416893,0.01626397235534189]","[-1,-1,-1]","[0.1562490158901979,0.10008091130977533]","[1,1,1]","[-0.10768944145946568,-0.03726801717744152]","[-1,-1,-1]","[0.01943063963223463,-0.1844204964604488]","[-1,-1,-1]","[-0.03660607393991566,0.1127957520883116]","[1,1,1]","[-0.08373663856742346,-0.1796248447366991]","[1,1,1]","[0.18127134362105662,-0.0788738527245944]","[1,1,1]","[0.04839258885912226,0.09064335102804863]","[-1,-1,-1]","[-0.13274717649968462,0.07475860810958156]","[-1,-1,-1]","[-0.08891290751120368,0.14960879400274274]","[-1,-1,-1]","[0.02,0.02]",242.7844,0,36,36,73,1,,,,,,,
,,,,,,,66ae2a21915bde402f570746,682db4ddce8e618f33fa5b8b,2025-05-21_13h14.36.943,cuing_paradigm_dot,2024.1.5,Win32,60.60606061,682d556593cb38ad0a074487,,,,,,,,,,,242.7868,243.2854,,,243.5383,243.7852,right,,,,,,,,0.5,0.236,,,,,,,243.2857,243.5383,243.7854,"[0.034066718947954856,0.1438503162507503]","[-1,-1,-1]","[-0.12545881742803508,0.01070048042768771]","[-1,-1,-1]","[-0.04133094312574529,0.19168782110231605]","[1,1,1]","[0.15050402587168138,-0.007128352697170224]","[1,1,1]","[0.0866143990690167,-0.09963891215751594]","[1,1,1]","[-0.04821514451951632,0.04143392023115541]","[1,1,1]","[0.04587512689269571,-0.18266339404807017]","[-1,-1,-1]","[0.1393828934772751,-0.052027668067532236]","[-1,-1,-1]","[0.18882574380099165,0.060892693054815636]","[1,1,1]","[-0.16261550215159096,0.09758841864953927]","[-1,-1,-1]","[0.008288947454479808,0.18286896864395027]","[-1,-1,-1]","[-0.009150743836019682,-0.10104996518073783]","[-1,-1,-1]","[-0.12890237314136083,0.13453402614703924]","[-1,-1,-1]","[0.0974473473551365,0.13418300471370034]","[-1,-1,-1]","[-0.047551996240201636,0.09832681026533971]","[-1,-1,-1]","[-0.1016953980825744,0.09050673224195874]","[-1,-1,-1]","[0.001276571053425884,-0.04309567709899071]","[1,1,1]","[0.038178960570902906,0.062466960038529896]","[-1,-1,-1]","[-0.17979578897413184,-0.07183676154253908]","[1,1,1]","[-0.07690757920366606,0.142913731133984]","[-1,-1,-1]","[-0.042169224891457226,-0.18265247488978145]","[1,1,1]","[-0.08352946329906491,-0.04030823190925909]","[-1,-1,-1]","[0.11486220677971691,0.06581015918297194]","[-1,-1,-1]","[0.031394699521244074,-0.10643979024498243]","[1,1,1]","[-0.036484341162785976,-0.018498083825302717]","[-1,-1,-1]","[-0.060299579382842,-0.09838312345213532]","[1,1,1]","[0.004172871539774728,0.10226919957012169]","[1,1,1]","[0.1399263962711339,-0.10682701463087482]","[1,1,1]","[0.05864635867109372,0.18216278556732024]","[1,1,1]","[-0.16866755934005676,0.04671597507073238]","[1,1,1]","[0.1542655963351669,0.10934161315551003]","[1,1,1]","[0.05441658701175323,-0.006026659889391762]","[1,1,1]","[0.02,0.02]",244.8852,0,37,37,95,1,,,,,,,
,,,,,,,66ae2a21915bde402f570746,682db4ddce8e618f33fa5b8b,2025-05-21_13h14.36.943,cuing_paradigm_dot,2024.1.5,Win32,60.60606061,682d556593cb38ad0a074487,,,,,,,,,,,244.8871,245.3845,,,245.6389,245.8185,left,,,,,,,,0.9,0.1691,,,,,,,245.3847,245.6389,245.8187,"[0.15984385700009845,0.11737547089075959]","[1,1,1]","[0.05174992061401335,0.05056911237167071]","[1,1,1]","[0.13525809319348198,-0.02349761866200517]","[1,1,1]","[-0.05828146420415818,0.1568825921813896]","[-1,-1,-1]","[-0.11078467368326758,-0.13755414806815477]","[1,1,1]","[-0.060805037288114476,-0.04467393042077074]","[1,1,1]","[0.18063478726673451,0.0687549070255199]","[1,1,1]","[0.08901504821012429,-0.026325531780287743]","[1,1,1]","[-0.04152426602415089,-0.07983864541171294]","[1,1,1]","[-0.057487339458059644,0.057929714287582125]","[1,1,1]","[0.006223705575379602,-0.04081311922041203]","[1,1,1]","[-0.10733264796908971,0.003005261549459593]","[1,1,1]","[0.011078554959172163,0.13110456285255118]","[1,1,1]","[-0.14781555086560533,-0.12089152893918126]","[1,1,1]","[-0.01577126103122678,0.09594065083997982]","[1,1,1]","[-0.11860565372005523,0.06108397202507471]","[-1,-1,-1]","[0.09262390549016057,0.10895800032755265]","[1,1,1]","[0.06361062294454566,-0.1359123154015393]","[1,1,1]","[-0.010424784185376021,-0.1548519581729426]","[1,1,1]","[0.030077473742470984,0.015336061129667136]","[1,1,1]","[0.03433848584539433,0.18344781833795892]","[1,1,1]","[-0.016141767412794546,0.04970348577274339]","[1,1,1]","[-0.15128724979075128,-0.026661509289803414]","[1,1,1]","[0.04419428894965004,0.09553145491166909]","[1,1,1]","[0.1867510783404774,-0.030818308942645655]","[-1,-1,-1]","[0.07502750104659058,-0.07819275241928565]","[1,1,1]","[0.16596258575469974,-0.09453020584130055]","[1,1,1]","[-0.14085299201546642,0.09662387183771774]","[1,1,1]","[-0.19625725822476675,0.020707427371716176]","[1,1,1]","[0.12498196585071228,0.07470570559268434]","[1,1,1]","[0.11256630848650313,-0.11612583721868507]","[1,1,1]","[0.09060529331877677,0.039902310128468135]","[1,1,1]","[0.02,0.02]",246.9174,0,38,38,181,1,,,,,,,
,,,,,,,66ae2a21915bde402f570746,682db4ddce8e618f33fa5b8b,2025-05-21_13h14.36.943,cuing_paradigm_dot,2024.1.5,Win32,60.60606061,682d556593cb38ad0a074487,,,,,,,,,,,246.9185,247.4179,,,247.6578,248.0023,right,,,,,,,,0.9,0.3292,,,,,,,247.418,247.6577,248.0024,"[-0.0380022723856693,-0.0816521632444105]","[1,1,1]","[0.12308126598986323,-0.08307944150202232]","[1,1,1]","[-0.07379200477868789,0.11677422003692567]","[1,1,1]","[0.03098224243128973,0.10266219617840044]","[1,1,1]","[-0.046796394196252346,-0.14212670514069173]","[1,1,1]","[0.0470730056295978,-0.008585152951789774]","[1,1,1]","[0.15501855287579033,-0.03393631505621241]","[1,1,1]","[-0.13152625279921284,-0.0942787304931265]","[-1,-1,-1]","[-0.15166405602484523,0.04994668719178877]","[1,1,1]","[0.10112002548987824,-0.010336400336550113]","[1,1,1]","[0.003215018304778087,-0.19553457362113177]","[1,1,1]","[0.051644020937848235,0.17015081385734432]","[1,1,1]","[0.047300420300166936,-0.07072220131941494]","[1,1,1]","[-0.005731718235757919,0.19561417527844635]","[-1,-1,-1]","[-0.07460222990792595,0.001510047954083848]","[1,1,1]","[0.07984037721595828,0.09847788285135745]","[-1,-1,-1]","[-0.012100898195859045,-0.12039486542844018]","[1,1,1]","[0.049810446635746304,-0.12811030744546145]","[1,1,1]","[0.1727740012489554,-0.07315995402743879]","[1,1,1]","[0.11011094366329041,0.058367460278417105]","[1,1,1]","[0.12988931830324682,0.01766966859962213]","[1,1,1]","[-0.08291666671306178,-0.11217884575031742]","[1,1,1]","[-0.033759932110656046,0.15691416121450943]","[1,1,1]","[-0.020508349367884236,0.050545033500803485]","[1,1,1]","[0.08623224033598048,-0.054188643753664105]","[1,1,1]","[0.09558958917055373,-0.17086415951647133]","[1,1,1]","[-0.07021509548457762,0.07183212031711458]","[1,1,1]","[-0.17614627809941127,-0.09256134973234617]","[1,1,1]","[0.05586683545742529,0.0477160716062215]","[1,1,1]","[0.17284783146350233,0.09208469900016993]","[1,1,1]","[-0.07250150709195788,-0.17291744874968615]","[1,1,1]","[-0.09667242333298699,-0.05593631619846392]","[1,1,1]","[0.02,0.02]",249.102,0,39,39,187,1,,,,,,,
,,,,,,,66ae2a21915bde402f570746,682db4ddce8e618f33fa5b8b,2025-05-21_13h14.36.943,cuing_paradigm_dot,2024.1.5,Win32,60.60606061,682d556593cb38ad0a074487,,,,,,,,,,,249.1034,249.602,,,249.8432,250.3357,right,,,,,,,,0.55,0.468,,,,,,,249.6021,249.8431,250.336,"[0.09000725442305965,-0.07980593389894484]","[1,1,1]","[-0.07552356241138312,-0.1372434963939767]","[1,1,1]","[-0.1500869181426666,0.0486891901537062]","[1,1,1]","[-0.043083533999780634,0.12220506230976354]","[-1,-1,-1]","[0.05570720369083512,0.13417172719835074]","[1,1,1]","[0.08129195264322307,0.049399610017097605]","[-1,-1,-1]","[-0.02123741884141746,-0.08231661869162818]","[-1,-1,-1]","[0.007471377516525921,0.03484118288682673]","[1,1,1]","[-0.16357442766158345,-0.10978129416362871]","[1,1,1]","[0.12313522698729443,0.06514761315227936]","[1,1,1]","[-0.018409191729711834,-0.16305632554301971]","[1,1,1]","[0.07061682461091127,-0.11808926540426432]","[1,1,1]","[-0.0638332888768539,0.03920429521660341]","[1,1,1]","[-0.10004620379105594,0.05704474068980453]","[-1,-1,-1]","[0.1602170618891651,-0.05353272407325953]","[-1,-1,-1]","[-0.18044618690362438,-0.018029002431660345]","[-1,-1,-1]","[0.019134964035290046,0.19389149769649383]","[1,1,1]","[0.02711534921307559,-0.042297057654502236]","[1,1,1]","[-0.13440979244041626,-0.050664835770345654]","[1,1,1]","[-0.08797381729574676,0.1022404166499741]","[-1,-1,-1]","[-0.10708037093133836,0.14587860294661575]","[1,1,1]","[-0.018610001888570097,0.17106314729143518]","[-1,-1,-1]","[-0.09571396235871359,0.009429856287596877]","[1,1,1]","[0.11973643930625752,-0.15396756858891958]","[1,1,1]","[-0.06068138093927497,0.15904647726352517]","[-1,-1,-1]","[0.16737662227534458,0.01521097574542691]","[-1,-1,-1]","[-0.07261822571846979,-0.06724130990981571]","[-1,-1,-1]","[-0.1310369096148003,-0.14557436226033105]","[-1,-1,-1]","[0.04573087022309918,0.09532375439972764]","[-1,-1,-1]","[-0.04786483355811183,-0.020062407544749528]","[1,1,1]","[0.1677152903065332,0.05739965670885054]","[-1,-1,-1]","[0.08947000413479322,-0.006718655765811254]","[1,1,1]","[0.02,0.02]",251.4353,0,40,40,132,1,,,,,,,
,,,,,,,66ae2a21915bde402f570746,682db4ddce8e618f33fa5b8b,2025-05-21_13h14.36.943,cuing_paradigm_dot,2024.1.5,Win32,60.60606061,682d556593cb38ad0a074487,,,,,,,,,,,251.4374,251.9348,,,252.1869,252.3356,left,,,,,,,,0.45,0.1179,,,,,,,251.9349,252.1867,252.336,"[-0.06155639745995303,-0.16065155591266095]","[-1,-1,-1]","[-0.12706245683295295,0.13093923637996663]","[-1,-1,-1]","[0.18496870043110938,-0.046030195445077325]","[1,1,1]","[0.14895771975459893,0.13300529687620793]","[1,1,1]","[-0.08941220441383367,-0.10069068686350006]","[-1,-1,-1]","[0.12661178504399914,0.09480515068768913]","[-1,-1,-1]","[-0.07784451345255153,-0.04772319379491852]","[1,1,1]","[-0.014625037971952989,-0.11459790576976213]","[-1,-1,-1]","[-0.006192382581947209,-0.18339228274033992]","[-1,-1,-1]","[0.08817899718308202,-0.05461517717571627]","[-1,-1,-1]","[-0.17591811284541692,0.019802976947946728]","[1,1,1]","[-0.05660225091702804,0.1794813038423017]","[1,1,1]","[-0.08813916908433866,0.11432450156049732]","[1,1,1]","[0.07225271531546495,0.15536096250138504]","[-1,-1,-1]","[0.18633499106750695,-0.00572839088787433]","[1,1,1]","[-0.020493343561399095,0.012733856464597421]","[1,1,1]","[-0.05559752636380119,0.07682018372354808]","[1,1,1]","[0.09947442287778371,-0.01595148201768954]","[-1,-1,-1]","[0.07627378347236735,0.0365357461036868]","[-1,-1,-1]","[-0.13752833195633046,-0.048262080311475636]","[-1,-1,-1]","[0.1406040564123702,-0.11164825944151939]","[-1,-1,-1]","[-0.02109347275395367,-0.0365096340151509]","[-1,-1,-1]","[-0.18784172239914018,-0.06742308923524612]","[-1,-1,-1]","[0.08164708455790212,-0.10200897476539195]","[1,1,1]","[0.04349133606228957,-0.16102916723571067]","[-1,-1,-1]","[-0.13821110723293273,0.041203370840862]","[1,1,1]","[0.009857310920093865,0.1436995499171523]","[1,1,1]","[0.044052349568298975,-0.02577099248248141]","[-1,-1,-1]","[0.0453057989699746,0.11944323161349724]","[-1,-1,-1]","[0.0499790367456869,0.07913139384635397]","[-1,-1,-1]","[0.027535965171620373,0.1823829959813027]","[1,1,1]","[0.12287329229290203,-0.14823188219303007]","[1,1,1]","[0.02,0.02]",253.4389,0,41,41,79,1,,,,,,,
,,,,,,,66ae2a21915bde402f570746,682db4ddce8e618f33fa5b8b,2025-05-21_13h14.36.943,cuing_paradigm_dot,2024.1.5,Win32,60.60606061,682d556593cb38ad0a074487,,,,,,,,,,,253.4396,253.9344,,,254.1743,254.5356,left,,,,,,,,0.1,0.3343,,,,,,,253.9346,254.1742,254.5361,"[-0.12534826401658386,-0.10804458559133194]","[-1,-1,-1]","[0.0063482992540126884,-0.061391516678213624]","[-1,-1,-1]","[-0.014606051800174871,-0.10503797137560272]","[-1,-1,-1]","[0.1146173999774128,0.05855825311779832]","[-1,-1,-1]","[0.030046102548341926,-0.014062375034879171]","[-1,-1,-1]","[0.11099849366063955,0.1360984870366272]","[-1,-1,-1]","[-0.12075696384753312,0.059855486539247785]","[-1,-1,-1]","[0.05086108423918819,-0.08495836734076627]","[-1,-1,-1]","[-0.15240921664516902,0.003724046280162045]","[-1,-1,-1]","[-0.10297686397890332,-0.05776553073778036]","[1,1,1]","[0.13630917925117383,0.09748113545554465]","[-1,-1,-1]","[0.16475148252400834,-0.09574951742635769]","[-1,-1,-1]","[0.06611768002435661,0.006663555479673104]","[-1,-1,-1]","[-0.056353283727522116,0.10462087057728506]","[-1,-1,-1]","[-0.08920204036267979,0.12771320498456287]","[-1,-1,-1]","[-0.046177908618334346,-0.13445401936728427]","[-1,-1,-1]","[0.19512495181191986,0.02906687047757751]","[-1,-1,-1]","[-0.168189733865796,-0.05465821091916304]","[-1,-1,-1]","[-0.06138768603923245,0.16232792231572019]","[-1,-1,-1]","[0.12964171863890653,-0.11745129641482148]","[1,1,1]","[0.003630168614500179,0.14138141152847347]","[-1,-1,-1]","[-0.11158327269031394,0.011831703068816765]","[1,1,1]","[0.07087218790749475,0.0983574410595732]","[-1,-1,-1]","[0.11631624971035333,-0.00591836657377373]","[-1,-1,-1]","[-0.02079009001229303,-0.01599043734706804]","[-1,-1,-1]","[0.022107098323619737,-0.16658176359018956]","[-1,-1,-1]","[0.013245430026044823,0.18413330364877323]","[-1,-1,-1]","[-0.025318338393597834,0.0419867319377276]","[-1,-1,-1]","[0.06077709708342212,0.1904791603025995]","[-1,-1,-1]","[-0.068759921390684,0.0395919792989784]","[-1,-1,-1]","[0.034079729793102254,0.06987580882984375]","[-1,-1,-1]","[0.1632563785106049,-0.037149709923730706]","[-1,-1,-1]","[0.02,0.02]",255.6359,0,42,42,26,1,,,,,,,
,,,,,,,66ae2a21915bde402f570746,682db4ddce8e618f33fa5b8b,2025-05-21_13h14.36.943,cuing_paradigm_dot,2024.1.5,Win32,60.60606061,682d556593cb38ad0a074487,,,,,,,,,,,255.6372,256.1361,,,256.3767,256.8348,left,,,,,,,,0.45,0.4443,,,,,,,256.1362,256.3766,256.835,"[-0.13724869680083812,0.06308818972054603]","[-1,-1,-1]","[0.1493425528507666,-0.03382339179538836]","[1,1,1]","[0.08352655202965165,-0.0005047517153800209]","[1,1,1]","[0.12688464277446915,-0.14739055143043414]","[-1,-1,-1]","[0.003490851666066855,0.13452614106918048]","[1,1,1]","[-0.10284270863971573,0.10526229953216278]","[1,1,1]","[-0.11790384917611635,0.02383602082654862]","[1,1,1]","[0.11859431232461662,0.10481870831716812]","[-1,-1,-1]","[0.017178222699716104,0.0407631830804525]","[-1,-1,-1]","[0.023002219848190703,-0.1956377309156959]","[1,1,1]","[-0.056864406798324586,-0.0273485758113423]","[-1,-1,-1]","[0.09172738466301797,-0.04650756849251635]","[-1,-1,-1]","[0.03703576962735439,0.1650851379312269]","[1,1,1]","[0.0596700311785088,-0.14386363018320497]","[-1,-1,-1]","[-0.09416528584778715,-0.09513128226551094]","[1,1,1]","[-0.05642265487147105,0.17651599299156367]","[-1,-1,-1]","[0.07753950413864062,-0.10112488769262709]","[1,1,1]","[0.00830692970880932,-0.087904814803678]","[-1,-1,-1]","[-0.10265376625873254,-0.03363239160919443]","[1,1,1]","[0.1426489225575502,0.04284284542177728]","[-1,-1,-1]","[-0.04423288038017995,0.07303061896974258]","[1,1,1]","[-0.08367647987483008,-0.16840274927613594]","[-1,-1,-1]","[0.0580975022194657,0.12868759215105446]","[-1,-1,-1]","[-0.14315638724753577,-0.10996879414630178]","[-1,-1,-1]","[-0.031611923797046124,-0.16845511715885347]","[-1,-1,-1]","[-0.16230492784516887,0.03165113832552839]","[-1,-1,-1]","[0.1893748507184475,-0.014659951815186097]","[1,1,1]","[0.17539330268369097,-0.08637335740622908]","[-1,-1,-1]","[-0.0521695118207508,0.13397748771830173]","[1,1,1]","[0.19428693254593676,0.041956826177185914]","[-1,-1,-1]","[0.08459193024525449,0.17802379666152232]","[-1,-1,-1]","[-0.11203255289248117,0.15104575686575097]","[1,1,1]","[0.02,0.02]",257.9357,0,43,43,81,1,,,,,,,
,,,,,,,66ae2a21915bde402f570746,682db4ddce8e618f33fa5b8b,2025-05-21_13h14.36.943,cuing_paradigm_dot,2024.1.5,Win32,60.60606061,682d556593cb38ad0a074487,,,,,,,,,,,257.9371,258.4363,,,258.693,259.0615,left,,,,,,,,0.5,0.3622,,,,,,,258.4364,258.693,259.0616,"[0.15777850866606188,-0.012361232917029289]","[1,1,1]","[-0.12558655474154637,0.1397484008176349]","[1,1,1]","[-0.07965858492390107,0.16655870590640592]","[-1,-1,-1]","[0.1151593840346132,-0.040596126297506245]","[-1,-1,-1]","[-0.1048045233734451,-0.0033443898987931733]","[-1,-1,-1]","[-0.029997520732866493,-0.14327728754952926]","[1,1,1]","[-0.016641549980571154,0.014488459893261987]","[-1,-1,-1]","[0.12444406571660163,-0.11955117501344248]","[1,1,1]","[-0.18178194327539052,-0.0006401732756331281]","[-1,-1,-1]","[0.1526633042898903,0.11623703043646563]","[1,1,1]","[-0.11433604829168767,-0.08993623352687681]","[1,1,1]","[0.17250598884654442,0.07441815574485061]","[-1,-1,-1]","[0.0781779174132726,0.06356792210113511]","[-1,-1,-1]","[0.0690089505667507,-0.023574869400579648]","[1,1,1]","[-0.07831340240066628,-0.14638017236494938]","[-1,-1,-1]","[-0.08445260415794292,0.032572609164665166]","[-1,-1,-1]","[0.061605812010433546,-0.11654965745842456]","[1,1,1]","[-0.11020828416241404,0.07562057959251162]","[1,1,1]","[-0.031950527714128235,0.14702530314460707]","[1,1,1]","[0.08224816379029426,0.14948084672960169]","[1,1,1]","[0.15123879845781393,-0.06681814303091728]","[-1,-1,-1]","[-0.00165049268535721,-0.05696183526214016]","[-1,-1,-1]","[-0.02541070522250981,0.08409160568005244]","[-1,-1,-1]","[-0.19211620537270885,-0.04014262174645282]","[-1,-1,-1]","[0.12447308080014494,0.02265794856290014]","[-1,-1,-1]","[-0.050884861642732614,-0.19080518064837654]","[1,1,1]","[-0.07177678681086902,-0.09131624067171487]","[1,1,1]","[0.027417049159200877,0.08295980890239292]","[-1,-1,-1]","[-0.14504546626505496,0.0960144409780273]","[1,1,1]","[0.19434771204474868,0.012367112573157306]","[1,1,1]","[0.013114133115434986,-0.13709580934469287]","[1,1,1]","[0.11040485995439946,0.11219269760452646]","[-1,-1,-1]","[0.02,0.02]",260.152,0,44,44,117,1,,,,,,,
