right,left,explain.started,explain.stopped,key_resp_3.keys,key_resp_3.rt,key_resp_3.duration,participant,session,date,expName,psychopyVersion,OS,frameRate,study_id,explain_2.started,explain_2.stopped,key_resp_4.keys,key_resp_4.rt,key_resp_4.duration,explain_3.started,explain_3.stopped,key_resp_5.keys,key_resp_5.rt,key_resp_5.duration,fixation.started,fixation.stopped,practice.started,practice.stopped,response.started,response.stopped,key_resp.keys,key_resp.rt,key_resp.duration,feedback.started,feedback.stopped,trials_2.thisRepN,trials_2.thisTrialN,trials_2.thisN,trials_2.thisIndex,trials_2.ran,white_ratio,explain_4.started,explain_4.stopped,key_resp_6.keys,key_resp_6.rt,key_resp_6.duration,dotDisplay.started,dotDisplay.stopped,ITI.started,polygon_1.pos,polygon_1.color,polygon_2.pos,polygon_2.color,polygon_3.pos,polygon_3.color,polygon_4.pos,polygon_4.color,polygon_5.pos,polygon_5.color,polygon_6.pos,polygon_6.color,polygon_7.pos,polygon_7.color,polygon_8.pos,polygon_8.color,polygon_9.pos,polygon_9.color,polygon_10.pos,polygon_10.color,polygon_11.pos,polygon_11.color,polygon_12.pos,polygon_12.color,polygon_13.pos,polygon_13.color,polygon_14.pos,polygon_14.color,polygon_15.pos,polygon_15.color,polygon_16.pos,polygon_16.color,polygon_17.pos,polygon_17.color,polygon_18.pos,polygon_18.color,polygon_19.pos,polygon_19.color,polygon_20.pos,polygon_20.color,polygon_21.pos,polygon_21.color,polygon_22.pos,polygon_22.color,polygon_23.pos,polygon_23.color,polygon_24.pos,polygon_24.color,polygon_25.pos,polygon_25.color,polygon_26.pos,polygon_26.color,polygon_27.pos,polygon_27.color,polygon_28.pos,polygon_28.color,polygon_29.pos,polygon_29.color,polygon_30.pos,polygon_30.color,polygon_31.pos,polygon_31.color,polygon_32.pos,polygon_32.color,dot_size,ITI.stopped,trials.thisRepN,trials.thisTrialN,trials.thisN,trials.thisIndex,trials.ran,break_2.started,break_2.stopped,trials_3.thisRepN,trials_3.thisTrialN,trials_3.thisN,trials_3.thisIndex,trials_3.ran
subject chose black,subject chose white,0.0005,16.104,space,1.0894,,66b38624283af88b5fb39daa,682f0fbb32f730509e8ebe05,2025-05-22_14h18.49.744,cuing_paradigm_dot,2024.1.5,Win32,60.24096386,682d573fa47f1360d1451895,,,,,,,,,,,,,,,,,,,,,,,,,,,,,,,,,,,,,,,,,,,,,,,,,,,,,,,,,,,,,,,,,,,,,,,,,,,,,,,,,,,,,,,,,,,,,,,,,,,,,,,,,,,,,,,,,
,,,,,,,66b38624283af88b5fb39daa,682f0fbb32f730509e8ebe05,2025-05-22_14h18.49.744,cuing_paradigm_dot,2024.1.5,Win32,60.24096386,682d573fa47f1360d1451895,16.1045,52.3642,space,6.2508,,,,,,,,,,,,,,,,,,,,,,,,,,,,,,,,,,,,,,,,,,,,,,,,,,,,,,,,,,,,,,,,,,,,,,,,,,,,,,,,,,,,,,,,,,,,,,,,,,,,,,,,,,,,,
,,,,,,,66b38624283af88b5fb39daa,682f0fbb32f730509e8ebe05,2025-05-22_14h18.49.744,cuing_paradigm_dot,2024.1.5,Win32,60.24096386,682d573fa47f1360d1451895,,,,,,52.3647,56.5558,space,1.1758,,,,,,,,,,,,,,,,,,,,,,,,,,,,,,,,,,,,,,,,,,,,,,,,,,,,,,,,,,,,,,,,,,,,,,,,,,,,,,,,,,,,,,,,,,,,,,,,,,,,,,,,
,,,,,,,66b38624283af88b5fb39daa,682f0fbb32f730509e8ebe05,2025-05-22_14h18.49.744,cuing_paradigm_dot,2024.1.5,Win32,60.24096386,682d573fa47f1360d1451895,,,,,,,,,,,56.5971,57.0712,57.072,57.3244,57.3248,58.0442,right,0.676,,58.0449,59.1376,0,0,0,1,1,0.2,,,,,,,,,,,,,,,,,,,,,,,,,,,,,,,,,,,,,,,,,,,,,,,,,,,,,,,,,,,,,,,,,,,,,,,,,,,,,,,,,,,,,,
,,,,,,,66b38624283af88b5fb39daa,682f0fbb32f730509e8ebe05,2025-05-22_14h18.49.744,cuing_paradigm_dot,2024.1.5,Win32,60.24096386,682d573fa47f1360d1451895,,,,,,,,,,,59.1399,59.6366,59.637,59.878,59.8782,60.7714,left,0.8694,,60.7719,61.8723,0,1,1,0,1,0.8,,,,,,,,,,,,,,,,,,,,,,,,,,,,,,,,,,,,,,,,,,,,,,,,,,,,,,,,,,,,,,,,,,,,,,,,,,,,,,,,,,,,,,
,,,,,,,66b38624283af88b5fb39daa,682f0fbb32f730509e8ebe05,2025-05-22_14h18.49.744,cuing_paradigm_dot,2024.1.5,Win32,60.24096386,682d573fa47f1360d1451895,,,,,,,,,,,,,,,,,,,,,,,,,,,,61.873,66.1059,space,1.2105,,,,,,,,,,,,,,,,,,,,,,,,,,,,,,,,,,,,,,,,,,,,,,,,,,,,,,,,,,,,,,,,,,,,,,,,,,,,,,,,,,
,,,,,,,66b38624283af88b5fb39daa,682f0fbb32f730509e8ebe05,2025-05-22_14h18.49.744,cuing_paradigm_dot,2024.1.5,Win32,60.24096386,682d573fa47f1360d1451895,,,,,,,,,,,66.1445,66.6181,,,66.8584,67.6365,left,0.7577,,,,,,,,,0.5,,,,,,66.6201,66.8584,67.6386,"[-0.004483151594834312,-0.1802474248066847]","[1,1,1]","[-0.05069767426268051,-0.12881353034839335]","[-1,-1,-1]","[-0.11036957387754923,-0.08998941505413623]","[1,1,1]","[-0.08414646153934689,0.01388078054595838]","[-1,-1,-1]","[-0.02884328549386949,0.12284771511773646]","[-1,-1,-1]","[-0.10155722648629514,-0.02296262191795506]","[-1,-1,-1]","[-0.09538070739727424,-0.15204940622855712]","[1,1,1]","[-0.15166304656262508,0.1059279751478431]","[-1,-1,-1]","[-0.07500077590448373,0.15540616246702288]","[1,1,1]","[0.033376077310345455,-0.14295279782926804]","[1,1,1]","[0.1784795472406792,-0.004114106913326646]","[1,1,1]","[-0.15066374888687903,0.026376188106492643]","[-1,-1,-1]","[0.10273231014287734,-0.062384715220392746]","[-1,-1,-1]","[-0.012520127222408936,0.0741454020773804]","[1,1,1]","[0.03820359749534845,0.0492030687352693]","[-1,-1,-1]","[-0.10078501794307175,0.05655954310681386]","[-1,-1,-1]","[0.12281075292249488,-0.011766635073624]","[1,1,1]","[-0.025392975643854943,-0.08685405425625811]","[1,1,1]","[0.020258562149062045,0.18515758002552427]","[1,1,1]","[0.17013909551758527,-0.0907865926902161]","[-1,-1,-1]","[0.06776191362640742,-0.018616913109997656]","[-1,-1,-1]","[0.11777773564823088,0.049456961451901246]","[1,1,1]","[-0.037337193365429566,0.033058814080582984]","[1,1,1]","[-0.14499566143595571,-0.061366960755660234]","[1,1,1]","[0.14106060347504804,-0.12267982763387947]","[-1,-1,-1]","[0.16077778875027596,0.08521078739318792]","[-1,-1,-1]","[-0.05490627299657712,-0.055283087424728226]","[-1,-1,-1]","[-0.14008870623858324,-0.11885664124528729]","[1,1,1]","[0.07255053006806313,0.10753490978200811]","[1,1,1]","[0.021931398093944975,-0.08659140544134253]","[1,1,1]","[0.18882085619120392,0.0561817065984882]","[-1,-1,-1]","[0.00940881355250431,-0.03821160516646327]","[-1,-1,-1]","[0.02,0.02]",68.7354,0,0,0,109,1,,,,,,,
,,,,,,,66b38624283af88b5fb39daa,682f0fbb32f730509e8ebe05,2025-05-22_14h18.49.744,cuing_paradigm_dot,2024.1.5,Win32,60.24096386,682d573fa47f1360d1451895,,,,,,,,,,,68.7372,69.2339,,,69.492,70.252,right,0.7407,,,,,,,,,0.4,,,,,,69.2342,69.4918,70.252,"[-0.14724879781070466,0.05616416164106621]","[1,1,1]","[0.1573425095613915,0.07822144155098928]","[-1,-1,-1]","[0.06149074030093976,-0.0422147014225064]","[-1,-1,-1]","[0.17221750294442134,0.024358385715361697]","[1,1,1]","[0.07792898904752374,-0.13170573990963613]","[-1,-1,-1]","[0.14141470939862694,-0.06168302714048038]","[-1,-1,-1]","[-0.036536911534882296,-0.19126685213890426]","[-1,-1,-1]","[-0.053968994388025965,-0.03123557787466283]","[1,1,1]","[-0.014434659822466405,0.10242510536311078]","[-1,-1,-1]","[-0.06506490895485591,0.104688027539274]","[-1,-1,-1]","[0.09875485231391948,0.11227533805940404]","[-1,-1,-1]","[-0.02113828708758483,0.1984228278792116]","[-1,-1,-1]","[0.0635844705832516,0.17282543612832604]","[-1,-1,-1]","[-0.09875504644082293,-0.056944012945370305]","[1,1,1]","[0.034015524070256195,0.1075340445597464]","[-1,-1,-1]","[0.13811695657572537,-0.004920920500015682]","[-1,-1,-1]","[0.007049822102509679,0.014090391920236355]","[-1,-1,-1]","[-0.04765353695758859,-0.1377750926120251]","[1,1,1]","[-0.11021833230275069,0.04055659799573619]","[1,1,1]","[0.01666002553625019,-0.16355635853695744]","[1,1,1]","[-0.04431602254224089,-0.08116032334369874]","[-1,-1,-1]","[0.0038002214814816995,-0.1092940587546697]","[1,1,1]","[0.12376511720812079,0.04633866261572897]","[-1,-1,-1]","[0.1811170621674607,-0.05068500374620604]","[-1,-1,-1]","[-0.1719209458879114,0.015214059822495615]","[-1,-1,-1]","[-0.13269118144464526,-0.08669993479064061]","[-1,-1,-1]","[-0.005567419450780485,-0.03294873420062653]","[1,1,1]","[-0.13586670933956244,0.10137927707443059]","[1,1,1]","[-0.07278848996677063,0.18446410162520774]","[1,1,1]","[-0.15662265072908776,-0.12177120546846355]","[-1,-1,-1]","[-0.10032889333330575,-0.012286078653788576]","[1,1,1]","[-0.0916888055764689,-0.12062161939018004]","[1,1,1]","[0.02,0.02]",71.35,0,1,1,57,1,,,,,,,
,,,,,,,66b38624283af88b5fb39daa,682f0fbb32f730509e8ebe05,2025-05-22_14h18.49.744,cuing_paradigm_dot,2024.1.5,Win32,60.24096386,682d573fa47f1360d1451895,,,,,,,,,,,71.3518,71.8499,,,72.1072,72.5533,right,0.4223,,,,,,,,,0.6,,,,,,71.8501,72.1071,72.5533,"[-0.006920878243649264,0.06102001055933435]","[1,1,1]","[-0.11602314961194214,-0.11215570139977392]","[1,1,1]","[-0.1504381560833971,0.07233249806650292]","[1,1,1]","[-0.079926146432654,0.022501517725781628]","[1,1,1]","[0.06994900913701085,-0.07329663251633617]","[-1,-1,-1]","[0.1420501561277919,0.028615278827096986]","[-1,-1,-1]","[-0.02076681746240995,-0.046622862820663385]","[1,1,1]","[-0.050798325725695544,0.1304966681774484]","[-1,-1,-1]","[-0.1373574818807869,0.010745581888388266]","[1,1,1]","[-0.04785539493843046,0.07175426271302514]","[1,1,1]","[-0.05987758861344422,-0.08614265724001773]","[-1,-1,-1]","[0.02226318217180206,0.10085702358788277]","[1,1,1]","[0.08003855836084042,0.04062628277612927]","[-1,-1,-1]","[0.18814890935758083,-0.02312477134423804]","[1,1,1]","[0.15815623089417175,-0.08960297680471069]","[1,1,1]","[0.006533012359432043,0.17926888373867275]","[1,1,1]","[0.02126565178471812,-0.058141354445749326]","[1,1,1]","[0.0756113099424921,-0.11917762744983164]","[-1,-1,-1]","[-0.03489369843805521,-0.00025172797756387955]","[-1,-1,-1]","[0.04522817677004819,-0.0030081062077621746]","[1,1,1]","[0.07810688392260498,0.0880505013354722]","[1,1,1]","[0.03138020849274104,0.14303058439869337]","[-1,-1,-1]","[-0.11468312518325305,0.1500702570197515]","[1,1,1]","[-0.027618429949877392,-0.1904409446003786]","[-1,-1,-1]","[-0.09805351571625348,-0.1683110726445458]","[1,1,1]","[-0.03161932648085121,-0.15012896662824426]","[-1,-1,-1]","[0.14926352718121508,0.10499278170128805]","[1,1,1]","[0.0977039956747062,-0.03300914133097541]","[1,1,1]","[-0.0037614187572246652,-0.09284363092867279]","[1,1,1]","[-0.10178744627623972,-0.039563366500616697]","[-1,-1,-1]","[0.08768576690066712,0.15369870273005426]","[-1,-1,-1]","[-0.1318468352214694,-0.07503373349602577]","[-1,-1,-1]","[0.02,0.02]",73.6487,0,2,2,152,1,,,,,,,
,,,,,,,66b38624283af88b5fb39daa,682f0fbb32f730509e8ebe05,2025-05-22_14h18.49.744,cuing_paradigm_dot,2024.1.5,Win32,60.24096386,682d573fa47f1360d1451895,,,,,,,,,,,73.651,74.149,,,74.4048,74.8677,right,0.4418,,,,,,,,,0.5,,,,,,74.1491,74.4047,74.8679,"[-0.10934110215398479,-0.11044238899522081]","[-1,-1,-1]","[-0.035200429968764,-0.08019609427779727]","[1,1,1]","[0.07180533884384056,-0.11843027197357163]","[-1,-1,-1]","[0.0329209132825557,0.1843294972536813]","[-1,-1,-1]","[0.03405470039569879,0.016864496100133217]","[1,1,1]","[-0.02356729179152196,-0.1738488816794761]","[-1,-1,-1]","[-0.18074909757498933,-0.06925936692980963]","[1,1,1]","[0.08500963035821826,-0.022586967873704414]","[1,1,1]","[-0.15076880466284617,0.08948984622874616]","[1,1,1]","[-0.10763127924086598,0.13102894766320597]","[1,1,1]","[-0.09194299676054676,0.07427918950369025]","[-1,-1,-1]","[-0.11418886969085984,0.02770757185287289]","[-1,-1,-1]","[-0.06555404701246524,-0.03906652676952673]","[1,1,1]","[0.12737946933453256,-0.11309942836459154]","[-1,-1,-1]","[-0.06726274177851797,-0.16358684287074854]","[1,1,1]","[0.02190773072252678,-0.15271528816804958]","[1,1,1]","[-0.15581720995166987,-0.016182678409090163]","[-1,-1,-1]","[0.1643319033047616,0.04886365601689835]","[1,1,1]","[-0.010036775197597051,0.18951508465301548]","[1,1,1]","[-0.024818241073392384,-0.03938251570513596]","[-1,-1,-1]","[0.10017164416846415,0.062247932805770366]","[-1,-1,-1]","[-0.18223803156849033,0.04548677365956687]","[-1,-1,-1]","[0.0837974453453077,-0.158893256138228]","[1,1,1]","[0.06001214111864729,-0.07193189455576009]","[-1,-1,-1]","[-0.04731126194869741,0.010433083465982821]","[-1,-1,-1]","[-0.05143926971374115,0.051584206151147054]","[-1,-1,-1]","[0.04715830291846428,-0.18730019180109236]","[-1,-1,-1]","[0.14595221604682498,0.11199119941729234]","[1,1,1]","[-0.19268077183098326,0.003806008202184924]","[1,1,1]","[0.006864906094328669,0.0495175633560616]","[1,1,1]","[-0.04003476990271543,0.16052191975977007]","[-1,-1,-1]","[-0.026664065311796735,0.10897884834072963]","[1,1,1]","[0.02,0.02]",75.9645,0,3,3,96,1,,,,,,,
,,,,,,,66b38624283af88b5fb39daa,682f0fbb32f730509e8ebe05,2025-05-22_14h18.49.744,cuing_paradigm_dot,2024.1.5,Win32,60.24096386,682d573fa47f1360d1451895,,,,,,,,,,,75.9665,76.4655,,,76.7049,77.2,left,0.4729,,,,,,,,,0.55,,,,,,76.4657,76.7047,77.2001,"[-0.0718224580747418,-0.07097164714093496]","[-1,-1,-1]","[0.005930113408459715,-0.10821768186523191]","[1,1,1]","[0.11063145663226065,0.018323833218934802]","[1,1,1]","[-0.026771873633455345,0.06253937221723721]","[-1,-1,-1]","[0.15206878179986008,0.018432059122705315]","[1,1,1]","[0.13527327403218756,-0.053670096242542674]","[-1,-1,-1]","[0.0291904028171853,-0.04181111915886345]","[1,1,1]","[-0.014931394050641998,-0.19647476338878908]","[1,1,1]","[-0.06572197093374404,0.1771247287046217]","[-1,-1,-1]","[0.020665157037935297,0.09281382679999671]","[1,1,1]","[-0.12732909016661706,0.04200355984957404]","[-1,-1,-1]","[0.12648053732824446,0.05548324620922797]","[-1,-1,-1]","[0.10425676099056162,-0.15805062972411207]","[1,1,1]","[0.0907370637260329,-0.06304581570132267]","[-1,-1,-1]","[-0.139079803420048,-0.00786466751121236]","[1,1,1]","[-0.016970500310431524,-0.02449356688643147]","[1,1,1]","[-0.1278896309779569,-0.14317175042356417]","[1,1,1]","[0.036404672196127294,0.03650262744156691]","[1,1,1]","[-0.01934923375459755,-0.14335436365104126]","[1,1,1]","[-0.061648911405546146,0.09892369519487075]","[-1,-1,-1]","[0.04499818006104749,-0.1541609108980411]","[-1,-1,-1]","[-0.09431927749405104,0.14653909925608072]","[1,1,1]","[0.023930682839580702,0.14922199081649146]","[-1,-1,-1]","[0.08195273426168852,0.08156926569901403]","[-1,-1,-1]","[-0.11407572992895501,-0.07651167219371793]","[1,1,1]","[0.1611715914411358,0.08646576264171865]","[-1,-1,-1]","[-0.14761739353313985,-0.10056188854674686]","[1,1,1]","[-0.13591102026361374,0.12257349983559218]","[1,1,1]","[-0.07574431462491123,-0.1264338376154324]","[1,1,1]","[0.11147194516476248,0.15537876648012836]","[1,1,1]","[0.1827180853973362,-0.05343277125366384]","[-1,-1,-1]","[0.1477186122467315,0.12871913316552105]","[-1,-1,-1]","[0.02,0.02]",78.2974,0,4,4,141,1,,,,,,,
,,,,,,,66b38624283af88b5fb39daa,682f0fbb32f730509e8ebe05,2025-05-22_14h18.49.744,cuing_paradigm_dot,2024.1.5,Win32,60.24096386,682d573fa47f1360d1451895,,,,,,,,,,,78.2994,78.7982,,,79.0465,79.8296,left,0.7645,,,,,,,,,0.6,,,,,,78.7985,79.0464,79.8296,"[-0.08207018522367432,0.09334969138035164]","[-1,-1,-1]","[0.09973840550259938,0.10914202093449907]","[1,1,1]","[0.03175429506623652,-0.031900383938793034]","[1,1,1]","[-0.07361334366482859,-0.040311583591112914]","[1,1,1]","[-0.08426519420152011,-0.15971233869647147]","[1,1,1]","[0.14967983354989225,0.12027201233155546]","[1,1,1]","[-0.006453443035605669,0.17119291456895128]","[-1,-1,-1]","[-0.18432635705995623,0.06005094056062767]","[1,1,1]","[-0.18701582234369063,0.018062116908782115]","[-1,-1,-1]","[-0.012614372162783749,-0.09636985371748621]","[1,1,1]","[-0.01204135529716008,0.09783697210986245]","[1,1,1]","[0.0659659982366129,0.03646695144732911]","[1,1,1]","[-0.138017514797697,0.059668149072513894]","[1,1,1]","[0.07738832916004039,0.15419022775019484]","[1,1,1]","[-0.0778248583215163,0.1336179802076667]","[-1,-1,-1]","[0.11419768482613255,-0.08809790117143132]","[-1,-1,-1]","[-0.031086653323707712,-0.042998828783037416]","[1,1,1]","[0.15527362575770598,-0.0011196874715985346]","[1,1,1]","[0.15086099938277958,-0.1048532805189032]","[-1,-1,-1]","[-0.027544278670460064,-0.1395777296054286]","[-1,-1,-1]","[0.1501302441645618,0.07461005222093463]","[1,1,1]","[0.1931265086926846,-0.03548038611500682]","[1,1,1]","[-0.014370037642042626,0.052197010517107144]","[-1,-1,-1]","[0.13826969591283347,-0.052816140760769625]","[1,1,1]","[0.08177911210215916,-0.14251103149009473]","[-1,-1,-1]","[0.02548596473140123,0.04124904649476298]","[-1,-1,-1]","[-0.13360591825397772,0.01785433795675087]","[-1,-1,-1]","[-0.15555807382226206,-0.03954503314922126]","[1,1,1]","[-0.1405386741207734,-0.1331052878181829]","[1,1,1]","[0.018135597517587657,-0.18953361504202457]","[-1,-1,-1]","[-0.09128703788031378,-0.1035262587809]","[-1,-1,-1]","[0.04179434394528287,0.08186728806008652]","[1,1,1]","[0.02,0.02]",80.9301,0,5,5,154,1,,,,,,,
,,,,,,,66b38624283af88b5fb39daa,682f0fbb32f730509e8ebe05,2025-05-22_14h18.49.744,cuing_paradigm_dot,2024.1.5,Win32,60.24096386,682d573fa47f1360d1451895,,,,,,,,,,,80.9318,81.4293,,,81.6866,82.1805,left,0.468,,,,,,,,,0.5,,,,,,81.4294,81.6865,82.1808,"[0.009394338109854234,0.0025921591688527774]","[-1,-1,-1]","[0.13258605081943547,-0.13456100477100819]","[-1,-1,-1]","[-0.08485119237638128,-0.023287514897486032]","[1,1,1]","[0.09353247043374467,0.0038812680752143254]","[1,1,1]","[0.17270984882639667,0.04347496031903613]","[1,1,1]","[0.06142725877868482,0.16531671524038327]","[-1,-1,-1]","[0.12337739505963183,0.042701734373483256]","[1,1,1]","[-0.034304927471292976,0.049484009843526515]","[1,1,1]","[-0.14658273560199186,0.03160552518699024]","[1,1,1]","[-0.06902015734789929,-0.13750966234867495]","[-1,-1,-1]","[0.02021603096949299,0.1068620549270562]","[1,1,1]","[0.10553345857747212,-0.08111539495228055]","[1,1,1]","[0.16118261840236126,-0.05926636017069801]","[-1,-1,-1]","[0.07570283487549821,0.05310922796627866]","[-1,-1,-1]","[0.12400267209765509,0.09322448469722881]","[-1,-1,-1]","[-0.12651845719730417,0.14069795139621852]","[-1,-1,-1]","[-0.000622099117488034,-0.13718914952555178]","[1,1,1]","[-0.13125244584500304,0.09564176598414376]","[1,1,1]","[-0.05973609726933207,0.12861480706497694]","[-1,-1,-1]","[0.06901942646602231,-0.034270218925808144]","[-1,-1,-1]","[-0.10541817099881101,-0.07693290364628254]","[1,1,1]","[0.05607342776805615,0.0882482098528072]","[1,1,1]","[-0.1793833196679688,0.0842086282850657]","[1,1,1]","[0.09510092978507939,0.12100736720261074]","[-1,-1,-1]","[-0.0436003984522759,-0.06906417182546343]","[-1,-1,-1]","[-0.05972594943703326,0.18307466746328865]","[1,1,1]","[-0.05189995706330445,0.013534906427755344]","[1,1,1]","[-0.015841460118672313,-0.18172057119942567]","[-1,-1,-1]","[-0.057032385984681605,-0.18327029240266077]","[-1,-1,-1]","[-0.13908919161611003,-0.13438634637121774]","[1,1,1]","[-0.14936597819096292,-0.023427072123334138]","[-1,-1,-1]","[0.048450975548450625,-0.184448623072851]","[-1,-1,-1]","[0.02,0.02]",83.2786,0,6,6,114,1,,,,,,,
,,,,,,,66b38624283af88b5fb39daa,682f0fbb32f730509e8ebe05,2025-05-22_14h18.49.744,cuing_paradigm_dot,2024.1.5,Win32,60.24096386,682d573fa47f1360d1451895,,,,,,,,,,,83.2804,83.779,,,84.0321,84.6142,right,0.5574,,,,,,,,,0.1,,,,,,83.779,84.032,84.6143,"[-0.08235322273042114,0.043268699610011875]","[-1,-1,-1]","[-0.057186229608427265,-0.1471422810102406]","[-1,-1,-1]","[-0.02350416850616042,-0.08042778389467817]","[-1,-1,-1]","[-0.028239234500648577,0.03227530002418298]","[-1,-1,-1]","[0.063563370429157,-0.05833551978883496]","[-1,-1,-1]","[-0.08174140587724803,-0.02155956789064856]","[-1,-1,-1]","[-0.13214891085698657,0.08409192899086539]","[-1,-1,-1]","[0.11605089881116591,-0.006907734512388837]","[-1,-1,-1]","[0.10426503616131386,-0.10038790866005867]","[-1,-1,-1]","[-0.0031231939494711495,0.10742368021081292]","[-1,-1,-1]","[0.18108662719089474,0.03493509827592148]","[-1,-1,-1]","[-0.09031835827333128,0.11497988444800283]","[-1,-1,-1]","[0.1737321804398537,0.08214462499107411]","[-1,-1,-1]","[-0.17137846485622577,-0.07685157313686537]","[-1,-1,-1]","[-0.13629661544286828,-0.10297540956275798]","[-1,-1,-1]","[-0.026242893111990982,-0.17700005175910605]","[-1,-1,-1]","[0.04154630788565436,-0.17253300672971222]","[-1,-1,-1]","[0.05238237402585674,0.09892732432738806]","[-1,-1,-1]","[0.0747323689782992,0.057648935348605004]","[1,1,1]","[0.17677142251873637,-0.07458462078786306]","[-1,-1,-1]","[-0.05735470041949996,0.08122617571677673]","[-1,-1,-1]","[-0.07219855907053689,-0.09802410998440023]","[-1,-1,-1]","[0.06701403031412578,-0.01625808647728205]","[-1,-1,-1]","[-0.17192678848697956,-0.0004909788147776605]","[-1,-1,-1]","[0.0067246424793148424,-0.02764126703745262]","[-1,-1,-1]","[0.16613519277181718,-0.02507301430167789]","[-1,-1,-1]","[0.12292065401674104,0.09422415683314991]","[-1,-1,-1]","[-0.02093638694201566,0.1572022211138224]","[-1,-1,-1]","[0.05452959339327998,-0.10682159120732182]","[1,1,1]","[0.02302974305143563,0.03274014165567257]","[1,1,1]","[-0.10779986500356945,-0.14252038604680634]","[-1,-1,-1]","[0.13719680227961595,-0.1289995664766425]","[-1,-1,-1]","[0.02,0.02]",85.714,0,7,7,6,1,,,,,,,
,,,,,,,66b38624283af88b5fb39daa,682f0fbb32f730509e8ebe05,2025-05-22_14h18.49.744,cuing_paradigm_dot,2024.1.5,Win32,60.24096386,682d573fa47f1360d1451895,,,,,,,,,,,85.7143,86.2114,,,86.4631,87.0797,right,0.5929,,,,,,,,,0.45,,,,,,86.2116,86.463,87.0798,"[-0.04488588650079571,-0.010735673202485562]","[-1,-1,-1]","[0.021236106667752542,-0.08834261384532717]","[1,1,1]","[-0.19211460079092632,-0.003748209678752481]","[-1,-1,-1]","[0.015883496818810988,0.08339615507692741]","[1,1,1]","[-0.034390334278251784,0.1439039229834796]","[-1,-1,-1]","[-0.119333377592145,0.024807929708526823]","[-1,-1,-1]","[0.05972600153585271,-0.11515546147919367]","[1,1,1]","[-0.04416409372638835,-0.1299036479406475]","[-1,-1,-1]","[0.046844776918712513,0.14721184527178666]","[-1,-1,-1]","[0.07072768608198499,0.05596155332150247]","[-1,-1,-1]","[0.08386706608576511,-0.06040091597818307]","[1,1,1]","[-0.15032765582020896,-0.0387219565510178]","[-1,-1,-1]","[0.12730526090956568,-0.028080455656244698]","[1,1,1]","[-0.055898432029350575,-0.19185274325155252]","[-1,-1,-1]","[-0.0636644066675843,0.17475507756063655]","[1,1,1]","[0.11866731240885804,0.15786718700940222]","[1,1,1]","[0.1534716673291209,-0.12191975820364508]","[-1,-1,-1]","[0.12605014450510688,0.03194912458621589]","[1,1,1]","[-0.13990419071027085,0.08586736116109428]","[1,1,1]","[-0.05663608605494279,0.027995422788828744]","[1,1,1]","[0.11976683962061639,-0.149111975142846]","[-1,-1,-1]","[-0.12413406089741463,-0.13043006068361213]","[-1,-1,-1]","[-0.10316540294996095,0.1664510272162644]","[-1,-1,-1]","[-0.009847171014268602,-0.16663236576192086]","[1,1,1]","[0.08505308197383349,0.12884513050526486]","[-1,-1,-1]","[0.01081807465820454,-0.012620642845584437]","[1,1,1]","[0.1559316475665544,0.09773920334379756]","[1,1,1]","[0.1936540388727167,-0.04262275945862955]","[-1,-1,-1]","[-0.15132658739517,-0.09251082347518334]","[-1,-1,-1]","[-0.03559654559573844,-0.05823010737442176]","[-1,-1,-1]","[-0.08713131549915934,0.05659114153661293]","[-1,-1,-1]","[-0.19353639131018097,0.04930942065979173]","[1,1,1]","[0.02,0.02]",88.1771,0,8,8,83,1,,,,,,,
,,,,,,,66b38624283af88b5fb39daa,682f0fbb32f730509e8ebe05,2025-05-22_14h18.49.744,cuing_paradigm_dot,2024.1.5,Win32,60.24096386,682d573fa47f1360d1451895,,,,,,,,,,,88.1788,88.6774,,,88.9319,89.878,right,0.9202,,,,,,,,,0.4,,,,,,88.6775,88.9319,89.8784,"[-0.013158345477329966,0.10039113744674559]","[-1,-1,-1]","[-0.0017587323732432896,-0.16107761183654318]","[1,1,1]","[0.13153741401926547,-0.018522777510293686]","[-1,-1,-1]","[-0.1377271893405178,0.04752759419314839]","[-1,-1,-1]","[-0.08534854963740923,0.07437004363320907]","[1,1,1]","[-0.10627218402121073,-0.15739105410077825]","[-1,-1,-1]","[0.030662463998801733,0.07848480361928531]","[-1,-1,-1]","[0.11094780647149027,-0.13884536857278412]","[1,1,1]","[0.09685447728216606,0.16749074358944643]","[-1,-1,-1]","[0.13630847089568188,-0.07056980941695812]","[-1,-1,-1]","[-0.010329234522394348,0.18329214475387687]","[1,1,1]","[0.13670384459324803,0.03211187943063222]","[-1,-1,-1]","[-0.008474136903174797,0.00806318099051001]","[-1,-1,-1]","[-0.04880005719505646,-0.18354976991764807]","[-1,-1,-1]","[-0.04314593273807145,0.06939313879469049]","[-1,-1,-1]","[0.0625927545241644,-0.09651286123403499]","[-1,-1,-1]","[-0.03890628203928678,-0.1394842781800047]","[-1,-1,-1]","[0.06790293576217482,0.12438041394692513]","[1,1,1]","[-0.04846082264699066,-0.08222060743842496]","[1,1,1]","[0.051022593007563684,0.001423067613657602]","[-1,-1,-1]","[-0.17067317336417814,-0.05569497664802043]","[-1,-1,-1]","[-0.10546820153578931,0.11695107829057029]","[1,1,1]","[-0.13855839115596813,-0.09355655745708315]","[1,1,1]","[-0.088184636329834,0.014072899894173494]","[-1,-1,-1]","[-0.015095022056048764,-0.03316842223557775]","[1,1,1]","[-0.16014141226064763,0.11929326966808353]","[-1,-1,-1]","[0.1798466708789381,0.08220485159151339]","[-1,-1,-1]","[-0.06989542941973792,0.18420038081333923]","[1,1,1]","[0.08926215725958614,0.0139874431286124]","[1,1,1]","[-0.17082873749238978,0.005013003926936549]","[-1,-1,-1]","[0.18874710303297296,0.02702632137888085]","[1,1,1]","[0.02550994270338806,0.138910563088213]","[1,1,1]","[0.02,0.02]",90.9758,0,9,9,58,1,,,,,,,
,,,,,,,66b38624283af88b5fb39daa,682f0fbb32f730509e8ebe05,2025-05-22_14h18.49.744,cuing_paradigm_dot,2024.1.5,Win32,60.24096386,682d573fa47f1360d1451895,,,,,,,,,,,90.9775,91.4762,,,91.7155,92.7929,left,1.0529,,,,,,,,,0.6,,,,,,91.4769,91.7154,92.7933,"[0.0749997799140609,-0.16895655145298327]","[-1,-1,-1]","[-0.10077882100794627,0.07088199444645352]","[-1,-1,-1]","[0.09630856480089721,0.032227195450755836]","[1,1,1]","[-0.08289332267039337,-0.020404164002496512]","[1,1,1]","[-0.10908027722181679,-0.16740794538418863]","[1,1,1]","[0.13590210224810115,0.12066702204322234]","[1,1,1]","[0.047224602022601876,0.009826874125099309]","[-1,-1,-1]","[-0.12752494406265583,0.10339980515225544]","[-1,-1,-1]","[-0.03322332659875938,-0.1604319358040978]","[1,1,1]","[-0.07832547382854893,0.15238679873617136]","[1,1,1]","[-0.033380658059017576,-0.03617134492630388]","[1,1,1]","[0.07231601231352222,-0.04384163166513339]","[1,1,1]","[0.12282487146071992,-0.04460071659646688]","[1,1,1]","[-0.07400807628511709,-0.06771363337432244]","[-1,-1,-1]","[-0.031910380195306245,0.04658247127915894]","[1,1,1]","[0.09562577308433172,-0.08685939798558193]","[-1,-1,-1]","[0.027083389566632924,-0.05336676939791189]","[1,1,1]","[-0.0562185716836381,-0.12537391346341767]","[-1,-1,-1]","[-0.01846465484470605,0.19912336927706104]","[1,1,1]","[0.047381963590077784,0.10542790845186606]","[1,1,1]","[-0.17231283319372911,0.009183783498279195]","[-1,-1,-1]","[-0.17095055156474065,-0.07975064503741179]","[-1,-1,-1]","[-0.06359372161961249,0.08666062656962153]","[-1,-1,-1]","[-0.16516872478246217,0.053767759215604935]","[-1,-1,-1]","[0.19154791450287995,0.03676534794581519]","[1,1,1]","[0.1481254529058767,0.03095216202677908]","[-1,-1,-1]","[0.1417079242966279,-0.12979930151539457]","[1,1,1]","[-0.024744975330721373,0.1030178064004778]","[-1,-1,-1]","[0.12478882325966091,0.07625080219805074]","[1,1,1]","[0.04766016621632277,0.15621082457927174]","[1,1,1]","[0.021040755325835166,-0.19506929080675295]","[1,1,1]","[0.16880778736868182,-0.04787471534123412]","[1,1,1]","[0.02,0.02]",93.8924,0,10,10,167,1,,,,,,,
,,,,,,,66b38624283af88b5fb39daa,682f0fbb32f730509e8ebe05,2025-05-22_14h18.49.744,cuing_paradigm_dot,2024.1.5,Win32,60.24096386,682d573fa47f1360d1451895,,,,,,,,,,,93.8942,94.3914,,,94.6466,95.1095,left,0.4374,,,,,,,,,0.9,,,,,,94.3915,94.6466,95.1097,"[0.05276063673429092,0.0012831746263431377]","[1,1,1]","[-0.06416421492508698,-0.05460115472154748]","[1,1,1]","[-0.14407754437456785,0.010018694745550345]","[1,1,1]","[-0.13307597153189776,-0.06451867872102149]","[1,1,1]","[0.005571976362039695,-0.0510271906930018]","[1,1,1]","[-0.06339523321420994,0.1625017020776842]","[1,1,1]","[-0.14483228252675587,0.07908445698786154]","[1,1,1]","[-0.002225409231356902,0.18754027341741386]","[1,1,1]","[-0.054772837078461936,0.11156143762186707]","[1,1,1]","[-0.007165398245258287,-0.1595151723543828]","[1,1,1]","[0.11549901298534825,0.0015608220055278268]","[1,1,1]","[-0.008624238734903075,0.022450983522688817]","[1,1,1]","[-0.05551419741836774,-0.1365567363619941]","[1,1,1]","[-0.14126271061724982,0.11914628599270789]","[-1,-1,-1]","[-0.10810788740546644,0.046483671140474615]","[1,1,1]","[0.02939486957459438,-0.09483887267191816]","[1,1,1]","[0.1255116107396019,-0.06605051858510291]","[1,1,1]","[-0.10014645320140647,0.09474440304206688]","[1,1,1]","[0.10265018180917006,-0.15085703779277035]","[1,1,1]","[0.0570192387675265,-0.051219047344369245]","[1,1,1]","[0.10066788777318303,0.08323549390706288]","[1,1,1]","[-0.09069463580471045,0.005884278278869509]","[1,1,1]","[0.18201234494204543,0.0505672427834582]","[1,1,1]","[0.16733461272167305,0.10442044565295948]","[1,1,1]","[-0.19482909461223943,0.013218751165876877]","[-1,-1,-1]","[0.08696011116950629,0.04122459330289811]","[1,1,1]","[0.06987274483184817,-0.1021145238634529]","[1,1,1]","[0.1396879564012906,-0.11682958006847761]","[1,1,1]","[-0.05206621568505737,0.04482361011177692]","[1,1,1]","[-0.15505747168647127,-0.099104999394228]","[1,1,1]","[0.1964657742954068,-0.0018220413879767852]","[1,1,1]","[0.05225182062430152,0.16477582880764133]","[-1,-1,-1]","[0.02,0.02]",96.2108,0,11,11,201,1,,,,,,,
,,,,,,,66b38624283af88b5fb39daa,682f0fbb32f730509e8ebe05,2025-05-22_14h18.49.744,cuing_paradigm_dot,2024.1.5,Win32,60.24096386,682d573fa47f1360d1451895,,,,,,,,,,,96.2112,96.7076,,,96.9638,98.1277,right,1.1469,,,,,,,,,0.5,,,,,,96.7077,96.9637,98.1279,"[0.055715529560712136,-0.16592184440519953]","[1,1,1]","[-0.06305601881961098,-0.17180035913080294]","[-1,-1,-1]","[0.13915455628135168,0.12363523420660004]","[1,1,1]","[-0.07331971635729663,-0.01594100986096797]","[-1,-1,-1]","[0.10511506150930339,-0.060062593390676565]","[1,1,1]","[-0.07980173068768869,-0.1289186711390181]","[1,1,1]","[0.046384591190274806,-0.08381746667805094]","[-1,-1,-1]","[-0.1109460052548014,0.11976438237028036]","[1,1,1]","[-0.06816998466132,0.04591191790065098]","[-1,-1,-1]","[0.01517238686974867,-0.17074061181979078]","[1,1,1]","[0.16500300458554953,-0.008704990639031143]","[1,1,1]","[-0.010804825662863856,0.09980578706683316]","[-1,-1,-1]","[0.1692445098127383,-0.09632772674059865]","[1,1,1]","[0.09577984012965851,0.053178858190809405]","[-1,-1,-1]","[0.024078342561787314,-0.04075861584120074]","[-1,-1,-1]","[0.1761678683433363,-0.0472002058900976]","[1,1,1]","[-0.09036421998821158,-0.0862405759126528]","[-1,-1,-1]","[0.17172451232935193,0.07465932848741606]","[-1,-1,-1]","[-0.03986810805567398,-0.09206779601344532]","[1,1,1]","[-0.08030838082689577,0.1518409925095764]","[-1,-1,-1]","[0.0845441100430681,-0.12860619530345865]","[1,1,1]","[0.08223403613390336,-0.012453093818808011]","[-1,-1,-1]","[0.0007134722178263001,-0.07387962089618257]","[1,1,1]","[-0.01776036820061187,0.04089810070084756]","[1,1,1]","[-0.15204655065335326,0.08528121160363267]","[-1,-1,-1]","[0.05581083606969365,0.1810947678090538]","[1,1,1]","[0.12905266959079476,-0.10570378427611168]","[1,1,1]","[0.10237023890709328,0.16148412981333618]","[-1,-1,-1]","[-0.1864204765056303,-0.06165903992234382]","[1,1,1]","[-0.11917575878930074,0.030453849054749273]","[-1,-1,-1]","[-0.07486933877117216,0.08938337409952898]","[-1,-1,-1]","[-0.15608308555715064,-0.028131758713002646]","[-1,-1,-1]","[0.02,0.02]",99.2238,0,12,12,102,1,,,,,,,
,,,,,,,66b38624283af88b5fb39daa,682f0fbb32f730509e8ebe05,2025-05-22_14h18.49.744,cuing_paradigm_dot,2024.1.5,Win32,60.24096386,682d573fa47f1360d1451895,,,,,,,,,,,99.2258,99.7234,,,99.9799,100.9428,right,0.9409,,,,,,,,,0.4,,,,,,99.7236,99.9799,100.9431,"[-0.03321201123444541,0.049849520329737]","[-1,-1,-1]","[0.003959328879566168,0.027130315633238505]","[1,1,1]","[-0.1638930622296475,-0.012913546011529959]","[-1,-1,-1]","[-0.045765576429842886,0.08924433485014191]","[1,1,1]","[-0.1476413239580826,0.047556582834370344]","[-1,-1,-1]","[0.09565238896469232,-0.0007037303136638269]","[1,1,1]","[0.060031019601269435,-0.12938599474077844]","[1,1,1]","[0.199468205419309,-0.001343493107453297]","[-1,-1,-1]","[0.007130743708361979,-0.07157153106820367]","[-1,-1,-1]","[0.0902556808292291,0.13900306712947355]","[1,1,1]","[0.017860189622692795,0.1775283776921203]","[1,1,1]","[-0.13623307376024774,-0.07426134779180552]","[1,1,1]","[0.11732826342935845,0.09277307496812115]","[-1,-1,-1]","[0.006162875384764182,0.12874643845321407]","[-1,-1,-1]","[0.18752583694558636,-0.04719135044445945]","[-1,-1,-1]","[-0.046872988310403166,-0.03310403690815172]","[-1,-1,-1]","[0.10866456847843797,-0.11231194816576107]","[-1,-1,-1]","[0.16712376780624322,0.07697307137309378]","[1,1,1]","[-0.1072202803070926,0.13370513060267078]","[1,1,1]","[0.08196619340972856,-0.17456720099408346]","[-1,-1,-1]","[-0.19554354465166848,0.031213469718935523]","[1,1,1]","[0.009162673659450515,-0.13798033438227345]","[1,1,1]","[0.1421145659560077,0.02286405230288323]","[-1,-1,-1]","[-0.02912069863585284,0.17024449876366854]","[-1,-1,-1]","[-0.07766087253831225,0.022349923514253064]","[-1,-1,-1]","[-0.17531821064364045,-0.052716220745572105]","[-1,-1,-1]","[0.07559786811065825,-0.05206732377868542]","[-1,-1,-1]","[-0.0716291295490714,0.15448251948789224]","[-1,-1,-1]","[-0.09427878817237988,0.07541166054600298]","[1,1,1]","[0.048359498566821695,0.004457846924550275]","[1,1,1]","[-0.08463567227396267,-0.07797464540910849]","[-1,-1,-1]","[0.1089300979579153,0.0531421863893097]","[-1,-1,-1]","[0.02,0.02]",102.0389,0,13,13,47,1,,,,,,,
,,,,,,,66b38624283af88b5fb39daa,682f0fbb32f730509e8ebe05,2025-05-22_14h18.49.744,cuing_paradigm_dot,2024.1.5,Win32,60.24096386,682d573fa47f1360d1451895,,,,,,,,,,,102.0408,102.5392,,,102.7794,103.8079,right,1.0081,,,,,,,,,0.4,,,,,,102.5394,102.7794,103.808,"[-0.09011242139296519,-0.1058209291624241]","[-1,-1,-1]","[-0.09964851249836092,0.02793021302846616]","[1,1,1]","[0.13188141267526793,0.07164756942299091]","[-1,-1,-1]","[-0.06165984294485889,-0.1734304003239738]","[-1,-1,-1]","[0.15605024350627325,-0.08097436241411292]","[1,1,1]","[0.06559903162417881,-0.1638287952330386]","[-1,-1,-1]","[0.05028679901743297,0.011130720677841289]","[-1,-1,-1]","[-0.0031876057793000386,0.08089278453286462]","[-1,-1,-1]","[-0.09709624870530817,-0.02036106165012414]","[-1,-1,-1]","[0.00950833106310126,-0.1496837336286122]","[-1,-1,-1]","[0.022393183839816814,0.17834497665551005]","[-1,-1,-1]","[0.14905419304503448,-0.039918767613647904]","[-1,-1,-1]","[-0.056733382029047465,0.00022965562420031939]","[1,1,1]","[-0.14767401650021875,0.011055494304566583]","[1,1,1]","[-0.023191848851787027,0.1388956290239292]","[1,1,1]","[0.0893457664812564,-0.1285395405485363]","[-1,-1,-1]","[-0.08895803310198779,0.14930265209580482]","[1,1,1]","[-0.04234614452409153,0.19111656822124667]","[-1,-1,-1]","[0.02578940636290733,-0.1953824466842681]","[-1,-1,-1]","[0.14026897454522896,-0.12562131612635194]","[1,1,1]","[-0.02216720081146546,-0.09924345899487759]","[-1,-1,-1]","[-0.11825657567385241,-0.0757868703347925]","[1,1,1]","[-0.04387862188093522,0.04937454302433287]","[1,1,1]","[0.05978526704854111,-0.03300934531959095]","[-1,-1,-1]","[-0.18946434935113354,0.013187991327987035]","[-1,-1,-1]","[0.07520763537266893,0.13503971837814158]","[-1,-1,-1]","[0.15392911582979887,0.03374888254310025]","[1,1,1]","[0.13638261575016963,0.11580167864204396]","[1,1,1]","[-0.18062990783200183,0.08386055337103754]","[-1,-1,-1]","[-0.005822018602781505,0.0016107230403589834]","[1,1,1]","[-0.0553987560060788,-0.07551197286260826]","[-1,-1,-1]","[0.09629106385830385,-0.07221311342685315]","[1,1,1]","[0.02,0.02]",104.9072,0,14,14,43,1,,,,,,,
,,,,,,,66b38624283af88b5fb39daa,682f0fbb32f730509e8ebe05,2025-05-22_14h18.49.744,cuing_paradigm_dot,2024.1.5,Win32,60.24096386,682d573fa47f1360d1451895,,,,,,,,,,,104.9081,105.4049,,,105.6595,106.1123,right,0.4352,,,,,,,,,0.1,,,,,,105.4051,105.6595,106.1123,"[-0.18428650107380848,0.06657622422542135]","[-1,-1,-1]","[-0.0306668571125702,0.1016161463801949]","[1,1,1]","[-0.05565257673472128,0.022541594176881105]","[-1,-1,-1]","[-0.09406001844795839,0.15336389520934912]","[-1,-1,-1]","[-0.03831059342187614,-0.04025860657322204]","[-1,-1,-1]","[0.03558503601906872,0.19046436476818443]","[-1,-1,-1]","[-0.03584393739058318,-0.11831535549876589]","[-1,-1,-1]","[-0.09226833700660977,0.11215109851271983]","[-1,-1,-1]","[-0.056131178844010095,0.1754851140743288]","[1,1,1]","[0.07087361727647212,-0.01949051718982908]","[-1,-1,-1]","[0.12653870672000186,0.05136056088958064]","[-1,-1,-1]","[-0.01680313312864867,-0.004535696843825044]","[-1,-1,-1]","[-0.010804165445492925,0.06000019224428546]","[-1,-1,-1]","[-0.09929713064231571,-0.08886128506976573]","[-1,-1,-1]","[-0.17786456449871654,-0.07472312658596156]","[1,1,1]","[-0.1525985310580784,0.03164404465184703]","[-1,-1,-1]","[0.1425103698117222,0.09831469924751525]","[-1,-1,-1]","[-0.10981781858737218,-0.01787848236063131]","[-1,-1,-1]","[0.01984037285994739,-0.11115984377389604]","[-1,-1,-1]","[0.08653918959126565,0.09610043104609131]","[-1,-1,-1]","[0.0066636000408775795,-0.17297366871947673]","[-1,-1,-1]","[0.12951326652035589,0.008971927665802558]","[-1,-1,-1]","[0.05526194647908942,-0.16340780481813402]","[-1,-1,-1]","[0.1265551303350173,-0.07880874567154837]","[-1,-1,-1]","[-0.09626651014342939,0.046955999286047996]","[-1,-1,-1]","[0.08648171472150788,0.16505663918878175]","[-1,-1,-1]","[-0.10230960953190547,-0.1429207057612976]","[-1,-1,-1]","[0.024000090672612363,0.08541667653724459]","[-1,-1,-1]","[-0.12714877985064943,-0.059151348071186736]","[-1,-1,-1]","[0.06408205151857448,-0.06994078711216654]","[-1,-1,-1]","[0.05375448871215885,0.05432339571493582]","[-1,-1,-1]","[0.11190213745538458,-0.1484108602386976]","[-1,-1,-1]","[0.02,0.02]",107.2046,0,15,15,28,1,,,,,,,
,,,,,,,66b38624283af88b5fb39daa,682f0fbb32f730509e8ebe05,2025-05-22_14h18.49.744,cuing_paradigm_dot,2024.1.5,Win32,60.24096386,682d573fa47f1360d1451895,,,,,,,,,,,107.2063,107.7041,,,107.9435,108.5726,right,0.6089,,,,,,,,,0.45,,,,,,107.7043,107.9435,108.5727,"[0.07169746621747587,-0.04536500721851161]","[-1,-1,-1]","[0.037725557914255504,-0.1452144817428816]","[-1,-1,-1]","[-0.029042861840838763,0.03457694112641871]","[1,1,1]","[0.08947409569218713,0.07117243503385841]","[-1,-1,-1]","[-0.09235760726230177,0.07484711630146519]","[1,1,1]","[0.1778202775084745,0.015698621265138064]","[1,1,1]","[-0.0972099174753733,0.12012632900037463]","[1,1,1]","[-0.06870570193864386,-0.01778401131002929]","[1,1,1]","[-0.17574589158529097,-0.002176087941261487]","[1,1,1]","[-0.18492460508921182,-0.055620607983932535]","[-1,-1,-1]","[0.14271381031818914,0.09639311977341766]","[1,1,1]","[0.16162413742035922,-0.0361967413862045]","[-1,-1,-1]","[0.02954256797912112,0.07122908664236317]","[-1,-1,-1]","[-0.15070891684930252,-0.12573414539289263]","[-1,-1,-1]","[-0.11133113259806297,-0.04392097792842318]","[-1,-1,-1]","[-0.05782223606432118,-0.16818863095298567]","[-1,-1,-1]","[-0.06332459907881369,-0.07918210315831614]","[1,1,1]","[-0.058425268049702106,0.13221600356622898]","[-1,-1,-1]","[-0.026518073894761938,0.1009611693445957]","[-1,-1,-1]","[-0.16540331412692658,0.052312515960167026]","[1,1,1]","[0.050345820825921546,-0.007061678784440407]","[1,1,1]","[-0.01946904219580808,-0.081144780306822]","[-1,-1,-1]","[0.007833556291726605,0.003415535752589655]","[-1,-1,-1]","[-0.03621119970292355,-0.13065198853807072]","[1,1,1]","[0.07372569187371712,-0.10700545440529116]","[1,1,1]","[0.11452565100123736,0.03278122344967252]","[-1,-1,-1]","[-0.08325881502042662,-0.12267427059257506]","[1,1,1]","[-0.0006807064364186378,0.19300546895389495]","[-1,-1,-1]","[0.1599711522470262,-0.07618433286246423]","[1,1,1]","[-0.10948648981708176,0.16260139577353278]","[-1,-1,-1]","[0.13387042194832713,0.1458201243716224]","[-1,-1,-1]","[0.09611635990526123,0.12034891796165202]","[-1,-1,-1]","[0.02,0.02]",109.67,0,16,16,85,1,,,,,,,
,,,,,,,66b38624283af88b5fb39daa,682f0fbb32f730509e8ebe05,2025-05-22_14h18.49.744,cuing_paradigm_dot,2024.1.5,Win32,60.24096386,682d573fa47f1360d1451895,,,,,,,,,,,109.6719,110.1703,,,110.4198,110.923,right,0.4846,,,,,,,,,0.45,,,,,,110.1705,110.4198,110.9232,"[-0.07144040334766369,-0.14242207467692244]","[-1,-1,-1]","[-0.04189553193990246,-0.10152790770756237]","[1,1,1]","[-0.08162879946870423,0.10572069304990882]","[-1,-1,-1]","[0.02981846940871847,0.18727013039865528]","[-1,-1,-1]","[0.06250280887647411,0.026570677810849815]","[-1,-1,-1]","[0.07689649496636174,0.15343513748879056]","[1,1,1]","[0.12079431189344832,-0.08994890193872146]","[-1,-1,-1]","[-0.19266026787550017,0.02920045811945064]","[-1,-1,-1]","[-0.008333012463188894,0.03355875142778505]","[-1,-1,-1]","[-0.045608685244532016,0.1870772250392769]","[1,1,1]","[-0.07314518865863537,-0.061457779210820455]","[1,1,1]","[-0.0745025598578722,0.05955405413961323]","[-1,-1,-1]","[-0.12904362667803143,0.042795372751192995]","[-1,-1,-1]","[0.05836843993182899,-0.046188088791360334]","[1,1,1]","[0.11411270892825247,-0.021176543311941392]","[1,1,1]","[0.034828844901229734,-0.17861805199668976]","[1,1,1]","[0.018294100659875016,-0.06262770518406176]","[1,1,1]","[0.10785567008546407,-0.16247319743009517]","[-1,-1,-1]","[0.004401908684707116,0.14716805090321733]","[1,1,1]","[-0.10533532796338096,-0.008338571093867158]","[1,1,1]","[-0.15362261241269173,-0.10653096529332007]","[1,1,1]","[0.18367659792834332,-0.024729337183153444]","[1,1,1]","[0.1377476585265507,0.13466246354687542]","[-1,-1,-1]","[-0.058117114293844564,-0.0038687235921047143]","[-1,-1,-1]","[0.019842273830292953,-0.13942956824132777]","[1,1,1]","[-0.15549739371298718,0.0010329661661673873]","[-1,-1,-1]","[-0.0895612399932817,0.16781021664587661]","[-1,-1,-1]","[-0.0020990856283723725,0.09396268395683981]","[1,1,1]","[0.09255618045654478,-0.12312909616504877]","[-1,-1,-1]","[0.17479152123318373,0.05435243257884672]","[-1,-1,-1]","[-0.01238454564712709,-0.16406471251304744]","[-1,-1,-1]","[-0.039985545454127726,0.11185893080931182]","[-1,-1,-1]","[0.02,0.02]",112.0191,0,17,17,60,1,,,,,,,
,,,,,,,66b38624283af88b5fb39daa,682f0fbb32f730509e8ebe05,2025-05-22_14h18.49.744,cuing_paradigm_dot,2024.1.5,Win32,60.24096386,682d573fa47f1360d1451895,,,,,,,,,,,112.0199,112.519,,,112.7688,113.5543,right,0.7712,,,,,,,,,0.45,,,,,,112.5191,112.7688,113.5544,"[-0.006606124280214344,-0.09482088971838035]","[-1,-1,-1]","[0.00363656661911874,-0.01566205290555824]","[1,1,1]","[0.009997013519772682,0.14293659952526735]","[-1,-1,-1]","[0.10009107435740948,0.06659735892532376]","[1,1,1]","[0.16181867417913257,-0.006917067741999637]","[-1,-1,-1]","[0.15972793909192454,0.07383186061928197]","[1,1,1]","[-0.04612941698546848,0.05592926422643924]","[1,1,1]","[-0.050731570553283756,0.14601635047622638]","[-1,-1,-1]","[-0.12839597233101005,0.02530262291057165]","[1,1,1]","[0.00137676218543458,0.04717578256424889]","[1,1,1]","[0.19360311617752068,0.021252039115131734]","[-1,-1,-1]","[0.013661668608753707,-0.19907058770130565]","[-1,-1,-1]","[-0.11352107961120629,0.1310377813046372]","[-1,-1,-1]","[-0.18653686576182596,0.029544114136473062]","[1,1,1]","[0.1663899491141424,-0.07474069158974876]","[-1,-1,-1]","[-0.12715879656546142,-0.10812302388811919]","[1,1,1]","[0.09142094746699944,0.13811179914440372]","[1,1,1]","[0.115197081928262,-0.08560162759125256]","[-1,-1,-1]","[-0.05763276636203204,-0.0076874206629379445]","[1,1,1]","[0.04475850847236886,0.0947217261711875]","[-1,-1,-1]","[0.07687233931698526,-0.14327535981383044]","[-1,-1,-1]","[-0.18770695365414825,-0.05234511660481486]","[-1,-1,-1]","[0.037867450620276966,0.19260927314238221]","[-1,-1,-1]","[-0.06541328747001071,-0.14354416258411754]","[1,1,1]","[0.06808890731791992,-0.1825713338377535]","[-1,-1,-1]","[-0.07060635138503281,-0.07330470491265771]","[-1,-1,-1]","[0.13514848156355178,-0.13827351763363335]","[1,1,1]","[-0.09474120959230466,0.05080801243099948]","[-1,-1,-1]","[-0.04067006122062738,-0.17513094846297578]","[1,1,1]","[0.13280982133074073,0.10470148307066511]","[-1,-1,-1]","[0.04405954293096853,-0.015800618582496026]","[-1,-1,-1]","[0.11250951233634499,0.017860049228743586]","[1,1,1]","[0.02,0.02]",114.6511,0,18,18,81,1,,,,,,,
,,,,,,,66b38624283af88b5fb39daa,682f0fbb32f730509e8ebe05,2025-05-22_14h18.49.744,cuing_paradigm_dot,2024.1.5,Win32,60.24096386,682d573fa47f1360d1451895,,,,,,,,,,,114.6517,115.1509,,,115.4014,116.1011,right,0.6844,,,,,,,,,0.5,,,,,,115.151,115.4013,116.1013,"[-0.17786724917624602,-0.03277483919496285]","[-1,-1,-1]","[-0.08456512408898169,-0.07187669607794939]","[1,1,1]","[0.06338603611592282,0.09315855940124873]","[1,1,1]","[0.16106862770746608,0.10564947643178595]","[1,1,1]","[-0.07138940936878313,-0.0084112862834018]","[-1,-1,-1]","[0.029608833037548136,-0.03346097824322636]","[-1,-1,-1]","[-0.14585736279819136,0.09249912203836683]","[-1,-1,-1]","[-0.022401218140258975,0.12250795697587126]","[-1,-1,-1]","[-0.12775012676524242,-0.08802964209155426]","[-1,-1,-1]","[0.17438970655321853,0.03844565643994292]","[1,1,1]","[-0.0633702769939056,-0.18070991201463665]","[-1,-1,-1]","[0.12799099909806017,-0.04690500852410303]","[-1,-1,-1]","[-0.12616880762526253,0.03557684095858502]","[1,1,1]","[0.06412847099392782,-0.07558974202670674]","[-1,-1,-1]","[0.0656315203820674,-0.15484033386868434]","[1,1,1]","[0.1133465414759163,-0.13155809336286142]","[-1,-1,-1]","[0.01330074396715006,0.14698483713506805]","[1,1,1]","[0.01507395031207814,0.03479598392140459]","[-1,-1,-1]","[0.0542037851834627,0.018737091195878238]","[-1,-1,-1]","[-0.0032753925790570773,-0.008974178923035033]","[1,1,1]","[-0.07245593138119243,0.1459289476255876]","[1,1,1]","[-0.06319278986736222,0.06973512646753754]","[-1,-1,-1]","[-0.09106249368610572,-0.12692928339268694]","[-1,-1,-1]","[0.022372114830619894,-0.17992625616869945]","[1,1,1]","[-0.11196617368607932,0.12363690990699373]","[-1,-1,-1]","[0.08006570995283427,0.054504718473937654]","[1,1,1]","[0.10142212655383809,-0.09020038193096788]","[1,1,1]","[-0.04552278581354662,-0.13546745526354606]","[1,1,1]","[0.08314433403247011,-0.02835772103145717]","[1,1,1]","[0.05792570978236448,0.1397199780291794]","[1,1,1]","[-0.11411474973422712,-0.007712116167112199]","[1,1,1]","[0.033695481328999285,0.19236875290344788]","[-1,-1,-1]","[0.02,0.02]",117.2007,0,19,19,99,1,,,,,,,
,,,,,,,66b38624283af88b5fb39daa,682f0fbb32f730509e8ebe05,2025-05-22_14h18.49.744,cuing_paradigm_dot,2024.1.5,Win32,60.24096386,682d573fa47f1360d1451895,,,,,,,,,,,117.2016,117.7005,,,117.9506,119.1841,left,1.2248,,,,,,,,,0.45,,,,,,117.7006,117.9504,119.1845,"[0.007874176974479166,0.07599776768056679]","[-1,-1,-1]","[0.055756079278254767,0.009587469890179392]","[-1,-1,-1]","[0.06867656489481128,0.18025445038702198]","[-1,-1,-1]","[-0.027797479868964536,-0.10260583484033638]","[-1,-1,-1]","[0.0972024066672612,0.0559780287929018]","[1,1,1]","[0.13574427350357018,-0.08853720400190825]","[-1,-1,-1]","[0.08185623853676062,-0.17502703829874786]","[-1,-1,-1]","[-0.1252692359980498,0.1014435215508421]","[-1,-1,-1]","[-0.035239033458954024,0.07440724230572099]","[-1,-1,-1]","[0.08186638867908341,-0.10541133033438521]","[-1,-1,-1]","[-0.10075777164566302,-0.02585449950656561]","[1,1,1]","[-0.08261352008734922,0.11769886343671114]","[1,1,1]","[-0.03418649607944244,0.19154968574683964]","[-1,-1,-1]","[0.06206391951056733,0.09625757678579766]","[-1,-1,-1]","[-0.15745507078351673,-0.09662455919396207]","[-1,-1,-1]","[-0.03951861571391993,0.14904567694403387]","[-1,-1,-1]","[-0.07737513893602362,-0.1052516270043431]","[1,1,1]","[-0.01659564141235095,-0.1553728210413704]","[1,1,1]","[0.10702434995336739,-0.040185647872146533]","[1,1,1]","[-0.09958013040804867,-0.07052811948360199]","[1,1,1]","[0.19319460123730023,-0.03781056788680359]","[1,1,1]","[0.021542147056114475,-0.06166413458383046]","[1,1,1]","[0.17891020728198495,0.013241877841473614]","[1,1,1]","[-0.14131435446550455,-0.136075362372181]","[-1,-1,-1]","[0.03049825024083917,0.1554532083734881]","[-1,-1,-1]","[-0.1022247728178115,0.017677820091441584]","[-1,-1,-1]","[-0.15113220406489628,0.06855167564364929]","[-1,-1,-1]","[0.11333597110995196,0.010714621592081523]","[1,1,1]","[-0.170528301254974,-0.03871267967139965]","[1,1,1]","[0.1120239978323093,0.13989607593920694]","[1,1,1]","[-0.07648168844430643,-0.17431948143715034]","[-1,-1,-1]","[0.12811768286773184,0.08774734657376856]","[1,1,1]","[0.02,0.02]",120.2827,0,20,20,66,1,,,,,,,
,,,,,,,66b38624283af88b5fb39daa,682f0fbb32f730509e8ebe05,2025-05-22_14h18.49.744,cuing_paradigm_dot,2024.1.5,Win32,60.24096386,682d573fa47f1360d1451895,,,,,,,,,,,120.2839,120.783,,,121.0234,121.6004,left,0.5529,,,,,,,,,0.6,,,,,,120.7831,121.0233,121.6012,"[-0.07826041450298996,0.0004216968656884053]","[-1,-1,-1]","[-0.08185083684242424,0.05404578407463747]","[-1,-1,-1]","[-0.06403726483533827,-0.10884530837711355]","[1,1,1]","[0.03845117525118107,0.009024183315798228]","[1,1,1]","[0.17422081187490318,-0.029128103601711596]","[1,1,1]","[0.020536535654275795,-0.04917610074900695]","[1,1,1]","[0.03203013444651398,0.05965937165529805]","[1,1,1]","[-0.1501765434279942,0.020149510552083933]","[1,1,1]","[0.07455925146515995,0.03982470390368321]","[-1,-1,-1]","[0.07225316059269385,-0.027942405804909597]","[1,1,1]","[-0.05318262314155144,-0.03700879430895378]","[-1,-1,-1]","[-0.045893610975095325,0.10391739465496116]","[-1,-1,-1]","[-0.11063675295704031,0.10219523678019277]","[1,1,1]","[0.03964686171531595,-0.16198324914369153]","[-1,-1,-1]","[0.08837018537143311,0.11005785414746946]","[-1,-1,-1]","[0.0894728553069704,-0.09048493104264568]","[1,1,1]","[-0.008827477867874052,-0.10189401495805778]","[1,1,1]","[0.12868218159278255,-0.12089306008589408]","[1,1,1]","[0.10681431002732149,0.06887175988496035]","[-1,-1,-1]","[0.1463657669080902,0.03358198145900985]","[1,1,1]","[0.05132678122119494,0.14541446776546677]","[1,1,1]","[-0.07702997217529495,0.13727414824687248]","[1,1,1]","[-0.17737558134376727,0.052896096182621706]","[-1,-1,-1]","[-0.009155131038708068,-0.18452859166376273]","[-1,-1,-1]","[0.13834310298035057,-0.009812600898608696]","[1,1,1]","[-0.11587521830563305,-0.025608501744618206]","[-1,-1,-1]","[0.13269343397049724,0.14194330269890754]","[1,1,1]","[0.16539410699243426,-0.07528173042199797]","[1,1,1]","[0.08047794700392234,-0.18082838382067862]","[-1,-1,-1]","[-0.0363793353992476,0.03701830611142834]","[1,1,1]","[-0.10273141049337571,-0.16557440993340622]","[1,1,1]","[-0.008640141265819011,0.0781206070701283]","[-1,-1,-1]","[0.02,0.02]",122.6988,0,21,21,171,1,,,,,,,
,,,,,,,66b38624283af88b5fb39daa,682f0fbb32f730509e8ebe05,2025-05-22_14h18.49.744,cuing_paradigm_dot,2024.1.5,Win32,60.24096386,682d573fa47f1360d1451895,,,,,,,,,,,122.701,123.1992,,,123.4548,123.9556,right,0.4847,,,,,,,,,0.1,,,,,,123.1993,123.4547,123.9556,"[-0.013497955604309025,0.06510137802045068]","[-1,-1,-1]","[-0.14618438734485711,-0.0737243687674156]","[-1,-1,-1]","[0.11418761240471961,0.051100471904934566]","[1,1,1]","[0.09273568122228157,-0.16012549948400406]","[-1,-1,-1]","[-0.07869838678688486,0.13976148145294892]","[-1,-1,-1]","[-0.1923325578033563,0.003437232079772363]","[-1,-1,-1]","[0.08957976099320777,-0.09195618955824778]","[-1,-1,-1]","[-0.06849697950145052,0.020281280150026115]","[1,1,1]","[-0.13769903136739756,0.030692459020167623]","[-1,-1,-1]","[-0.10950564152411343,0.05958186150305419]","[-1,-1,-1]","[0.14852048540993495,-0.12380582407372394]","[-1,-1,-1]","[-0.06434383626271174,-0.16874814666429544]","[-1,-1,-1]","[0.06752520925966485,-0.038423859067647906]","[-1,-1,-1]","[0.0733652174661435,0.15910409645532322]","[-1,-1,-1]","[0.17570255868070866,-0.04292548684481593]","[-1,-1,-1]","[0.026396213997217387,-0.06634652244442812]","[-1,-1,-1]","[-0.027903146151001857,0.15728237222374206]","[-1,-1,-1]","[0.0500864175430025,-0.11608136317297933]","[-1,-1,-1]","[0.08798993847465544,0.008268943908245356]","[-1,-1,-1]","[0.18940620046566578,0.03280468734862668]","[-1,-1,-1]","[-0.005578068873709403,-0.19179932828302332]","[-1,-1,-1]","[-0.08056370346530872,0.09429853794116087]","[-1,-1,-1]","[-0.05063437222036513,-0.09044930977970954]","[-1,-1,-1]","[0.04895433788688531,0.06580450263627627]","[-1,-1,-1]","[0.11948355642376123,-0.037309164798441846]","[1,1,1]","[-0.09778933006176396,-0.03278452982268335]","[-1,-1,-1]","[-0.14246308668288904,-0.13964604488875956]","[-1,-1,-1]","[-0.081139921409069,-0.11869454730272476]","[-1,-1,-1]","[-0.151244270774371,0.10279158576752935]","[-1,-1,-1]","[0.041380987002719846,0.12078932289631775]","[-1,-1,-1]","[-0.02253234247333326,-0.026455456441704155]","[-1,-1,-1]","[-0.1911676940204353,-0.045197024045327605]","[-1,-1,-1]","[0.02,0.02]",125.0482,0,22,22,17,1,,,,,,,
,,,,,,,66b38624283af88b5fb39daa,682f0fbb32f730509e8ebe05,2025-05-22_14h18.49.744,cuing_paradigm_dot,2024.1.5,Win32,60.24096386,682d573fa47f1360d1451895,,,,,,,,,,,125.0502,125.5478,,,125.8022,127.1338,right,1.3093,,,,,,,,,0.45,,,,,,125.548,125.8021,127.134,"[0.04589618807173938,-0.05068943080105001]","[1,1,1]","[-0.10402330053590653,0.15534302531587843]","[-1,-1,-1]","[0.07231398491629268,0.019225678901518547]","[-1,-1,-1]","[-0.05841607703802908,0.07135839122387246]","[1,1,1]","[0.11205358737148587,-0.08810183859288546]","[-1,-1,-1]","[0.14886594000436032,-0.04197765985465666]","[1,1,1]","[0.018196284101199205,0.11545528698743136]","[1,1,1]","[0.005593225883357747,0.15894687873719526]","[-1,-1,-1]","[-0.0645962142760289,-0.08166735168015311]","[-1,-1,-1]","[-0.1059236303866944,0.07636605434569914]","[1,1,1]","[0.17508224858298702,0.05309139196407269]","[-1,-1,-1]","[0.0696157742737001,0.13265703501121406]","[-1,-1,-1]","[-0.02465374337761333,-0.1808434377228285]","[-1,-1,-1]","[-0.06872061877715799,0.1809936640579311]","[1,1,1]","[-0.1773375501522597,-0.07569491654333732]","[1,1,1]","[0.13229416710578717,0.04755456882303067]","[1,1,1]","[0.15342580878698336,-0.10105504312043488]","[1,1,1]","[0.08100850751464808,0.1729149471048789]","[-1,-1,-1]","[0.002206082142568203,-0.10543933282230677]","[-1,-1,-1]","[-0.03674822238368482,-0.022112910889302707]","[1,1,1]","[-0.01808076559993502,0.08880902566841684]","[-1,-1,-1]","[-0.17597910405733977,0.036958801156849755]","[1,1,1]","[0.1128666755781038,-0.15325828900013183]","[-1,-1,-1]","[-0.10164794650096622,-0.15094857699350608]","[1,1,1]","[-0.12656678278628936,-0.01284406636628463]","[1,1,1]","[0.02999199917788493,-0.19512312326326328]","[-1,-1,-1]","[0.021520466544236058,-0.0011086016166908079]","[-1,-1,-1]","[-0.18224480402223847,0.07883349295304384]","[1,1,1]","[-0.11181945195461823,-0.06473469589905397]","[-1,-1,-1]","[-0.017570678967844734,0.014270493980738997]","[-1,-1,-1]","[0.085365463850393,0.08351719300020366]","[-1,-1,-1]","[-0.06923737488244026,0.13249801794522972]","[-1,-1,-1]","[0.02,0.02]",128.2307,0,23,23,64,1,,,,,,,
,,,,,,,66b38624283af88b5fb39daa,682f0fbb32f730509e8ebe05,2025-05-22_14h18.49.744,cuing_paradigm_dot,2024.1.5,Win32,60.24096386,682d573fa47f1360d1451895,,,,,,,,,,,128.2326,128.7302,,,128.987,129.8536,left,0.8511,,,,,,,,,0.5,,,,,,128.7304,128.987,129.8538,"[0.1394470895584376,0.10624101441933312]","[-1,-1,-1]","[0.10305756747946718,-0.05081200694165101]","[-1,-1,-1]","[0.02939436056526911,-0.12928918735652728]","[1,1,1]","[0.0485953401201031,-0.01042678924962429]","[-1,-1,-1]","[-0.0373459539029312,0.1934510288468565]","[1,1,1]","[0.05940757173518204,0.14340188988186636]","[-1,-1,-1]","[0.11322068998695649,0.020326642968722327]","[-1,-1,-1]","[-0.14291735466138886,0.07168271019460282]","[-1,-1,-1]","[-0.13575670591692549,-0.07780735839501078]","[1,1,1]","[-0.10877234191765779,-0.14289620103109218]","[1,1,1]","[0.15754139947085866,-0.1009993805481717]","[-1,-1,-1]","[-0.10054128595688074,0.11372727308378938]","[1,1,1]","[-0.05061600466663875,-0.003495722781219589]","[1,1,1]","[-0.011665125149813927,-0.19907311589785234]","[1,1,1]","[0.05335028479661353,0.19214120517127023]","[-1,-1,-1]","[0.17276427711395062,0.007750364732840109]","[1,1,1]","[-0.10381584418305273,-0.002634262655103762]","[-1,-1,-1]","[-0.06030996198323913,-0.17672941950315596]","[1,1,1]","[-0.03916409601619713,0.04098607097893801]","[-1,-1,-1]","[0.02883577533140562,-0.1873496273559667]","[1,1,1]","[-0.00041769682417154336,0.10685568179422199]","[-1,-1,-1]","[0.19055456400091014,-0.04248407308776787]","[1,1,1]","[0.06990315920465939,-0.10609153551670576]","[1,1,1]","[-0.021584821546132504,-0.03564739828934621]","[-1,-1,-1]","[-0.1806001313024178,0.0033972117984476476]","[-1,-1,-1]","[-0.0526442134685514,-0.1356215824867484]","[1,1,1]","[0.17354674545238188,0.069457591726358]","[-1,-1,-1]","[0.0977943659234449,0.07374221693640914]","[-1,-1,-1]","[-0.00520422589061614,0.011040131496572498]","[1,1,1]","[-0.05248696241390382,-0.06780921715409673]","[-1,-1,-1]","[0.08666604869886568,-0.1627306407971245]","[1,1,1]","[-0.06445161177215059,0.13843203250575506]","[1,1,1]","[0.02,0.02]",130.9456,0,24,24,92,1,,,,,,,
,,,,,,,66b38624283af88b5fb39daa,682f0fbb32f730509e8ebe05,2025-05-22_14h18.49.744,cuing_paradigm_dot,2024.1.5,Win32,60.24096386,682d573fa47f1360d1451895,,,,,,,,,,,130.9469,131.4453,,,131.7029,132.6985,left,0.9758,,,,,,,,,0.6,,,,,,131.4453,131.7028,132.6988,"[-0.05068186222365454,-0.14666846032265596]","[-1,-1,-1]","[-0.03885266319604698,-0.09529566413242091]","[1,1,1]","[-0.0009247837605568254,0.1341642838901943]","[1,1,1]","[0.06482982869362927,0.12728390422533686]","[1,1,1]","[-0.08195611055009411,-0.050087455426788566]","[-1,-1,-1]","[-0.19179707180633124,-0.03163388247830287]","[-1,-1,-1]","[-0.03059066131062262,-0.1816015661306964]","[-1,-1,-1]","[0.026483739245217724,0.04045047626404103]","[1,1,1]","[0.10558877816932184,-0.09566303196837889]","[1,1,1]","[0.037086629477449305,-0.1338799164105147]","[1,1,1]","[-0.148731240921342,-0.06268766522299808]","[-1,-1,-1]","[0.01657894179339893,-0.19420478705285713]","[-1,-1,-1]","[0.11675349980987838,0.12297718851483332]","[-1,-1,-1]","[-0.09009526635571617,0.029480092725842025]","[-1,-1,-1]","[0.04718797708180422,0.16505673273121038]","[1,1,1]","[0.1767162044400887,-0.02558149520534853]","[1,1,1]","[-0.0468541799718625,0.09648283105222143]","[1,1,1]","[-0.007550813677099307,-0.0682081032005604]","[-1,-1,-1]","[-0.14290138528704904,-0.1384151408657162]","[-1,-1,-1]","[-0.0900238185542016,-0.15874101201737856]","[1,1,1]","[0.06408854623794992,-0.18113969834824403]","[1,1,1]","[-0.04493716012982281,-0.028454788818374644]","[-1,-1,-1]","[-0.036841467078548656,0.03494712245564396]","[1,1,1]","[-0.08193768694934452,-0.09586016968875204]","[1,1,1]","[-0.10808565566906947,0.1234581309876929]","[1,1,1]","[0.08916948288430246,0.06238827936732927]","[1,1,1]","[-0.13201099565587399,0.04786724141805349]","[1,1,1]","[-0.12090484221195773,-0.010203696472150935]","[-1,-1,-1]","[0.07897112392143286,-0.0623071936186422]","[1,1,1]","[0.14670634242237116,0.0850514205448645]","[1,1,1]","[0.09051047568842079,0.16378122011644003]","[1,1,1]","[0.036728705545688495,-0.02105080132478016]","[-1,-1,-1]","[0.02,0.02]",133.7947,0,25,25,165,1,,,,,,,
,,,,,,,66b38624283af88b5fb39daa,682f0fbb32f730509e8ebe05,2025-05-22_14h18.49.744,cuing_paradigm_dot,2024.1.5,Win32,60.24096386,682d573fa47f1360d1451895,,,,,,,,,,,133.7966,134.2954,,,134.5455,135.4286,right,0.8661,,,,,,,,,0.45,,,,,,134.2956,134.5455,135.4287,"[-0.165081276387372,-0.004245129770830866]","[-1,-1,-1]","[0.13688560633539176,-0.029201364128432394]","[1,1,1]","[-0.1152911686658417,-0.1328395434279856]","[-1,-1,-1]","[-0.1471666006821499,0.056897586453746]","[1,1,1]","[-0.07146565309752469,0.12273950293906026]","[-1,-1,-1]","[-0.0352257616645591,0.09120191657582552]","[1,1,1]","[-0.12194280203018011,-0.055144925709685814]","[-1,-1,-1]","[-0.00018487841162487112,0.1305464715774764]","[1,1,1]","[-0.07480992449212803,-0.03252969934232524]","[-1,-1,-1]","[-0.15454555292645542,-0.10644008796043482]","[-1,-1,-1]","[-0.11967494053296154,0.11193938038652841]","[1,1,1]","[0.023329491288986693,0.07723509321067906]","[1,1,1]","[-0.024214687500084157,-0.05115963386560874]","[-1,-1,-1]","[0.06403882280215807,0.18155909589537594]","[1,1,1]","[-0.045810022046906436,-0.1410524502315885]","[-1,-1,-1]","[0.1265100866888287,-0.12275803760478039]","[-1,-1,-1]","[-0.08594054531878237,0.02287453686783834]","[-1,-1,-1]","[0.11899427869402662,0.05168999748499843]","[-1,-1,-1]","[0.07418512890425964,-0.17708223448997676]","[1,1,1]","[0.1617061610485748,-0.06948603714048047]","[1,1,1]","[0.07203049318139856,-0.011894768219256576]","[-1,-1,-1]","[-0.05394797445187967,-0.09620542688279968]","[-1,-1,-1]","[0.0709337311390949,0.13451241721565424]","[-1,-1,-1]","[-0.006354313810728463,0.034835542852583945]","[1,1,1]","[0.030973390063965663,-0.10326853199493453]","[-1,-1,-1]","[0.13408105462993783,0.1333802890883538]","[1,1,1]","[0.021101945930694616,0.18915535278390277]","[-1,-1,-1]","[0.08742604633056675,-0.06783773272825959]","[-1,-1,-1]","[0.1578104101747515,0.06765303398266388]","[1,1,1]","[-0.07945255812792026,0.18200645082696976]","[1,1,1]","[-0.06855217356501858,-0.17543570263916294]","[1,1,1]","[0.09732709067248353,0.09004530246934658]","[-1,-1,-1]","[0.02,0.02]",136.5275,0,26,26,67,1,,,,,,,
,,,,,,,66b38624283af88b5fb39daa,682f0fbb32f730509e8ebe05,2025-05-22_14h18.49.744,cuing_paradigm_dot,2024.1.5,Win32,60.24096386,682d573fa47f1360d1451895,,,,,,,,,,,136.5285,137.0273,,,137.2845,137.83,right,0.5263,,,,,,,,,0.4,,,,,,137.0274,137.2843,137.8302,"[-0.034690201158933565,0.0594221506890835]","[-1,-1,-1]","[0.011673155840562085,0.11357459824920504]","[1,1,1]","[-0.001138058135655373,-0.016550606483332616]","[-1,-1,-1]","[0.10467468332504706,-0.11109860820376417]","[-1,-1,-1]","[0.13894451320098924,0.06731583777391097]","[1,1,1]","[-0.09916275934508927,-0.12629877916420698]","[-1,-1,-1]","[0.1091308952239053,-0.04365617822509505]","[1,1,1]","[0.019437891278969992,-0.14263376860921015]","[-1,-1,-1]","[-0.1693817643293831,0.0019564051787178903]","[-1,-1,-1]","[0.089467364407136,0.16185426487850132]","[1,1,1]","[0.1917976975892443,0.01813375280585046]","[1,1,1]","[0.03251033284370346,-0.08376468224000339]","[-1,-1,-1]","[-0.043551104987612256,0.1419003933191326]","[-1,-1,-1]","[0.11688742075307458,0.12043896395949258]","[1,1,1]","[0.0504410904580852,0.0456690681169999]","[-1,-1,-1]","[-0.016305655684468234,-0.06204080496352577]","[-1,-1,-1]","[0.1450066259983938,-0.11641922945985889]","[-1,-1,-1]","[-0.1434597158457355,0.09868347452352311]","[-1,-1,-1]","[-0.05369924608865228,-0.15701177408946704]","[-1,-1,-1]","[-0.14785239338909173,0.03789250638279854]","[1,1,1]","[-0.1800876122094742,-0.08601994757605466]","[-1,-1,-1]","[-0.06167224650422678,0.024861509889797892]","[1,1,1]","[0.07362561987154867,0.09452222906924523]","[-1,-1,-1]","[-0.18980745753848735,-0.040868936804576]","[-1,-1,-1]","[-0.10252769144571185,0.010924768370435442]","[-1,-1,-1]","[0.10681805913699916,-0.166016426975045]","[-1,-1,-1]","[-0.008407073468201135,-0.11227330700685545]","[1,1,1]","[0.05703199423236233,-0.04785920560923987]","[1,1,1]","[0.1556683736648221,-0.045040713645594074]","[-1,-1,-1]","[-0.10936117024049237,-0.07250627173828855]","[1,1,1]","[-0.01260754839920966,0.1720526485320102]","[1,1,1]","[-0.01496043455815506,-0.16809205000616373]","[1,1,1]","[0.02,0.02]",138.9288,0,27,27,44,1,,,,,,,
,,,,,,,66b38624283af88b5fb39daa,682f0fbb32f730509e8ebe05,2025-05-22_14h18.49.744,cuing_paradigm_dot,2024.1.5,Win32,60.24096386,682d573fa47f1360d1451895,,,,,,,,,,,138.9295,139.4267,,,139.667,140.5787,right,0.8903,,,,,,,,,0.45,,,,,,139.4269,139.667,140.5788,"[-0.1662305205937517,-0.011237015248086764]","[1,1,1]","[-0.056482098668831034,0.1470260571603773]","[1,1,1]","[0.13896897351027213,-0.05115871813096467]","[1,1,1]","[-0.034714323389707376,0.05093781794934155]","[1,1,1]","[0.07672193961962577,-0.15057176030160338]","[-1,-1,-1]","[-0.1233560994859254,0.06972502727976253]","[1,1,1]","[0.023613772511558006,0.028234948602763398]","[-1,-1,-1]","[-0.011284938595970245,0.1442989066170274]","[-1,-1,-1]","[0.061473855143258045,0.13657884231871628]","[-1,-1,-1]","[-0.06568662971428117,-0.12698769392854015]","[-1,-1,-1]","[-0.09456094252155603,-0.027468264387594775]","[-1,-1,-1]","[-0.004852567315728506,-0.096785233966103]","[1,1,1]","[0.035166048471692385,-0.04453810678836636]","[1,1,1]","[0.07766370025366344,-0.05869466377032159]","[-1,-1,-1]","[0.04032340998156682,0.06472063666394533]","[1,1,1]","[-0.0028145477843343637,-0.028090018131992436]","[-1,-1,-1]","[0.18242424893533196,-0.009241049226938634]","[1,1,1]","[-0.15096846748217432,0.12283107554579605]","[-1,-1,-1]","[-0.15990851533049608,0.04511010088343758]","[1,1,1]","[0.13866868301736862,-0.13793869856142937]","[-1,-1,-1]","[-0.01225797306141312,-0.17701830471607316]","[1,1,1]","[0.019730327254243365,0.17123004433702152]","[-1,-1,-1]","[-0.1320102763504146,-0.13793951029559137]","[1,1,1]","[0.03539775362664548,-0.16901514796138242]","[1,1,1]","[-0.1949174710542978,0.025106537485535183]","[-1,-1,-1]","[0.13116662047086794,0.05525546602051303]","[-1,-1,-1]","[0.1034261347420143,0.13866468210941799]","[-1,-1,-1]","[0.033185576087108815,0.10708913046056572]","[-1,-1,-1]","[-0.05097105818340464,-0.08137442149721094]","[-1,-1,-1]","[0.09138388972843862,-0.014759313438229964]","[-1,-1,-1]","[-0.10102679420460643,0.028216410605742634]","[1,1,1]","[-0.1276517624372299,-0.05335501192570914]","[-1,-1,-1]","[0.02,0.02]",141.676,0,28,28,63,1,,,,,,,
,,,,,,,66b38624283af88b5fb39daa,682f0fbb32f730509e8ebe05,2025-05-22_14h18.49.744,cuing_paradigm_dot,2024.1.5,Win32,60.24096386,682d573fa47f1360d1451895,,,,,,,,,,,141.6779,142.1757,,,142.4295,143.1934,left,0.7369,,,,,,,,,0.9,,,,,,142.1759,142.4294,143.1938,"[0.11232905373648662,-0.09134256727234748]","[1,1,1]","[-0.09277518882896259,0.12079438278623966]","[1,1,1]","[-0.05907963212698063,-0.11745026849019632]","[1,1,1]","[-0.04465113528466698,0.011256890246011701]","[1,1,1]","[0.030592484292191646,-0.055804540451814266]","[1,1,1]","[0.04891739125519627,-0.10506284036227101]","[1,1,1]","[-0.026778275249151235,-0.17658551550046048]","[1,1,1]","[-0.038903396812330404,0.07882077580634063]","[1,1,1]","[-0.17677497460675662,0.044588690165823244]","[1,1,1]","[-0.036442626304472286,0.14088359662219835]","[1,1,1]","[-0.11029282704023874,-0.02478492205277051]","[1,1,1]","[-0.08649543613729486,-0.15715800103868532]","[1,1,1]","[-0.13937096999338291,0.06231971884612323]","[1,1,1]","[0.014149856738735997,0.023792091514317434]","[1,1,1]","[0.04598563932475308,-0.009343310182000157]","[1,1,1]","[0.10381468001230611,0.031109687880795274]","[1,1,1]","[0.035208532514628764,0.19076298577501077]","[1,1,1]","[-0.10828105467431258,0.16802395942801118]","[1,1,1]","[-0.0964803527773361,-0.07036814616726975]","[1,1,1]","[0.08646158839701942,0.12820754101844328]","[1,1,1]","[-0.16531054735965148,-0.08472227122141684]","[-1,-1,-1]","[0.1462333124483281,-0.014008794313460915]","[1,1,1]","[-0.05580121394532177,-0.07399291442109789]","[1,1,1]","[0.045755051330227024,-0.15833932228635006]","[1,1,1]","[0.18473735739489192,-0.05646076556123324]","[1,1,1]","[-0.19396286306719404,-0.04174787144502255]","[1,1,1]","[-0.1724782244968511,0.09525340025756646]","[-1,-1,-1]","[0.15858993866186333,0.06750828498970927]","[1,1,1]","[0.11165084244801964,-0.16248395044405264]","[1,1,1]","[-0.09081469649947918,0.05388132958110656]","[-1,-1,-1]","[0.048374047035598694,0.07921611650624802]","[1,1,1]","[0.013277642988793541,0.14402528521954272]","[1,1,1]","[0.02,0.02]",144.2921,0,29,29,202,1,,,,,,,
,,,,,,,66b38624283af88b5fb39daa,682f0fbb32f730509e8ebe05,2025-05-22_14h18.49.744,cuing_paradigm_dot,2024.1.5,Win32,60.24096386,682d573fa47f1360d1451895,,,,,,,,,,,144.2941,144.7924,,,145.0425,146.3258,left,1.2525,,,,,,,,,0.55,,,,,,144.7927,145.0422,146.3261,"[-0.017653490589573217,-0.06492754565859464]","[1,1,1]","[-0.10424408532462012,-0.15647973543610202]","[-1,-1,-1]","[-0.12729289721425366,-0.06643038633132299]","[-1,-1,-1]","[0.0676710943431829,0.020675609057988237]","[1,1,1]","[0.17568241986514538,0.027353112885077992]","[1,1,1]","[0.005026266574441023,-0.004898260873814011]","[1,1,1]","[0.1731982916531763,0.08160213287468204]","[1,1,1]","[-0.08872291248935611,-0.04012424628086056]","[1,1,1]","[0.1436523418809963,-0.06297186310659351]","[1,1,1]","[0.0871998198150527,0.11004261875559798]","[1,1,1]","[-0.17309933625515347,-0.05704476837033039]","[-1,-1,-1]","[-0.02266513987706782,-0.11513106590769626]","[-1,-1,-1]","[0.08621649596128313,0.16992136690100143]","[1,1,1]","[-0.13474843253145602,0.06455044991789258]","[-1,-1,-1]","[0.02270583135390021,-0.10074055121319496]","[-1,-1,-1]","[0.1669604854178179,-0.021105567052969152]","[-1,-1,-1]","[-0.0189728714251182,0.18836175284500756]","[1,1,1]","[-0.13244225752459265,0.014654401023551776]","[-1,-1,-1]","[0.006926085805385549,-0.16960065268625357]","[-1,-1,-1]","[-0.03247538044472829,0.05766338555957663]","[-1,-1,-1]","[-0.050576916257029536,-0.01772787003294903]","[-1,-1,-1]","[-0.09282456381275259,0.1699713224022508]","[1,1,1]","[-0.10102079021643945,0.10903826866690028]","[-1,-1,-1]","[-0.04204425131085937,-0.1764664590575129]","[1,1,1]","[-0.14434759674542752,0.1275715045985503]","[1,1,1]","[0.07621413057146682,0.06593302534985312]","[1,1,1]","[0.0463357432439694,-0.05041543511881318]","[-1,-1,-1]","[-0.06119535064037634,0.13229131276522743]","[1,1,1]","[-0.09244766349710568,0.05058426872800983]","[1,1,1]","[0.12974471685523079,0.11291521465039941]","[-1,-1,-1]","[0.09627218769507799,-0.1363718110606108]","[1,1,1]","[0.0021714826023617796,0.14412072718117844]","[1,1,1]","[0.02,0.02]",147.4246,0,30,30,130,1,,,,,,,
,,,,,,,66b38624283af88b5fb39daa,682f0fbb32f730509e8ebe05,2025-05-22_14h18.49.744,cuing_paradigm_dot,2024.1.5,Win32,60.24096386,682d573fa47f1360d1451895,,,,,,,,,,,147.4264,147.9239,,,148.163,149.0093,left,0.8253,,,,,,,,,0.6,,,,,,147.9242,148.1629,149.0096,"[-0.008342392336243105,0.019705762634473167]","[-1,-1,-1]","[-0.1444868674183487,-0.01719442436183668]","[1,1,1]","[0.16684976579346894,-0.10527330542083219]","[1,1,1]","[0.07741716101373729,0.030916234355718122]","[-1,-1,-1]","[0.16062681853796706,0.024772942540296196]","[-1,-1,-1]","[-0.0629873442567928,0.1471102720746491]","[-1,-1,-1]","[0.13133331345022706,0.12198417588141064]","[-1,-1,-1]","[0.010764012771579843,-0.11670275309874974]","[1,1,1]","[0.02239344368046801,-0.16139454387468852]","[-1,-1,-1]","[-0.10867409260138845,0.14479405578236385]","[-1,-1,-1]","[0.10325650042750682,-0.033928102971302124]","[1,1,1]","[-0.05606149021918726,-0.1465895316969564]","[1,1,1]","[0.1309395631568652,-0.1483963622687821]","[1,1,1]","[-0.08537745399034022,0.05479583134879681]","[1,1,1]","[0.17183656403317302,-0.043740785072896964]","[-1,-1,-1]","[0.026836565467850054,0.16292457024701168]","[-1,-1,-1]","[-0.17651241046394012,0.05488863025231617]","[1,1,1]","[0.04567821235084751,-0.043199251919139425]","[-1,-1,-1]","[-0.14910444663176123,-0.0718762768143633]","[1,1,1]","[0.03208780356026602,0.0360040358206073]","[-1,-1,-1]","[-0.04450871642809629,0.0944223428074495]","[1,1,1]","[-0.06737403160761257,-0.055107822774364434]","[1,1,1]","[0.08573511240858364,-0.13339838223631412]","[1,1,1]","[0.11586748547134465,0.0453253549060475]","[1,1,1]","[0.017407956515853504,0.09837761065306966]","[1,1,1]","[0.06382795377585919,-0.08567787401708539]","[1,1,1]","[0.08735261250704289,-0.17822859272839045]","[1,1,1]","[-0.18797126989256477,-0.025736183838386027]","[1,1,1]","[-0.13170088908967895,0.09278725186738854]","[1,1,1]","[-0.02435720021828513,-0.03891904704245234]","[1,1,1]","[0.1432174497093397,0.07665005482555443]","[-1,-1,-1]","[-0.10127128999386793,-0.17057136625058086]","[-1,-1,-1]","[0.02,0.02]",150.1064,0,31,31,157,1,,,,,,,
,,,,,,,66b38624283af88b5fb39daa,682f0fbb32f730509e8ebe05,2025-05-22_14h18.49.744,cuing_paradigm_dot,2024.1.5,Win32,60.24096386,682d573fa47f1360d1451895,,,,,,,,,,,150.1084,150.6065,,,150.845,151.7899,left,0.9186,,,,,,,,,0.6,,,,,,150.6066,150.845,151.7902,"[-0.06218290354536667,-0.08578222535311954]","[1,1,1]","[-0.1887226077008108,-0.00407518272985939]","[-1,-1,-1]","[0.12091228173308331,0.06094943234116138]","[-1,-1,-1]","[-0.045626753030486356,0.19460319657541492]","[1,1,1]","[0.15948227968631312,0.03555729645367568]","[1,1,1]","[0.11902989645370188,-0.12353428363374941]","[1,1,1]","[-0.16731410153638546,0.0410768332100533]","[1,1,1]","[-0.016559385787827955,0.046928836571093084]","[-1,-1,-1]","[-0.0028512935796233016,-0.19355618683699186]","[-1,-1,-1]","[-0.004907085152053352,-0.10014966808392653]","[-1,-1,-1]","[-0.05332697569672155,0.15376289495135534]","[1,1,1]","[0.04350331018720284,0.004308513084385173]","[-1,-1,-1]","[-0.1312565042027934,0.14187678392553277]","[-1,-1,-1]","[-0.1504047127684841,-0.07472079593552026]","[1,1,1]","[0.02453024699415606,0.059596752104938616]","[-1,-1,-1]","[-0.1133793777015351,-0.018926309426250502]","[1,1,1]","[0.19473167948232015,-0.013461116533600652]","[1,1,1]","[-0.11512141777044893,-0.11301868016245588]","[1,1,1]","[-0.11995166023932441,0.05256339301296974]","[1,1,1]","[0.07251974367114987,-0.028844179127053393]","[-1,-1,-1]","[0.013446811258271322,-0.1515404229579815]","[1,1,1]","[0.05536304731280401,0.18522123840939145]","[1,1,1]","[0.17591623027429104,-0.09307284354472367]","[1,1,1]","[0.15595470643627055,0.10713961110295954]","[-1,-1,-1]","[0.04765295195368542,0.1316157816108296]","[1,1,1]","[0.12623381622338462,-0.00921589086876991]","[-1,-1,-1]","[0.12433517694705973,-0.06895182334220332]","[1,1,1]","[0.06312448273978716,-0.08399643308124387]","[1,1,1]","[-0.05933645107994247,-0.025139346266025767]","[-1,-1,-1]","[-0.0012231655917415397,0.12356726221456686]","[1,1,1]","[0.001524691894737188,-0.022493675537274962]","[1,1,1]","[-0.0704522990452342,0.09564587807729613]","[-1,-1,-1]","[0.02,0.02]",152.8885,0,32,32,160,1,,,,,,,
,,,,,,,66b38624283af88b5fb39daa,682f0fbb32f730509e8ebe05,2025-05-22_14h18.49.744,cuing_paradigm_dot,2024.1.5,Win32,60.24096386,682d573fa47f1360d1451895,,,,,,,,,,,152.8901,153.3883,,,153.6446,154.957,right,1.2909,,,,,,,,,0.55,,,,,,153.3885,153.6445,154.9571,"[-0.03778722197429505,-0.005307837794380378]","[-1,-1,-1]","[-0.094096203933227,-0.14327462854413656]","[1,1,1]","[0.029973035180630207,0.10017981168590666]","[-1,-1,-1]","[0.0035402967533189043,0.13918224787566735]","[-1,-1,-1]","[0.19044485553530074,0.012457416841195012]","[-1,-1,-1]","[-0.007899989673616919,0.18344818116264586]","[-1,-1,-1]","[-0.004936422133897987,-0.09830713901117913]","[-1,-1,-1]","[0.0991171213453911,-0.0390759218414309]","[-1,-1,-1]","[-0.0029874445423181163,0.05176983338336796]","[1,1,1]","[-0.09145555628503806,0.05572674393356909]","[1,1,1]","[0.16631023704141762,-0.041772795401915155]","[1,1,1]","[0.08619424875517015,-0.15923002338933417]","[1,1,1]","[-0.1466867298578563,-0.07832441682180971]","[1,1,1]","[-0.06047734800607295,-0.11961333884640678]","[1,1,1]","[0.13553896172579755,0.019789253505792543]","[-1,-1,-1]","[0.0031283891112580107,-0.1750570668658033]","[1,1,1]","[0.10645114813684885,0.07921492848048185]","[1,1,1]","[-0.09181786952957605,0.1681027761399785]","[1,1,1]","[-0.03616964566901721,-0.052126845133945596]","[-1,-1,-1]","[0.13645466129354833,-0.12703683351642592]","[1,1,1]","[0.10862479096933628,0.13177217985673226]","[1,1,1]","[-0.13610753104096668,-0.01794643570502592]","[-1,-1,-1]","[0.11743598634968683,-0.08193754695588357]","[1,1,1]","[-0.18513953024058485,0.055037374062149994]","[1,1,1]","[0.0005705545442475875,0.007995099561297082]","[-1,-1,-1]","[0.15789429580308778,0.09936254065534399]","[1,1,1]","[-0.11336516458363281,0.11542380260274696]","[1,1,1]","[0.053176936688852795,-0.02988605165748112]","[-1,-1,-1]","[-0.13685147887011118,-0.12566361217797528]","[-1,-1,-1]","[-0.04224212233601127,-0.16489975727982223]","[-1,-1,-1]","[0.08242666234991014,-0.10659144455037152]","[1,1,1]","[-0.03584575598065671,0.11882592513731201]","[1,1,1]","[0.02,0.02]",156.0544,0,33,33,137,1,,,,,,,
,,,,,,,66b38624283af88b5fb39daa,682f0fbb32f730509e8ebe05,2025-05-22_14h18.49.744,cuing_paradigm_dot,2024.1.5,Win32,60.24096386,682d573fa47f1360d1451895,,,,,,,,,,,156.0565,156.5546,,,156.8059,158.1064,right,1.27,,,,,,,,,0.55,,,,,,156.5548,156.8056,158.1065,"[-0.19610197038438232,0.026800365767586855]","[1,1,1]","[-0.09272490465024015,-0.0690330176410199]","[1,1,1]","[-0.019445363312883296,0.005181231281848547]","[-1,-1,-1]","[-0.08385897287858976,0.014521983055532952]","[-1,-1,-1]","[0.12709342758107445,-0.020956685380746028]","[-1,-1,-1]","[0.029106935943816692,0.08158550209629144]","[1,1,1]","[0.11562843571357724,-0.1305173521477083]","[1,1,1]","[-0.14067827156910684,0.11346572324800754]","[1,1,1]","[0.03265716638488491,-0.0010778245778545051]","[1,1,1]","[0.008428067372211384,0.12183288430954839]","[1,1,1]","[-0.04209827975150215,-0.06094541499589796]","[-1,-1,-1]","[-0.16303700095407275,-0.02990395464794516]","[-1,-1,-1]","[0.07137573006850031,-0.013008463223371928]","[-1,-1,-1]","[-0.054940723039568054,-0.18053180143513586]","[1,1,1]","[0.17641652473225808,-0.014620159078203042]","[-1,-1,-1]","[-0.0428904517254172,0.08521302225836003]","[1,1,1]","[0.11406433436377779,0.0192243317695873]","[1,1,1]","[0.09505391257579089,0.16379061136261447]","[-1,-1,-1]","[-0.007395769866113951,-0.16211015580475033]","[1,1,1]","[-0.023891104814682526,0.18182085167101217]","[1,1,1]","[0.1435981500321351,0.10471268575956774]","[-1,-1,-1]","[-0.12332299848521805,-0.01874081902723219]","[-1,-1,-1]","[0.10357728062975396,0.06585825515070194]","[-1,-1,-1]","[0.04984919348838388,-0.05894402909393563]","[1,1,1]","[-0.09870966078263063,0.05355878854302903]","[1,1,1]","[0.03456963264539711,-0.15571884742072348]","[1,1,1]","[0.005502961993300647,-0.06358511744158604]","[-1,-1,-1]","[0.14414363292585117,-0.09695243694701511]","[1,1,1]","[-0.061284489440412995,-0.10913315234170841]","[-1,-1,-1]","[-0.13916298773712235,-0.14043712252800888]","[1,1,1]","[-0.009248623402738083,0.05093818696003817]","[1,1,1]","[-0.1628365778460744,-0.09379766303025931]","[-1,-1,-1]","[0.02,0.02]",159.2032,0,34,34,135,1,,,,,,,
,,,,,,,66b38624283af88b5fb39daa,682f0fbb32f730509e8ebe05,2025-05-22_14h18.49.744,cuing_paradigm_dot,2024.1.5,Win32,60.24096386,682d573fa47f1360d1451895,,,,,,,,,,,159.205,159.7033,,,159.9587,160.5704,left,0.5857,,,,,,,,,0.9,,,,,,159.7035,159.9587,160.5707,"[-0.03477123661508687,-0.1594382872655957]","[1,1,1]","[0.05558962964231291,-0.01756329015646737]","[1,1,1]","[0.15445242417211014,-0.042666711078685006]","[1,1,1]","[-0.18068310285614905,0.026397361442743898]","[1,1,1]","[-0.18251866053073482,-0.03313815646720917]","[1,1,1]","[-0.05018920697688366,0.02821647523047083]","[1,1,1]","[0.08338082812560597,0.11346550864752655]","[1,1,1]","[0.0225245193205315,-0.11735425503134916]","[1,1,1]","[-0.07250469388930532,0.12977003315322358]","[1,1,1]","[0.09326645229129797,0.15305282936866196]","[1,1,1]","[0.017781500419569732,-0.0327038231531778]","[-1,-1,-1]","[0.003742070894936524,0.01178310763596303]","[1,1,1]","[-0.03462166803604892,-0.08548157375710988]","[1,1,1]","[-0.1672838512224777,-0.08883914595237356]","[-1,-1,-1]","[0.10512121351734972,0.02698292705722373]","[1,1,1]","[0.027283415470477777,0.12181533008175217]","[1,1,1]","[-0.09902720948221566,-0.044647677924209615]","[1,1,1]","[-0.07666390435458131,-0.10821200772215496]","[1,1,1]","[-0.050711158747736684,-0.013479859476177912]","[1,1,1]","[-0.11862879921792245,0.06628743163113973]","[1,1,1]","[0.11133667292868646,-0.0704236416143403]","[1,1,1]","[0.03767886976156014,-0.07788181070713297]","[1,1,1]","[-0.008833785970008735,0.14995634939500646]","[1,1,1]","[-0.031309112737262404,0.09342632079564644]","[1,1,1]","[0.0671179740480331,-0.11671471313391865]","[1,1,1]","[0.09226103023332075,-0.1639697611304278]","[1,1,1]","[0.04695923788341904,0.07158003586200222]","[1,1,1]","[0.1565940384660971,0.007126513281799643]","[1,1,1]","[0.16954656771699292,0.052511823896875684]","[1,1,1]","[-0.14797315843474632,0.09451461786112417]","[1,1,1]","[0.13471856043196054,0.13005891424657837]","[1,1,1]","[0.12623332015814687,-0.11133987174661884]","[-1,-1,-1]","[0.02,0.02]",161.6688,0,35,35,199,1,,,,,,,
,,,,,,,66b38624283af88b5fb39daa,682f0fbb32f730509e8ebe05,2025-05-22_14h18.49.744,cuing_paradigm_dot,2024.1.5,Win32,60.24096386,682d573fa47f1360d1451895,,,,,,,,,,,161.6707,162.1694,,,162.4257,163.5525,right,1.1029,,,,,,,,,0.55,,,,,,162.1696,162.4256,163.5532,"[-0.1500272300687974,0.13098763839991112]","[-1,-1,-1]","[-0.07037366732033906,0.13594560901946998]","[-1,-1,-1]","[0.07979976661117294,0.11638375403564857]","[1,1,1]","[0.05784092289017599,0.15050994685784327]","[1,1,1]","[-0.10334500401158138,0.07685710785535156]","[-1,-1,-1]","[-0.018225237598783667,-0.19393662553771476]","[-1,-1,-1]","[0.1078023172482603,0.07958812651857462]","[1,1,1]","[0.033019264008005436,-0.18352457428533256]","[-1,-1,-1]","[-0.1819875160738526,0.031770598323212274]","[1,1,1]","[0.17416291624502006,0.0777177666455669]","[-1,-1,-1]","[-0.1004445732205696,-0.13195853108579306]","[1,1,1]","[0.12950609068711996,0.13064985244716665]","[1,1,1]","[0.056197764301468174,-0.09844385734765883]","[-1,-1,-1]","[-0.060458251355306566,0.01689154056301993]","[-1,-1,-1]","[0.016961986300884867,-0.015891358571427025]","[-1,-1,-1]","[0.09859214957166147,0.033845797662017174]","[1,1,1]","[-0.030563803544393878,-0.012121147247900959]","[-1,-1,-1]","[-0.10226750596771843,0.0004654468255054618]","[1,1,1]","[-0.14759388993036174,-0.12138493273086765]","[1,1,1]","[0.1271237976464388,-0.03418333801381378]","[-1,-1,-1]","[-0.053227806572220475,-0.1724929287926088]","[1,1,1]","[0.19228580687415558,0.037406447160959755]","[1,1,1]","[0.02074261854451289,-0.07501584712446965]","[1,1,1]","[-0.1402399487066279,-0.01892019948433023]","[1,1,1]","[0.14016263868070286,-0.12708936736480284]","[1,1,1]","[-0.007875763117836285,-0.14431202905950274]","[1,1,1]","[0.0041519514566229695,0.1561804173640665]","[1,1,1]","[-0.02595273594904755,0.1964768617028268]","[-1,-1,-1]","[-0.11353698182139764,-0.09313318789046131]","[-1,-1,-1]","[0.022127041013256292,0.06888674730421353]","[1,1,1]","[-0.16052890535300904,0.07525629956020087]","[-1,-1,-1]","[0.1868585584831001,-0.020381655835116076]","[1,1,1]","[0.02,0.02]",164.6512,0,36,36,136,1,,,,,,,
,,,,,,,66b38624283af88b5fb39daa,682f0fbb32f730509e8ebe05,2025-05-22_14h18.49.744,cuing_paradigm_dot,2024.1.5,Win32,60.24096386,682d573fa47f1360d1451895,,,,,,,,,,,164.6533,165.1512,,,165.3905,166.2528,right,0.8354,,,,,,,,,0.1,,,,,,165.1514,165.3905,166.253,"[-0.05589335769535374,0.049335041449974665]","[-1,-1,-1]","[0.12332667962465141,0.04209438390099403]","[-1,-1,-1]","[-0.05236962140485553,-0.11147079380346074]","[-1,-1,-1]","[-0.0693551317916532,0.11074492933433784]","[-1,-1,-1]","[0.0018115630532124487,0.10108908416725584]","[-1,-1,-1]","[-0.1297707932989206,-0.01855403132503964]","[-1,-1,-1]","[0.13121914113949973,-0.11671138166318724]","[-1,-1,-1]","[0.03305363474257897,-0.07019579821550356]","[-1,-1,-1]","[0.0010122326725761686,-0.0330891211045366]","[-1,-1,-1]","[-0.13669652328877843,-0.12725217629732033]","[-1,-1,-1]","[0.08954910849650534,0.003421086952380886]","[-1,-1,-1]","[0.0547648831543113,-0.12826623333245596]","[-1,-1,-1]","[0.11057518880900698,-0.16213263116620377]","[-1,-1,-1]","[0.05283726533954745,0.1691148602812705]","[-1,-1,-1]","[-0.019853749851117625,0.18437971236153497]","[-1,-1,-1]","[-0.02631942351702206,0.017123210473335485]","[-1,-1,-1]","[-0.07555055585568173,-0.025255303384857864]","[-1,-1,-1]","[0.10586620375674663,0.1598682936972069]","[-1,-1,-1]","[-0.06015832367362287,0.16369978118786074]","[1,1,1]","[-0.08613409867574584,-0.07609077813899798]","[-1,-1,-1]","[-0.011800647315619016,-0.147492978250582]","[-1,-1,-1]","[0.07704470974136753,-0.041167131455859825]","[-1,-1,-1]","[-0.18716767240969073,-0.06448032510251776]","[1,1,1]","[-0.10385992678012432,0.08995969847900039]","[-1,-1,-1]","[0.06739007715344,0.06067072457872098]","[-1,-1,-1]","[0.1623517512484459,-0.025093252005261024]","[-1,-1,-1]","[0.18491573240378062,0.07229298060964792]","[-1,-1,-1]","[-0.171436518236934,0.08183626465499101]","[-1,-1,-1]","[0.010824401348061868,0.05781916789644352]","[-1,-1,-1]","[0.027756610732625395,0.014541445513712179]","[-1,-1,-1]","[-0.08589091744368293,-0.1374936559145958]","[-1,-1,-1]","[-0.18967446356269715,-0.010062826262431015]","[1,1,1]","[0.02,0.02]",167.3509,0,37,37,22,1,,,,,,,
,,,,,,,66b38624283af88b5fb39daa,682f0fbb32f730509e8ebe05,2025-05-22_14h18.49.744,cuing_paradigm_dot,2024.1.5,Win32,60.24096386,682d573fa47f1360d1451895,,,,,,,,,,,167.3527,167.8502,,,168.0899,168.7017,right,0.5863,,,,,,,,,0.45,,,,,,167.8503,168.0898,168.702,"[-0.10037373241054262,0.036400529383918925]","[1,1,1]","[0.029044288247286335,0.00921510885547521]","[-1,-1,-1]","[-0.1634736488226611,-0.0370399554909124]","[-1,-1,-1]","[-0.007818018773481617,0.03789541376254049]","[-1,-1,-1]","[0.1942166418249537,0.009279598038642542]","[-1,-1,-1]","[-0.16200373458425446,-0.079809795396013]","[1,1,1]","[0.1546053515039095,0.0697582323285145]","[-1,-1,-1]","[0.12309446403598756,0.002851542949130354]","[-1,-1,-1]","[0.10428399006848892,0.06701259946781503]","[-1,-1,-1]","[0.14991460919409716,-0.057064124893643306]","[-1,-1,-1]","[-0.10595981075728114,0.15180924032985174]","[1,1,1]","[0.09254260666802867,0.14237555549021202]","[-1,-1,-1]","[-0.17704495520465482,0.014996195857903134]","[-1,-1,-1]","[-0.04638586697001249,0.0098534368097728]","[1,1,1]","[0.06960374757464366,0.042255033297951626]","[-1,-1,-1]","[0.07024805363934183,-0.14415905554911354]","[1,1,1]","[0.01924511022691303,0.11797240931581575]","[-1,-1,-1]","[-0.022201177395892904,-0.16897001908878176]","[1,1,1]","[0.009998255383209476,-0.12607758524042093]","[-1,-1,-1]","[-0.09718036061626788,-0.037351620578143056]","[-1,-1,-1]","[-0.11685656874323973,0.10926796108918017]","[-1,-1,-1]","[0.040667738821949795,0.1812605038981263]","[1,1,1]","[0.013407866657319798,-0.19448876675089888]","[1,1,1]","[0.09721724183639778,-0.0789587677971414]","[-1,-1,-1]","[-0.007500440938608715,0.18099899780020237]","[1,1,1]","[-0.05301323657628776,0.07212168111388585]","[1,1,1]","[-0.09896492534198287,-0.11109739489043821]","[-1,-1,-1]","[-0.18037163823094027,0.06160575421397915]","[1,1,1]","[0.04987918486856249,-0.07862750144263922]","[-1,-1,-1]","[-0.07539021805014993,-0.07367594612396573]","[1,1,1]","[0.1864920189118302,-0.03662079894837901]","[1,1,1]","[-0.046150738770573504,-0.11523160509041298]","[1,1,1]","[0.02,0.02]",169.8,0,38,38,75,1,,,,,,,
,,,,,,,66b38624283af88b5fb39daa,682f0fbb32f730509e8ebe05,2025-05-22_14h18.49.744,cuing_paradigm_dot,2024.1.5,Win32,60.24096386,682d573fa47f1360d1451895,,,,,,,,,,,169.8019,170.3,,,170.5381,171.4505,right,0.8859,,,,,,,,,0.4,,,,,,170.3001,170.5381,171.4509,"[0.04350980024640317,0.006010215007223028]","[1,1,1]","[-0.10617157893483427,0.123967679081652]","[-1,-1,-1]","[0.05796535117340866,-0.15987395965878387]","[1,1,1]","[0.13158423157369906,-0.09604220153440764]","[1,1,1]","[-0.12921202457477954,-0.11312413267932285]","[-1,-1,-1]","[-0.015598321150335026,0.06676138457407231]","[-1,-1,-1]","[0.15793069948643323,-0.021619806351552372]","[-1,-1,-1]","[0.07780556938475287,0.1344546355859125]","[-1,-1,-1]","[-0.09845069321931947,-0.003337361357676449]","[1,1,1]","[0.13419218655326826,0.022648705800911304]","[-1,-1,-1]","[-0.06054801602325042,-0.042075642992562945]","[-1,-1,-1]","[-0.06433423818130596,0.0669022123884744]","[-1,-1,-1]","[0.07856944603906028,0.026623001676930626]","[-1,-1,-1]","[-0.040151657226643024,0.10698679653939651]","[-1,-1,-1]","[-0.07335566465700209,-0.14311150977316056]","[1,1,1]","[0.13205943646182308,0.06430763935140867]","[1,1,1]","[-0.03998692225289012,-0.10388690264333046]","[-1,-1,-1]","[-0.15597669676444642,0.02116426502522323]","[-1,-1,-1]","[-0.06472669960838684,0.022069140694210645]","[1,1,1]","[0.10679981555818803,-0.009717132999572347]","[-1,-1,-1]","[0.012896493505731625,-0.12429164664388932]","[1,1,1]","[-0.09045617273313462,0.16338400164857203]","[-1,-1,-1]","[0.03338490410843489,0.18346028399486394]","[1,1,1]","[0.1657074185880862,0.09961030824892304]","[1,1,1]","[-0.019789825707163308,-0.16835585774745326]","[-1,-1,-1]","[-0.04760169566901906,0.16091414842484156]","[1,1,1]","[-0.15352599136296743,0.09767694287396714]","[-1,-1,-1]","[0.09705687685638587,-0.0533002634327478]","[1,1,1]","[0.015488614728763232,-0.07366553748387927]","[1,1,1]","[-0.14882052183571706,-0.06602920470917042]","[-1,-1,-1]","[-0.0011279604074136058,0.015582125782330562]","[-1,-1,-1]","[0.03506631381530673,0.06270958386855231]","[-1,-1,-1]","[0.02,0.02]",172.5488,0,39,39,32,1,,,,,,,
,,,,,,,66b38624283af88b5fb39daa,682f0fbb32f730509e8ebe05,2025-05-22_14h18.49.744,cuing_paradigm_dot,2024.1.5,Win32,60.24096386,682d573fa47f1360d1451895,,,,,,,,,,,172.551,173.0486,,,173.3049,174.3827,right,1.0528,,,,,,,,,0.9,,,,,,173.0487,173.3048,174.3831,"[-0.026323401964270625,-0.12287884338055555]","[1,1,1]","[-0.1275340094029666,-0.1147409559643817]","[1,1,1]","[0.09379485127758143,0.10339259064903689]","[1,1,1]","[0.03143711892096874,0.08283416140961536]","[1,1,1]","[0.07319251587572288,0.17356343235694607]","[1,1,1]","[0.022061480428906807,-0.013007087644011676]","[1,1,1]","[-0.09354851164724609,-0.16626937247247967]","[1,1,1]","[-0.17131943715165893,-0.05968067958990811]","[1,1,1]","[-0.058919508965684424,-0.05525550608251133]","[-1,-1,-1]","[-0.16405092169854502,0.08087812824328136]","[1,1,1]","[-0.025721575712841442,0.006277893520858336]","[1,1,1]","[-0.045421726746735544,0.07969994186202478]","[1,1,1]","[0.15269592283003966,-0.014062153358239914]","[1,1,1]","[0.07062681772991825,-0.13355402992521437]","[1,1,1]","[0.13775119263815683,-0.0901316973345386]","[1,1,1]","[-0.18161387890863318,0.044772761507326106]","[1,1,1]","[-0.10414016404818442,0.0384587078941526]","[1,1,1]","[-0.04882416227771405,-0.18050971259365342]","[1,1,1]","[-0.07869738402045984,0.12666398283506827]","[1,1,1]","[0.17725833278955874,-0.059904261801832524]","[1,1,1]","[-0.13042836877361036,0.003354737224931558]","[1,1,1]","[0.028180050391684964,-0.13254522681708278]","[1,1,1]","[-0.010156270566123641,0.13642652900689517]","[-1,-1,-1]","[-0.004559436694379821,-0.17626507442973763]","[1,1,1]","[0.07683895282703117,-0.0034316526430579505]","[1,1,1]","[-0.014717914118434839,-0.07697794770166684]","[1,1,1]","[0.06506507717740524,0.05076321324232903]","[1,1,1]","[0.1210423433199284,-0.14363597172978315]","[1,1,1]","[-0.03351499214565446,0.1895806061863391]","[1,1,1]","[0.1173726442446296,0.009977092740971574]","[1,1,1]","[0.020333190939960565,0.0285492156016182]","[1,1,1]","[0.1784648024810666,0.08145606393177121]","[-1,-1,-1]","[0.02,0.02]",175.4812,0,40,40,209,1,,,,,,,
,,,,,,,66b38624283af88b5fb39daa,682f0fbb32f730509e8ebe05,2025-05-22_14h18.49.744,cuing_paradigm_dot,2024.1.5,Win32,60.24096386,682d573fa47f1360d1451895,,,,,,,,,,,175.4832,175.9811,,,176.2204,176.8071,right,0.57,,,,,,,,,0.4,,,,,,175.9813,176.2203,176.8072,"[-0.17670788542538518,0.07830784138294332]","[1,1,1]","[-0.05926945769507632,0.18837120510029703]","[-1,-1,-1]","[0.10998288180079772,0.09188978115518137]","[1,1,1]","[-0.10025468522617752,0.07988308366021929]","[1,1,1]","[0.007564117578671603,-0.07071496485000398]","[-1,-1,-1]","[0.03095517503611098,0.0042421410781438365]","[-1,-1,-1]","[0.12756276136605776,-0.05891184135652306]","[1,1,1]","[0.14717274985008588,-0.12334379884819412]","[-1,-1,-1]","[-0.14194976694833988,-0.0041094320944724955]","[1,1,1]","[-0.04412202833584677,-0.01889519503151151]","[-1,-1,-1]","[0.06272153654961823,0.18458951580191005]","[1,1,1]","[0.020585273896109542,0.09401937388251527]","[-1,-1,-1]","[0.06789803126366492,-0.09712893473645419]","[-1,-1,-1]","[-0.04215332312376643,-0.1763855697807565]","[1,1,1]","[-0.08963472909628112,-0.06607564173613337]","[1,1,1]","[0.055409979477417666,0.049048552656894576]","[-1,-1,-1]","[0.09080920671170795,0.13264304867227264]","[1,1,1]","[0.08303949729062877,-0.058657696426435584]","[1,1,1]","[0.09586232315849184,-0.14060647218408945]","[-1,-1,-1]","[-0.11146236052945065,-0.10523176091678148]","[-1,-1,-1]","[-0.04237577472384132,-0.09475377638227717]","[-1,-1,-1]","[0.15008873029886838,0.07385258202490622]","[-1,-1,-1]","[-0.1986192202895401,-0.014627083503284451]","[1,1,1]","[0.15429597351925975,-0.024588684400430463]","[-1,-1,-1]","[0.010021285017380994,-0.15979837152986678]","[-1,-1,-1]","[-0.08794385690153796,-0.14546043386848423]","[-1,-1,-1]","[0.013342958406642803,0.17003788805563858]","[-1,-1,-1]","[-0.13420564232844034,0.05598044952843144]","[1,1,1]","[0.12218832277311423,0.031608347881726694]","[-1,-1,-1]","[-0.13586185774113782,-0.04552751519250814]","[-1,-1,-1]","[-0.07484301380938033,0.006933716082898397]","[-1,-1,-1]","[-0.15745753647876398,-0.12320417735252497]","[1,1,1]","[0.02,0.02]",177.897,0,41,41,36,1,,,,,,,
,,,,,,,66b38624283af88b5fb39daa,682f0fbb32f730509e8ebe05,2025-05-22_14h18.49.744,cuing_paradigm_dot,2024.1.5,Win32,60.24096386,682d573fa47f1360d1451895,,,,,,,,,,,177.899,178.396,,,178.6365,179.6311,right,0.9686,,,,,,,,,0.1,,,,,,178.3962,178.6364,179.6316,"[-0.009998376522809443,-0.15218301996325764]","[-1,-1,-1]","[0.08881757265070869,-0.1350780676831134]","[-1,-1,-1]","[0.14400156163592118,-0.0036846614817917936]","[1,1,1]","[0.07470452638354849,-0.02998617906013872]","[-1,-1,-1]","[0.15428418330679622,-0.07196403325632725]","[-1,-1,-1]","[0.16067023968715005,0.10073592097466025]","[-1,-1,-1]","[-0.05008116123885431,0.009751801806780317]","[-1,-1,-1]","[0.05889149345742717,-0.09167436461828951]","[-1,-1,-1]","[-0.10396688376687177,0.07010986600285445]","[-1,-1,-1]","[-0.10557410588103913,-0.05185812229308786]","[1,1,1]","[0.06058798359446484,0.12639588872749394]","[-1,-1,-1]","[-0.18100250987926966,0.03203536223976813]","[-1,-1,-1]","[0.0013677087169581923,0.06113879545058497]","[-1,-1,-1]","[-0.09541013157059405,-0.1520822463999069]","[-1,-1,-1]","[-0.1109835823763573,-0.10340236630684202]","[-1,-1,-1]","[0.18185285017470365,-0.019167375934607458]","[1,1,1]","[0.11231754205804548,0.10931390754058608]","[-1,-1,-1]","[0.033236674854025955,-0.05492631592757513]","[-1,-1,-1]","[-0.15805556855620967,-0.05568731829057481]","[-1,-1,-1]","[-0.10997958824628065,0.14517347197596303]","[-1,-1,-1]","[0.010936718301701677,-0.01577589268125171]","[-1,-1,-1]","[-0.1585916951518075,0.07381261773955329]","[-1,-1,-1]","[0.08440214646988511,0.029710137250487753]","[-1,-1,-1]","[-0.13030863690247085,-0.010476733637351875]","[-1,-1,-1]","[0.02444348540376933,-0.1822754466710619]","[-1,-1,-1]","[-0.052758918131526035,-0.06676084562264414]","[-1,-1,-1]","[-0.021057029452522472,0.1728785299673286]","[-1,-1,-1]","[0.03495640887450253,0.16148272509241704]","[-1,-1,-1]","[-0.07168450541899939,0.10639194412044294]","[-1,-1,-1]","[-0.03402402429145003,-0.11965735926546767]","[-1,-1,-1]","[0.03943418086176548,0.08585652100630696]","[-1,-1,-1]","[0.022249040057807888,-0.11613005136499158]","[-1,-1,-1]","[0.02,0.02]",180.7294,0,42,42,2,1,,,,,,,
,,,,,,,66b38624283af88b5fb39daa,682f0fbb32f730509e8ebe05,2025-05-22_14h18.49.744,cuing_paradigm_dot,2024.1.5,Win32,60.24096386,682d573fa47f1360d1451895,,,,,,,,,,,180.7312,181.2293,,,181.4809,182.1827,right,0.6762,,,,,,,,,0.4,,,,,,181.2295,181.4809,182.1828,"[0.11028367736935615,0.15394220921618945]","[-1,-1,-1]","[0.062114153761210454,-0.12385908600739674]","[1,1,1]","[0.18134104261834366,0.004865947608782174]","[1,1,1]","[-0.15917752600522547,-0.042968406244447754]","[1,1,1]","[-0.028888548736145284,0.143900257516476]","[1,1,1]","[-0.02706297035776049,0.0458180344033528]","[1,1,1]","[-0.0742277949239364,-0.007048049683452728]","[-1,-1,-1]","[0.046081706747481986,0.1685451987143662]","[-1,-1,-1]","[-0.15879525258442828,0.03298786712526166]","[-1,-1,-1]","[-0.04032567849133139,0.0849212375552932]","[1,1,1]","[-0.0631878313455828,-0.1710978947554441]","[1,1,1]","[-0.05372211382373338,0.17589314561337263]","[1,1,1]","[-0.078307611945665,0.06043406538884135]","[-1,-1,-1]","[-0.08152989613288449,0.10514746973565098]","[-1,-1,-1]","[0.13888174175196702,0.08082335916610253]","[-1,-1,-1]","[-0.11645248218002847,-0.04021829221593133]","[-1,-1,-1]","[-0.12491162737191192,0.06812353572564059]","[-1,-1,-1]","[0.07422986229321932,-0.18311449366976879]","[-1,-1,-1]","[0.15510138889587677,-0.07052103119166007]","[-1,-1,-1]","[-0.08013513196482228,-0.10876558286901848]","[-1,-1,-1]","[0.02565575813798585,-0.04941860787942965]","[1,1,1]","[0.15761522626803356,-0.11462266886095068]","[1,1,1]","[0.13696645491771878,0.016553983594782558]","[-1,-1,-1]","[0.06153907588514976,0.06262885280215007]","[1,1,1]","[-0.003833153743081512,0.10823128107141196]","[-1,-1,-1]","[-0.020808721188904974,-0.03922355095747962]","[-1,-1,-1]","[0.07233004025710014,0.126959420159104]","[1,1,1]","[-0.17362988150997802,-0.09005724143190297]","[-1,-1,-1]","[-0.015193676579298687,-0.09652479735136113]","[-1,-1,-1]","[0.09580772274959817,0.01241031996243018]","[-1,-1,-1]","[0.031647078102695854,-0.19367517506029147]","[-1,-1,-1]","[0.10890452289988549,-0.1467885646400446]","[1,1,1]","[0.02,0.02]",183.2785,0,43,43,53,1,,,,,,,
,,,,,,,66b38624283af88b5fb39daa,682f0fbb32f730509e8ebe05,2025-05-22_14h18.49.744,cuing_paradigm_dot,2024.1.5,Win32,60.24096386,682d573fa47f1360d1451895,,,,,,,,,,,183.2805,183.7781,,,184.018,184.797,left,0.7582,,,,,,,,,0.6,,,,,,183.7784,184.018,184.7972,"[0.042155356299619265,0.038750189507912966]","[1,1,1]","[-0.06106347820380327,-0.12557988609450757]","[-1,-1,-1]","[0.1203712682303091,-0.09779432058453762]","[1,1,1]","[-0.11831684754701374,-0.09465552787841924]","[-1,-1,-1]","[-0.004405033719489527,0.182616058770682]","[1,1,1]","[-0.12862680211832403,0.1250054727037653]","[1,1,1]","[0.02958557294410633,-0.13986545478887485]","[-1,-1,-1]","[0.07923516041932892,0.007815301593717093]","[1,1,1]","[-0.13512252851797335,0.03635097051377863]","[-1,-1,-1]","[0.15991592835715887,-0.046742573934557365]","[-1,-1,-1]","[-0.08847621728966153,0.0800207591299324]","[1,1,1]","[0.11323215218099122,-0.05603129577156329]","[1,1,1]","[0.11415818635196383,-0.1378565963223406]","[1,1,1]","[0.04246632501917827,0.16126127988096267]","[1,1,1]","[-0.18700594758107647,-0.026214387483149283]","[1,1,1]","[-0.09260114100358309,0.16109763636301228]","[-1,-1,-1]","[-0.1942102265439321,0.029167515018177357]","[1,1,1]","[-0.08810364749262525,0.010501194544947261]","[1,1,1]","[0.16165885440668987,-0.09413985357368372]","[-1,-1,-1]","[-0.014469580613514756,-0.023003839412436618]","[1,1,1]","[0.11853529417697752,0.034938063477825965]","[1,1,1]","[0.17249614177639028,0.01792901886811384]","[1,1,1]","[0.042111074895596144,-0.19537970495724263]","[-1,-1,-1]","[0.02130495334925303,0.10859624257031508]","[-1,-1,-1]","[-0.07453652748457813,-0.053603951991148674]","[-1,-1,-1]","[-0.012550816253800246,0.045129365311584076]","[-1,-1,-1]","[0.1348472629560066,0.14756716932496333]","[1,1,1]","[-0.14808553879326128,-0.06607687634593597]","[1,1,1]","[-0.051187240329339544,0.1380323760836501]","[-1,-1,-1]","[-0.0698658317129338,-0.17813841284022686]","[-1,-1,-1]","[0.006330396861741365,-0.08590010674254114]","[1,1,1]","[0.102012141415159,0.07620524327476774]","[1,1,1]","[0.02,0.02]",185.895,0,44,44,175,1,,,,,,,
