right,left,explain.started,explain.stopped,key_resp_3.keys,key_resp_3.rt,key_resp_3.duration,participant,session,date,expName,psychopyVersion,OS,frameRate,study_id,explain_2.started,explain_2.stopped,key_resp_4.keys,key_resp_4.rt,key_resp_4.duration,explain_3.started,explain_3.stopped,key_resp_5.keys,key_resp_5.rt,key_resp_5.duration,fixation.started,fixation.stopped,practice.started,practice.stopped,response.started,response.stopped,key_resp.keys,feedback.started,feedback.stopped,trials_2.thisRepN,trials_2.thisTrialN,trials_2.thisN,trials_2.thisIndex,trials_2.ran,white_ratio,key_resp.rt,key_resp.duration,explain_4.started,explain_4.stopped,key_resp_6.keys,key_resp_6.rt,key_resp_6.duration,dotDisplay.started,dotDisplay.stopped,ITI.started,polygon_1.pos,polygon_1.color,polygon_2.pos,polygon_2.color,polygon_3.pos,polygon_3.color,polygon_4.pos,polygon_4.color,polygon_5.pos,polygon_5.color,polygon_6.pos,polygon_6.color,polygon_7.pos,polygon_7.color,polygon_8.pos,polygon_8.color,polygon_9.pos,polygon_9.color,polygon_10.pos,polygon_10.color,polygon_11.pos,polygon_11.color,polygon_12.pos,polygon_12.color,polygon_13.pos,polygon_13.color,polygon_14.pos,polygon_14.color,polygon_15.pos,polygon_15.color,polygon_16.pos,polygon_16.color,polygon_17.pos,polygon_17.color,polygon_18.pos,polygon_18.color,polygon_19.pos,polygon_19.color,polygon_20.pos,polygon_20.color,polygon_21.pos,polygon_21.color,polygon_22.pos,polygon_22.color,polygon_23.pos,polygon_23.color,polygon_24.pos,polygon_24.color,polygon_25.pos,polygon_25.color,polygon_26.pos,polygon_26.color,polygon_27.pos,polygon_27.color,polygon_28.pos,polygon_28.color,polygon_29.pos,polygon_29.color,polygon_30.pos,polygon_30.color,polygon_31.pos,polygon_31.color,polygon_32.pos,polygon_32.color,dot_size,ITI.stopped,trials.thisRepN,trials.thisTrialN,trials.thisN,trials.thisIndex,trials.ran,break_2.started,break_2.stopped,trials_3.thisRepN,trials_3.thisTrialN,trials_3.thisN,trials_3.thisIndex,trials_3.ran
subject chose white,subject chose black,0.0004,32.6352,space,17.5941,0.0322,66b39d642d5d3c9ab18111e8,682db44a8299fba01a2d57ee,2025-05-21_13h10.18.949,cuing_paradigm_dot,2024.1.5,Win32,59.88023952,682d556593cb38ad0a074487,,,,,,,,,,,,,,,,,,,,,,,,,,,,,,,,,,,,,,,,,,,,,,,,,,,,,,,,,,,,,,,,,,,,,,,,,,,,,,,,,,,,,,,,,,,,,,,,,,,,,,,,,,,,,,,,,
,,,,,,,66b39d642d5d3c9ab18111e8,682db44a8299fba01a2d57ee,2025-05-21_13h10.18.949,cuing_paradigm_dot,2024.1.5,Win32,59.88023952,682d556593cb38ad0a074487,32.6361,75.2138,space,12.5599,,,,,,,,,,,,,,,,,,,,,,,,,,,,,,,,,,,,,,,,,,,,,,,,,,,,,,,,,,,,,,,,,,,,,,,,,,,,,,,,,,,,,,,,,,,,,,,,,,,,,,,,,,,,,
,,,,,,,66b39d642d5d3c9ab18111e8,682db44a8299fba01a2d57ee,2025-05-21_13h10.18.949,cuing_paradigm_dot,2024.1.5,Win32,59.88023952,682d556593cb38ad0a074487,,,,,,75.2142,80.945,space,2.7117,,,,,,,,,,,,,,,,,,,,,,,,,,,,,,,,,,,,,,,,,,,,,,,,,,,,,,,,,,,,,,,,,,,,,,,,,,,,,,,,,,,,,,,,,,,,,,,,,,,,,,,,
,,,,,,,66b39d642d5d3c9ab18111e8,682db44a8299fba01a2d57ee,2025-05-21_13h10.18.949,cuing_paradigm_dot,2024.1.5,Win32,59.88023952,682d556593cb38ad0a074487,,,,,,,,,,,81.0264,81.4608,81.4611,81.7061,81.7065,83.1953,,83.1957,84.295,0,0,0,0,1,0.8,,,,,,,,,,,,,,,,,,,,,,,,,,,,,,,,,,,,,,,,,,,,,,,,,,,,,,,,,,,,,,,,,,,,,,,,,,,,,,,,,,,,,,,,
,,,,,,,66b39d642d5d3c9ab18111e8,682db44a8299fba01a2d57ee,2025-05-21_13h10.18.949,cuing_paradigm_dot,2024.1.5,Win32,59.88023952,682d556593cb38ad0a074487,,,,,,,,,,,84.2969,84.7946,84.7949,85.0446,85.0448,86.2284,left,86.2288,87.3183,0,1,1,1,1,0.2,1.1702,,,,,,,,,,,,,,,,,,,,,,,,,,,,,,,,,,,,,,,,,,,,,,,,,,,,,,,,,,,,,,,,,,,,,,,,,,,,,,,,,,,,,,,
,,,,,,,66b39d642d5d3c9ab18111e8,682db44a8299fba01a2d57ee,2025-05-21_13h10.18.949,cuing_paradigm_dot,2024.1.5,Win32,59.88023952,682d556593cb38ad0a074487,,,,,,,,,,,,,,,,,,,,,,,,,,,,87.3194,98.1381,space,7.8099,,,,,,,,,,,,,,,,,,,,,,,,,,,,,,,,,,,,,,,,,,,,,,,,,,,,,,,,,,,,,,,,,,,,,,,,,,,,,,,,,,
,,,,,,,66b39d642d5d3c9ab18111e8,682db44a8299fba01a2d57ee,2025-05-21_13h10.18.949,cuing_paradigm_dot,2024.1.5,Win32,59.88023952,682d556593cb38ad0a074487,,,,,,,,,,,98.1636,98.6486,,,98.8317,100.3279,,,,,,,,,0.55,,,,,,,,98.6491,98.8315,100.3291,"[0.012620604099871185,0.19092045927139914]","[1,1,1]","[0.09355343469542843,0.1541402246278938]","[-1,-1,-1]","[-0.011385868928792493,0.06800472469331653]","[-1,-1,-1]","[-0.18695921590804496,0.04136559884217394]","[-1,-1,-1]","[0.02288832914661258,-0.00502523666880726]","[1,1,1]","[-0.05981129409019128,0.17995855469456504]","[1,1,1]","[0.10252349651953953,-0.03110863524678997]","[-1,-1,-1]","[-0.042114333104019894,-0.016135203786537447]","[-1,-1,-1]","[-0.1291696754727619,-0.05970810376286418]","[1,1,1]","[0.12901015425698867,-0.09455047853712394]","[1,1,1]","[-0.003051573008907595,-0.0437148579626561]","[-1,-1,-1]","[-0.06012156898340656,-0.1350878420144508]","[1,1,1]","[0.019032293981403176,0.12842823382558308]","[1,1,1]","[-0.1730196908394545,-0.06413590234340197]","[1,1,1]","[0.11226204690345074,0.06599783183382103]","[1,1,1]","[-0.09106008170547249,-0.10876701255366761]","[1,1,1]","[-0.19261707826851332,-0.004422713678881177]","[-1,-1,-1]","[-0.011604678684996293,-0.17753751871398268]","[1,1,1]","[0.16264755592052862,-0.037206915784666006]","[-1,-1,-1]","[0.10174588819070784,-0.15839505912154833]","[-1,-1,-1]","[-0.1344997267522127,0.030190146727676524]","[-1,-1,-1]","[-0.11734560885672599,0.08148104573185352]","[-1,-1,-1]","[0.0403874411736359,0.09460019664991343]","[-1,-1,-1]","[0.047987816053478176,0.16796229945471125]","[1,1,1]","[0.017066701743924613,-0.08632506324442055]","[1,1,1]","[-0.1544168631173276,-0.11158575615339528]","[-1,-1,-1]","[0.1624166495188704,0.01330187498880202]","[1,1,1]","[-0.07155760573699067,0.13114831300207]","[1,1,1]","[-0.11461105996029222,0.14096829268240646]","[1,1,1]","[-0.11641569088652508,-0.0060805834730925604]","[-1,-1,-1]","[0.14310832520771055,0.11985924149991976]","[1,1,1]","[0.0817109983013432,-0.08253400599485711]","[1,1,1]","[0.02,0.02]",101.4281,0,0,0,126,1,,,,,,,
,,,,,,,66b39d642d5d3c9ab18111e8,682db44a8299fba01a2d57ee,2025-05-21_13h10.18.949,cuing_paradigm_dot,2024.1.5,Win32,59.88023952,682d556593cb38ad0a074487,,,,,,,,,,,101.4304,101.9279,,,102.1797,103.0629,left,,,,,,,,0.1,0.8686,,,,,,,101.9281,102.1796,103.0631,"[-0.02964517185381657,-0.16239099774748494]","[-1,-1,-1]","[-0.00978423747131697,-0.09421160863788797]","[-1,-1,-1]","[-0.03309358489108085,-0.03788650682433996]","[-1,-1,-1]","[-0.0312237194287675,0.07818594864242175]","[1,1,1]","[-0.04595562262386924,0.14651295925538535]","[-1,-1,-1]","[0.07734777651802241,0.1112680385986962]","[-1,-1,-1]","[-0.14414446871930453,0.09034361647730918]","[-1,-1,-1]","[0.047158642055993474,-0.14451600299781753]","[-1,-1,-1]","[-0.1313120400128636,-0.07772559234821817]","[-1,-1,-1]","[0.1306525540076572,-0.13516887304302702]","[-1,-1,-1]","[-0.16170246186663395,-0.005071337449476993]","[1,1,1]","[-0.09172522527021011,-0.06765025550047951]","[-1,-1,-1]","[-0.06423956877491117,0.0438781298346139]","[-1,-1,-1]","[0.026773874292159185,0.0728821691752119]","[-1,-1,-1]","[0.09346947228488045,-0.008727972246584682]","[1,1,1]","[-0.10880678121286995,-0.15593961411891788]","[-1,-1,-1]","[0.09482589525054173,-0.10860690232127515]","[-1,-1,-1]","[-0.1380540657648074,0.13823504624259716]","[-1,-1,-1]","[-0.17582730402817565,-0.09437182938699495]","[-1,-1,-1]","[0.012372246875220264,-0.011623922529072113]","[-1,-1,-1]","[0.13255960633388778,0.08829464402058423]","[-1,-1,-1]","[-0.07413157979327806,-0.12430975623766644]","[-1,-1,-1]","[-0.05182746715259781,-0.07912217452762946]","[-1,-1,-1]","[0.17343227687080065,0.025714119226200663]","[-1,-1,-1]","[-0.0011161855902697682,0.1981176601268022]","[-1,-1,-1]","[-0.013762599500784381,0.04056447439743881]","[-1,-1,-1]","[0.007095363983888651,0.10990847784341237]","[-1,-1,-1]","[0.02731710405834032,-0.07725421041344512]","[-1,-1,-1]","[0.11121455082126477,0.04201272227874698]","[-1,-1,-1]","[0.15866763403120698,-0.0569714793434991]","[-1,-1,-1]","[-0.18237603155447124,0.07277787599001678]","[-1,-1,-1]","[-0.08975663509310089,0.14110517762599845]","[-1,-1,-1]","[0.02,0.02]",104.1619,0,1,1,9,1,,,,,,,
,,,,,,,66b39d642d5d3c9ab18111e8,682db44a8299fba01a2d57ee,2025-05-21_13h10.18.949,cuing_paradigm_dot,2024.1.5,Win32,59.88023952,682d556593cb38ad0a074487,,,,,,,,,,,104.164,104.663,,,104.9127,106.0945,left,,,,,,,,0.6,1.1675,,,,,,,104.663,104.9126,106.0946,"[0.014471638357645351,0.12065235053922048]","[1,1,1]","[0.06425747053915574,0.060817877281322805]","[1,1,1]","[-0.002819497326088538,-0.1428444833887211]","[1,1,1]","[0.08588156744614972,-0.055931883647702706]","[1,1,1]","[-0.10754109884414306,0.07680889224768964]","[1,1,1]","[-0.042053955905669904,0.00964062959435987]","[1,1,1]","[-0.1561026307570355,-0.04987841487953161]","[-1,-1,-1]","[-0.0621143509464012,0.17684211059367722]","[1,1,1]","[-0.11763516801349343,0.14822434411861315]","[-1,-1,-1]","[-0.06700428306564954,0.0669688594326964]","[-1,-1,-1]","[-0.00016344796549226678,-0.006966123292751567]","[1,1,1]","[0.040364533235162835,-0.09254606299210509]","[1,1,1]","[-0.00047691279513024476,-0.07604616430059792]","[-1,-1,-1]","[0.14573585503616573,0.08710505363937274]","[1,1,1]","[0.08528506892034468,-0.1063738557745766]","[1,1,1]","[-0.1488835291800995,0.03073953136436065]","[-1,-1,-1]","[0.0146923961043269,0.1837478264545563]","[-1,-1,-1]","[0.11484555301922024,-0.13824149073238928]","[-1,-1,-1]","[-0.10816999398358645,-0.15265049229757097]","[1,1,1]","[0.18283763633978756,0.024961666540495104]","[1,1,1]","[-0.0006661076400408824,0.07665067355277351]","[1,1,1]","[-0.058862049949269066,0.10731302041875275]","[1,1,1]","[-0.055663352018527464,-0.16281819078780885]","[-1,-1,-1]","[0.15818514766471842,-0.07135520459618112]","[-1,-1,-1]","[0.07951981396276579,-0.17256789409502393]","[1,1,1]","[0.12337799124028176,0.014138918073615793]","[-1,-1,-1]","[0.10351354063806614,0.07694327896748969]","[1,1,1]","[0.04120738420553013,-0.15691680150550624]","[-1,-1,-1]","[0.0264796251618662,0.03740912001423082]","[-1,-1,-1]","[-0.06215316435185079,-0.055418934738443004]","[-1,-1,-1]","[-0.02631129621661685,0.19765334063469647]","[1,1,1]","[-0.10668833289616542,-0.08176881200459984]","[1,1,1]","[0.02,0.02]",107.1947,0,2,2,160,1,,,,,,,
,,,,,,,66b39d642d5d3c9ab18111e8,682db44a8299fba01a2d57ee,2025-05-21_13h10.18.949,cuing_paradigm_dot,2024.1.5,Win32,59.88023952,682d556593cb38ad0a074487,,,,,,,,,,,107.1962,107.694,,,107.9443,108.5715,right,,,,,,,,0.6,0.617,,,,,,,107.6941,107.9443,108.5715,"[-0.12667145663270105,0.08775024640928979]","[1,1,1]","[0.013037447740329305,0.06229303657719777]","[1,1,1]","[0.0718154705395597,0.1468275826889168]","[1,1,1]","[-0.018755253872807742,-0.01749562762324415]","[1,1,1]","[0.017805532022004994,-0.18787874960536724]","[1,1,1]","[0.027916876964644965,0.11175366476109859]","[1,1,1]","[0.1673978606073997,-0.049749228341248654]","[1,1,1]","[-0.08358210425800564,0.11274651067776793]","[1,1,1]","[0.19375080780139123,0.0026620926054753222]","[1,1,1]","[0.14983990660987048,0.03745561121969235]","[1,1,1]","[-0.0851059365441915,-0.08711978215223867]","[-1,-1,-1]","[-0.16965047469466965,0.025817256160196058]","[-1,-1,-1]","[0.03712717216511739,-0.05808338389783154]","[-1,-1,-1]","[0.10802774957304177,0.10074103044434085]","[1,1,1]","[-0.060284489635875974,-0.1887821397779552]","[-1,-1,-1]","[-0.049835242844801377,0.043878038825641105]","[1,1,1]","[0.12825988803289035,-0.08427903819179344]","[-1,-1,-1]","[-0.09672149562716356,0.16500451108984687]","[1,1,1]","[0.09685321603692677,0.03818265796879028]","[-1,-1,-1]","[-0.04642353784611355,-0.061764887146165064]","[1,1,1]","[0.07084905384407138,-0.15689735969229926]","[-1,-1,-1]","[0.04300331330568981,-0.11354269086207001]","[1,1,1]","[-0.12570912647346658,-0.13692832455391796]","[-1,-1,-1]","[-0.11870308239034537,-0.06349314233846749]","[-1,-1,-1]","[0.12722884583410254,-0.01332006368100892]","[1,1,1]","[-0.06971917813235134,-0.13862785364047986]","[1,1,1]","[0.006062107432370646,0.017587393544554304]","[-1,-1,-1]","[0.0687702113613643,0.08534107525553059]","[-1,-1,-1]","[-0.16805374231442724,0.09630294706682642]","[1,1,1]","[-0.0939310535022154,-0.003339821677218994]","[1,1,1]","[-0.16272292813792633,-0.08330607246712937]","[-1,-1,-1]","[0.18264040067881818,0.06781248901217035]","[-1,-1,-1]","[0.02,0.02]",109.6682,0,3,3,151,1,,,,,,,
,,,,,,,66b39d642d5d3c9ab18111e8,682db44a8299fba01a2d57ee,2025-05-21_13h10.18.949,cuing_paradigm_dot,2024.1.5,Win32,59.88023952,682d556593cb38ad0a074487,,,,,,,,,,,109.6702,110.1681,,,110.4116,110.996,right,,,,,,,,0.9,0.5745,,,,,,,110.1684,110.4116,110.9961,"[0.06544306172657059,0.03978168190111455]","[1,1,1]","[-0.01125609496522205,-0.06072952081562133]","[1,1,1]","[0.1776260292139822,-0.07950828401856885]","[-1,-1,-1]","[0.052827415004859275,-0.07700851563447127]","[1,1,1]","[-0.13702259589173624,0.12619787344001077]","[1,1,1]","[-0.17798500927514505,0.018137160005797546]","[1,1,1]","[-0.04747656672512413,0.022120539159410813]","[1,1,1]","[-0.0496803424136382,-0.10169763717922281]","[1,1,1]","[-0.014251878215667466,-0.16529373697119507]","[1,1,1]","[0.15483606984549772,0.061455653294208414]","[1,1,1]","[-0.11846997019663746,0.008251687744093237]","[1,1,1]","[0.017666878793072972,0.13291772194407228]","[1,1,1]","[-0.07284342216986323,0.15568966420362262]","[-1,-1,-1]","[-0.007235831395712181,-0.011992571973361309]","[1,1,1]","[-0.13728238571366855,-0.12780967369899432]","[1,1,1]","[-0.04717545710326829,0.08396095440621011]","[-1,-1,-1]","[-0.008758131379773895,0.17058997231224202]","[1,1,1]","[0.10468743350653707,-0.07073307197550008]","[1,1,1]","[-0.1517442988489147,-0.04515488177635865]","[1,1,1]","[0.1185121692804328,0.08350354013795776]","[1,1,1]","[0.13184090733896262,0.13198415491722948]","[1,1,1]","[0.0265745830058278,0.19087091946410878]","[1,1,1]","[-0.11244238307731372,-0.0324353670378073]","[1,1,1]","[0.1862370064359877,0.017711473331856242]","[1,1,1]","[0.03284614136096801,-0.01772368156516331]","[1,1,1]","[0.02885667920361745,-0.18672698077505748]","[1,1,1]","[-0.09843714147180799,0.05279171593753328]","[1,1,1]","[0.03697092312155475,-0.12331590828716597]","[1,1,1]","[0.06937592146604794,-0.15304241315508255]","[1,1,1]","[0.01960836514591415,0.07736864081239439]","[1,1,1]","[0.1354493986058151,0.006983406423895231]","[1,1,1]","[-0.11553885229543741,0.16041998683239334]","[1,1,1]","[0.02,0.02]",112.0855,0,4,4,186,1,,,,,,,
,,,,,,,66b39d642d5d3c9ab18111e8,682db44a8299fba01a2d57ee,2025-05-21_13h10.18.949,cuing_paradigm_dot,2024.1.5,Win32,59.88023952,682d556593cb38ad0a074487,,,,,,,,,,,112.0873,112.5781,,,112.8287,113.5634,left,,,,,,,,0.1,0.7186,,,,,,,112.5782,112.8286,113.5635,"[-0.09472919802330688,0.04449572840011623]","[-1,-1,-1]","[0.1861625347229772,0.010767098905933357]","[-1,-1,-1]","[0.14212726189759112,-0.10426369600062088]","[-1,-1,-1]","[-0.19673919059275813,-0.0008665686996878273]","[1,1,1]","[-0.1842029178505108,-0.07521696089591608]","[-1,-1,-1]","[0.031699135118838935,-0.05839754849885721]","[-1,-1,-1]","[-0.09744479238768691,0.160423719237296]","[-1,-1,-1]","[-0.017393994733083878,-0.11827785311261978]","[-1,-1,-1]","[-0.16648613760443046,0.07687944635862067]","[-1,-1,-1]","[0.03917812107753571,-0.00922568906208238]","[-1,-1,-1]","[-0.051094669900882635,0.1588611939434444]","[-1,-1,-1]","[0.08017836930295093,0.159807615288085]","[-1,-1,-1]","[0.03417643068283032,-0.14566442876152347]","[-1,-1,-1]","[-0.141374305881318,0.03798879606524084]","[-1,-1,-1]","[-0.07585759563647959,0.005465690412455124]","[-1,-1,-1]","[0.12253906885992592,-0.016504302838871124]","[-1,-1,-1]","[-0.15667648545063972,-0.03675712032502018]","[1,1,1]","[0.009749480155045688,0.11906731619789215]","[-1,-1,-1]","[0.07816350732246286,-0.15189899561527742]","[1,1,1]","[0.04944430939355516,0.04684795948159317]","[-1,-1,-1]","[-0.1248741871921203,-0.14522334853531782]","[-1,-1,-1]","[0.11245290441956966,0.11764733622081439]","[-1,-1,-1]","[0.057328841158071804,0.12537432701636486]","[-1,-1,-1]","[-0.014264601029898691,0.04680330918179245]","[-1,-1,-1]","[-0.008788192274035407,-0.0786338365960151]","[-1,-1,-1]","[-0.05673411662931604,0.11596685469239379]","[-1,-1,-1]","[-0.013032380864457032,-0.18078791504274086]","[-1,-1,-1]","[-0.08776456351379194,-0.1213545170153678]","[-1,-1,-1]","[0.19236457917890995,-0.05299770765966387]","[-1,-1,-1]","[-0.10291285560197702,0.08988461731681166]","[-1,-1,-1]","[0.04237368426876462,-0.0998746098529806]","[-1,-1,-1]","[-0.0431052303792147,-0.039452210211460594]","[-1,-1,-1]","[0.02,0.02]",114.6624,0,5,5,26,1,,,,,,,
,,,,,,,66b39d642d5d3c9ab18111e8,682db44a8299fba01a2d57ee,2025-05-21_13h10.18.949,cuing_paradigm_dot,2024.1.5,Win32,59.88023952,682d556593cb38ad0a074487,,,,,,,,,,,114.6631,115.1619,,,115.4115,115.911,right,,,,,,,,0.9,0.4905,,,,,,,115.1619,115.4115,115.9112,"[-0.020796105432390726,-0.004497208725231158]","[1,1,1]","[-0.13658918113798751,0.06391072169697862]","[-1,-1,-1]","[0.01161171066799561,0.12063516422358529]","[1,1,1]","[-0.05044847243611639,-0.14044195504677007]","[1,1,1]","[-0.09544282946454141,-0.10847789087681699]","[1,1,1]","[0.0018111310036659984,-0.140012346490828]","[1,1,1]","[0.0034964639534561972,-0.09524528028777271]","[1,1,1]","[-0.06140694408953228,0.170743322559068]","[1,1,1]","[0.01042079448984409,0.1748807739793192]","[1,1,1]","[0.12535895145387438,0.125834933802332]","[1,1,1]","[-0.06544152846094264,0.07479499314536416]","[1,1,1]","[0.05952289912860982,-0.031151247369300635]","[1,1,1]","[0.054802692721186416,0.07721070720958165]","[1,1,1]","[-0.10290032468248812,0.09384549417414015]","[1,1,1]","[0.006911883471338327,0.035080357220724806]","[1,1,1]","[0.07441156980539446,-0.118032237982743]","[1,1,1]","[-0.08056653261989259,-0.17744141688938267]","[1,1,1]","[0.15311151604115159,0.04454216909914579]","[1,1,1]","[-0.14722891661472629,0.1185383348814633]","[1,1,1]","[-0.07701154748322682,-0.06446169514414628]","[1,1,1]","[0.0807541061654715,-0.16909509401639536]","[-1,-1,-1]","[-0.18021261842536337,-0.004491372009385109]","[1,1,1]","[-0.06346033311753309,0.001618183823951615]","[1,1,1]","[0.0901119288273751,0.1755599015730181]","[1,1,1]","[-0.17618239314084091,0.04380945802425323]","[-1,-1,-1]","[-0.18399108432370034,-0.06788463160056449]","[1,1,1]","[-0.12526710021079732,-0.13590234641509907]","[1,1,1]","[0.15079569600871198,-0.026430271681968383]","[1,1,1]","[0.16199666643561078,-0.08838185559706539]","[1,1,1]","[0.09381541737784663,-0.05742952603940103]","[1,1,1]","[0.06370414856298857,0.024749862156907006]","[1,1,1]","[0.04078068692890898,-0.19339410067662766]","[1,1,1]","[0.02,0.02]",117.0124,0,6,6,194,1,,,,,,,
,,,,,,,66b39d642d5d3c9ab18111e8,682db44a8299fba01a2d57ee,2025-05-21_13h10.18.949,cuing_paradigm_dot,2024.1.5,Win32,59.88023952,682d556593cb38ad0a074487,,,,,,,,,,,117.0132,117.5125,,,117.7542,118.278,left,,,,,,,,0.1,0.5091,,,,,,,117.5126,117.7542,118.2781,"[-0.10693890477843844,0.10496659903893799]","[-1,-1,-1]","[-0.0070370132626135186,0.18751721688819578]","[-1,-1,-1]","[-0.06374191177683426,-0.041990432862565326]","[1,1,1]","[-0.1450236586811237,-0.00018461516398333777]","[-1,-1,-1]","[0.1931019219013414,0.009433525377193745]","[-1,-1,-1]","[0.09082474669042608,-0.14046753356428204]","[-1,-1,-1]","[-0.1523568201453171,0.07500113411798219]","[-1,-1,-1]","[-0.034272574337937185,0.1454950792887017]","[-1,-1,-1]","[0.027526387439302025,0.16595530872196712]","[1,1,1]","[-0.14128832232551614,-0.06970540918142823]","[-1,-1,-1]","[0.07822354622356138,0.1415439564714033]","[-1,-1,-1]","[-0.04172586281402444,0.05884247037797232]","[-1,-1,-1]","[0.1350079838559136,0.08112476077793636]","[1,1,1]","[0.16362109689119433,-0.05041612394833811]","[-1,-1,-1]","[-0.030549509249393602,-0.11243412818038058]","[-1,-1,-1]","[-0.021439902618523698,-0.174799966080847]","[-1,-1,-1]","[0.031143107042163706,-0.14610358149498273]","[-1,-1,-1]","[0.10504739698706862,-0.003123277813089372]","[-1,-1,-1]","[0.09544723513875315,0.04309442656843028]","[-1,-1,-1]","[0.06926614604816969,-0.1764017800186223]","[-1,-1,-1]","[-0.09668057620345073,-0.1557019647367448]","[-1,-1,-1]","[0.09510540736139687,0.10500250470024293]","[-1,-1,-1]","[-0.10042909744387259,-0.011691161357600687]","[-1,-1,-1]","[0.007441544180191348,0.028848575387599388]","[-1,-1,-1]","[0.04790357415622609,-0.05043360247485308]","[-1,-1,-1]","[-0.11350572589471104,-0.11129980762109995]","[-1,-1,-1]","[-0.14183188190844048,0.13371044793904072]","[-1,-1,-1]","[0.027201507445835996,0.08570949903834077]","[-1,-1,-1]","[0.00048517480112440396,-0.04544184843497082]","[-1,-1,-1]","[-0.025754736669288646,0.10600911265937145]","[-1,-1,-1]","[-0.06679150492862303,0.02161752969152623]","[-1,-1,-1]","[0.1573237863693267,-0.11881890083194888]","[-1,-1,-1]","[0.02,0.02]",119.3686,0,7,7,15,1,,,,,,,
,,,,,,,66b39d642d5d3c9ab18111e8,682db44a8299fba01a2d57ee,2025-05-21_13h10.18.949,cuing_paradigm_dot,2024.1.5,Win32,59.88023952,682d556593cb38ad0a074487,,,,,,,,,,,119.3705,119.8699,,,120.1132,121.1127,right,,,,,,,,0.5,0.9896,,,,,,,119.8701,120.1132,121.1129,"[-0.12939630896721938,0.11018509457469376]","[1,1,1]","[-0.02122834694062926,0.17086684657993118]","[-1,-1,-1]","[0.0699459687163674,-0.15735057864344548]","[-1,-1,-1]","[-0.19280879159723163,-0.05075625482507607]","[1,1,1]","[-0.07579251292419133,0.05160614196910003]","[-1,-1,-1]","[0.05308621499541831,-0.08677775710786663]","[1,1,1]","[0.10501601785590998,-0.09911266280649758]","[1,1,1]","[-0.11919944166465873,-0.03276000824929167]","[-1,-1,-1]","[0.12950293696453852,-0.02062647736482669]","[1,1,1]","[0.195476002638378,0.036815478512898896]","[-1,-1,-1]","[0.18443908286522007,-0.03180301057469786]","[1,1,1]","[-0.0019701617615181647,-0.05569172598924229]","[1,1,1]","[0.16406295743061328,-0.09079373721451554]","[1,1,1]","[-0.07934149759093216,-0.10565819245581655]","[-1,-1,-1]","[-0.1755311088496543,0.04198227231077019]","[-1,-1,-1]","[0.13031080714078655,0.027306898945859005]","[1,1,1]","[0.005713288707021475,0.06664783584880575]","[-1,-1,-1]","[-0.04231959827411051,0.08009467659343844]","[1,1,1]","[-0.035626588516362745,-0.014371007965405415]","[1,1,1]","[0.11523308808655441,0.13448897572798377]","[1,1,1]","[0.16704064026425347,0.008512816582621447]","[-1,-1,-1]","[0.08577728470490398,0.10228232760057018]","[1,1,1]","[0.059905305297525385,0.031225100648185882]","[-1,-1,-1]","[0.12844557682149818,-0.14088748956436417]","[1,1,1]","[-0.08296969102463404,-0.0006624046268773616]","[-1,-1,-1]","[0.02821838420516636,0.17189729022416458]","[-1,-1,-1]","[0.12851932167237948,0.07985257715090054]","[-1,-1,-1]","[0.16482761019014083,0.10248674068536054]","[-1,-1,-1]","[-0.06633305067844489,-0.065105878135248]","[-1,-1,-1]","[0.003981278859735692,-0.18810856973931525]","[1,1,1]","[-0.1330775949677688,0.029215358726089942]","[-1,-1,-1]","[-0.01221291952480852,0.10714117069572705]","[1,1,1]","[0.02,0.02]",122.2115,0,8,8,119,1,,,,,,,
,,,,,,,66b39d642d5d3c9ab18111e8,682db44a8299fba01a2d57ee,2025-05-21_13h10.18.949,cuing_paradigm_dot,2024.1.5,Win32,59.88023952,682d556593cb38ad0a074487,,,,,,,,,,,122.2129,122.7111,,,122.9542,123.6211,left,,,,,,,,0.4,0.6515,,,,,,,122.7112,122.9541,123.6212,"[-0.051956499912074315,0.0982910213099741]","[-1,-1,-1]","[0.03574628173731229,0.042010958260219805]","[-1,-1,-1]","[0.14623204097762624,0.054285268632187224]","[-1,-1,-1]","[0.15966277717160357,-0.039931131522055734]","[1,1,1]","[-0.028558239558843287,0.16010135184110172]","[1,1,1]","[-0.18657866815934424,0.04937368401905572]","[-1,-1,-1]","[0.020490257284976728,0.17592140226712222]","[-1,-1,-1]","[-0.11026750158910799,0.013106509400573051]","[-1,-1,-1]","[-0.08815068967720924,-0.1567811638733206]","[-1,-1,-1]","[0.1211612836788057,-0.09586812568412104]","[1,1,1]","[-0.01399139811408594,0.004735474544256905]","[-1,-1,-1]","[0.02477696411469144,0.13205322931104302]","[1,1,1]","[0.0730467877146076,0.02111172598187637]","[1,1,1]","[0.04762582428372443,0.08343833646764123]","[-1,-1,-1]","[-0.07454035042711864,-0.0459734961025527]","[-1,-1,-1]","[0.04141246954657233,-0.17691244406389423]","[-1,-1,-1]","[0.09076168389543769,-0.014769925392290224]","[1,1,1]","[-0.062393796761764465,0.04854412511612445]","[1,1,1]","[0.1085615851575544,0.0770678349317044]","[-1,-1,-1]","[-0.11160301373908449,0.11984139200375767]","[1,1,1]","[0.04364005698332006,-0.0706998641438995]","[1,1,1]","[-0.00014458540417577477,0.07503257620043129]","[1,1,1]","[0.03283714276098117,-0.03011978187294002]","[1,1,1]","[0.07590100765439403,0.1657008757404517]","[1,1,1]","[-0.1985704950525965,0.004609213134026142]","[-1,-1,-1]","[0.13643845655757633,0.13863331752218627]","[-1,-1,-1]","[-0.12052418817226147,0.05234073477187566]","[-1,-1,-1]","[-0.03736100437051781,-0.1685064921846052]","[-1,-1,-1]","[-0.02438843586322384,-0.05768713247361534]","[1,1,1]","[0.08021904584356576,-0.16577637146885302]","[-1,-1,-1]","[0.1849250887734213,0.006694192745011333]","[-1,-1,-1]","[-0.07259538291570196,0.15324124143362025]","[-1,-1,-1]","[0.02,0.02]",124.7203,0,9,9,51,1,,,,,,,
,,,,,,,66b39d642d5d3c9ab18111e8,682db44a8299fba01a2d57ee,2025-05-21_13h10.18.949,cuing_paradigm_dot,2024.1.5,Win32,59.88023952,682d556593cb38ad0a074487,,,,,,,,,,,124.7222,125.2182,,,125.4617,126.9617,,,,,,,,,0.55,,,,,,,,125.2183,125.4616,126.9617,"[0.04017260637674887,0.06076142038228128]","[1,1,1]","[-0.09342108535424092,-0.021933446130882314]","[1,1,1]","[0.07135903559264573,0.1321117785106985]","[1,1,1]","[-0.1537375893825896,-0.022625048561714604]","[-1,-1,-1]","[-0.0869026764488088,0.16243798200820408]","[-1,-1,-1]","[-0.06965660958243688,-0.08102097421612023]","[1,1,1]","[-0.06702812643614481,-0.13796685302189524]","[1,1,1]","[-0.14597867846014662,0.03243893599329917]","[1,1,1]","[0.11606540349341518,-0.026919656154988744]","[-1,-1,-1]","[-0.05413516137353598,0.1100720052946082]","[1,1,1]","[-0.06611897202631968,-0.1823054259905881]","[-1,-1,-1]","[-0.11862878163968993,-0.060876724140718576]","[1,1,1]","[0.14561875828013626,-0.08217681083092722]","[1,1,1]","[0.05850906175111077,-0.18245375548554366]","[1,1,1]","[0.10463039112875833,0.025037388423026535]","[-1,-1,-1]","[0.09267052047116754,-0.07217350530197039]","[-1,-1,-1]","[-0.07804233592923736,0.057762288626499854]","[1,1,1]","[0.02279101787341931,-0.10149161937174021]","[1,1,1]","[0.13848346553290997,0.13009035843184646]","[1,1,1]","[0.05167991072884591,0.17705838164576881]","[1,1,1]","[0.11249009583181901,-0.1396786605794388]","[-1,-1,-1]","[0.015596812176912772,-0.03915787267284303]","[1,1,1]","[0.002771021688119906,0.028949137151201357]","[-1,-1,-1]","[-0.15228938199236927,-0.11088268846165567]","[-1,-1,-1]","[0.14117293742107667,0.005755671370176028]","[-1,-1,-1]","[0.17761083894505267,0.054747356494938546]","[-1,-1,-1]","[-0.0025911336256056487,-0.14931952641833238]","[-1,-1,-1]","[-0.1490601244827726,0.10782073865263256]","[1,1,1]","[-0.12751194630851556,0.1521971427045989]","[-1,-1,-1]","[0.10095686354396556,0.06864231410076739]","[-1,-1,-1]","[-0.050011402534428276,-0.024808980732705647]","[1,1,1]","[0.19371085656643808,-0.015560526810521252]","[1,1,1]","[0.02,0.02]",128.0612,0,10,10,147,1,,,,,,,
,,,,,,,66b39d642d5d3c9ab18111e8,682db44a8299fba01a2d57ee,2025-05-21_13h10.18.949,cuing_paradigm_dot,2024.1.5,Win32,59.88023952,682d556593cb38ad0a074487,,,,,,,,,,,128.0627,128.5612,,,128.8131,130.0135,right,,,,,,,,0.55,1.1857,,,,,,,128.5612,128.8131,130.0136,"[0.018542145446733722,0.028862343582545167]","[-1,-1,-1]","[0.19152394224270775,-0.027085953825761816]","[-1,-1,-1]","[-0.10284675394444233,0.006160201870903817]","[-1,-1,-1]","[-0.03908765444371777,-0.14842525144133367]","[1,1,1]","[-0.07428389335323882,-0.08075438694601796]","[-1,-1,-1]","[0.015352727718898023,0.09371669557039485]","[1,1,1]","[-0.1625466057686289,0.05400940737326326]","[1,1,1]","[0.16734715474772247,-0.08999719621054635]","[-1,-1,-1]","[0.067044167957283,-0.1810588394035942]","[1,1,1]","[0.058463023123739584,-0.020488198041272786]","[1,1,1]","[0.09300681017681554,-0.13399378498995307]","[1,1,1]","[0.1129367451550517,-0.05275778217742896]","[-1,-1,-1]","[0.019617537531007145,-0.0805604052709497]","[-1,-1,-1]","[0.1335509821097693,-0.012014426816626709]","[1,1,1]","[0.07583724375627546,0.16228057779564659]","[1,1,1]","[-0.15855843040524917,-0.04290041816306942]","[1,1,1]","[-0.05204487700209588,-0.04428746602377458]","[-1,-1,-1]","[0.11653224135377073,0.025272644715797526]","[1,1,1]","[-0.18291135496946925,-0.009538760283500914]","[1,1,1]","[-0.05140351258221251,0.12094947002513001]","[1,1,1]","[0.021792857772606995,0.1952174820756612]","[1,1,1]","[-0.13426205549269532,0.12139846552690348]","[-1,-1,-1]","[-0.09642316950066311,-0.12253414128734644]","[-1,-1,-1]","[0.011736222493331859,-0.1629953372004277]","[1,1,1]","[0.10136159789672768,0.12947935929372084]","[-1,-1,-1]","[-0.153332675468103,-0.09588452306574594]","[-1,-1,-1]","[0.1917515718720081,0.05104856052575705]","[1,1,1]","[-0.0285257805228911,0.03426725224163867]","[1,1,1]","[-0.018308253996893183,0.17141836671051078]","[1,1,1]","[0.06897208242574493,0.103548412249301]","[1,1,1]","[-0.05863258151713915,0.005097165264857165]","[-1,-1,-1]","[-0.033883200121912184,0.07418752358333715]","[-1,-1,-1]","[0.02,0.02]",131.1126,0,11,11,131,1,,,,,,,
,,,,,,,66b39d642d5d3c9ab18111e8,682db44a8299fba01a2d57ee,2025-05-21_13h10.18.949,cuing_paradigm_dot,2024.1.5,Win32,59.88023952,682d556593cb38ad0a074487,,,,,,,,,,,131.1133,131.6116,,,131.8621,133.3614,,,,,,,,,0.5,,,,,,,,131.6116,131.862,133.3614,"[-0.04049465977675838,0.12209310268479735]","[-1,-1,-1]","[-0.16767525813875722,0.05144374536503698]","[1,1,1]","[-0.1014402090236107,0.10335142434292671]","[-1,-1,-1]","[0.12348008339078419,-0.14429995909163648]","[1,1,1]","[-0.11381223408684393,0.042297869204269714]","[-1,-1,-1]","[0.11225894390700765,0.05051800271702114]","[-1,-1,-1]","[0.03960938097613624,-0.030405589339335924]","[1,1,1]","[-0.022515565365194473,-0.1607784526780463]","[-1,-1,-1]","[-0.14614897362595444,-0.13349697557889534]","[-1,-1,-1]","[-0.11869288467842713,0.15415792528117178]","[-1,-1,-1]","[0.0276074673763914,0.1426936115890573]","[-1,-1,-1]","[0.07189256024636304,-0.0741545561654867]","[1,1,1]","[-0.057940402398925055,-0.11802466093656225]","[1,1,1]","[0.07630728937156785,-0.1529597158221696]","[-1,-1,-1]","[-0.17594883082901644,-0.08332288314102401]","[1,1,1]","[-0.027362225787692446,0.07947976165714661]","[1,1,1]","[0.18561772286978245,0.00822200041891067]","[-1,-1,-1]","[0.05749034201521979,-0.11374326485116838]","[-1,-1,-1]","[-0.06150104220494709,-0.03261403375606917]","[1,1,1]","[-0.0913578520440427,-0.16616560944732744]","[-1,-1,-1]","[0.09780325977073623,-0.006474612413904538]","[1,1,1]","[-0.018895063332184988,0.17300390896447518]","[-1,-1,-1]","[0.16525904341341963,-0.063956216123981]","[1,1,1]","[-0.0048540924002991905,-0.11490416867285774]","[1,1,1]","[0.016316334588162007,0.004133384477448655]","[-1,-1,-1]","[0.13931476619289102,0.14184511296208205]","[-1,-1,-1]","[0.15407272014306114,-0.11798460028917941]","[1,1,1]","[-0.12800180311510045,-0.012116662800739043]","[1,1,1]","[0.01609697817769074,0.07459165955095298]","[-1,-1,-1]","[0.12350145678773859,-0.08148694325397828]","[1,1,1]","[0.06445186489313015,0.17398744354431456]","[1,1,1]","[-0.16305470823928758,-0.039439726867658675]","[1,1,1]","[0.02,0.02]",134.463,0,12,12,95,1,,,,,,,
,,,,,,,66b39d642d5d3c9ab18111e8,682db44a8299fba01a2d57ee,2025-05-21_13h10.18.949,cuing_paradigm_dot,2024.1.5,Win32,59.88023952,682d556593cb38ad0a074487,,,,,,,,,,,134.4638,134.9634,,,135.2135,136.7126,,,,,,,,,0.55,,,,,,,,134.9634,135.2135,136.7127,"[-0.052009899004397536,0.0507239805159628]","[-1,-1,-1]","[-0.17051472283948527,-0.055158249555634066]","[-1,-1,-1]","[0.08102849051692733,0.14714835566559736]","[1,1,1]","[0.014241347637184331,0.17762511849942933]","[-1,-1,-1]","[-0.1334800123708882,0.11208326911850636]","[-1,-1,-1]","[0.12156280629045586,0.001467307552428034]","[1,1,1]","[0.0356497805326805,0.07183149872837281]","[1,1,1]","[0.08713832264811006,-0.15123010679003815]","[1,1,1]","[0.1033659041856028,-0.0452614381491012]","[-1,-1,-1]","[-0.04292286287999836,0.15915999973344155]","[1,1,1]","[0.1030812620361926,0.06260695491161043]","[1,1,1]","[-0.09125745788280389,0.15702735443768534]","[1,1,1]","[-0.09895566268980978,0.08251228056134152]","[-1,-1,-1]","[0.03774356835874661,-0.01736999309260308]","[-1,-1,-1]","[0.1890628377656663,0.03514729475607962]","[1,1,1]","[-0.14500110198121618,-0.12009070495893252]","[1,1,1]","[-0.16841696097330888,-0.01485701922392278]","[-1,-1,-1]","[-0.06726935541200492,-0.0821398601849266]","[-1,-1,-1]","[-0.03981236974820857,-0.018048740541212673]","[1,1,1]","[0.06947379819850175,0.03328907516287464]","[-1,-1,-1]","[0.12422494587343,0.10561921784590307]","[1,1,1]","[-0.08882205426810637,-0.13960953947451057]","[1,1,1]","[0.164124196732135,-0.09515648249534829]","[1,1,1]","[-0.02305419317247079,-0.0736850243971236]","[1,1,1]","[-0.011503531492033885,-0.1679632990446689]","[-1,-1,-1]","[0.0006756728548356814,-0.03602386882829282]","[1,1,1]","[-0.13079354851988748,-0.06197806490976617]","[-1,-1,-1]","[-0.05328807086075434,-0.18482138316443741]","[-1,-1,-1]","[0.1779837837043736,0.0782064363501867]","[1,1,1]","[0.006131991326667774,0.12897046197645756]","[-1,-1,-1]","[0.06810555291456069,-0.1019677073640499]","[1,1,1]","[-0.15407369201124263,0.0224928534627516]","[1,1,1]","[0.02,0.02]",137.8131,0,13,13,121,1,,,,,,,
,,,,,,,66b39d642d5d3c9ab18111e8,682db44a8299fba01a2d57ee,2025-05-21_13h10.18.949,cuing_paradigm_dot,2024.1.5,Win32,59.88023952,682d556593cb38ad0a074487,,,,,,,,,,,137.8139,138.3132,,,138.5622,140.0617,,,,,,,,,0.45,,,,,,,,138.3132,138.562,140.0619,"[0.05425398120496044,-0.03643158389587133]","[-1,-1,-1]","[0.07334271457888503,-0.15751037274641194]","[1,1,1]","[0.05891162360152746,0.009056208178191902]","[-1,-1,-1]","[-0.11358955797080375,0.16271051076248236]","[-1,-1,-1]","[0.12879012920805066,0.0530465993022652]","[1,1,1]","[0.065720602578628,0.16682470803985672]","[-1,-1,-1]","[0.13314875566722467,-0.053417141235790236]","[-1,-1,-1]","[0.056911374114661545,-0.11124940588450243]","[1,1,1]","[-0.09450612853428766,0.0374042473336792]","[-1,-1,-1]","[-0.007698244735205696,-0.05246359152984887]","[1,1,1]","[0.16713759920489793,0.02515305506008261]","[-1,-1,-1]","[-0.12433012251614907,-0.14315154025460802]","[-1,-1,-1]","[-0.057176716635213565,0.07686209221329492]","[1,1,1]","[0.11324085775632098,0.12777141425889324]","[-1,-1,-1]","[-0.15816191762540435,-0.09884013276653446]","[-1,-1,-1]","[0.05011625470132349,0.10231784718791533]","[1,1,1]","[-0.02548157416841695,0.14525338727267945]","[1,1,1]","[0.027129165098542796,0.059351756764228956]","[-1,-1,-1]","[-0.16230317172298903,-0.05490400405976826]","[-1,-1,-1]","[-0.18239179376901124,0.04167612834520526]","[1,1,1]","[-0.031456695917388575,-0.08772444838298367]","[-1,-1,-1]","[-0.11533552047440164,0.09163724707349555]","[-1,-1,-1]","[-0.06337751128386783,-0.16917120872528002]","[-1,-1,-1]","[0.027876998325887907,-0.15481262251727776]","[-1,-1,-1]","[0.18066421043350586,0.06675272017590257]","[1,1,1]","[-0.07754229620359109,-0.08375281825786807]","[1,1,1]","[-0.13841887798149102,0.024543524386050786]","[1,1,1]","[0.12171674116200931,-0.12703538028386796]","[1,1,1]","[-0.07345442105635537,0.13780059216748655]","[-1,-1,-1]","[-0.12001916502846591,-0.08564266369351485]","[-1,-1,-1]","[-0.011167485691290878,0.09302897088079563]","[1,1,1]","[0.09494797227995476,-0.035952334323986215]","[1,1,1]","[0.02,0.02]",141.1609,0,14,14,74,1,,,,,,,
,,,,,,,66b39d642d5d3c9ab18111e8,682db44a8299fba01a2d57ee,2025-05-21_13h10.18.949,cuing_paradigm_dot,2024.1.5,Win32,59.88023952,682d556593cb38ad0a074487,,,,,,,,,,,141.1617,141.6611,,,141.9124,142.8859,left,,,,,,,,0.5,0.9635,,,,,,,141.6613,141.9124,142.8862,"[-0.06980836531145099,0.03750288553374549]","[1,1,1]","[0.041117876964954746,-0.004176464705017642]","[-1,-1,-1]","[-0.025004789226360607,0.1282690101740157]","[-1,-1,-1]","[0.031030896887758726,0.10711671311113824]","[1,1,1]","[0.07017810090940962,-0.10039647549466742]","[-1,-1,-1]","[-0.19003531659200681,0.031885244962594046]","[1,1,1]","[-0.08272592227613411,0.11500177989538478]","[-1,-1,-1]","[0.014299669694953146,-0.13403602244134286]","[-1,-1,-1]","[0.12634317428377426,0.034424862565128125]","[1,1,1]","[-0.10827692368997514,-0.09165832469767612]","[1,1,1]","[0.1276752792846277,0.10776459100282296]","[-1,-1,-1]","[0.06248793417298248,-0.05906228578511864]","[1,1,1]","[0.15972830914921785,-0.030814206103956004]","[1,1,1]","[-0.05166471822586717,0.0737996910396522]","[1,1,1]","[-0.1789617109793152,-0.06596160656196459]","[-1,-1,-1]","[-0.010389856557734308,-0.062314321007116376]","[-1,-1,-1]","[0.07741187688831065,0.028927080863510278]","[-1,-1,-1]","[-0.11015839507928851,-0.021566045635808755]","[-1,-1,-1]","[-0.1474391352779691,0.073323419754131]","[1,1,1]","[-0.08921282573156514,-0.14358529235505102]","[-1,-1,-1]","[0.15676429484537485,-0.09727857826026828]","[-1,-1,-1]","[-0.005148782049591626,0.07262505391710997]","[1,1,1]","[0.07569290088121407,0.10949871635735815]","[1,1,1]","[-0.12036590637893423,0.13294638636854736]","[-1,-1,-1]","[-0.14574012009933554,-0.10616529941055307]","[-1,-1,-1]","[-0.03563931291337432,-0.16334966704042014]","[1,1,1]","[0.005812114063340034,0.021568848826927875]","[1,1,1]","[-0.06746878041731559,-0.03396204440733246]","[-1,-1,-1]","[-0.15180666193848763,-0.009663122775860764]","[-1,-1,-1]","[0.10711109285404144,-0.004141313679531945]","[1,1,1]","[0.06318911947787274,0.15942977375384287]","[1,1,1]","[-0.12612784524402804,0.032255516458233546]","[1,1,1]","[0.02,0.02]",143.9871,0,15,15,90,1,,,,,,,
,,,,,,,66b39d642d5d3c9ab18111e8,682db44a8299fba01a2d57ee,2025-05-21_13h10.18.949,cuing_paradigm_dot,2024.1.5,Win32,59.88023952,682d556593cb38ad0a074487,,,,,,,,,,,143.9893,144.4871,,,144.7364,145.5547,right,,,,,,,,0.5,0.8015,,,,,,,144.4875,144.7363,145.5547,"[-0.08424654154936531,-0.09205058074071301]","[1,1,1]","[0.1232020453960939,0.05583347750033983]","[-1,-1,-1]","[0.12019402211438962,-0.09628311290833735]","[-1,-1,-1]","[-0.12425594574786879,0.1388040167360273]","[1,1,1]","[0.07562980142324549,-0.04031072397416921]","[-1,-1,-1]","[0.028531243200123443,0.12397560720965274]","[-1,-1,-1]","[-0.0809554786390481,-0.0333201132976063]","[1,1,1]","[0.14886051021337593,-0.04470306653772006]","[1,1,1]","[0.0773103308141873,0.181610395044723]","[-1,-1,-1]","[0.027506627549801897,-0.048646694015413355]","[-1,-1,-1]","[0.07893287397921053,0.03007596571995554]","[1,1,1]","[0.07608668091444805,0.11576959531688606]","[-1,-1,-1]","[-0.08510733082863924,0.017241948150665553]","[-1,-1,-1]","[-0.18409341773937143,0.022264121218380596]","[-1,-1,-1]","[-0.0066305241986898385,-0.18207653424063344]","[1,1,1]","[0.014584648869741213,0.0017311401397924874]","[1,1,1]","[-0.036354168759844346,-0.13942745250612593]","[-1,-1,-1]","[-0.14659330815161078,0.0907212871427773]","[1,1,1]","[-0.03791337508286884,0.008407110742826093]","[1,1,1]","[0.155104915557522,0.019670835150257377]","[-1,-1,-1]","[0.027424497589961367,0.04263023004076757]","[1,1,1]","[-0.09537225857602546,0.05883791212669217]","[1,1,1]","[-0.06143733769599568,-0.18560590327504253]","[1,1,1]","[-0.059321456716604035,0.16263697664607865]","[-1,-1,-1]","[0.05234059952535412,-0.15404883445946396]","[-1,-1,-1]","[0.06970422139071722,-0.08911972834146456]","[1,1,1]","[0.15399911285415827,0.1255139409835087]","[1,1,1]","[0.19558470955047821,-0.01756878042799515]","[-1,-1,-1]","[-0.19440884088820576,-0.02280283889389385]","[-1,-1,-1]","[-0.05716405107758899,0.09052918297715576]","[1,1,1]","[-0.12412195316398607,-0.14875844201405802]","[-1,-1,-1]","[-0.16930063916175583,-0.09750961414176133]","[1,1,1]","[0.02,0.02]",146.6451,0,16,16,112,1,,,,,,,
,,,,,,,66b39d642d5d3c9ab18111e8,682db44a8299fba01a2d57ee,2025-05-21_13h10.18.949,cuing_paradigm_dot,2024.1.5,Win32,59.88023952,682d556593cb38ad0a074487,,,,,,,,,,,146.6469,147.1348,,,147.3779,148.2614,right,,,,,,,,0.4,0.8714,,,,,,,147.1349,147.3777,148.2615,"[-0.04537684971812513,-0.152483959222366]","[1,1,1]","[-0.05263780527705564,0.07479159130231827]","[-1,-1,-1]","[0.024396076964081238,-0.1214319276894801]","[1,1,1]","[-0.1362447454888956,-0.010542366929231547]","[1,1,1]","[-0.09070010459072944,0.1777233758046591]","[-1,-1,-1]","[0.11727656642573824,-0.022818012629683984]","[-1,-1,-1]","[-0.11207229489123756,0.13112675301115637]","[-1,-1,-1]","[0.10853709417003544,0.11641057382778855]","[-1,-1,-1]","[0.017302174232922907,0.05421638627749076]","[-1,-1,-1]","[0.06182859497633134,-0.13600642230882312]","[1,1,1]","[0.04451625445210397,-0.07986640895423695]","[-1,-1,-1]","[0.12559912315390315,0.07155660103359951]","[1,1,1]","[-0.07555361324788115,-0.02647266197032802]","[1,1,1]","[-0.04051869009089173,0.14918686712297882]","[-1,-1,-1]","[0.0371236739481124,0.16501015973939884]","[1,1,1]","[0.08802385106999672,0.013677725836234963]","[1,1,1]","[0.14567576401982166,0.02810400036000779]","[-1,-1,-1]","[-0.16115071716442886,-0.09904727809110361]","[1,1,1]","[-0.0999556085626924,-0.15459664128061174]","[-1,-1,-1]","[0.007985534400757914,0.19784426300765692]","[-1,-1,-1]","[0.1027405163475125,-0.06592784109523656]","[-1,-1,-1]","[-0.048584376726386276,-0.06948161681806188]","[-1,-1,-1]","[-0.09499315674635728,-0.10612532134896271]","[-1,-1,-1]","[0.13872254832162265,-0.1204174352379921]","[1,1,1]","[-0.13783084512387117,-0.05824612528422217]","[1,1,1]","[-0.1164787436353787,0.09005803470361161]","[-1,-1,-1]","[0.15538462073329837,-0.03975427051514307]","[-1,-1,-1]","[-0.18698302850458254,-0.031673504915823734]","[1,1,1]","[0.014476650469716846,0.0015853061666446114]","[-1,-1,-1]","[0.006114355236255376,0.10339941924448544]","[-1,-1,-1]","[-0.1621133551829144,0.05808831744956583]","[1,1,1]","[-0.05569123376681715,0.03235842320626595]","[-1,-1,-1]","[0.02,0.02]",149.3615,0,17,17,47,1,,,,,,,
,,,,,,,66b39d642d5d3c9ab18111e8,682db44a8299fba01a2d57ee,2025-05-21_13h10.18.949,cuing_paradigm_dot,2024.1.5,Win32,59.88023952,682d556593cb38ad0a074487,,,,,,,,,,,149.3628,149.8612,,,150.1131,150.6848,left,,,,,,,,0.4,0.5638,,,,,,,149.8613,150.113,150.6848,"[0.0050180842365528675,0.07482397485715607]","[-1,-1,-1]","[-0.07999379575687339,-0.15842584047673794]","[1,1,1]","[-0.07006452452279682,0.09977282531795312]","[1,1,1]","[-0.046509405124585186,-0.12915843648346795]","[-1,-1,-1]","[-0.09878392222641368,-0.0906364062993819]","[1,1,1]","[0.1185784241234838,-0.060710157373862]","[1,1,1]","[-0.13732970312889,0.10445681563179547]","[-1,-1,-1]","[-0.10305251493153536,0.00139437833844357]","[-1,-1,-1]","[-0.051780962126637235,-0.015118675775995004]","[-1,-1,-1]","[0.0057763211338081625,0.18021298671814368]","[-1,-1,-1]","[0.0011532411420789735,-0.18007287160522562]","[-1,-1,-1]","[0.0387993007235345,-0.05370387057300268]","[1,1,1]","[0.09519911106238256,0.0008322193317281117]","[1,1,1]","[0.1436757127908043,-0.09418246344586603]","[-1,-1,-1]","[-0.04166937901687576,-0.18871269572356808]","[-1,-1,-1]","[0.1602712447459852,0.07443809296899942]","[-1,-1,-1]","[0.18234093438071267,-0.0734989570746229]","[-1,-1,-1]","[-0.05375436091277621,0.04460829173950965]","[-1,-1,-1]","[0.03283590120504373,-0.13425519794266216]","[1,1,1]","[-0.19474846925589387,-0.005759571795829221]","[-1,-1,-1]","[0.06036462606091158,0.16639206537222934]","[1,1,1]","[0.08855425442317769,-0.12114429026031708]","[1,1,1]","[0.10675826415878424,0.14485736773152957]","[-1,-1,-1]","[0.1909143945858073,0.04504040707271306]","[-1,-1,-1]","[0.002790261623168869,-0.08238530538802977]","[-1,-1,-1]","[-0.191126357535867,0.045816698071770114]","[1,1,1]","[-0.10481566628349437,0.07028522246088427]","[-1,-1,-1]","[-0.14059536797489627,-0.11055346710386102]","[1,1,1]","[0.195888512825636,-0.0022641415798505373]","[1,1,1]","[0.06555434209681447,0.12226875253913477]","[1,1,1]","[0.1261542403621676,0.043751692709621565]","[-1,-1,-1]","[-0.002135511377360738,0.030804878804559597]","[-1,-1,-1]","[0.02,0.02]",151.7779,0,18,18,31,1,,,,,,,
,,,,,,,66b39d642d5d3c9ab18111e8,682db44a8299fba01a2d57ee,2025-05-21_13h10.18.949,cuing_paradigm_dot,2024.1.5,Win32,59.88023952,682d556593cb38ad0a074487,,,,,,,,,,,151.7785,152.2794,,,152.5301,153.0295,right,,,,,,,,0.9,0.4834,,,,,,,152.2794,152.5301,153.0296,"[-0.12386356251791888,-0.10021255442640316]","[1,1,1]","[0.11494531479269984,0.13736837366638507]","[1,1,1]","[-0.054798279096959585,0.1823458190981178]","[1,1,1]","[0.17456730590867145,-0.0691477240183743]","[1,1,1]","[-0.034256866205272296,0.045093524939441416]","[1,1,1]","[-0.022041776921115315,-0.03961366173597336]","[1,1,1]","[0.11390856763923746,-0.014259200055908968]","[1,1,1]","[-0.1892813690758436,-0.041291062736625125]","[1,1,1]","[-0.13411602077083706,0.11282669925301561]","[1,1,1]","[-0.13637163928888674,0.05588832529582403]","[1,1,1]","[0.09341310312218767,-0.17549510879761943]","[1,1,1]","[-0.01624795706693861,0.16960981234449568]","[1,1,1]","[0.07326906163208485,0.12309249274085428]","[1,1,1]","[0.19108338418167933,-0.02121519898511301]","[1,1,1]","[-0.12315379950856685,-0.15536265669955274]","[-1,-1,-1]","[0.08897150393634211,-0.05370602881420489]","[1,1,1]","[0.026694881086091145,0.05882643487140147]","[1,1,1]","[0.04596515312553833,-0.017510577520149048]","[1,1,1]","[-0.06737105428049114,-0.10314052535180498]","[1,1,1]","[0.0011763378118086478,-0.1731743304497738]","[1,1,1]","[0.1418160996360868,-0.13000202785884363]","[1,1,1]","[0.03728444640272291,0.16714955313174495]","[1,1,1]","[0.02921849817887281,-0.06892302125337549]","[1,1,1]","[-0.060538603675579526,-0.02700021118344437]","[-1,-1,-1]","[0.13556693527789698,-0.08347480721716942]","[1,1,1]","[0.11285020270541449,0.0739410494552837]","[1,1,1]","[-0.16788219536246526,-0.0007052933320841208]","[1,1,1]","[0.16163753548200907,0.08713042949263657]","[1,1,1]","[-0.05118193577304094,-0.17829949597534842]","[-1,-1,-1]","[0.0631628520343521,-0.1031067222349024]","[1,1,1]","[0.006580109038401127,-0.10743847018728227]","[1,1,1]","[-0.09241647752833607,0.031612194109986815]","[1,1,1]","[0.02,0.02]",154.1288,0,19,19,187,1,,,,,,,
,,,,,,,66b39d642d5d3c9ab18111e8,682db44a8299fba01a2d57ee,2025-05-21_13h10.18.949,cuing_paradigm_dot,2024.1.5,Win32,59.88023952,682d556593cb38ad0a074487,,,,,,,,,,,154.1295,154.6291,,,154.8785,155.1962,left,,,,,,,,0.1,0.3077,,,,,,,154.6293,154.8784,155.1962,"[0.1480636457736946,0.05335432508020516]","[-1,-1,-1]","[0.07458905842476489,-0.05248150527438511]","[-1,-1,-1]","[0.0184199239767198,0.07581301721206005]","[-1,-1,-1]","[0.00963860837729569,-0.0041603965734383075]","[-1,-1,-1]","[0.0030994456077187878,-0.10247291467256808]","[-1,-1,-1]","[-0.1864806013315264,-0.029818536163843626]","[-1,-1,-1]","[-0.04869535370027405,0.13737788164609385]","[1,1,1]","[0.16550988611656797,0.015556099663824475]","[-1,-1,-1]","[-0.10828528871929861,-0.16218851076842064]","[-1,-1,-1]","[0.11530584130864961,0.14171009311696037]","[-1,-1,-1]","[-0.1382964048100212,0.057171311645693126]","[-1,-1,-1]","[0.1314001316280606,-0.07001833740368203]","[-1,-1,-1]","[0.08039772246465876,-0.11376244673978333]","[1,1,1]","[-0.11542278039038277,-0.009498629677315604]","[-1,-1,-1]","[-0.06657466900736077,0.08586809852414948]","[-1,-1,-1]","[0.10881610554971535,0.00555922369872764]","[-1,-1,-1]","[-0.032184838724365374,0.020384187430326828]","[-1,-1,-1]","[-0.06335536916085685,-0.09032435449619512]","[-1,-1,-1]","[-0.14503193420024132,-0.10464402211134274]","[-1,-1,-1]","[0.015481376369839409,0.1897923362078806]","[-1,-1,-1]","[-0.006378444256127856,0.1444154867180693]","[-1,-1,-1]","[0.06549719508826407,0.049750006101843394]","[-1,-1,-1]","[-0.1386149206143198,0.1250115051716279]","[-1,-1,-1]","[-0.09333179220009429,0.1412822475701069]","[-1,-1,-1]","[-0.09211396566370936,0.043907922163638605]","[-1,-1,-1]","[0.13595431309178965,-0.14007747410194693]","[1,1,1]","[-0.08303160581404428,-0.05207898740721972]","[-1,-1,-1]","[0.0357620183145395,-0.12858290922648186]","[-1,-1,-1]","[0.08219391271954628,-0.17439000428232146]","[-1,-1,-1]","[-0.03549830878285454,-0.04859595460641006]","[-1,-1,-1]","[0.17941017575242313,-0.06168735556145931]","[-1,-1,-1]","[0.032455594102680195,-0.07100123963194663]","[-1,-1,-1]","[0.02,0.02]",156.2948,0,20,20,7,1,,,,,,,
,,,,,,,66b39d642d5d3c9ab18111e8,682db44a8299fba01a2d57ee,2025-05-21_13h10.18.949,cuing_paradigm_dot,2024.1.5,Win32,59.88023952,682d556593cb38ad0a074487,,,,,,,,,,,156.2965,156.7852,,,157.0287,157.4116,right,,,,,,,,0.9,0.3695,,,,,,,156.7853,157.0287,157.4117,"[0.17744440824377267,0.06690527062247355]","[1,1,1]","[0.09820156028409062,-0.07819852122442635]","[1,1,1]","[-0.034527816250642676,-0.13643806295136043]","[1,1,1]","[0.10004598651372404,-0.16236264178154955]","[1,1,1]","[0.03029780484804166,-0.18638011886231381]","[1,1,1]","[0.18192114846291985,-0.012423013322451252]","[1,1,1]","[0.12058695758583685,-0.11984757384796473]","[-1,-1,-1]","[-0.009944395867313311,0.17801446836973095]","[1,1,1]","[0.11082028977769212,0.1530519491008438]","[1,1,1]","[0.16459148522128378,-0.10337290154916635]","[1,1,1]","[-0.04796385588602412,0.01318371546811784]","[-1,-1,-1]","[0.12311955322023209,-0.03974441820756267]","[1,1,1]","[-0.06068746714901026,0.1091612313293509]","[1,1,1]","[-0.0939381491301687,0.17464843656046672]","[1,1,1]","[0.11767955422556049,0.019836089124824]","[1,1,1]","[-0.12461368583122572,0.08097980780627649]","[1,1,1]","[0.0422716781634868,0.05599510494298627]","[-1,-1,-1]","[-0.019778074426899796,0.11741361273694227]","[1,1,1]","[-0.19463663962369013,-0.03169254364586341]","[1,1,1]","[0.06324614732025127,0.016294330325234023]","[1,1,1]","[-0.11414220809471684,-0.04959398290791985]","[1,1,1]","[0.014059384804649114,-0.01012081562198686]","[1,1,1]","[-0.16789159114846508,0.03379625236367228]","[1,1,1]","[0.10796140799908792,0.05957441105820112]","[1,1,1]","[-0.15993334044173893,0.10743721016347973]","[1,1,1]","[0.06752437337716731,0.1841063975044855]","[1,1,1]","[-0.08919348646215333,-0.11635432609539995]","[1,1,1]","[-0.04577831154664185,-0.19163328288948311]","[1,1,1]","[-0.07892887679469844,0.06405160441116943]","[1,1,1]","[0.0011343552643947935,-0.05782738931949842]","[1,1,1]","[-0.17569616457419004,-0.07852148176537534]","[1,1,1]","[0.022770871500737904,0.14868503825102344]","[1,1,1]","[0.02,0.02]",158.5127,0,21,21,199,1,,,,,,,
,,,,,,,66b39d642d5d3c9ab18111e8,682db44a8299fba01a2d57ee,2025-05-21_13h10.18.949,cuing_paradigm_dot,2024.1.5,Win32,59.88023952,682d556593cb38ad0a074487,,,,,,,,,,,158.5139,159.0126,,,159.2633,159.5965,right,,,,,,,,0.9,0.3176,,,,,,,159.0127,159.2633,159.5965,"[-0.12897455312852912,-0.00485803060965124]","[-1,-1,-1]","[0.02277707492165894,0.1151991859330813]","[1,1,1]","[0.11198404147816972,-0.07107460567285286]","[1,1,1]","[0.004225849811094882,0.009105507527507559]","[1,1,1]","[0.04629809904540409,-0.12951512440764773]","[-1,-1,-1]","[0.0043309920545425516,-0.11488879394705358]","[1,1,1]","[-0.047985013195557466,0.017687832899192978]","[1,1,1]","[0.1517182040316743,-0.12013759457928369]","[1,1,1]","[-0.04109531646937381,-0.03672970972279329]","[1,1,1]","[-0.05800689828448789,0.06457009497290181]","[1,1,1]","[0.17093059179096612,-0.009761425228112944]","[1,1,1]","[-0.025012659097724325,0.16115471824481106]","[1,1,1]","[-0.10339170317985878,-0.10447604483254078]","[1,1,1]","[0.14492187329785713,0.07710128315028542]","[1,1,1]","[0.037059865047309536,0.18614513969106947]","[1,1,1]","[-0.08324964678154648,0.1704065330553959]","[1,1,1]","[0.08680840755676432,0.1391487170213331]","[1,1,1]","[0.1355777048814469,0.11617427640653102]","[1,1,1]","[0.08646320443637197,0.023230492454242004]","[1,1,1]","[-0.1678209390998918,0.0683815017145476]","[1,1,1]","[-0.008104245423692633,-0.06884270040318688]","[1,1,1]","[-0.14181117048628322,-0.05969582404235782]","[-1,-1,-1]","[0.0961151758421523,-0.1678133341312527]","[1,1,1]","[0.05872356996001664,-0.07013531115091262]","[1,1,1]","[0.08611220851382351,-0.12163856017108533]","[1,1,1]","[0.1372037448264534,0.014010274298838235]","[1,1,1]","[-0.02261315979056754,-0.1840192399383378]","[1,1,1]","[-0.18522961980119027,-0.047710246262764364]","[1,1,1]","[-0.017344425787497512,0.10039314618817652]","[1,1,1]","[-0.043301603365133785,-0.12432218715970798]","[1,1,1]","[0.04587743952590556,0.039462701718718206]","[1,1,1]","[-0.154549098161767,0.10832547088624388]","[1,1,1]","[0.02,0.02]",160.6947,0,22,22,207,1,,,,,,,
,,,,,,,66b39d642d5d3c9ab18111e8,682db44a8299fba01a2d57ee,2025-05-21_13h10.18.949,cuing_paradigm_dot,2024.1.5,Win32,59.88023952,682d556593cb38ad0a074487,,,,,,,,,,,160.6951,161.1948,,,161.4148,162.1866,right,,,,,,,,0.5,0.7626,,,,,,,161.1948,161.4147,162.1868,"[0.0002999321648877165,-0.08441730057046569]","[1,1,1]","[0.06987645147420703,-0.10648842617294618]","[-1,-1,-1]","[-0.1494552725909301,0.1132968523480076]","[1,1,1]","[-0.1268429327049171,0.018408384613242536]","[1,1,1]","[-0.0927252899852907,0.08783647724237988]","[1,1,1]","[-0.025414427815657455,0.07809998759884294]","[-1,-1,-1]","[0.10687320034810643,0.16794855412070164]","[-1,-1,-1]","[-0.09052160783310961,-0.12647696740846598]","[-1,-1,-1]","[-0.03668906767165759,-0.026903733655447307]","[1,1,1]","[-0.012106990527763385,0.1950337666144693]","[1,1,1]","[-0.042646772281850404,-0.14384341682753848]","[-1,-1,-1]","[0.15827810182073704,-0.08507259872227532]","[-1,-1,-1]","[0.14351102094085058,0.12976629980875515]","[-1,-1,-1]","[0.05481623490828063,0.06050845009672975]","[1,1,1]","[0.08759400465134738,0.032811875722249945]","[-1,-1,-1]","[-0.0067295561735463754,0.004042347061706818]","[1,1,1]","[0.11731108112511007,-0.03831682662859198]","[-1,-1,-1]","[-0.15880900497340883,-0.06724343391332184]","[-1,-1,-1]","[-0.004481449740070452,0.13874039867433952]","[1,1,1]","[-0.11491951892573055,0.15250166277530988]","[-1,-1,-1]","[-0.03271436859093741,-0.1851810981053865]","[1,1,1]","[0.011366832525291581,0.10129018750518293]","[1,1,1]","[-0.07388307840798443,-0.04391285855150374]","[1,1,1]","[-0.043665154163158776,-0.07172756867053369]","[1,1,1]","[0.05808471572715546,-0.03367795933533696]","[1,1,1]","[-0.12533503142114538,-0.026316097115666775]","[-1,-1,-1]","[0.07957190009471325,-0.14790390065289397]","[-1,-1,-1]","[0.14435383684476036,0.00427809310812835]","[-1,-1,-1]","[0.1274530096293173,0.050333214047900414]","[-1,-1,-1]","[-0.14573107391667658,-0.12469236079858924]","[-1,-1,-1]","[-0.08880603363806121,0.03080251698368433]","[1,1,1]","[0.055127165676361216,0.1474615641130317]","[1,1,1]","[0.02,0.02]",163.2864,0,23,23,113,1,,,,,,,
,,,,,,,66b39d642d5d3c9ab18111e8,682db44a8299fba01a2d57ee,2025-05-21_13h10.18.949,cuing_paradigm_dot,2024.1.5,Win32,59.88023952,682d556593cb38ad0a074487,,,,,,,,,,,163.2883,163.7913,,,164.0383,164.5034,left,,,,,,,,0.45,0.4502,,,,,,,163.7914,164.0383,164.5035,"[0.0786153678272384,0.0511067621612075]","[1,1,1]","[-0.04418009142436089,0.17571687981426787]","[1,1,1]","[0.062079648287950505,0.15759009975012359]","[1,1,1]","[0.020793421984057193,0.1556743898824972]","[1,1,1]","[-0.193390869990859,0.01064046839623511]","[-1,-1,-1]","[-0.07764081034893563,0.08989374784802372]","[1,1,1]","[-0.13188396743616565,-0.13608585966487988]","[-1,-1,-1]","[-0.12752189601392347,0.08749120120326982]","[-1,-1,-1]","[0.13441571647759606,-0.1011160310509467]","[-1,-1,-1]","[0.18714455497553134,-0.005361999516486096]","[1,1,1]","[-0.03332462077055831,-0.1738474046330626]","[1,1,1]","[0.09196163444800479,-0.12862813809059123]","[1,1,1]","[-0.1341558400180366,-0.015119863428342862]","[1,1,1]","[0.00538398297927494,-0.04490040719910751]","[-1,-1,-1]","[0.1504705558780563,0.019039100108378115]","[1,1,1]","[-0.1614589897943313,0.03922251845269404]","[1,1,1]","[-0.02947746067927872,0.10724423038686459]","[1,1,1]","[0.09501418345348188,0.01258769208958001]","[-1,-1,-1]","[-0.10262128173510421,-0.07850506707630309]","[-1,-1,-1]","[0.07931248353303108,-0.031773470899567904]","[-1,-1,-1]","[-0.10252651557901177,0.016491496291366748]","[-1,-1,-1]","[-0.05728877144180424,0.011658114402319208]","[-1,-1,-1]","[-0.015070300092821683,0.016022910739077596]","[1,1,1]","[-0.1754548684129037,-0.04900378835252497]","[-1,-1,-1]","[0.14291113783092926,0.09704926505326403]","[-1,-1,-1]","[0.14788877151841248,-0.051055562857201614]","[-1,-1,-1]","[-0.15332205282684971,-0.08404608578059028]","[-1,-1,-1]","[0.1272374271908715,-0.15269701787495113]","[-1,-1,-1]","[-0.02994590903306223,-0.02260770325033136]","[-1,-1,-1]","[-0.008484838828493381,0.06597243985409228]","[1,1,1]","[-0.0460270781148235,-0.1210230650992183]","[-1,-1,-1]","[-0.08006100964475335,0.14040222293016633]","[-1,-1,-1]","[0.02,0.02]",165.5991,0,24,24,79,1,,,,,,,
,,,,,,,66b39d642d5d3c9ab18111e8,682db44a8299fba01a2d57ee,2025-05-21_13h10.18.949,cuing_paradigm_dot,2024.1.5,Win32,59.88023952,682d556593cb38ad0a074487,,,,,,,,,,,165.5999,166.1015,,,166.3529,167.1719,right,,,,,,,,0.45,0.8022,,,,,,,166.1016,166.3528,167.1722,"[0.10122124742772386,-0.050497953665384315]","[-1,-1,-1]","[-0.18993370941255172,-0.006382690273722191]","[-1,-1,-1]","[-0.15166931788784604,-0.0400947109301625]","[-1,-1,-1]","[0.047381732482091085,-0.03841680618223533]","[-1,-1,-1]","[0.08117400214619186,0.04900074178796849]","[-1,-1,-1]","[-0.071183985693652,0.13558500852810174]","[1,1,1]","[0.0745988387344601,-0.1605293656496445]","[1,1,1]","[-0.09337623658374464,-0.08921197143458187]","[1,1,1]","[0.01519049398956924,0.06265498665603302]","[-1,-1,-1]","[-0.12781015641340226,0.017403926198985238]","[-1,-1,-1]","[0.15786358930689998,-0.11337793372970004]","[1,1,1]","[-0.17817442910721878,-0.07695549199206968]","[1,1,1]","[0.18328155425029255,-0.06122582295115081]","[1,1,1]","[-0.11608770917599044,0.09372298375886585]","[-1,-1,-1]","[-0.14753211219148332,-0.11315776598695682]","[-1,-1,-1]","[0.06646661728159185,-0.0779555636385139]","[1,1,1]","[0.13712295242998157,0.08980773530877008]","[-1,-1,-1]","[-0.018871056180402617,-0.12180767939464526]","[1,1,1]","[-0.00993331501412266,0.10443754652914819]","[1,1,1]","[0.16439639915190282,-0.019030886217015926]","[1,1,1]","[0.024333331457356812,-0.15462884432136248]","[-1,-1,-1]","[-0.036266144589557334,0.011222710808471748]","[-1,-1,-1]","[-0.052035823510887286,0.09463512679532769]","[-1,-1,-1]","[-0.04718823755835975,-0.03815829456044784]","[1,1,1]","[-0.06419962498279835,-0.14044712717229177]","[-1,-1,-1]","[-0.18140448216420194,0.0759075268293632]","[-1,-1,-1]","[0.17640477332937707,0.05302407036180501]","[-1,-1,-1]","[-0.007319488007343425,-0.060176287355830006]","[-1,-1,-1]","[-0.008292884258161147,0.1548407303450029]","[-1,-1,-1]","[-0.1648248077365743,0.03471040634972097]","[1,1,1]","[-0.05120590022911406,0.18866249570305885]","[1,1,1]","[-0.10732759062068137,-0.0440887569263239]","[1,1,1]","[0.02,0.02]",168.2697,0,25,25,87,1,,,,,,,
,,,,,,,66b39d642d5d3c9ab18111e8,682db44a8299fba01a2d57ee,2025-05-21_13h10.18.949,cuing_paradigm_dot,2024.1.5,Win32,59.88023952,682d556593cb38ad0a074487,,,,,,,,,,,168.2711,168.7701,,,169.0218,169.6377,right,,,,,,,,0.55,0.6017,,,,,,,168.7701,169.0216,169.638,"[-0.05112719894380606,0.045558889414720534]","[1,1,1]","[-0.006030294159944937,0.09308262415870822]","[-1,-1,-1]","[0.08557960917498103,-0.10179387093505754]","[1,1,1]","[0.1721129775082713,-0.06191375064371696]","[1,1,1]","[0.037270034507332364,0.05588720456241879]","[1,1,1]","[-0.06880556105552312,-0.09028679725590517]","[-1,-1,-1]","[-0.015050536004804186,-0.13887663253585156]","[-1,-1,-1]","[-0.05801543705833466,-0.13049064118973536]","[1,1,1]","[-0.03753951165991911,0.17462576066003946]","[1,1,1]","[-0.1595255311451897,-0.015442949331854246]","[-1,-1,-1]","[-0.013045199711600562,-0.02797680089276602]","[-1,-1,-1]","[0.12399725054379153,-0.1568101596050436]","[1,1,1]","[0.17271209004342244,0.018572983744554388]","[1,1,1]","[0.08684143646642738,0.12882121300462585]","[-1,-1,-1]","[0.12317834799260734,0.01975052637478279]","[1,1,1]","[0.01390971797399533,0.19004752822784524]","[1,1,1]","[0.05723916113956539,0.1859078769175649]","[-1,-1,-1]","[-0.10568687782601911,-0.11313511525860989]","[1,1,1]","[-0.10887520116736511,-0.00621946330959894]","[-1,-1,-1]","[0.038682090868203206,-0.08402047728529759]","[1,1,1]","[-0.10175234931324763,0.1596064608720426]","[-1,-1,-1]","[-0.05759904196581207,-0.03507324948230178]","[-1,-1,-1]","[0.14363051215627576,-0.09418711985542438]","[-1,-1,-1]","[0.1126527346033876,-0.05064525965966526]","[1,1,1]","[-0.023124474995388843,-0.08837559717216568]","[-1,-1,-1]","[0.04288378156943532,-0.01976525758255559]","[1,1,1]","[0.10333426053354693,0.08448033525288447]","[1,1,1]","[-0.011315493446691706,0.030730564930627403]","[1,1,1]","[0.13452530000977356,0.13679245155117867]","[-1,-1,-1]","[-0.15418916511458916,-0.12085587858357467]","[1,1,1]","[-0.14189325758749677,0.1290710503558157]","[-1,-1,-1]","[0.020742542195944784,-0.19340998554279507]","[1,1,1]","[0.02,0.02]",170.7366,0,26,26,135,1,,,,,,,
,,,,,,,66b39d642d5d3c9ab18111e8,682db44a8299fba01a2d57ee,2025-05-21_13h10.18.949,cuing_paradigm_dot,2024.1.5,Win32,59.88023952,682d556593cb38ad0a074487,,,,,,,,,,,170.7382,171.2379,,,171.4887,171.8801,left,,,,,,,,0.45,0.3752,,,,,,,171.2382,171.4886,171.8802,"[-0.13507879235221085,0.13445342093901788]","[1,1,1]","[-0.11570245235624897,0.020048494774871518]","[-1,-1,-1]","[0.15860016300444038,0.11670970650386941]","[-1,-1,-1]","[-0.034641299214151704,-0.1740925120918524]","[1,1,1]","[-0.07366870447161536,-0.09216441240402874]","[-1,-1,-1]","[-0.020666508344332313,0.1672499347651255]","[1,1,1]","[0.013911441013314313,-0.037951810602044694]","[-1,-1,-1]","[0.09716087793573358,-0.019814334934874236]","[1,1,1]","[0.07656220355804252,-0.16030548827440327]","[-1,-1,-1]","[-0.07156322428585572,-0.051379278292159276]","[-1,-1,-1]","[-0.04177920699573521,-0.016718668834107418]","[-1,-1,-1]","[-0.12626300344641997,-0.0852190204357026]","[1,1,1]","[-0.11414557085814687,0.09818958252655703]","[1,1,1]","[0.05290186378735934,-0.0009066131379537062]","[-1,-1,-1]","[-0.10872971872630162,-0.1317982153511967]","[-1,-1,-1]","[0.04330414227350426,0.09927359815750499]","[-1,-1,-1]","[-0.082244603775319,0.16063135784080196]","[-1,-1,-1]","[0.15112767539331576,0.009364359298596981]","[-1,-1,-1]","[-0.16515613617613414,-0.06206193225705255]","[1,1,1]","[-0.031797264404152696,0.09991177358327807]","[1,1,1]","[-0.02110017636682375,-0.13405969233244525]","[1,1,1]","[-0.1727036026693578,0.04183292805862905]","[1,1,1]","[0.09395938138295931,-0.10168697040978064]","[1,1,1]","[0.19186498730813253,0.02200809238042287]","[-1,-1,-1]","[-0.17304819880049505,-0.02003025551855057]","[-1,-1,-1]","[0.08614696934766293,0.09155041789070242]","[-1,-1,-1]","[-0.0198729041758956,0.04164469548408364]","[-1,-1,-1]","[0.022276105214939994,-0.14656890593849656]","[-1,-1,-1]","[0.14103566343841176,-0.12906681231944356]","[1,1,1]","[0.163398482165895,-0.08344623764456105]","[-1,-1,-1]","[-0.07369385115359647,0.07858744956915473]","[1,1,1]","[0.15216727003398792,0.05510251985717046]","[1,1,1]","[0.02,0.02]",172.9799,0,27,27,82,1,,,,,,,
,,,,,,,66b39d642d5d3c9ab18111e8,682db44a8299fba01a2d57ee,2025-05-21_13h10.18.949,cuing_paradigm_dot,2024.1.5,Win32,59.88023952,682d556593cb38ad0a074487,,,,,,,,,,,172.9808,173.4797,,,173.7219,174.0518,right,,,,,,,,0.9,0.316,,,,,,,173.4798,173.7219,174.0519,"[-0.05598666791422598,0.10504165222124127]","[1,1,1]","[0.1330422178845321,-0.06250869205107648]","[1,1,1]","[-0.06924289571185183,0.15090127731597047]","[1,1,1]","[-0.16496030116356866,-0.029098864544210762]","[1,1,1]","[0.16352718880838155,-0.020279110404913335]","[1,1,1]","[0.11714149549282662,0.14558865633161192]","[1,1,1]","[0.048925671040503604,0.14938097470356138]","[1,1,1]","[-0.06768510390319588,-0.16927636783920574]","[1,1,1]","[0.10230268362004286,-0.16125136554081912]","[1,1,1]","[0.0011007203658444458,-0.07665081510475863]","[-1,-1,-1]","[-0.016491691295523643,-0.03353688617337855]","[1,1,1]","[-0.18464916766320244,0.07419045765622809]","[1,1,1]","[0.05910356595720429,-0.026896989478083923]","[1,1,1]","[-0.040666045095425415,0.05620230374196392]","[1,1,1]","[-0.13664299481263134,0.05512150823150728]","[-1,-1,-1]","[0.06420485137040005,-0.07332188300949877]","[1,1,1]","[-0.1338925961889228,-0.12580793717800792]","[-1,-1,-1]","[0.01817700579515839,-0.1556718533854084]","[1,1,1]","[0.09009794924354765,0.012728952968756127]","[1,1,1]","[-0.07429799649845961,-0.024388351570823703]","[1,1,1]","[-0.012714446964318801,0.19377580198915714]","[1,1,1]","[-0.02069975064563902,-0.12952907278550913]","[1,1,1]","[-0.1196272173546725,0.15758065536983157]","[1,1,1]","[0.18946823948058805,0.06031660180040855]","[1,1,1]","[-0.08977760100400652,-0.08006957113887483]","[1,1,1]","[0.09195431469800348,0.0672230782707159]","[1,1,1]","[-0.19602993186013473,0.03471047080976467]","[1,1,1]","[0.0719624496465872,-0.11758649811330178]","[1,1,1]","[-0.15231177146905747,0.12161990138416688]","[1,1,1]","[0.16290984141709192,0.11309637029009667]","[1,1,1]","[-0.007590621687060734,-0.18865414683181578]","[1,1,1]","[0.1235695839596955,-0.11604804701909222]","[1,1,1]","[0.02,0.02]",175.1487,0,28,28,203,1,,,,,,,
,,,,,,,66b39d642d5d3c9ab18111e8,682db44a8299fba01a2d57ee,2025-05-21_13h10.18.949,cuing_paradigm_dot,2024.1.5,Win32,59.88023952,682d556593cb38ad0a074487,,,,,,,,,,,175.1495,175.6513,,,175.9042,176.2532,right,,,,,,,,0.9,0.3339,,,,,,,175.6515,175.9041,176.2532,"[-0.13404198414076648,0.07428244661381887]","[1,1,1]","[-0.04043337996973814,0.11777910563212594]","[1,1,1]","[-0.01234642280375857,-0.149851264111991]","[1,1,1]","[0.14196591428388733,0.04047366978986715]","[1,1,1]","[-0.05601452164188933,0.17859100657694696]","[1,1,1]","[-0.19786537509995425,-0.017301980679727106]","[1,1,1]","[0.07202968293460119,0.01931523422419869]","[1,1,1]","[0.07506281944032071,-0.034974783541904114]","[-1,-1,-1]","[0.11940555394331902,-0.14048948029352704]","[1,1,1]","[-0.06481510285969803,-0.00955455374258784]","[1,1,1]","[0.1363754775969953,-0.07917235894393634]","[1,1,1]","[0.0508110816914991,-0.16359105598872128]","[1,1,1]","[-0.08424113741667746,0.13735377396070336]","[1,1,1]","[-0.07877026790004561,0.0676753598709169]","[1,1,1]","[0.03927865293692072,0.09320710104831469]","[1,1,1]","[0.007925684968978412,-0.19770835254483457]","[1,1,1]","[0.19972089861368653,0.0012891746466637017]","[1,1,1]","[-0.14995833925158428,-0.1312073539814665]","[1,1,1]","[0.09301755405706189,-0.0881106046869654]","[1,1,1]","[-0.019862678652923224,-0.051185758305360436]","[1,1,1]","[0.052115670871510276,0.17522988912148293]","[1,1,1]","[0.09047059851361645,0.14877411680077923]","[-1,-1,-1]","[-0.1166848116570096,-0.022621608181186345]","[1,1,1]","[-0.10800931569169779,-0.16487869615352765]","[1,1,1]","[0.1764393257473424,-0.06948792897017646]","[1,1,1]","[-0.12185190471493719,-0.07489002604397915]","[1,1,1]","[0.1611594464040511,0.09690683615835254]","[1,1,1]","[0.0024769662147239905,0.032794507249593985]","[1,1,1]","[-0.06715019894121575,-0.13321451023058736]","[1,1,1]","[0.07138252142474483,0.06934004636214942]","[1,1,1]","[-0.14609589004018939,0.11658855068159439]","[1,1,1]","[-0.015769005281563622,0.16847005389392594]","[-1,-1,-1]","[0.02,0.02]",177.3519,0,29,29,189,1,,,,,,,
,,,,,,,66b39d642d5d3c9ab18111e8,682db44a8299fba01a2d57ee,2025-05-21_13h10.18.949,cuing_paradigm_dot,2024.1.5,Win32,59.88023952,682d556593cb38ad0a074487,,,,,,,,,,,177.3534,177.8527,,,178.0948,178.4452,left,,,,,,,,0.45,0.3367,,,,,,,177.8528,178.0948,178.4454,"[-0.02725214000741849,-0.09903452270364355]","[1,1,1]","[-0.03281319721590746,0.04974391590300375]","[-1,-1,-1]","[-0.12505254006612745,0.11575390323272355]","[-1,-1,-1]","[-0.1721081972896614,0.0656673658546686]","[-1,-1,-1]","[-0.0015567512603807145,0.17465167364881187]","[-1,-1,-1]","[0.13556934890863426,0.05116042222652536]","[1,1,1]","[0.08413335612065664,-0.05800399757826728]","[-1,-1,-1]","[0.15957303262812103,-0.03085945176254351]","[-1,-1,-1]","[0.035276575684569836,0.05083540049832638]","[1,1,1]","[0.008053901083525428,-0.07612846919310778]","[-1,-1,-1]","[-0.06478981616784753,0.11412844741613609]","[1,1,1]","[-0.1658065673375232,-0.032151550083013784]","[1,1,1]","[-0.08076474538113085,-0.04358612391373888]","[-1,-1,-1]","[-0.015358951358331345,-0.19210113384191127]","[-1,-1,-1]","[-0.17474291735733186,0.020609339337930604]","[-1,-1,-1]","[0.03167406719478799,-0.024785272423722284]","[1,1,1]","[-0.147681749637285,-0.13250061603156504]","[1,1,1]","[0.14474949533073286,0.12870398716448694]","[-1,-1,-1]","[0.08875186710523078,-0.14301160604138546]","[-1,-1,-1]","[-0.10178067174928579,0.008357851970869036]","[-1,-1,-1]","[0.08103400308365082,0.021402843684385053]","[1,1,1]","[-0.16727567175848918,-0.08456661476195362]","[-1,-1,-1]","[0.09376864794254954,0.09194411852931153]","[-1,-1,-1]","[0.07147374348536897,-0.1835591746061664]","[-1,-1,-1]","[0.17023411352936363,-0.09884453076384149]","[1,1,1]","[0.06355742811776902,0.1815899732744844]","[1,1,1]","[0.0634172209331623,0.11809781545389224]","[1,1,1]","[-0.10419492157196884,0.07921884418913781]","[1,1,1]","[-0.011236808246762313,0.11437257834950929]","[1,1,1]","[-0.0027695082015154657,-0.000050707672110450276]","[-1,-1,-1]","[-0.048018022822388345,-0.008772622144221925]","[-1,-1,-1]","[-0.058246838906643755,-0.17262627770606273]","[1,1,1]","[0.02,0.02]",179.5447,0,30,30,88,1,,,,,,,
,,,,,,,66b39d642d5d3c9ab18111e8,682db44a8299fba01a2d57ee,2025-05-21_13h10.18.949,cuing_paradigm_dot,2024.1.5,Win32,59.88023952,682d556593cb38ad0a074487,,,,,,,,,,,179.5462,180.0445,,,180.2956,181.0127,right,,,,,,,,0.55,0.7016,,,,,,,180.0446,180.2956,181.0128,"[-0.04435316535170162,-0.12597520097429343]","[-1,-1,-1]","[0.11761188311472363,0.021360009184208894]","[-1,-1,-1]","[0.1526348256116563,0.06690298215356484]","[-1,-1,-1]","[0.11652323039395007,-0.0863863179373984]","[1,1,1]","[-0.04555703468043213,0.15274322139122945]","[1,1,1]","[0.07524810339405263,-0.0842699641915541]","[-1,-1,-1]","[0.06784976519022994,0.09282828649852207]","[1,1,1]","[-0.0679814502556327,-0.17734579995655578]","[-1,-1,-1]","[-0.0074508464420861955,0.04656037541458322]","[1,1,1]","[0.03863876743094843,-0.0011901197822010068]","[1,1,1]","[-0.08909300021391559,0.09726854833583529]","[-1,-1,-1]","[0.11020038233384834,0.07965066699131523]","[1,1,1]","[-0.005711983486255173,-0.0059390369639029505]","[1,1,1]","[0.006621005786524983,0.1534645461418968]","[1,1,1]","[-0.166539606212417,-0.04276492164077427]","[-1,-1,-1]","[0.0017507621206893473,-0.05263193260005409]","[-1,-1,-1]","[-0.08641277202058298,0.05474214775475191]","[1,1,1]","[-0.10454116918592696,-0.08024074262050034]","[-1,-1,-1]","[-0.04939490267982642,0.07321870691446997]","[-1,-1,-1]","[0.18450837328477512,-0.03773518415257029]","[-1,-1,-1]","[0.05602433762110455,-0.1728693150549856]","[1,1,1]","[0.07173622836927071,0.1560476608401372]","[1,1,1]","[-0.05314850260845993,0.027769610142611447]","[-1,-1,-1]","[0.09911680206110424,-0.14054018972036728]","[1,1,1]","[-0.10999017079639724,-0.12514642881068525]","[1,1,1]","[0.0017670217613401935,-0.17123266495747977]","[1,1,1]","[0.15283431348274365,-0.008750048626880124]","[1,1,1]","[-0.08568098272780299,-0.04466059736318623]","[-1,-1,-1]","[-0.14159133359485956,-0.001926269397751035]","[1,1,1]","[-0.03662543582857634,-0.0805823329387818]","[1,1,1]","[0.11783092323923314,0.13388050787102693]","[-1,-1,-1]","[0.1817838384413269,0.019576803992134507]","[1,1,1]","[0.02,0.02]",182.1117,0,31,31,142,1,,,,,,,
,,,,,,,66b39d642d5d3c9ab18111e8,682db44a8299fba01a2d57ee,2025-05-21_13h10.18.949,cuing_paradigm_dot,2024.1.5,Win32,59.88023952,682d556593cb38ad0a074487,,,,,,,,,,,182.1131,182.6118,,,182.8544,183.2865,right,,,,,,,,0.9,0.4166,,,,,,,182.6119,182.8543,183.2865,"[0.01558797351699726,0.027389091628325913]","[1,1,1]","[-0.04344539176230687,0.10977310939036172]","[1,1,1]","[0.1219722490926368,0.15058523656998724]","[1,1,1]","[-0.07122219774986295,0.13986706519063158]","[1,1,1]","[-0.10001519197468253,-0.04228726314172629]","[-1,-1,-1]","[-0.08859609462426081,-0.14521450845682649]","[1,1,1]","[0.09860826901558759,-0.06679646517768012]","[1,1,1]","[-0.14810815639099886,0.1205994746930745]","[1,1,1]","[0.12954948248002407,0.047169028730371515]","[1,1,1]","[-0.15430594795010574,0.051139838340910994]","[-1,-1,-1]","[0.03157116171913167,-0.027828859714110532]","[1,1,1]","[-0.08086910710431426,-0.08856510195370591]","[1,1,1]","[-0.16864788154828306,-0.06250979695406186]","[1,1,1]","[0.09502034183761372,0.0704644757871932]","[1,1,1]","[-0.017102443908493036,-0.050528746321371214]","[1,1,1]","[0.10523719059876842,-0.11172279220535158]","[-1,-1,-1]","[-0.04782422138403415,-0.00534031804684411]","[1,1,1]","[0.05962510511824795,0.09629147400960342]","[1,1,1]","[-0.003915425775093348,0.1355527210339614]","[1,1,1]","[-0.16636677596978286,-0.01895680215907573]","[1,1,1]","[0.013568276828572404,-0.09652842784429815]","[1,1,1]","[-0.02647513249880238,0.04566239551232941]","[1,1,1]","[0.04854685632764345,0.16145523780954038]","[1,1,1]","[-0.056008655424084196,-0.18899333466415022]","[1,1,1]","[-0.11503515284935471,0.028903588278946575]","[1,1,1]","[0.07975598540405239,0.1323223954782316]","[1,1,1]","[-0.0038231283534718085,-0.13854764817989074]","[1,1,1]","[0.08866967458135586,-0.17569137861752915]","[1,1,1]","[-0.136131404692953,-0.13458378011214556]","[1,1,1]","[0.06150162586360905,-0.13530107735212948]","[1,1,1]","[0.18523372294956728,-0.06427268348960807]","[1,1,1]","[0.1859228741477129,0.04500380756562599]","[1,1,1]","[0.02,0.02]",184.387,0,32,32,195,1,,,,,,,
,,,,,,,66b39d642d5d3c9ab18111e8,682db44a8299fba01a2d57ee,2025-05-21_13h10.18.949,cuing_paradigm_dot,2024.1.5,Win32,59.88023952,682d556593cb38ad0a074487,,,,,,,,,,,184.3883,184.8865,,,185.1288,185.848,right,,,,,,,,0.6,0.7102,,,,,,,184.8866,185.1288,185.8481,"[-0.003435705389223522,-0.18898229863181099]","[-1,-1,-1]","[0.06915107948812371,0.17009337928763718]","[1,1,1]","[0.12202188710225241,0.15237539059781766]","[-1,-1,-1]","[0.10913634045451774,-0.07107212752511582]","[1,1,1]","[-0.06635582049380699,0.15586332571833586]","[1,1,1]","[0.1516654600240064,0.11957096917706672]","[-1,-1,-1]","[0.040407415607824224,0.035972476925930204]","[1,1,1]","[-0.05141903884343289,0.09869065330103519]","[1,1,1]","[-0.025396056441791486,0.06741031314794849]","[-1,-1,-1]","[0.0486596431955397,-0.058662494469079014]","[-1,-1,-1]","[-0.07625827247169716,-0.15443583981035]","[-1,-1,-1]","[0.04568386369736763,-0.10155660031362425]","[1,1,1]","[-0.09585560367358874,0.00863152577266519]","[-1,-1,-1]","[-0.0559416083678092,0.03218029369822991]","[1,1,1]","[0.1675962862754573,-0.08559485345819821]","[-1,-1,-1]","[0.0928338250660426,0.001380477602686294]","[-1,-1,-1]","[0.13423506924117617,-0.14430999043263423]","[-1,-1,-1]","[0.030325093943009702,0.1382856151061206]","[1,1,1]","[0.04509029701888588,0.0874481388628424]","[1,1,1]","[-0.053737094064568496,-0.10762558157647843]","[1,1,1]","[0.15219811996857097,0.0723615718646938]","[1,1,1]","[-0.02161337527609249,-0.01743823191751856]","[1,1,1]","[0.07420149568342031,-0.14608622268669696]","[-1,-1,-1]","[-0.1258584869293136,0.045205037064713655]","[1,1,1]","[-0.09740612836189329,-0.10625855291450363]","[-1,-1,-1]","[0.03587999545016861,0.19449725213585495]","[1,1,1]","[-0.04451291136771636,-0.05556730185894741]","[1,1,1]","[-0.1818848663275409,0.011386721288059292]","[1,1,1]","[-0.14425820783795545,-0.07764161767443065]","[1,1,1]","[0.1894989428501516,0.02695762943322215]","[1,1,1]","[-0.18771708686081207,-0.03433122773422447]","[1,1,1]","[0.095576994529104,0.08639057067032539]","[-1,-1,-1]","[0.02,0.02]",186.946,0,33,33,175,1,,,,,,,
,,,,,,,66b39d642d5d3c9ab18111e8,682db44a8299fba01a2d57ee,2025-05-21_13h10.18.949,cuing_paradigm_dot,2024.1.5,Win32,59.88023952,682d556593cb38ad0a074487,,,,,,,,,,,186.9467,187.4463,,,187.6967,188.1622,left,,,,,,,,0.5,0.4491,,,,,,,187.4463,187.6966,188.1623,"[-0.13417935167706235,-0.027100730766569495]","[-1,-1,-1]","[-0.04474755275021545,0.11788826000638289]","[-1,-1,-1]","[0.13988426823209738,0.04161105815210764]","[1,1,1]","[-0.15485504396643615,0.009494993532850202]","[-1,-1,-1]","[0.01829826392109844,-0.12651796589668504]","[1,1,1]","[0.16686025330357265,-0.01581282842611041]","[-1,-1,-1]","[0.08160810623073991,0.03780916493409235]","[1,1,1]","[-0.10456067688058665,0.06697939457363052]","[1,1,1]","[0.022674137135703085,0.020517577825671134]","[-1,-1,-1]","[0.06882231724505197,-0.028969000142801987]","[1,1,1]","[-0.15213202278554797,-0.07661050092676408]","[1,1,1]","[-0.10233655247746327,0.02400937771674647]","[-1,-1,-1]","[-0.08033387115298729,-0.011619162570342494]","[1,1,1]","[-0.14807751454147472,0.08031848330309255]","[1,1,1]","[0.17424254880284232,0.08829140522293133]","[1,1,1]","[-0.09797803919681514,-0.11475080953943093]","[1,1,1]","[0.06666551949267394,0.1294424518656901]","[1,1,1]","[-0.015363666420525163,-0.05489150456858531]","[-1,-1,-1]","[-0.053082968462648414,-0.1696123989061091]","[-1,-1,-1]","[-0.059014721962588806,-0.12717259696434607]","[-1,-1,-1]","[0.12526709737903371,0.1355766898988451]","[1,1,1]","[0.09399779643071109,0.16589765508092258]","[-1,-1,-1]","[-0.19106443880461169,-0.03555058642374726]","[-1,-1,-1]","[0.12729336634854777,-0.07513017016393705]","[1,1,1]","[0.028191440093883982,-0.1923708575457543]","[-1,-1,-1]","[-0.10043647089037211,0.13020650545472334]","[1,1,1]","[0.10287818381671204,0.08379900867890924]","[1,1,1]","[-0.080767268852674,-0.05428094790232362]","[-1,-1,-1]","[-0.0070160658950821,0.08296458483458692]","[-1,-1,-1]","[-0.09306645621513653,-0.16316267758301523]","[1,1,1]","[0.18890842735441005,0.028299375697529036]","[-1,-1,-1]","[0.0843656331283838,-0.0962125762580647]","[-1,-1,-1]","[0.02,0.02]",189.263,0,34,34,102,1,,,,,,,
,,,,,,,66b39d642d5d3c9ab18111e8,682db44a8299fba01a2d57ee,2025-05-21_13h10.18.949,cuing_paradigm_dot,2024.1.5,Win32,59.88023952,682d556593cb38ad0a074487,,,,,,,,,,,189.2638,189.7634,,,190.0115,190.4628,left,,,,,,,,0.45,0.4352,,,,,,,189.7635,190.0114,190.4629,"[-0.04277858537072137,0.13218971639596017]","[-1,-1,-1]","[0.1629013384811116,-0.05058459753137437]","[1,1,1]","[0.06683836362842192,-0.0502179954684402]","[-1,-1,-1]","[-0.08464554013613138,-0.0975913120625471]","[1,1,1]","[0.055452340431079536,0.15957778612176052]","[1,1,1]","[0.01935410560376107,-0.17670067832069372]","[1,1,1]","[-0.05353198714332971,0.030899737245045536]","[-1,-1,-1]","[0.03657196101948284,0.03699861150918461]","[-1,-1,-1]","[-0.11518403057299062,-0.044725979938078794]","[-1,-1,-1]","[-0.03895915289633109,-0.1504752409567864]","[1,1,1]","[0.03420838480724299,0.11649276898200152]","[-1,-1,-1]","[0.1340336320915459,-0.11544530191170187]","[1,1,1]","[0.11045947957961016,0.1596514322922716]","[1,1,1]","[-0.1279354786832241,0.06644966282839437]","[1,1,1]","[-0.06225511792655818,-0.050874671176609376]","[-1,-1,-1]","[-0.1432130101839841,0.023937724650499724]","[-1,-1,-1]","[-0.12224169501016482,0.14867063390649932]","[-1,-1,-1]","[0.03970389775959194,-0.11907378189749772]","[-1,-1,-1]","[-0.13091245220042577,-0.09764356033166036]","[1,1,1]","[-0.1631938562785712,-0.023296440189469202]","[1,1,1]","[0.15833690676861054,0.03669081538489578]","[-1,-1,-1]","[0.16030834935642296,0.07965211886444949]","[-1,-1,-1]","[-0.0025112148087803985,-0.06345083093366402]","[-1,-1,-1]","[0.09937427734424144,0.01026440955809019]","[-1,-1,-1]","[0.10596126647300279,0.1085498236354043]","[-1,-1,-1]","[-0.008936626246781735,0.1961072719109322]","[-1,-1,-1]","[0.08911563640968735,-0.17692596613580824]","[1,1,1]","[-0.15643509642135398,0.11285002081631439]","[1,1,1]","[-0.07839642521395059,-0.18043594930965418]","[1,1,1]","[0.018722892362478216,-0.008794608359838276]","[-1,-1,-1]","[-0.0021961547723811274,-0.11714699120496876]","[1,1,1]","[-0.05429819937583558,0.09145153881134638]","[-1,-1,-1]","[0.02,0.02]",191.5614,0,35,35,67,1,,,,,,,
,,,,,,,66b39d642d5d3c9ab18111e8,682db44a8299fba01a2d57ee,2025-05-21_13h10.18.949,cuing_paradigm_dot,2024.1.5,Win32,59.88023952,682d556593cb38ad0a074487,,,,,,,,,,,191.5628,192.0618,,,192.3122,193.0451,left,,,,,,,,0.5,0.7184,,,,,,,192.062,192.3121,193.0451,"[0.14838945280544333,0.00036984081592029126]","[1,1,1]","[0.11018658978325008,0.09664986921864951]","[-1,-1,-1]","[-0.021237395529363816,-0.13631708433593615]","[-1,-1,-1]","[-0.16740620046061586,0.028521342976555293]","[1,1,1]","[0.004124788458522153,0.17894892926827324]","[-1,-1,-1]","[0.053877330238735706,-0.16369254400458802]","[-1,-1,-1]","[0.12569087517615618,-0.10620001612364209]","[-1,-1,-1]","[0.10596678924311086,0.15982711042505443]","[-1,-1,-1]","[-0.01028600602223508,-0.18212014605437077]","[1,1,1]","[-0.10805970139476483,-0.14752748712535949]","[1,1,1]","[-0.028753357177683216,0.10367357453998134]","[1,1,1]","[0.054407408053936575,-0.1123742899669298]","[-1,-1,-1]","[0.09589852694162584,-0.1564775381977861]","[-1,-1,-1]","[-0.14102821124364345,-0.003471097411336279]","[1,1,1]","[-0.012932148849105684,-0.06664919290608462]","[1,1,1]","[0.10685254617577383,-0.04415000310417137]","[1,1,1]","[0.044081023410712045,-0.045297675887660635]","[-1,-1,-1]","[-0.02794623707300732,0.05303049388529879]","[-1,-1,-1]","[-0.11297707949479034,0.11630959424987317]","[1,1,1]","[-0.09567306309060687,-0.066988223347196]","[-1,-1,-1]","[-0.16633592864810082,-0.05748370154216368]","[1,1,1]","[-0.17061006277350924,0.08984222331735225]","[-1,-1,-1]","[-0.0027659719107259646,-0.00013428616621815516]","[-1,-1,-1]","[0.14425896807164254,0.049059844348426626]","[1,1,1]","[0.009951900424958887,0.0864561188663997]","[-1,-1,-1]","[0.16565323208104737,-0.046774700089677185]","[1,1,1]","[-0.06904056765867683,-0.18398072996620188]","[-1,-1,-1]","[0.06566553124622783,0.14283662743559772]","[1,1,1]","[0.0714932899479795,0.03773555992297171]","[1,1,1]","[-0.044747048444703084,0.19115763560719243]","[-1,-1,-1]","[-0.060667199809144576,-0.01428035998927205]","[1,1,1]","[-0.033527479182471176,0.152082998941752]","[1,1,1]","[0.02,0.02]",194.1453,0,36,36,116,1,,,,,,,
,,,,,,,66b39d642d5d3c9ab18111e8,682db44a8299fba01a2d57ee,2025-05-21_13h10.18.949,cuing_paradigm_dot,2024.1.5,Win32,59.88023952,682d556593cb38ad0a074487,,,,,,,,,,,194.1469,194.6448,,,194.8967,195.3827,right,,,,,,,,0.6,0.4777,,,,,,,194.6449,194.8967,195.3828,"[0.09486349390774838,0.16887898421018124]","[1,1,1]","[-0.0579260458396676,-0.036988764340095605]","[1,1,1]","[0.18022811564472876,-0.0006964812677440773]","[1,1,1]","[0.026235827557062837,0.13817173871205765]","[-1,-1,-1]","[-0.1670584289660093,0.009850373360627863]","[1,1,1]","[0.09436387157853779,-0.026982256453404557]","[1,1,1]","[-0.1603090371308774,-0.0642683931212967]","[1,1,1]","[-0.03863309244693212,0.17584834516330441]","[1,1,1]","[0.12866025439507292,-0.12697327593883156]","[-1,-1,-1]","[0.032810033814915415,0.06865342526441369]","[-1,-1,-1]","[-0.10967475399272486,-0.022571930821404452]","[1,1,1]","[-0.07229834671853778,0.01799526102107412]","[-1,-1,-1]","[0.055566227821539506,0.010205058472716574]","[1,1,1]","[-0.10447219863989414,0.05215986188546003]","[-1,-1,-1]","[0.0545740526861075,-0.08048926636661181]","[-1,-1,-1]","[-0.07167194788939729,0.12322071358892918]","[1,1,1]","[-0.06357758275926988,-0.14438645120852167]","[1,1,1]","[-0.09322657615324996,-0.10514722403031451]","[-1,-1,-1]","[0.11145841453795194,-0.06595704771583419]","[-1,-1,-1]","[-0.1438198893721846,-0.12830721713257603]","[1,1,1]","[0.13797977278243626,0.13353749302907503]","[-1,-1,-1]","[0.16571058053382298,-0.10605477941934786]","[1,1,1]","[0.0006493715225297409,-0.07812278411858159]","[1,1,1]","[0.0878072539467675,0.12227493387144067]","[1,1,1]","[-0.16450622498215195,0.10305211333430335]","[1,1,1]","[0.09728509642409003,0.06886863536535995]","[-1,-1,-1]","[0.07779167743628077,-0.1491176701429943]","[1,1,1]","[-0.003837804855842055,0.0012001631596892605]","[-1,-1,-1]","[0.18381763430497478,0.06884439550127838]","[-1,-1,-1]","[-0.1202237126108629,0.1488954404357905]","[-1,-1,-1]","[0.1578533935153573,0.034695005126217225]","[1,1,1]","[-0.14666417652496908,0.046331816140969824]","[1,1,1]","[0.02,0.02]",196.4793,0,37,37,152,1,,,,,,,
,,,,,,,66b39d642d5d3c9ab18111e8,682db44a8299fba01a2d57ee,2025-05-21_13h10.18.949,cuing_paradigm_dot,2024.1.5,Win32,59.88023952,682d556593cb38ad0a074487,,,,,,,,,,,196.48,196.9793,,,197.2285,197.7952,right,,,,,,,,0.1,0.5527,,,,,,,196.9795,197.2285,197.7954,"[0.12887287289286928,0.12085418289890701]","[-1,-1,-1]","[0.16489088076945385,-0.07873607271167267]","[-1,-1,-1]","[-0.08047708099076083,0.15424704653129187]","[-1,-1,-1]","[0.14879986524874494,0.06251343001306757]","[-1,-1,-1]","[0.19102907737217997,-0.01714716322593981]","[-1,-1,-1]","[-0.17367871078857186,0.06754681397822987]","[1,1,1]","[0.16238289247186463,0.024410242068463053]","[1,1,1]","[0.10594084610616347,0.014172797729159015]","[-1,-1,-1]","[-0.15245176891841614,-0.057861608451488154]","[-1,-1,-1]","[0.10034208133077702,0.14949152034828875]","[-1,-1,-1]","[-0.11176704884165768,-0.00828584211639567]","[-1,-1,-1]","[0.019553170055972843,0.16080023954847433]","[-1,-1,-1]","[-0.060677092294581465,-0.07825861935997092]","[-1,-1,-1]","[0.02475901084476641,-0.17056745185321406]","[-1,-1,-1]","[0.053376943531915945,0.08667975700238824]","[-1,-1,-1]","[0.032658699493519565,-0.05173114300251767]","[-1,-1,-1]","[-0.018086487966781212,-0.15687169335683968]","[-1,-1,-1]","[-0.13582097186010006,0.0877838186602587]","[-1,-1,-1]","[0.11327131569766252,-0.1571778973310238]","[-1,-1,-1]","[0.11144261897788053,-0.11413923906596325]","[-1,-1,-1]","[-0.07264212486155036,0.017079834938736185]","[-1,-1,-1]","[-0.08132681890541957,0.10102714513191527]","[-1,-1,-1]","[0.06701699704131985,-0.0726815724210018]","[-1,-1,-1]","[0.03305030910466798,0.036435546484132]","[-1,-1,-1]","[0.06554438854953437,-0.17936349248207173]","[-1,-1,-1]","[-0.02350943816938115,0.14594206352510145]","[-1,-1,-1]","[-0.139287127332443,0.027859386224777655]","[-1,-1,-1]","[-0.09333353431876595,-0.17399865694023028]","[-1,-1,-1]","[0.062119583958194266,0.1808096987372243]","[-1,-1,-1]","[-0.00833604039778542,0.09740650015527369]","[-1,-1,-1]","[0.11891341113995957,-0.0727488702415252]","[1,1,1]","[-0.10229880695922391,-0.10984313351117023]","[-1,-1,-1]","[0.02,0.02]",198.8951,0,38,38,4,1,,,,,,,
,,,,,,,66b39d642d5d3c9ab18111e8,682db44a8299fba01a2d57ee,2025-05-21_13h10.18.949,cuing_paradigm_dot,2024.1.5,Win32,59.88023952,682d556593cb38ad0a074487,,,,,,,,,,,198.8971,199.3942,,,199.6451,199.9953,right,,,,,,,,0.1,0.3405,,,,,,,199.3942,199.645,199.9955,"[-0.0131885391476187,0.024297953160920493]","[-1,-1,-1]","[-0.12224006884617299,0.10751738929338388]","[-1,-1,-1]","[-0.010971658705975579,-0.08742042821726513]","[-1,-1,-1]","[0.11244482717817869,0.13558387881864137]","[-1,-1,-1]","[-0.06450766841603577,-0.18033475229060517]","[-1,-1,-1]","[0.07556791008501092,0.15549608092149905]","[1,1,1]","[0.15311283460167777,0.06638640626752738]","[-1,-1,-1]","[0.003092950743127095,0.09428918166756688]","[-1,-1,-1]","[0.19675323572327458,-0.009917426793733914]","[-1,-1,-1]","[-0.156134520430232,-0.024122168605686774]","[-1,-1,-1]","[0.14478649952863776,-0.08805143839443696]","[1,1,1]","[0.002109136329096813,-0.1408305250321149]","[-1,-1,-1]","[-0.014590027133926355,0.15932528560223957]","[-1,-1,-1]","[-0.06281606842998254,0.09886836040010594]","[-1,-1,-1]","[-0.052375632137887596,-0.029587097316481355]","[-1,-1,-1]","[0.04882803054172967,-0.00641556142910486]","[-1,-1,-1]","[-0.156682821942487,0.03967480403250285]","[-1,-1,-1]","[0.029063823654984333,-0.18385616671603305]","[-1,-1,-1]","[0.08460186772048951,0.0344908443497176]","[-1,-1,-1]","[-0.19594648540671705,0.025973017227079575]","[-1,-1,-1]","[0.10925170853059982,0.09240033758692988]","[-1,-1,-1]","[0.03873217089371435,0.19176253915138305]","[1,1,1]","[0.029022263020256015,0.0630208390464763]","[-1,-1,-1]","[0.0335325693313579,-0.0661313582267809]","[-1,-1,-1]","[-0.11676276553327715,-0.15429103598307628]","[-1,-1,-1]","[0.16077666921756123,0.010670197975636774]","[-1,-1,-1]","[-0.057260890636911574,0.14866330171524889]","[-1,-1,-1]","[0.18053753573964157,-0.05313165251998496]","[-1,-1,-1]","[0.08572262365407277,-0.05551580346398367]","[-1,-1,-1]","[-0.09509768166460426,-0.0004844794775531823]","[-1,-1,-1]","[0.025712566177422718,0.15106656028157744]","[-1,-1,-1]","[0.0956303173806674,-0.154560677119732]","[-1,-1,-1]","[0.02,0.02]",201.0943,0,39,39,20,1,,,,,,,
,,,,,,,66b39d642d5d3c9ab18111e8,682db44a8299fba01a2d57ee,2025-05-21_13h10.18.949,cuing_paradigm_dot,2024.1.5,Win32,59.88023952,682d556593cb38ad0a074487,,,,,,,,,,,201.0952,201.5951,,,201.8374,202.8379,right,,,,,,,,0.4,0.9851,,,,,,,201.5951,201.8373,202.8381,"[0.005018349146365278,-0.18118417052757235]","[1,1,1]","[-0.12471879985260877,0.13727268525215672]","[1,1,1]","[-0.1526280087551302,-0.03814433294639266]","[1,1,1]","[-0.07460678440619176,0.014241962680372254]","[-1,-1,-1]","[0.1133865951574,-0.1358441775971909]","[-1,-1,-1]","[-0.11194349305275586,-0.1425848490506617]","[1,1,1]","[-0.09601614556720699,-0.05873654924082348]","[-1,-1,-1]","[-0.009631456570071218,-0.03180503273055722]","[-1,-1,-1]","[0.15844494905712883,-0.10793959927787979]","[-1,-1,-1]","[-0.03873241696812337,-0.18558260793033968]","[-1,-1,-1]","[-0.11870961185055781,0.023309723784266653]","[-1,-1,-1]","[0.03607588250340358,0.04415568392966568]","[-1,-1,-1]","[-0.16005386624213153,-0.09065394174106377]","[1,1,1]","[0.08374234108569996,-0.02756623320394098]","[1,1,1]","[0.1389371527156276,0.062444783808644516]","[-1,-1,-1]","[0.012825766504916137,0.00837782870052789]","[1,1,1]","[0.02610994527802139,0.14267971787299438]","[1,1,1]","[-0.16077068855049673,0.04475738034075439]","[-1,-1,-1]","[0.06546629277163192,0.12961332481853904]","[1,1,1]","[0.035618900397053045,0.08928101140968653]","[-1,-1,-1]","[0.12486588498066323,0.14644612863377127]","[-1,-1,-1]","[0.1201912622565168,0.0003295187775679109]","[-1,-1,-1]","[-0.16953413807552772,0.10228647990177635]","[-1,-1,-1]","[0.03894744204757071,0.1852057770748194]","[1,1,1]","[-0.0630371119062155,-0.13703297622446675]","[-1,-1,-1]","[-0.06859865761949982,0.08997328232956552]","[-1,-1,-1]","[-0.0407094482069992,0.15462538493280434]","[1,1,1]","[0.11104633989705077,0.09362248946932827]","[1,1,1]","[0.013566517463441261,-0.08501515143876164]","[-1,-1,-1]","[0.10670320064884577,-0.07145814766437134]","[-1,-1,-1]","[0.1694644353949323,-0.03356921931629872]","[1,1,1]","[-0.0711899721620744,0.18369887245132596]","[-1,-1,-1]","[0.02,0.02]",203.935,0,40,40,36,1,,,,,,,
,,,,,,,66b39d642d5d3c9ab18111e8,682db44a8299fba01a2d57ee,2025-05-21_13h10.18.949,cuing_paradigm_dot,2024.1.5,Win32,59.88023952,682d556593cb38ad0a074487,,,,,,,,,,,203.9363,204.4349,,,204.6789,205.563,right,,,,,,,,0.5,0.8697,,,,,,,204.4349,204.6789,205.563,"[0.015891373866471208,-0.08941768621560503]","[1,1,1]","[-0.06266904256188105,0.03958389055690509]","[-1,-1,-1]","[-0.016932766878056636,-0.020977242104390052]","[1,1,1]","[0.08136842611987001,-0.11291588320756873]","[-1,-1,-1]","[0.125712045825711,-0.0696885330534474]","[-1,-1,-1]","[-0.015923352470195395,-0.11703021388529919]","[1,1,1]","[-0.10134081647615498,-0.0017909902204957641]","[1,1,1]","[-0.003497295569948534,0.027804050041296484]","[1,1,1]","[0.014513650199142107,0.08079178765025873]","[-1,-1,-1]","[-0.0817817315323326,-0.11117957962492395]","[1,1,1]","[-0.11544537599866621,0.14952818461221315]","[-1,-1,-1]","[-0.005213204738617121,-0.173560048811991]","[-1,-1,-1]","[0.034552988243875496,-0.006720730032514313]","[-1,-1,-1]","[-0.09115255162534784,-0.04636235792669161]","[-1,-1,-1]","[0.07169132197386884,0.07289539514073498]","[1,1,1]","[0.047157627443532475,0.1203144737011919]","[-1,-1,-1]","[-0.05966246817911302,0.14386327523640494]","[1,1,1]","[0.1963215756635065,0.02258805504393395]","[1,1,1]","[-0.12676610530682134,-0.10624856531421864]","[-1,-1,-1]","[0.09440866323030173,0.17480830371574227]","[-1,-1,-1]","[-0.006975114014981593,0.1389322689486893]","[1,1,1]","[-0.04616127503406793,-0.07689284605144019]","[-1,-1,-1]","[0.03966018569912679,0.043193249194696436]","[-1,-1,-1]","[0.1342996304247692,0.0847670134362796]","[1,1,1]","[-0.0595431011834181,0.1001977828120114]","[-1,-1,-1]","[0.05155213546647305,-0.15446887454671646]","[1,1,1]","[-0.05664115399465523,-0.18883549822769988]","[1,1,1]","[0.14556676595410462,-0.00870973830744651]","[-1,-1,-1]","[0.1670046597293995,-0.0746326961753022]","[-1,-1,-1]","[-0.1584063579939956,0.0930245995390975]","[1,1,1]","[-0.1095389323330121,0.05565137869972555]","[1,1,1]","[-0.16633544729789967,0.001054125967847341]","[1,1,1]","[0.02,0.02]",206.662,0,41,41,101,1,,,,,,,
,,,,,,,66b39d642d5d3c9ab18111e8,682db44a8299fba01a2d57ee,2025-05-21_13h10.18.949,cuing_paradigm_dot,2024.1.5,Win32,59.88023952,682d556593cb38ad0a074487,,,,,,,,,,,206.663,207.1628,,,207.4135,207.7788,left,,,,,,,,0.4,0.3564,,,,,,,207.1629,207.4134,207.7789,"[-0.10334374817772186,-0.07535434560630781]","[1,1,1]","[0.08805108931309953,-0.10237977689957291]","[-1,-1,-1]","[-0.0012329996228662005,0.07509633723616453]","[-1,-1,-1]","[-0.14509338564659036,0.12031906206540023]","[-1,-1,-1]","[0.12024083683529685,0.008012605130196967]","[-1,-1,-1]","[0.0730345186538497,-0.18496476818491084]","[1,1,1]","[0.03245987854630665,-0.13034424744387293]","[1,1,1]","[0.17705702519678054,-0.0026840009988685545]","[-1,-1,-1]","[0.022688345574232556,-0.0650933756333617]","[1,1,1]","[0.10206705574844847,0.16865542019808638]","[-1,-1,-1]","[-0.0231762589951853,-0.10853916503724273]","[-1,-1,-1]","[0.0723770671226149,-0.06313158588876834]","[1,1,1]","[0.14591482048180668,-0.0312986840028128]","[1,1,1]","[0.022993420113331692,0.03061710842176167]","[1,1,1]","[-0.17618537240559937,-0.03647117399020628]","[-1,-1,-1]","[0.008022741788190124,0.12875800359409686]","[-1,-1,-1]","[-0.18690249196271516,0.048374667621545894]","[1,1,1]","[0.04307117653806033,0.16600900408571742]","[1,1,1]","[0.143154123007683,0.04332435366689517]","[1,1,1]","[-0.0728293855481023,0.03304871745009286]","[-1,-1,-1]","[-0.021548624105566704,-0.16006194609596042]","[-1,-1,-1]","[-0.0661783978912293,-0.17463017849654217]","[-1,-1,-1]","[-0.026555644904423165,0.00926288490477016]","[-1,-1,-1]","[-0.18336874255868493,-0.07951346659028233]","[-1,-1,-1]","[-0.10360271192554998,0.11189355961886993]","[1,1,1]","[-0.1422138606238506,-0.10970832788783673]","[-1,-1,-1]","[0.13864679005477365,-0.1060602733927134]","[1,1,1]","[0.1860546606950229,0.06166895578592546]","[-1,-1,-1]","[0.18783126477338305,-0.05400686978076865]","[1,1,1]","[0.15028067545070892,0.13099607521282122]","[-1,-1,-1]","[0.029466265404903772,-0.0221947705547356]","[-1,-1,-1]","[0.10786063129172235,-0.13822322318319671]","[-1,-1,-1]","[0.02,0.02]",208.8787,0,42,42,49,1,,,,,,,
,,,,,,,66b39d642d5d3c9ab18111e8,682db44a8299fba01a2d57ee,2025-05-21_13h10.18.949,cuing_paradigm_dot,2024.1.5,Win32,59.88023952,682d556593cb38ad0a074487,,,,,,,,,,,208.8791,209.3797,,,209.6304,209.9631,right,,,,,,,,0.9,0.3178,,,,,,,209.3798,209.6304,209.9631,"[-0.018155670751918377,0.09705773296476108]","[1,1,1]","[0.014641177909914918,0.18437972278078874]","[1,1,1]","[0.004353003131228758,0.14153535263330336]","[1,1,1]","[-0.0028187145179212523,-0.16569452936148624]","[1,1,1]","[0.09859769580589572,-0.01428999750514626]","[1,1,1]","[-0.058468519566260355,-0.07539945952279517]","[1,1,1]","[0.14705212555785308,0.12685374661726392]","[1,1,1]","[-0.1708443452649847,-0.009794405284098017]","[1,1,1]","[0.01438822632324416,-0.06905614796603758]","[1,1,1]","[0.05879829025281017,-0.1550392223603099]","[1,1,1]","[0.019129089209028005,0.03429625721364817]","[1,1,1]","[-0.14215471820273812,-0.039399117964644716]","[1,1,1]","[-0.1350219622027641,0.061813604664311766]","[1,1,1]","[-0.13825885946849817,-0.13165213797642547]","[1,1,1]","[0.0268634507694293,0.10718518264846597]","[-1,-1,-1]","[0.11760234350227591,-0.08013433201707942]","[1,1,1]","[-0.0808355952375636,0.18036124563266212]","[1,1,1]","[0.09255775338877495,0.05373067665447599]","[1,1,1]","[-0.07629607508954928,-0.12516174991837548]","[1,1,1]","[-0.19028231605128018,0.04690719178625487]","[1,1,1]","[0.1969453787748851,-0.025341929282427417]","[1,1,1]","[0.14046254891519588,0.05669818950190266]","[1,1,1]","[0.07410861443800607,-0.10940374553198792]","[1,1,1]","[0.08420293295996875,0.1483305367051828]","[1,1,1]","[-0.12820461148523624,0.11484456317100943]","[1,1,1]","[0.09472965116718102,-0.17339703341759063]","[1,1,1]","[-0.13918253953904647,0.016326235470314823]","[1,1,1]","[-0.1774004069371103,-0.06755452603230096]","[-1,-1,-1]","[-0.007880422203559244,-0.013169076763451562]","[1,1,1]","[0.05312745674249357,-0.01052068176218685]","[1,1,1]","[-0.07578023432078597,0.05115731446774118]","[-1,-1,-1]","[0.1686679590968433,0.019327337229561915]","[1,1,1]","[0.02,0.02]",211.063,0,43,43,196,1,,,,,,,
,,,,,,,66b39d642d5d3c9ab18111e8,682db44a8299fba01a2d57ee,2025-05-21_13h10.18.949,cuing_paradigm_dot,2024.1.5,Win32,59.88023952,682d556593cb38ad0a074487,,,,,,,,,,,211.0637,211.562,,,211.814,212.2136,right,,,,,,,,0.9,0.3864,,,,,,,211.562,211.8139,212.2137,"[-0.18543997301981946,-0.04708974280856792]","[1,1,1]","[0.03484112096916757,-0.13818780052888766]","[1,1,1]","[0.10486990703726479,0.07507218451187461]","[1,1,1]","[0.15610915794711694,-0.12048896848964867]","[1,1,1]","[-0.06560088052489046,0.0013134571153234507]","[1,1,1]","[-0.07153392237137508,-0.06311220888601544]","[1,1,1]","[0.03467911594498629,0.17511228378191843]","[1,1,1]","[-0.13888412945977793,0.08957607137280497]","[1,1,1]","[-0.010310822549999486,-0.18033958699331312]","[1,1,1]","[-0.09866568212876303,0.07096049379074534]","[1,1,1]","[0.16087807328915693,0.07985843208328454]","[-1,-1,-1]","[-0.06418229625366095,-0.11760365432277946]","[1,1,1]","[0.1398296155000344,-0.027402747435907277]","[1,1,1]","[-0.027069562411029934,0.09276293132120252]","[1,1,1]","[-0.18620912763935926,0.03659266217648481]","[-1,-1,-1]","[0.11987756898851828,-0.07912646195742928]","[1,1,1]","[0.054752868776090896,-0.05412344587911452]","[1,1,1]","[0.06121300126039012,0.05854854383226454]","[1,1,1]","[-0.014795150271740882,-0.001975751262671625]","[1,1,1]","[-0.007418899684552416,-0.06891397046611737]","[1,1,1]","[0.06869993545445921,0.11061909967208337]","[1,1,1]","[-0.1362012207505743,-0.050171799509522]","[1,1,1]","[0.1089600958158205,0.000005995582958719973]","[1,1,1]","[0.1671403530271317,0.012642383668076837]","[1,1,1]","[0.07700625435304899,-0.1520944070384342]","[1,1,1]","[-0.1428469822725263,-0.1273421214376501]","[1,1,1]","[-0.08012547064926358,0.16812022682502384]","[1,1,1]","[-0.018632504012667278,0.16172463089851696]","[1,1,1]","[-0.14875417390722753,0.019320112803536342]","[1,1,1]","[0.03164916701998051,-0.0930589439226425]","[1,1,1]","[-0.020795936143251568,-0.12826158814178779]","[1,1,1]","[0.11968305943956457,0.13018746973208267]","[-1,-1,-1]","[0.02,0.02]",213.3133,0,44,44,204,1,,,,,,,
