right,left,explain.started,explain.stopped,key_resp_3.keys,key_resp_3.rt,key_resp_3.duration,participant,session,date,expName,psychopyVersion,OS,frameRate,study_id,explain_2.started,explain_2.stopped,key_resp_4.keys,key_resp_4.rt,key_resp_4.duration,explain_3.started,explain_3.stopped,key_resp_5.keys,key_resp_5.rt,key_resp_5.duration,fixation.started,fixation.stopped,practice.started,practice.stopped,response.started,response.stopped,key_resp.keys,key_resp.rt,key_resp.duration,feedback.started,feedback.stopped,trials_2.thisRepN,trials_2.thisTrialN,trials_2.thisN,trials_2.thisIndex,trials_2.ran,white_ratio,explain_4.started,explain_4.stopped,key_resp_6.keys,key_resp_6.rt,key_resp_6.duration,dotDisplay.started,dotDisplay.stopped,ITI.started,polygon_1.pos,polygon_1.color,polygon_2.pos,polygon_2.color,polygon_3.pos,polygon_3.color,polygon_4.pos,polygon_4.color,polygon_5.pos,polygon_5.color,polygon_6.pos,polygon_6.color,polygon_7.pos,polygon_7.color,polygon_8.pos,polygon_8.color,polygon_9.pos,polygon_9.color,polygon_10.pos,polygon_10.color,polygon_11.pos,polygon_11.color,polygon_12.pos,polygon_12.color,polygon_13.pos,polygon_13.color,polygon_14.pos,polygon_14.color,polygon_15.pos,polygon_15.color,polygon_16.pos,polygon_16.color,polygon_17.pos,polygon_17.color,polygon_18.pos,polygon_18.color,polygon_19.pos,polygon_19.color,polygon_20.pos,polygon_20.color,polygon_21.pos,polygon_21.color,polygon_22.pos,polygon_22.color,polygon_23.pos,polygon_23.color,polygon_24.pos,polygon_24.color,polygon_25.pos,polygon_25.color,polygon_26.pos,polygon_26.color,polygon_27.pos,polygon_27.color,polygon_28.pos,polygon_28.color,polygon_29.pos,polygon_29.color,polygon_30.pos,polygon_30.color,polygon_31.pos,polygon_31.color,polygon_32.pos,polygon_32.color,dot_size,ITI.stopped,trials.thisRepN,trials.thisTrialN,trials.thisN,trials.thisIndex,trials.ran,break_2.started,break_2.stopped,trials_3.thisRepN,trials_3.thisTrialN,trials_3.thisN,trials_3.thisIndex,trials_3.ran
subject chose black,subject chose white,0.0004,47.9353,space,32.9145,,66ce541cd8da920539a1c3cc,682f2f7d88553c49f64a3327,2025-05-22_15h11.59.453,cuing_paradigm_dot,2024.1.5,Win32,60.24096386,682d573fa47f1360d1451895,,,,,,,,,,,,,,,,,,,,,,,,,,,,,,,,,,,,,,,,,,,,,,,,,,,,,,,,,,,,,,,,,,,,,,,,,,,,,,,,,,,,,,,,,,,,,,,,,,,,,,,,,,,,,,,,,
,,,,,,,66ce541cd8da920539a1c3cc,682f2f7d88553c49f64a3327,2025-05-22_15h11.59.453,cuing_paradigm_dot,2024.1.5,Win32,60.24096386,682d573fa47f1360d1451895,47.9354,80.1118,space,2.1537,,,,,,,,,,,,,,,,,,,,,,,,,,,,,,,,,,,,,,,,,,,,,,,,,,,,,,,,,,,,,,,,,,,,,,,,,,,,,,,,,,,,,,,,,,,,,,,,,,,,,,,,,,,,,
,,,,,,,66ce541cd8da920539a1c3cc,682f2f7d88553c49f64a3327,2025-05-22_15h11.59.453,cuing_paradigm_dot,2024.1.5,Win32,60.24096386,682d573fa47f1360d1451895,,,,,,80.1119,84.6284,space,1.4882,,,,,,,,,,,,,,,,,,,,,,,,,,,,,,,,,,,,,,,,,,,,,,,,,,,,,,,,,,,,,,,,,,,,,,,,,,,,,,,,,,,,,,,,,,,,,,,,,,,,,,,,
,,,,,,,66ce541cd8da920539a1c3cc,682f2f7d88553c49f64a3327,2025-05-22_15h11.59.453,cuing_paradigm_dot,2024.1.5,Win32,60.24096386,682d573fa47f1360d1451895,,,,,,,,,,,84.6414,85.1446,85.1448,85.3946,85.3947,86.6112,left,1.1934,,86.6114,87.7113,0,0,0,0,1,0.8,,,,,,,,,,,,,,,,,,,,,,,,,,,,,,,,,,,,,,,,,,,,,,,,,,,,,,,,,,,,,,,,,,,,,,,,,,,,,,,,,,,,,,
,,,,,,,66ce541cd8da920539a1c3cc,682f2f7d88553c49f64a3327,2025-05-22_15h11.59.453,cuing_paradigm_dot,2024.1.5,Win32,60.24096386,682d573fa47f1360d1451895,,,,,,,,,,,87.7116,88.2114,88.2114,88.4616,88.4617,89.1779,left,0.7023,,89.1779,90.2778,0,1,1,1,1,0.2,,,,,,,,,,,,,,,,,,,,,,,,,,,,,,,,,,,,,,,,,,,,,,,,,,,,,,,,,,,,,,,,,,,,,,,,,,,,,,,,,,,,,,
,,,,,,,66ce541cd8da920539a1c3cc,682f2f7d88553c49f64a3327,2025-05-22_15h11.59.453,cuing_paradigm_dot,2024.1.5,Win32,60.24096386,682d573fa47f1360d1451895,,,,,,,,,,,,,,,,,,,,,,,,,,,,90.2781,95.1616,space,1.854,,,,,,,,,,,,,,,,,,,,,,,,,,,,,,,,,,,,,,,,,,,,,,,,,,,,,,,,,,,,,,,,,,,,,,,,,,,,,,,,,,
,,,,,,,66ce541cd8da920539a1c3cc,682f2f7d88553c49f64a3327,2025-05-22_15h11.59.453,cuing_paradigm_dot,2024.1.5,Win32,60.24096386,682d573fa47f1360d1451895,,,,,,,,,,,95.1733,95.6612,,,95.9114,96.6448,right,0.7241,,,,,,,,,0.5,,,,,,95.6615,95.9114,96.6451,"[-0.023719296489676283,-0.0991412928807297]","[1,1,1]","[0.1654419661648135,0.033559755947340536]","[1,1,1]","[-0.1986348685346115,0.01370792036992228]","[1,1,1]","[-0.14392889490906077,0.0943039966342986]","[-1,-1,-1]","[-0.050317906968843557,-0.049244446077904964]","[1,1,1]","[0.0707280024536805,-0.07268180433009366]","[1,1,1]","[-0.1326056744817376,-0.11533903327067713]","[1,1,1]","[0.12350194197190843,0.11654821603292743]","[-1,-1,-1]","[-0.08301388620980706,0.16359837926259993]","[1,1,1]","[-0.00864088891206075,0.165728033459749]","[1,1,1]","[0.0238173991099735,-0.16911139407647363]","[-1,-1,-1]","[-0.13215984179874785,-0.007417532755561368]","[1,1,1]","[-0.12055379626166782,0.04928516301052419]","[-1,-1,-1]","[0.006979592736063359,-0.030547549540112524]","[1,1,1]","[-0.09210375163902955,0.11241027331361046]","[-1,-1,-1]","[-0.04310201013010569,-0.0014055265662194485]","[-1,-1,-1]","[-0.14902039590539423,-0.059074980836064314]","[-1,-1,-1]","[0.10287873249843628,-0.011803427994980341]","[-1,-1,-1]","[0.13670858602915983,-0.1436537393451326]","[1,1,1]","[0.1819011232779241,-0.04200016342755643]","[-1,-1,-1]","[0.01196393252846686,0.0814318438229751]","[-1,-1,-1]","[0.061806847519136156,0.02443308512673377]","[1,1,1]","[-0.04044873878284773,0.13499709298600918]","[-1,-1,-1]","[-0.08623825690570809,0.07109941024970191]","[-1,-1,-1]","[0.1503157997907219,-0.08403872838003953]","[-1,-1,-1]","[0.0618241077423501,0.16444967280784797]","[1,1,1]","[-0.10825803602231263,-0.06804130796324327]","[1,1,1]","[-0.08134356050548519,-0.1216729426279031]","[1,1,1]","[0.09175579056153853,0.05312714475768699]","[1,1,1]","[0.007213414387360529,0.022622564362723658]","[-1,-1,-1]","[-0.09128953466725413,-0.0213226508497124]","[-1,-1,-1]","[0.03281753433750789,-0.08558731207771224]","[-1,-1,-1]","[0.02,0.02]",97.7447,0,0,0,98,1,,,,,,,
,,,,,,,66ce541cd8da920539a1c3cc,682f2f7d88553c49f64a3327,2025-05-22_15h11.59.453,cuing_paradigm_dot,2024.1.5,Win32,60.24096386,682d573fa47f1360d1451895,,,,,,,,,,,97.7453,98.2445,,,98.4948,99.6112,left,1.1057,,,,,,,,,0.6,,,,,,98.2446,98.4948,99.6113,"[-0.07222276478026786,0.15719139997908052]","[1,1,1]","[0.05817699366415896,-0.1771334654532709]","[-1,-1,-1]","[-0.11819299724867462,0.07433626858687292]","[-1,-1,-1]","[-0.06274411528377288,0.06569320391973563]","[-1,-1,-1]","[0.16023476125967195,-0.06253320740231398]","[-1,-1,-1]","[-0.03976291544216908,0.11718413684775535]","[1,1,1]","[-0.1376441766425168,0.12854536978964312]","[1,1,1]","[0.05720141310455688,-0.0030068813889288937]","[1,1,1]","[-0.021165806831180797,-0.0834351129653679]","[1,1,1]","[0.10107223017711403,-0.011962421990811252]","[1,1,1]","[-0.05851695086942742,-0.10592485092614466]","[-1,-1,-1]","[0.12197345219256467,-0.10050488074266475]","[1,1,1]","[0.04992385688095941,0.1696331976291719]","[-1,-1,-1]","[0.13419934215830487,0.04389500640395057]","[-1,-1,-1]","[-0.005941959507402554,0.17925095465960997]","[-1,-1,-1]","[-0.1432515466741574,-0.04530578113466572]","[1,1,1]","[-0.07666365948074426,-0.006657874531657513]","[1,1,1]","[0.12694399448847477,-0.15116032562511167]","[1,1,1]","[0.0953366704315097,-0.05504482808869877]","[-1,-1,-1]","[-0.13177521945173284,0.023328261181192887]","[1,1,1]","[-0.17715597913916573,0.018423336013247152]","[1,1,1]","[-0.17092447830464957,-0.07869767311893966]","[-1,-1,-1]","[-0.08344008222223989,-0.0633297919048897]","[1,1,1]","[0.0939329082001585,0.0409217875660639]","[1,1,1]","[0.1791913161119789,0.03258709407174477]","[-1,-1,-1]","[-0.014954671905122445,0.002055021203883122]","[1,1,1]","[0.1030442630731095,0.0922407319319422]","[-1,-1,-1]","[-0.11921273407157454,-0.1468996075011829]","[1,1,1]","[0.16951587033699372,0.07602767808870144]","[-1,-1,-1]","[0.15717943650649793,-0.004659754984717155]","[1,1,1]","[0.041696091389614956,0.12443899592453367]","[1,1,1]","[0.011984999225389889,-0.19110133180215566]","[1,1,1]","[0.02,0.02]",100.7111,0,1,1,157,1,,,,,,,
,,,,,,,66ce541cd8da920539a1c3cc,682f2f7d88553c49f64a3327,2025-05-22_15h11.59.453,cuing_paradigm_dot,2024.1.5,Win32,60.24096386,682d573fa47f1360d1451895,,,,,,,,,,,100.7115,101.2114,,,101.4613,102.8779,left,1.4031,,,,,,,,,0.5,,,,,,101.2114,101.4613,102.8779,"[-0.09304328189681656,-0.030366348931480092]","[-1,-1,-1]","[-0.036867311745438926,0.000420609578285848]","[-1,-1,-1]","[0.0805333597586756,0.13048079854970063]","[-1,-1,-1]","[-0.0025233556149154082,0.19284452684990938]","[1,1,1]","[0.18097668300601003,-0.028874217109851552]","[1,1,1]","[-0.024533969724641114,-0.10568198852939384]","[-1,-1,-1]","[0.05691333132261343,-0.13714935598047062]","[1,1,1]","[0.17853247078142892,0.017151560014281843]","[1,1,1]","[0.031102828350225327,0.1064480219484937]","[1,1,1]","[-0.15813349909044178,0.06493545047763144]","[-1,-1,-1]","[-0.11314840829265291,0.10484935517872351]","[-1,-1,-1]","[0.06789072821383808,0.06702893178788333]","[-1,-1,-1]","[0.14445424989359787,0.04726114935537597]","[1,1,1]","[-0.01624140849733156,0.1268324168723481]","[-1,-1,-1]","[-0.08880868123460628,0.14826794103732288]","[-1,-1,-1]","[-0.14900134705789916,-0.12865725013365933]","[1,1,1]","[0.11102806889691343,0.10123510597906098]","[1,1,1]","[-0.006899747387129082,0.07256795341822471]","[-1,-1,-1]","[0.17272605938369587,-0.09517369478495726]","[-1,-1,-1]","[0.15100585238033584,0.0960574247342166]","[1,1,1]","[0.10400158405049985,-0.036172373722018404]","[1,1,1]","[-0.10485875359545084,-0.13909374694991494]","[-1,-1,-1]","[-0.08405036256953212,0.025426660789000268]","[1,1,1]","[-0.12217443135799262,-0.09894726768689185]","[1,1,1]","[-0.043418820793052516,-0.17398589311198082]","[1,1,1]","[0.012710019975495706,0.016384701484721917]","[-1,-1,-1]","[-0.06531919699686967,-0.10286061457445775]","[1,1,1]","[-0.05769367242373574,0.09655262387674082]","[1,1,1]","[-0.03651767406599122,-0.06246888057164682]","[-1,-1,-1]","[-0.12304665774872434,0.014430325642190465]","[-1,-1,-1]","[0.07518176504399181,-0.0918191344928115]","[-1,-1,-1]","[0.06531157820432884,-0.022701702041680025]","[1,1,1]","[0.02,0.02]",103.9781,0,2,2,99,1,,,,,,,
,,,,,,,66ce541cd8da920539a1c3cc,682f2f7d88553c49f64a3327,2025-05-22_15h11.59.453,cuing_paradigm_dot,2024.1.5,Win32,60.24096386,682d573fa47f1360d1451895,,,,,,,,,,,103.9784,104.4779,,,104.7281,105.9778,left,1.2333,,,,,,,,,0.55,,,,,,104.4779,104.7281,105.9778,"[-0.12262470167258066,0.13976667207282256]","[1,1,1]","[0.10567126346027589,-0.013301454356037195]","[1,1,1]","[0.14509986001760844,-0.12393218681406691]","[-1,-1,-1]","[0.16342635623380553,0.0496354477525398]","[-1,-1,-1]","[-0.1446413303274853,-0.04492502981170016]","[-1,-1,-1]","[0.10010678303041444,-0.16044713517564377]","[1,1,1]","[0.015308891906843126,0.025290010076975154]","[1,1,1]","[-0.07009060388801203,0.07186717893136023]","[1,1,1]","[0.09777969404605065,0.12785877883961405]","[-1,-1,-1]","[0.05115815955254196,-0.17262335196910933]","[1,1,1]","[0.11480657156020323,-0.06587843940335662]","[1,1,1]","[-0.02366846369483313,-0.160009965766323]","[-1,-1,-1]","[-0.10226346034476795,-0.1012289296030191]","[1,1,1]","[0.1841711430666367,-0.06252932655390893]","[-1,-1,-1]","[0.022704139905415966,0.1766145912927482]","[-1,-1,-1]","[-0.07913796655315994,0.1611867979962603]","[1,1,1]","[-0.1829821238440797,0.013899471415437922]","[1,1,1]","[-0.010161457487049337,0.07200901880689609]","[1,1,1]","[-0.11301856498772504,0.05630818527505686]","[-1,-1,-1]","[-0.09501836279837976,-0.023085613060169485]","[-1,-1,-1]","[0.06473890677395375,0.1654485082966553]","[1,1,1]","[0.061592871233332944,0.04904887259967456]","[-1,-1,-1]","[0.0004015140825559185,-0.0744024380500447]","[1,1,1]","[-0.011529076429328577,0.14304467552042802]","[1,1,1]","[0.04667272957807489,0.12072362529459668]","[1,1,1]","[-0.07895933206616339,-0.1717529128701757]","[-1,-1,-1]","[-0.16737847216236015,-0.09927593433747162]","[-1,-1,-1]","[-0.15037797649416582,0.11012096386512132]","[-1,-1,-1]","[0.14649123051898214,0.08712541547136596]","[1,1,1]","[-0.04577691837215138,-0.0371402089631962]","[-1,-1,-1]","[0.012713808769593875,-0.1194999954752603]","[1,1,1]","[-0.051100461743249184,0.13020670441814605]","[1,1,1]","[0.02,0.02]",107.0778,0,3,3,142,1,,,,,,,
,,,,,,,66ce541cd8da920539a1c3cc,682f2f7d88553c49f64a3327,2025-05-22_15h11.59.453,cuing_paradigm_dot,2024.1.5,Win32,60.24096386,682d573fa47f1360d1451895,,,,,,,,,,,107.078,107.578,,,107.828,108.5112,right,0.6784,,,,,,,,,0.1,,,,,,107.5781,107.828,108.5112,"[-0.1618980671905467,0.04343243175493292]","[-1,-1,-1]","[-0.11114221796533881,0.060465474125778684]","[-1,-1,-1]","[0.020296434792165932,0.12173659934038512]","[-1,-1,-1]","[0.0393542735098168,0.006570259206416721]","[-1,-1,-1]","[-0.11153622461320879,-0.10307316380068184]","[-1,-1,-1]","[0.10625441397899654,-0.01332358509623511]","[-1,-1,-1]","[0.031311431667630035,-0.044977526150454854]","[-1,-1,-1]","[-0.09544684771388211,-0.04146792782164373]","[-1,-1,-1]","[-0.05201115755158057,0.10131854174420962]","[-1,-1,-1]","[-0.05137358709628092,-0.15669539171475685]","[-1,-1,-1]","[0.11008667833835821,-0.11292494670421915]","[1,1,1]","[0.16507273264951328,-0.028361112371026086]","[-1,-1,-1]","[-0.03624704323955616,0.16530663557772526]","[-1,-1,-1]","[-0.17173641100983322,0.09675518932978819]","[-1,-1,-1]","[0.0015731040661628797,-0.08493362513854753]","[-1,-1,-1]","[0.15995472188288395,-0.10108591934690504]","[-1,-1,-1]","[0.12280349866639254,0.06989983019883182]","[-1,-1,-1]","[-0.11568637531520819,0.14386518099716575]","[-1,-1,-1]","[-0.021440953017499986,0.0626827254752032]","[-1,-1,-1]","[0.05948247831079095,0.13640470059203047]","[-1,-1,-1]","[-0.0409844688448731,-0.052476016764574855]","[1,1,1]","[-0.09088722205799768,0.013047948531776458]","[-1,-1,-1]","[-0.09588393750527476,-0.14610749726372]","[-1,-1,-1]","[0.04111607654313959,-0.11796228111767709]","[-1,-1,-1]","[-0.18761820685104283,-0.04035478380008252]","[-1,-1,-1]","[0.00037583349544491936,-0.18995310430135282]","[-1,-1,-1]","[-0.15059833496709032,-0.09268514180213282]","[1,1,1]","[0.11554105521499872,0.15945077465124866]","[-1,-1,-1]","[0.13543510635888253,0.11161912026142819]","[-1,-1,-1]","[0.1632387720321208,0.0372938071080106]","[-1,-1,-1]","[0.08756404863954245,-0.1748188209743887]","[-1,-1,-1]","[0.07701233177740191,0.05751042954473418]","[-1,-1,-1]","[0.02,0.02]",109.6112,0,4,4,10,1,,,,,,,
,,,,,,,66ce541cd8da920539a1c3cc,682f2f7d88553c49f64a3327,2025-05-22_15h11.59.453,cuing_paradigm_dot,2024.1.5,Win32,60.24096386,682d573fa47f1360d1451895,,,,,,,,,,,109.6114,110.1112,,,110.3619,111.1612,left,0.7935,,,,,,,,,0.9,,,,,,110.1112,110.3618,111.1612,"[0.0485477449702373,-0.17385009341903462]","[1,1,1]","[-0.049464031510792976,-0.03310546026310468]","[1,1,1]","[-0.1300113012051299,-0.06110066508471112]","[1,1,1]","[-0.09314684201714075,0.12642259517022397]","[1,1,1]","[0.03152195569860417,-0.016780786550716277]","[1,1,1]","[0.00406941240758485,-0.08153255625624657]","[1,1,1]","[-0.12033084539755864,0.08667183094410381]","[1,1,1]","[0.05807286342914405,0.0902454992776133]","[-1,-1,-1]","[0.07355911910762841,0.048744905245457264]","[1,1,1]","[-0.16900948800219479,-0.07087117305460208]","[1,1,1]","[0.09537486357498963,0.1735992202743972]","[1,1,1]","[0.09107103941329157,-0.020563288759006104]","[1,1,1]","[0.008735182222599096,0.03541246449722431]","[1,1,1]","[-0.08394014714851991,0.00660376532222837]","[1,1,1]","[0.12349425696789143,0.1438694256777597]","[1,1,1]","[-0.014455458089475973,0.16947836815535272]","[1,1,1]","[0.17659858598695838,0.0937504731221528]","[1,1,1]","[-0.050982770011544304,0.09274740335189302]","[-1,-1,-1]","[0.032001653701064565,0.1541850859576173]","[1,1,1]","[-0.0004429797946584591,-0.16814998951604535]","[1,1,1]","[0.11215551121042977,0.09290427655756858]","[1,1,1]","[0.056544250701385454,-0.11264220999271328]","[1,1,1]","[0.15429439926784638,-0.06290834532582494]","[1,1,1]","[-0.1352822407567134,0.0005421113615679067]","[-1,-1,-1]","[-0.18442915333912824,0.023363752923901224]","[1,1,1]","[0.10549447929232815,-0.13092002019116653]","[1,1,1]","[0.1340231326087868,-0.010010058983321865]","[1,1,1]","[-0.04006337463199151,-0.18657332087291942]","[1,1,1]","[-0.13275246972720653,0.04749782277649719]","[1,1,1]","[-0.008134076865007913,0.09180008745065077]","[1,1,1]","[-0.08570907193891433,-0.11065413363755668]","[1,1,1]","[-0.08566015463190652,0.05476040852910473]","[1,1,1]","[0.02,0.02]",112.2613,0,5,5,198,1,,,,,,,
,,,,,,,66ce541cd8da920539a1c3cc,682f2f7d88553c49f64a3327,2025-05-22_15h11.59.453,cuing_paradigm_dot,2024.1.5,Win32,60.24096386,682d573fa47f1360d1451895,,,,,,,,,,,112.2616,112.7613,,,113.0115,113.6111,right,0.591,,,,,,,,,0.1,,,,,,112.7614,113.0115,113.6112,"[-0.013630088186162636,-0.05218657394328153]","[-1,-1,-1]","[-0.09654251158619231,-0.02753624836349668]","[-1,-1,-1]","[0.17262406834481528,-0.04997502235898753]","[-1,-1,-1]","[-0.1856148257170397,0.013850111146551276]","[-1,-1,-1]","[0.07404998449795543,-0.042802534434757615]","[-1,-1,-1]","[0.0275175523611629,-0.08555563486403]","[-1,-1,-1]","[-0.025801713988469855,-0.1277377198118676]","[-1,-1,-1]","[0.06293659542602446,0.09460946563943003]","[-1,-1,-1]","[-0.11311020735268476,-0.07899167503119119]","[-1,-1,-1]","[-0.03712710177399662,-0.009599894578968137]","[-1,-1,-1]","[0.008369636237426537,0.0013792065969664665]","[-1,-1,-1]","[0.0095047705092181,0.04412751054976394]","[-1,-1,-1]","[0.12951596230850365,-0.14918892232317257]","[-1,-1,-1]","[-0.11245873082298809,0.013332033191006225]","[-1,-1,-1]","[-0.047718900035383434,0.12831966718436194]","[-1,-1,-1]","[0.03951487805176618,0.15331014699066808]","[-1,-1,-1]","[0.09758788243775857,0.003965143132803342]","[-1,-1,-1]","[0.11975957848221337,0.0570958899910097]","[-1,-1,-1]","[-0.14277648300398613,0.0895118054499739]","[-1,-1,-1]","[-0.03472086760559445,-0.17220387734901013]","[-1,-1,-1]","[0.011864474284099832,-0.15113567003071554]","[-1,-1,-1]","[0.12044735297969823,-0.034184140479646824]","[-1,-1,-1]","[-0.09874638191000833,0.16362813138088406]","[1,1,1]","[0.08644250325894898,0.17705682817389973]","[-1,-1,-1]","[-0.14549735872576525,0.040307863820951674]","[1,1,1]","[-0.08903248602330109,0.11293294074400088]","[-1,-1,-1]","[-0.046418443403466764,0.07431884725183911]","[-1,-1,-1]","[0.19159391085805696,-0.006801043836730995]","[-1,-1,-1]","[-0.1751190676746995,-0.0777661564323793]","[1,1,1]","[-0.030423246044736455,0.18995800088090267]","[-1,-1,-1]","[0.05258311667012129,-0.1225114181952108]","[-1,-1,-1]","[0.14081488317176086,0.004163666843382187]","[-1,-1,-1]","[0.02,0.02]",114.7113,0,6,6,27,1,,,,,,,
,,,,,,,66ce541cd8da920539a1c3cc,682f2f7d88553c49f64a3327,2025-05-22_15h11.59.453,cuing_paradigm_dot,2024.1.5,Win32,60.24096386,682d573fa47f1360d1451895,,,,,,,,,,,114.7117,115.2113,,,115.4614,116.3945,right,0.9135,,,,,,,,,0.4,,,,,,115.2113,115.4614,116.3946,"[-0.1300804832259413,-0.027357964552986613]","[-1,-1,-1]","[0.09497466735312192,0.12547503786916833]","[1,1,1]","[0.1030870891019979,-0.1607409387684939]","[-1,-1,-1]","[0.1754775980465915,-0.05030715217379009]","[-1,-1,-1]","[0.038182890818345694,0.01925988527580875]","[1,1,1]","[-0.02904587088542041,0.1611816306469653]","[-1,-1,-1]","[-0.10555438736574378,-0.10424498934291229]","[-1,-1,-1]","[0.07225694981357325,0.05061911033799447]","[-1,-1,-1]","[0.1075024944503446,-0.05304499696458663]","[1,1,1]","[0.0005590075808587193,0.09534133069330986]","[-1,-1,-1]","[-0.0021415963847364093,-0.04963899835825136]","[-1,-1,-1]","[-0.06855064036961016,-0.05054270323379549]","[1,1,1]","[0.03621075374579933,-0.09582634830924219]","[1,1,1]","[-0.03427498357504277,0.02436679578271462]","[1,1,1]","[0.11053140097935495,0.016481436351747134]","[-1,-1,-1]","[-0.19523823434195914,-0.032280405058374186]","[-1,-1,-1]","[0.1605642543711583,0.04391537840759707]","[-1,-1,-1]","[-0.034323099605656375,-0.19545702819630295]","[1,1,1]","[0.07129284984718438,-0.030617097468014668]","[-1,-1,-1]","[0.10372099530693034,-0.10686966854488351]","[-1,-1,-1]","[0.046259145296595104,-0.17438360820728643]","[-1,-1,-1]","[-0.038331965235728474,-0.14363732843258578]","[1,1,1]","[0.03114138471471971,0.15086129953063188]","[-1,-1,-1]","[-0.0903149921693611,0.16664199660208762]","[1,1,1]","[-0.14731216125945443,0.09208077023827305]","[-1,-1,-1]","[-0.10778899116587155,0.013579542245578509]","[1,1,1]","[-0.05921132750188046,0.09779567233476542]","[1,1,1]","[-0.14709248292223645,0.02616101725511923]","[-1,-1,-1]","[0.17639546907722883,0.00611229150399185]","[-1,-1,-1]","[0.04509710237674871,0.10272923299901718]","[1,1,1]","[-0.16040249033735857,-0.05629630753820197]","[1,1,1]","[-0.106147541818091,0.08508245589513057]","[-1,-1,-1]","[0.02,0.02]",117.4946,0,7,7,43,1,,,,,,,
,,,,,,,66ce541cd8da920539a1c3cc,682f2f7d88553c49f64a3327,2025-05-22_15h11.59.453,cuing_paradigm_dot,2024.1.5,Win32,60.24096386,682d573fa47f1360d1451895,,,,,,,,,,,117.495,117.9945,,,118.2448,119.2616,right,1.0001,,,,,,,,,0.4,,,,,,117.9945,118.2448,119.2617,"[-0.05762954902298509,0.11921801749593308]","[-1,-1,-1]","[-0.018773992234414665,0.03328870558857312]","[-1,-1,-1]","[0.0963828223334185,-0.0840315072187573]","[1,1,1]","[-0.06793474077782602,0.016073115368718374]","[-1,-1,-1]","[-0.032405888706284976,0.16716773588602682]","[-1,-1,-1]","[0.16199364512651132,0.024448648969968702]","[1,1,1]","[-0.15300233770187002,0.024183488277123164]","[-1,-1,-1]","[0.06228119919634129,-0.18281802632905117]","[1,1,1]","[0.08309217460015507,-0.010643281689472641]","[-1,-1,-1]","[-0.1282124124377246,-0.029674134915929903]","[-1,-1,-1]","[-0.10327707734018447,-0.10935362905118794]","[1,1,1]","[0.04815306915226397,0.07743308086361604]","[-1,-1,-1]","[0.0648390557042451,-0.13216667183878808]","[-1,-1,-1]","[-0.18014294902313838,-0.05506299383733495]","[-1,-1,-1]","[0.044283767728780295,0.17517071053538566]","[1,1,1]","[0.12541792554846934,-0.00826466644320459]","[-1,-1,-1]","[-0.007189092071334114,0.12568191053017233]","[1,1,1]","[0.050516824380509404,-0.08425064802371748]","[-1,-1,-1]","[-0.059219117375190373,-0.11612585378903315]","[1,1,1]","[-0.1445148641787951,-0.1254800434605998]","[1,1,1]","[-0.06898805977535892,-0.17344878844159187]","[-1,-1,-1]","[0.14685166471720223,-0.12340088869389354]","[1,1,1]","[0.10626080961115969,0.1492206404017873]","[1,1,1]","[-0.09467441253090988,0.06649544827584347]","[-1,-1,-1]","[0.09595493559619549,0.03772991190715384]","[-1,-1,-1]","[0.006127629565897825,-0.03569445540597393]","[-1,-1,-1]","[-0.16702880002313872,0.0695335968667491]","[1,1,1]","[0.13967337262176896,0.11846074952454931]","[1,1,1]","[0.03769568939454965,0.007954491924124124]","[-1,-1,-1]","[0.1408620180626601,0.07396820524492692]","[-1,-1,-1]","[-0.120425621399234,0.15771079623333992]","[1,1,1]","[0.1806466135088924,-0.022362373751193522]","[-1,-1,-1]","[0.02,0.02]",120.3614,0,8,8,46,1,,,,,,,
,,,,,,,66ce541cd8da920539a1c3cc,682f2f7d88553c49f64a3327,2025-05-22_15h11.59.453,cuing_paradigm_dot,2024.1.5,Win32,60.24096386,682d573fa47f1360d1451895,,,,,,,,,,,120.3617,120.8614,,,121.1115,121.7282,left,0.6028,,,,,,,,,0.9,,,,,,120.8614,121.1115,121.7283,"[0.1447741994716188,-0.018359188468764193]","[1,1,1]","[-0.11038344026126103,0.04090313674110544]","[1,1,1]","[0.12745789004208521,0.15368899855873577]","[1,1,1]","[0.15815374882724767,0.056067163545870505]","[1,1,1]","[-0.04884599499121186,-0.0367579886756328]","[1,1,1]","[0.023026747149938586,0.1131598582159969]","[1,1,1]","[-0.1533200081968048,-0.10947204808401295]","[1,1,1]","[-0.005833333782483355,0.062423974322214804]","[1,1,1]","[0.04094577939525755,-0.11152607871151728]","[-1,-1,-1]","[0.10276775670450679,-0.0556067719566459]","[1,1,1]","[0.10814388714998288,-0.126526905281907]","[-1,-1,-1]","[0.05323578087374923,0.059185700066143064]","[1,1,1]","[0.10767443886291893,0.11123806739046284]","[1,1,1]","[-0.03988557285653803,0.1425269212903924]","[1,1,1]","[-0.001227565868138156,-0.03778267062257913]","[1,1,1]","[-0.12846919116480363,-0.010072176168949742]","[1,1,1]","[-0.054403135264832696,0.18691090925100048]","[1,1,1]","[-0.19313572687566183,-0.033951836541638906]","[1,1,1]","[-0.08601608750816182,-0.1113738618847369]","[1,1,1]","[0.19294018732519302,0.03137214481922718]","[1,1,1]","[-0.060299029395232864,0.0389457254552901]","[1,1,1]","[-0.07186706610809758,0.08992543505446979]","[1,1,1]","[-0.15831660099248385,0.04503088447062538]","[1,1,1]","[-0.14354536535201187,0.11025016000225932]","[1,1,1]","[-0.005741708403822017,-0.08573646966268426]","[1,1,1]","[-0.05777271945115126,-0.17492266323786057]","[-1,-1,-1]","[0.11008693033510064,0.04674838375605873]","[1,1,1]","[0.1487938630943607,-0.11285499232664394]","[1,1,1]","[0.08466513268263628,-0.01650950987916856]","[1,1,1]","[-0.02043265754887675,0.005697917200740688]","[1,1,1]","[-0.13553092585068213,-0.05191826775546609]","[1,1,1]","[0.03859890742387367,-0.052912064248392426]","[1,1,1]","[0.02,0.02]",122.8281,0,9,9,208,1,,,,,,,
,,,,,,,66ce541cd8da920539a1c3cc,682f2f7d88553c49f64a3327,2025-05-22_15h11.59.453,cuing_paradigm_dot,2024.1.5,Win32,60.24096386,682d573fa47f1360d1451895,,,,,,,,,,,122.8284,123.3278,,,123.5781,124.5113,right,0.9169,,,,,,,,,0.45,,,,,,123.3278,123.5781,124.5113,"[-0.08251525694692342,0.15222827198559563]","[-1,-1,-1]","[-0.006606844459505255,-0.02973314325407934]","[1,1,1]","[0.012404605762402689,-0.15596454352332756]","[-1,-1,-1]","[0.18244844713535527,0.024488388790466088]","[-1,-1,-1]","[-0.07952591443704901,0.014565882490383463]","[-1,-1,-1]","[0.08067527127231108,-0.05225417775702675]","[-1,-1,-1]","[-0.15888107743246896,0.05163667469810274]","[1,1,1]","[-0.10843133846764395,-0.051565021230756104]","[-1,-1,-1]","[-0.08048997002482794,0.05705785869709962]","[-1,-1,-1]","[-0.11905753483277022,-0.09781555555070105]","[1,1,1]","[-0.08142293944422292,-0.14636751350223295]","[-1,-1,-1]","[-0.034709114155020634,0.06065539620818412]","[-1,-1,-1]","[0.0986508056471172,0.03709000171990507]","[-1,-1,-1]","[0.14882916258915072,0.0469631198770853]","[-1,-1,-1]","[-0.027233476245071195,-0.14276874829658476]","[1,1,1]","[0.16911108089038188,-0.07950120375022662]","[1,1,1]","[0.060790469684688146,-0.09283237587550795]","[1,1,1]","[0.07106066158575411,0.17907205934040032]","[1,1,1]","[0.03828750273064098,0.08188869378244053]","[1,1,1]","[-0.13229563179429285,0.142875611667251]","[-1,-1,-1]","[-0.012319661917935655,0.024009228324005927]","[1,1,1]","[-0.1588897324604065,-0.016941040836645722]","[-1,-1,-1]","[0.154165856493641,0.11316630457561051]","[-1,-1,-1]","[0.14449237404959653,-0.01927243408018933]","[1,1,1]","[-0.1921744269734725,0.01596022813535284]","[1,1,1]","[0.031315266330612296,0.1589601069666943]","[1,1,1]","[0.09574129736795695,0.1333168407147174]","[-1,-1,-1]","[-0.05709805054366365,-0.056021262254708604]","[1,1,1]","[-0.09371155354757861,0.09892800064325855]","[-1,-1,-1]","[0.031062662548709142,0.0016035993978479603]","[-1,-1,-1]","[-0.03634610936181061,-0.18853027639586262]","[-1,-1,-1]","[-0.19550737954315048,-0.03389158433563713]","[1,1,1]","[0.02,0.02]",125.6112,0,10,10,83,1,,,,,,,
,,,,,,,66ce541cd8da920539a1c3cc,682f2f7d88553c49f64a3327,2025-05-22_15h11.59.453,cuing_paradigm_dot,2024.1.5,Win32,60.24096386,682d573fa47f1360d1451895,,,,,,,,,,,125.6113,126.1114,,,126.3616,127.078,right,0.7085,,,,,,,,,0.4,,,,,,126.1114,126.3616,127.078,"[0.08861940535701239,-0.14487100469101663]","[-1,-1,-1]","[0.016269565622566286,0.044750598113342484]","[1,1,1]","[0.18125434527460405,-0.04561846014602032]","[-1,-1,-1]","[-0.12343223130716818,-0.015219978953098222]","[-1,-1,-1]","[-0.13500239970869746,0.0460775051311484]","[-1,-1,-1]","[-0.017931088178651612,0.08210987244684362]","[-1,-1,-1]","[0.12127485014460615,0.14167587464585188]","[1,1,1]","[-0.07680355276750722,0.10988731358181664]","[1,1,1]","[-0.15712075517696447,0.1027843173334431]","[-1,-1,-1]","[-0.06433746410489635,-0.036005352776197444]","[-1,-1,-1]","[0.04789673267707775,-0.16437232478339572]","[-1,-1,-1]","[-0.07692197066947054,0.02445985177792385]","[1,1,1]","[-0.0035391072360781545,-0.02320097603420373]","[-1,-1,-1]","[0.03463813935114041,-0.06230211411076344]","[1,1,1]","[0.10637182173289056,0.09751528910188698]","[-1,-1,-1]","[0.16233989361241935,0.062126024233167855]","[-1,-1,-1]","[-0.06707735487936906,0.1666115184830339]","[1,1,1]","[-0.17449695002795038,-0.08303306694286242]","[1,1,1]","[0.13443052663302077,-0.08847437079341104]","[-1,-1,-1]","[-0.08687418371651083,-0.09234113900348434]","[1,1,1]","[0.08078791492305093,-0.034908787343650785]","[1,1,1]","[0.13144767267002674,-0.00002274714659352341]","[-1,-1,-1]","[-0.01636049386139834,-0.15520121440210685]","[1,1,1]","[0.07576633639004794,0.047640792961804526]","[-1,-1,-1]","[0.0681357569528338,0.15816025039603782]","[1,1,1]","[0.009471080523927002,-0.09602301054139661]","[-1,-1,-1]","[-0.04085241858125666,0.0024763556403094673]","[1,1,1]","[0.03879265767145805,0.007628551689120047]","[1,1,1]","[-0.18371629878656517,-0.01168849453352008]","[-1,-1,-1]","[0.041439626092319874,0.12419922912740367]","[-1,-1,-1]","[-0.18242098840490512,0.02965185084820114]","[-1,-1,-1]","[0.18990758247592934,0.009523330778235826]","[-1,-1,-1]","[0.02,0.02]",128.178,0,11,11,53,1,,,,,,,
,,,,,,,66ce541cd8da920539a1c3cc,682f2f7d88553c49f64a3327,2025-05-22_15h11.59.453,cuing_paradigm_dot,2024.1.5,Win32,60.24096386,682d573fa47f1360d1451895,,,,,,,,,,,128.1783,128.6778,,,128.928,130.1278,left,1.188,,,,,,,,,0.5,,,,,,128.6778,128.928,130.1279,"[-0.00812176734821761,0.11529191877587489]","[1,1,1]","[-0.15389095021545512,0.04558038377001384]","[-1,-1,-1]","[-0.049317199190657274,0.10382694548609035]","[1,1,1]","[-0.14593276320209642,-0.11416943032551594]","[-1,-1,-1]","[0.02317128509480583,-0.19396164737305954]","[1,1,1]","[0.17609288537101137,0.061706084074662486]","[-1,-1,-1]","[-0.07486189125179629,-0.010755020530591894]","[-1,-1,-1]","[-0.09665739504039744,0.05866522065770571]","[-1,-1,-1]","[0.11366495373710525,0.051558030185249]","[1,1,1]","[0.055753553312305894,-0.1088788169991601]","[-1,-1,-1]","[0.05236800905077311,-0.037642887394294354]","[1,1,1]","[0.014387475040666333,0.16114456676019645]","[1,1,1]","[0.09529505404104237,-0.14095136524952442]","[-1,-1,-1]","[0.08495363984752566,0.08694382861948892]","[1,1,1]","[0.020030045818278427,0.04806087255894282]","[1,1,1]","[-0.051770398302583336,0.18003485533801294]","[1,1,1]","[0.14540572325241255,-0.01894128792517158]","[-1,-1,-1]","[-0.09285117956984006,0.12087551090728925]","[1,1,1]","[-0.026677548068355934,-0.02444863131059959]","[-1,-1,-1]","[-0.12931964392389847,0.14965603728152838]","[-1,-1,-1]","[0.02218760456860877,0.007417051904362479]","[-1,-1,-1]","[0.04492206730908792,0.08743472306425341]","[-1,-1,-1]","[-0.012567774936169113,-0.14627923944910473]","[1,1,1]","[0.1198804419546467,-0.06701949278862056]","[1,1,1]","[-0.04141264471067803,0.039225031911692985]","[-1,-1,-1]","[-0.06879694930480647,-0.1263893668369545]","[1,1,1]","[0.07461188066543084,-0.0016581975367090213]","[-1,-1,-1]","[0.17907228020603022,0.014199578180139309]","[1,1,1]","[0.06127730218650177,0.1561109649663831]","[1,1,1]","[-0.1304063363296552,-0.02715116674420146]","[-1,-1,-1]","[-0.08927411052578195,-0.06401060981474122]","[-1,-1,-1]","[-0.1416651917551627,-0.06571334804634202]","[1,1,1]","[0.02,0.02]",131.2278,0,12,12,95,1,,,,,,,
,,,,,,,66ce541cd8da920539a1c3cc,682f2f7d88553c49f64a3327,2025-05-22_15h11.59.453,cuing_paradigm_dot,2024.1.5,Win32,60.24096386,682d573fa47f1360d1451895,,,,,,,,,,,131.228,131.7277,,,131.9782,132.9945,left,1.0069,,,,,,,,,0.45,,,,,,131.7278,131.9782,132.9945,"[0.0070445533212230805,0.06457105829646367]","[1,1,1]","[-0.12436247235211324,0.06010184570115212]","[1,1,1]","[0.07636279695032382,-0.12038819966845755]","[-1,-1,-1]","[0.022398846544786466,-0.009899829038650354]","[1,1,1]","[-0.1464414003057555,0.026362065340550928]","[1,1,1]","[0.03261759743326485,-0.06386066283838919]","[-1,-1,-1]","[-0.035134101923386084,-0.11938425735928647]","[-1,-1,-1]","[0.07815351473673456,0.09594683491122336]","[1,1,1]","[-0.09649540844986727,0.16288822609962342]","[-1,-1,-1]","[-0.13665003446556126,-0.10870052845137655]","[1,1,1]","[0.03738839900500903,0.17460024405497016]","[-1,-1,-1]","[-0.013822803910983183,-0.0838066618007871]","[1,1,1]","[0.11145860802083454,0.012505984628454562]","[1,1,1]","[0.13607178548397275,-0.07080302105592]","[-1,-1,-1]","[-0.0737381159598836,-0.14910363828834022]","[1,1,1]","[0.11360287859562332,0.074233075358411]","[-1,-1,-1]","[-0.0835459068867018,-0.1049894488638086]","[-1,-1,-1]","[-0.08294166379079428,0.06335477674790412]","[-1,-1,-1]","[-0.08542612488922602,-0.046577869038752655]","[1,1,1]","[-0.021183764365251885,-0.018471440281927737]","[-1,-1,-1]","[0.007210138946094305,-0.18412040776841948]","[1,1,1]","[0.17775739059688359,-0.06732155964283539]","[1,1,1]","[-0.04404345636012233,0.15416727349046125]","[1,1,1]","[0.19423771945559454,-0.0011099401659682615]","[-1,-1,-1]","[-0.188335829342927,0.06573598952621207]","[-1,-1,-1]","[0.1546432297611659,0.037040712813286525]","[-1,-1,-1]","[0.18401520335736274,0.06473162477665242]","[-1,-1,-1]","[-0.08514264097233631,0.11391880723310924]","[-1,-1,-1]","[0.08803308025168512,-0.07268114773414548]","[1,1,1]","[-0.03905645698084077,-0.18262344168388417]","[-1,-1,-1]","[0.14227123257823274,-0.12401350649123469]","[-1,-1,-1]","[-0.02519100600697278,0.02475451413406704]","[-1,-1,-1]","[0.02,0.02]",134.0945,0,13,13,61,1,,,,,,,
,,,,,,,66ce541cd8da920539a1c3cc,682f2f7d88553c49f64a3327,2025-05-22_15h11.59.453,cuing_paradigm_dot,2024.1.5,Win32,60.24096386,682d573fa47f1360d1451895,,,,,,,,,,,134.0947,134.5944,,,134.8448,135.9279,left,1.0656,,,,,,,,,0.6,,,,,,134.5944,134.8448,135.9279,"[-0.003595872842461539,-0.1134021796761809]","[1,1,1]","[0.0840213566223002,-0.08306220994031586]","[1,1,1]","[0.055416482217408386,0.12009629061875543]","[1,1,1]","[0.052383860729193724,0.015397605550243755]","[-1,-1,-1]","[-0.01768842662069347,0.12095036035282364]","[1,1,1]","[-0.03126146588054742,0.18384268850341334]","[1,1,1]","[-0.06637722762662346,-0.13204601785269598]","[1,1,1]","[0.15370978962655557,0.1272719256088172]","[-1,-1,-1]","[0.024911548146863485,-0.15396072768609234]","[1,1,1]","[-0.06400168152388666,0.12491628780325184]","[-1,-1,-1]","[-0.07170008106613318,0.009821237323651252]","[-1,-1,-1]","[0.0670517579164772,-0.035141321048981856]","[-1,-1,-1]","[0.022892861354006793,0.17774270280294469]","[1,1,1]","[-0.03471689807923459,-0.16968288844447788]","[1,1,1]","[-0.13473039612762988,-0.0023668169737455385]","[-1,-1,-1]","[0.02561163318718709,-0.058697785258243255]","[-1,-1,-1]","[-0.012438181636351964,0.05904667627151312]","[-1,-1,-1]","[-0.06354577015520235,-0.07339410412732357]","[-1,-1,-1]","[-0.1380425489967529,0.1024294062194875]","[1,1,1]","[-0.18716042950819045,0.028231174348272135]","[-1,-1,-1]","[-0.12433751244138844,-0.05397698218919884]","[-1,-1,-1]","[-0.12094091661622625,-0.13912533221187307]","[1,1,1]","[0.1537853660403668,-0.07302902227655612]","[1,1,1]","[0.08633652654308753,-0.1801422581941097]","[1,1,1]","[0.0990041927014688,0.1281466352499424]","[-1,-1,-1]","[-0.06305493984679049,0.07047925833220607]","[1,1,1]","[0.03934292543008091,0.06244361107523319]","[1,1,1]","[0.0774892226664276,0.07647759529180469]","[-1,-1,-1]","[0.18834097306126846,0.017387394891490108]","[1,1,1]","[-0.0942216908973993,-0.1735413816667616]","[1,1,1]","[-0.15376999808974998,-0.11051269503764503]","[1,1,1]","[0.12022892563451379,0.0849407559532327]","[1,1,1]","[0.02,0.02]",137.0278,0,14,14,161,1,,,,,,,
,,,,,,,66ce541cd8da920539a1c3cc,682f2f7d88553c49f64a3327,2025-05-22_15h11.59.453,cuing_paradigm_dot,2024.1.5,Win32,60.24096386,682d573fa47f1360d1451895,,,,,,,,,,,137.028,137.5278,,,137.7779,138.3946,right,0.5982,,,,,,,,,0.1,,,,,,137.5279,137.7779,138.3947,"[0.03991675649285925,-0.10399928210646872]","[-1,-1,-1]","[-0.06987590732143313,0.06380382095980004]","[1,1,1]","[-0.1712810051899308,0.09417461941036039]","[-1,-1,-1]","[-0.0018373764883534178,0.06087077652135895]","[-1,-1,-1]","[0.1781331871522511,0.07781744788365356]","[1,1,1]","[-0.07728649525621542,-0.04394219287057363]","[-1,-1,-1]","[0.0675024416409287,-0.028695448864949426]","[-1,-1,-1]","[-0.012119816854755522,0.12156648986504948]","[-1,-1,-1]","[0.19343728955345557,-0.02249326956697357]","[-1,-1,-1]","[0.06621976194622968,0.09060758937082161]","[-1,-1,-1]","[-0.19958171811249945,-0.010761451382174035]","[-1,-1,-1]","[0.03211739825780629,-0.18274088291831275]","[-1,-1,-1]","[0.029490584704203175,-0.04643402488861986]","[-1,-1,-1]","[-0.003762251409811296,-0.09499412440813726]","[-1,-1,-1]","[-0.1440167668578444,-0.03306245290786152]","[-1,-1,-1]","[0.04466672061431161,0.020601409146152588]","[-1,-1,-1]","[-0.11071044256393117,0.07626117576649502]","[-1,-1,-1]","[0.1472245097356536,-0.0695684433830785]","[-1,-1,-1]","[0.017795507781963565,0.16709398650561]","[-1,-1,-1]","[-0.1394545277437316,-0.09617661242234275]","[-1,-1,-1]","[-0.04392083890184705,-0.18112374252054428]","[-1,-1,-1]","[-0.07434018855970297,0.13013363630175095]","[-1,-1,-1]","[0.10964826586997793,0.14070470086862216]","[-1,-1,-1]","[-0.09277285233828089,-0.14641407152411795]","[1,1,1]","[0.10373364360550678,-0.004490786192477735]","[-1,-1,-1]","[-0.13756607251746317,0.021701349582903037]","[-1,-1,-1]","[-0.018110631394667613,-0.1348510160704044]","[-1,-1,-1]","[-0.046411326109375144,-0.10040227616968894]","[-1,-1,-1]","[-0.019352678980811052,0.02279136346409639]","[-1,-1,-1]","[0.10907749139696711,-0.0466730392442964]","[-1,-1,-1]","[0.13437880786683315,0.0932284212762068]","[-1,-1,-1]","[0.07224173939782338,0.15903792007354137]","[-1,-1,-1]","[0.02,0.02]",139.4944,0,15,15,3,1,,,,,,,
,,,,,,,66ce541cd8da920539a1c3cc,682f2f7d88553c49f64a3327,2025-05-22_15h11.59.453,cuing_paradigm_dot,2024.1.5,Win32,60.24096386,682d573fa47f1360d1451895,,,,,,,,,,,139.4946,139.9944,,,140.2446,141.0779,left,0.8218,,,,,,,,,0.55,,,,,,139.9944,140.2446,141.0779,"[-0.11478482363435001,-0.15655388314417615]","[1,1,1]","[-0.14113699099597202,-0.07323295947314458]","[1,1,1]","[0.13760012879534214,-0.14234791327904417]","[1,1,1]","[0.10227828736123125,0.04497091898305417]","[1,1,1]","[-0.05814465927932474,0.126565470626522]","[-1,-1,-1]","[0.04992432205448952,-0.0710893901217413]","[-1,-1,-1]","[0.02167959288314215,-0.16393740494174894]","[1,1,1]","[0.17002644262122715,0.08751115319297549]","[1,1,1]","[0.020162776468700582,0.1292904113196794]","[1,1,1]","[0.09443137584531372,-0.08613561047826147]","[1,1,1]","[0.00021305600309919884,0.1839929897053908]","[-1,-1,-1]","[-0.05514403121892676,0.010926270579049551]","[1,1,1]","[0.008184931094390027,-0.0458567022447063]","[1,1,1]","[-0.14985331814911473,0.02445058410911266]","[1,1,1]","[0.011043631610451715,0.02728059780613702]","[1,1,1]","[-0.09047183333905831,-0.07273247205022942]","[-1,-1,-1]","[-0.04419041876594954,-0.12701238747392926]","[-1,-1,-1]","[0.0746978425911271,0.12425872701196376]","[-1,-1,-1]","[-0.09229059943197351,-0.11323861121780773]","[-1,-1,-1]","[-0.19741936186618572,-0.03149938669098012]","[-1,-1,-1]","[-0.04231070755567436,0.17138682710854958]","[-1,-1,-1]","[-0.09950485054856521,0.07113835454611112]","[-1,-1,-1]","[0.042392671061651184,0.08950329189504214]","[1,1,1]","[0.08825201195466667,-0.04623095852866841]","[1,1,1]","[0.04919650661508414,0.17975225832908437]","[-1,-1,-1]","[0.13942565160106524,0.12252351323425806]","[-1,-1,-1]","[-0.03856378902425273,-0.051465472797931164]","[1,1,1]","[0.07365299828257592,-0.164072380717961]","[-1,-1,-1]","[0.037527196141441545,-0.11607821211843541]","[1,1,1]","[-0.10287623826380426,0.15390246823227927]","[-1,-1,-1]","[0.13654728935240015,0.0020647165149553833]","[1,1,1]","[-0.03487706828906259,0.06612624150333027]","[1,1,1]","[0.02,0.02]",142.1782,0,16,16,129,1,,,,,,,
,,,,,,,66ce541cd8da920539a1c3cc,682f2f7d88553c49f64a3327,2025-05-22_15h11.59.453,cuing_paradigm_dot,2024.1.5,Win32,60.24096386,682d573fa47f1360d1451895,,,,,,,,,,,142.1785,142.6778,,,142.9281,143.6946,right,0.7568,,,,,,,,,0.4,,,,,,142.6778,142.9281,143.6946,"[0.01936933698344209,-0.10192409275377033]","[-1,-1,-1]","[0.07787079868751742,-0.13954822267007383]","[-1,-1,-1]","[0.11028618692890763,0.04786168420057147]","[1,1,1]","[0.11040712592139962,-0.04414487553775784]","[-1,-1,-1]","[-0.12799651921930855,-0.06306112845895435]","[1,1,1]","[0.0033079169572919932,0.027693788661144074]","[-1,-1,-1]","[-0.01585942658089487,-0.12251124478166016]","[1,1,1]","[-0.1392039141236737,0.06482219444995056]","[1,1,1]","[-0.036436913600948584,0.13067315713536465]","[-1,-1,-1]","[-0.19306609119947554,-0.006827915165298082]","[1,1,1]","[-0.17585209367852347,-0.061639716054985194]","[-1,-1,-1]","[-0.07424690205541246,-0.0934444663586844]","[1,1,1]","[-0.06546986715127173,-0.030337309272696237]","[-1,-1,-1]","[0.14098862664403833,0.11838662828892534]","[-1,-1,-1]","[-0.055290262362814445,0.1757891807386915]","[1,1,1]","[0.09272289763135991,0.14021338118938292]","[-1,-1,-1]","[0.12145785672200667,-0.12848605463487991]","[-1,-1,-1]","[0.05574275280248241,-0.17893423477573042]","[1,1,1]","[0.10822409641775294,0.0037288246472444476]","[-1,-1,-1]","[-0.008880760339456461,0.18647252896055896]","[1,1,1]","[-0.06057425291077123,0.03364408191998091]","[-1,-1,-1]","[0.054203522182893954,-0.08133893504850369]","[-1,-1,-1]","[-0.18012378562227596,0.04352719914027899]","[1,1,1]","[-0.013327724518768014,-0.060654530595111195]","[1,1,1]","[0.06070030126674244,0.038767846521764605]","[1,1,1]","[-0.11168129731559656,0.15617886507856255]","[-1,-1,-1]","[0.028306011538140982,0.12702983066645238]","[-1,-1,-1]","[0.13784538976129748,-0.08759260652872647]","[-1,-1,-1]","[-0.16553558269130422,0.1074979580207785]","[-1,-1,-1]","[0.17402867593430058,0.012682689373881886]","[-1,-1,-1]","[0.0481508691395314,-0.011501147144411361]","[1,1,1]","[0.16315299595767302,-0.04043602846352769]","[-1,-1,-1]","[0.02,0.02]",144.7945,0,17,17,36,1,,,,,,,
,,,,,,,66ce541cd8da920539a1c3cc,682f2f7d88553c49f64a3327,2025-05-22_15h11.59.453,cuing_paradigm_dot,2024.1.5,Win32,60.24096386,682d573fa47f1360d1451895,,,,,,,,,,,144.7947,145.2945,,,145.5446,147.0445,,,,,,,,,,,0.45,,,,,,145.2945,145.5445,147.0445,"[0.09168793889578972,-0.12754193312035647]","[1,1,1]","[0.023291126483685858,-0.0899048935636363]","[1,1,1]","[-0.032570074176502366,-0.08828351441755795]","[-1,-1,-1]","[-0.00039180386836631866,0.09145296761261808]","[1,1,1]","[0.115514921076454,0.016315617092784944]","[-1,-1,-1]","[0.05484708906749366,0.17721531938110666]","[1,1,1]","[-0.04918499294627824,0.13426031608217479]","[1,1,1]","[-0.03085928411291635,0.1730810294463678]","[1,1,1]","[0.0047270812602503605,-0.14331624238837945]","[-1,-1,-1]","[-0.08629045531103831,-0.030089151980575355]","[1,1,1]","[-0.15821867882044435,-0.09671716136173428]","[-1,-1,-1]","[0.04020147946499253,0.13651329012576519]","[1,1,1]","[-0.09264067805431489,-0.1335390454407308]","[1,1,1]","[0.0846663281115548,0.1066899067722936]","[-1,-1,-1]","[-0.07915944396857633,-0.09295691863627936]","[-1,-1,-1]","[-0.03580376247186677,-0.13058523082980733]","[-1,-1,-1]","[-0.1524859876667037,-0.025596855500586164]","[1,1,1]","[0.18229775829845138,-0.04428527041117995]","[-1,-1,-1]","[-0.09253646216616108,0.03449717002398693]","[-1,-1,-1]","[0.05888455526259367,0.05224932651627329]","[-1,-1,-1]","[0.06349424932014326,-0.01901134295670353]","[-1,-1,-1]","[0.12985196683488442,0.08255791083439018]","[-1,-1,-1]","[0.017529528250441323,0.016473357918881014]","[-1,-1,-1]","[-0.16915283343534804,0.0981289045708832]","[1,1,1]","[-0.040965956683903536,0.013257410337068256]","[-1,-1,-1]","[-0.08428162818378071,0.07915121693454548]","[-1,-1,-1]","[-0.000001233293831427898,0.14248539772967272]","[1,1,1]","[-0.0010276967810911493,-0.03431989526576085]","[-1,-1,-1]","[-0.17164851052727928,0.022187163356879914]","[1,1,1]","[-0.05363104220606878,-0.18961798007086095]","[-1,-1,-1]","[0.11544978736103338,0.16235542733276345]","[-1,-1,-1]","[-0.08503698106069542,0.15319896868560795]","[1,1,1]","[0.02,0.02]",148.1445,0,18,18,63,1,,,,,,,
,,,,,,,66ce541cd8da920539a1c3cc,682f2f7d88553c49f64a3327,2025-05-22_15h11.59.453,cuing_paradigm_dot,2024.1.5,Win32,60.24096386,682d573fa47f1360d1451895,,,,,,,,,,,148.1446,148.6445,,,148.8947,149.678,right,0.7686,,,,,,,,,0.4,,,,,,148.6445,148.8946,149.678,"[-0.1458582533564137,0.014082098437522539]","[-1,-1,-1]","[0.08057329957652126,0.14862579282366764]","[1,1,1]","[0.025956837938104774,-0.0909349984028173]","[-1,-1,-1]","[0.06633165575858954,0.09000876823738117]","[-1,-1,-1]","[-0.06886192875704,-0.00812081522793435]","[-1,-1,-1]","[-0.05935263278252501,0.12868533584191427]","[1,1,1]","[-0.12545209704529414,-0.0750880545047759]","[-1,-1,-1]","[0.11618863027675308,0.1252427958832021]","[1,1,1]","[-0.019898500473145554,0.09468056295875493]","[-1,-1,-1]","[-0.18197859922634183,0.04067672674590313]","[1,1,1]","[0.07390908628823491,-0.061241766456085686]","[-1,-1,-1]","[-0.14331730784600724,0.05651404489879787]","[-1,-1,-1]","[0.03695234476288356,0.0010981785997849066]","[-1,-1,-1]","[0.02493457846313937,0.15977303862636455]","[-1,-1,-1]","[0.161517371691882,-0.10077101526214753]","[-1,-1,-1]","[-0.014159704323684597,0.15068461454325466]","[-1,-1,-1]","[-0.13157264578410383,0.13689221799474127]","[1,1,1]","[-0.01381742228019723,0.03848388651771294]","[1,1,1]","[-0.0727729083098725,-0.13184443883359015]","[1,1,1]","[0.12686760062858418,0.05372597136003674]","[1,1,1]","[-0.128902747847593,-0.1441472597763068]","[-1,-1,-1]","[0.15802626647899842,-0.023434331404652765]","[-1,-1,-1]","[0.1932205664837066,0.013946926532282309]","[1,1,1]","[-0.022983886312705343,-0.14965132160583872]","[-1,-1,-1]","[-0.038486184653769996,-0.1111753959021976]","[1,1,1]","[-0.18380327304618685,-0.047745344125384864]","[-1,-1,-1]","[-0.08819056080508053,0.07361963222725795]","[-1,-1,-1]","[0.027177308662064522,-0.19805325407569888]","[1,1,1]","[0.12292753691129925,-0.07157762585530084]","[-1,-1,-1]","[0.10234087128495567,-0.11443380229306002]","[1,1,1]","[0.009718868795745857,-0.05062339950981328]","[1,1,1]","[0.02151391235305597,0.11495145923272665]","[-1,-1,-1]","[0.02,0.02]",150.7778,0,19,19,58,1,,,,,,,
,,,,,,,66ce541cd8da920539a1c3cc,682f2f7d88553c49f64a3327,2025-05-22_15h11.59.453,cuing_paradigm_dot,2024.1.5,Win32,60.24096386,682d573fa47f1360d1451895,,,,,,,,,,,150.778,151.2778,,,151.5279,152.2114,right,0.6679,,,,,,,,,0.4,,,,,,151.2778,151.5279,152.2115,"[-0.09549185886920185,-0.0620855750007853]","[-1,-1,-1]","[-0.18132273717199432,0.033223109502803536]","[-1,-1,-1]","[-0.12727418816092975,0.07853647116521544]","[-1,-1,-1]","[0.09503480331959954,-0.16987788700858686]","[-1,-1,-1]","[0.14956863728180408,-0.017305240035163524]","[-1,-1,-1]","[0.026894240472157858,-0.048241912525489504]","[1,1,1]","[0.0009951047874418475,-0.008538031566297047]","[-1,-1,-1]","[0.04626201603622147,0.17198040605553722]","[-1,-1,-1]","[-0.05694197573179059,0.05589323993749919]","[-1,-1,-1]","[-0.0061040925233280625,0.1343916107148069]","[1,1,1]","[0.15260194006019875,-0.08415935604751092]","[1,1,1]","[-0.11308970070400715,0.1389042396437515]","[-1,-1,-1]","[-0.05822140472719111,-0.002989457871895474]","[1,1,1]","[-0.05294442399768745,0.18776949513751445]","[1,1,1]","[0.1444820950575917,0.06611022198607575]","[-1,-1,-1]","[-0.02484562818365434,-0.10618894048467377]","[-1,-1,-1]","[0.04810823970807224,-0.11607937350270865]","[-1,-1,-1]","[0.11943846857524487,0.02297893872351129]","[1,1,1]","[-0.1375534794708081,-0.11455592916083604]","[-1,-1,-1]","[0.03523747606481171,0.04986559755573987]","[-1,-1,-1]","[-0.0203574140751887,0.07512790519189105]","[1,1,1]","[-0.032467829390916365,-0.1688487374972437]","[1,1,1]","[-0.089016124384794,-0.15838276804316437]","[1,1,1]","[-0.10077888757218795,0.01490619658558452]","[1,1,1]","[-0.17605090603086307,-0.056705351728225814]","[-1,-1,-1]","[0.09246024288368979,-0.03547200233030319]","[1,1,1]","[-0.19861011641966722,-0.01305878031016315]","[-1,-1,-1]","[0.17918915013944786,0.039190139492664644]","[1,1,1]","[-0.07226909937965943,0.10355494288982418]","[-1,-1,-1]","[-0.022323786299148968,0.025276188739303512]","[-1,-1,-1]","[-0.15496715481222353,-0.004261316966018309]","[1,1,1]","[0.037973316725813146,-0.19372217575868445]","[-1,-1,-1]","[0.02,0.02]",153.3113,0,20,20,49,1,,,,,,,
,,,,,,,66ce541cd8da920539a1c3cc,682f2f7d88553c49f64a3327,2025-05-22_15h11.59.453,cuing_paradigm_dot,2024.1.5,Win32,60.24096386,682d573fa47f1360d1451895,,,,,,,,,,,153.3115,153.8112,,,154.0613,154.6945,left,0.6188,,,,,,,,,0.9,,,,,,153.8112,154.0613,154.6945,"[0.021792137358214,-0.088633959737381]","[1,1,1]","[-0.0800792032489094,0.18127577782619603]","[1,1,1]","[-0.08308458247254087,-0.139122372798863]","[1,1,1]","[0.11333546635474367,-0.06821457874263503]","[1,1,1]","[-0.11204411000863694,-0.050210362530906924]","[1,1,1]","[0.013748716754864653,0.19686553218110908]","[-1,-1,-1]","[0.003638256976392148,0.06647606787124634]","[1,1,1]","[-0.037345320963469424,0.028112879087956084]","[1,1,1]","[-0.1697754869352734,-0.04083580556449163]","[1,1,1]","[0.008175165261630072,-0.1642332941410459]","[1,1,1]","[-0.024949934448261175,-0.14058331869146773]","[1,1,1]","[0.0999702217204171,0.08643488816047798]","[1,1,1]","[0.059782113855379106,-0.07514196280490246]","[1,1,1]","[-0.1546202235783596,-0.09170179715266519]","[1,1,1]","[0.05578411618930369,-0.029715219496049956]","[1,1,1]","[0.07421340363271157,-0.12103616400688724]","[1,1,1]","[0.00012510379440545586,-0.04333462329520624]","[1,1,1]","[-0.10946388713964507,0.125772026888212]","[1,1,1]","[0.12012996931950849,0.12489808945723994]","[1,1,1]","[-0.12125779532188227,0.06890069018802149]","[1,1,1]","[-0.035240226400813944,-0.09786280805342597]","[1,1,1]","[0.11863494973348858,0.015042634899844224]","[1,1,1]","[-0.08656724414084545,0.04224918109384698]","[1,1,1]","[0.07758661114879344,0.1401906886858523]","[1,1,1]","[-0.06928439280515832,0.09357397954946371]","[1,1,1]","[-0.06450507668413082,-0.053394582051133815]","[-1,-1,-1]","[-0.030860465721349626,0.16606135805295313]","[1,1,1]","[0.05970568532942053,0.0842123705166263]","[1,1,1]","[0.185403391894673,-0.05029755124407305]","[1,1,1]","[0.19019619348492092,0.022325845471271245]","[1,1,1]","[0.09243329506378217,-0.17281906282373125]","[1,1,1]","[-0.16162414494405464,0.10307323888920107]","[-1,-1,-1]","[0.02,0.02]",155.7948,0,21,21,193,1,,,,,,,
,,,,,,,66ce541cd8da920539a1c3cc,682f2f7d88553c49f64a3327,2025-05-22_15h11.59.453,cuing_paradigm_dot,2024.1.5,Win32,60.24096386,682d573fa47f1360d1451895,,,,,,,,,,,155.795,156.2946,,,156.5448,157.6612,left,1.1115,,,,,,,,,0.4,,,,,,156.2947,156.5447,157.6612,"[-0.1583848936008109,0.07078189567809443]","[-1,-1,-1]","[0.10932714333194302,0.09441140200819098]","[1,1,1]","[0.08638384351192285,0.008964321606377019]","[1,1,1]","[-0.06792997273782013,0.03429349227246548]","[-1,-1,-1]","[-0.07804230890563471,-0.18211962152780733]","[-1,-1,-1]","[0.025051280053492123,0.17951805104294255]","[-1,-1,-1]","[-0.011994070733174501,0.05053051931422214]","[-1,-1,-1]","[0.04149982269124848,-0.1275586193825304]","[1,1,1]","[0.1445940401401595,-0.0036890362055602226]","[-1,-1,-1]","[0.10926027249941145,0.1472766248921787]","[1,1,1]","[-0.12570532900021708,0.026886587213028498]","[1,1,1]","[-0.12686046259769587,0.14592710129986566]","[-1,-1,-1]","[0.03126412535012065,0.021223476158062575]","[1,1,1]","[0.032925859671912985,0.12795593527520127]","[1,1,1]","[-0.08274180433395655,-0.1229338661919742]","[-1,-1,-1]","[0.17881960690296062,-0.07196738197719252]","[-1,-1,-1]","[-0.12470786971851912,-0.12067570557785064]","[1,1,1]","[-0.03557262666135833,0.17903701314533554]","[-1,-1,-1]","[0.1587947581593264,0.08072432390447015]","[-1,-1,-1]","[-0.07154808646894412,-0.056246601948073564]","[1,1,1]","[-0.06087393176224318,0.1404302007283522]","[1,1,1]","[-0.11271987150890225,0.06644785879753674]","[-1,-1,-1]","[0.002707206215431023,-0.11303105297749341]","[-1,-1,-1]","[-0.15269216334336308,-0.019257308962236704]","[1,1,1]","[-0.03755617300928391,-0.03064278641766014]","[-1,-1,-1]","[-0.18886097723816148,0.019601241125263118]","[1,1,1]","[0.04143978791742259,-0.1691518909997314]","[-1,-1,-1]","[0.03294338229638057,-0.07083089025928267]","[-1,-1,-1]","[0.08819839340810355,-0.0365968098267548]","[-1,-1,-1]","[-0.16346555429982804,-0.05796324978008426]","[1,1,1]","[-0.007167832646025415,-0.1675700075832861]","[-1,-1,-1]","[-0.12106889162088563,-0.050569343749336054]","[-1,-1,-1]","[0.02,0.02]",158.7611,0,22,22,41,1,,,,,,,
,,,,,,,66ce541cd8da920539a1c3cc,682f2f7d88553c49f64a3327,2025-05-22_15h11.59.453,cuing_paradigm_dot,2024.1.5,Win32,60.24096386,682d573fa47f1360d1451895,,,,,,,,,,,158.7613,159.2611,,,159.5113,160.2278,left,0.7049,,,,,,,,,0.55,,,,,,159.2611,159.5113,160.2278,"[0.0623716592090673,-0.18346800260217344]","[1,1,1]","[0.13456012757833447,-0.03988789266051376]","[1,1,1]","[0.13236645538623562,-0.1039138150226786]","[-1,-1,-1]","[0.009167527392798785,0.08175785878054018]","[-1,-1,-1]","[0.06325761385158285,0.09766155036245741]","[-1,-1,-1]","[-0.16964747607459463,-0.07413252395575477]","[1,1,1]","[-0.06694236990201173,-0.11906002508855626]","[-1,-1,-1]","[0.0486487270269935,0.16719510696672607]","[-1,-1,-1]","[0.12697620713027064,0.060199923533259]","[1,1,1]","[-0.16204433495721476,0.05901750899800934]","[-1,-1,-1]","[-0.02754114684910205,-0.13571982814858735]","[-1,-1,-1]","[0.16815288900342296,0.03374369796294889]","[-1,-1,-1]","[-0.1430707510222915,-0.10942816972267316]","[1,1,1]","[0.06545662982491275,-0.13659919516623328]","[1,1,1]","[0.11501432432131271,0.14183265246801413]","[1,1,1]","[-0.08268366986409365,0.12936423068131345]","[-1,-1,-1]","[0.04217450939949023,0.03742762540554966]","[1,1,1]","[-0.02408222005793197,-0.19512262472209102]","[1,1,1]","[-0.0063777692859187255,-0.016600574819505012]","[1,1,1]","[0.04144497081557573,-0.03280630910302773]","[-1,-1,-1]","[0.11214277820789276,-0.14199573328246917]","[1,1,1]","[-0.16784793920071533,-0.015520674358090486]","[-1,-1,-1]","[-0.0881704724764056,-0.16989998177526255]","[1,1,1]","[0.061056610700544016,-0.0860639349366782]","[-1,-1,-1]","[-0.12377931909490515,-0.0015488032658591336]","[-1,-1,-1]","[0.12139756780974181,0.01020507929036313]","[1,1,1]","[0.005634552427368211,0.14156427631694268]","[1,1,1]","[-0.001877900332577269,0.026144637838755494]","[-1,-1,-1]","[-0.09841084780857647,-0.09419915310224561]","[1,1,1]","[-0.07543161851408262,0.07298746797709996]","[1,1,1]","[-0.03724620696064596,0.15889196850741988]","[1,1,1]","[0.08506528850163296,0.05692009930187904]","[1,1,1]","[0.02,0.02]",161.3278,0,23,23,132,1,,,,,,,
,,,,,,,66ce541cd8da920539a1c3cc,682f2f7d88553c49f64a3327,2025-05-22_15h11.59.453,cuing_paradigm_dot,2024.1.5,Win32,60.24096386,682d573fa47f1360d1451895,,,,,,,,,,,161.3279,161.8278,,,162.078,162.7278,left,0.6446,,,,,,,,,0.5,,,,,,161.8278,162.078,162.7278,"[-0.020393960318123253,0.1631859442566195]","[1,1,1]","[-0.1389645823436285,0.06736680616750187]","[-1,-1,-1]","[0.08654631312901348,-0.07629579594608614]","[1,1,1]","[-0.02530033363441162,-0.16854938185932475]","[1,1,1]","[0.011354557154057521,-0.037542232040477214]","[-1,-1,-1]","[0.07009412764497314,0.1856231633899384]","[1,1,1]","[0.08593287278913554,0.04211683899674363]","[-1,-1,-1]","[0.16325908951765483,0.08954017030875937]","[-1,-1,-1]","[0.157022565951688,-0.02974849449019784]","[1,1,1]","[0.025827652287086056,0.011486287719130888]","[1,1,1]","[0.10744568864234119,0.07590021963492355]","[-1,-1,-1]","[-0.018295164734898544,0.08195823516505138]","[1,1,1]","[-0.09606475391391824,0.0922154679960644]","[1,1,1]","[-0.06339314424589082,-0.15299446943651676]","[1,1,1]","[-0.1959168135305464,-0.0027844953246443224]","[-1,-1,-1]","[-0.07746135854857483,0.1346910313612003]","[1,1,1]","[-0.13786436998795212,-0.1388959136925015]","[-1,-1,-1]","[0.07641203026489626,-0.010349578972172114]","[1,1,1]","[-0.0587372824667,0.060093206884669806]","[-1,-1,-1]","[-0.03873361353022069,0.00208224634832047]","[-1,-1,-1]","[-0.10221744174306518,0.01512094238440425]","[-1,-1,-1]","[-0.07224910022494717,-0.02098199908883362]","[-1,-1,-1]","[-0.1435699731472139,0.005731051610309422]","[1,1,1]","[0.11478159601727776,0.010534834708380673]","[-1,-1,-1]","[0.0294622467322122,-0.13654006746521075]","[1,1,1]","[-0.10822597845742037,-0.09597932431356426]","[-1,-1,-1]","[0.04691912549342547,0.1291025491551736]","[-1,-1,-1]","[-0.059398473666228586,0.18154421045777566]","[-1,-1,-1]","[0.07832372658752776,-0.12058969197903378]","[1,1,1]","[-0.011471651025180864,-0.12645824431760155]","[-1,-1,-1]","[0.11126634903888497,-0.032425797785309164]","[1,1,1]","[-0.15147766838074123,-0.047890131727657506]","[1,1,1]","[0.02,0.02]",163.8278,0,24,24,104,1,,,,,,,
,,,,,,,66ce541cd8da920539a1c3cc,682f2f7d88553c49f64a3327,2025-05-22_15h11.59.453,cuing_paradigm_dot,2024.1.5,Win32,60.24096386,682d573fa47f1360d1451895,,,,,,,,,,,163.8281,164.328,,,164.5781,165.1446,left,0.5611,,,,,,,,,0.9,,,,,,164.328,164.5781,165.1446,"[0.06662500039820146,-0.020334387514624224]","[1,1,1]","[-0.16449410674579573,0.03813518566897648]","[1,1,1]","[-0.10520676911478362,0.07944095814125768]","[1,1,1]","[0.18745020090327427,-0.059855746659401604]","[1,1,1]","[-0.05410274183886836,-0.07928146383237752]","[1,1,1]","[0.02682855598221664,0.17402626453537015]","[1,1,1]","[-0.13143537599493477,-0.1315090880241417]","[1,1,1]","[0.00020359145244652386,0.06697366756425899]","[1,1,1]","[0.19386246766945195,0.006732495631600368]","[1,1,1]","[0.055995189648714645,0.13430748518075822]","[1,1,1]","[0.11436417026412518,-0.00627383683700659]","[1,1,1]","[-0.040165415486910584,0.0067944379498638945]","[1,1,1]","[0.023473704342961695,-0.08140740858703333]","[1,1,1]","[-0.11490552010279116,-0.021673031956782222]","[1,1,1]","[0.060733021185884306,0.08295996073685084]","[-1,-1,-1]","[0.006682718556699467,-0.03460827615637455]","[-1,-1,-1]","[0.13227309315318064,-0.05685343869822482]","[1,1,1]","[0.12709074641506665,0.05512422022970853]","[1,1,1]","[-0.1864704857004279,-0.011759742508551935]","[1,1,1]","[0.16917006952926358,0.06978863763782592]","[1,1,1]","[0.060456319109094894,-0.10042884187830553]","[1,1,1]","[0.09528915791320712,-0.13660250150335088]","[1,1,1]","[-0.09998121703968184,0.12497015007398059]","[1,1,1]","[0.09373483469774137,0.14764085176461206]","[1,1,1]","[-0.17051187495362913,-0.0961415494963389]","[-1,-1,-1]","[-0.08095056455333072,0.01358420298748092]","[1,1,1]","[0.16232622656136267,-0.023513326665706175]","[1,1,1]","[-0.07015612088268622,0.15426010509670127]","[1,1,1]","[-0.14190388492302092,-0.06087284694528363]","[1,1,1]","[0.024178876415563277,-0.1851523053768433]","[1,1,1]","[-0.1555827222060709,0.12166639597651811]","[1,1,1]","[0.10343545750677802,-0.09308553005468531]","[1,1,1]","[0.02,0.02]",166.2445,0,25,25,197,1,,,,,,,
,,,,,,,66ce541cd8da920539a1c3cc,682f2f7d88553c49f64a3327,2025-05-22_15h11.59.453,cuing_paradigm_dot,2024.1.5,Win32,60.24096386,682d573fa47f1360d1451895,,,,,,,,,,,166.2448,166.7444,,,166.9948,167.5779,right,0.562,,,,,,,,,0.4,,,,,,166.7444,166.9948,167.5779,"[0.009303776628935268,-0.10070285840104888]","[-1,-1,-1]","[-0.02791536728528648,0.05857483853464337]","[1,1,1]","[0.18081803948416553,0.03043491867847471]","[-1,-1,-1]","[-0.032732115496403404,0.1407693295312411]","[1,1,1]","[-0.13831516353653917,0.10728869112755987]","[1,1,1]","[0.09734530356058142,0.006847683246231874]","[1,1,1]","[0.05448447253842112,0.09309416632171366]","[1,1,1]","[-0.16836950996407887,-0.02272645203744883]","[-1,-1,-1]","[-0.003506075888405824,0.1926000478391844]","[1,1,1]","[0.04085153699231273,-0.05123863959748671]","[1,1,1]","[0.14678447176427528,-0.0683207052257366]","[-1,-1,-1]","[-0.05190433828511866,-0.09567777604763747]","[1,1,1]","[-0.14814753274334094,-0.10017084003490494]","[-1,-1,-1]","[-0.050711049929137796,-0.012021270174252264]","[-1,-1,-1]","[0.10045063880351567,0.07861920072646314]","[-1,-1,-1]","[0.1267169082534552,0.1342763211168085]","[-1,-1,-1]","[0.1003071712661241,-0.14870331376142645]","[1,1,1]","[-0.14524388231131824,0.04899626598617438]","[1,1,1]","[0.05309734687493576,-0.13478000791400402]","[-1,-1,-1]","[-0.1809440651923544,0.06972532818261684]","[-1,-1,-1]","[-0.1205133769578875,-0.0013279847696011202]","[-1,-1,-1]","[0.19163163721136942,-0.04502318896937599]","[-1,-1,-1]","[0.09453971632935082,-0.054720643341070685]","[-1,-1,-1]","[-0.10152241378026881,0.041611742969283896]","[1,1,1]","[-0.11909764586352427,0.15048527554038194]","[-1,-1,-1]","[0.024662971456627884,-0.19816359527686164]","[-1,-1,-1]","[0.07538039948489438,0.043027137067548134]","[1,1,1]","[-0.11409103329724028,-0.13925402323181182]","[-1,-1,-1]","[-0.005877730140555487,-0.006419240533420392]","[-1,-1,-1]","[0.031457994069577395,0.014397982002604472]","[1,1,1]","[0.021349513978609222,0.1394880202432105]","[-1,-1,-1]","[0.05360368292771026,0.16428030117443634]","[-1,-1,-1]","[0.02,0.02]",168.678,0,26,26,56,1,,,,,,,
,,,,,,,66ce541cd8da920539a1c3cc,682f2f7d88553c49f64a3327,2025-05-22_15h11.59.453,cuing_paradigm_dot,2024.1.5,Win32,60.24096386,682d573fa47f1360d1451895,,,,,,,,,,,168.6781,169.1779,,,169.428,170.0113,left,0.5713,,,,,,,,,0.9,,,,,,169.1779,169.428,170.0113,"[-0.07331146180785597,-0.04836425236708385]","[1,1,1]","[0.08834615895853803,0.06449094061818413]","[1,1,1]","[-0.008039958288825717,0.004616853138738901]","[1,1,1]","[0.1804062572670407,-0.04507580337280603]","[1,1,1]","[0.08186419642786937,-0.04087319369057764]","[1,1,1]","[-0.1367754636118412,0.06875955140753832]","[-1,-1,-1]","[-0.039219124940818965,0.1577482694955437]","[1,1,1]","[0.06634295387661658,0.1398473747116678]","[1,1,1]","[0.13508628184075094,0.04258454044423216]","[1,1,1]","[-0.08979766858423059,-0.11440572636519372]","[-1,-1,-1]","[-0.16138981485216475,-0.08257720435998572]","[1,1,1]","[-0.05122970189984871,-0.18675231439554268]","[1,1,1]","[0.13508551463847646,-0.10494314015512891]","[1,1,1]","[0.07088106298451521,-0.0889990112473371]","[1,1,1]","[-0.0778432250238714,0.0065710517093984485]","[1,1,1]","[-0.14344911070688254,-0.003545777657591832]","[1,1,1]","[-0.005412289711930561,-0.17079029098102247]","[1,1,1]","[0.05832880924364893,0.013558544534340555]","[1,1,1]","[-0.10134225471738771,0.1461644416176041]","[1,1,1]","[-0.07907393699007208,0.10663848474803461]","[1,1,1]","[-0.15045972227482318,0.1108053019368577]","[1,1,1]","[0.038283879757924875,-0.17243226426646532]","[1,1,1]","[0.008878405029333273,-0.05594323568641696]","[1,1,1]","[0.12198489640295074,-0.05516805675944796]","[1,1,1]","[0.18796890991346676,0.0572433803549666]","[1,1,1]","[0.12179025442325506,0.14437482991708722]","[-1,-1,-1]","[0.01369500933705994,0.18189735961628806]","[1,1,1]","[0.11375031623594675,-0.14274785340347101]","[1,1,1]","[-0.14047763755267573,-0.13076469482992306]","[1,1,1]","[-0.020673320075107398,0.08101273136615716]","[1,1,1]","[-0.19122033790661044,-0.047332700546955916]","[1,1,1]","[-0.03930217281323843,-0.12640102964011565]","[1,1,1]","[0.02,0.02]",171.1111,0,27,27,206,1,,,,,,,
,,,,,,,66ce541cd8da920539a1c3cc,682f2f7d88553c49f64a3327,2025-05-22_15h11.59.453,cuing_paradigm_dot,2024.1.5,Win32,60.24096386,682d573fa47f1360d1451895,,,,,,,,,,,171.1115,171.6112,,,171.8616,172.3612,right,0.4948,,,,,,,,,0.1,,,,,,171.6112,171.8615,172.3613,"[0.07185591881124115,0.00007344123582725317]","[-1,-1,-1]","[0.062364646907624666,-0.106069694913892]","[1,1,1]","[-0.019021915237094806,0.08884025949588745]","[-1,-1,-1]","[-0.08420747087629755,-0.1417383783953825]","[-1,-1,-1]","[0.1826119809413895,0.04597896894252113]","[-1,-1,-1]","[0.11174481237274134,-0.12905791531474428]","[-1,-1,-1]","[-0.15235952013703966,0.10018581708743297]","[-1,-1,-1]","[0.17091065064034178,0.08557217337090327]","[-1,-1,-1]","[0.02589089406381029,-0.08303190625802578]","[-1,-1,-1]","[0.030288741004199676,0.17305750909843698]","[-1,-1,-1]","[0.039172474203879294,-0.18458171527152198]","[-1,-1,-1]","[0.11019918049110375,-0.04697243813963572]","[-1,-1,-1]","[-0.052069028573405986,0.1713203502140449]","[-1,-1,-1]","[-0.1628633506071548,0.054441914475774664]","[-1,-1,-1]","[-0.003249332411627088,-0.027775641848925024]","[-1,-1,-1]","[-0.10414985212536086,-0.07541161645513494]","[-1,-1,-1]","[-0.10311349387329836,0.1618701431022796]","[-1,-1,-1]","[-0.1262032494444124,-0.1347253279795319]","[-1,-1,-1]","[0.11387345668446462,0.06172113118756136]","[-1,-1,-1]","[0.0063277382972229115,0.057146738734692754]","[-1,-1,-1]","[-0.04095911409642354,-0.04335452045825127]","[-1,-1,-1]","[0.10546728317778732,0.12235088901397394]","[1,1,1]","[-0.09496698651670546,0.09281851548279511]","[-1,-1,-1]","[-0.05733929539883715,0.12225406918164206]","[-1,-1,-1]","[-0.1572142634482456,-0.038083446610104876]","[-1,-1,-1]","[-0.0470963018401656,-0.17165140768602505]","[1,1,1]","[-0.11519603967720653,-0.010820417849916343]","[-1,-1,-1]","[0.1814546827377233,-0.04292949795462971]","[-1,-1,-1]","[0.05410752856583103,0.1284656544099231]","[-1,-1,-1]","[0.1625371827118238,-0.09644192514961696]","[-1,-1,-1]","[0.14407515478180505,-0.004763068666867039]","[-1,-1,-1]","[-0.14965883810959804,-0.09757589959484617]","[-1,-1,-1]","[0.02,0.02]",173.4611,0,28,28,9,1,,,,,,,
,,,,,,,66ce541cd8da920539a1c3cc,682f2f7d88553c49f64a3327,2025-05-22_15h11.59.453,cuing_paradigm_dot,2024.1.5,Win32,60.24096386,682d573fa47f1360d1451895,,,,,,,,,,,173.4614,173.9611,,,174.2113,174.8612,left,0.6429,,,,,,,,,0.6,,,,,,173.9611,174.2113,174.8612,"[0.16164020493883335,0.07412074837279042]","[1,1,1]","[-0.018183717637937108,0.1085078005175815]","[1,1,1]","[-0.1287993189196788,0.07004981497984993]","[1,1,1]","[-0.16336122243242682,0.1133984791118481]","[1,1,1]","[0.09835195451513401,0.13505300823395955]","[1,1,1]","[-0.06391909130319376,-0.07929578906442684]","[1,1,1]","[0.15283488824921274,-0.004168478464101401]","[1,1,1]","[0.026180984324934962,-0.0636106398272334]","[-1,-1,-1]","[-0.07707732831239392,-0.1801496174519101]","[-1,-1,-1]","[0.1218302093908021,-0.08109939613343072]","[1,1,1]","[-0.08819405853584075,0.056703850291785984]","[1,1,1]","[0.1953905661767577,0.007439007249512828]","[1,1,1]","[0.0013460847794722083,0.16750827261862342]","[1,1,1]","[0.059913188779766646,0.08093468352974278]","[1,1,1]","[-0.1385234115858607,-0.030039420170161174]","[-1,-1,-1]","[0.09100154138575643,-0.028125149232711814]","[1,1,1]","[-0.10542541589239031,-0.09888718374635405]","[1,1,1]","[-0.10107775854708079,-0.1477467275453641]","[-1,-1,-1]","[0.18715986523113745,-0.04940823114123685]","[1,1,1]","[0.07517908612803535,-0.08572883932885618]","[-1,-1,-1]","[-0.08437750364961287,0.15996634439086707]","[1,1,1]","[-0.028004272758702733,-0.012281278691590222]","[1,1,1]","[-0.1895947971238195,-0.03634109540357134]","[-1,-1,-1]","[-0.14448925450187539,-0.07648935333534392]","[-1,-1,-1]","[-0.1412909263094835,-0.14104522091938687]","[-1,-1,-1]","[0.020986523826929008,0.03933149929837561]","[-1,-1,-1]","[-0.041406995462502906,-0.15263584215070775]","[1,1,1]","[0.005096720027420496,-0.10903607134518654]","[-1,-1,-1]","[0.08297678075513674,0.028386575419688684]","[-1,-1,-1]","[-0.1927442765723963,0.04690060221546363]","[1,1,1]","[-0.09539901641086139,0.11950695047981741]","[-1,-1,-1]","[0.03402240977511901,-0.17564832709298822]","[-1,-1,-1]","[0.02,0.02]",175.9612,0,29,29,171,1,,,,,,,
,,,,,,,66ce541cd8da920539a1c3cc,682f2f7d88553c49f64a3327,2025-05-22_15h11.59.453,cuing_paradigm_dot,2024.1.5,Win32,60.24096386,682d573fa47f1360d1451895,,,,,,,,,,,175.9613,176.4611,,,176.7113,177.2612,left,0.5318,,,,,,,,,0.6,,,,,,176.4612,176.7112,177.2612,"[0.08481695297263832,-0.16289644910447537]","[-1,-1,-1]","[-0.038090538856789966,-0.10222607959885527]","[-1,-1,-1]","[0.16919566880610787,-0.0025546927011186903]","[1,1,1]","[-0.1746541889815264,-0.03714405740057957]","[1,1,1]","[0.11336173682919942,-0.01629667680593366]","[-1,-1,-1]","[0.006142295326427268,0.07361346172508383]","[1,1,1]","[0.09127832129303626,0.037754106774704914]","[-1,-1,-1]","[-0.009622139339501571,0.1648556242505652]","[1,1,1]","[-0.13942621386330847,-0.09626695511110422]","[1,1,1]","[-0.05634990027614614,-0.02732649564614599]","[1,1,1]","[-0.12537422575196117,-0.007667870104630387]","[1,1,1]","[0.11214232506825733,0.09452241779680912]","[1,1,1]","[0.16910695778332888,0.06810165083586063]","[1,1,1]","[-0.12408577986624902,0.06689270731943697]","[1,1,1]","[-0.09285456121799439,-0.08252777659189559]","[1,1,1]","[0.06421313970948764,0.18905344022567838]","[1,1,1]","[-0.02053976931429932,-0.0629424150901149]","[1,1,1]","[-0.08204364824474188,-0.12356295668390405]","[1,1,1]","[-0.17565762268448598,0.07321884076918327]","[-1,-1,-1]","[-0.042668177222249165,0.07956730865244495]","[1,1,1]","[-0.04752483713611165,-0.15168993219271207]","[1,1,1]","[0.038627080100074804,-0.16726545634257642]","[-1,-1,-1]","[0.02122663307962704,0.01963099192058732]","[-1,-1,-1]","[-0.05978811993419825,0.15042331179379334]","[-1,-1,-1]","[0.02172600844295806,-0.036643612438840616]","[1,1,1]","[0.1450690250015404,-0.0766540144431432]","[-1,-1,-1]","[0.08039899133098803,-0.06405819083744735]","[-1,-1,-1]","[0.05019262335999765,-0.11611262055721823]","[1,1,1]","[0.06389745731141705,0.09489217317906572]","[-1,-1,-1]","[0.017994009584015844,0.12417785836542133]","[-1,-1,-1]","[0.12383269191467562,-0.12537346522587037]","[1,1,1]","[-0.13670975896419502,-0.14311923380547864]","[-1,-1,-1]","[0.02,0.02]",178.3612,0,30,30,162,1,,,,,,,
,,,,,,,66ce541cd8da920539a1c3cc,682f2f7d88553c49f64a3327,2025-05-22_15h11.59.453,cuing_paradigm_dot,2024.1.5,Win32,60.24096386,682d573fa47f1360d1451895,,,,,,,,,,,178.3614,178.8614,,,179.1116,179.6948,left,0.5704,,,,,,,,,0.55,,,,,,178.8614,179.1116,179.6948,"[0.02963540809272203,0.055118193589871474]","[1,1,1]","[-0.14579283864119533,-0.03978071015914019]","[1,1,1]","[0.018882750083680778,0.09633796390670019]","[1,1,1]","[-0.05144099492601152,0.14138927484846642]","[1,1,1]","[0.10081204260849343,-0.12883747711666274]","[1,1,1]","[-0.07376302835090275,-0.1641487930036964]","[1,1,1]","[-0.039451447077245,-0.11570716223928419]","[-1,-1,-1]","[0.18680089683912326,-0.029131880061806857]","[1,1,1]","[0.06078260732275796,-0.01782164967389353]","[-1,-1,-1]","[0.016037967683086234,0.0051917556433714275]","[-1,-1,-1]","[-0.1360983994572476,0.06047592157154531]","[-1,-1,-1]","[0.09566972550338705,-0.1735393980429633]","[1,1,1]","[-0.004213101777290437,-0.14967694677784638]","[1,1,1]","[0.1532831457808059,-0.09053423789588219]","[-1,-1,-1]","[0.10586527687851172,0.15168458286728867]","[-1,-1,-1]","[0.15662078937906623,0.10585638292042787]","[1,1,1]","[0.11932565844206844,-0.00187998556479213]","[1,1,1]","[0.09359399135721239,0.05140619462274239]","[1,1,1]","[0.028875669793592837,0.1503872538342577]","[-1,-1,-1]","[0.1886182198010692,0.046863453837235995]","[1,1,1]","[-0.024926942213273594,0.06915023434908114]","[-1,-1,-1]","[-0.12540949661922518,0.021797371562140618]","[1,1,1]","[-0.14476965725526678,-0.10659060956470567]","[-1,-1,-1]","[-0.03936117389063605,-0.059667801710308964]","[-1,-1,-1]","[-0.0575572591570515,-0.01675348815104653]","[-1,-1,-1]","[-0.17188489976679786,0.025815825417475825]","[1,1,1]","[-0.054777340002740975,0.04069379642821032]","[-1,-1,-1]","[0.03526103686317002,-0.08533711294757253]","[-1,-1,-1]","[0.11293394726317187,-0.06926207022195761]","[1,1,1]","[-0.08566414984413914,0.07142539608744758]","[1,1,1]","[-0.0784623505188748,-0.07456296851153713]","[-1,-1,-1]","[-0.084593364801586,0.1686178100791864]","[1,1,1]","[0.02,0.02]",180.7945,0,31,31,149,1,,,,,,,
,,,,,,,66ce541cd8da920539a1c3cc,682f2f7d88553c49f64a3327,2025-05-22_15h11.59.453,cuing_paradigm_dot,2024.1.5,Win32,60.24096386,682d573fa47f1360d1451895,,,,,,,,,,,180.7947,181.2945,,,181.5446,182.178,left,0.6202,,,,,,,,,0.6,,,,,,181.2945,181.5446,182.178,"[-0.13757531105304877,-0.004308939394523267]","[1,1,1]","[0.036536643115495586,-0.1448590680629033]","[1,1,1]","[-0.016576122685154984,-0.04531451497603083]","[1,1,1]","[0.04803457709329926,0.08960693090533528]","[1,1,1]","[-0.10491537681885142,0.16325020655333994]","[-1,-1,-1]","[-0.05781344629916183,-0.11235543192182068]","[1,1,1]","[-0.000557103565830716,0.03198064826678927]","[-1,-1,-1]","[0.1532545908406438,0.02777386092872343]","[1,1,1]","[0.02907282166241729,0.1394395362163728]","[-1,-1,-1]","[-0.12374314881096203,0.07698980277221286]","[-1,-1,-1]","[-0.18551884045094388,-0.022336269853438784]","[-1,-1,-1]","[0.04184429768689532,-0.09679893083779056]","[1,1,1]","[0.1721076265538929,-0.1003280768084605]","[-1,-1,-1]","[-0.18368704611658723,-0.0760130758265364]","[1,1,1]","[0.08634099109388213,0.0766233008603977]","[1,1,1]","[-0.19248060577264786,0.03602408411783505]","[1,1,1]","[-0.04323616397215718,0.0700955272228797]","[1,1,1]","[0.08112062595941281,-0.08691950875789808]","[-1,-1,-1]","[0.09278334511728382,-0.1352832764081693]","[1,1,1]","[-0.07590843709233175,-0.18357914210793916]","[-1,-1,-1]","[-0.02404495314129734,0.16460297766506196]","[1,1,1]","[-0.00780439037808223,-0.17851176766724874]","[-1,-1,-1]","[-0.05867388479096493,-0.035774423352769216]","[-1,-1,-1]","[0.1615376421091985,0.08691173073132902]","[1,1,1]","[0.09971731990972971,0.14081376829970332]","[1,1,1]","[0.15913572541374527,-0.06091735239167736]","[-1,-1,-1]","[0.054301837697810246,-0.18365872016419096]","[1,1,1]","[-0.05076388008338693,0.11240967491184127]","[-1,-1,-1]","[0.03932290734406162,0.03702626322234381]","[-1,-1,-1]","[0.00007446572734116356,0.08945829203465715]","[1,1,1]","[0.1157166000548956,-0.038111549053061314]","[1,1,1]","[0.03491138692037278,0.1952925577608553]","[1,1,1]","[0.02,0.02]",183.2778,0,32,32,168,1,,,,,,,
,,,,,,,66ce541cd8da920539a1c3cc,682f2f7d88553c49f64a3327,2025-05-22_15h11.59.453,cuing_paradigm_dot,2024.1.5,Win32,60.24096386,682d573fa47f1360d1451895,,,,,,,,,,,183.2781,183.778,,,184.0281,184.7112,left,0.6741,,,,,,,,,0.5,,,,,,183.7781,184.0281,184.7112,"[0.11955198615338895,0.07941922238786524]","[-1,-1,-1]","[-0.08430194241104794,-0.16223312772664716]","[-1,-1,-1]","[0.11678043029803745,-0.16188144432356621]","[1,1,1]","[-0.11993195407975772,-0.013409609878878105]","[1,1,1]","[-0.1287753311604959,-0.10138433603079176]","[-1,-1,-1]","[0.0022208803169309586,-0.039555413589227574]","[-1,-1,-1]","[0.004527049578386028,0.19658554037738]","[-1,-1,-1]","[0.05745973712691096,-0.08702970175281628]","[1,1,1]","[0.028159799861599766,-0.14486264281529443]","[1,1,1]","[-0.016909387227883352,0.15351069414254942]","[-1,-1,-1]","[-0.04977445459672321,0.07470075342480706]","[-1,-1,-1]","[0.05349441740095818,0.18657703230638928]","[-1,-1,-1]","[-0.03676115900047851,-0.012235373511497291]","[1,1,1]","[-0.03495302071344064,-0.17852055872232367]","[1,1,1]","[0.10225283691526446,0.03457341163721006]","[1,1,1]","[0.09188496580989511,0.11327232474373694]","[1,1,1]","[0.1329732063381012,-0.11046455292167769]","[-1,-1,-1]","[0.17181680591463122,-0.052005589478375906]","[-1,-1,-1]","[-0.06949940431538502,0.022258836644307913]","[-1,-1,-1]","[-0.018537876441214976,-0.10889293471289961]","[1,1,1]","[-0.09659443313004801,0.08021091361128221]","[1,1,1]","[0.08608195562649647,-0.042209195337090805]","[-1,-1,-1]","[0.1206207217327499,-0.002055595127914224]","[1,1,1]","[-0.1618686860753976,0.06818331954976571]","[1,1,1]","[-0.10149231594366906,0.12340657847068248]","[-1,-1,-1]","[-0.04313044242165379,0.11604529717160358]","[-1,-1,-1]","[-0.09014920082429843,-0.11511863131497496]","[1,1,1]","[-0.09335856309773195,-0.06259804730390221]","[1,1,1]","[0.15960647700511896,0.03478268213911414]","[1,1,1]","[-0.1738637131085892,-0.014948015017375787]","[-1,-1,-1]","[0.009076270743933468,0.029760829615868536]","[-1,-1,-1]","[0.06439502862304014,0.14410001126652533]","[1,1,1]","[0.02,0.02]",185.8111,0,33,33,107,1,,,,,,,
,,,,,,,66ce541cd8da920539a1c3cc,682f2f7d88553c49f64a3327,2025-05-22_15h11.59.453,cuing_paradigm_dot,2024.1.5,Win32,60.24096386,682d573fa47f1360d1451895,,,,,,,,,,,185.8113,186.3113,,,186.5614,187.3117,left,0.7434,,,,,,,,,0.45,,,,,,186.3114,186.5613,187.3117,"[0.02915628081145544,-0.06361800895332131]","[1,1,1]","[-0.052026604730560234,0.008281676918084508]","[1,1,1]","[-0.010628898238787392,-0.039032833460356096]","[-1,-1,-1]","[0.055556685065631745,-0.016569536505532823]","[-1,-1,-1]","[0.1261052623676602,0.11984776245346125]","[-1,-1,-1]","[0.0489061509984474,0.15998295296872478]","[-1,-1,-1]","[-0.042191808040705915,-0.06593505355287993]","[1,1,1]","[0.1498895209312967,-0.12873237940627547]","[1,1,1]","[-0.021447546477364285,-0.19647912778658597]","[-1,-1,-1]","[0.0797449773456561,-0.16931098450254944]","[1,1,1]","[-0.06667158617942646,-0.1501350663725173]","[1,1,1]","[-0.07801198232848368,0.1708769660159718]","[-1,-1,-1]","[0.19016818138155023,-0.010201853931713899]","[1,1,1]","[-0.17244207377468207,-0.029702221435730144]","[-1,-1,-1]","[-0.09151670307138113,-0.03410961483634715]","[1,1,1]","[-0.09343774827853711,-0.0768358518647744]","[-1,-1,-1]","[0.13588796487342972,0.05635094007669968]","[1,1,1]","[-0.1695161171005214,0.04255501226649804]","[-1,-1,-1]","[-0.11696814766544292,-0.1387535714442578]","[-1,-1,-1]","[-0.0066150234643247595,0.16574164441764286]","[1,1,1]","[0.025050470884661974,0.1950809817297445]","[-1,-1,-1]","[0.13378915796256957,-0.00879336527675761]","[-1,-1,-1]","[0.16189499016833706,0.09525216099698285]","[1,1,1]","[0.0799818016580261,-0.1261302296028257]","[1,1,1]","[0.06597357478810587,0.055805886732314444]","[-1,-1,-1]","[-0.14038847819576503,-0.06879345618856791]","[-1,-1,-1]","[-0.02235219069573524,0.048471692340263724]","[-1,-1,-1]","[-0.1458868601575264,0.10388477817149437]","[-1,-1,-1]","[0.1570394876870019,-0.07815056123543224]","[1,1,1]","[0.08158678450194505,-0.049351352219815854]","[-1,-1,-1]","[-0.14951098159633439,-0.11131714413234259]","[-1,-1,-1]","[0.012410347613681505,-0.15463441218143295]","[1,1,1]","[0.02,0.02]",188.4111,0,34,34,79,1,,,,,,,
,,,,,,,66ce541cd8da920539a1c3cc,682f2f7d88553c49f64a3327,2025-05-22_15h11.59.453,cuing_paradigm_dot,2024.1.5,Win32,60.24096386,682d573fa47f1360d1451895,,,,,,,,,,,188.4112,188.9111,,,189.1615,189.9113,left,0.7323,,,,,,,,,0.6,,,,,,188.9112,189.1615,189.9113,"[0.15094546115652183,0.001153439809868147]","[1,1,1]","[0.005400045277529273,-0.03322180307499167]","[-1,-1,-1]","[0.040424464750879144,-0.14506885858433263]","[-1,-1,-1]","[-0.09826149404242694,0.1554390253418816]","[-1,-1,-1]","[-0.0067465718039081395,0.02269547905603022]","[1,1,1]","[0.07225391807598334,-0.006740483954109005]","[-1,-1,-1]","[0.03498143650552977,-0.1956472162549205]","[-1,-1,-1]","[0.1577804806113651,-0.09292476009717397]","[1,1,1]","[0.11324013853128931,0.06005450849355644]","[1,1,1]","[0.18834204489870193,0.05164846739287258]","[1,1,1]","[-0.009080247686539355,0.08807318482006095]","[-1,-1,-1]","[0.10305559947859705,-0.12918479962645102]","[1,1,1]","[0.03238784532061717,0.16636910034764957]","[1,1,1]","[-0.0449157930133635,0.0014270829032141154]","[1,1,1]","[-0.0025672937288179743,-0.17456258225987387]","[1,1,1]","[-0.14537612859257154,0.061034442720872675]","[-1,-1,-1]","[-0.16163020702890954,-0.03204357136684892]","[-1,-1,-1]","[0.05389229271226409,0.11854610336815839]","[1,1,1]","[-0.1591318848717331,-0.11007862427223068]","[1,1,1]","[-0.05677760808525282,0.17894930051116212]","[1,1,1]","[-0.10347911714802768,0.09799140096573204]","[-1,-1,-1]","[-0.18472449381659634,0.007566619860081725]","[-1,-1,-1]","[-0.11575466607038332,-0.011247348879242261]","[-1,-1,-1]","[0.055909841156223695,-0.0774044799733364]","[1,1,1]","[-0.03929172668428218,-0.1491053854892635]","[-1,-1,-1]","[-0.02163784947006187,-0.10774509601636913]","[1,1,1]","[-0.07859031605119574,-0.08660947754363071]","[1,1,1]","[-0.08692389013315309,-0.1701196870268985]","[1,1,1]","[0.056995178643449405,0.03317567988427869]","[1,1,1]","[-0.11559904037758645,-0.06363827681765429]","[1,1,1]","[0.19398051174015732,0.0021631338977816652]","[1,1,1]","[0.1018980681063828,0.12448234282466866]","[-1,-1,-1]","[0.02,0.02]",191.0111,0,35,35,170,1,,,,,,,
,,,,,,,66ce541cd8da920539a1c3cc,682f2f7d88553c49f64a3327,2025-05-22_15h11.59.453,cuing_paradigm_dot,2024.1.5,Win32,60.24096386,682d573fa47f1360d1451895,,,,,,,,,,,191.0114,191.5111,,,191.7613,192.6113,right,0.8398,,,,,,,,,0.45,,,,,,191.5111,191.7613,192.6113,"[-0.06525312910584428,-0.014213027033264429]","[-1,-1,-1]","[-0.15272480333993158,-0.0006372433894142094]","[1,1,1]","[-0.11342384059453492,0.11142977064983599]","[-1,-1,-1]","[0.03083391363247902,-0.19444279503555195]","[-1,-1,-1]","[0.03892562467375172,0.06477873855636174]","[-1,-1,-1]","[-0.08240346075998008,0.16717807833789058]","[-1,-1,-1]","[-0.15702105043056686,-0.10095491069958393]","[-1,-1,-1]","[0.08999905214361724,0.11961418592011876]","[1,1,1]","[-0.13288228875804878,0.0667905751438729]","[1,1,1]","[0.06333877920510318,0.015167299040995917]","[-1,-1,-1]","[0.10444831345628944,-0.06793296941892583]","[-1,-1,-1]","[-0.1298971767798931,-0.04805051605709095]","[1,1,1]","[-0.06936720711474338,-0.0941036183786602]","[1,1,1]","[0.13760007514596545,0.14287956148565073]","[1,1,1]","[0.12688043080969605,0.08298175698066704]","[1,1,1]","[0.03548720360161424,-0.1075626022169329]","[-1,-1,-1]","[0.06947743067822744,0.16446575599677224]","[1,1,1]","[0.10235437791654226,0.04245006308144153]","[-1,-1,-1]","[-0.07498922596368457,0.07337864874685784]","[1,1,1]","[-0.06596700515442833,-0.1706275889925607]","[1,1,1]","[-0.10629631349229716,-0.13301017688301317]","[-1,-1,-1]","[0.15089788777767882,0.0019091947196833551]","[-1,-1,-1]","[0.03723867407762765,-0.03139390662104967]","[-1,-1,-1]","[0.05810809685069449,-0.07251445962092702]","[-1,-1,-1]","[-0.017741180943128564,-0.10953412042015677]","[1,1,1]","[0.013710002767903108,-0.15154460637369452]","[-1,-1,-1]","[0.08909989215821128,-0.11357127204563298]","[-1,-1,-1]","[-0.0017993408375764398,0.17556865977581426]","[1,1,1]","[-0.1734109708203948,0.07709323034471084]","[1,1,1]","[0.19042616537169654,-0.026777894511988948]","[-1,-1,-1]","[-0.1981190832247129,-0.0020769618406044337]","[-1,-1,-1]","[0.0044712063864211045,0.024784876938028867]","[1,1,1]","[0.02,0.02]",193.7111,0,36,36,84,1,,,,,,,
,,,,,,,66ce541cd8da920539a1c3cc,682f2f7d88553c49f64a3327,2025-05-22_15h11.59.453,cuing_paradigm_dot,2024.1.5,Win32,60.24096386,682d573fa47f1360d1451895,,,,,,,,,,,193.7114,194.2111,,,194.4614,195.2781,right,0.8069,,,,,,,,,0.45,,,,,,194.2112,194.4614,195.2781,"[-0.06525156325235819,0.17113039299626845]","[1,1,1]","[-0.061901358704818284,-0.08137109155808174]","[1,1,1]","[0.1632370156145829,-0.07291467001011567]","[1,1,1]","[0.15570298704046584,-0.02257032468423106]","[1,1,1]","[0.08739121835663466,0.07692002942870305]","[-1,-1,-1]","[-0.019331776943920312,0.14290524270679714]","[-1,-1,-1]","[0.05257417773833224,-0.03865219117532946]","[-1,-1,-1]","[-0.11430931471436405,0.045739257296205454]","[-1,-1,-1]","[0.027030595173496662,-0.10911780936887734]","[-1,-1,-1]","[-0.10064272117339768,0.08576449730506358]","[1,1,1]","[-0.0182874713939457,-0.18195384708444126]","[-1,-1,-1]","[-0.04251623003299667,0.04511415621447081]","[1,1,1]","[0.10006016739180806,-0.04362823308208874]","[-1,-1,-1]","[0.07822868164665267,0.17824700408978852]","[-1,-1,-1]","[0.017050179523074874,0.07083700477785344]","[-1,-1,-1]","[-0.026361966810607488,-0.05855096034991042]","[-1,-1,-1]","[0.04456521303372044,0.12864155106372863]","[-1,-1,-1]","[0.04315290384998894,-0.1762680159396216]","[-1,-1,-1]","[-0.02116695666781283,-0.1346127317092612]","[-1,-1,-1]","[0.1871697039577938,0.06460552782854012]","[-1,-1,-1]","[-0.10202156507002894,-0.10620894722673062]","[-1,-1,-1]","[0.01034089252527851,-0.00008604166683538563]","[-1,-1,-1]","[-0.13629760452168566,0.13886135197897995]","[1,1,1]","[-0.06964089550771795,-0.14815722498195133]","[-1,-1,-1]","[0.18786710350076058,0.0042243891670902724]","[1,1,1]","[0.14467676703231105,0.039705323918785757]","[1,1,1]","[0.07916422293779814,-0.08760561552749575]","[-1,-1,-1]","[-0.0242113686373633,0.18976606498382875]","[1,1,1]","[-0.17689278896370655,-0.0029986603688221354]","[1,1,1]","[-0.01408118431933872,0.09960631848941144]","[1,1,1]","[-0.14791015418232276,0.07380214151405559]","[1,1,1]","[0.136176855084455,0.0986037604251393]","[1,1,1]","[0.02,0.02]",196.3779,0,37,37,89,1,,,,,,,
,,,,,,,66ce541cd8da920539a1c3cc,682f2f7d88553c49f64a3327,2025-05-22_15h11.59.453,cuing_paradigm_dot,2024.1.5,Win32,60.24096386,682d573fa47f1360d1451895,,,,,,,,,,,196.3781,196.8778,,,197.1281,197.6945,right,0.5523,,,,,,,,,0.4,,,,,,196.8778,197.1281,197.6945,"[-0.023942910163395562,0.08610690667603325]","[-1,-1,-1]","[-0.046811500526473405,-0.12514764925537214]","[-1,-1,-1]","[-0.1815242663607861,-0.0028705647735792006]","[-1,-1,-1]","[0.04371505707218144,0.1717415663251616]","[-1,-1,-1]","[0.10548874689748124,0.0996225337946956]","[-1,-1,-1]","[-0.10434994848885618,0.04060043045000435]","[-1,-1,-1]","[0.04704539293277421,0.0515005074170471]","[1,1,1]","[-0.027316315593876643,-0.027442335738876385]","[1,1,1]","[-0.044869750830879754,0.15308719989607314]","[-1,-1,-1]","[0.07643637540127239,-0.02861224992471177]","[-1,-1,-1]","[0.08698612338922565,-0.11476646152618157]","[-1,-1,-1]","[-0.06450146786166845,0.11524479853669263]","[1,1,1]","[-0.1179029933359734,-0.08376465423549738]","[1,1,1]","[0.1512619905817364,-0.06872808261177128]","[1,1,1]","[0.17140468466317318,0.00426084600954879]","[-1,-1,-1]","[0.07204669165638697,-0.16186973173285416]","[1,1,1]","[0.162538831627483,0.08377191217608128]","[-1,-1,-1]","[-0.00040960879084997204,0.12775902646449325]","[-1,-1,-1]","[0.016528577216280673,-0.17204761071051142]","[-1,-1,-1]","[0.06423101705171676,0.09167651391622234]","[-1,-1,-1]","[-0.07558661130150209,-0.18184953848103066]","[1,1,1]","[0.12863020623522584,0.03280377821638999]","[1,1,1]","[-0.138274975564718,-0.03340025141831401]","[-1,-1,-1]","[-0.08910936078443199,-0.025255826265832]","[1,1,1]","[0.0025312718219039397,0.16790300826664417]","[-1,-1,-1]","[-0.03755190036038374,0.03539017261745323]","[-1,-1,-1]","[-0.1582447591514419,-0.0998459552015421]","[1,1,1]","[-0.1389233610935422,0.11050939295800069]","[1,1,1]","[-0.03105282772170439,-0.08445396526162845]","[-1,-1,-1]","[-0.14324696079671848,0.06303405702400039]","[1,1,1]","[0.01964831690567732,-0.0023676161725490596]","[1,1,1]","[-0.07255230212883884,-0.08846778185824586]","[-1,-1,-1]","[0.02,0.02]",198.7946,0,38,38,55,1,,,,,,,
,,,,,,,66ce541cd8da920539a1c3cc,682f2f7d88553c49f64a3327,2025-05-22_15h11.59.453,cuing_paradigm_dot,2024.1.5,Win32,60.24096386,682d573fa47f1360d1451895,,,,,,,,,,,198.7951,199.2946,,,199.5448,200.0445,right,0.4837,,,,,,,,,0.1,,,,,,199.2947,199.5447,200.0445,"[0.1799017262841872,-0.0802570083625625]","[-1,-1,-1]","[-0.14753534756795697,-0.12331969195684839]","[1,1,1]","[-0.07237051962422145,-0.07695366754849058]","[-1,-1,-1]","[0.048714309283251586,-0.020596348736854512]","[-1,-1,-1]","[-0.17632829120314192,-0.021377598408033636]","[-1,-1,-1]","[-0.06432435397684061,0.01374579027399068]","[-1,-1,-1]","[0.00700327021838693,-0.18613939688053233]","[-1,-1,-1]","[-0.1238788642029003,-0.0025444046980797673]","[-1,-1,-1]","[-0.02694494489987185,0.05544525255906567]","[-1,-1,-1]","[-0.16063478609532286,-0.061305594840654384]","[-1,-1,-1]","[0.12056529876148607,-0.12859236246992747]","[-1,-1,-1]","[-0.11627459671892812,0.05686712598429189]","[-1,-1,-1]","[-0.013071955459468484,-0.0878825120592248]","[-1,-1,-1]","[0.05248537040866107,-0.1135212636181788]","[-1,-1,-1]","[-0.03278467275173375,-0.16559994816710655]","[1,1,1]","[0.1201662435699869,-0.0347646255521152]","[-1,-1,-1]","[-0.08569215555507699,-0.15340804387150547]","[-1,-1,-1]","[-0.12712296935764428,0.15385331755489814]","[-1,-1,-1]","[0.19502010257212363,-0.0014345606111431425]","[1,1,1]","[0.1500299024719752,0.05393411521271858]","[-1,-1,-1]","[-0.19520701586411177,0.023461523882169436]","[-1,-1,-1]","[0.08540109583682441,-0.15052694306067943]","[-1,-1,-1]","[0.09535643412787659,0.12073123411998311]","[-1,-1,-1]","[-0.02031825134927126,0.10896621568325682]","[-1,-1,-1]","[0.16016338348210918,0.10028703422373235]","[-1,-1,-1]","[-0.010193737009197769,0.19967403157132824]","[-1,-1,-1]","[0.019318476072425376,0.12603440635949795]","[-1,-1,-1]","[-0.18276547404726334,0.07273704074429668]","[-1,-1,-1]","[0.03369856386472016,0.18244090408477576]","[-1,-1,-1]","[0.0989434210783554,0.036861169034158106]","[-1,-1,-1]","[0.051876346332227444,-0.18764280685937934]","[-1,-1,-1]","[-0.01863226059608341,-0.009753015625068624]","[-1,-1,-1]","[0.02,0.02]",201.1446,0,39,39,0,1,,,,,,,
,,,,,,,66ce541cd8da920539a1c3cc,682f2f7d88553c49f64a3327,2025-05-22_15h11.59.453,cuing_paradigm_dot,2024.1.5,Win32,60.24096386,682d573fa47f1360d1451895,,,,,,,,,,,201.1448,201.6445,,,201.895,202.4782,left,0.5739,,,,,,,,,0.6,,,,,,201.6445,201.8949,202.4783,"[0.11483336406976492,0.009398952606410792]","[1,1,1]","[-0.02879500631810589,0.16697194139452157]","[1,1,1]","[-0.11402109330715204,-0.07712201390182323]","[-1,-1,-1]","[0.13790383482335986,-0.09720185563249298]","[1,1,1]","[-0.15373588539097116,-0.014325415509041851]","[1,1,1]","[0.017637972332929613,0.18567066156327836]","[1,1,1]","[-0.02057189297729414,0.11754390523672487]","[-1,-1,-1]","[-0.011161021543523336,-0.08343137299660658]","[-1,-1,-1]","[-0.048393597767981404,0.03705459404764611]","[1,1,1]","[-0.07099104471934303,-0.10437042128935685]","[1,1,1]","[-0.18833501018133864,-0.06067017694322814]","[-1,-1,-1]","[-0.11279939413293662,-0.13558893711181325]","[-1,-1,-1]","[0.10444960563111913,0.0878543745859395]","[1,1,1]","[0.09952711408802663,-0.1096569303156317]","[1,1,1]","[-0.046049252690382916,-0.007233446911989623]","[1,1,1]","[-0.0724997000954042,0.11713066704196146]","[1,1,1]","[0.03579461079266541,-0.0073443210044698455]","[-1,-1,-1]","[-0.14045441742552098,0.02604130697657642]","[1,1,1]","[-0.041935368287720834,-0.19120560233577255]","[1,1,1]","[-0.10931509079098788,0.09528450101695563]","[-1,-1,-1]","[-0.19259710041154202,0.05263437824076406]","[-1,-1,-1]","[0.11331458932473203,-0.03481787869349812]","[-1,-1,-1]","[-0.07369474403600831,0.0739260664887927]","[1,1,1]","[0.14134555877284535,0.1282047261802014]","[1,1,1]","[0.11959819441156451,-0.14636132603330734]","[-1,-1,-1]","[-0.02912741911992771,0.07263052210190228]","[-1,-1,-1]","[-0.11050186408113609,0.15452683151446103]","[1,1,1]","[0.09452791817643451,0.13290472192231811]","[-1,-1,-1]","[0.03358245833788974,-0.18664431853363483]","[1,1,1]","[0.1746344642221269,0.0484113545896274]","[1,1,1]","[-0.1074537489146467,-0.03352390879214868]","[1,1,1]","[0.01701120286277227,0.0797636210445858]","[-1,-1,-1]","[0.02,0.02]",203.5779,0,40,40,155,1,,,,,,,
,,,,,,,66ce541cd8da920539a1c3cc,682f2f7d88553c49f64a3327,2025-05-22_15h11.59.453,cuing_paradigm_dot,2024.1.5,Win32,60.24096386,682d573fa47f1360d1451895,,,,,,,,,,,203.5782,204.0778,,,204.328,205.1114,left,0.7746,,,,,,,,,0.45,,,,,,204.0778,204.3279,205.1114,"[0.1638853586813184,0.029434378091067474]","[-1,-1,-1]","[0.1786248436858835,-0.020951787853514345]","[-1,-1,-1]","[0.17296477164248367,0.09312429801082248]","[-1,-1,-1]","[-0.10146220215905447,-0.10202280796309175]","[-1,-1,-1]","[-0.1343161977166101,-0.057947736836981546]","[1,1,1]","[0.07691010594179043,0.06553643321136988]","[1,1,1]","[-0.10907423865225845,0.03342266963058724]","[1,1,1]","[-0.015097152670193187,0.020167140178692727]","[-1,-1,-1]","[0.031846960854783606,-0.02984424936747185]","[1,1,1]","[-0.1517385163439135,-0.003915016525565293]","[1,1,1]","[-0.056180287220187516,-0.038202556704272764]","[1,1,1]","[-0.14147497065499723,-0.13950421175472644]","[-1,-1,-1]","[0.09902541777966335,-0.10205815510613653]","[1,1,1]","[-0.10687357315365853,0.10461143024036171]","[-1,-1,-1]","[-0.04257887639458491,0.04981107950632154]","[-1,-1,-1]","[0.11305647234877911,-0.05118377615358614]","[-1,-1,-1]","[-0.01503575988733545,0.11903549094285568]","[-1,-1,-1]","[-0.14664857390059388,0.09263967576631489]","[-1,-1,-1]","[0.09627557575431354,0.008620402330154974]","[1,1,1]","[0.04661747691547642,-0.18275349113353034]","[1,1,1]","[-0.18225649477937483,0.050271010294218474]","[-1,-1,-1]","[0.034866678601289315,-0.09551191004842902]","[-1,-1,-1]","[-0.19531427820373876,-0.029634316273526785]","[1,1,1]","[-0.07121250119058022,0.1487662943509676]","[-1,-1,-1]","[0.1581254556480108,-0.07741277115463195]","[-1,-1,-1]","[-0.07661825333385708,0.0723837513546436]","[1,1,1]","[0.13338138045104309,0.0726206871421246]","[-1,-1,-1]","[-0.04536766889791915,-0.0903915879977155]","[1,1,1]","[-0.0537515147773331,-0.17583648753234699]","[-1,-1,-1]","[-0.0979846994905585,-0.006913074346056156]","[1,1,1]","[0.03811027970358017,0.15806110922002453]","[-1,-1,-1]","[0.14429058752584872,-0.1223828456475515]","[1,1,1]","[0.02,0.02]",206.2113,0,41,41,77,1,,,,,,,
,,,,,,,66ce541cd8da920539a1c3cc,682f2f7d88553c49f64a3327,2025-05-22_15h11.59.453,cuing_paradigm_dot,2024.1.5,Win32,60.24096386,682d573fa47f1360d1451895,,,,,,,,,,,206.2117,206.7111,,,206.9616,207.5446,left,0.5721,,,,,,,,,0.55,,,,,,206.7111,206.9616,207.5446,"[-0.020743424612646964,0.022647557922503895]","[1,1,1]","[0.09576902723284941,-0.04627385450597347]","[-1,-1,-1]","[-0.14582649848736748,0.005779214714982752]","[1,1,1]","[0.011045017231158114,0.10879925428814467]","[1,1,1]","[-0.07576468673384913,-0.1306075458759516]","[1,1,1]","[0.09708495083156275,0.06281587505730324]","[1,1,1]","[0.17500947402106715,-0.05051467995470646]","[-1,-1,-1]","[-0.018517529141959015,-0.17999017703494874]","[1,1,1]","[-0.16448890037921748,-0.09584660188582741]","[-1,-1,-1]","[0.18707831665254646,0.06317960985358462]","[-1,-1,-1]","[-0.013384673266021186,-0.06076557514481544]","[-1,-1,-1]","[0.042582850298826275,0.17332629513071043]","[1,1,1]","[0.03208175760711675,0.05487987207565469]","[1,1,1]","[0.13635314360054776,-0.1459540057090734]","[1,1,1]","[0.061143003867043126,-0.07840728971625652]","[1,1,1]","[-0.0973079213494257,0.010781830123965525]","[1,1,1]","[0.12513634170185986,0.1447887264872306]","[1,1,1]","[-0.15743995421867987,0.06543645214954533]","[-1,-1,-1]","[0.038953962216989525,-0.16070610066401336]","[-1,-1,-1]","[-0.10422394438937783,0.12150221352159295]","[1,1,1]","[0.08018689105944685,-0.16047478943978752]","[-1,-1,-1]","[-0.16707310608056689,-0.052458713127201406]","[1,1,1]","[-0.047642930118195884,0.16947390818713]","[1,1,1]","[0.0794470448809741,-0.12021644539491862]","[-1,-1,-1]","[0.13136344476946762,0.004877431719743048]","[-1,-1,-1]","[0.0051252298064404685,-0.12013446286166764]","[-1,-1,-1]","[-0.006542741169063727,0.18482502382645924]","[-1,-1,-1]","[0.1598140295590266,0.10726489716661454]","[1,1,1]","[0.09610883268950228,0.11675246652145684]","[1,1,1]","[0.020459459126610804,0.008329716444202195]","[1,1,1]","[-0.11712458734077384,0.08209833768262027]","[-1,-1,-1]","[-0.09784278656957503,-0.07526496122556763]","[-1,-1,-1]","[0.02,0.02]",208.6445,0,42,42,130,1,,,,,,,
,,,,,,,66ce541cd8da920539a1c3cc,682f2f7d88553c49f64a3327,2025-05-22_15h11.59.453,cuing_paradigm_dot,2024.1.5,Win32,60.24096386,682d573fa47f1360d1451895,,,,,,,,,,,208.6447,209.1447,,,209.3947,209.8613,right,0.4554,,,,,,,,,0.45,,,,,,209.1447,209.3947,209.8613,"[0.000901022545610254,0.16160863375049184]","[1,1,1]","[0.03269271469228937,-0.014066756504525536]","[-1,-1,-1]","[0.05141857880118398,0.1317836381149959]","[1,1,1]","[0.13066334192441922,-0.05732890539704116]","[-1,-1,-1]","[-0.1376189293416167,0.13017515327867313]","[-1,-1,-1]","[0.01779830515437254,-0.06599623132813087]","[-1,-1,-1]","[-0.07894084301331115,0.09156486669812602]","[-1,-1,-1]","[-0.042581828412301695,0.1824496686017996]","[1,1,1]","[0.06245443576078564,-0.16885921199780088]","[-1,-1,-1]","[-0.1448330243156378,-0.047764423924468516]","[-1,-1,-1]","[0.004094512606783809,-0.13749888155110418]","[1,1,1]","[-0.13677900936790005,0.04328462654124437]","[1,1,1]","[-0.03874293560459773,0.032561162697029085]","[1,1,1]","[0.11955710665531373,-0.14642792086790804]","[1,1,1]","[-0.048520153696437564,-0.008817378439349455]","[-1,-1,-1]","[0.0872317274871087,0.17700987285268416]","[-1,-1,-1]","[0.13814150574612277,0.022224644760733173]","[1,1,1]","[-0.03330545942207408,-0.11556980379632179]","[1,1,1]","[-0.06933778610511925,-0.057603079340861126]","[1,1,1]","[0.06255898578635681,-0.0503174005429009]","[-1,-1,-1]","[0.0762687376543011,-0.11453361027478186]","[-1,-1,-1]","[-0.08508865209030861,-0.17004144058946627]","[-1,-1,-1]","[-0.011311304453904701,0.11684124163391274]","[1,1,1]","[0.0466283734314272,0.03502345288844689]","[-1,-1,-1]","[-0.10686471350428617,-0.10847983057957875]","[1,1,1]","[-0.09304026552560196,0.011824910930342313]","[-1,-1,-1]","[0.04296613334432165,0.1737444785539474]","[-1,-1,-1]","[0.024812765659754484,-0.187137161022201]","[1,1,1]","[-0.162850176068528,-0.08966141924414651]","[-1,-1,-1]","[0.12386480570204272,0.06477531876230208]","[1,1,1]","[0.0984749962329575,0.10196600869420437]","[-1,-1,-1]","[0.1935031881619407,0.03438260361210746]","[-1,-1,-1]","[0.02,0.02]",210.9611,0,43,43,85,1,,,,,,,
,,,,,,,66ce541cd8da920539a1c3cc,682f2f7d88553c49f64a3327,2025-05-22_15h11.59.453,cuing_paradigm_dot,2024.1.5,Win32,60.24096386,682d573fa47f1360d1451895,,,,,,,,,,,210.9614,211.4611,,,211.7113,212.3779,left,0.6547,,,,,,,,,0.6,,,,,,211.4612,211.7113,212.3779,"[-0.02423397623346917,-0.15971514347135463]","[-1,-1,-1]","[0.05641997946470989,-0.17812354610846623]","[-1,-1,-1]","[-0.1782471079500187,0.039551796121845034]","[-1,-1,-1]","[-0.12170088060701172,0.09698542823310904]","[-1,-1,-1]","[-0.0558592961528913,0.19122310479862137]","[1,1,1]","[-0.15646504720088023,-0.04097526583555297]","[1,1,1]","[0.10970798315872486,0.1479508307432274]","[1,1,1]","[-0.011519313011583578,-0.1992944787760617]","[-1,-1,-1]","[0.0009459218676857548,0.12236897971881294]","[-1,-1,-1]","[-0.1933205353666871,0.002133033353707281]","[1,1,1]","[0.027460171200499303,-0.08416071709337744]","[-1,-1,-1]","[-0.10719783342110471,0.13605676679274917]","[-1,-1,-1]","[-0.09242297550666803,-0.13596038353412654]","[1,1,1]","[-0.07506055472684478,0.03660073332717737]","[1,1,1]","[-0.000724717888651698,0.005894589517011154]","[1,1,1]","[-0.053743218499747086,0.08494731426814552]","[1,1,1]","[-0.004550124577829224,-0.10964146315295391]","[1,1,1]","[0.06627123551454529,0.169339319278857]","[-1,-1,-1]","[-0.10569757356606771,-0.04376058652618865]","[1,1,1]","[0.07862980278800044,-0.11162937779905321]","[1,1,1]","[-0.1589497472986671,-0.1080248542447766]","[1,1,1]","[0.09431214957589411,0.013325826012803308]","[-1,-1,-1]","[0.00815402204737897,0.18049123879295717]","[-1,-1,-1]","[0.15926939157106715,0.11452101328029712]","[-1,-1,-1]","[-0.05490022487301021,-0.11052599524629682]","[1,1,1]","[0.11511101405428226,-0.08171837868906187]","[1,1,1]","[0.020966590374663252,-0.0422935693040098]","[1,1,1]","[0.18440896749198762,0.03503792094906263]","[1,1,1]","[0.16225583186734072,-0.05096783347885683]","[-1,-1,-1]","[0.13213241186275257,0.04556553553864324]","[1,1,1]","[0.08875057029500659,0.05585867355725171]","[1,1,1]","[0.05002918002814348,0.10250671006112849]","[1,1,1]","[0.02,0.02]",213.4778,0,44,44,178,1,,,,,,,
