right,left,explain.started,explain.stopped,key_resp_3.keys,key_resp_3.rt,key_resp_3.duration,participant,session,date,expName,psychopyVersion,OS,frameRate,study_id,explain_2.started,explain_2.stopped,key_resp_4.keys,key_resp_4.rt,key_resp_4.duration,explain_3.started,explain_3.stopped,key_resp_5.keys,key_resp_5.rt,key_resp_5.duration,fixation.started,fixation.stopped,practice.started,practice.stopped,response.started,response.stopped,key_resp.keys,key_resp.rt,key_resp.duration,feedback.started,feedback.stopped,trials_2.thisRepN,trials_2.thisTrialN,trials_2.thisN,trials_2.thisIndex,trials_2.ran,white_ratio,explain_4.started,explain_4.stopped,key_resp_6.keys,key_resp_6.rt,key_resp_6.duration,dotDisplay.started,dotDisplay.stopped,ITI.started,polygon_1.pos,polygon_1.color,polygon_2.pos,polygon_2.color,polygon_3.pos,polygon_3.color,polygon_4.pos,polygon_4.color,polygon_5.pos,polygon_5.color,polygon_6.pos,polygon_6.color,polygon_7.pos,polygon_7.color,polygon_8.pos,polygon_8.color,polygon_9.pos,polygon_9.color,polygon_10.pos,polygon_10.color,polygon_11.pos,polygon_11.color,polygon_12.pos,polygon_12.color,polygon_13.pos,polygon_13.color,polygon_14.pos,polygon_14.color,polygon_15.pos,polygon_15.color,polygon_16.pos,polygon_16.color,polygon_17.pos,polygon_17.color,polygon_18.pos,polygon_18.color,polygon_19.pos,polygon_19.color,polygon_20.pos,polygon_20.color,polygon_21.pos,polygon_21.color,polygon_22.pos,polygon_22.color,polygon_23.pos,polygon_23.color,polygon_24.pos,polygon_24.color,polygon_25.pos,polygon_25.color,polygon_26.pos,polygon_26.color,polygon_27.pos,polygon_27.color,polygon_28.pos,polygon_28.color,polygon_29.pos,polygon_29.color,polygon_30.pos,polygon_30.color,polygon_31.pos,polygon_31.color,polygon_32.pos,polygon_32.color,dot_size,ITI.stopped,trials.thisRepN,trials.thisTrialN,trials.thisN,trials.thisIndex,trials.ran,break_2.started,break_2.stopped,trials_3.thisRepN,trials_3.thisTrialN,trials_3.thisN,trials_3.thisIndex,trials_3.ran
subject chose white,subject chose black,0.0004,265.5744,space,250.5587,,66d450d116aa59a3161adf97,682dc8b14c46c0f8965020dc,2025-05-21_14h37.22.457,cuing_paradigm_dot,2024.1.5,Win32,50,682d556593cb38ad0a074487,,,,,,,,,,,,,,,,,,,,,,,,,,,,,,,,,,,,,,,,,,,,,,,,,,,,,,,,,,,,,,,,,,,,,,,,,,,,,,,,,,,,,,,,,,,,,,,,,,,,,,,,,,,,,,,,,
,,,,,,,66d450d116aa59a3161adf97,682dc8b14c46c0f8965020dc,2025-05-21_14h37.22.457,cuing_paradigm_dot,2024.1.5,Win32,50,682d556593cb38ad0a074487,265.575,304.005,space,8.4226,,,,,,,,,,,,,,,,,,,,,,,,,,,,,,,,,,,,,,,,,,,,,,,,,,,,,,,,,,,,,,,,,,,,,,,,,,,,,,,,,,,,,,,,,,,,,,,,,,,,,,,,,,,,,
,,,,,,,66d450d116aa59a3161adf97,682dc8b14c46c0f8965020dc,2025-05-21_14h37.22.457,cuing_paradigm_dot,2024.1.5,Win32,50,682d556593cb38ad0a074487,,,,,,304.0053,309.7152,space,2.6954,,,,,,,,,,,,,,,,,,,,,,,,,,,,,,,,,,,,,,,,,,,,,,,,,,,,,,,,,,,,,,,,,,,,,,,,,,,,,,,,,,,,,,,,,,,,,,,,,,,,,,,,
,,,,,,,66d450d116aa59a3161adf97,682dc8b14c46c0f8965020dc,2025-05-21_14h37.22.457,cuing_paradigm_dot,2024.1.5,Win32,50,682d556593cb38ad0a074487,,,,,,,,,,,309.7468,310.2351,310.2356,310.4672,310.4674,311.2762,left,0.7599,,311.2764,312.376,0,0,0,1,1,0.2,,,,,,,,,,,,,,,,,,,,,,,,,,,,,,,,,,,,,,,,,,,,,,,,,,,,,,,,,,,,,,,,,,,,,,,,,,,,,,,,,,,,,,
,,,,,,,66d450d116aa59a3161adf97,682dc8b14c46c0f8965020dc,2025-05-21_14h37.22.457,cuing_paradigm_dot,2024.1.5,Win32,50,682d556593cb38ad0a074487,,,,,,,,,,,312.3769,312.8866,312.8866,313.1279,313.1281,313.6968,right,0.5451,,313.6972,314.7857,0,1,1,0,1,0.8,,,,,,,,,,,,,,,,,,,,,,,,,,,,,,,,,,,,,,,,,,,,,,,,,,,,,,,,,,,,,,,,,,,,,,,,,,,,,,,,,,,,,,
,,,,,,,66d450d116aa59a3161adf97,682dc8b14c46c0f8965020dc,2025-05-21_14h37.22.457,cuing_paradigm_dot,2024.1.5,Win32,50,682d556593cb38ad0a074487,,,,,,,,,,,,,,,,,,,,,,,,,,,,314.7863,351.351,space,33.5403,,,,,,,,,,,,,,,,,,,,,,,,,,,,,,,,,,,,,,,,,,,,,,,,,,,,,,,,,,,,,,,,,,,,,,,,,,,,,,,,,,
,,,,,,,66d450d116aa59a3161adf97,682dc8b14c46c0f8965020dc,2025-05-21_14h37.22.457,cuing_paradigm_dot,2024.1.5,Win32,50,682d556593cb38ad0a074487,,,,,,,,,,,351.3788,351.8572,,,352.1076,352.7349,left,0.6017,,,,,,,,,0.45,,,,,,351.8578,352.1075,352.7359,"[0.10092087870869607,-0.07104959756454922]","[-1,-1,-1]","[0.05552500253332467,0.17390319743069446]","[1,1,1]","[-0.017524519449442753,-0.0696586007821388]","[-1,-1,-1]","[-0.09403764994303745,-0.020036968226717394]","[1,1,1]","[0.15088834816804306,-0.08955296251798173]","[1,1,1]","[-0.06640052231356919,0.03484396180275689]","[-1,-1,-1]","[-0.18869487563476,0.03851473711388323]","[1,1,1]","[-0.0001861838448652893,-0.19905009152034658]","[1,1,1]","[0.10889129564017874,-0.14026228029797316]","[-1,-1,-1]","[0.13406951512380094,0.14027108887913142]","[-1,-1,-1]","[0.11651629933838761,0.09317180980163368]","[-1,-1,-1]","[0.017577968956096136,-0.1498860270975462]","[-1,-1,-1]","[-0.16124250157376424,-0.04305954949093866]","[-1,-1,-1]","[-0.05929551854760297,-0.18988645508618682]","[-1,-1,-1]","[0.14951896455686708,-0.131061951647091]","[1,1,1]","[0.14630958974423125,0.012450553827679178]","[-1,-1,-1]","[-0.13546522248616424,0.09011184904483513]","[1,1,1]","[0.014980580826801124,0.07635944707129501]","[1,1,1]","[0.1672190024360748,0.049836329517500506]","[1,1,1]","[0.06220188364305963,0.017153359962698875]","[-1,-1,-1]","[-0.08937697241328035,-0.12492175161642725]","[-1,-1,-1]","[0.010507246473021486,0.00002812495299125547]","[-1,-1,-1]","[0.11623785039532969,-0.028646282193807035]","[1,1,1]","[0.059112837077509604,-0.05458372579427457]","[1,1,1]","[-0.04262480657425191,0.17554039515425865]","[-1,-1,-1]","[-0.13860673353741243,-0.09903179568822047]","[1,1,1]","[-0.0803820474746151,0.12311516486251736]","[-1,-1,-1]","[0.0400470446411324,-0.10172304458203252]","[1,1,1]","[-0.04163272833495463,-0.12812488525868385]","[1,1,1]","[-0.09507774749661678,-0.17035237101022632]","[-1,-1,-1]","[0.06420819612692784,0.10816711418977507]","[-1,-1,-1]","[-0.14119101037030288,0.015867456474458877]","[-1,-1,-1]","[0.02,0.02]",353.8477,0,0,0,82,1,,,,,,,
,,,,,,,66d450d116aa59a3161adf97,682dc8b14c46c0f8965020dc,2025-05-21_14h37.22.457,cuing_paradigm_dot,2024.1.5,Win32,50,682d556593cb38ad0a074487,,,,,,,,,,,353.8482,354.3672,,,354.591,355.2094,left,0.5987,,,,,,,,,0.45,,,,,,354.3672,354.591,355.2095,"[0.1506552332252321,0.10547557926951097]","[-1,-1,-1]","[-0.05304272131748225,-0.007038623576025703]","[-1,-1,-1]","[0.007449247066195616,0.0965223306523519]","[-1,-1,-1]","[-0.007316046038022005,-0.0752298403913818]","[-1,-1,-1]","[0.07706774616890018,0.1147314352979465]","[-1,-1,-1]","[-0.10447228009581966,-0.05628878970086994]","[-1,-1,-1]","[0.028090855140162158,-0.1866362925040727]","[1,1,1]","[0.18819579033232214,-0.06723947145210313]","[1,1,1]","[-0.13520267609740877,0.07904883718518178]","[-1,-1,-1]","[0.17532568112379424,0.006389488655749994]","[-1,-1,-1]","[0.09080397394112028,-0.13772288803913038]","[-1,-1,-1]","[0.1303456706640424,0.1501367352750988]","[1,1,1]","[-0.022782296688943233,0.05480137181917822]","[-1,-1,-1]","[0.1115979077553137,0.06954012555270467]","[-1,-1,-1]","[-0.18448250897578786,-0.06427351233034961]","[-1,-1,-1]","[0.06852714863075866,0.05372673946317349]","[-1,-1,-1]","[-0.03323190167931681,-0.1564874996066865]","[-1,-1,-1]","[-0.053923506703133665,0.17624474493895356]","[-1,-1,-1]","[0.05803813530983542,-0.07855782998484456]","[1,1,1]","[0.1289467714890933,-0.039931695354822175]","[1,1,1]","[-0.18333298906965126,0.07377158282512451]","[1,1,1]","[0.0002012522783879425,0.1393763477299529]","[1,1,1]","[-0.05212408362605391,0.0854080417961531]","[1,1,1]","[-0.06401520035894133,-0.0848772382124842]","[1,1,1]","[0.06371248071583806,0.011803792466275328]","[-1,-1,-1]","[0.12805323471999366,-0.11062514093475317]","[1,1,1]","[-0.07653166460411744,0.03879624134061674]","[1,1,1]","[-0.17100191372763712,-0.018052158108708753]","[-1,-1,-1]","[0.019551105129833914,0.17453987795030332]","[1,1,1]","[-0.12254828015816815,-0.11624373407225334]","[1,1,1]","[0.03248809158133693,-0.03869971739972811]","[-1,-1,-1]","[-0.004051333820444711,-0.12389683190830574]","[1,1,1]","[0.02,0.02]",356.3229,0,1,1,89,1,,,,,,,
,,,,,,,66d450d116aa59a3161adf97,682dc8b14c46c0f8965020dc,2025-05-21_14h37.22.457,cuing_paradigm_dot,2024.1.5,Win32,50,682d556593cb38ad0a074487,,,,,,,,,,,356.3234,356.8122,,,357.0531,357.5447,right,0.4724,,,,,,,,,0.5,,,,,,356.8122,357.053,357.5448,"[0.06166688018047364,0.012315011564734508]","[-1,-1,-1]","[-0.09737939733272499,-0.16248627777367675]","[-1,-1,-1]","[0.0124857194523963,0.08914724807407505]","[-1,-1,-1]","[0.14881293770075574,0.08132920974424782]","[-1,-1,-1]","[-0.035301215370765714,0.17943392526244983]","[-1,-1,-1]","[0.08536027022288553,0.15671565452411762]","[1,1,1]","[-0.011333433968137374,0.0404181680914083]","[1,1,1]","[0.1270234649497429,-0.10635959656388996]","[-1,-1,-1]","[-0.16458805779638105,0.11295243022025521]","[1,1,1]","[-0.13293966799240883,-0.14238209340153357]","[-1,-1,-1]","[0.006035447037623989,-0.06834314168387404]","[-1,-1,-1]","[0.03506857754194203,-0.036591270378011846]","[1,1,1]","[0.09642791773124035,-0.03383589533516594]","[-1,-1,-1]","[0.005395872401906205,-0.0031041325762263695]","[1,1,1]","[-0.1271715966465312,-0.029786304252734597]","[-1,-1,-1]","[-0.05812447079967109,0.1248065616920908]","[1,1,1]","[0.015408829753257759,0.1941854421351521]","[-1,-1,-1]","[-0.09170183512918892,0.009158911034649397]","[1,1,1]","[0.001994702970811684,0.14584892032440272]","[-1,-1,-1]","[-0.19434861593970143,-0.0014381917971212172]","[-1,-1,-1]","[0.09546622974348028,0.052550326798738306]","[-1,-1,-1]","[-0.10263060798140992,-0.10819759189161511]","[1,1,1]","[-0.09330603007771698,0.16551979687048127]","[1,1,1]","[0.04472610839747778,0.14527159244231305]","[1,1,1]","[0.08049811236376708,-0.0746896790005481]","[1,1,1]","[0.04958242623500276,-0.15142795288239527]","[1,1,1]","[-0.07202545285249715,0.08177905700832697]","[1,1,1]","[0.0009749512290242116,-0.14287801147133766]","[-1,-1,-1]","[-0.0512014408374791,-0.15055848341824668]","[1,1,1]","[-0.04584246953315606,-0.09037383209746304]","[-1,-1,-1]","[0.15397364663156743,0.03415490606168262]","[1,1,1]","[-0.15013174146451647,0.06920569205222506]","[1,1,1]","[0.02,0.02]",358.638,0,2,2,119,1,,,,,,,
,,,,,,,66d450d116aa59a3161adf97,682dc8b14c46c0f8965020dc,2025-05-21_14h37.22.457,cuing_paradigm_dot,2024.1.5,Win32,50,682d556593cb38ad0a074487,,,,,,,,,,,358.6392,359.1327,,,359.3706,359.7925,right,0.4,,,,,,,,,0.9,,,,,,359.1328,359.3706,359.7926,"[-0.12664350150246975,0.0633418079730667]","[-1,-1,-1]","[0.1296576109797183,0.028244632130222092]","[1,1,1]","[-0.08529676443776534,-0.1051749003532547]","[-1,-1,-1]","[0.008351749592640992,0.181013597901853]","[1,1,1]","[0.08618835779665072,0.10740573740576928]","[1,1,1]","[-0.09126218876744707,0.014604050740347528]","[1,1,1]","[-0.084676517515116,0.06130940108296388]","[-1,-1,-1]","[0.10817930633212328,-0.11173186163914345]","[1,1,1]","[-0.11600881527645329,0.15515132015520475]","[1,1,1]","[-0.03229555957705607,0.06295477099251522]","[1,1,1]","[-0.007492817488610212,-0.1927541268913392]","[1,1,1]","[-0.04791734010672247,0.10058939882735905]","[1,1,1]","[0.18004888978885858,0.03941423241673555]","[1,1,1]","[0.06379994205126398,-0.15768999670899614]","[1,1,1]","[0.018392956295530574,0.05393902202398459]","[1,1,1]","[0.05750613854381789,0.07386364813034324]","[1,1,1]","[-0.161253188027014,0.011708965413867425]","[1,1,1]","[0.13085776304213384,-0.03969730486925648]","[1,1,1]","[0.03599346158227379,0.13437823429775578]","[1,1,1]","[0.09223611516833283,0.16399281540407218]","[1,1,1]","[-0.03534644461113139,-0.12007277653822873]","[1,1,1]","[-0.11593486033468256,-0.04364193104825025]","[1,1,1]","[0.083697170295494,-0.07036372661687404]","[1,1,1]","[0.16619162458920636,-0.1023510564020978]","[1,1,1]","[-0.030048180723102814,0.15668625512267073]","[1,1,1]","[-0.07200664977816794,-0.15691081782132085]","[1,1,1]","[-0.12385672710410528,-0.14744099357457408]","[1,1,1]","[0.0192972396393295,-0.11723462206152516]","[1,1,1]","[-0.13511627596423637,0.10551595955661826]","[1,1,1]","[-0.025398181901863288,0.015117180780392658]","[1,1,1]","[-0.14640459911753506,-0.08661400064289224]","[1,1,1]","[0.1866457546484932,-0.04471075092510268]","[1,1,1]","[0.02,0.02]",360.9101,0,3,3,186,1,,,,,,,
,,,,,,,66d450d116aa59a3161adf97,682dc8b14c46c0f8965020dc,2025-05-21_14h37.22.457,cuing_paradigm_dot,2024.1.5,Win32,50,682d556593cb38ad0a074487,,,,,,,,,,,360.9107,361.3984,,,361.6499,362.5599,left,0.881,,,,,,,,,0.45,,,,,,361.3986,361.6499,362.56,"[-0.16984990115407755,-0.017899303004575588]","[-1,-1,-1]","[0.0013397450136527131,-0.13666945723766005]","[-1,-1,-1]","[-0.15221614571089098,0.08138833313449305]","[1,1,1]","[0.03644574856816677,-0.06997551767352699]","[-1,-1,-1]","[-0.06121115848464395,0.07853659400812806]","[1,1,1]","[-0.1016524144624934,-0.06024343261143542]","[1,1,1]","[0.011799273888327343,0.05442168769629725]","[-1,-1,-1]","[0.06257039727813474,0.14958732589747709]","[-1,-1,-1]","[0.09979106109303386,-0.16323809341782253]","[-1,-1,-1]","[-0.06313116057326641,-0.029651829139623432]","[-1,-1,-1]","[-0.04127880415510007,0.01954283669919312]","[-1,-1,-1]","[-0.013650477477889502,0.08674115212676846]","[1,1,1]","[0.15837937613115974,0.10171351760422953]","[1,1,1]","[0.15472019486225635,0.008817922629991823]","[-1,-1,-1]","[-0.06955886094411431,-0.14481980794889557]","[-1,-1,-1]","[0.007456819030879627,0.14671044527796004]","[1,1,1]","[-0.0012604333246985437,-0.09022886662578669]","[-1,-1,-1]","[0.13157177331815245,-0.07395954543565764]","[-1,-1,-1]","[0.05057044609280914,0.03045623205773492]","[1,1,1]","[-0.05737643299859514,0.13607532526827257]","[1,1,1]","[0.10168883171549271,-0.11692215205546272]","[1,1,1]","[-0.14169080270630327,0.03624914222800558]","[1,1,1]","[-0.1514312209823057,-0.08363676374774007]","[-1,-1,-1]","[-0.05528235717452441,-0.18280270250850733]","[-1,-1,-1]","[0.0916602874031954,0.08478248889699701]","[-1,-1,-1]","[0.19398350105251388,0.03719374547662259]","[1,1,1]","[0.07590859541380843,-0.006993096591068222]","[1,1,1]","[-0.049842404111114916,0.18148889394554946]","[-1,-1,-1]","[-0.08914690614625582,0.16768550512601435]","[1,1,1]","[0.10231350399180585,0.16162668896568477]","[-1,-1,-1]","[-0.10480425395294012,0.05881643880974985]","[-1,-1,-1]","[-0.1454390955206897,0.12418789580019726]","[1,1,1]","[0.02,0.02]",363.6539,0,4,4,68,1,,,,,,,
,,,,,,,66d450d116aa59a3161adf97,682dc8b14c46c0f8965020dc,2025-05-21_14h37.22.457,cuing_paradigm_dot,2024.1.5,Win32,50,682d556593cb38ad0a074487,,,,,,,,,,,363.6545,364.1517,,,364.3861,365.1638,right,0.7478,,,,,,,,,0.55,,,,,,364.1517,364.386,365.1638,"[0.08723692193674956,-0.0217016083869888]","[1,1,1]","[-0.05231790938659073,-0.11274985717091962]","[1,1,1]","[0.12426561688591028,0.05510708089936084]","[1,1,1]","[0.002188289145068585,-0.1621325897069453]","[1,1,1]","[-0.038414261704336525,-0.01009502967204128]","[1,1,1]","[0.04016133939278647,-0.08144913298339612]","[1,1,1]","[-0.09305392636053454,-0.1291450390155376]","[-1,-1,-1]","[-0.04461721442000242,0.19327481758360174]","[1,1,1]","[-0.13502024053935419,-0.10419723600278996]","[1,1,1]","[0.16947164206361365,0.07053121997465202]","[1,1,1]","[-0.1593036515159005,-0.05452924826384844]","[1,1,1]","[-0.1293081026737275,0.13027091226226897]","[1,1,1]","[0.0013306888949572249,0.015601818258518087]","[-1,-1,-1]","[0.1343479080799937,0.09485886819998905]","[1,1,1]","[-0.1302324515207279,0.0066262462694356246]","[1,1,1]","[-0.029851182839890304,-0.18815714511467285]","[-1,-1,-1]","[-0.075807562705041,0.006366769202717079]","[-1,-1,-1]","[-0.17350430570345976,0.006123944449795097]","[-1,-1,-1]","[0.13471609454839914,-0.09933628973107429]","[-1,-1,-1]","[0.08157302017260279,0.10563721168484312]","[1,1,1]","[0.01097745575242468,0.1782113757762531]","[1,1,1]","[0.07989770322813887,-0.14293548347957433]","[-1,-1,-1]","[0.04086503147239501,0.0048966570269065495]","[-1,-1,-1]","[0.09204517296713674,-0.07448026960150866]","[-1,-1,-1]","[-0.030578712544496074,0.10684579901639336]","[1,1,1]","[0.051358644543671214,-0.172163147277538]","[-1,-1,-1]","[-0.06773165905774507,-0.06817823797016544]","[-1,-1,-1]","[-0.11448834345437066,-0.030435922520712852]","[-1,-1,-1]","[0.19974645674752264,0.006237462509113918]","[1,1,1]","[-0.03544278256095793,0.03890068860819675]","[-1,-1,-1]","[-0.09912441431633072,0.06364336223157094]","[-1,-1,-1]","[0.09066738677082327,0.15703964626417094]","[1,1,1]","[0.02,0.02]",366.256,0,5,5,137,1,,,,,,,
,,,,,,,66d450d116aa59a3161adf97,682dc8b14c46c0f8965020dc,2025-05-21_14h37.22.457,cuing_paradigm_dot,2024.1.5,Win32,50,682d556593cb38ad0a074487,,,,,,,,,,,366.2567,366.7433,,,366.9935,367.6545,right,0.6381,,,,,,,,,0.55,,,,,,366.7433,366.9934,367.6546,"[0.13662114801502181,0.14385749696354538]","[-1,-1,-1]","[-0.1434392727137523,-0.06807813774127836]","[-1,-1,-1]","[-0.008541936936748127,0.09262161744703341]","[1,1,1]","[0.04567093899789247,-0.12005220232093593]","[1,1,1]","[0.11987662559809228,-0.06795655714956683]","[-1,-1,-1]","[-0.04900777663907191,0.17935514364755978]","[-1,-1,-1]","[-0.06974390446229718,-0.12255948223069217]","[-1,-1,-1]","[0.09898928853847691,0.12329070369855231]","[1,1,1]","[0.023227903420784502,-0.04554807652379511]","[1,1,1]","[-0.0706754045147004,0.010399995918655253]","[1,1,1]","[0.18825434144953257,0.048663320972319915]","[-1,-1,-1]","[-0.04675006201972883,-0.04351796538679567]","[1,1,1]","[-0.16861675894001443,0.025762949102644584]","[-1,-1,-1]","[-0.0034193261726428253,-0.09056489254082425]","[-1,-1,-1]","[0.021312410493558843,0.13073958456106205]","[1,1,1]","[0.14181181289582692,-0.021123104430339015]","[-1,-1,-1]","[0.09615669149068612,0.057756447563095246]","[-1,-1,-1]","[-0.0665780212829084,0.060502792104172316]","[1,1,1]","[-0.136877327597946,0.12939765676886514]","[1,1,1]","[-0.043312146301658576,-0.08367802088072807]","[1,1,1]","[0.17830129332634648,-0.06078202929550034]","[1,1,1]","[-0.07729950082046809,0.1137972433414444]","[1,1,1]","[0.0950652129861306,-0.11280826330841615]","[1,1,1]","[0.05597503125065939,0.04273608876175811]","[1,1,1]","[-0.162837093085302,0.09560139501437312]","[-1,-1,-1]","[-0.0162996285121644,0.15244444667017312]","[1,1,1]","[0.03852328970098691,0.18315312243205473]","[-1,-1,-1]","[-0.03291989511405583,-0.1539280904509706]","[-1,-1,-1]","[0.06594337665232282,-0.04948301765636591]","[-1,-1,-1]","[-0.09301400980128396,0.16590221656784504]","[1,1,1]","[0.06861147348524345,-0.16012794629287902]","[1,1,1]","[0.13712301532910465,0.033337286711408495]","[1,1,1]","[0.02,0.02]",368.7676,0,6,6,132,1,,,,,,,
,,,,,,,66d450d116aa59a3161adf97,682dc8b14c46c0f8965020dc,2025-05-21_14h37.22.457,cuing_paradigm_dot,2024.1.5,Win32,50,682d556593cb38ad0a074487,,,,,,,,,,,368.7683,369.2571,,,369.4973,370.1186,left,0.6014,,,,,,,,,0.4,,,,,,369.2572,369.4973,370.1187,"[0.08593955271249452,0.14560773714831052]","[1,1,1]","[0.025883647253734682,0.17466268579401592]","[-1,-1,-1]","[-0.012131125721980692,0.02926955203550112]","[-1,-1,-1]","[-0.058305918531692945,-0.020117999175171878]","[-1,-1,-1]","[-0.10647971487434821,-0.036366090623099846]","[-1,-1,-1]","[0.011719877003061355,0.1310431559532549]","[-1,-1,-1]","[-0.15935618434585896,0.0032371449162248785]","[-1,-1,-1]","[-0.09331905545761889,0.12243299191748051]","[1,1,1]","[0.16861164189481037,-0.07919828228868257]","[-1,-1,-1]","[0.12333061199711269,0.07579267828636284]","[1,1,1]","[0.02415266605216114,-0.08502007195032796]","[-1,-1,-1]","[-0.06268053580572407,0.07887977026159876]","[1,1,1]","[0.0790883980038273,-0.031027204371279333]","[-1,-1,-1]","[0.0618519145206669,-0.10782369889693823]","[1,1,1]","[-0.10727135630251732,-0.08296284336190313]","[-1,-1,-1]","[-0.10149924876849263,0.00945432582064378]","[-1,-1,-1]","[0.17001398044082314,-0.03294543566645862]","[-1,-1,-1]","[0.030503773493808038,-0.1868894637150429]","[1,1,1]","[-0.16248616521921744,-0.10126201346456588]","[-1,-1,-1]","[0.1284059547161144,-0.08079137946121843]","[-1,-1,-1]","[0.0716614765271003,-0.1681597348277344]","[1,1,1]","[-0.1350843417029084,0.08970129189362405]","[-1,-1,-1]","[-0.028591893182266844,-0.05847029456738767]","[1,1,1]","[-0.02282121802333042,0.1707965192824165]","[1,1,1]","[-0.045789139923178124,-0.16940627662036772]","[1,1,1]","[0.12191125127493556,-0.03322806048446731]","[1,1,1]","[0.1871662339201878,0.04780514218939983]","[-1,-1,-1]","[0.03550505067204568,0.08362604378244375]","[-1,-1,-1]","[0.1348760201692374,0.017963921152991166]","[1,1,1]","[0.1367354095835565,0.11534927438322844]","[-1,-1,-1]","[-0.15016209299969746,-0.056171034873999555]","[-1,-1,-1]","[-0.012125561276338046,0.0727487207446657]","[1,1,1]","[0.02,0.02]",371.2188,0,7,7,46,1,,,,,,,
,,,,,,,66d450d116aa59a3161adf97,682dc8b14c46c0f8965020dc,2025-05-21_14h37.22.457,cuing_paradigm_dot,2024.1.5,Win32,50,682d556593cb38ad0a074487,,,,,,,,,,,371.2192,371.7178,,,371.9564,372.6072,left,0.6289,,,,,,,,,0.5,,,,,,371.7178,371.9564,372.6073,"[-0.08786460185118167,-0.03847216109896364]","[-1,-1,-1]","[-0.07002564207581646,0.08735837385205646]","[1,1,1]","[-0.11353673651212053,-0.09183023677945204]","[-1,-1,-1]","[0.10283453841003841,0.08183122795577509]","[1,1,1]","[-0.1891874799777572,-0.031197588779906922]","[1,1,1]","[-0.12100943836428615,0.05883640546341199]","[-1,-1,-1]","[0.09321736711650824,0.15938479629245197]","[-1,-1,-1]","[-0.14544730195988811,-0.019151031562965434]","[-1,-1,-1]","[-0.0440590148574653,0.1575590642031268]","[-1,-1,-1]","[0.01802110231818082,-0.1086163733194379]","[1,1,1]","[-0.039980584308414786,-0.08919402939274733]","[1,1,1]","[0.12683344668222457,-0.06884982806753906]","[1,1,1]","[0.09379649183360564,-0.16203392343768286]","[-1,-1,-1]","[0.08510497542698704,0.02873756922994596]","[1,1,1]","[0.1777995036960448,-0.011939232208526824]","[1,1,1]","[-0.09480484878549968,0.14468012948489298]","[-1,-1,-1]","[0.16942916688309345,-0.07832572496972706]","[1,1,1]","[-0.049541455903080796,-0.020218391367331483]","[1,1,1]","[0.028486623663383465,-0.1669626146398058]","[-1,-1,-1]","[0.05528526387081641,-0.1285060884921398]","[1,1,1]","[0.019713502174977214,0.15158343458654508]","[1,1,1]","[0.013761691796952193,0.06956470801819972]","[-1,-1,-1]","[0.13768942193820008,0.1241310692717853]","[-1,-1,-1]","[0.02878373706287082,0.032219318746596386]","[-1,-1,-1]","[-0.019751523092681158,-0.14875307892282583]","[-1,-1,-1]","[0.04570558270056779,-0.043521631108486135]","[1,1,1]","[-0.10190113983293114,0.013723596991098064]","[-1,-1,-1]","[0.16351201665759643,0.03639202330972692]","[1,1,1]","[-0.0038616197118284956,-0.19137150689358381]","[1,1,1]","[0.12300971066105838,-0.02454935615413096]","[1,1,1]","[-0.17499154684016088,0.017492595779198886]","[-1,-1,-1]","[-0.011179016372751831,-0.046238326350741814]","[-1,-1,-1]","[0.02,0.02]",373.6993,0,8,8,92,1,,,,,,,
,,,,,,,66d450d116aa59a3161adf97,682dc8b14c46c0f8965020dc,2025-05-21_14h37.22.457,cuing_paradigm_dot,2024.1.5,Win32,50,682d556593cb38ad0a074487,,,,,,,,,,,373.6997,374.204,,,374.4566,375.086,left,0.6064,,,,,,,,,0.1,,,,,,374.2041,374.4565,375.086,"[-0.11497217913340538,0.1327650924953882]","[-1,-1,-1]","[0.021399101196220103,-0.022001555799974603]","[-1,-1,-1]","[0.0669724293903365,0.17546877491820204]","[-1,-1,-1]","[0.1754278387961454,0.023671943826478834]","[1,1,1]","[0.03268181753454993,-0.1584457474071831]","[-1,-1,-1]","[-0.0011942677476711372,0.11972837644816281]","[-1,-1,-1]","[-0.041471059038402355,-0.09651233831758949]","[-1,-1,-1]","[-0.19824255658749426,-0.0033923304724397707]","[-1,-1,-1]","[-0.008089048688036537,-0.15129039255838314]","[-1,-1,-1]","[0.06564462392831776,-0.05683294734962474]","[-1,-1,-1]","[-0.08114150032508542,0.059363967788998925]","[-1,-1,-1]","[0.13800125889878215,-0.14198672044843735]","[-1,-1,-1]","[0.11613383316087571,0.12976178550524703]","[-1,-1,-1]","[0.10954373045409257,0.06250190762302381]","[-1,-1,-1]","[0.06393267091651067,0.012045237039362989]","[-1,-1,-1]","[-0.10393916382338135,-0.07796228724079952]","[-1,-1,-1]","[0.027392085809974643,0.08888950376174813]","[-1,-1,-1]","[-0.17298037716621278,-0.09263921112972677]","[-1,-1,-1]","[0.08571596638136746,-0.15609454057462643]","[-1,-1,-1]","[0.10128471665135654,-0.01959544661854947]","[1,1,1]","[-0.12244384380049536,0.023433421788938088]","[-1,-1,-1]","[-0.06712718714532946,0.14545972409403665]","[-1,-1,-1]","[-0.13149503177147598,-0.12266739874820819]","[-1,-1,-1]","[-0.041421960913141424,-0.03641572350727866]","[-1,-1,-1]","[-0.02727142843373427,0.008301036371773677]","[-1,-1,-1]","[-0.14799081893002883,-0.018780813278183633]","[1,1,1]","[0.166260019841484,-0.07129025437218804]","[-1,-1,-1]","[-0.05351375938974653,-0.18022490244072734]","[-1,-1,-1]","[0.007282797855273512,0.16771864615702117]","[-1,-1,-1]","[0.11340342162805593,0.021918634742101286]","[-1,-1,-1]","[0.09776288415585756,-0.08782688512519612]","[-1,-1,-1]","[-0.16550899082167075,0.029949451083127306]","[-1,-1,-1]","[0.02,0.02]",376.191,0,9,9,6,1,,,,,,,
,,,,,,,66d450d116aa59a3161adf97,682dc8b14c46c0f8965020dc,2025-05-21_14h37.22.457,cuing_paradigm_dot,2024.1.5,Win32,50,682d556593cb38ad0a074487,,,,,,,,,,,376.192,376.6803,,,376.9183,377.3415,right,0.4003,,,,,,,,,0.6,,,,,,376.6804,376.9183,377.3415,"[0.04527498980391855,-0.06921929617305607]","[-1,-1,-1]","[0.07553790167456736,-0.17827457338443736]","[1,1,1]","[-0.03406707042221326,0.011055238679446877]","[1,1,1]","[-0.12557562152214743,0.08041520273673941]","[1,1,1]","[0.1047081309325648,0.014296330913052411]","[1,1,1]","[0.13585264075037573,0.12857299558027477]","[1,1,1]","[0.14696408899994398,0.010233462782896207]","[1,1,1]","[0.16447808613826073,-0.049480463881099064]","[-1,-1,-1]","[-0.14780704173860137,-0.06600545427864242]","[-1,-1,-1]","[-0.03142615277428209,0.06177492174766823]","[1,1,1]","[0.11712908463292465,-0.1353147254053572]","[1,1,1]","[0.0419584470548984,0.023424897603444766]","[-1,-1,-1]","[0.014444427434335869,0.06193133952797496]","[1,1,1]","[-0.08996192726460664,-0.10403803703290107]","[1,1,1]","[0.05535021625478719,0.07063857638636624]","[1,1,1]","[0.09774129146494888,0.10937792134193279]","[1,1,1]","[0.17239906542851544,0.041714308106525856]","[1,1,1]","[-0.05979001487568586,-0.1455612431586648]","[-1,-1,-1]","[0.16169294172666168,0.09076444161594682]","[-1,-1,-1]","[-0.012338899321097097,0.12679252673290603]","[-1,-1,-1]","[0.038046897026054245,-0.11507173579824223]","[1,1,1]","[0.032180869122423225,-0.1870238975993678]","[1,1,1]","[-0.005472865289540068,-0.13342464728294307]","[-1,-1,-1]","[0.05577515501650993,0.1408358106170261]","[1,1,1]","[-0.10839743257016318,0.13031676080159946]","[-1,-1,-1]","[-0.043886086574494595,-0.07934054403622666]","[1,1,1]","[-0.13628453489448772,-0.12967047446640245]","[-1,-1,-1]","[-0.14896718587902716,-0.0002466566869216116]","[-1,-1,-1]","[-0.07115902155186392,0.09620975164169782]","[1,1,1]","[0.16767224614609524,-0.10706030707355169]","[1,1,1]","[-0.16735824534646593,0.10799756124747564]","[-1,-1,-1]","[0.10766075262598683,-0.04033402213103585]","[-1,-1,-1]","[0.02,0.02]",378.4411,0,10,10,177,1,,,,,,,
,,,,,,,66d450d116aa59a3161adf97,682dc8b14c46c0f8965020dc,2025-05-21_14h37.22.457,cuing_paradigm_dot,2024.1.5,Win32,50,682d556593cb38ad0a074487,,,,,,,,,,,378.4416,378.9455,,,379.2,379.6621,right,0.4406,,,,,,,,,0.55,,,,,,378.9457,379.2,379.6621,"[0.02125547179367295,-0.1603959361003222]","[-1,-1,-1]","[0.08948815814112296,-0.13572469183053668]","[1,1,1]","[0.19178044940494665,0.019806992690671144]","[-1,-1,-1]","[0.0625079680688466,-0.1808289355699493]","[-1,-1,-1]","[0.06301190801833606,-0.046700046069799696]","[1,1,1]","[0.06803340453137953,0.046512876159991605]","[-1,-1,-1]","[0.165193249501707,0.06762759802144172]","[1,1,1]","[0.16403372068825053,-0.034025228470781474]","[-1,-1,-1]","[0.03437067250191905,0.09651804719222866]","[-1,-1,-1]","[-0.143797401020126,-0.08931454135246268]","[-1,-1,-1]","[0.09951102159386316,0.014785715529967243]","[-1,-1,-1]","[-0.05289020008435927,0.18455823402304178]","[1,1,1]","[-0.08358507942085178,-0.1630052261695041]","[-1,-1,-1]","[-0.11625762286485236,-0.018540820531577698]","[-1,-1,-1]","[-0.004151762434018231,0.12165165731616873]","[1,1,1]","[-0.19179527169966262,0.04734132252611135]","[-1,-1,-1]","[-0.12938057537264605,0.0308311907670998]","[-1,-1,-1]","[0.14198797953748518,0.1014869380039986]","[1,1,1]","[0.008248377278989506,0.19873972332677703]","[-1,-1,-1]","[-0.015798731988651008,0.03393255348584727]","[1,1,1]","[-0.09756165615263794,0.1030125464158392]","[1,1,1]","[0.1085793431223064,0.07880371773993654]","[1,1,1]","[0.15578959591892513,-0.08315036199413561]","[1,1,1]","[-0.03191315486322984,-0.1464057630169727]","[1,1,1]","[-0.07971063710643692,-0.10820438633231214]","[1,1,1]","[-0.07454060365598517,0.04324110669632284]","[1,1,1]","[0.07588244786949139,0.18340314644503153]","[1,1,1]","[-0.020555078262001793,-0.0115912975272338]","[-1,-1,-1]","[-0.054034333144023956,-0.046723772807222584]","[1,1,1]","[-0.15840297523999458,-0.020658664250554876]","[1,1,1]","[-0.09861063351561414,0.14579554375787462]","[1,1,1]","[-0.035109414421857,0.09148208331220249]","[1,1,1]","[0.02,0.02]",380.779,0,11,11,146,1,,,,,,,
,,,,,,,66d450d116aa59a3161adf97,682dc8b14c46c0f8965020dc,2025-05-21_14h37.22.457,cuing_paradigm_dot,2024.1.5,Win32,50,682d556593cb38ad0a074487,,,,,,,,,,,380.7795,381.3017,,,381.5197,382.3146,left,0.7721,,,,,,,,,0.4,,,,,,381.3017,381.5196,382.3146,"[-0.13199852947872798,0.07699023647854344]","[-1,-1,-1]","[-0.05429018622379719,0.14360592683832937]","[-1,-1,-1]","[-0.03872197261400476,0.04457832326117129]","[1,1,1]","[0.061662726816532364,-0.16125511099253462]","[-1,-1,-1]","[-0.005653229597774105,0.19466332814959902]","[1,1,1]","[-0.09442475289283417,-0.12448660020231474]","[1,1,1]","[-0.021487467741294498,-0.16298745786693453]","[-1,-1,-1]","[-0.12410301626817316,0.13268999293498596]","[-1,-1,-1]","[-0.15013064963863423,-0.007720333436753613]","[-1,-1,-1]","[0.11837760294894831,-0.05729641849803677]","[1,1,1]","[-0.010286052567545445,-0.08267702397394064]","[-1,-1,-1]","[-0.06711596181276985,-0.02670931530450198]","[-1,-1,-1]","[0.05535292781137175,0.05529919817131905]","[1,1,1]","[0.11967915811284158,-0.11407101992787137]","[-1,-1,-1]","[0.14850791601117241,0.09456591979641561]","[-1,-1,-1]","[-0.0514423019164846,-0.12795035202960206]","[1,1,1]","[0.03252536674409637,0.14915271135524932]","[-1,-1,-1]","[-0.00795236046343086,0.07537054506960893]","[1,1,1]","[-0.14113627747047705,-0.10902163453752668]","[-1,-1,-1]","[0.08788486550339887,0.12891279913375242]","[-1,-1,-1]","[-0.16357094845789405,0.10885183179291381]","[-1,-1,-1]","[-0.1787118562096333,0.030523510245603253]","[-1,-1,-1]","[0.10977986814891667,0.028309242670155582]","[1,1,1]","[0.14812006065334515,-0.014143072278360572]","[1,1,1]","[-0.11344120941873992,-0.053802758821791884]","[1,1,1]","[0.02526780231853801,0.0018938309303329552]","[-1,-1,-1]","[-0.08529507482261718,0.045830589990603306]","[1,1,1]","[0.05512952448999349,-0.05987693224957601]","[1,1,1]","[-0.052410308103637185,0.0893082124562652]","[-1,-1,-1]","[0.06797162626034253,-0.11820976632162794]","[1,1,1]","[0.19426106692917128,-0.009492599628736694]","[-1,-1,-1]","[0.17540310284009522,0.041795953549184896]","[-1,-1,-1]","[0.02,0.02]",383.4013,0,12,12,57,1,,,,,,,
,,,,,,,66d450d116aa59a3161adf97,682dc8b14c46c0f8965020dc,2025-05-21_14h37.22.457,cuing_paradigm_dot,2024.1.5,Win32,50,682d556593cb38ad0a074487,,,,,,,,,,,383.4018,383.8882,,,384.1404,384.7636,left,0.6001,,,,,,,,,0.4,,,,,,383.8882,384.1403,384.7638,"[0.18466851333816217,-0.008289371445662828]","[1,1,1]","[0.12096217518937669,0.14557741466462115]","[1,1,1]","[-0.0057483941448488235,0.15661524269593527]","[-1,-1,-1]","[0.08800216785680788,0.021319656867732625]","[-1,-1,-1]","[0.09017131569163787,-0.1309030285367632]","[-1,-1,-1]","[-0.0696155602331832,0.13881458282215442]","[-1,-1,-1]","[-0.006628854543667926,-0.10761760989530048]","[1,1,1]","[-0.16404167609690676,-0.02754167119536379]","[1,1,1]","[-0.00046397102101874364,-0.0002853241667917981]","[1,1,1]","[-0.06120388257836545,-0.011986947808154876]","[1,1,1]","[0.04102745575240712,0.06683759423798125]","[1,1,1]","[-0.15997122950814696,-0.10967089756799522]","[-1,-1,-1]","[-0.03552804551572894,0.04006966620313901]","[1,1,1]","[-0.057978785302996994,-0.10576058597008449]","[1,1,1]","[-0.15966306429458538,0.0335680349176061]","[-1,-1,-1]","[0.1396590267029016,-0.08321943365997164]","[1,1,1]","[-0.0284959411208491,-0.16625529505222922]","[-1,-1,-1]","[0.05857905964191325,-0.04739946841381513]","[-1,-1,-1]","[0.18107400179390062,0.04287015294176975]","[-1,-1,-1]","[-0.014704792709613555,-0.060467275560433166]","[1,1,1]","[-0.13304160587459263,0.10429586104756275]","[-1,-1,-1]","[-0.12563536883543994,-0.13266075429766136]","[-1,-1,-1]","[-0.09820776878547982,-0.16222777692279283]","[1,1,1]","[0.11129702079293832,0.08831696947166952]","[-1,-1,-1]","[0.030035554369195496,-0.14942409483050043]","[-1,-1,-1]","[0.1255514514214648,-0.04486178942853891]","[-1,-1,-1]","[0.15150003388516747,0.0887725217861698]","[-1,-1,-1]","[-0.040066719929017496,0.09852087862959424]","[1,1,1]","[-0.06085349703571436,-0.05700456076413956]","[-1,-1,-1]","[-0.09969500136092603,0.01719315983187079]","[-1,-1,-1]","[0.04587216787941023,0.010450021250471914]","[-1,-1,-1]","[-0.1954897790375781,-0.0026741645009863316]","[-1,-1,-1]","[0.02,0.02]",385.8838,0,13,13,44,1,,,,,,,
,,,,,,,66d450d116aa59a3161adf97,682dc8b14c46c0f8965020dc,2025-05-21_14h37.22.457,cuing_paradigm_dot,2024.1.5,Win32,50,682d556593cb38ad0a074487,,,,,,,,,,,385.8844,386.3688,,,386.6202,387.2514,left,0.6068,,,,,,,,,0.5,,,,,,386.369,386.6202,387.2515,"[-0.1630112784576007,-0.04380691595940099]","[-1,-1,-1]","[0.06820630952934191,-0.0402015840789027]","[1,1,1]","[-0.0358174802582519,-0.0695016507886393]","[1,1,1]","[-0.1038704236887685,0.11072016502599508]","[1,1,1]","[-0.08507026534544078,-0.012711726576496789]","[-1,-1,-1]","[-0.028647774698558635,0.1612983405670268]","[1,1,1]","[-0.010722374845173991,-0.18267341493551648]","[-1,-1,-1]","[0.04523128483585507,-0.13159996836171126]","[1,1,1]","[-0.12319130974975974,-0.1457550840379534]","[1,1,1]","[-0.00011713631656276141,-0.00028116470547439427]","[1,1,1]","[-0.06526608211699052,-0.12352429613489006]","[-1,-1,-1]","[-0.16326227284962577,0.03522278054805148]","[-1,-1,-1]","[0.19085288720530752,0.018091175057843915]","[1,1,1]","[-0.12899516771260752,-0.011507769717389987]","[-1,-1,-1]","[0.12286461981749715,-0.0784354970223861]","[1,1,1]","[-0.12716905642429796,-0.09434668081473549]","[-1,-1,-1]","[0.16058402604377875,0.11471732907540055]","[1,1,1]","[-0.06895929032261588,0.15296288872135397]","[-1,-1,-1]","[0.02766197120154459,0.19007086452543637]","[1,1,1]","[-0.1683989444163358,0.1057271308896956]","[1,1,1]","[0.10522567622740983,0.06884492183522777]","[-1,-1,-1]","[0.0712914761387846,-0.1723534166893795]","[-1,-1,-1]","[0.008572763938957294,-0.10181049726211638]","[1,1,1]","[-0.1152161949856374,0.03858633938727084]","[1,1,1]","[0.11203228888525392,0.014124921196539922]","[-1,-1,-1]","[0.07341028138329019,0.14210860377300397]","[-1,-1,-1]","[-0.011091050002021242,0.11965197759157435]","[-1,-1,-1]","[0.08004550964819784,-0.10502850339011888]","[-1,-1,-1]","[-0.07586591024939135,0.052026391772863056]","[1,1,1]","[0.1663672245612281,-0.09949928267935504]","[-1,-1,-1]","[0.02581123591825194,0.093459144470447]","[1,1,1]","[0.1733772402834521,-0.04953442669620565]","[-1,-1,-1]","[0.02,0.02]",388.3327,0,14,14,112,1,,,,,,,
,,,,,,,66d450d116aa59a3161adf97,682dc8b14c46c0f8965020dc,2025-05-21_14h37.22.457,cuing_paradigm_dot,2024.1.5,Win32,50,682d556593cb38ad0a074487,,,,,,,,,,,388.3343,388.8306,,,389.0826,389.544,right,0.4382,,,,,,,,,0.9,,,,,,388.8306,389.0825,389.544,"[-0.0880934226603293,-0.07358527592267351]","[1,1,1]","[-0.014416523566557168,0.10616658483411]","[1,1,1]","[0.0015370575521752659,-0.07258480100362746]","[-1,-1,-1]","[-0.11907415998876451,-0.017845881572197374]","[1,1,1]","[0.03535436259774704,-0.17286203949750492]","[1,1,1]","[0.1276831672446331,-0.054139245479969844]","[1,1,1]","[-0.1345298079962944,0.05132121231536883]","[1,1,1]","[-0.12622518687162088,-0.12675748045236856]","[1,1,1]","[-0.006305147365134157,-0.19146919705200982]","[1,1,1]","[0.01278756265497412,0.17958816579735862]","[-1,-1,-1]","[-0.031504903556294414,0.06304322602105585]","[1,1,1]","[-0.07681241485418949,-0.019642602427692956]","[1,1,1]","[-0.05991686328845372,-0.10563126995022239]","[1,1,1]","[0.08951268118683077,0.1418298603882704]","[1,1,1]","[0.08956788811600398,0.04060564526373393]","[1,1,1]","[0.16381795913286645,0.05021568497650149]","[1,1,1]","[-0.033417349266293084,-0.03343851308120065]","[1,1,1]","[0.0696240850215583,-0.09135217070088199]","[1,1,1]","[0.1280296817105086,0.12391368970758462]","[1,1,1]","[-0.08132012658642346,0.031117345067428748]","[1,1,1]","[-0.1515377871031527,-0.04960672827680702]","[1,1,1]","[-0.060573480359786866,0.17018272958159286]","[1,1,1]","[-0.09522528590466504,0.10861995689082539]","[1,1,1]","[0.1920619085077849,0.002033573342645396]","[1,1,1]","[0.016760880073717455,0.06171675199970809]","[-1,-1,-1]","[0.19038269143717088,-0.045249738987135496]","[1,1,1]","[0.06330816696191784,0.08956695329498131]","[1,1,1]","[-0.04706430198873279,-0.1523996728191654]","[1,1,1]","[0.07720330000177884,-0.14114748072870753]","[1,1,1]","[0.03770864894860856,0.00005250239111411059]","[1,1,1]","[-0.16834164728579623,0.1032662020613844]","[1,1,1]","[0.047420141283055287,0.13156507011554805]","[1,1,1]","[0.02,0.02]",390.6318,0,15,15,202,1,,,,,,,
,,,,,,,66d450d116aa59a3161adf97,682dc8b14c46c0f8965020dc,2025-05-21_14h37.22.457,cuing_paradigm_dot,2024.1.5,Win32,50,682d556593cb38ad0a074487,,,,,,,,,,,390.6327,391.1174,,,391.3633,391.7123,right,0.3208,,,,,,,,,0.9,,,,,,391.1175,391.3632,391.7124,"[0.043683263840837996,-0.14698034191513934]","[1,1,1]","[-0.10864315075395063,0.08701189838466764]","[-1,-1,-1]","[0.18043107976699832,0.0018515172952350627]","[1,1,1]","[0.16339393828840554,0.09884858269362613]","[1,1,1]","[0.07432320154462926,-0.11043753418843845]","[1,1,1]","[-0.12356315813019189,-0.12308772024095946]","[1,1,1]","[-0.12276883927176858,-0.016798343620485056]","[1,1,1]","[-0.08017630266189187,0.05100553571885173]","[1,1,1]","[-0.002575776453869961,0.018432205604787182]","[-1,-1,-1]","[0.10368647439757808,-0.14766371936074685]","[1,1,1]","[0.01297700191997337,0.08914474306650187]","[1,1,1]","[-0.040518973670068646,-0.06831532461961835]","[1,1,1]","[0.005058226440474541,0.19131443038901894]","[1,1,1]","[0.12694143038304467,0.14606810400616713]","[1,1,1]","[0.11444383092057929,0.009536116477854122]","[1,1,1]","[-0.16870302602521406,0.02881742369050058]","[1,1,1]","[-0.046387804061156654,-0.16428752698564428]","[1,1,1]","[-0.10099311870170619,0.13433186036060898]","[1,1,1]","[-0.030742531993883788,0.08650272165295704]","[1,1,1]","[0.03067482340534674,-0.051304532100174306]","[1,1,1]","[-0.19160360183737077,-0.023075700281457924]","[1,1,1]","[0.13638015349746643,-0.09939555654175249]","[1,1,1]","[-0.15549170570198984,-0.08446561630404915]","[1,1,1]","[-0.04901750280439968,-0.11247327821029979]","[-1,-1,-1]","[0.012416708662355247,-0.09092626767369542]","[1,1,1]","[0.11178374304699358,0.07247246947600001]","[1,1,1]","[0.06291531338285804,0.12437767266138498]","[1,1,1]","[0.11939189514608355,-0.033747574276687266]","[1,1,1]","[0.0835516623954465,-0.05956309088029965]","[1,1,1]","[0.15717155616310646,-0.06403754928726567]","[1,1,1]","[-0.08566164438415869,-0.05597922921271783]","[1,1,1]","[-0.15285816418722306,-0.04450642843958401]","[1,1,1]","[0.02,0.02]",392.8063,0,16,16,192,1,,,,,,,
,,,,,,,66d450d116aa59a3161adf97,682dc8b14c46c0f8965020dc,2025-05-21_14h37.22.457,cuing_paradigm_dot,2024.1.5,Win32,50,682d556593cb38ad0a074487,,,,,,,,,,,392.8071,393.3071,,,393.5443,393.9924,right,0.4216,,,,,,,,,0.6,,,,,,393.3071,393.5442,393.9926,"[0.15911099116995878,-0.10226050108495983]","[1,1,1]","[-0.018991842790424995,-0.020421815488007807]","[1,1,1]","[0.09148562810385989,-0.10928255702051744]","[1,1,1]","[-0.1434084021640468,-0.11745022740241692]","[1,1,1]","[0.143983305999485,0.10496128508136181]","[1,1,1]","[0.07856970366219188,0.11189054332628315]","[-1,-1,-1]","[-0.14893501653732558,-0.0023710302765131506]","[1,1,1]","[-0.13683116832250483,0.12225859906409786]","[1,1,1]","[0.1345641523377951,0.002292807946911107]","[1,1,1]","[-0.040351782392905315,-0.14013581329723399]","[-1,-1,-1]","[0.07030950292151211,-0.015888369644655214]","[-1,-1,-1]","[-0.05169711890472417,0.12207209897130378]","[1,1,1]","[0.16146789415801752,0.059248066647540995]","[1,1,1]","[-0.07894136140503795,-0.1122892999963888]","[-1,-1,-1]","[-0.09741029499776023,-0.03041151448256684]","[1,1,1]","[-0.01275515863602126,0.04779998293777548]","[-1,-1,-1]","[0.016440757194237512,-0.18165550464936717]","[-1,-1,-1]","[-0.1916804597305702,0.00031810540641314105]","[1,1,1]","[0.1095813716018124,0.0755147949608942]","[1,1,1]","[0.1892287408843582,0.0012692265611868858]","[1,1,1]","[0.05005293643174484,-0.10520805387379704]","[1,1,1]","[-0.10201262710264766,0.07933077517716494]","[-1,-1,-1]","[0.17177220066597892,-0.035987509978923415]","[1,1,1]","[0.08244230781345799,-0.15287462293970838]","[1,1,1]","[-0.06995199297388592,0.16957070759965315]","[-1,-1,-1]","[-0.018573585168900935,0.15637713014225657]","[1,1,1]","[-0.039456400269378356,-0.08499018787697223]","[-1,-1,-1]","[0.019083071010291334,0.1713717400043687]","[-1,-1,-1]","[0.01798874656085531,0.10084313909350866]","[-1,-1,-1]","[-0.023019892062106927,0.08870859461215003]","[1,1,1]","[0.118288078672579,-0.06237610511306791]","[-1,-1,-1]","[-0.09997423664711882,0.03291668802379679]","[-1,-1,-1]","[0.02,0.02]",395.0875,0,17,17,169,1,,,,,,,
,,,,,,,66d450d116aa59a3161adf97,682dc8b14c46c0f8965020dc,2025-05-21_14h37.22.457,cuing_paradigm_dot,2024.1.5,Win32,50,682d556593cb38ad0a074487,,,,,,,,,,,395.088,395.5764,,,395.8253,396.4494,left,0.6009,,,,,,,,,0.5,,,,,,395.5766,395.8253,396.4495,"[-0.06865332974785807,-0.13431527001369162]","[-1,-1,-1]","[0.03132099646133284,0.10665834885723774]","[1,1,1]","[-0.06905710955923082,-0.04605989923477763]","[1,1,1]","[-0.009980845392555851,0.07287706327584434]","[-1,-1,-1]","[-0.09619297902879498,0.05958630992950719]","[1,1,1]","[0.09112877831064332,0.10747597178134015]","[1,1,1]","[-0.03603733965209306,0.014817117095842904]","[-1,-1,-1]","[-0.10748377747133589,-0.018195711274093838]","[-1,-1,-1]","[0.0021318467652535265,-0.04124270242856043]","[-1,-1,-1]","[-0.10027050233123917,-0.1616998213561393]","[1,1,1]","[0.09918318766162837,0.014138387456736939]","[1,1,1]","[0.07274823004734636,-0.02786872163070756]","[-1,-1,-1]","[-0.00039633330963225393,0.14808375586259878]","[-1,-1,-1]","[0.06470423409465904,0.0360007798921371]","[1,1,1]","[0.137080263518554,-0.1356582019279197]","[1,1,1]","[0.04183133379418651,-0.0005426561575131706]","[1,1,1]","[-0.011821270583508769,0.19534007241618231]","[-1,-1,-1]","[-0.17984840202138203,0.01822710321083093]","[-1,-1,-1]","[-0.1286551849242751,-0.1016670321341967]","[-1,-1,-1]","[-0.04820490464030026,0.1527994654209339]","[-1,-1,-1]","[-0.07697753338427671,0.12416769695177844]","[-1,-1,-1]","[0.1516935017746276,-0.05063375889442645]","[-1,-1,-1]","[0.05072186979839757,-0.17075543143889277]","[1,1,1]","[0.1332297025688388,0.09750951602070702]","[1,1,1]","[-0.11108831108798232,0.14606084391539165]","[1,1,1]","[-0.16574344898060342,-0.07784422998301883]","[-1,-1,-1]","[-0.15959277387437143,0.09119121019639576]","[-1,-1,-1]","[0.14794038561301184,-0.004619029196246133]","[-1,-1,-1]","[0.06011697266587181,-0.11993893880103554]","[1,1,1]","[-0.13003516325912617,-0.05558175916398527]","[1,1,1]","[-0.03244911266106907,-0.0940520093378127]","[1,1,1]","[0.19202812003405964,-0.018437766977438173]","[1,1,1]","[0.02,0.02]",397.5538,0,18,18,91,1,,,,,,,
,,,,,,,66d450d116aa59a3161adf97,682dc8b14c46c0f8965020dc,2025-05-21_14h37.22.457,cuing_paradigm_dot,2024.1.5,Win32,50,682d556593cb38ad0a074487,,,,,,,,,,,397.5551,398.0544,,,398.2928,398.9951,right,0.6815,,,,,,,,,0.55,,,,,,398.0546,398.2928,398.9953,"[-0.174144258231773,0.024900712646116475]","[1,1,1]","[0.14514143434663074,-0.11867206258676218]","[1,1,1]","[-0.07169589467427978,-0.15659881422958408]","[1,1,1]","[0.05119147113851569,-0.16214590659166722]","[-1,-1,-1]","[-0.052240003296080785,0.1811281260425359]","[-1,-1,-1]","[-0.008834795864312323,-0.19969430822111697]","[-1,-1,-1]","[0.06652643615496376,0.14652586029963113]","[1,1,1]","[-0.0595255774493603,0.13243473617363347]","[1,1,1]","[-0.0978305414805979,-0.03479918767403877]","[1,1,1]","[0.07429469893958514,0.10293834072739824]","[1,1,1]","[0.002703900161217566,-0.11328962271808007]","[-1,-1,-1]","[-0.1836970226057727,-0.05664800656366755]","[-1,-1,-1]","[0.15473692251935176,-0.008286665318649545]","[-1,-1,-1]","[0.13988055473815583,-0.05394638844089701]","[-1,-1,-1]","[0.10563951940302949,-0.10879424591236658]","[1,1,1]","[0.05020587242133882,0.016555953080027677]","[1,1,1]","[0.09450100808698735,-0.1704758420273539]","[1,1,1]","[0.037750070952158835,0.18717483869825785]","[-1,-1,-1]","[-0.013469869648228544,0.08416342204075414]","[-1,-1,-1]","[0.0028455976517951257,0.13258590040150395]","[-1,-1,-1]","[0.1504100097415587,0.04310702111944042]","[1,1,1]","[-0.1385280847414304,-0.015252952558353936]","[1,1,1]","[0.12368129476609911,0.12377904985044312]","[-1,-1,-1]","[-0.18657272099206684,0.07002211841953762]","[1,1,1]","[0.10750658569441315,-0.029747821076153213]","[-1,-1,-1]","[-0.0028055801465591253,-0.018949871742698954]","[1,1,1]","[-0.10847347851531693,0.028808532497529602]","[1,1,1]","[0.03956549316628654,0.06998867321778678]","[1,1,1]","[-0.06466566244222997,-0.07582673321769688]","[1,1,1]","[0.010943069568805421,-0.15909715263557786]","[-1,-1,-1]","[0.05315518254227769,-0.10491461130677157]","[1,1,1]","[-0.12181985446206112,0.10953913602041396]","[-1,-1,-1]","[0.02,0.02]",400.0947,0,19,19,129,1,,,,,,,
,,,,,,,66d450d116aa59a3161adf97,682dc8b14c46c0f8965020dc,2025-05-21_14h37.22.457,cuing_paradigm_dot,2024.1.5,Win32,50,682d556593cb38ad0a074487,,,,,,,,,,,400.0963,400.5948,,,400.8491,401.6922,right,0.8222,,,,,,,,,0.45,,,,,,400.5951,400.8491,401.6923,"[-0.050795444514292354,0.1707815303715847]","[-1,-1,-1]","[0.0029862127636991103,-0.15795667875476516]","[-1,-1,-1]","[-0.14565716031781314,0.0669365582069266]","[1,1,1]","[-0.1297765831119992,0.14867813475351285]","[1,1,1]","[-0.09992484896390785,0.07281518270122392]","[1,1,1]","[0.09051670668634648,-0.04238633227731342]","[-1,-1,-1]","[0.19579715621286337,-0.04008464225785836]","[-1,-1,-1]","[-0.08184585206153035,-0.12021615719804696]","[1,1,1]","[0.1332219828595102,-0.08155332097562716]","[-1,-1,-1]","[0.16956020295678037,0.001104601119268798]","[-1,-1,-1]","[-0.16572465066489112,-0.08735567768949917]","[1,1,1]","[0.033666880148112865,0.10322999352411205]","[-1,-1,-1]","[0.036928703146120734,-0.12790533283969485]","[-1,-1,-1]","[0.044026309141647214,0.14216665450218574]","[1,1,1]","[-0.18458627472564745,0.009425113311355624]","[-1,-1,-1]","[-0.10740989278886431,0.020893860600389082]","[1,1,1]","[-0.0093177013158225,-0.029603305089277058]","[-1,-1,-1]","[0.08297559769111394,0.07444751539658327]","[-1,-1,-1]","[-0.15357327187603315,-0.02880288925369311]","[-1,-1,-1]","[0.04635579195421794,-0.1853667209787258]","[1,1,1]","[-0.01569572342392606,-0.08428440545394585]","[1,1,1]","[0.054897182369282246,0.1858568875529426]","[-1,-1,-1]","[-0.013766044234700516,0.02914666054098527]","[1,1,1]","[0.04837984470006874,0.05093042249542644]","[-1,-1,-1]","[0.14865922961023428,0.11615356678599342]","[-1,-1,-1]","[0.03501107436829853,-0.034594670757909014]","[-1,-1,-1]","[-0.0663553551843596,0.10301550466359426]","[1,1,1]","[-0.01699482359457226,0.19876369088796977]","[-1,-1,-1]","[-0.02674884364002207,0.0703154242803584]","[1,1,1]","[0.18736635960259945,0.06327827282934718]","[-1,-1,-1]","[-0.08766244923031144,-0.0559548908351756]","[1,1,1]","[0.04849039423696462,0.010167293320575633]","[1,1,1]","[0.02,0.02]",402.7774,0,20,20,79,1,,,,,,,
,,,,,,,66d450d116aa59a3161adf97,682dc8b14c46c0f8965020dc,2025-05-21_14h37.22.457,cuing_paradigm_dot,2024.1.5,Win32,50,682d556593cb38ad0a074487,,,,,,,,,,,402.7779,403.2761,,,403.5282,404.446,right,0.8917,,,,,,,,,0.45,,,,,,403.2763,403.5281,404.4463,"[-0.07308589717282851,-0.18309845030948096]","[1,1,1]","[0.17038977426554205,0.08989299895146038]","[-1,-1,-1]","[0.08530772168545135,0.17404228971662644]","[-1,-1,-1]","[0.02323277409068853,-0.07323973692746165]","[1,1,1]","[0.16193843100331082,-0.006845488489293937]","[-1,-1,-1]","[0.022925925132303248,-0.1393759566653657]","[-1,-1,-1]","[-0.09058980711589258,-0.08762958508735473]","[-1,-1,-1]","[0.10717125010670728,0.1136126782277196]","[-1,-1,-1]","[-0.012984869552465953,-0.18305972820246943]","[-1,-1,-1]","[0.05756933672730758,-0.03144996315313109]","[-1,-1,-1]","[-0.07491300374437919,0.005486555164417191]","[1,1,1]","[-0.010864477411717383,0.18627247367324976]","[-1,-1,-1]","[-0.09529864248881441,0.07699288561209648]","[-1,-1,-1]","[-0.04553739871564157,0.09267380920025348]","[-1,-1,-1]","[0.11181578609900152,0.03710738505276204]","[1,1,1]","[0.19163039738705115,-0.04057230276628745]","[-1,-1,-1]","[0.07784817084704405,-0.17226844789855833]","[1,1,1]","[-0.07448885834478818,0.18115192635656327]","[-1,-1,-1]","[-0.019516457988217797,-0.02634255756416682]","[1,1,1]","[0.03517985928816333,0.19667498925104165]","[-1,-1,-1]","[0.06952156508448049,-0.11489194636302703]","[1,1,1]","[0.1417353105461806,-0.10658794570623654]","[1,1,1]","[0.03554630984670972,-0.18973872342232323]","[1,1,1]","[0.0282000219639072,0.03056273697093004]","[1,1,1]","[-0.15424235047033813,0.0988091634023074]","[-1,-1,-1]","[-0.05386954870526487,-0.13461280456989627]","[1,1,1]","[-0.03251246926779947,0.042041124943060344]","[1,1,1]","[-0.11030299993437212,-0.04982650303471402]","[-1,-1,-1]","[-0.1220724780731237,-0.11245183144631173]","[1,1,1]","[-0.16664953949840886,-0.05873470044702048]","[1,1,1]","[-0.11497801963692675,0.13449526497816058]","[-1,-1,-1]","[0.002541498639096133,0.1112385977996707]","[-1,-1,-1]","[0.02,0.02]",405.5523,0,21,21,61,1,,,,,,,
,,,,,,,66d450d116aa59a3161adf97,682dc8b14c46c0f8965020dc,2025-05-21_14h37.22.457,cuing_paradigm_dot,2024.1.5,Win32,50,682d556593cb38ad0a074487,,,,,,,,,,,405.5537,406.0581,,,406.311,406.838,right,0.5015,,,,,,,,,0.55,,,,,,406.0582,406.3109,406.8381,"[0.16624758385032942,0.04476338233185005]","[1,1,1]","[-0.07443932661327415,-0.058884568491246306]","[-1,-1,-1]","[-0.061563130200608905,0.183374564121]","[-1,-1,-1]","[0.01300206683846711,0.10124559998202264]","[-1,-1,-1]","[-0.09793282948598384,0.045586093368678686]","[-1,-1,-1]","[-0.09827174915284632,-0.1062656460666239]","[1,1,1]","[0.050547194207294546,-0.08319255470832769]","[-1,-1,-1]","[0.1134182631050488,-0.10111995944160523]","[-1,-1,-1]","[-0.08864856036518985,-0.1762881834591408]","[1,1,1]","[-0.177942745424837,0.09049889917205828]","[1,1,1]","[-0.041810728545916144,-0.13593443361520496]","[1,1,1]","[-0.07498217734825939,0.12076764479953213]","[1,1,1]","[-0.031246849551907412,0.04241087511744405]","[1,1,1]","[0.006476886983348647,-0.030992777727226455]","[1,1,1]","[0.07435922178019626,-0.1592574501709404]","[1,1,1]","[0.13292422140775412,0.014945917642299059]","[-1,-1,-1]","[0.15476666675189915,-0.11130180000825425]","[1,1,1]","[0.14580366538113493,0.09477211862660372]","[-1,-1,-1]","[-0.019226655321599385,-0.19389601918827712]","[-1,-1,-1]","[0.018473520549352793,0.19179604902218508]","[-1,-1,-1]","[-0.028209654849372098,0.0995983825437199]","[-1,-1,-1]","[-0.06706626688213337,0.00042948365671598344]","[1,1,1]","[0.03676132771892029,0.05967271524494349]","[1,1,1]","[0.06315568795714437,0.01909732442572558]","[1,1,1]","[-0.1988392227310738,0.013741177203214603]","[-1,-1,-1]","[0.11262316783617464,0.1364912263149985]","[1,1,1]","[-0.10449843543823775,0.09036415379107293]","[1,1,1]","[0.19553677370318043,-0.022308510070784167]","[1,1,1]","[0.05871739503294185,-0.028872714179872416]","[1,1,1]","[0.0032787909158824803,-0.07767903329558995]","[1,1,1]","[0.06130632884718331,0.10266463303733515]","[-1,-1,-1]","[0.07164063509581643,-0.11794659356506675]","[-1,-1,-1]","[0.02,0.02]",407.9384,0,22,22,139,1,,,,,,,
,,,,,,,66d450d116aa59a3161adf97,682dc8b14c46c0f8965020dc,2025-05-21_14h37.22.457,cuing_paradigm_dot,2024.1.5,Win32,50,682d556593cb38ad0a074487,,,,,,,,,,,407.9398,408.4383,,,408.6857,409.3924,left,0.6784,,,,,,,,,0.1,,,,,,408.4384,408.6856,409.3925,"[-0.08300334338280506,0.16667617822952768]","[-1,-1,-1]","[-0.09128919005501285,0.107064724540881]","[-1,-1,-1]","[-0.020623323834583117,0.18034823216349885]","[-1,-1,-1]","[0.18909661214275286,-0.014351341235694948]","[-1,-1,-1]","[-0.1504791772434461,0.06313017848988149]","[-1,-1,-1]","[0.07378179584281112,-0.05173031079036544]","[1,1,1]","[-0.07605074793783907,-0.11410888016992202]","[1,1,1]","[-0.11630453897381153,-0.06308564379728598]","[-1,-1,-1]","[0.1548776132598699,-0.11111564455901364]","[-1,-1,-1]","[0.1194629828726476,-0.053320177777628534]","[-1,-1,-1]","[-0.001645015811007582,-0.05066421257814122]","[-1,-1,-1]","[-0.0457869273810227,-0.06270951927627705]","[-1,-1,-1]","[0.04336225465859857,0.18728005607989354]","[-1,-1,-1]","[-0.1933305149221067,0.03775816332980437]","[-1,-1,-1]","[0.13244984040664545,0.10289157210678851]","[1,1,1]","[0.017046700445815292,-0.09848388129619179]","[-1,-1,-1]","[0.07715374720522226,0.006840488630332795]","[-1,-1,-1]","[0.02768422014701835,0.02342180863980774]","[-1,-1,-1]","[-0.04046845898591007,0.06491266887354318]","[-1,-1,-1]","[0.05892898870761954,-0.09639796328309558]","[-1,-1,-1]","[0.11133953142575555,-0.10028142404134971]","[-1,-1,-1]","[0.02623905441224882,0.10861926041621006]","[-1,-1,-1]","[0.05475109382492198,0.1447920857620421]","[-1,-1,-1]","[-0.14357161584480468,-0.11733955832697338]","[-1,-1,-1]","[-0.042083684258589174,0.12034803057259559]","[-1,-1,-1]","[-0.010197103738075015,-0.19333697255083168]","[-1,-1,-1]","[0.1365154036134879,-0.001815267503324062]","[-1,-1,-1]","[-0.13091981186546686,0.13337036567920144]","[-1,-1,-1]","[0.0778569910296998,0.058530015470769456]","[-1,-1,-1]","[-0.13169154800030675,-0.018260299905671865]","[-1,-1,-1]","[-0.03759996199012873,0.013856411311767819]","[-1,-1,-1]","[0.08053809409556262,-0.18072143384597114]","[-1,-1,-1]","[0.02,0.02]",410.4919,0,23,23,10,1,,,,,,,
,,,,,,,66d450d116aa59a3161adf97,682dc8b14c46c0f8965020dc,2025-05-21_14h37.22.457,cuing_paradigm_dot,2024.1.5,Win32,50,682d556593cb38ad0a074487,,,,,,,,,,,410.4926,410.9925,,,411.2323,412.101,right,0.8416,,,,,,,,,0.55,,,,,,410.9925,411.2323,412.1012,"[-0.16631677694978542,-0.02646354563263617]","[-1,-1,-1]","[-0.12388741905969117,0.08830583202359708]","[1,1,1]","[-0.04247618464313044,-0.05692011423635294]","[-1,-1,-1]","[0.11902635047674068,-0.15171560995647926]","[-1,-1,-1]","[-0.030125067480973877,0.0037106328511477883]","[1,1,1]","[0.10813887770684813,-0.03721536633813184]","[-1,-1,-1]","[-0.012028467463500083,0.11013879287517553]","[1,1,1]","[-0.04833295480783264,0.04123758416738578]","[1,1,1]","[0.08027613857306709,0.025838743632578046]","[-1,-1,-1]","[0.07719127470394992,-0.10326218624036775]","[-1,-1,-1]","[0.08638915417561065,0.16084055983638457]","[-1,-1,-1]","[0.017456644015662,-0.11892521021033914]","[-1,-1,-1]","[-0.1155052893449559,0.005504970543135539]","[1,1,1]","[-0.19277994847932117,0.028381974010053733]","[1,1,1]","[0.1282358705269663,0.024780517971652274]","[-1,-1,-1]","[-0.02417664242542996,0.16960228591257617]","[1,1,1]","[0.14433412713173094,0.0899360504623271]","[1,1,1]","[0.03969927706812747,-0.04200988326648554]","[-1,-1,-1]","[-0.023756980393390865,-0.10658895536126436]","[1,1,1]","[-0.1062661660301177,-0.16491518481125775]","[1,1,1]","[0.1492725923796997,-0.07680632965298975]","[-1,-1,-1]","[-0.10913251671577814,0.15914917650801497]","[-1,-1,-1]","[0.054967122328003354,0.06358360653469408]","[1,1,1]","[0.007257973708517794,0.06164611103448676]","[1,1,1]","[0.09739259456991843,0.11246363257935375]","[1,1,1]","[0.13669409224944984,0.14356599919319413]","[-1,-1,-1]","[0.017882534543368453,0.0036910097676283206]","[-1,-1,-1]","[-0.10258769243767328,-0.09756034273508045]","[1,1,1]","[-0.0026912560621649216,-0.16245013665100969]","[1,1,1]","[-0.17146597814304648,0.09957267676978425]","[1,1,1]","[-0.0773544324201415,0.09798644782214953]","[1,1,1]","[-0.16760784380839766,-0.1014618557954241]","[1,1,1]","[0.02,0.02]",413.2005,0,24,24,121,1,,,,,,,
,,,,,,,66d450d116aa59a3161adf97,682dc8b14c46c0f8965020dc,2025-05-21_14h37.22.457,cuing_paradigm_dot,2024.1.5,Win32,50,682d556593cb38ad0a074487,,,,,,,,,,,413.2017,413.6956,,,413.9345,414.4768,right,0.5204,,,,,,,,,0.9,,,,,,413.6957,413.9344,414.4769,"[-0.04900634298453807,0.041497378709809345]","[1,1,1]","[-0.0038839507670204395,-0.14367445609814988]","[-1,-1,-1]","[-0.06634627229064875,-0.09338894819779926]","[1,1,1]","[0.01181905113737155,-0.09274214755979623]","[1,1,1]","[0.012631077996414984,0.09322886164466287]","[1,1,1]","[-0.07441157881142098,-0.18015952379446584]","[1,1,1]","[0.050004858552412344,0.14225874449659]","[1,1,1]","[0.05086463053966525,0.0791768788337675]","[1,1,1]","[0.16617095265620777,-0.11009182166740197]","[1,1,1]","[0.14946649731673023,-0.0412766039610556]","[1,1,1]","[0.10205424072315494,-0.07351835821747407]","[1,1,1]","[0.06995083207442312,0.031879661066248836]","[1,1,1]","[0.08844786256601592,-0.004644527798618667]","[1,1,1]","[-0.1353993966589323,0.050359869227385626]","[1,1,1]","[0.1267316336532877,0.1205608014906447]","[1,1,1]","[-0.0975420318177486,-0.008760239993142925]","[1,1,1]","[0.0006020611943754023,0.04978068327563336]","[1,1,1]","[0.01799324865439374,-0.02898182261191455]","[1,1,1]","[-0.06602291369141892,-0.043866905684945924]","[1,1,1]","[0.09035740780702753,0.17778313258877737]","[1,1,1]","[-0.06166362362296348,0.12183577172144774]","[1,1,1]","[0.0018532402321880372,0.15637214858375628]","[-1,-1,-1]","[0.002160976157089867,-0.1954754358363564]","[1,1,1]","[-0.13492543418937528,-0.14763139647034737]","[1,1,1]","[0.1545213924014013,0.08099267048685051]","[1,1,1]","[0.19146036337110633,-0.055662988189895346]","[1,1,1]","[-0.18394350671378693,0.03913301175348748]","[-1,-1,-1]","[0.1560207997440521,0.008558264783926448]","[1,1,1]","[0.07691560908305942,-0.16366101519219636]","[1,1,1]","[-0.14567168382578005,-0.08592588141861802]","[1,1,1]","[-0.04325527988072061,-0.13266618605064592]","[1,1,1]","[-0.09450982316684035,0.07590544421258513]","[1,1,1]","[0.02,0.02]",415.5816,0,25,25,185,1,,,,,,,
,,,,,,,66d450d116aa59a3161adf97,682dc8b14c46c0f8965020dc,2025-05-21_14h37.22.457,cuing_paradigm_dot,2024.1.5,Win32,50,682d556593cb38ad0a074487,,,,,,,,,,,415.5825,416.0822,,,416.3343,416.8986,right,0.5401,,,,,,,,,0.9,,,,,,416.0822,416.3342,416.8987,"[-0.01803312753968402,-0.02446292938000954]","[1,1,1]","[0.14274627619513233,0.09454513208747892]","[1,1,1]","[-0.05580175940466608,0.048713084522000114]","[1,1,1]","[-0.07765886767603838,0.1368353912841802]","[1,1,1]","[-0.04085601746900611,-0.17683037236188207]","[1,1,1]","[0.16019173611119408,-0.0450824454333712]","[1,1,1]","[-0.05039171138085238,-0.13027605936994088]","[1,1,1]","[-0.0016649795962001932,0.11539723897468532]","[1,1,1]","[-0.14561138172160967,-0.04287278469758297]","[-1,-1,-1]","[0.13885124064147644,-0.11471636945112723]","[1,1,1]","[-0.10054406352659438,-0.1380615387130193]","[-1,-1,-1]","[-0.05491665314692505,0.0028406151485641353]","[1,1,1]","[0.039728865708462666,-0.13726524884841065]","[1,1,1]","[-0.1035629231609699,-0.06877389411869872]","[1,1,1]","[0.022415260238553992,-0.08941784670914768]","[1,1,1]","[0.06465345384011248,-0.05236232085418842]","[-1,-1,-1]","[0.04932171408612866,0.11925343335680945]","[1,1,1]","[-0.0859440525686114,-0.1797586899083788]","[1,1,1]","[0.0140081323018584,-0.17464320020232876]","[1,1,1]","[0.09318581216869572,0.10694452479158452]","[1,1,1]","[0.04865326181408939,0.06852676718726015]","[1,1,1]","[0.15740573406927597,0.01386542967823244]","[1,1,1]","[-0.1118268396844284,0.08959672666569436]","[1,1,1]","[-0.006236556826391851,0.19553581325651764]","[1,1,1]","[-0.005950307917254644,0.07267980769313423]","[1,1,1]","[-0.14853168151100918,0.1125809145885465]","[1,1,1]","[-0.15555580463450505,0.027815200612441277]","[1,1,1]","[0.06619943105804417,-0.09323965557904001]","[1,1,1]","[0.06855166377904973,-0.18594576159317405]","[1,1,1]","[0.004105514908000844,0.013447239517292972]","[1,1,1]","[0.06154463087590164,0.006418319041067603]","[1,1,1]","[0.10573984173461214,0.06749388419812583]","[1,1,1]","[0.02,0.02]",418.0194,0,26,26,188,1,,,,,,,
,,,,,,,66d450d116aa59a3161adf97,682dc8b14c46c0f8965020dc,2025-05-21_14h37.22.457,cuing_paradigm_dot,2024.1.5,Win32,50,682d556593cb38ad0a074487,,,,,,,,,,,418.0198,418.5177,,,418.7544,419.5706,right,0.7922,,,,,,,,,0.5,,,,,,418.5177,418.7544,419.5706,"[-0.06267144765596278,-0.15704019736464706]","[-1,-1,-1]","[-0.09696287440475215,0.10580405417713046]","[1,1,1]","[0.0850249977788443,0.033813555652350266]","[1,1,1]","[-0.04140671157093603,0.0836876182921523]","[-1,-1,-1]","[0.054904610343953705,0.15645844731717193]","[1,1,1]","[0.14634791569337918,-0.1050796560138254]","[1,1,1]","[0.0015500610276349414,0.1661429848088758]","[1,1,1]","[-0.13540157745923295,0.04193725736308845]","[-1,-1,-1]","[0.041137125000210384,-0.18383380618866543]","[1,1,1]","[0.039017315734325896,-0.05877263850220073]","[-1,-1,-1]","[-0.1506884349454205,0.09261491970762194]","[-1,-1,-1]","[-0.07541640991675413,0.18171135129764435]","[1,1,1]","[-0.05295163913157392,-0.09588328281436861]","[1,1,1]","[-0.13596295775625084,-0.025790100089780776]","[1,1,1]","[-0.044413949577326126,-0.009365321323975257]","[-1,-1,-1]","[0.1368931053630213,0.09116786418693779]","[-1,-1,-1]","[0.09556203717438241,0.16396900368182]","[-1,-1,-1]","[-0.13089595516054425,-0.12544863805076847]","[1,1,1]","[0.14416572932754987,0.13762068119447374]","[-1,-1,-1]","[0.06264462011478898,-0.1351001944719647]","[1,1,1]","[0.011510814086568002,-0.12612389204416155]","[-1,-1,-1]","[0.050142408262763546,0.0838787837519647]","[1,1,1]","[0.08649618495441039,-0.1724499995923049]","[-1,-1,-1]","[-0.13398987157743145,-0.0790064336458865]","[-1,-1,-1]","[-0.07567324834580322,-0.06280103218147887]","[-1,-1,-1]","[0.1517578354144506,0.036426289750628]","[-1,-1,-1]","[0.13569118033449923,-0.14387199326149153]","[-1,-1,-1]","[-0.018671752050816396,-0.1884408214863019]","[1,1,1]","[-0.0016193111323543992,0.01718756439028832]","[1,1,1]","[-0.08573151565644584,0.03017033913762959]","[-1,-1,-1]","[-0.006039464263196306,-0.07136605201005215]","[1,1,1]","[-0.1827049445175405,-0.06297431520887446]","[1,1,1]","[0.02,0.02]",420.6698,0,27,27,106,1,,,,,,,
,,,,,,,66d450d116aa59a3161adf97,682dc8b14c46c0f8965020dc,2025-05-21_14h37.22.457,cuing_paradigm_dot,2024.1.5,Win32,50,682d556593cb38ad0a074487,,,,,,,,,,,420.6704,421.1588,,,421.4001,422.2618,right,0.8223,,,,,,,,,0.45,,,,,,421.1588,421.4001,422.2619,"[-0.013021504745233623,-0.06350450127604232]","[-1,-1,-1]","[0.15914586841718212,0.04201844912952876]","[-1,-1,-1]","[0.1361040313461793,0.12492564221269063]","[-1,-1,-1]","[0.07890242290145216,0.006682349481021664]","[-1,-1,-1]","[-0.04295540290696116,0.1385266933028359]","[1,1,1]","[-0.03774658820419021,0.09632588801113828]","[1,1,1]","[0.02478369564911943,-0.13061485620939572]","[1,1,1]","[0.07760829402428625,0.06177693631687485]","[-1,-1,-1]","[0.066291284131805,-0.04019864852324639]","[1,1,1]","[0.10409343687000157,-0.14824622262742135]","[1,1,1]","[0.14276901969010905,-0.05322659448608244]","[-1,-1,-1]","[-0.11842782137986163,-0.08610291318816583]","[-1,-1,-1]","[0.029301313678506215,0.020672994244280124]","[1,1,1]","[-0.0027247270143011103,0.14576821425922135]","[-1,-1,-1]","[-0.19284003623097762,-0.024243687700325887]","[1,1,1]","[-0.03637365455328119,-0.1528226213262491]","[1,1,1]","[0.07951040063775193,0.1243924502867585]","[-1,-1,-1]","[0.03193801794116068,-0.18256422884269158]","[1,1,1]","[-0.16226260591206856,0.04176492143204533]","[-1,-1,-1]","[0.040712642041941006,0.1742659808159318]","[-1,-1,-1]","[-0.08313058840283932,0.17218708180124404]","[1,1,1]","[-0.00832655239978494,0.006965469446686902]","[-1,-1,-1]","[0.014451463634082468,0.07343373363719664]","[1,1,1]","[0.14792163977971762,-0.1265422181280472]","[1,1,1]","[-0.113909367125808,0.044065498295745784]","[1,1,1]","[-0.07565033922667454,0.0816021171371382]","[-1,-1,-1]","[-0.11897997575606296,-0.14375679066854608]","[1,1,1]","[0.07087451157041791,-0.09061349012662304]","[-1,-1,-1]","[-0.05365595527475815,0.04397519241198325]","[-1,-1,-1]","[-0.030212563249530054,-0.11036643548211159]","[-1,-1,-1]","[0.19664423710134268,-0.0251984161759187]","[-1,-1,-1]","[-0.16224341682403667,-0.06861694731122793]","[-1,-1,-1]","[0.02,0.02]",423.3611,0,28,28,76,1,,,,,,,
,,,,,,,66d450d116aa59a3161adf97,682dc8b14c46c0f8965020dc,2025-05-21_14h37.22.457,cuing_paradigm_dot,2024.1.5,Win32,50,682d556593cb38ad0a074487,,,,,,,,,,,423.3617,423.8609,,,424.0985,424.5785,left,0.4571,,,,,,,,,0.1,,,,,,423.861,424.0985,424.5785,"[0.15774341397832564,0.0634915812136083]","[1,1,1]","[0.14847162955203616,-0.04493063409020763]","[1,1,1]","[-0.13023869620592135,0.020519090835525316]","[-1,-1,-1]","[0.023408625787814424,-0.17117429373940787]","[-1,-1,-1]","[-0.05472665774149624,-0.17929288453091954]","[1,1,1]","[0.12260320032914687,-0.12272193629414023]","[-1,-1,-1]","[0.10101707877757046,0.008943162561009077]","[-1,-1,-1]","[-0.03859606450786894,-0.013718311565657752]","[-1,-1,-1]","[-0.06784714864040381,-0.06080300484247942]","[-1,-1,-1]","[0.11599013523008121,-0.08059401308012798]","[-1,-1,-1]","[-0.16094364074340892,-0.03475974186899195]","[-1,-1,-1]","[0.06627105104448064,-0.08298317252637799]","[-1,-1,-1]","[-0.07434408070337234,0.037237133519513556]","[-1,-1,-1]","[-0.11127360699665716,0.0926333450779309]","[-1,-1,-1]","[-0.14927923686501202,0.11221493054075529]","[-1,-1,-1]","[0.04914308085424549,0.045973931801023625]","[-1,-1,-1]","[-0.05363146252513141,0.12156226337556056]","[-1,-1,-1]","[-0.09792386181544963,0.15371527916432765]","[-1,-1,-1]","[0.06916978412389582,-0.037391209473273394]","[-1,-1,-1]","[0.014443447727853288,-0.025172035127110935]","[-1,-1,-1]","[0.07261281041798863,-0.1810643736240508]","[-1,-1,-1]","[-0.1745035478491034,0.027719760799381387]","[-1,-1,-1]","[-0.19803773480525289,-0.0090598221715882]","[-1,-1,-1]","[-0.16628717535019602,-0.08632117750718755]","[-1,-1,-1]","[0.08558774184104902,0.07969918113431032]","[-1,-1,-1]","[0.007067846778601248,0.17172220192542492]","[-1,-1,-1]","[0.08133012065173464,-0.13814350871248643]","[-1,-1,-1]","[0.18177857774453035,-0.004870773746697261]","[-1,-1,-1]","[0.01248864091467847,0.06457221268774746]","[-1,-1,-1]","[0.07883675452240915,0.18040656957511395]","[-1,-1,-1]","[-0.09829579186263976,-0.16642442786384695]","[-1,-1,-1]","[-0.03497994853801279,-0.09804885166847951]","[-1,-1,-1]","[0.02,0.02]",425.6721,0,29,29,27,1,,,,,,,
,,,,,,,66d450d116aa59a3161adf97,682dc8b14c46c0f8965020dc,2025-05-21_14h37.22.457,cuing_paradigm_dot,2024.1.5,Win32,50,682d556593cb38ad0a074487,,,,,,,,,,,425.6743,426.1616,,,426.3998,426.9648,left,0.5428,,,,,,,,,0.45,,,,,,426.1617,426.3998,426.9648,"[0.06186284065289813,0.17688802082550648]","[-1,-1,-1]","[-0.10666607293906868,0.12392172365693935]","[1,1,1]","[-0.06639728591031015,-0.11471243246902374]","[1,1,1]","[-0.041847256031392166,0.025231725476070513]","[-1,-1,-1]","[-0.12693748514906536,-0.08104070575340619]","[-1,-1,-1]","[0.051259674304017455,-0.022820346927401158]","[1,1,1]","[-0.003911757891363928,0.1839263902860383]","[-1,-1,-1]","[-0.0033481496841540337,0.054612096409317606]","[-1,-1,-1]","[0.02093149755009425,-0.08256113971310218]","[-1,-1,-1]","[0.10037316232351745,-0.012174934335624846]","[1,1,1]","[0.0686555472133239,0.12815058371280943]","[-1,-1,-1]","[-0.02441701489108615,0.09169093341266367]","[-1,-1,-1]","[0.09370817617607714,-0.12118279134092398]","[-1,-1,-1]","[0.06832806860990363,0.045022703112817385]","[1,1,1]","[0.058804894150465754,-0.16753224870049765]","[1,1,1]","[-0.14500781600789675,-0.11990279328216574]","[-1,-1,-1]","[0.1587969412242771,0.03955609120371638]","[1,1,1]","[0.10230464698043004,-0.07138182263880967]","[1,1,1]","[0.16157254387040032,-0.02439946045276459]","[-1,-1,-1]","[-0.012876671508519389,-0.01566305801465932]","[-1,-1,-1]","[0.1615245417706605,-0.09113556289312261]","[1,1,1]","[0.004885768040312142,-0.13270793121414065]","[1,1,1]","[-0.09370311769093052,-0.1695277802756465]","[1,1,1]","[-0.08695691828515374,0.08399092646629355]","[-1,-1,-1]","[-0.12837227762809983,-0.019590130690879816]","[1,1,1]","[0.023949593229928158,0.1481797693345157]","[-1,-1,-1]","[-0.1807155887388434,0.07221004455268404]","[-1,-1,-1]","[0.052931767740182926,-0.11840984865771059]","[1,1,1]","[-0.04458557397955215,-0.08110635148579409]","[-1,-1,-1]","[-0.08806953954633116,0.01629961220022321]","[-1,-1,-1]","[-0.18242015274931875,0.027271925961536873]","[-1,-1,-1]","[0.12910688687912736,0.1481964994470304]","[1,1,1]","[0.02,0.02]",428.0538,0,30,30,72,1,,,,,,,
,,,,,,,66d450d116aa59a3161adf97,682dc8b14c46c0f8965020dc,2025-05-21_14h37.22.457,cuing_paradigm_dot,2024.1.5,Win32,50,682d556593cb38ad0a074487,,,,,,,,,,,428.0542,428.5529,,,428.803,429.264,right,0.4408,,,,,,,,,0.55,,,,,,428.553,428.8029,429.2641,"[0.16476196658542594,0.002533021642181291]","[1,1,1]","[-0.04336603511469212,-0.1425945618424988]","[-1,-1,-1]","[0.08403600752585821,0.10640682399189565]","[1,1,1]","[-0.0928084624263426,-0.12132706580927492]","[1,1,1]","[0.12551597722668234,0.019142672740172135]","[1,1,1]","[0.07735819689943924,0.1606747893743131]","[1,1,1]","[-0.02850951644422346,-0.04100260010242514]","[1,1,1]","[0.1257892224687267,-0.09003486758729008]","[1,1,1]","[0.024968519322765302,0.19129633597630397]","[-1,-1,-1]","[-0.026181698394311097,-0.18347848990459958]","[1,1,1]","[0.005264198457203942,0.09887413693136325]","[-1,-1,-1]","[-0.07234223970979366,-0.024709800127608334]","[1,1,1]","[0.08172197581545233,-0.044961640406087654]","[-1,-1,-1]","[-0.08122941450879015,0.10082229774420975]","[-1,-1,-1]","[-0.06630280319236881,0.18344478719236237]","[-1,-1,-1]","[-0.12328590023732211,0.13755525358054793]","[1,1,1]","[0.07420502052299147,0.004088922592830879]","[1,1,1]","[0.08206365472606919,-0.15995705790792838]","[1,1,1]","[0.15578213959828427,0.11431857578102289]","[-1,-1,-1]","[0.00704725566355791,-0.12759033607508102]","[1,1,1]","[-0.1407438041784165,-0.11551198088567742]","[-1,-1,-1]","[0.006928857417780616,-0.07049284547423416]","[-1,-1,-1]","[0.001492925119452924,0.008128224341029383]","[1,1,1]","[-0.04084423673739292,0.10575136386831491]","[-1,-1,-1]","[-0.08901931562148094,0.012135140410043307]","[1,1,1]","[0.15765495605796834,0.06632196074554471]","[1,1,1]","[-0.15789158255086638,0.012914694751760745]","[-1,-1,-1]","[-0.12467546187953293,0.06609124708753779]","[1,1,1]","[0.03907925119292657,0.06856100617500432]","[-1,-1,-1]","[-0.04914708912292961,0.037009551752487164]","[-1,-1,-1]","[0.1301763775970569,-0.04289199332289641]","[1,1,1]","[-0.08695449387640845,-0.06384744507639648]","[-1,-1,-1]","[0.02,0.02]",430.3744,0,31,31,127,1,,,,,,,
,,,,,,,66d450d116aa59a3161adf97,682dc8b14c46c0f8965020dc,2025-05-21_14h37.22.457,cuing_paradigm_dot,2024.1.5,Win32,50,682d556593cb38ad0a074487,,,,,,,,,,,430.3751,430.8459,,,431.0828,431.9051,right,0.8019,,,,,,,,,0.9,,,,,,430.8459,431.0828,431.9051,"[-0.03585775262310958,0.1820948156424782]","[1,1,1]","[-0.09756153272271748,0.06221835740842197]","[1,1,1]","[0.0007209279714195484,-0.18852043570742885]","[1,1,1]","[-0.1312616190486473,-0.09572153058873173]","[1,1,1]","[0.13775960505147225,0.06570784103908611]","[1,1,1]","[-0.18332769881405714,0.0527405651162657]","[1,1,1]","[-0.06992275559558596,0.13747717217239977]","[1,1,1]","[0.17297019499951635,-0.04508704397823814]","[-1,-1,-1]","[0.04102615488450955,-0.07459646130054998]","[1,1,1]","[0.15262929544118695,-0.12101610962932349]","[1,1,1]","[-0.14054773600660692,-0.044891985803125416]","[1,1,1]","[0.08368037400841452,-0.011463627593998417]","[1,1,1]","[-0.174816477966432,0.0036419318180182046]","[1,1,1]","[0.09476388984214944,-0.17196025240104598]","[1,1,1]","[-0.02366961958499491,0.09244176205859501]","[1,1,1]","[-0.0064136883128681245,0.02689642980843427]","[1,1,1]","[0.03760144375447617,0.1048431441381435]","[1,1,1]","[0.07748403557046203,0.049217870667645804]","[1,1,1]","[-0.08973907513453458,-0.12240242090046281]","[1,1,1]","[0.03680997719251362,-0.1440992697634393]","[1,1,1]","[-0.17016458717453725,-0.07253320358685075]","[1,1,1]","[0.0075389117155781355,-0.10402538631685532]","[-1,-1,-1]","[0.034995188233332024,-0.017341625949589233]","[1,1,1]","[-0.06342925916786245,-0.07535990613556351]","[1,1,1]","[0.12965273785063847,-0.08764612656599202]","[1,1,1]","[-0.0767526113902605,-0.17061816955987022]","[1,1,1]","[-0.11321642193439442,-0.0076441970978261345]","[1,1,1]","[0.1564944953699458,0.010159538910483669]","[1,1,1]","[-0.12750635676829664,0.11033192290647932]","[1,1,1]","[0.19532434221638706,-0.00833818848061294]","[1,1,1]","[-0.045192686607827104,-0.004166230539240083]","[1,1,1]","[0.10876851717903613,0.13194934345396223]","[-1,-1,-1]","[0.02,0.02]",433.0462,0,32,32,183,1,,,,,,,
,,,,,,,66d450d116aa59a3161adf97,682dc8b14c46c0f8965020dc,2025-05-21_14h37.22.457,cuing_paradigm_dot,2024.1.5,Win32,50,682d556593cb38ad0a074487,,,,,,,,,,,433.0469,433.5235,,,433.7622,434.6063,left,0.8329,,,,,,,,,0.45,,,,,,433.5236,433.7622,434.6064,"[0.08820684602537703,-0.007772947930942769]","[1,1,1]","[0.12832928362705293,-0.11210932419907868]","[-1,-1,-1]","[-0.12611092402577811,0.03595480955321979]","[-1,-1,-1]","[0.04385471082135808,-0.11281272079795394]","[-1,-1,-1]","[-0.11396711659622119,-0.13619253349785812]","[1,1,1]","[0.038664882298502186,-0.06807932143034486]","[1,1,1]","[0.10411500055945712,0.05436528249411256]","[1,1,1]","[0.1338968247934588,0.02138724337242155]","[1,1,1]","[0.06977769248499055,0.10268435579464066]","[-1,-1,-1]","[0.130532298102325,-0.04033036630093001]","[-1,-1,-1]","[0.05030414782825629,0.009506010270592743]","[-1,-1,-1]","[0.05778011470678156,0.18742333370264774]","[-1,-1,-1]","[0.17550292348213645,0.01285176780931419]","[-1,-1,-1]","[0.03180674420017543,-0.16223933255296485]","[-1,-1,-1]","[0.0019720609329323163,0.15285126403936014]","[-1,-1,-1]","[-0.014307161130583194,-0.14487678706255785]","[1,1,1]","[-0.10768610754094259,0.07736424584538813]","[1,1,1]","[-0.06930291741604606,-0.08321748815205013]","[1,1,1]","[-0.17205362510712113,-0.02907016014376904]","[-1,-1,-1]","[-0.06106091979691778,0.04716333453321389]","[1,1,1]","[-0.11639863345965458,0.12423928218138673]","[1,1,1]","[-0.10617694281522759,-0.012241443349441215]","[-1,-1,-1]","[-0.07030095342885136,0.12766312476390748]","[-1,-1,-1]","[0.02110741648046812,0.10171270338834137]","[-1,-1,-1]","[0.17791057281509515,-0.05936311348892922]","[-1,-1,-1]","[0.0003431754648967235,-0.04182489611178403]","[1,1,1]","[-0.08430442523447779,-0.166952246289933]","[-1,-1,-1]","[0.08766517298439297,-0.11033095579207763]","[-1,-1,-1]","[0.1535734180276698,0.07153336548555288]","[-1,-1,-1]","[0.1023885078491805,0.1439233504993025]","[1,1,1]","[-0.08835540221772493,0.17263862882209705]","[1,1,1]","[-0.18349282508602438,0.00958706420175082]","[1,1,1]","[0.02,0.02]",435.7219,0,33,33,69,1,,,,,,,
,,,,,,,66d450d116aa59a3161adf97,682dc8b14c46c0f8965020dc,2025-05-21_14h37.22.457,cuing_paradigm_dot,2024.1.5,Win32,50,682d556593cb38ad0a074487,,,,,,,,,,,435.7224,436.2103,,,436.4632,437.0034,right,0.5182,,,,,,,,,0.9,,,,,,436.2107,436.4631,437.0034,"[-0.0008426000190515372,0.18970451691674958]","[1,1,1]","[-0.10352341485607455,-0.06400433172169348]","[1,1,1]","[0.1408156423287837,-0.10893575142551247]","[1,1,1]","[-0.11192142569345691,-0.020339812246804284]","[1,1,1]","[-0.10855820433830898,0.05706013859847161]","[-1,-1,-1]","[-0.03302618921537559,0.044858865747860466]","[1,1,1]","[-0.17533464139512134,-0.059512583198013544]","[1,1,1]","[-0.17047132768793768,0.09027951106323462]","[1,1,1]","[0.07497192137815907,0.07726195334626401]","[-1,-1,-1]","[-0.028129266605461046,-0.10028504877720736]","[1,1,1]","[0.11243578492707161,0.10218018871420882]","[1,1,1]","[0.0035425663386940854,-0.02268072234012863]","[1,1,1]","[-0.09328831181031014,0.11353558476147373]","[1,1,1]","[-0.06078208053252919,-0.1333364167491693]","[1,1,1]","[0.06038748436899347,-0.11255588711437355]","[1,1,1]","[-0.06943230342367943,0.18226850488075239]","[1,1,1]","[0.03481427225927005,0.0693046877629944]","[1,1,1]","[0.05014942299909455,-0.17214091405305174]","[1,1,1]","[0.09262852441590361,-0.1368035660831372]","[1,1,1]","[0.1576176934863791,0.07373365377296225]","[1,1,1]","[0.12017497296232144,0.01694913868509917]","[1,1,1]","[-0.023953416937500534,-0.19594159117726676]","[1,1,1]","[0.17229311055998411,-0.049951612829461076]","[1,1,1]","[-0.04925020048093933,0.007736124106564462]","[-1,-1,-1]","[-0.12798794215668385,-0.11271805783294697]","[1,1,1]","[0.0012147150470506517,0.020422840752576988]","[1,1,1]","[0.04764582477354358,0.003476162923251908]","[1,1,1]","[0.06974313028640214,-0.034596117412515545]","[1,1,1]","[0.07704240774805908,0.16843305184365476]","[1,1,1]","[-0.1875573812058064,0.04023495493958101]","[1,1,1]","[-0.13709768499763783,0.0239100693266341]","[1,1,1]","[-0.04570982397544992,0.14970853105090676]","[1,1,1]","[0.02,0.02]",438.1047,0,34,34,201,1,,,,,,,
,,,,,,,66d450d116aa59a3161adf97,682dc8b14c46c0f8965020dc,2025-05-21_14h37.22.457,cuing_paradigm_dot,2024.1.5,Win32,50,682d556593cb38ad0a074487,,,,,,,,,,,438.1052,438.5907,,,438.8476,439.519,right,0.6521,,,,,,,,,0.6,,,,,,438.591,438.8475,439.5191,"[0.13152597123320758,-0.06430749809889816]","[1,1,1]","[0.027341004782894834,0.10920642812609176]","[1,1,1]","[-0.009922686085166709,-0.05698377965668871]","[1,1,1]","[0.08180681304475745,0.09401594745876302]","[-1,-1,-1]","[-0.15369221675660913,-0.08626545327598728]","[1,1,1]","[0.06721135285250023,-0.025639475492095637]","[1,1,1]","[-0.01596473011919559,0.18183772540481158]","[1,1,1]","[0.09373040598279463,0.1482825900629757]","[1,1,1]","[0.029227644648082737,-0.0007320629579635579]","[1,1,1]","[-0.14411300481333905,0.05006145112672557]","[-1,-1,-1]","[0.028774594067568507,0.1745868678979726]","[1,1,1]","[-0.11756192870084903,-0.017358380853263126]","[-1,-1,-1]","[-0.0012673479982393307,-0.16020500587832387]","[-1,-1,-1]","[-0.08258638065085563,-0.07608513784970661]","[-1,-1,-1]","[-0.05592509387542026,0.16815991379710757]","[-1,-1,-1]","[0.02843573156223212,-0.10516747297695092]","[-1,-1,-1]","[0.10457465204440014,-0.13188561688281322]","[1,1,1]","[-0.12968502844357815,-0.14680204887107204]","[1,1,1]","[0.16774018809156008,0.0804154019908029]","[1,1,1]","[-0.07781537963970848,-0.16012608261590003]","[-1,-1,-1]","[-0.046187020315737216,0.0748931221273146]","[-1,-1,-1]","[-0.06839662421832875,0.04142090471653774]","[-1,-1,-1]","[0.10258632849168897,0.030559019029323377]","[1,1,1]","[-0.19410788886037778,-0.02649087967997308]","[1,1,1]","[0.053492192676336044,-0.1369133608779712]","[-1,-1,-1]","[-0.18809632424280112,0.016700676136842948]","[1,1,1]","[-0.10887942799199246,0.0277886202440167]","[1,1,1]","[-0.07302419311387126,-0.11647329129981246]","[1,1,1]","[0.15456670116895346,0.010537993835098411]","[1,1,1]","[0.016219664025576258,0.043236642931234456]","[1,1,1]","[-0.039078213097979014,-0.024682762435640125]","[-1,-1,-1]","[-0.13248897358107353,0.10324725966984934]","[-1,-1,-1]","[0.02,0.02]",440.6125,0,35,35,170,1,,,,,,,
,,,,,,,66d450d116aa59a3161adf97,682dc8b14c46c0f8965020dc,2025-05-21_14h37.22.457,cuing_paradigm_dot,2024.1.5,Win32,50,682d556593cb38ad0a074487,,,,,,,,,,,440.6136,441.1248,,,441.3654,442.3086,right,0.9211,,,,,,,,,0.9,,,,,,441.1248,441.3653,442.3087,"[0.12742331067371757,-0.08129368034275103]","[1,1,1]","[0.07449388298888,0.09823057322243371]","[1,1,1]","[-0.08252268450549666,-0.09398933348203696]","[1,1,1]","[-0.1419867744858264,0.013579024507690307]","[1,1,1]","[-0.17410801529719952,0.07524907396065847]","[1,1,1]","[-0.07384169051445673,-0.046824393901428514]","[1,1,1]","[0.14837404454269065,-0.023671825919712473]","[1,1,1]","[0.01869381668063761,-0.17944893176357038]","[1,1,1]","[0.13771459653213938,0.11906824035979845]","[1,1,1]","[-0.12970010862488301,-0.13891312235598688]","[1,1,1]","[0.050179026294332234,0.17124786233287057]","[1,1,1]","[-0.0059641716877562615,0.117431098623431]","[1,1,1]","[0.08488979369560916,-0.07846146412402318]","[1,1,1]","[-0.09809083409624643,-0.012192549665328267]","[1,1,1]","[0.1492841823979718,0.07807092603905874]","[1,1,1]","[0.1026740346836368,-0.026871469695121938]","[1,1,1]","[-0.06196819358897235,0.03989449126862867]","[-1,-1,-1]","[-0.05632178198064716,-0.13363238562553822]","[1,1,1]","[-0.07682065263403808,0.17383958916612485]","[1,1,1]","[0.04871463891636323,0.058516298862389224]","[1,1,1]","[-0.07894944961461989,0.07743572072932511]","[1,1,1]","[-0.12702447718443288,0.1342088697377273]","[1,1,1]","[0.10832810230144004,-0.13979152973329312]","[-1,-1,-1]","[-0.010504712724467333,-0.13320037780600516]","[1,1,1]","[-0.002135972304609154,0.19350269166816478]","[1,1,1]","[0.026914195249982658,0.007955673177146514]","[1,1,1]","[-0.13164502490729255,-0.08119022375608516]","[1,1,1]","[0.10242855865731079,0.05971637966246486]","[-1,-1,-1]","[0.08441342061092887,-0.17239110764379076]","[1,1,1]","[0.1871196780083557,0.05026131970086604]","[1,1,1]","[-0.021219938964557254,-0.06036902508967675]","[1,1,1]","[-0.09636149933262442,-0.16402962693582088]","[1,1,1]","[0.02,0.02]",443.4088,0,36,36,207,1,,,,,,,
,,,,,,,66d450d116aa59a3161adf97,682dc8b14c46c0f8965020dc,2025-05-21_14h37.22.457,cuing_paradigm_dot,2024.1.5,Win32,50,682d556593cb38ad0a074487,,,,,,,,,,,443.4093,443.9129,,,444.1658,444.8741,right,0.6818,,,,,,,,,0.6,,,,,,443.9133,444.1658,444.8742,"[-0.045634993347280585,0.13041320140044352]","[1,1,1]","[0.013306371708633514,0.0886953433996739]","[1,1,1]","[-0.16712438245873698,-0.06339929062448056]","[1,1,1]","[-0.17610473621949477,0.07205687052388716]","[1,1,1]","[0.11637875661329049,0.0723010208072696]","[-1,-1,-1]","[0.16363718279675205,-0.04474193279687001]","[1,1,1]","[-0.10221568423942835,0.13457683052665242]","[1,1,1]","[0.1599183110716545,0.07727398054943066]","[1,1,1]","[-0.0724186826085379,-0.18278290333740455]","[-1,-1,-1]","[-0.09474285006149911,-0.0017575329663136376]","[-1,-1,-1]","[0.11830033796207955,-0.10760135998555688]","[1,1,1]","[0.022846162891601428,0.007759526513234993]","[1,1,1]","[0.056973816676211236,0.05204777223510052]","[1,1,1]","[-0.03287821218620321,-0.06229435233786398]","[1,1,1]","[-0.01554125031781457,-0.18377475086698541]","[1,1,1]","[-0.07593131906477246,0.0796328793666526]","[1,1,1]","[0.09697413812993545,0.17141360190334148]","[-1,-1,-1]","[-0.18754223497873646,0.012825323664483915]","[1,1,1]","[0.13584099165298857,0.011662158117562701]","[-1,-1,-1]","[0.03668949168065688,-0.19651226920314607]","[-1,-1,-1]","[0.040840555475025776,-0.14355565148105748]","[-1,-1,-1]","[-0.0575318513781346,-0.13168200547462106]","[-1,-1,-1]","[0.08960655218707915,0.12779431858130405]","[-1,-1,-1]","[-0.10930561374506495,-0.1392538328050323]","[-1,-1,-1]","[-0.125696263332981,-0.08294551946850304]","[-1,-1,-1]","[0.00069005324810809,-0.03276662908650728]","[1,1,1]","[-0.010969072151040916,0.030599905448645714]","[1,1,1]","[0.06165733607344385,-0.09913195151652399]","[1,1,1]","[0.06961101205489499,-0.03550422364195082]","[-1,-1,-1]","[0.09545677923355357,0.004324382309758178]","[1,1,1]","[0.04566516197116193,0.14642356568178425]","[1,1,1]","[0.1550102435106734,0.12065269515144313]","[-1,-1,-1]","[0.02,0.02]",445.974,0,37,37,164,1,,,,,,,
,,,,,,,66d450d116aa59a3161adf97,682dc8b14c46c0f8965020dc,2025-05-21_14h37.22.457,cuing_paradigm_dot,2024.1.5,Win32,50,682d556593cb38ad0a074487,,,,,,,,,,,445.9756,446.4897,,,446.7306,447.1217,left,0.3712,,,,,,,,,0.1,,,,,,446.4897,446.7306,447.1217,"[0.14103197847428728,0.1134766340649455]","[-1,-1,-1]","[0.07206308388065431,0.18186066121321426]","[-1,-1,-1]","[-0.04280853508087768,0.011718942474466296]","[-1,-1,-1]","[-0.10696610826837644,-0.010778448335612457]","[-1,-1,-1]","[0.11981171332096506,0.0006405636975479396]","[-1,-1,-1]","[0.08958401624513165,-0.07619385902813448]","[-1,-1,-1]","[-0.12197883326158356,-0.09847055836729336]","[-1,-1,-1]","[0.13819679885333538,-0.11473976862123093]","[1,1,1]","[-0.009978443901453917,-0.16456583898925395]","[-1,-1,-1]","[0.03501391472365301,-0.1335249461317563]","[-1,-1,-1]","[0.09403642274585114,0.13341241882157379]","[-1,-1,-1]","[-0.020779226879027956,-0.027009192185341604]","[1,1,1]","[-0.106711973571597,0.03465542100516476]","[-1,-1,-1]","[0.03335154697205292,0.09997238230194616]","[-1,-1,-1]","[0.020763417235449628,0.055302031566271136]","[-1,-1,-1]","[0.13644312769086772,0.039297996356014886]","[-1,-1,-1]","[0.079528987165285,-0.1546332224967778]","[-1,-1,-1]","[0.03281304422491573,-0.023935307855391857]","[-1,-1,-1]","[0.14960555401412426,-0.06454686737910763]","[-1,-1,-1]","[0.17002732308450838,0.010696221404242316]","[-1,-1,-1]","[-0.060845439207944066,-0.04126030354376087]","[-1,-1,-1]","[-0.15058002092508133,0.032250769984380874]","[-1,-1,-1]","[0.1886570158089266,-0.027572967041461262]","[-1,-1,-1]","[0.12032917551943692,-0.15702764092141247]","[-1,-1,-1]","[0.03181756121629578,0.15582112483538332]","[-1,-1,-1]","[-0.0816084111912792,-0.1336800621783638]","[-1,-1,-1]","[-0.09762087745494895,0.09269094650192863]","[1,1,1]","[0.07503108048633263,-0.02556388955951378]","[-1,-1,-1]","[0.005728599530947974,-0.05782664387356319]","[-1,-1,-1]","[0.08048991243570332,0.04789699566262437]","[-1,-1,-1]","[-0.03050960316950918,0.14309578182349625]","[-1,-1,-1]","[-0.14703397354609618,-0.022522497356296217]","[-1,-1,-1]","[0.02,0.02]",448.2134,0,38,38,26,1,,,,,,,
,,,,,,,66d450d116aa59a3161adf97,682dc8b14c46c0f8965020dc,2025-05-21_14h37.22.457,cuing_paradigm_dot,2024.1.5,Win32,50,682d556593cb38ad0a074487,,,,,,,,,,,448.2144,448.7075,,,448.9491,449.5901,right,0.6192,,,,,,,,,0.55,,,,,,448.7076,448.949,449.5902,"[-0.12934115043799072,0.14620300603663397]","[-1,-1,-1]","[-0.042008531415834084,0.1559123719649536]","[-1,-1,-1]","[0.05710967735200254,-0.04277257230824973]","[-1,-1,-1]","[0.09064649803753076,-0.1520466854924359]","[1,1,1]","[0.08674624406849832,0.1758230979599855]","[1,1,1]","[0.1298493141689019,0.08477827850579013]","[1,1,1]","[-0.1107273702678036,-0.040396111870732374]","[-1,-1,-1]","[0.13848002325287023,-0.017857435099353062]","[-1,-1,-1]","[0.0362023936129172,-0.09410559412924983]","[1,1,1]","[-0.07786776500574709,0.009167175449819188]","[1,1,1]","[0.010575902326667656,0.17204502781086442]","[-1,-1,-1]","[0.1623677929699036,0.024935870351660415]","[-1,-1,-1]","[-0.052250128030503745,0.06341314683609792]","[1,1,1]","[0.04685571340628269,-0.19226735874105857]","[1,1,1]","[0.03568126733754015,0.093778553714299]","[1,1,1]","[-0.08308871062350127,0.12898535831418667]","[-1,-1,-1]","[-0.1318367178918633,0.0735473568661492]","[1,1,1]","[-0.02722019087136838,-0.035695252069702976]","[-1,-1,-1]","[-0.03270620169915513,-0.07743550725426446]","[1,1,1]","[-0.1622263664985518,0.10722144601143363]","[1,1,1]","[-0.11731480470067904,0.030763430520216923]","[1,1,1]","[-0.13884276306003338,-0.13769424504414665]","[1,1,1]","[-0.0736829215260202,-0.09705014839258266]","[-1,-1,-1]","[0.08947594661691018,-0.08092381345453821]","[-1,-1,-1]","[-0.005345964233729395,-0.11597310980398136]","[1,1,1]","[0.07356029769902259,-0.00031677594627275047]","[1,1,1]","[-0.020208033998174873,-0.19558157603780824]","[1,1,1]","[-0.09547095889953318,-0.1538120138948846]","[-1,-1,-1]","[0.02798746060560713,0.02225790905014833]","[1,1,1]","[0.14825582416614913,-0.07428206485189917]","[-1,-1,-1]","[-0.02105975404931744,0.11405878891613049]","[-1,-1,-1]","[0.07902758307499054,0.05435475063499749]","[1,1,1]","[0.02,0.02]",450.6908,0,39,39,122,1,,,,,,,
,,,,,,,66d450d116aa59a3161adf97,682dc8b14c46c0f8965020dc,2025-05-21_14h37.22.457,cuing_paradigm_dot,2024.1.5,Win32,50,682d556593cb38ad0a074487,,,,,,,,,,,450.6916,451.1962,,,451.4692,452.1535,right,0.6613,,,,,,,,,0.55,,,,,,451.1964,451.4691,452.1535,"[-0.14659031719647922,0.016405638656015475]","[-1,-1,-1]","[0.037446916412635076,-0.12063557095727077]","[-1,-1,-1]","[-0.10210312188360603,-0.005825499337735125]","[1,1,1]","[0.04008626311677374,0.035177177942012916]","[1,1,1]","[-0.038472810109405814,0.08469119054663325]","[-1,-1,-1]","[0.002638638430144595,0.16951424221759287]","[-1,-1,-1]","[0.0269840002339355,-0.031381579220329775]","[1,1,1]","[0.06961744771072256,0.07667767777379172]","[1,1,1]","[0.1504635343609124,-0.04352510958865615]","[-1,-1,-1]","[0.0929108017636608,-0.1529801686860039]","[-1,-1,-1]","[0.11313584357309614,-0.016895890489084357]","[1,1,1]","[-0.10836447618289106,-0.1300829851537444]","[1,1,1]","[0.12897459675911807,-0.09257923180842646]","[1,1,1]","[-0.006844915044297566,0.11112418203896189]","[-1,-1,-1]","[-0.15472988983172498,-0.02950034474583177]","[1,1,1]","[-0.08410339309278753,0.1480553714925696]","[-1,-1,-1]","[-0.04249087706517768,0.13278836618502346]","[1,1,1]","[0.1647143698943876,0.05762976348730883]","[-1,-1,-1]","[0.0939064045958607,-0.06214343056958938]","[-1,-1,-1]","[-0.10334126668841821,-0.08602731461814739]","[-1,-1,-1]","[0.1334964236961237,0.1259397163480934]","[1,1,1]","[-0.17199755498126476,-0.0855052566402358]","[1,1,1]","[0.15337038405417042,0.007459998506298954]","[-1,-1,-1]","[0.045233179975510344,0.15200598839559412]","[1,1,1]","[-0.1725150371517079,0.07971379128812543]","[1,1,1]","[-0.0048470006555798185,-0.05947268421140632]","[1,1,1]","[-0.0879357056257202,0.0721827584566274]","[1,1,1]","[-0.016932437506826038,-0.12960571295178375]","[1,1,1]","[-0.04581457927554972,-0.06955915600019029]","[1,1,1]","[0.09689373494179225,0.1488046403710675]","[-1,-1,-1]","[0.029662065037781644,-0.16665717642288994]","[-1,-1,-1]","[0.18860496161465506,-0.06412557757225384]","[1,1,1]","[0.02,0.02]",453.258,0,40,40,142,1,,,,,,,
,,,,,,,66d450d116aa59a3161adf97,682dc8b14c46c0f8965020dc,2025-05-21_14h37.22.457,cuing_paradigm_dot,2024.1.5,Win32,50,682d556593cb38ad0a074487,,,,,,,,,,,453.2593,453.7502,,,453.9709,454.8789,right,0.881,,,,,,,,,0.5,,,,,,453.7502,453.9709,454.879,"[0.007935515862782074,0.14144184040922672]","[1,1,1]","[0.09424725916429832,0.1284030640170712]","[1,1,1]","[-0.09291871076304248,-0.031749879705652205]","[1,1,1]","[-0.16669914947964654,-0.09334035236183946]","[-1,-1,-1]","[0.07835652481148889,-0.06388390076390907]","[1,1,1]","[-0.020279006221259204,-0.0029156376077635136]","[1,1,1]","[-0.05233960819433411,-0.05383041305291743]","[-1,-1,-1]","[-0.012755868623342827,-0.09885681731107145]","[1,1,1]","[-0.08082943706300902,0.00826879103118338]","[-1,-1,-1]","[-0.11026371406857263,0.14612201208607387]","[1,1,1]","[-0.1717000108151738,0.1017698531027883]","[-1,-1,-1]","[0.13147096862040122,0.09963042666499203]","[1,1,1]","[0.10889239708377141,0.04338359263192181]","[1,1,1]","[0.013187399355830454,0.02227339741578455]","[-1,-1,-1]","[0.08394493421600387,0.0043853049227440535]","[-1,-1,-1]","[-0.024948443143011364,0.11039546777303634]","[-1,-1,-1]","[0.17167343203416266,-0.003688279600396039]","[-1,-1,-1]","[-0.12746168450273546,-0.1302747650027033]","[-1,-1,-1]","[-0.18491145816439997,-0.03860137812164475]","[1,1,1]","[-0.18725305259632746,0.031005166295504396]","[-1,-1,-1]","[0.1484115510457351,0.03113390598081533]","[-1,-1,-1]","[0.1908920452215768,0.04185388702329596]","[-1,-1,-1]","[0.06345824666881662,0.09976802917317597]","[-1,-1,-1]","[-0.050931020698229884,-0.13263042293142926]","[-1,-1,-1]","[0.0890374694173918,-0.14269694099020927]","[1,1,1]","[0.021615850237688982,-0.02318574232645561]","[1,1,1]","[0.021358045691908467,-0.14500585791120268]","[1,1,1]","[0.15195320499379314,-0.08299986535136988]","[1,1,1]","[0.050132484784054944,-0.10855973566904252]","[-1,-1,-1]","[0.12870935247576093,-0.008136851703581914]","[1,1,1]","[0.03382273498499673,0.05959528508515362]","[1,1,1]","[-0.06831135536236414,0.13584656603554512]","[-1,-1,-1]","[0.02,0.02]",455.9647,0,41,41,114,1,,,,,,,
,,,,,,,66d450d116aa59a3161adf97,682dc8b14c46c0f8965020dc,2025-05-21_14h37.22.457,cuing_paradigm_dot,2024.1.5,Win32,50,682d556593cb38ad0a074487,,,,,,,,,,,455.9653,456.4427,,,456.6908,457.3271,left,0.6132,,,,,,,,,0.45,,,,,,456.4428,456.6908,457.3271,"[-0.09413030882288016,0.134118550989843]","[-1,-1,-1]","[-0.046304972085942614,0.19321123244325433]","[-1,-1,-1]","[0.059847285863275174,-0.06475386621816445]","[-1,-1,-1]","[0.1042438987895669,0.01402761036100059]","[1,1,1]","[0.1531943987941258,-0.028856610344418016]","[-1,-1,-1]","[-0.09200450351686125,-0.06475577623969861]","[1,1,1]","[-0.09756992483782363,0.006785623995832968]","[-1,-1,-1]","[0.006227698036833139,0.0658903196767984]","[1,1,1]","[0.16787563216188187,-0.07913419285070426]","[-1,-1,-1]","[-0.11790934517787831,-0.10141022639002485]","[1,1,1]","[-0.005071892615573637,-0.13435473134817547]","[1,1,1]","[0.10494469978960093,-0.10842161896395436]","[-1,-1,-1]","[-0.06382171165165301,-0.17464038606488924]","[1,1,1]","[-0.16584081891798114,-0.0677612054411639]","[-1,-1,-1]","[0.02180711879688852,0.19246310576183556]","[-1,-1,-1]","[0.10169777937709634,0.08119625749162643]","[-1,-1,-1]","[0.08606366406797016,-0.1576159747748339]","[-1,-1,-1]","[0.10239812222030155,-0.06811069245354907]","[1,1,1]","[0.020131515207615917,0.14317380638244734]","[1,1,1]","[-0.026681323906238924,0.1207569795008543]","[1,1,1]","[-0.13968729946980474,0.12848561721013782]","[1,1,1]","[-0.021050749047969466,0.0028484672221309945]","[-1,-1,-1]","[0.08166667785844577,-0.029059669935496874]","[-1,-1,-1]","[-0.1808190974982216,0.006765155204364199]","[-1,-1,-1]","[0.06978148395514758,0.11381280312291864]","[1,1,1]","[0.1326072152983734,0.10700887301438514]","[1,1,1]","[-0.1294682884059445,0.062467285200888366]","[-1,-1,-1]","[0.08137914819628593,0.17604364280249446]","[-1,-1,-1]","[-0.0674544030437677,0.09579707652857812]","[1,1,1]","[-0.1456986556341034,-0.03281327285150821]","[-1,-1,-1]","[0.012110800859111827,-0.04165956584913132]","[1,1,1]","[-0.047514084388488365,-0.061760931586425]","[-1,-1,-1]","[0.02,0.02]",458.4458,0,42,42,64,1,,,,,,,
,,,,,,,66d450d116aa59a3161adf97,682dc8b14c46c0f8965020dc,2025-05-21_14h37.22.457,cuing_paradigm_dot,2024.1.5,Win32,50,682d556593cb38ad0a074487,,,,,,,,,,,458.4462,458.9352,,,459.174,459.8359,right,0.6394,,,,,,,,,0.55,,,,,,458.9352,459.1739,459.836,"[-0.037383388574154464,-0.10911522320030072]","[-1,-1,-1]","[0.08582880243874534,0.041269580343401335]","[1,1,1]","[0.03385247388907739,-0.11483224685697765]","[-1,-1,-1]","[-0.11620553810167578,-0.09408567695683734]","[-1,-1,-1]","[-0.12547634570201904,0.07182893517098235]","[-1,-1,-1]","[0.08104544425374255,-0.0518079085630365]","[1,1,1]","[0.07680008514777352,0.109852870716287]","[-1,-1,-1]","[0.116165864083259,0.13738370946866127]","[-1,-1,-1]","[-0.09939977222939875,0.1639002555345827]","[1,1,1]","[-0.14581397298207605,-0.0022316674696183907]","[1,1,1]","[0.022344381588017048,0.14363311873355306]","[1,1,1]","[0.1992006736641208,0.0014375556806370295]","[-1,-1,-1]","[-0.002194177936222092,-0.03570746429540997]","[1,1,1]","[0.15183944157696538,-0.09311745567927962]","[1,1,1]","[-0.08575693128660944,0.09802596106070306]","[-1,-1,-1]","[-0.041333071511363166,0.000003091025914085998]","[-1,-1,-1]","[-0.034090279990008646,0.1365062018844473]","[-1,-1,-1]","[-0.04553899106926018,-0.05234251296627449]","[1,1,1]","[-0.09779543266963676,-0.16791369382135143]","[1,1,1]","[0.15893964329433607,0.0401965144952876]","[-1,-1,-1]","[0.07421095591737314,-0.181063344549692]","[1,1,1]","[0.004150584473532083,0.022936759299381805]","[1,1,1]","[0.0058858931610378945,0.1942191772690488]","[1,1,1]","[-0.05722285727838954,-0.14920378371742998]","[-1,-1,-1]","[-0.012806744397467939,-0.1715079216612411]","[1,1,1]","[-0.03395703186967194,0.17682219997159795]","[1,1,1]","[0.14341322146939162,-0.039943971309301184]","[1,1,1]","[0.1367190037215862,0.0033855189045499203]","[-1,-1,-1]","[-0.08684797458128203,0.008514977977649885]","[-1,-1,-1]","[-0.04285014445203664,0.0563293334649245]","[1,1,1]","[0.1042823902609233,-0.12288696777735764]","[1,1,1]","[-0.08608440748645195,-0.03359773862610024]","[1,1,1]","[0.02,0.02]",460.9134,0,43,43,120,1,,,,,,,
,,,,,,,66d450d116aa59a3161adf97,682dc8b14c46c0f8965020dc,2025-05-21_14h37.22.457,cuing_paradigm_dot,2024.1.5,Win32,50,682d556593cb38ad0a074487,,,,,,,,,,,460.914,461.401,,,461.6331,462.2224,left,0.5611,,,,,,,,,0.1,,,,,,461.4011,461.6331,462.2225,"[0.0680350530920982,0.07000440719791554]","[1,1,1]","[-0.01111053928960642,0.09661868310418602]","[1,1,1]","[-0.05947511891232057,-0.08822780800575873]","[-1,-1,-1]","[0.09304129841740573,-0.024297953766557044]","[-1,-1,-1]","[0.19617737544192004,-0.028926594115469554]","[-1,-1,-1]","[0.025173574112298935,0.1208367610580516]","[-1,-1,-1]","[-0.11769276980943383,0.0351005045826742]","[-1,-1,-1]","[0.13237894542772552,-0.03913307981999774]","[-1,-1,-1]","[0.08065013474355469,-0.15066269704002447]","[-1,-1,-1]","[-0.04519487662676112,0.06023268856080353]","[-1,-1,-1]","[0.05626617314879256,0.1604118599656161]","[-1,-1,-1]","[0.10726280862004041,0.04851548431595973]","[-1,-1,-1]","[-0.09413091795425943,0.11939218097513642]","[-1,-1,-1]","[-0.14774752396149038,-0.10403514307637643]","[1,1,1]","[-0.1546434985573581,-0.015016416133901067]","[-1,-1,-1]","[0.020939646582684813,-0.19395247114869169]","[-1,-1,-1]","[0.014881490393180222,-0.07279203797099819]","[-1,-1,-1]","[0.06397734065308147,-0.08446492064471212]","[-1,-1,-1]","[0.01917076014290848,-0.020009105374475238]","[-1,-1,-1]","[0.11320938942217933,-0.0970186118016536]","[-1,-1,-1]","[-0.019025728819571607,-0.1990553985333204]","[-1,-1,-1]","[-0.05443045538451234,-0.15706173547138771]","[-1,-1,-1]","[0.14002010756718664,0.0031210077727405446]","[-1,-1,-1]","[-0.14246251651728004,0.11031967846978816]","[-1,-1,-1]","[-0.1324869335416869,-0.1482037759303866]","[-1,-1,-1]","[0.1767623582383486,0.07264777702664152]","[-1,-1,-1]","[-0.09888091816546615,-0.04743059403539202]","[-1,-1,-1]","[0.06039590164743681,0.029258325040482053]","[-1,-1,-1]","[-0.060765973044440064,-0.011793684665056982]","[-1,-1,-1]","[-0.06540864217738541,0.17114488014554305]","[-1,-1,-1]","[-0.18789294572707402,-0.06415297500963973]","[-1,-1,-1]","[-0.00694097594818063,-0.10673944221016664]","[-1,-1,-1]","[0.02,0.02]",463.3074,0,44,44,2,1,,,,,,,
