right,left,explain.started,explain.stopped,key_resp_3.keys,key_resp_3.rt,key_resp_3.duration,participant,session,date,expName,psychopyVersion,OS,frameRate,study_id,explain_2.started,explain_2.stopped,key_resp_4.keys,key_resp_4.rt,key_resp_4.duration,explain_3.started,explain_3.stopped,key_resp_5.keys,key_resp_5.rt,key_resp_5.duration,fixation.started,fixation.stopped,practice.started,practice.stopped,response.started,response.stopped,key_resp.keys,key_resp.rt,key_resp.duration,feedback.started,feedback.stopped,trials_2.thisRepN,trials_2.thisTrialN,trials_2.thisN,trials_2.thisIndex,trials_2.ran,white_ratio,explain_4.started,explain_4.stopped,key_resp_6.keys,key_resp_6.rt,key_resp_6.duration,dotDisplay.started,dotDisplay.stopped,ITI.started,polygon_1.pos,polygon_1.color,polygon_2.pos,polygon_2.color,polygon_3.pos,polygon_3.color,polygon_4.pos,polygon_4.color,polygon_5.pos,polygon_5.color,polygon_6.pos,polygon_6.color,polygon_7.pos,polygon_7.color,polygon_8.pos,polygon_8.color,polygon_9.pos,polygon_9.color,polygon_10.pos,polygon_10.color,polygon_11.pos,polygon_11.color,polygon_12.pos,polygon_12.color,polygon_13.pos,polygon_13.color,polygon_14.pos,polygon_14.color,polygon_15.pos,polygon_15.color,polygon_16.pos,polygon_16.color,polygon_17.pos,polygon_17.color,polygon_18.pos,polygon_18.color,polygon_19.pos,polygon_19.color,polygon_20.pos,polygon_20.color,polygon_21.pos,polygon_21.color,polygon_22.pos,polygon_22.color,polygon_23.pos,polygon_23.color,polygon_24.pos,polygon_24.color,polygon_25.pos,polygon_25.color,polygon_26.pos,polygon_26.color,polygon_27.pos,polygon_27.color,polygon_28.pos,polygon_28.color,polygon_29.pos,polygon_29.color,polygon_30.pos,polygon_30.color,polygon_31.pos,polygon_31.color,polygon_32.pos,polygon_32.color,dot_size,ITI.stopped,trials.thisRepN,trials.thisTrialN,trials.thisN,trials.thisIndex,trials.ran,break_2.started,break_2.stopped,trials_3.thisRepN,trials_3.thisTrialN,trials_3.thisN,trials_3.thisIndex,trials_3.ran
subject chose white,subject chose black,0.0002,97.5268,space,82.5195,,670127b7712bb16c386ef2af,682db3a852518ca703874610,2025-05-21_13h07.10.255,cuing_paradigm_dot,2024.1.5,Win32,156.25,682d556593cb38ad0a074487,,,,,,,,,,,,,,,,,,,,,,,,,,,,,,,,,,,,,,,,,,,,,,,,,,,,,,,,,,,,,,,,,,,,,,,,,,,,,,,,,,,,,,,,,,,,,,,,,,,,,,,,,,,,,,,,,
,,,,,,,670127b7712bb16c386ef2af,682db3a852518ca703874610,2025-05-21_13h07.10.255,cuing_paradigm_dot,2024.1.5,Win32,156.25,682d556593cb38ad0a074487,97.5269,132.6882,space,5.1503,,,,,,,,,,,,,,,,,,,,,,,,,,,,,,,,,,,,,,,,,,,,,,,,,,,,,,,,,,,,,,,,,,,,,,,,,,,,,,,,,,,,,,,,,,,,,,,,,,,,,,,,,,,,,
,,,,,,,670127b7712bb16c386ef2af,682db3a852518ca703874610,2025-05-21_13h07.10.255,cuing_paradigm_dot,2024.1.5,Win32,156.25,682d556593cb38ad0a074487,,,,,,132.6882,136.9204,space,1.2257,,,,,,,,,,,,,,,,,,,,,,,,,,,,,,,,,,,,,,,,,,,,,,,,,,,,,,,,,,,,,,,,,,,,,,,,,,,,,,,,,,,,,,,,,,,,,,,,,,,,,,,,
,,,,,,,670127b7712bb16c386ef2af,682db3a852518ca703874610,2025-05-21_13h07.10.255,cuing_paradigm_dot,2024.1.5,Win32,156.25,682d556593cb38ad0a074487,,,,,,,,,,,136.9301,137.4235,137.4237,137.6753,137.6753,138.8752,right,1.1857,,138.8752,139.9719,0,0,0,0,1,0.8,,,,,,,,,,,,,,,,,,,,,,,,,,,,,,,,,,,,,,,,,,,,,,,,,,,,,,,,,,,,,,,,,,,,,,,,,,,,,,,,,,,,,,
,,,,,,,670127b7712bb16c386ef2af,682db3a852518ca703874610,2025-05-21_13h07.10.255,cuing_paradigm_dot,2024.1.5,Win32,156.25,682d556593cb38ad0a074487,,,,,,,,,,,139.9722,140.4686,140.4686,140.7203,140.7203,140.9848,left,0.258,,140.9848,142.0816,0,1,1,1,1,0.2,,,,,,,,,,,,,,,,,,,,,,,,,,,,,,,,,,,,,,,,,,,,,,,,,,,,,,,,,,,,,,,,,,,,,,,,,,,,,,,,,,,,,,
,,,,,,,670127b7712bb16c386ef2af,682db3a852518ca703874610,2025-05-21_13h07.10.255,cuing_paradigm_dot,2024.1.5,Win32,156.25,682d556593cb38ad0a074487,,,,,,,,,,,,,,,,,,,,,,,,,,,,142.0817,152.5139,space,7.423,,,,,,,,,,,,,,,,,,,,,,,,,,,,,,,,,,,,,,,,,,,,,,,,,,,,,,,,,,,,,,,,,,,,,,,,,,,,,,,,,,
,,,,,,,670127b7712bb16c386ef2af,682db3a852518ca703874610,2025-05-21_13h07.10.255,cuing_paradigm_dot,2024.1.5,Win32,156.25,682d556593cb38ad0a074487,,,,,,,,,,,152.5201,153.0171,,,153.2689,154.2622,right,0.9918,,,,,,,,,0.6,,,,,,153.0172,153.2689,154.2624,"[-0.05863749052946267,0.07136427665486347]","[-1,-1,-1]","[0.02863241629229218,-0.14344947187720536]","[-1,-1,-1]","[-0.10640224136378729,-0.04612656651888826]","[-1,-1,-1]","[0.0753533459184194,0.032958835673459815]","[-1,-1,-1]","[-0.008277419641329716,-0.015137104546691793]","[1,1,1]","[-0.055838604707074815,-0.17117409731772343]","[1,1,1]","[0.16486506525775876,0.09796395423674957]","[1,1,1]","[0.10660140660859654,0.00032386582925831426]","[1,1,1]","[-0.046048500376882816,0.1925172050489383]","[1,1,1]","[-0.006919250981972398,-0.1728819424794664]","[1,1,1]","[-0.08837481042634279,0.12294532872135105]","[-1,-1,-1]","[-0.10603451159311238,0.020643191111987723]","[1,1,1]","[-0.04110631677712192,-0.09109059503437497]","[-1,-1,-1]","[-0.11993624030581247,0.09614329536703285]","[1,1,1]","[0.06590607399559657,0.08505381620896829]","[1,1,1]","[0.08418264280539223,-0.03477419669161037]","[1,1,1]","[0.03856960453520404,0.18341480117693962]","[1,1,1]","[0.15275623254829318,-0.12606980952237917]","[-1,-1,-1]","[-0.10355523361873945,-0.162982150878653]","[-1,-1,-1]","[-0.055759421543846034,-0.012298882717569352]","[1,1,1]","[0.028797220061546627,0.05028929740194546]","[-1,-1,-1]","[0.1754087139435335,-0.08733485679821709]","[1,1,1]","[0.037051979138665224,-0.007761628313280733]","[-1,-1,-1]","[0.09559024152255458,0.11423675444693757]","[1,1,1]","[-0.15894663966684416,0.10728882525777492]","[-1,-1,-1]","[0.048409380359250874,0.14161008269099953]","[-1,-1,-1]","[0.022691069484075732,-0.08649252892365786]","[-1,-1,-1]","[0.19212158279153227,0.004931920450826478]","[1,1,1]","[-0.01032900106498014,0.12152935878668913]","[1,1,1]","[-0.06322488215402561,-0.13147679532238554]","[1,1,1]","[-0.006027211586413395,0.07863804035685441]","[1,1,1]","[-0.14346915077590772,0.05596389811577278]","[1,1,1]","[0.02,0.02]",155.359,0,0,0,164,1,,,,,,,
,,,,,,,670127b7712bb16c386ef2af,682db3a852518ca703874610,2025-05-21_13h07.10.255,cuing_paradigm_dot,2024.1.5,Win32,156.25,682d556593cb38ad0a074487,,,,,,,,,,,155.3592,155.8558,,,156.1075,157.1139,left,1.0005,,,,,,,,,0.45,,,,,,155.8558,156.1074,157.1139,"[0.034064827655571096,-0.14437035568222065]","[1,1,1]","[-0.039990099478956244,0.016927387796519505]","[-1,-1,-1]","[0.08700215457673623,-0.1797888115827294]","[-1,-1,-1]","[0.06331001755594731,-0.11633158374731108]","[-1,-1,-1]","[0.08556928910732811,-0.022762103013847526]","[-1,-1,-1]","[-0.05438749243247959,0.07199943481731187]","[1,1,1]","[-0.06444439787599536,-0.14258937607173508]","[-1,-1,-1]","[-0.08385291340376562,0.025117711582214236]","[-1,-1,-1]","[0.01721283128431859,0.10908957807547469]","[1,1,1]","[0.10712071205752237,0.1359333249615231]","[1,1,1]","[0.012500317438927782,0.18405064123564388]","[-1,-1,-1]","[0.12731327995922043,0.03353076413174253]","[1,1,1]","[0.0007571613557427327,0.05157130432970724]","[1,1,1]","[-0.07775612521854035,0.13504303217154404]","[-1,-1,-1]","[-0.1117571047626457,0.09160553258275675]","[1,1,1]","[0.15292210193343284,0.09119304919627924]","[-1,-1,-1]","[0.15444436209961568,-0.11070705586558514]","[1,1,1]","[-0.04250881320977906,-0.18250529223081563]","[1,1,1]","[-0.12993582671281548,0.03977790279630414]","[-1,-1,-1]","[-0.1711672093075475,0.06971907213757336]","[1,1,1]","[-0.047408605587435225,-0.07428660498657938]","[-1,-1,-1]","[0.1859766730737655,-0.07264079446261518]","[-1,-1,-1]","[0.10101802478261089,0.08136318815785235]","[-1,-1,-1]","[0.005280350064005729,-0.06645209345458578]","[-1,-1,-1]","[-0.17033680508459093,-0.09188023071134886]","[1,1,1]","[0.18576959099112647,-0.018161755048852046]","[1,1,1]","[0.046066150444116195,0.04274349474569034]","[1,1,1]","[-0.1925915918918858,0.00141074895969235]","[-1,-1,-1]","[0.19136696840524892,0.04702950413772551]","[1,1,1]","[0.07275585290448519,0.1645163241975258]","[-1,-1,-1]","[-0.1284265661591791,-0.08686798985946327]","[-1,-1,-1]","[-0.07606262996879198,-0.03298605726285642]","[-1,-1,-1]","[0.02,0.02]",158.2106,0,1,1,88,1,,,,,,,
,,,,,,,670127b7712bb16c386ef2af,682db3a852518ca703874610,2025-05-21_13h07.10.255,cuing_paradigm_dot,2024.1.5,Win32,156.25,682d556593cb38ad0a074487,,,,,,,,,,,158.2108,158.7074,,,158.9591,159.7525,left,0.7872,,,,,,,,,0.4,,,,,,158.7074,158.9591,159.7526,"[-0.12009377762305098,-0.06957041427355232]","[-1,-1,-1]","[-0.06617731150834512,-0.17059056820609955]","[-1,-1,-1]","[0.022532697693287234,-0.0093646380598081]","[-1,-1,-1]","[0.1082312017179164,-0.004482763773387346]","[-1,-1,-1]","[-0.1259274878717517,-0.13015488041771878]","[-1,-1,-1]","[0.016414242761419968,0.11206819793501752]","[-1,-1,-1]","[0.01312183607887982,-0.07553538911739675]","[1,1,1]","[0.08633877685958612,0.1741174701008096]","[1,1,1]","[-0.07690841906011191,-0.09774166858368137]","[1,1,1]","[-0.007458780819644707,-0.19833602668482744]","[-1,-1,-1]","[-0.14271207469318992,0.030288653655684734]","[1,1,1]","[0.10091278353553622,-0.10229572215232305]","[1,1,1]","[-0.16002800555567215,0.06979947046060885]","[-1,-1,-1]","[-0.05869323869175905,0.15126517963711386]","[1,1,1]","[-0.19653091632638509,-0.0034152245369257267]","[1,1,1]","[0.15857793112609653,0.01827346967776141]","[-1,-1,-1]","[0.15017364914493456,0.10330981406633005]","[-1,-1,-1]","[0.18916819130678786,-0.012149405465968393]","[-1,-1,-1]","[-0.020080079430146076,0.06643336848847614]","[-1,-1,-1]","[0.06073567803265472,-0.17199301175070145]","[-1,-1,-1]","[0.0638699618665239,-0.0277401372877963]","[-1,-1,-1]","[0.16918141283521215,-0.06655351391011483]","[1,1,1]","[0.11128176002650522,0.061621167421345914]","[1,1,1]","[-0.12264551302409699,0.10770723367939308]","[-1,-1,-1]","[0.03754327020039293,0.04017459217501703]","[1,1,1]","[0.054040119928190834,-0.13029627772527963]","[1,1,1]","[-0.03074692586191247,-0.04594078185241967]","[-1,-1,-1]","[0.12104011675003556,-0.05112851841918515]","[1,1,1]","[0.004207024563594377,0.15280412424818468]","[1,1,1]","[-0.0591504295653711,0.109486307535187]","[-1,-1,-1]","[-0.17493803166199953,-0.048927254995867]","[-1,-1,-1]","[0.08588930048845031,0.09626207084364584]","[-1,-1,-1]","[0.02,0.02]",160.8493,0,2,2,59,1,,,,,,,
,,,,,,,670127b7712bb16c386ef2af,682db3a852518ca703874610,2025-05-21_13h07.10.255,cuing_paradigm_dot,2024.1.5,Win32,156.25,682d556593cb38ad0a074487,,,,,,,,,,,160.8494,161.3461,,,161.5978,162.0623,left,0.4579,,,,,,,,,0.1,,,,,,161.3461,161.5977,162.0623,"[-0.18098211487627014,0.02913075790278696]","[-1,-1,-1]","[0.09332657628485143,0.12386828838802225]","[-1,-1,-1]","[-0.08690899266947123,-0.13223644174174295]","[-1,-1,-1]","[0.13105841096368462,-0.12908113838219287]","[-1,-1,-1]","[-0.1152302644337303,0.05841729583550595]","[-1,-1,-1]","[0.001702566026903062,0.06924555301655613]","[-1,-1,-1]","[-0.12137014462248921,0.10810613747963]","[-1,-1,-1]","[-0.0686589326939882,0.0798257134739864]","[1,1,1]","[-0.008707352539361073,-0.17184812009766048]","[-1,-1,-1]","[0.021778032991881528,-0.04028978751649861]","[-1,-1,-1]","[0.17324463716324381,0.012110968483201806]","[-1,-1,-1]","[0.06457038054839159,0.09549912155604602]","[-1,-1,-1]","[-0.09547301660916874,0.008032757429268893]","[1,1,1]","[-0.16437790659940543,-0.04910192353302299]","[-1,-1,-1]","[0.1122926236730071,-0.00863819764270403]","[-1,-1,-1]","[-0.04934191522641677,-0.0994212707068876]","[-1,-1,-1]","[0.15204041723805625,0.06722600018112226]","[-1,-1,-1]","[-0.08679214021475377,0.13928363722193535]","[-1,-1,-1]","[-0.13727914617942652,-0.14533633399294607]","[-1,-1,-1]","[0.07399969275503922,-0.0294599991591473]","[-1,-1,-1]","[0.07642278621940468,-0.1236730537815938]","[-1,-1,-1]","[-0.007127333169853745,-0.08063012905145951]","[-1,-1,-1]","[0.1618155636468205,-0.08786930436582727]","[-1,-1,-1]","[0.024653926682650828,0.12817975762266706]","[-1,-1,-1]","[-0.09317975542802764,-0.06573918750366298]","[-1,-1,-1]","[-0.042889149033557304,0.14846184132116869]","[1,1,1]","[-0.03189595613120958,0.1000726937956727]","[-1,-1,-1]","[0.1686074931094812,-0.04617082521343669]","[-1,-1,-1]","[0.13627938726332103,0.11592317061593593]","[-1,-1,-1]","[-0.02961091469200092,0.191971773397631]","[-1,-1,-1]","[0.002634917757400854,0.1643504459661421]","[-1,-1,-1]","[0.1141676715321635,-0.0796676213957805]","[-1,-1,-1]","[0.02,0.02]",163.159,0,3,3,17,1,,,,,,,
,,,,,,,670127b7712bb16c386ef2af,682db3a852518ca703874610,2025-05-21_13h07.10.255,cuing_paradigm_dot,2024.1.5,Win32,156.25,682d556593cb38ad0a074487,,,,,,,,,,,163.1592,163.6558,,,163.9074,164.5397,left,0.6316,,,,,,,,,0.4,,,,,,163.6558,163.9074,164.5397,"[-0.04005496464534943,-0.16156754826661965]","[-1,-1,-1]","[0.11534928338990523,-0.10439759158435344]","[-1,-1,-1]","[-0.1537037874907639,-0.053997891799833914]","[-1,-1,-1]","[-0.08213527739543584,0.027699447143499974]","[-1,-1,-1]","[-0.015549593646697876,-0.08745313292257727]","[1,1,1]","[0.11337784312259079,0.018269214632820607]","[1,1,1]","[-0.03577306706741257,0.1494913161646201]","[-1,-1,-1]","[-0.1767330241865443,0.041608859745671974]","[-1,-1,-1]","[0.07270464388040375,-0.013224089272585355]","[-1,-1,-1]","[-0.019369795000180497,0.01299544209719607]","[-1,-1,-1]","[0.12337301830878102,0.09057622479108274]","[1,1,1]","[0.026397450622614563,0.08081241313203623]","[1,1,1]","[-0.002301243797599844,-0.1929589811174086]","[-1,-1,-1]","[-0.12938190476945813,0.12731057085354194]","[1,1,1]","[-0.07399288106506194,0.10862211746675318]","[-1,-1,-1]","[0.15617639317657037,0.04085786971650041]","[-1,-1,-1]","[0.14994343280858877,-0.005112116107155171]","[-1,-1,-1]","[0.06842881022859813,-0.15324316259182258]","[1,1,1]","[-0.17228718375631696,-0.09436309701593587]","[1,1,1]","[-0.08487552088609245,0.1737198994486119]","[-1,-1,-1]","[-0.029615347741554075,0.10338814321203223]","[-1,-1,-1]","[-0.10931492407674105,0.059032602446446064]","[1,1,1]","[-0.07050073156015507,-0.015920208956537802]","[1,1,1]","[0.029951546041060557,-0.10493584379137645]","[-1,-1,-1]","[0.08301273914122016,0.13613842756157507]","[1,1,1]","[-0.07423912246245813,-0.13266362318476657]","[-1,-1,-1]","[-0.03927828473592647,0.0536393326330595]","[-1,-1,-1]","[0.06270772642230783,0.0484302651572747]","[1,1,1]","[-0.0033237244374862765,0.179135264981851]","[1,1,1]","[-0.11371424177564574,-0.004979175778087551]","[1,1,1]","[0.07591780912077747,-0.11265909196016922]","[-1,-1,-1]","[0.1518509196371369,-0.056526223443923836]","[-1,-1,-1]","[0.02,0.02]",165.6364,0,4,4,35,1,,,,,,,
,,,,,,,670127b7712bb16c386ef2af,682db3a852518ca703874610,2025-05-21_13h07.10.255,cuing_paradigm_dot,2024.1.5,Win32,156.25,682d556593cb38ad0a074487,,,,,,,,,,,165.6366,166.1331,,,166.3849,166.9525,right,0.5669,,,,,,,,,0.5,,,,,,166.1332,166.3849,166.9525,"[-0.04615703918594513,-0.10935136935897281]","[-1,-1,-1]","[0.03612240992492688,0.19417268334834473]","[1,1,1]","[0.07855394426487317,0.14245895088130073]","[1,1,1]","[0.044749978958927246,0.08175476565511498]","[-1,-1,-1]","[0.0836018516390267,0.0053972726331328914]","[1,1,1]","[-0.10130810542293148,0.14796637456773085]","[1,1,1]","[0.00984701357612368,-0.16953958123023738]","[1,1,1]","[-0.1740398233375201,-0.006205660883413513]","[-1,-1,-1]","[-0.1066511787884631,-0.03799129311704721]","[1,1,1]","[-0.09372307810034529,0.016302358769717105]","[-1,-1,-1]","[0.08596650532177125,-0.1047949636476829]","[1,1,1]","[-0.037581470436857,0.035954068677633566]","[-1,-1,-1]","[-0.08168528262767684,-0.16109167838069754]","[1,1,1]","[0.09829704268859842,-0.06486287263582377]","[1,1,1]","[0.12070970841222618,0.06050426763948521]","[-1,-1,-1]","[-0.05289845693824946,-0.001981713916635216]","[1,1,1]","[-0.06596599771975663,0.09601564530298484]","[-1,-1,-1]","[0.09798676073304613,-0.160301337856093]","[-1,-1,-1]","[-0.005867741184027775,0.08172764668719565]","[1,1,1]","[-0.11988535124499278,-0.11342102039478996]","[-1,-1,-1]","[-0.16411373289580297,0.06241273500579754]","[-1,-1,-1]","[0.14455592422933916,0.11865458462587254]","[1,1,1]","[-0.028134555399968814,0.17053483314521198]","[-1,-1,-1]","[0.13943425281438068,0.01601951461577954]","[1,1,1]","[0.004426820064910911,-0.09942927910364949]","[1,1,1]","[0.1793380064682473,0.05553632118793958]","[1,1,1]","[-0.13278307418774474,0.10513624796731734]","[-1,-1,-1]","[0.030230793459754404,0.1316258204824165]","[-1,-1,-1]","[0.18042221583686627,-0.07159343844360645]","[1,1,1]","[0.04070675228888753,-0.01705293472343369]","[-1,-1,-1]","[0.13000407117941795,-0.09294733823141266]","[-1,-1,-1]","[0.05182760304867589,-0.14121910876033805]","[-1,-1,-1]","[0.02,0.02]",168.0493,0,5,5,97,1,,,,,,,
,,,,,,,670127b7712bb16c386ef2af,682db3a852518ca703874610,2025-05-21_13h07.10.255,cuing_paradigm_dot,2024.1.5,Win32,156.25,682d556593cb38ad0a074487,,,,,,,,,,,168.0495,168.546,,,168.7978,169.1849,left,0.3815,,,,,,,,,0.1,,,,,,168.546,168.7978,169.1849,"[0.057321113015892676,0.058100256257738084]","[-1,-1,-1]","[-0.1731712157614904,-0.03938661518178213]","[-1,-1,-1]","[0.031163511366208364,0.09419671895096704]","[-1,-1,-1]","[-0.18486437623807317,0.04419439039249111]","[-1,-1,-1]","[-0.10062818425623618,-0.13451972856366065]","[-1,-1,-1]","[0.16363280235006822,-0.0632320188651056]","[1,1,1]","[0.1291005493395041,-0.0891249163990737]","[-1,-1,-1]","[-0.03021036504745432,-0.028293315554819606]","[-1,-1,-1]","[0.044899714658404005,-0.07443149229280889]","[-1,-1,-1]","[-0.05474379449809931,0.15852537342080628]","[-1,-1,-1]","[0.11118950792205734,0.008951228367850242]","[-1,-1,-1]","[-0.039776078422483686,0.09999380400081123]","[-1,-1,-1]","[-0.12214053769819506,-0.09288870339357778]","[-1,-1,-1]","[-0.11360727826282203,0.07331104840609509]","[-1,-1,-1]","[0.07374211045398789,0.1606932887999898]","[-1,-1,-1]","[-0.00850159101126964,0.06922548344311202]","[-1,-1,-1]","[-0.126629408594708,-0.010811485517236685]","[-1,-1,-1]","[0.01811425986819453,-0.13447653252223699]","[-1,-1,-1]","[-0.07342084262397354,-0.051267966323984934]","[-1,-1,-1]","[0.024289574186834202,0.16190193923338506]","[-1,-1,-1]","[-0.09787155935581664,0.148612578311952]","[-1,-1,-1]","[0.17895777685459968,0.021658364205142444]","[-1,-1,-1]","[0.11062300430824218,-0.15656563969769144]","[-1,-1,-1]","[0.017241941566335538,-0.02289021539070509]","[-1,-1,-1]","[-0.03377272315754191,0.014718165113300812]","[-1,-1,-1]","[0.09422237569805202,-0.057173818957616085]","[-1,-1,-1]","[0.08656055509364247,0.09463300278829907]","[-1,-1,-1]","[0.11757416500896585,0.12650799460054313]","[-1,-1,-1]","[-0.003065024396396572,0.19902318990675066]","[1,1,1]","[-0.03661925708587471,-0.1847349732772715]","[1,1,1]","[-0.05334484480371103,-0.11836731031879492]","[-1,-1,-1]","[-0.15153959214947876,0.09730228837133988]","[-1,-1,-1]","[0.02,0.02]",170.2815,0,6,6,20,1,,,,,,,
,,,,,,,670127b7712bb16c386ef2af,682db3a852518ca703874610,2025-05-21_13h07.10.255,cuing_paradigm_dot,2024.1.5,Win32,156.25,682d556593cb38ad0a074487,,,,,,,,,,,170.2818,170.7783,,,171.03,171.5461,right,0.5124,,,,,,,,,0.9,,,,,,170.7783,171.03,171.5461,"[0.01710633663745721,0.025331873197517812]","[1,1,1]","[0.09423738979363748,-0.1546477762641687]","[1,1,1]","[-0.19477105968571312,-0.01116516018928452]","[1,1,1]","[0.10668826459229563,0.004182668950429881]","[-1,-1,-1]","[-0.05029896511102264,0.03654978881118181]","[1,1,1]","[-0.003908334382382305,0.072708109929511]","[1,1,1]","[-0.1556992690214969,0.07110122617955228]","[1,1,1]","[0.05503168491427301,0.15565374858996794]","[1,1,1]","[-0.13478517525805325,0.1192477219780951]","[1,1,1]","[-0.029472315570445648,-0.18943536740268713]","[1,1,1]","[-0.05889797096414648,-0.06255321325378706]","[1,1,1]","[-0.000405930972520434,0.18804661060308347]","[1,1,1]","[0.030643128432130278,-0.15096377631348376]","[1,1,1]","[0.10976413590128922,-0.10980930162305416]","[1,1,1]","[-0.05610378762577512,-0.10825908226690191]","[1,1,1]","[0.17805171723653554,0.04983732783571484]","[-1,-1,-1]","[-0.15533068600114602,0.016543906744147886]","[1,1,1]","[0.08839516598424621,-0.045590465620341594]","[1,1,1]","[-0.013625511830270241,0.12449961896987133]","[1,1,1]","[0.12316163520540332,0.11654605747040057]","[1,1,1]","[0.053435681359395255,-0.025065505149270677]","[1,1,1]","[-0.08365876171193343,-0.0038917581720547714]","[1,1,1]","[-0.09532809666612613,-0.15920171658943058]","[1,1,1]","[-0.1142691091577422,0.03537356027174787]","[1,1,1]","[0.0514951327850989,0.0862771614719217]","[1,1,1]","[0.04717470250407997,-0.1889405084495482]","[1,1,1]","[-0.07149654405509459,0.12347667694723226]","[1,1,1]","[-0.008839070448114498,-0.05698394425177682]","[1,1,1]","[-0.04763343983737408,0.1908855261884988]","[-1,-1,-1]","[0.1219979633547235,0.045158841101221564]","[1,1,1]","[-0.08399431770134323,0.08230767352512403]","[1,1,1]","[-0.1460673975901864,-0.06731056564566822]","[1,1,1]","[0.02,0.02]",172.6429,0,7,7,186,1,,,,,,,
,,,,,,,670127b7712bb16c386ef2af,682db3a852518ca703874610,2025-05-21_13h07.10.255,cuing_paradigm_dot,2024.1.5,Win32,156.25,682d556593cb38ad0a074487,,,,,,,,,,,172.6431,173.1396,,,173.3914,174.23,right,0.8333,,,,,,,,,0.55,,,,,,173.1396,173.3914,174.23,"[0.027246535473915222,-0.14745807394673915]","[1,1,1]","[0.08129823852938312,-0.16737445377859184]","[-1,-1,-1]","[0.1350507471800003,0.06487583987173658]","[1,1,1]","[-0.10955520188770405,0.14129284620292024]","[1,1,1]","[-0.07576888443757887,0.01669466253531764]","[-1,-1,-1]","[-0.001754153389940903,0.049051515599260416]","[-1,-1,-1]","[-0.16672679093488485,-0.020869326604963996]","[1,1,1]","[0.0782977858702382,0.051519337898265155]","[1,1,1]","[-0.0563862295417463,0.07839544621658108]","[-1,-1,-1]","[0.03039889447569085,0.10893065292655256]","[-1,-1,-1]","[0.015528227318480328,0.1658342310445131]","[-1,-1,-1]","[0.17454542832543501,0.005613923766981444]","[1,1,1]","[-0.06693598920817226,-0.14663966792410357]","[-1,-1,-1]","[0.0039867674074296035,-0.10194028602225311]","[-1,-1,-1]","[-0.0911037119116302,-0.02172559615489338]","[1,1,1]","[-0.001975784073587865,-0.05071967939503416]","[1,1,1]","[-0.02162073194496044,-0.1770675559766701]","[-1,-1,-1]","[0.13786584016496234,-0.06328317167333464]","[1,1,1]","[0.08337245176517424,0.13361289303877702]","[1,1,1]","[-0.11293969760206027,-0.06687617458766017]","[1,1,1]","[-0.16008487648619663,0.05264721056956296]","[1,1,1]","[0.17003917539693272,0.09653659458059079]","[1,1,1]","[-0.11966642805034562,0.07953645663786507]","[1,1,1]","[-0.06768020134781642,-0.05798664092148284]","[1,1,1]","[-0.006440131759618163,0.005194277495519064]","[1,1,1]","[-0.08545758162119999,0.17575600923525123]","[1,1,1]","[0.023847675539540345,-0.1896280812954392]","[-1,-1,-1]","[0.10286481091267993,-0.12593183977136652]","[-1,-1,-1]","[-0.15421739658205785,-0.06964742231825843]","[-1,-1,-1]","[0.05535860641548267,-0.05070212675863733]","[1,1,1]","[-0.1261566602056405,-0.12741720438953644]","[-1,-1,-1]","[0.13611051993436563,0.01850183948290154]","[-1,-1,-1]","[0.02,0.02]",175.3267,0,8,8,147,1,,,,,,,
,,,,,,,670127b7712bb16c386ef2af,682db3a852518ca703874610,2025-05-21_13h07.10.255,cuing_paradigm_dot,2024.1.5,Win32,156.25,682d556593cb38ad0a074487,,,,,,,,,,,175.3269,175.8236,,,176.0752,176.7009,right,0.6228,,,,,,,,,0.55,,,,,,175.8236,176.0752,176.701,"[0.0038987013896079788,-0.0003849122917891704]","[-1,-1,-1]","[0.01883355609598172,0.12153603842025476]","[1,1,1]","[0.027207696281061858,-0.13910908196819027]","[-1,-1,-1]","[-0.030499183175928254,0.15226369071692578]","[1,1,1]","[0.06151233624105505,0.15634739460372934]","[1,1,1]","[0.04193187979724452,0.0518618877338605]","[1,1,1]","[0.17164263642597977,-0.07062301111851485]","[-1,-1,-1]","[-0.17973339362331028,-0.08707593735329193]","[1,1,1]","[0.12642249685655668,0.14447542281673117]","[1,1,1]","[-0.036597105548408136,-0.08441920898441216]","[1,1,1]","[-0.04258558492998764,-0.1770958205262692]","[1,1,1]","[-0.07221751928075829,-0.06149820353992142]","[-1,-1,-1]","[0.023114832269779426,-0.19771372403447288]","[1,1,1]","[0.07045427264361655,-0.1703168342200954]","[-1,-1,-1]","[0.08273198655371958,0.02889126414058665]","[-1,-1,-1]","[0.10558807558614446,-0.018124628041262525]","[-1,-1,-1]","[0.058299014826264706,-0.056620824593828514]","[1,1,1]","[-0.10659429004538555,-0.09713885362481273]","[-1,-1,-1]","[-0.0030570728223204653,0.043641330731760575]","[-1,-1,-1]","[-0.06353147655673887,0.06174358045359793]","[1,1,1]","[0.15487701760496128,-0.026619828179512618]","[1,1,1]","[-0.03037505779690261,-0.04066629316960429]","[1,1,1]","[-0.19717944772526208,0.026187561096049375]","[1,1,1]","[0.0737228232039651,0.08146722806503004]","[-1,-1,-1]","[-0.11214322564996143,0.15435033109803184]","[-1,-1,-1]","[0.11738746166882018,0.07684023896599698]","[1,1,1]","[-0.1682665585532264,-0.0018906087882159576]","[-1,-1,-1]","[0.020694292113535098,0.1841761807125378]","[1,1,1]","[0.1988930201388521,-0.014049656903629642]","[1,1,1]","[-0.14940450091826815,-0.055691256787810436]","[1,1,1]","[0.12262917916241667,-0.1368178832718746]","[-1,-1,-1]","[-0.16200430804889293,0.09030283238499066]","[-1,-1,-1]","[0.02,0.02]",177.7978,0,9,9,125,1,,,,,,,
,,,,,,,670127b7712bb16c386ef2af,682db3a852518ca703874610,2025-05-21_13h07.10.255,cuing_paradigm_dot,2024.1.5,Win32,156.25,682d556593cb38ad0a074487,,,,,,,,,,,177.798,178.2945,,,178.5463,179.0235,right,0.4752,,,,,,,,,0.5,,,,,,178.2945,178.5463,179.0235,"[-0.009737633517845836,0.012492182743047177]","[1,1,1]","[0.13363489800260128,-0.02026798630603542]","[1,1,1]","[0.12360003339890133,0.07155540091839502]","[-1,-1,-1]","[-0.07902305834846636,0.004054814497532438]","[1,1,1]","[0.18302563828089594,0.07921057644190115]","[-1,-1,-1]","[0.05081270274525202,-0.08818874536191758]","[1,1,1]","[0.051780360763247955,-0.17802538443238924]","[1,1,1]","[0.07185842695512612,0.16010645240335408]","[1,1,1]","[0.14070389483398402,-0.09453888282263334]","[-1,-1,-1]","[-0.009660108013582866,-0.03237861869013724]","[-1,-1,-1]","[-0.10862174648249688,0.03441053060071126]","[-1,-1,-1]","[0.07035850253527094,-0.0181189126544161]","[1,1,1]","[0.16812810245307627,0.03599066734153731]","[-1,-1,-1]","[-0.05766736256533824,-0.18608359615417736]","[-1,-1,-1]","[0.03380279340988191,0.13621549765651797]","[-1,-1,-1]","[0.1451380129767214,0.12586807145768708]","[1,1,1]","[-0.17055041454670078,-0.04477003768952171]","[-1,-1,-1]","[-0.07516705885198062,0.06377922802429435]","[-1,-1,-1]","[-0.11228789681040721,-0.13704152649152676]","[-1,-1,-1]","[0.018162812379207666,-0.13833781803232717]","[1,1,1]","[0.07504542202652355,0.041151033478654286]","[1,1,1]","[0.02970278831723952,0.0409497429874583]","[1,1,1]","[-0.07793825632433178,0.12961858726457232]","[-1,-1,-1]","[0.09553177671010722,-0.14848734704135427]","[-1,-1,-1]","[-0.01082427225518305,0.10457817366846044]","[1,1,1]","[-0.18429276802675124,0.033407255482821696]","[-1,-1,-1]","[0.003685407983986758,-0.07045222011570156]","[-1,-1,-1]","[0.18153585826243274,-0.020735157742921038]","[-1,-1,-1]","[-0.029394438503700625,-0.1399509435209305]","[1,1,1]","[-0.14577178895908297,0.07007376490500032]","[1,1,1]","[-0.02570638949569022,0.053945371822723534]","[1,1,1]","[-0.12468596031842095,-0.08678504284914594]","[1,1,1]","[0.02,0.02]",180.1203,0,10,10,117,1,,,,,,,
,,,,,,,670127b7712bb16c386ef2af,682db3a852518ca703874610,2025-05-21_13h07.10.255,cuing_paradigm_dot,2024.1.5,Win32,156.25,682d556593cb38ad0a074487,,,,,,,,,,,180.1205,180.6171,,,180.8687,181.3396,right,0.465,,,,,,,,,0.45,,,,,,180.6171,180.8687,181.3397,"[-0.14433082662223864,0.09258946933920982]","[-1,-1,-1]","[0.030393980131286375,-0.07598018195698437]","[-1,-1,-1]","[0.08981722907432038,-0.06663620406595024]","[-1,-1,-1]","[0.000873863219604079,0.18280900777750686]","[-1,-1,-1]","[0.015187151830403789,0.1153378403299029]","[1,1,1]","[-0.056054890410249504,0.18701761950950976]","[-1,-1,-1]","[-0.028793154394615432,-0.07397105840366514]","[1,1,1]","[-0.06156250301153654,0.04756156869161165]","[-1,-1,-1]","[-0.1402389538765658,-0.08749654134537098]","[-1,-1,-1]","[-0.05377701838467671,-0.016949521573157857]","[1,1,1]","[0.0866180094653502,-0.00728522934133418]","[-1,-1,-1]","[-0.08038408489764465,-0.11040095783112193]","[1,1,1]","[-0.006198861366543822,0.06262264772413592]","[-1,-1,-1]","[-0.15872966432931757,0.022619515914045454]","[-1,-1,-1]","[0.12665642103513525,-0.1108335590936907]","[1,1,1]","[-0.07961078906664344,-0.04805887322999525]","[-1,-1,-1]","[0.14020968371895123,-0.046487521290519446]","[1,1,1]","[0.0674525602377924,0.18616333556561251]","[-1,-1,-1]","[-0.0905506185107029,0.11116700262964066]","[1,1,1]","[0.00793574753209796,0.0021840101438039996]","[1,1,1]","[0.14643368365183126,0.09904739708401425]","[1,1,1]","[0.18962719976525036,-0.020054665037694354]","[-1,-1,-1]","[0.09029010629876652,-0.12852292753075287]","[-1,-1,-1]","[0.12005416099636854,0.13055416381658969]","[-1,-1,-1]","[0.10154229814731784,0.06676254830857727]","[1,1,1]","[0.06597664371294955,0.13613817545261922]","[-1,-1,-1]","[0.14227981898328682,0.025073452851749455]","[1,1,1]","[-0.03508361354294921,-0.13369104839369025]","[-1,-1,-1]","[-0.10255712479599575,0.063996549423109]","[1,1,1]","[-0.03333353635124112,0.1406540898080416]","[1,1,1]","[-0.001348504256022621,-0.1680757807904051]","[-1,-1,-1]","[-0.0067049117727558125,-0.039490114827149196]","[1,1,1]","[0.02,0.02]",182.4364,0,11,11,78,1,,,,,,,
,,,,,,,670127b7712bb16c386ef2af,682db3a852518ca703874610,2025-05-21_13h07.10.255,cuing_paradigm_dot,2024.1.5,Win32,156.25,682d556593cb38ad0a074487,,,,,,,,,,,182.4366,182.9332,,,183.1849,183.7526,left,0.561,,,,,,,,,0.4,,,,,,182.9332,183.1849,183.7526,"[-0.1800256469701033,0.008394567874511039]","[1,1,1]","[0.022649562621453102,-0.008814858582885098]","[1,1,1]","[-0.08608200364813023,-0.10371159370428362]","[-1,-1,-1]","[0.1311082292771918,-0.11532410060148789]","[-1,-1,-1]","[-0.0951412009972013,0.10936766496180786]","[-1,-1,-1]","[-0.059371954423246436,-0.024806913161942088]","[-1,-1,-1]","[0.05356896442458461,0.1654038509072286]","[-1,-1,-1]","[0.10607320436162851,-0.1542788465021911]","[-1,-1,-1]","[0.11100079435580808,0.03877478364311279]","[-1,-1,-1]","[-0.1270589628940826,-0.13283510886449632]","[1,1,1]","[0.15413736456828062,0.1162307114206478]","[-1,-1,-1]","[-0.04762191561131925,-0.18516795651851198]","[1,1,1]","[0.10905654620871225,-0.017360020463733937]","[1,1,1]","[0.07400803092529777,-0.09318123814148004]","[-1,-1,-1]","[0.00024910848279899864,0.1225693046241688]","[1,1,1]","[0.04014874639717007,-0.15379483971549132]","[1,1,1]","[-0.016682292160609038,-0.043702393612745034]","[-1,-1,-1]","[-0.11281156843524631,0.019469742451757338]","[-1,-1,-1]","[0.010085832040282778,-0.09740492566805715]","[1,1,1]","[-0.03179762586409609,0.011223639477075591]","[1,1,1]","[-0.12557016882111474,-0.07783781778552358]","[-1,-1,-1]","[0.0631702801025118,0.01639672584214346]","[1,1,1]","[0.19618160006098972,-0.023937220508252022]","[-1,-1,-1]","[-0.10042839716888129,-0.023454597597632267]","[-1,-1,-1]","[-0.012426231018934811,-0.13569674784545302]","[-1,-1,-1]","[0.04984790384773107,0.11966424738010993]","[1,1,1]","[0.1551336141141685,-0.029172552089593424]","[1,1,1]","[-0.1605251758154106,-0.04725467345812039]","[-1,-1,-1]","[-0.031824332882579826,0.08588233447747197]","[1,1,1]","[-0.04427782761292159,0.14799178466659937]","[-1,-1,-1]","[0.10120843598922731,0.14681853796179645]","[-1,-1,-1]","[-0.1365944996845042,0.12187001800751385]","[-1,-1,-1]","[0.02,0.02]",184.8493,0,12,12,57,1,,,,,,,
,,,,,,,670127b7712bb16c386ef2af,682db3a852518ca703874610,2025-05-21_13h07.10.255,cuing_paradigm_dot,2024.1.5,Win32,156.25,682d556593cb38ad0a074487,,,,,,,,,,,184.8496,185.3461,,,185.5979,185.959,right,0.3561,,,,,,,,,0.9,,,,,,185.3461,185.5979,185.959,"[0.012963593492578526,0.06159780840311909]","[1,1,1]","[0.16379233873053953,0.024330104996282624]","[1,1,1]","[0.037365200658665124,0.16713044054584988]","[1,1,1]","[-0.08982761198177777,-0.12204878988596247]","[1,1,1]","[0.04540161692779616,-0.11739721118742268]","[1,1,1]","[-0.06662444660887297,0.09239919362965493]","[1,1,1]","[0.11855984135033353,0.14260589002262247]","[1,1,1]","[0.10438540867133539,0.10375973085083438]","[1,1,1]","[0.008790064296194094,-0.020632269592249553]","[1,1,1]","[-0.09378064086416336,0.05843376475505224]","[1,1,1]","[0.12357311270830144,0.025650484566874555]","[1,1,1]","[-0.03516629583414,0.007690776943750442]","[1,1,1]","[-0.04978380518480033,-0.04268206733042142]","[1,1,1]","[0.039047522455421285,0.007187153432697544]","[1,1,1]","[-0.17549315479716782,-0.009386393227020385]","[1,1,1]","[0.035732693784339076,-0.06413777104638693]","[1,1,1]","[0.17717244477256558,-0.021233939365048148]","[1,1,1]","[0.09554557052879269,-0.0665318476975221]","[1,1,1]","[-0.017661847066166116,0.12243039852372577]","[1,1,1]","[-0.17464592613781146,-0.0925394634475849]","[1,1,1]","[0.150291783628477,-0.11067888277940051]","[1,1,1]","[0.15967639636557648,0.07570398314847018]","[1,1,1]","[0.08238011305367676,0.18153003649444974]","[1,1,1]","[0.08270397933046737,-0.02550681505862064]","[-1,-1,-1]","[-0.051833761436079304,0.15545516085804556]","[1,1,1]","[0.08347067807796628,-0.1495785037720293]","[1,1,1]","[-0.12366264924452727,-0.029590871020529954]","[-1,-1,-1]","[-0.13341582070952157,0.11607637216849757]","[1,1,1]","[-0.07002298392768201,-0.18728321382013596]","[-1,-1,-1]","[0.004366951830167962,-0.15527379889633455]","[1,1,1]","[0.06408547204111441,0.040953025052967613]","[1,1,1]","[-0.16829474800338257,0.09497148389467273]","[1,1,1]","[0.02,0.02]",187.0558,0,13,13,209,1,,,,,,,
,,,,,,,670127b7712bb16c386ef2af,682db3a852518ca703874610,2025-05-21_13h07.10.255,cuing_paradigm_dot,2024.1.5,Win32,156.25,682d556593cb38ad0a074487,,,,,,,,,,,187.056,187.5526,,,187.8043,188.1332,right,0.3252,,,,,,,,,0.9,,,,,,187.5526,187.8043,188.1333,"[0.09955857988422094,0.051174793837979876]","[1,1,1]","[-0.06137368568863318,0.05769307115141237]","[1,1,1]","[-0.05245022955712832,0.14977328072458523]","[1,1,1]","[-0.07872100920411489,-0.12540326590864254]","[1,1,1]","[-0.08328738831349962,-0.08417839553521486]","[1,1,1]","[-0.154237664629378,0.020775613282059232]","[1,1,1]","[0.14486709272766324,0.03067438002010582]","[1,1,1]","[-0.1026394879265549,0.14848153703997272]","[1,1,1]","[0.09343587740814746,0.12870147666264525]","[1,1,1]","[0.09594191090516273,-0.05950437412207442]","[1,1,1]","[-0.04054943547909322,0.11026660990767075]","[1,1,1]","[-0.00653175244446961,0.15948736489533652]","[1,1,1]","[0.1667272598970766,-0.08546985755653552]","[1,1,1]","[-0.13180763708195994,-0.017672438622375053]","[1,1,1]","[-0.1213948943948345,-0.06712132907486923]","[1,1,1]","[0.025715019403369697,-0.08344742714067545]","[1,1,1]","[0.07888693216126043,0.01057195741232513]","[-1,-1,-1]","[-0.13561561473949643,-0.1280249774731436]","[-1,-1,-1]","[0.04433117549835573,-0.026977531245274234]","[1,1,1]","[-0.020917316555505962,-0.024807044582578014]","[1,1,1]","[-0.17514591932966933,0.07661469418368724]","[1,1,1]","[-0.010003316607934706,-0.1688715138407982]","[1,1,1]","[0.19443431091221441,-0.0028838678747307844]","[1,1,1]","[0.10725292855228566,-0.1431525994883576]","[1,1,1]","[-0.004582034077648313,0.03811810948451802]","[-1,-1,-1]","[-0.16569601016244068,-0.06555404368249156]","[1,1,1]","[0.03823884915214479,0.05683999703962835]","[1,1,1]","[-0.11944953544785712,0.05056241488323054]","[1,1,1]","[-0.06204137495885086,0.013380465043214301]","[1,1,1]","[0.030993426813724217,-0.13714621644088704]","[1,1,1]","[0.025451267697763718,0.13506040285009668]","[1,1,1]","[0.10522844415119104,-0.10173030286707253]","[1,1,1]","[0.02,0.02]",189.23,0,14,14,204,1,,,,,,,
,,,,,,,670127b7712bb16c386ef2af,682db3a852518ca703874610,2025-05-21_13h07.10.255,cuing_paradigm_dot,2024.1.5,Win32,156.25,682d556593cb38ad0a074487,,,,,,,,,,,189.2301,189.7268,,,189.9785,190.3462,left,0.3622,,,,,,,,,0.4,,,,,,189.7268,189.9785,190.3462,"[0.15020574720046087,-0.049641965654550334]","[1,1,1]","[0.08558752560739158,0.113369482968691]","[-1,-1,-1]","[0.10236677200449999,0.0003350979627776406]","[1,1,1]","[0.05450353511885613,0.028965160833914243]","[1,1,1]","[-0.07219785322303601,0.013663918362190412]","[-1,-1,-1]","[0.1961311814329906,0.017612771495868554]","[1,1,1]","[-0.07946711826465655,-0.15190311175395835]","[-1,-1,-1]","[-0.0164144414399652,0.15915950073016052]","[1,1,1]","[0.06368766553855292,-0.13210251218190847]","[-1,-1,-1]","[0.10045489847031547,0.16555373593833236]","[1,1,1]","[-0.11309792216508718,0.0790587892886984]","[-1,-1,-1]","[0.009958175465524289,-0.1601952116393935]","[-1,-1,-1]","[-0.01752544177275537,0.018874609483168495]","[-1,-1,-1]","[-0.17648288615201466,-0.06096257596097071]","[-1,-1,-1]","[0.14564063050646583,0.12138261503606419]","[-1,-1,-1]","[0.05999844625181802,0.14436488756059454]","[-1,-1,-1]","[0.15418244456861002,0.08008242354582466]","[-1,-1,-1]","[0.018824453640232375,0.0662422422570878]","[1,1,1]","[0.1376216895290374,-0.13024894913801663]","[-1,-1,-1]","[-0.15009692335579053,-0.09225740270095396]","[-1,-1,-1]","[0.036470988747999825,-0.059501521179219134]","[-1,-1,-1]","[-0.11284130371465982,0.024832671743404627]","[-1,-1,-1]","[-0.05512440264184758,0.08550626208685094]","[-1,-1,-1]","[0.052146913903350134,-0.17154292189232395]","[-1,-1,-1]","[-0.12606163359929015,0.1379042118463423]","[1,1,1]","[0.10298607603603885,0.04788661441448214]","[-1,-1,-1]","[0.10381472837852085,-0.07419366379389329]","[1,1,1]","[-0.13772726533341004,-0.1406358334383074]","[1,1,1]","[-0.1678554866440375,0.024448846231174604]","[-1,-1,-1]","[-0.02387913674324275,-0.06540665194235755]","[1,1,1]","[0.030536860179681363,0.19563193679226198]","[1,1,1]","[-0.006466154728048236,-0.02578054212849386]","[1,1,1]","[0.02,0.02]",191.4429,0,15,15,58,1,,,,,,,
,,,,,,,670127b7712bb16c386ef2af,682db3a852518ca703874610,2025-05-21_13h07.10.255,cuing_paradigm_dot,2024.1.5,Win32,156.25,682d556593cb38ad0a074487,,,,,,,,,,,191.4431,191.9399,,,192.1913,192.5591,left,0.3626,,,,,,,,,0.45,,,,,,191.94,192.1913,192.5591,"[0.1535173004957966,-0.012484877410030952]","[1,1,1]","[0.11599952804845219,0.15617980647085955]","[1,1,1]","[0.016314673306227174,-0.0798379232982698]","[1,1,1]","[0.08590539641286038,-0.15945091912639722]","[-1,-1,-1]","[0.018948911770047507,0.06364008721258983]","[-1,-1,-1]","[0.1637195127656492,-0.10287058153662365]","[-1,-1,-1]","[-0.12226373975397667,-0.10943466618723087]","[-1,-1,-1]","[0.011333027111947195,0.1135453735125955]","[1,1,1]","[-0.029632933704992283,0.037084388940276894]","[1,1,1]","[-0.011728859571545298,-0.1503607784507702]","[1,1,1]","[0.09250092583168308,-0.031236708693754608]","[-1,-1,-1]","[-0.037352519728244535,-0.053759563132702706]","[-1,-1,-1]","[-0.08643623701093399,-0.14052863367953697]","[-1,-1,-1]","[-0.05063081773030465,0.08629793769186836]","[-1,-1,-1]","[-0.1127487224785609,0.061659148822128036]","[1,1,1]","[0.05599656857645487,0.04464835316084863]","[-1,-1,-1]","[-0.06376634686576454,-0.008747814461308151]","[1,1,1]","[0.047245846070428844,0.16744090552035962]","[1,1,1]","[-0.04029097120150333,-0.11669026630858453]","[1,1,1]","[-0.037243088045240534,0.16695838601404905]","[-1,-1,-1]","[0.13119137295589978,-0.13680199687331462]","[-1,-1,-1]","[-0.02308480296210196,-0.014296688672088796]","[-1,-1,-1]","[0.04624581201732083,-0.017889441549881913]","[-1,-1,-1]","[0.06424465039895538,-0.11093688302463056]","[-1,-1,-1]","[-0.0888379243130991,0.10359158604597124]","[1,1,1]","[-0.0987543193313426,-0.05130174893641725]","[1,1,1]","[0.058882356391506706,-0.05796874128127167]","[-1,-1,-1]","[-0.022351934980749312,-0.1984154500023063]","[1,1,1]","[-0.17278653730634502,-0.09730396524083786]","[-1,-1,-1]","[-0.06881397558840352,-0.17968124864394175]","[-1,-1,-1]","[-0.1715464249982666,0.017315122989664047]","[-1,-1,-1]","[0.06687762620487774,0.10813424330569775]","[1,1,1]","[0.02,0.02]",193.6558,0,16,16,73,1,,,,,,,
,,,,,,,670127b7712bb16c386ef2af,682db3a852518ca703874610,2025-05-21_13h07.10.255,cuing_paradigm_dot,2024.1.5,Win32,156.25,682d556593cb38ad0a074487,,,,,,,,,,,193.6561,194.1526,,,194.4043,194.7527,right,0.3477,,,,,,,,,0.9,,,,,,194.1526,194.4043,194.7527,"[-0.17943333276997359,0.0566577023119901]","[1,1,1]","[0.10075160907526415,0.08836926551847796]","[1,1,1]","[-0.058467587949485436,0.1601890724669607]","[1,1,1]","[0.14863004275829514,0.058521928938877865]","[1,1,1]","[0.08004645099997233,0.1805143219808695]","[-1,-1,-1]","[0.08706963032222652,-0.07251354070953649]","[1,1,1]","[-0.09832179806043148,0.13010102244666077]","[1,1,1]","[-0.1042670087253107,0.04529739431218234]","[1,1,1]","[0.06522571855474092,-0.12029415090763312]","[1,1,1]","[-0.09006162091655963,-0.07556912193693355]","[1,1,1]","[-0.024515115045813638,-0.048844573432570135]","[1,1,1]","[0.17405770403104984,-0.023923997250705743]","[1,1,1]","[-0.0625807447973761,-0.17311078973195185]","[1,1,1]","[0.05043046090218063,-0.16629018567934914]","[1,1,1]","[0.16069088733056203,-0.08080701254183292]","[-1,-1,-1]","[0.011292895629475495,-0.14147500344069958]","[1,1,1]","[0.04294009329609375,-0.03454406813918768]","[1,1,1]","[-0.024374873573595097,-0.11744609814935694]","[1,1,1]","[0.038691070404433245,-0.08820136135249323]","[1,1,1]","[0.18632698379076587,0.023782778513933768]","[1,1,1]","[0.12421649258370762,0.014079508986763729]","[1,1,1]","[-0.14737905038044663,0.015280348308731193]","[1,1,1]","[-0.14273034400387136,-0.08720210995504568]","[1,1,1]","[-0.058373247154510186,0.03238803794909508]","[1,1,1]","[0.003316381131047678,0.02151098406069955]","[1,1,1]","[-0.08510885341583876,-0.03462778587797625]","[1,1,1]","[-0.13177844861303503,0.10331284531437243]","[1,1,1]","[0.08617169877306964,0.0006967846208284068]","[1,1,1]","[-0.08996098902751395,-0.11824159762573705]","[-1,-1,-1]","[0.10593303198734683,-0.13433418578782838]","[1,1,1]","[0.030810000635871953,0.18393297603281936]","[1,1,1]","[0.020302021091697285,0.11345475061330249]","[1,1,1]","[0.02,0.02]",195.8494,0,17,17,182,1,,,,,,,
,,,,,,,670127b7712bb16c386ef2af,682db3a852518ca703874610,2025-05-21_13h07.10.255,cuing_paradigm_dot,2024.1.5,Win32,156.25,682d556593cb38ad0a074487,,,,,,,,,,,195.8495,196.3461,,,196.5978,197.1462,right,0.5445,,,,,,,,,0.6,,,,,,196.3462,196.5978,197.1462,"[-0.15243732819880793,0.06815743742110653]","[1,1,1]","[0.054521084053791205,-0.03791359285334406]","[-1,-1,-1]","[0.12938394818386081,-0.13256645881827395]","[1,1,1]","[0.07932641652954334,0.03763429303383736]","[1,1,1]","[0.14545079979886508,0.033164435099246575]","[-1,-1,-1]","[-0.064492416917885,0.07847353422590156]","[-1,-1,-1]","[0.19452317062825647,0.03565289745710575]","[1,1,1]","[-0.14408910050859916,-0.03340078598554243]","[1,1,1]","[-0.0615420014068691,-0.04923207807215776]","[1,1,1]","[0.17192735709149556,-0.049495847662723795]","[1,1,1]","[0.03571339987953655,0.1045956556568256]","[-1,-1,-1]","[0.10851934516106583,0.0025515849443580904]","[1,1,1]","[0.07862058140334705,-0.1320113367749006]","[1,1,1]","[0.0012108711503278254,-0.037732216181336944]","[-1,-1,-1]","[0.06900896386649409,0.13105042233818695]","[-1,-1,-1]","[0.11389992038582433,-0.05670738952498555]","[1,1,1]","[0.1093785796424921,0.11795688883312642]","[1,1,1]","[-0.03091946474475685,0.19446688603073156]","[1,1,1]","[-0.11646564781544905,0.12529291680993856]","[-1,-1,-1]","[-0.04346232394342974,-0.13065147414095213]","[1,1,1]","[-0.02601135963814044,-0.18211204796101763]","[1,1,1]","[0.14998501831462216,0.1322257919054271]","[-1,-1,-1]","[0.004074581356895839,0.1553274727389763]","[1,1,1]","[-0.03993967911504147,0.03792148542100852]","[-1,-1,-1]","[0.042560075490953954,0.0016826180592007392]","[-1,-1,-1]","[0.02336490768484457,-0.19576759768046242]","[-1,-1,-1]","[-0.07197022126417528,0.1458724824034307]","[-1,-1,-1]","[-0.00782324734403235,0.08100589109230336]","[1,1,1]","[0.1094571368954123,-0.09649078798678354]","[-1,-1,-1]","[0.1008650018743902,0.16689811266173304]","[1,1,1]","[-0.04038002162750005,0.11889373196295112]","[1,1,1]","[-0.15543642274212346,-0.10427806035289601]","[1,1,1]","[0.02,0.02]",198.243,0,18,18,166,1,,,,,,,
,,,,,,,670127b7712bb16c386ef2af,682db3a852518ca703874610,2025-05-21_13h07.10.255,cuing_paradigm_dot,2024.1.5,Win32,156.25,682d556593cb38ad0a074487,,,,,,,,,,,198.2432,198.7398,,,198.9915,200.3462,left,1.3535,,,,,,,,,0.55,,,,,,198.7398,198.9915,200.3462,"[-0.09721982935325171,-0.1031087925133808]","[1,1,1]","[0.1075077282640556,-0.13517968955834855]","[-1,-1,-1]","[-0.1623037417093292,-0.030079486864485718]","[1,1,1]","[-0.036181035409987024,-0.043487094427146704]","[1,1,1]","[0.15239111422733292,0.03705126487928511]","[-1,-1,-1]","[-0.05463262155551059,-0.09241767240327897]","[-1,-1,-1]","[0.08674261059446256,-0.06591951199134165]","[1,1,1]","[0.030494816086746368,0.134428618425387]","[1,1,1]","[-0.07532646413343119,-0.17239763255802895]","[1,1,1]","[0.06621188550153209,0.17978183196409367]","[1,1,1]","[0.013075076517018808,0.03482731960626711]","[1,1,1]","[-0.12125341510685213,0.03555554094278386]","[1,1,1]","[0.020044843899681874,-0.019008809626270343]","[1,1,1]","[0.1514965020436061,-0.07471924995705476]","[1,1,1]","[-0.007570202258547128,0.09913179788310339]","[-1,-1,-1]","[0.11528673472978367,0.005278812373602915]","[1,1,1]","[0.18717043772510034,-0.039213894517963435]","[-1,-1,-1]","[-0.06987311091640724,0.056041670808678425]","[-1,-1,-1]","[-0.014686902947730585,0.0018894592613746244]","[-1,-1,-1]","[0.1588751258068636,0.10544590175134655]","[-1,-1,-1]","[0.03250347172252142,-0.06232940949826667]","[-1,-1,-1]","[-0.11710608311219714,-0.024909428053208848]","[-1,-1,-1]","[-0.13383432557007682,-0.08172109713951192]","[1,1,1]","[-0.11989724752638463,0.12021756034075226]","[-1,-1,-1]","[0.0346428082874573,-0.18990476532753708]","[1,1,1]","[-0.01061061297371711,-0.11937098791112911]","[-1,-1,-1]","[-0.18876482979424883,0.008609259577876862]","[1,1,1]","[0.06833854877943174,0.11354031478212899]","[-1,-1,-1]","[-0.052032509824528665,0.09576613126471621]","[1,1,1]","[-0.07321833904300856,0.16028330739458946]","[1,1,1]","[0.0654099252119733,0.021803017711664884]","[1,1,1]","[0.10630639257386965,0.14368546164797114]","[-1,-1,-1]","[0.02,0.02]",201.4429,0,19,19,137,1,,,,,,,
,,,,,,,670127b7712bb16c386ef2af,682db3a852518ca703874610,2025-05-21_13h07.10.255,cuing_paradigm_dot,2024.1.5,Win32,156.25,682d556593cb38ad0a074487,,,,,,,,,,,201.4431,201.9398,,,202.1914,203.2172,right,1.0208,,,,,,,,,0.5,,,,,,201.9398,202.1914,203.2172,"[0.01601193371411841,0.04574004248116812]","[1,1,1]","[0.017421196061322315,-0.13681874326408308]","[-1,-1,-1]","[-0.12454074313673474,0.023323893152207887]","[-1,-1,-1]","[0.057651053120705655,0.12210110480662255]","[1,1,1]","[0.14592108512084853,0.05375533148629293]","[1,1,1]","[0.15858328983636572,-0.008362421509937414]","[1,1,1]","[0.1360567916313579,-0.10864936846823608]","[1,1,1]","[-0.1471940737583608,-0.04435843219141918]","[1,1,1]","[-0.0768252250047736,-0.037590358480355676]","[-1,-1,-1]","[-0.018729613930347784,0.1952091641745516]","[1,1,1]","[-0.0487719159062459,-0.19029287855723598]","[-1,-1,-1]","[-0.09649963863937835,0.15372897283126521]","[1,1,1]","[0.11636146110834322,0.020713283290941235]","[1,1,1]","[0.05542066944228839,-0.09253790397620305]","[-1,-1,-1]","[0.17648074795196828,-0.09160255641003227]","[-1,-1,-1]","[-0.05482772167336917,-0.14209836823801858]","[1,1,1]","[0.05972786228914391,-0.13693833481806994]","[-1,-1,-1]","[-0.19194281716611603,-0.02516840917294284]","[1,1,1]","[0.02313030643292688,-0.019380868849939108]","[1,1,1]","[0.03305126397268456,-0.05863722873576204]","[-1,-1,-1]","[-0.19665623918516534,0.017539438117182768]","[1,1,1]","[-0.034554292804997756,-0.028354641003300977]","[-1,-1,-1]","[-0.14751900867698134,0.058613840405152585]","[-1,-1,-1]","[0.09608978453478066,0.07647497830523622]","[-1,-1,-1]","[0.0887143276423965,-0.06222070957129703]","[1,1,1]","[0.07503489933313676,0.17619150493747168]","[-1,-1,-1]","[-0.14865058500469094,-0.11319414835844126]","[-1,-1,-1]","[-0.0647566351467533,0.04514545522464148]","[-1,-1,-1]","[-0.10027314214899101,0.11268220007063615]","[1,1,1]","[0.12687533023666417,0.11677700962206132]","[-1,-1,-1]","[0.18639876068315792,0.0336587625125109]","[-1,-1,-1]","[-0.01368804439064399,0.09685984560345355]","[1,1,1]","[0.02,0.02]",204.3139,0,20,20,119,1,,,,,,,
,,,,,,,670127b7712bb16c386ef2af,682db3a852518ca703874610,2025-05-21_13h07.10.255,cuing_paradigm_dot,2024.1.5,Win32,156.25,682d556593cb38ad0a074487,,,,,,,,,,,204.3141,204.8107,,,205.056,205.443,right,0.3843,,,,,,,,,0.9,,,,,,204.8107,205.0559,205.443,"[-0.030685277509264138,0.12817986633981987]","[1,1,1]","[0.10825277354350409,-0.0502342810297161]","[1,1,1]","[0.05513763223872865,0.11791057849513885]","[1,1,1]","[-0.06943109636332391,0.15445347338211543]","[1,1,1]","[-0.12027365612989001,-0.09690183067481342]","[1,1,1]","[0.14844987328774917,-0.047563567177303]","[1,1,1]","[-0.08901051667220714,0.11062619679739155]","[1,1,1]","[0.09680050686280858,0.00813997721023348]","[1,1,1]","[-0.09368125037747702,0.06682238263262683]","[-1,-1,-1]","[0.04526449627952998,0.190609135568449]","[1,1,1]","[-0.08159526362336048,-0.03807985219004077]","[-1,-1,-1]","[0.015344595083830386,-0.1892296352143562]","[1,1,1]","[-0.025335348648426594,-0.17141775070610074]","[1,1,1]","[-0.1304432826872131,0.01279687263644526]","[1,1,1]","[0.1751941589247575,-0.012793639150902807]","[1,1,1]","[-0.007437168651122861,-0.057525065470802245]","[1,1,1]","[-0.15344094724861607,0.06895465803805177]","[1,1,1]","[-0.022315716245975312,0.07832763703365919]","[1,1,1]","[0.06148782383616214,-0.01748840743094299]","[1,1,1]","[0.10851418105111243,0.04778726694956975]","[1,1,1]","[0.04007204282775432,-0.14486706071037544]","[1,1,1]","[0.09603219285926963,0.10188513106329049]","[1,1,1]","[0.12563806221973678,0.1371700153116858]","[1,1,1]","[0.04427937588536143,0.047471748564556805]","[1,1,1]","[0.11489004554268434,-0.1124160096545637]","[1,1,1]","[0.026077883780306964,0.1508362189404882]","[1,1,1]","[0.054463815112189624,-0.08185740457583691]","[1,1,1]","[-0.133034270569394,0.13398377896350883]","[1,1,1]","[0.17840747097425927,0.07433236885027995]","[1,1,1]","[-0.02583295685374531,0.18843557791515603]","[1,1,1]","[0.0038468593044094163,-0.10979328254183608]","[1,1,1]","[-0.020948456723198686,0.03568152222600446]","[-1,-1,-1]","[0.02,0.02]",206.5398,0,21,21,208,1,,,,,,,
,,,,,,,670127b7712bb16c386ef2af,682db3a852518ca703874610,2025-05-21_13h07.10.255,cuing_paradigm_dot,2024.1.5,Win32,156.25,682d556593cb38ad0a074487,,,,,,,,,,,206.5399,207.0365,,,207.2882,207.7398,right,0.4492,,,,,,,,,0.45,,,,,,207.0366,207.2882,207.7398,"[0.001571965704475279,0.07569492506746896]","[-1,-1,-1]","[0.06095429434706031,0.0030685994455673746]","[1,1,1]","[-0.08770003803562137,0.04288023225806938]","[-1,-1,-1]","[0.11329113269394375,0.13610051372556764]","[1,1,1]","[0.10318233841156016,0.028252130027256822]","[1,1,1]","[0.10747500277713701,-0.04943548194377861]","[1,1,1]","[0.1657206305786763,-0.06577771132525474]","[-1,-1,-1]","[0.14178481963865805,0.08395664176284796]","[1,1,1]","[0.18764691202419492,0.05197059765683021]","[1,1,1]","[-0.005086749866399243,-0.19701171994584807]","[1,1,1]","[0.07180142304476837,0.07212632970558079]","[1,1,1]","[-0.047847708304663686,-0.018734298786591087]","[1,1,1]","[-0.1280035207573732,-0.08375259235054026]","[-1,-1,-1]","[-0.009062213948968757,0.16610517327980465]","[-1,-1,-1]","[-0.17466353762179043,-0.057837480870129326]","[1,1,1]","[-0.009987445276089753,-0.08406333088925845]","[-1,-1,-1]","[0.03941152701075635,-0.07904947755482976]","[1,1,1]","[-0.015189950716199298,-0.14562303861921028]","[1,1,1]","[-0.07583022838708892,-0.06903997011207103]","[-1,-1,-1]","[-0.05629133728438329,-0.11922043202849752]","[-1,-1,-1]","[-0.14549610719264436,0.04781216945513323]","[-1,-1,-1]","[-0.025289702051782558,0.016819005351603855]","[-1,-1,-1]","[-0.14869886796087292,-0.12796020472355912]","[-1,-1,-1]","[-0.057889909957472285,-0.17818826216397227]","[-1,-1,-1]","[0.15034314011515132,0.015730775119891165]","[-1,-1,-1]","[-0.10692482726365148,0.10070794048323205]","[-1,-1,-1]","[0.02718989260070073,-0.16952552521658834]","[1,1,1]","[-0.11878418110905212,0.13926092573552407]","[-1,-1,-1]","[0.09231142047919548,-0.15350155603489132]","[1,1,1]","[0.11220830736516654,-0.10972394525835052]","[-1,-1,-1]","[0.06094684747093457,-0.1286480130718246]","[-1,-1,-1]","[-0.04675961862743555,0.11668955306504004]","[-1,-1,-1]","[0.02,0.02]",208.8365,0,22,22,72,1,,,,,,,
,,,,,,,670127b7712bb16c386ef2af,682db3a852518ca703874610,2025-05-21_13h07.10.255,cuing_paradigm_dot,2024.1.5,Win32,156.25,682d556593cb38ad0a074487,,,,,,,,,,,208.8368,209.3332,,,209.5785,210.2172,right,0.6375,,,,,,,,,0.45,,,,,,209.3332,209.5785,210.2172,"[-0.18061525726129965,0.07575924801355519]","[1,1,1]","[0.11177179693673864,0.15615227024728107]","[-1,-1,-1]","[0.12830953299419154,-0.07217151660363792]","[1,1,1]","[0.08475614321306167,0.016692849339784984]","[-1,-1,-1]","[0.0069013191422350635,0.15199177533425615]","[-1,-1,-1]","[-0.06292227767739997,-0.013388799621026867]","[-1,-1,-1]","[0.15688439526057557,0.043631425786739564]","[-1,-1,-1]","[0.0985469447224387,-0.16197454209114745]","[1,1,1]","[0.1527393209992625,0.12107019818148518]","[1,1,1]","[-0.0304882914893317,0.0467493808746074]","[1,1,1]","[0.07045823393534204,0.1487853556034601]","[-1,-1,-1]","[-0.13578772930428956,0.04695670002230756]","[1,1,1]","[-0.07632187141736865,-0.15772066781932265]","[-1,-1,-1]","[-0.09719223254091346,0.06568378837029192]","[-1,-1,-1]","[-0.045080369962088494,-0.06641757725161722]","[-1,-1,-1]","[-0.12673937780186484,-0.0471256192898654]","[-1,-1,-1]","[-0.17795174261347788,-0.034506950808681644]","[-1,-1,-1]","[0.1887076285602912,-0.014447032453380098]","[1,1,1]","[0.021882303493365302,0.01910669949155916]","[-1,-1,-1]","[-0.07062429326501153,0.03333875379314839]","[-1,-1,-1]","[-0.012374664157317158,-0.03181714457796146]","[1,1,1]","[0.06047041195834219,0.10998876066434407]","[1,1,1]","[-0.06638809656438577,0.09932811166514365]","[1,1,1]","[-0.021032919641077955,-0.17564058506821473]","[1,1,1]","[0.16406705918392206,-0.04616279047336094]","[-1,-1,-1]","[-0.16952653621808644,-0.09455671908678481]","[-1,-1,-1]","[-0.07091246922777446,0.1531418364742344]","[-1,-1,-1]","[0.034809003504650535,-0.1552970412443217]","[-1,-1,-1]","[0.12973848688522766,0.008484869066683347]","[-1,-1,-1]","[0.07826985583314972,0.06629562245062817]","[1,1,1]","[-0.14642580038079356,0.1268096733371107]","[1,1,1]","[0.07623952527293228,-0.031126537408893363]","[1,1,1]","[0.02,0.02]",211.3139,0,23,23,87,1,,,,,,,
,,,,,,,670127b7712bb16c386ef2af,682db3a852518ca703874610,2025-05-21_13h07.10.255,cuing_paradigm_dot,2024.1.5,Win32,156.25,682d556593cb38ad0a074487,,,,,,,,,,,211.3141,211.8107,,,212.0559,212.5011,right,0.4413,,,,,,,,,0.6,,,,,,211.8107,212.0559,212.5011,"[0.020706987518628078,-0.17454249331541857]","[1,1,1]","[-0.10422277070290296,0.16988033176399006]","[-1,-1,-1]","[-0.14168205883399787,0.05025602714876013]","[-1,-1,-1]","[0.09116989430055056,0.017856366623297374]","[1,1,1]","[-0.014632461334469084,-0.11995667256389157]","[1,1,1]","[-0.021649152339508513,0.08883365321676069]","[-1,-1,-1]","[0.07882156482638929,0.10195614858440306]","[1,1,1]","[0.11686795460628419,-0.10540678566142972]","[-1,-1,-1]","[-0.16139110510082952,-0.10515884944013518]","[1,1,1]","[0.13377338297751126,-0.05971956199619847]","[-1,-1,-1]","[-0.05713806138814822,0.02125398598304314]","[1,1,1]","[0.010409293765671334,-0.015730971649520694]","[1,1,1]","[-0.11006752889918518,-0.06202556677305365]","[1,1,1]","[-0.15718666085263872,0.0065259765757258665]","[-1,-1,-1]","[0.010600398706436785,-0.05710083726409673]","[-1,-1,-1]","[0.013256633815672204,0.12929605939824304]","[1,1,1]","[0.08697265491691725,-0.15243622974564394]","[-1,-1,-1]","[-0.08617102864279323,-0.13206924780097226]","[1,1,1]","[-0.07926293856275991,-0.012660059480953239]","[1,1,1]","[0.12759646567419625,0.12022571196209582]","[-1,-1,-1]","[0.03374250390905289,0.1675121518865022]","[1,1,1]","[-0.0817389707256103,0.06722318882253603]","[1,1,1]","[0.15412204836475285,-0.12162640313828436]","[1,1,1]","[-0.02813787867704675,0.18916466860556838]","[1,1,1]","[-0.13777724043916897,0.09303605154172295]","[1,1,1]","[-0.06195568162350097,0.15019045720370322]","[-1,-1,-1]","[-0.04309996225500798,-0.03679467851971656]","[-1,-1,-1]","[0.16989584236247757,0.010861323654420963]","[1,1,1]","[0.02967264752637741,-0.1195983737740266]","[-1,-1,-1]","[0.12775988327707383,0.06911280697849807]","[1,1,1]","[0.049919610387930066,0.07148017816993789]","[1,1,1]","[-0.15552294477114728,-0.03453009105432695]","[-1,-1,-1]","[0.02,0.02]",213.5978,0,24,24,177,1,,,,,,,
,,,,,,,670127b7712bb16c386ef2af,682db3a852518ca703874610,2025-05-21_13h07.10.255,cuing_paradigm_dot,2024.1.5,Win32,156.25,682d556593cb38ad0a074487,,,,,,,,,,,213.5979,214.0946,,,214.3463,214.714,left,0.3653,,,,,,,,,0.4,,,,,,214.0946,214.3462,214.714,"[0.06694997099162993,0.18131176753059491]","[-1,-1,-1]","[0.05503365463273495,-0.11399857563941826]","[1,1,1]","[-0.12099874500602753,-0.08546131806505017]","[-1,-1,-1]","[-0.08812374386961189,-0.13457514207694912]","[-1,-1,-1]","[-0.0037825972923791144,-0.18104434014551632]","[-1,-1,-1]","[0.132602325981814,0.138934114618036]","[1,1,1]","[0.0899198544549348,-0.048963021100012674]","[-1,-1,-1]","[-0.04593285622986416,0.04685622028547104]","[1,1,1]","[-0.034080706757263865,-0.15074354573162757]","[-1,-1,-1]","[0.049390811145139164,-0.15803864083029656]","[-1,-1,-1]","[0.1593578943610485,-0.053666407216293906]","[1,1,1]","[-0.10346859642715643,0.059267830346098525]","[-1,-1,-1]","[0.08187671643272837,0.10177424283098252]","[1,1,1]","[0.10617000741505976,-0.11834898838938893]","[-1,-1,-1]","[-0.005855655109463805,0.08317310213535359]","[1,1,1]","[0.051691141551277964,-0.010464474816853463]","[-1,-1,-1]","[-0.04663295000237361,0.17220207011502506]","[-1,-1,-1]","[-0.0311760432121787,-0.0457337780159816]","[-1,-1,-1]","[0.0060077993895355924,0.15332826831503527]","[-1,-1,-1]","[0.004192073544705356,-0.0918067629780878]","[-1,-1,-1]","[-0.16403611968217532,0.04211535368545927]","[1,1,1]","[-0.11992727691509969,-0.006058899728128921]","[1,1,1]","[-0.10255019202810794,0.10269145802533652]","[-1,-1,-1]","[0.14804757064054516,0.04133052727680794]","[-1,-1,-1]","[-0.09093442499173951,-0.04772989054165502]","[1,1,1]","[0.19919900287261674,-0.013163349020408213]","[1,1,1]","[0.15106772655717174,-0.002797326804675533]","[-1,-1,-1]","[0.1516004472455301,-0.11985474854545018]","[1,1,1]","[-0.03999055988376926,-0.09344638926882562]","[-1,-1,-1]","[-0.10213102515735167,0.1433621707846369]","[1,1,1]","[0.03375655023269885,0.11506741132218154]","[-1,-1,-1]","[-0.1529793224821104,-0.11369997387543793]","[1,1,1]","[0.02,0.02]",215.8107,0,25,25,43,1,,,,,,,
,,,,,,,670127b7712bb16c386ef2af,682db3a852518ca703874610,2025-05-21_13h07.10.255,cuing_paradigm_dot,2024.1.5,Win32,156.25,682d556593cb38ad0a074487,,,,,,,,,,,215.8109,216.3075,,,216.5594,216.8882,left,0.3254,,,,,,,,,0.4,,,,,,216.3076,216.5593,216.8882,"[0.014870866255100382,0.004408766059070664]","[-1,-1,-1]","[-0.1890690599305554,0.008131526828466214]","[1,1,1]","[-0.003994937094741219,0.1578554463428132]","[-1,-1,-1]","[0.05281769412809731,0.1315082194497744]","[-1,-1,-1]","[0.16960036331516495,-0.012611960981124425]","[-1,-1,-1]","[-0.12660470386007902,0.14695760457022047]","[1,1,1]","[-0.03389199080942366,-0.13858454561978306]","[-1,-1,-1]","[-0.0307453144449296,0.12488308158059426]","[-1,-1,-1]","[0.1002137022404969,-0.09841365148227002]","[-1,-1,-1]","[-0.06251328163697888,0.04944423343959228]","[1,1,1]","[-0.181307749269723,0.04758714888306359]","[1,1,1]","[0.12172625189709242,-0.03481529750026811]","[1,1,1]","[-0.0948941804013535,-0.04860855430265373]","[1,1,1]","[0.08094842248166086,-0.18086152922707904]","[1,1,1]","[-0.04592488018978112,-0.01890120849239579]","[-1,-1,-1]","[0.0558230759587923,0.05738661202168397]","[-1,-1,-1]","[-0.18386970822302118,-0.07026589152287523]","[1,1,1]","[0.0957112818389882,0.08386408193564675]","[1,1,1]","[0.18759784408834546,0.06350588369957244]","[-1,-1,-1]","[-0.14037441817590152,-0.11377599766862788]","[-1,-1,-1]","[-0.1227250511287288,0.07134135617170762]","[-1,-1,-1]","[0.0675732625740028,-0.00944029167511613]","[1,1,1]","[0.13146938230000194,0.013940304136602116]","[-1,-1,-1]","[-0.0013429368397260507,-0.07618448852829095]","[-1,-1,-1]","[0.14045299376006884,-0.14104601942919137]","[1,1,1]","[0.000440564461091052,0.06795098240354909]","[1,1,1]","[-0.13515828663271778,-0.004380820301997546]","[-1,-1,-1]","[-0.06797366231273745,0.1874414606117038]","[1,1,1]","[0.03862662626201285,-0.09536156178398682]","[-1,-1,-1]","[0.020284278894765424,0.19562764797486706]","[-1,-1,-1]","[0.120794305463,0.15882839378510752]","[-1,-1,-1]","[0.053509494965951074,-0.13876956109565652]","[-1,-1,-1]","[0.02,0.02]",217.9849,0,26,26,49,1,,,,,,,
,,,,,,,670127b7712bb16c386ef2af,682db3a852518ca703874610,2025-05-21_13h07.10.255,cuing_paradigm_dot,2024.1.5,Win32,156.25,682d556593cb38ad0a074487,,,,,,,,,,,217.9851,218.4816,,,218.7335,219.1979,right,0.4594,,,,,,,,,0.6,,,,,,218.4817,218.7335,219.1979,"[-0.12264419625989113,0.08888175405340437]","[1,1,1]","[-0.024957668859477086,-0.19606644878858517]","[1,1,1]","[-0.10561503905860904,-0.14617890868978037]","[-1,-1,-1]","[-0.02367218312055039,-0.14724511116330072]","[1,1,1]","[-0.1932581719667436,-0.04369368597812339]","[1,1,1]","[-0.012235418159966661,-0.03134966636811449]","[-1,-1,-1]","[0.07972113262657186,-0.02049062937315506]","[1,1,1]","[0.028872266028517966,-0.12709510693134246]","[1,1,1]","[0.07925145347142197,0.15913667553462782]","[-1,-1,-1]","[-0.003616011018533304,0.030740080514413206]","[1,1,1]","[0.07956468127821643,-0.08646472339720007]","[-1,-1,-1]","[0.025114529138433046,-0.015471480597545712]","[1,1,1]","[0.12782277475766035,0.11038067487049304]","[1,1,1]","[0.10038371261316419,-0.1340892706908312]","[-1,-1,-1]","[-0.11076759470658255,-0.01762890858043124]","[1,1,1]","[0.03020952619383344,0.13243381669069257]","[1,1,1]","[0.054947136297841044,-0.053674507803296426]","[-1,-1,-1]","[-0.060469040156474106,0.04760665750274859]","[1,1,1]","[-0.05987840908947597,0.14060043025796792]","[1,1,1]","[0.18420362575972152,-0.06426076547616906]","[-1,-1,-1]","[0.1611626204745225,0.05712398155033083]","[-1,-1,-1]","[0.13874833028264896,0.017633332014503896]","[-1,-1,-1]","[0.10690492522785246,0.06460174838832684]","[1,1,1]","[0.14873402424174065,-0.040619783948226275]","[-1,-1,-1]","[-0.1393928425237986,-0.09528948948889789]","[-1,-1,-1]","[0.18705986162300425,-0.004112039143265841]","[1,1,1]","[-0.14581070691299208,0.017921528352322177]","[-1,-1,-1]","[-0.17152167729337447,0.06994870071922898]","[1,1,1]","[-0.16196378879884268,0.10937455633457774]","[-1,-1,-1]","[-0.05936211328320827,-0.054351126821800336]","[1,1,1]","[0.15657675398439808,-0.11661141212095205]","[1,1,1]","[-0.018137295505881064,-0.0967103592093821]","[1,1,1]","[0.02,0.02]",220.2946,0,27,27,170,1,,,,,,,
,,,,,,,670127b7712bb16c386ef2af,682db3a852518ca703874610,2025-05-21_13h07.10.255,cuing_paradigm_dot,2024.1.5,Win32,156.25,682d556593cb38ad0a074487,,,,,,,,,,,220.2948,220.7914,,,221.0431,221.4108,left,0.366,,,,,,,,,0.45,,,,,,220.7914,221.043,221.4108,"[0.07111674633531163,-0.08068223827576798]","[-1,-1,-1]","[0.19215944335714513,0.05258006360114278]","[1,1,1]","[-0.13938671229849914,-0.09621913454544986]","[1,1,1]","[-0.08375998109162815,-0.04262977434376341]","[-1,-1,-1]","[0.19193164224106055,-0.027794496617860768]","[-1,-1,-1]","[-0.03412121549668565,-0.08838227128986333]","[1,1,1]","[0.1171576153779061,0.15274762880758452]","[-1,-1,-1]","[-0.05631983107729913,0.18648513396938027]","[1,1,1]","[0.1207819162892434,-0.015259030817868766]","[-1,-1,-1]","[-0.0927155658304271,0.09945003009064421]","[1,1,1]","[-0.027869168829698827,0.007015077234321489]","[1,1,1]","[-0.13336324889347373,0.028981597589392182]","[1,1,1]","[-0.11705889422726229,0.14708216409195263]","[-1,-1,-1]","[-0.1645850990896492,-0.03264656840980901]","[-1,-1,-1]","[0.02219185165697554,-0.1778252178751476]","[1,1,1]","[-0.08278623001798832,-0.1770897487341349]","[-1,-1,-1]","[-0.028382034933746608,-0.14697150330183664]","[-1,-1,-1]","[-0.12031608355835535,-0.014972103319977597]","[1,1,1]","[0.06550861739116172,-0.15888643189090762]","[-1,-1,-1]","[0.07454097173119067,0.11494216634148886]","[-1,-1,-1]","[0.14455429087488902,-0.11704639335972039]","[1,1,1]","[-0.09389038064044841,-0.11139282496205699]","[-1,-1,-1]","[-0.004476072153832717,-0.02605699021022624]","[-1,-1,-1]","[0.15235061647302495,-0.06091127421776627]","[-1,-1,-1]","[0.0497161842079937,-0.004424871430558962]","[1,1,1]","[-0.042038271692874773,0.06542060321545394]","[1,1,1]","[0.018741214001025158,0.14289333730410905]","[-1,-1,-1]","[-0.08627059816182094,0.009120181316468735]","[-1,-1,-1]","[-0.15867373780718802,0.06491801273867262]","[-1,-1,-1]","[0.02561329766073364,0.09440606723684761]","[1,1,1]","[0.03925864729135981,-0.10714996727521972]","[1,1,1]","[0.03488486366669807,-0.04649881280440284]","[-1,-1,-1]","[0.02,0.02]",222.5076,0,28,28,74,1,,,,,,,
,,,,,,,670127b7712bb16c386ef2af,682db3a852518ca703874610,2025-05-21_13h07.10.255,cuing_paradigm_dot,2024.1.5,Win32,156.25,682d556593cb38ad0a074487,,,,,,,,,,,222.5077,223.0043,,,223.256,223.856,left,0.5953,,,,,,,,,0.1,,,,,,223.0043,223.256,223.856,"[-0.17198067656075708,0.09281794492896797]","[-1,-1,-1]","[-0.07358864375807067,-0.10939811751215661]","[-1,-1,-1]","[-0.08153779227499586,0.057140799316837715]","[-1,-1,-1]","[0.07117050321811615,0.02181448609487754]","[-1,-1,-1]","[0.10597684995472353,-0.01794040513538685]","[-1,-1,-1]","[-0.004347676418017994,0.039042086094836996]","[-1,-1,-1]","[0.11591633729876848,-0.07901189300972485]","[-1,-1,-1]","[-0.03966432150945981,0.1651400673323744]","[-1,-1,-1]","[0.07264798217297334,-0.07562692112475396]","[-1,-1,-1]","[0.07515396344321687,-0.12806513875675432]","[-1,-1,-1]","[0.03800210401087033,-0.027144138321307226]","[-1,-1,-1]","[-0.16434178838573743,-0.06264129720785364]","[-1,-1,-1]","[-0.009189973182840401,-0.16893296232548086]","[-1,-1,-1]","[-0.13002550779930924,-0.10693111652252897]","[-1,-1,-1]","[0.07960642247302317,0.06676249117192821]","[-1,-1,-1]","[0.017108382440403185,0.16790862327274703]","[-1,-1,-1]","[-0.10139682183609545,-0.14693741734203106]","[1,1,1]","[-0.1257989640094217,0.1124995816576358]","[-1,-1,-1]","[0.16566304274166,0.03313347653708291]","[-1,-1,-1]","[-0.0223240651688044,-0.07346676264490443]","[-1,-1,-1]","[-0.05610338015971702,0.12642056284468162]","[-1,-1,-1]","[0.006004415193995765,-0.10772481520441639]","[-1,-1,-1]","[0.018771777055547677,0.10042894981176033]","[-1,-1,-1]","[0.06866103702132396,0.13832526694058916]","[1,1,1]","[0.13504218471395674,-0.12185372509276746]","[-1,-1,-1]","[0.1320844220706942,0.11021732013838419]","[-1,-1,-1]","[0.17617280457010395,-0.01967191269218843]","[-1,-1,-1]","[-0.0248729802360586,-0.01921314971479766]","[-1,-1,-1]","[0.07938881156630169,0.18219587698730233]","[-1,-1,-1]","[-0.1017970971298521,-0.054241119855192504]","[-1,-1,-1]","[-0.07093774815224763,-0.007129304482715321]","[1,1,1]","[0.05797115761323493,-0.1829880540197505]","[-1,-1,-1]","[0.02,0.02]",224.9527,0,29,29,13,1,,,,,,,
,,,,,,,670127b7712bb16c386ef2af,682db3a852518ca703874610,2025-05-21_13h07.10.255,cuing_paradigm_dot,2024.1.5,Win32,156.25,682d556593cb38ad0a074487,,,,,,,,,,,224.9528,225.4494,,,225.7011,226.0559,right,0.3525,,,,,,,,,0.9,,,,,,225.4495,225.7011,226.0559,"[0.09363179901382432,-0.1230035876036635]","[1,1,1]","[0.12420997798800362,0.1380662120817624]","[1,1,1]","[-0.035865133351837365,0.06357877759733742]","[1,1,1]","[-0.18987348286029393,0.009812112934563195]","[1,1,1]","[-0.09700628335919531,-0.1202899475251832]","[1,1,1]","[-0.024616748553598484,0.13428471526885916]","[1,1,1]","[0.06078047767049051,-0.1638740128352115]","[1,1,1]","[-0.12534409365842447,0.11446561176429003]","[1,1,1]","[-0.16475677358763843,0.08485752209423589]","[-1,-1,-1]","[0.1623757773592449,0.028855113367941495]","[1,1,1]","[0.062050655468275,-0.049886310073403356]","[1,1,1]","[0.03762848866875468,0.19586536409258626]","[-1,-1,-1]","[0.054807641256822234,0.07378965835230587]","[1,1,1]","[-0.11986987804755306,-0.0414440790584591]","[1,1,1]","[-0.07512323317344322,0.020094446840718237]","[1,1,1]","[0.00971507719909122,0.0463294916522034]","[1,1,1]","[-0.026640384676113092,-0.19010438704547258]","[1,1,1]","[-0.06546724151433005,0.1681871367360818]","[1,1,1]","[0.009529956177087781,-0.12237465280591296]","[1,1,1]","[0.09512524398799105,0.006717864775274226]","[1,1,1]","[-0.0505948598366054,-0.1336695722125561]","[1,1,1]","[-0.08500925543695553,0.13072000807785858]","[1,1,1]","[0.0189854299461141,0.11313177667767213]","[1,1,1]","[-0.08756777431142837,-0.16223194139874053]","[1,1,1]","[0.12357692670628652,-0.09173065751484204]","[1,1,1]","[0.09806765608902679,0.09940654858853328]","[1,1,1]","[-0.13672956234484387,-0.004360541267193367]","[1,1,1]","[-0.061406258422148884,-0.06108242177256482]","[1,1,1]","[-0.15792317613916151,0.044094643352723124]","[-1,-1,-1]","[0.1425678479561674,-0.00819325853994114]","[1,1,1]","[0.00010763497448190449,0.007460374081640492]","[1,1,1]","[0.10814611352183041,-0.03184765084211546]","[1,1,1]","[0.02,0.02]",227.1527,0,30,30,202,1,,,,,,,
,,,,,,,670127b7712bb16c386ef2af,682db3a852518ca703874610,2025-05-21_13h07.10.255,cuing_paradigm_dot,2024.1.5,Win32,156.25,682d556593cb38ad0a074487,,,,,,,,,,,227.1529,227.6495,,,227.9012,228.4947,left,0.5877,,,,,,,,,0.5,,,,,,227.6495,227.9012,228.4947,"[0.06971246921135742,-0.16599588266410809]","[-1,-1,-1]","[0.02671622357204438,-0.17074292614826087]","[-1,-1,-1]","[0.08191767050528931,0.11165193645328755]","[1,1,1]","[-0.07154167684542007,0.14118839969714536]","[-1,-1,-1]","[-0.07946805350627491,-0.06506936053807971]","[1,1,1]","[-0.1582391479760623,-0.051008488366186135]","[-1,-1,-1]","[-0.11399410903502423,-0.09505233579277451]","[1,1,1]","[0.019106777918582507,-0.1271765980085738]","[1,1,1]","[-0.05446045474974006,0.18004208523109003]","[1,1,1]","[0.08876896135542146,0.1701024778374969]","[1,1,1]","[0.048108443734023114,0.03963245833667064]","[1,1,1]","[-0.0014600445785243582,0.11096562750817487]","[-1,-1,-1]","[-0.1678449654660907,-0.09951546937906604]","[1,1,1]","[-0.11798975424502098,0.0047897390561307054]","[1,1,1]","[-0.0725867463402796,-0.16967660398533152]","[1,1,1]","[0.08221539397246437,-0.11685588569247034]","[1,1,1]","[-0.1748029420521733,0.028528543588618557]","[1,1,1]","[-0.16100201135560366,0.07502126221858683]","[-1,-1,-1]","[0.13271500534374012,-0.05982538257564263]","[-1,-1,-1]","[0.07626806537931556,0.07065890502758242]","[1,1,1]","[0.04877793029727392,-0.06539961498321846]","[-1,-1,-1]","[0.006929624229959988,0.16088932945483084]","[-1,-1,-1]","[-0.07213602826105822,-0.015369118630968764]","[-1,-1,-1]","[0.1669704203508443,-0.021771962704465662]","[-1,-1,-1]","[0.13166503375606065,0.12312533671806362]","[1,1,1]","[0.17100157438604904,0.09884674927507371]","[1,1,1]","[0.008303377548020765,-0.06721762228805692]","[1,1,1]","[-0.021069471856940865,0.060104206129373824]","[-1,-1,-1]","[-0.03629092755319916,-0.11611278728295263]","[-1,-1,-1]","[-0.11224175727554737,0.10713883979909065]","[-1,-1,-1]","[0.12492239922806485,-0.1383486377022886]","[-1,-1,-1]","[0.11289396883707893,-0.021958865737814928]","[-1,-1,-1]","[0.02,0.02]",229.5915,0,31,31,106,1,,,,,,,
,,,,,,,670127b7712bb16c386ef2af,682db3a852518ca703874610,2025-05-21_13h07.10.255,cuing_paradigm_dot,2024.1.5,Win32,156.25,682d556593cb38ad0a074487,,,,,,,,,,,229.5916,230.0882,,,230.3336,230.7011,right,0.3664,,,,,,,,,0.9,,,,,,230.0882,230.3335,230.7011,"[-0.09208182158317241,-0.00742688600934782]","[1,1,1]","[-0.033312757740689945,-0.1455977222109772]","[1,1,1]","[0.14616509397223057,-0.10161655328487733]","[-1,-1,-1]","[0.00136672299607236,-0.06362780470299922]","[1,1,1]","[0.19636016882370788,-0.03770713414307598]","[1,1,1]","[0.06202222412537903,-0.12216336756225554]","[1,1,1]","[-0.001144262464725788,0.08851261064202304]","[1,1,1]","[-0.03724174155988273,0.003943912390585218]","[1,1,1]","[-0.08197608935084474,0.09505991265873576]","[1,1,1]","[-0.14845268724208474,-0.06691551775138928]","[1,1,1]","[0.14555258213568065,0.04040838474491996]","[1,1,1]","[0.08930250365109994,0.09745155003549692]","[1,1,1]","[0.12708332073921347,0.12322652698629306]","[-1,-1,-1]","[0.05650628656630488,0.167274947503156]","[1,1,1]","[-0.14058740822633822,0.07449732801946893]","[1,1,1]","[0.08280297060907275,-0.05325578051665076]","[-1,-1,-1]","[0.07297587992108684,0.005610153440411309]","[1,1,1]","[-0.06483317169600976,-0.17199251704800847]","[1,1,1]","[-0.11639795017772755,-0.11224483367674992]","[1,1,1]","[0.11339243907473848,-0.02575097785526187]","[1,1,1]","[0.005926786583727165,0.1999059652246377]","[1,1,1]","[-0.06128931014590513,-0.0723824783014648]","[1,1,1]","[0.03730465296634015,0.05435638189944254]","[1,1,1]","[-0.0581661642129576,0.14211617266183876]","[1,1,1]","[0.1624625863617146,-0.06457860519662552]","[1,1,1]","[-0.07658671970884767,-0.11774291434931668]","[1,1,1]","[-0.0965435220000568,0.05025176988987371]","[1,1,1]","[-0.022625364684184655,0.1669700544006567]","[1,1,1]","[0.0256415049196946,-0.013636525402281082]","[1,1,1]","[-0.12061147861317886,0.12199908688845014]","[1,1,1]","[0.005952162141523115,-0.16831216168134927]","[1,1,1]","[0.1839927713169768,0.01567067722311217]","[1,1,1]","[0.02,0.02]",231.7979,0,32,32,206,1,,,,,,,
,,,,,,,670127b7712bb16c386ef2af,682db3a852518ca703874610,2025-05-21_13h07.10.255,cuing_paradigm_dot,2024.1.5,Win32,156.25,682d556593cb38ad0a074487,,,,,,,,,,,231.798,232.2946,,,232.5463,232.9269,left,0.3743,,,,,,,,,0.45,,,,,,232.2947,232.5463,232.9269,"[0.049428251176798214,0.1285665303750454]","[-1,-1,-1]","[0.027241922285025585,-0.08747861216227577]","[1,1,1]","[0.017400579205248352,0.17978652958474553]","[-1,-1,-1]","[0.13998551474011847,0.030973281129903666]","[-1,-1,-1]","[-0.059588422734682435,-0.11391092957281578]","[1,1,1]","[-0.14269842230776864,0.022877448073366037]","[-1,-1,-1]","[-0.027403576333416967,-0.054876122319896935]","[1,1,1]","[-0.0035683325719965803,-0.1646361256547015]","[-1,-1,-1]","[-0.01310016212648837,0.001000417891039402]","[1,1,1]","[0.008637811536659363,0.07307559655743782]","[-1,-1,-1]","[0.06550934739915093,-0.04331359054088284]","[-1,-1,-1]","[-0.043333513864566096,-0.16014543076781396]","[-1,-1,-1]","[-0.08433243486198434,0.1309461727330839]","[1,1,1]","[-0.1796224135028935,-0.08278576858630665]","[-1,-1,-1]","[0.07040319890019446,0.16825969587171272]","[1,1,1]","[0.1710143328418851,-0.004904273700818421]","[1,1,1]","[0.17652473485504985,0.0532536618170911]","[1,1,1]","[-0.08607451952493941,0.05225539279262122]","[-1,-1,-1]","[-0.11300027499651581,-0.12598551772205294]","[-1,-1,-1]","[-0.05018938142642115,0.10771576305510938]","[-1,-1,-1]","[-0.15145239957138007,-0.016787675632806923]","[-1,-1,-1]","[-0.04097968023243527,0.06295884142665313]","[-1,-1,-1]","[0.10591931027984984,0.14287672720072622]","[1,1,1]","[0.08784333601011249,0.10701648748087]","[1,1,1]","[0.08868507988055527,-0.11887783770945755]","[-1,-1,-1]","[0.06867998746195492,0.028528443259623466]","[1,1,1]","[-0.16389679041023159,0.07111584119584294]","[-1,-1,-1]","[-0.10291735642855795,-0.005821502724659284]","[1,1,1]","[-0.035726133613947685,0.14659876651991868]","[-1,-1,-1]","[0.16039567128813487,0.11498306331067744]","[-1,-1,-1]","[0.017265189444044402,-0.029492476757263034]","[1,1,1]","[-0.05029668640572645,-0.01576943696636594]","[1,1,1]","[0.02,0.02]",234.0237,0,33,33,64,1,,,,,,,
,,,,,,,670127b7712bb16c386ef2af,682db3a852518ca703874610,2025-05-21_13h07.10.255,cuing_paradigm_dot,2024.1.5,Win32,156.25,682d556593cb38ad0a074487,,,,,,,,,,,234.0239,234.5205,,,234.7722,235.1205,left,0.3419,,,,,,,,,0.1,,,,,,234.5205,234.7722,235.1205,"[-0.08293876780354881,-0.14746723820080998]","[-1,-1,-1]","[0.03825934365711231,0.1597035977219137]","[-1,-1,-1]","[0.10007756275084884,-0.15659228868707176]","[-1,-1,-1]","[0.008434867366712177,-0.06889132719819165]","[1,1,1]","[0.10677149806282918,-0.06583477896706473]","[-1,-1,-1]","[0.06376106099400837,-0.12494720030929149]","[-1,-1,-1]","[0.18036966921667025,-0.015295174209304771]","[-1,-1,-1]","[-0.033777687574258315,-0.00010576643249263866]","[1,1,1]","[-0.07325146855844615,0.12664454927430344]","[-1,-1,-1]","[-0.17831497453940603,-0.08356470910172045]","[-1,-1,-1]","[0.16355778504837498,0.10968522889723878]","[1,1,1]","[-0.06659363100316913,0.07302002179700429]","[-1,-1,-1]","[-0.08421906600461199,-0.089158221051868]","[-1,-1,-1]","[-0.015633996470514992,-0.1593841313666774]","[-1,-1,-1]","[-0.1318103404298228,-0.08380180333435464]","[-1,-1,-1]","[0.10354780455374732,0.023108538165130612]","[-1,-1,-1]","[0.045283041784502084,-0.17382973545512684]","[-1,-1,-1]","[-0.18177664635587154,-0.013413800435231105]","[-1,-1,-1]","[0.06987540978405414,-0.008041088078678654]","[-1,-1,-1]","[-0.08476457549364144,0.16792938961735818]","[-1,-1,-1]","[-0.12609142440278448,-0.018429683402769816]","[-1,-1,-1]","[-0.14769557849844897,0.12822258269608294]","[-1,-1,-1]","[0.11898288080358443,-0.11877537640759316]","[-1,-1,-1]","[-0.0018556720026165505,0.17542308895546746]","[-1,-1,-1]","[-0.13399010519672425,0.054788938246476356]","[-1,-1,-1]","[-0.0491573450923131,-0.1905548881254405]","[-1,-1,-1]","[0.13888500258712816,-0.03835568755108282]","[-1,-1,-1]","[-0.17729517452346158,0.08210963499338458]","[-1,-1,-1]","[0.094913237552258,0.1293592828125785]","[-1,-1,-1]","[0.0495347257949083,0.03949791063374263]","[-1,-1,-1]","[0.06368700107531915,0.08121235078222508]","[-1,-1,-1]","[-0.07409872778241842,-0.02955353497056138]","[-1,-1,-1]","[0.02,0.02]",236.2172,0,34,34,18,1,,,,,,,
,,,,,,,670127b7712bb16c386ef2af,682db3a852518ca703874610,2025-05-21_13h07.10.255,cuing_paradigm_dot,2024.1.5,Win32,156.25,682d556593cb38ad0a074487,,,,,,,,,,,236.2174,236.714,,,236.9657,237.2882,left,0.3179,,,,,,,,,0.1,,,,,,236.714,236.9657,237.2882,"[-0.0810061554872124,0.02227753789727105]","[-1,-1,-1]","[0.11129628810912959,0.05743140847168918]","[-1,-1,-1]","[-0.09788699489900543,-0.07722999925365907]","[-1,-1,-1]","[-0.0769780738616885,-0.1757470491556523]","[-1,-1,-1]","[-0.15132405455475967,-0.10596159117735812]","[-1,-1,-1]","[0.09191631245132609,-0.16652472526625275]","[-1,-1,-1]","[-0.003055656147841561,-0.08270063022561983]","[1,1,1]","[0.175930798566489,-0.07252138282862323]","[-1,-1,-1]","[-0.1317013024713671,0.1475291270158618]","[-1,-1,-1]","[0.1711955100384785,0.0005279026888331717]","[-1,-1,-1]","[-0.0645299250833958,-0.12072979537706748]","[-1,-1,-1]","[-0.05905514690072655,-0.02035035654323778]","[-1,-1,-1]","[0.018902961420847603,0.01880914510612084]","[-1,-1,-1]","[-0.1425687788600253,0.10612724647776763]","[-1,-1,-1]","[0.05283850934414195,-0.10072989425081538]","[-1,-1,-1]","[0.10002660979764902,-0.010581309011287277]","[-1,-1,-1]","[-0.17845189090097496,0.08697404853822162]","[-1,-1,-1]","[0.06454343565166618,0.11632685022284381]","[-1,-1,-1]","[0.06498836260813969,0.05733935329416687]","[-1,-1,-1]","[-0.16915749125743004,-0.013273327735010602]","[-1,-1,-1]","[0.09902275235749225,0.15656203884580772]","[-1,-1,-1]","[-0.03243020792006317,-0.1512393942842901]","[1,1,1]","[0.10786990554341601,-0.10530595141768376]","[-1,-1,-1]","[0.02943342997846327,0.14517136083337207]","[-1,-1,-1]","[-0.1361192473141972,0.035700533222559165]","[-1,-1,-1]","[0.009224045547047283,-0.19304124731220385]","[-1,-1,-1]","[0.16638355707028715,0.10104730146661825]","[1,1,1]","[-0.046757304376476114,0.09358366135930962]","[-1,-1,-1]","[0.031617249990914004,0.09281807221024561]","[-1,-1,-1]","[-0.07450214967140849,0.14906491832933214]","[-1,-1,-1]","[-0.010583278934069294,0.07218905749374785]","[-1,-1,-1]","[-0.09353609233664673,0.06915440769146737]","[-1,-1,-1]","[0.02,0.02]",238.385,0,35,35,19,1,,,,,,,
,,,,,,,670127b7712bb16c386ef2af,682db3a852518ca703874610,2025-05-21_13h07.10.255,cuing_paradigm_dot,2024.1.5,Win32,156.25,682d556593cb38ad0a074487,,,,,,,,,,,238.3852,238.8818,,,239.1335,239.5205,right,0.3818,,,,,,,,,0.55,,,,,,238.8818,239.1335,239.5205,"[0.18409033376841108,0.04767688236902249]","[-1,-1,-1]","[-0.05943862167864983,-0.11414592362918817]","[1,1,1]","[-0.007357820101536643,0.13642335623216711]","[-1,-1,-1]","[0.08424694750834986,0.05277700580617562]","[1,1,1]","[0.18752421265510025,-0.0495125164043225]","[1,1,1]","[0.15977916521225222,-0.11807716083888964]","[1,1,1]","[0.08453845504589717,-0.12640271593315816]","[-1,-1,-1]","[0.12800161285388423,0.023770098177167534]","[-1,-1,-1]","[-0.09221741965417742,-0.0555581272203896]","[-1,-1,-1]","[0.12330863810492276,0.1441985615087107]","[-1,-1,-1]","[-0.06464307143497167,-0.17053776906483717]","[1,1,1]","[0.005850013717608804,-0.17779106390208768]","[1,1,1]","[-0.16424560927001514,-0.04818311257236616]","[-1,-1,-1]","[-0.18022358193067084,0.030017668178311054]","[1,1,1]","[-0.11257208877827414,-0.12697900907132115]","[-1,-1,-1]","[-0.13974326034589216,0.10924578855753914]","[-1,-1,-1]","[0.08789524655812002,0.005110994800245393]","[1,1,1]","[-0.051659432432081105,0.09788818791668515]","[1,1,1]","[-0.06492389394954719,0.14388341026736512]","[1,1,1]","[-0.11283885827039504,0.034883139005358305]","[1,1,1]","[-0.07705496742680555,-0.005689999682637637]","[1,1,1]","[0.018745639808322775,0.055848745557544745]","[-1,-1,-1]","[0.03287189391743392,-0.013474974310536883]","[-1,-1,-1]","[0.007290079793045007,-0.12027462993754787]","[-1,-1,-1]","[-0.00981827856629664,0.025390396466353306]","[1,1,1]","[0.1586582803298247,-0.019280315235683188]","[1,1,1]","[-0.023108508800193894,-0.06452983434021872]","[1,1,1]","[-0.08869881948587725,0.07759764666041212]","[1,1,1]","[0.0874116022470418,-0.0357998135626183]","[-1,-1,-1]","[-0.04387410280607973,0.19277934706125666]","[-1,-1,-1]","[-0.15024375121265537,-0.08951503666480985]","[1,1,1]","[0.024537723668699538,-0.0641268588541444]","[1,1,1]","[0.02,0.02]",240.6172,0,36,36,134,1,,,,,,,
,,,,,,,670127b7712bb16c386ef2af,682db3a852518ca703874610,2025-05-21_13h07.10.255,cuing_paradigm_dot,2024.1.5,Win32,156.25,682d556593cb38ad0a074487,,,,,,,,,,,240.6174,241.114,,,241.3593,241.8431,left,0.4772,,,,,,,,,0.5,,,,,,241.114,241.3592,241.8431,"[0.04358223755665796,-0.1916093891074153]","[-1,-1,-1]","[0.05432137023100418,0.09828507867110285]","[1,1,1]","[0.04769482165046363,-0.03818160324070137]","[1,1,1]","[-0.1180598466422143,0.15674842454840188]","[1,1,1]","[0.10388106777582143,-0.09369317331405941]","[-1,-1,-1]","[-0.18249974550068201,0.05077294288912075]","[-1,-1,-1]","[0.003420714943514829,-0.021378761312993953]","[-1,-1,-1]","[-0.10571725047160653,-0.047576725876666795]","[-1,-1,-1]","[-0.09831347926224392,0.09967639611522024]","[1,1,1]","[-0.029342972813562823,-0.12180248462818083]","[1,1,1]","[0.10466100377848027,-0.033853131188491106]","[-1,-1,-1]","[-0.14947480054924828,0.12427237010297339]","[1,1,1]","[0.024582613960151604,-0.10390888707796046]","[1,1,1]","[0.1686579891628498,-0.012343352404161552]","[-1,-1,-1]","[0.1823213400646787,0.07252085621076286]","[1,1,1]","[0.07637692477447666,-0.14080071305065245]","[1,1,1]","[-0.17177685487263458,-0.08293022049203812]","[-1,-1,-1]","[-0.15018454419389848,-0.0009574754671666657]","[1,1,1]","[-0.041730908397428094,0.11731367291742434]","[-1,-1,-1]","[-0.06175384228915887,0.013996389624758925]","[-1,-1,-1]","[-0.0841316074281523,-0.14401648272915163]","[-1,-1,-1]","[0.02062958492137441,0.1469961281562609]","[1,1,1]","[0.1378314791948109,-0.12294584863176118]","[1,1,1]","[-0.018806194153639422,0.19055919690887702]","[-1,-1,-1]","[0.13075418757040327,0.07070681052198906]","[-1,-1,-1]","[-0.05365117521567759,-0.08443077291783312]","[-1,-1,-1]","[0.017309223012811903,0.057101009284789644]","[1,1,1]","[0.18053530354515185,-0.059689039827618494]","[1,1,1]","[-0.17933549321477602,-0.04053726928947601]","[1,1,1]","[0.15452070255344383,0.10411124857379742]","[1,1,1]","[-0.021730254739045038,0.06615084619840993]","[-1,-1,-1]","[0.1048849263681067,0.11681091949394033]","[-1,-1,-1]","[0.02,0.02]",242.9399,0,37,37,94,1,,,,,,,
,,,,,,,670127b7712bb16c386ef2af,682db3a852518ca703874610,2025-05-21_13h07.10.255,cuing_paradigm_dot,2024.1.5,Win32,156.25,682d556593cb38ad0a074487,,,,,,,,,,,242.9401,243.4366,,,243.6883,244.0689,right,0.3798,,,,,,,,,0.9,,,,,,243.4366,243.6883,244.0689,"[0.08138017142427664,-0.11199390308437172]","[1,1,1]","[-0.1271048174451589,0.13490136123515886]","[1,1,1]","[-0.04283888559325666,-0.151786890313202]","[-1,-1,-1]","[-0.17511389740471395,-0.02361435310345898]","[1,1,1]","[-0.0482828760642347,0.027163772493368266]","[1,1,1]","[-0.08363778206169623,-0.036868051137351206]","[1,1,1]","[0.05326048422180704,0.002100150094201732]","[1,1,1]","[0.0892014632612771,0.12677929893525677]","[-1,-1,-1]","[-0.08830813187433027,0.10744957562510882]","[1,1,1]","[-0.08054595670913502,-0.07822803293662155]","[1,1,1]","[0.1710421515955936,0.04294695361350963]","[1,1,1]","[0.16804313021126804,-0.029995982476121466]","[1,1,1]","[0.0027583862023641465,-0.1877748506600045]","[1,1,1]","[-0.043177398428084046,0.12787036918976552]","[1,1,1]","[-0.150166146981105,-0.07832800475412297]","[1,1,1]","[0.13909246596454128,-0.058596188893533456]","[1,1,1]","[-0.11053933666582613,-0.007112564272925279]","[1,1,1]","[0.09860906481935724,-0.022233841297056023]","[1,1,1]","[-0.008573196368066823,0.091552395901628]","[1,1,1]","[-0.13228845177617046,0.06816010942355134]","[1,1,1]","[0.0018306700152833112,0.190554259858839]","[1,1,1]","[0.06022898423962563,-0.0496141264822016]","[-1,-1,-1]","[-0.1034389438781889,-0.12356561714096066]","[1,1,1]","[0.18007339226399857,-0.07925379407357123]","[1,1,1]","[0.12214932613175736,0.05172938079216052]","[1,1,1]","[0.03872419529482165,0.044854140822605124]","[1,1,1]","[-0.012356116239637976,-0.08136724221878244]","[1,1,1]","[0.07330143394773889,-0.16630751149148906]","[1,1,1]","[0.06505574631451798,0.16081393697922972]","[1,1,1]","[0.14118336477443394,-0.12900409156878134]","[1,1,1]","[-0.0407998577327079,0.18746497463055165]","[1,1,1]","[0.06639334343050095,0.07492374982175574]","[1,1,1]","[0.02,0.02]",245.1656,0,38,38,194,1,,,,,,,
,,,,,,,670127b7712bb16c386ef2af,682db3a852518ca703874610,2025-05-21_13h07.10.255,cuing_paradigm_dot,2024.1.5,Win32,156.25,682d556593cb38ad0a074487,,,,,,,,,,,245.1658,245.6624,,,245.9141,246.314,left,0.399,,,,,,,,,0.4,,,,,,245.6625,245.9141,246.314,"[0.1613106439914844,-0.052624357767910135]","[1,1,1]","[0.03678084440553988,0.0533286822521208]","[-1,-1,-1]","[0.10457182420579697,0.14225700932372634]","[1,1,1]","[-0.047327981410742126,0.1755651501978338]","[1,1,1]","[0.14708446398311759,0.07641959505444414]","[1,1,1]","[0.04549483613483454,-0.1593797828918363]","[-1,-1,-1]","[0.07178458146077656,-0.004203398372173513]","[-1,-1,-1]","[0.1754484757955544,0.0043785806588027285]","[-1,-1,-1]","[-0.0837755883913505,-0.16569994670264102]","[1,1,1]","[-0.1314793315399397,-0.04358627502696794]","[1,1,1]","[0.051929096588197964,0.15933528843471345]","[-1,-1,-1]","[-0.11366974991715914,-0.12604262476082198]","[-1,-1,-1]","[0.06673097013987081,0.08654451089439598]","[-1,-1,-1]","[-0.17131169070718136,0.09452920217062112]","[-1,-1,-1]","[-0.06355845251420905,-0.02278153782583503]","[1,1,1]","[0.10713737248810819,-0.03716782962036073]","[1,1,1]","[-0.12499467609445944,0.05633462115899441]","[-1,-1,-1]","[-0.08667859598159619,0.11241970904097232]","[-1,-1,-1]","[-0.06044769028507771,-0.11365338342858113]","[-1,-1,-1]","[0.033455307865321415,0.01033063243146914]","[1,1,1]","[-0.002414280850304583,0.18822480976403416]","[1,1,1]","[-0.01044344223341628,0.143009775114578]","[1,1,1]","[0.11414207401509859,-0.1001477359839889]","[1,1,1]","[0.08313901459568855,-0.1800815643660355]","[-1,-1,-1]","[0.0923666595831864,0.0368210636268223]","[-1,-1,-1]","[0.001964749828712905,-0.19351777182751734]","[-1,-1,-1]","[0.060677667666827625,-0.07135012942896488]","[-1,-1,-1]","[-0.13058250909692593,0.09827395997144522]","[1,1,1]","[-0.1117591288496638,0.1456515327372218]","[-1,-1,-1]","[-0.09571180872293451,0.006036993116782004]","[-1,-1,-1]","[-0.004783606906819967,0.07210513283263044]","[-1,-1,-1]","[-0.19167308848002854,-0.035547057410433104]","[-1,-1,-1]","[0.02,0.02]",247.4108,0,39,39,34,1,,,,,,,
,,,,,,,670127b7712bb16c386ef2af,682db3a852518ca703874610,2025-05-21_13h07.10.255,cuing_paradigm_dot,2024.1.5,Win32,156.25,682d556593cb38ad0a074487,,,,,,,,,,,247.411,247.9076,,,248.1593,248.4883,left,0.3261,,,,,,,,,0.45,,,,,,247.9076,248.1593,248.4883,"[0.0017220856345306489,-0.05791919965844021]","[1,1,1]","[-0.10228728370434183,0.15537741954894296]","[1,1,1]","[0.08831834054665023,0.08509926230561025]","[1,1,1]","[0.03444308366205394,-0.13556056856246435]","[1,1,1]","[-0.025772288550767863,-0.0024341571223143654]","[-1,-1,-1]","[-0.09264217284955716,0.020750800381810815]","[1,1,1]","[0.16870844537909527,0.09364229897616123]","[-1,-1,-1]","[0.043532990766078514,0.08593012043698989]","[1,1,1]","[-0.05888067339725327,-0.17081126522260487]","[-1,-1,-1]","[0.07079891023042281,0.17416793100770517]","[1,1,1]","[-0.15568751252921806,0.01883334985921809]","[1,1,1]","[-0.0815901839236654,-0.10569330743999115]","[-1,-1,-1]","[0.044935064241245694,-0.03605104605134656]","[1,1,1]","[0.09988360875138683,-0.12801743278985667]","[-1,-1,-1]","[0.0021353559894571887,0.19047100357429883]","[1,1,1]","[0.1453625727756936,-0.019916247441039835]","[1,1,1]","[0.09677620552845713,0.026215692929770364]","[-1,-1,-1]","[0.102722712906428,-0.04043555583689245]","[1,1,1]","[0.18926478309970157,0.041121563008636425]","[-1,-1,-1]","[-0.12707565989659744,0.051639181564855474]","[-1,-1,-1]","[0.18032308382157286,-0.05346389978092696]","[1,1,1]","[0.0487835776472213,-0.09318755819196786]","[-1,-1,-1]","[-0.015295378793732049,0.09844324216642948]","[-1,-1,-1]","[-0.030202601721345354,-0.0932399676856721]","[-1,-1,-1]","[-0.1077838972725628,0.08787225366947142]","[-1,-1,-1]","[-0.09302893864454273,-0.033196406553009476]","[-1,-1,-1]","[0.07255844164782815,-0.006863580135311429]","[-1,-1,-1]","[-0.1710274742123477,-0.09112668666089761]","[1,1,1]","[-0.16589583869059768,-0.050355346310548416]","[-1,-1,-1]","[-0.15972382300507082,0.09795148307508936]","[-1,-1,-1]","[0.11795348365672301,-0.08472852850504527]","[-1,-1,-1]","[-0.19015219775877035,0.05243409979582518]","[-1,-1,-1]","[0.02,0.02]",249.585,0,40,40,82,1,,,,,,,
,,,,,,,670127b7712bb16c386ef2af,682db3a852518ca703874610,2025-05-21_13h07.10.255,cuing_paradigm_dot,2024.1.5,Win32,156.25,682d556593cb38ad0a074487,,,,,,,,,,,249.5852,250.0818,,,250.3337,251.0882,left,0.748,,,,,,,,,0.5,,,,,,250.0818,250.3337,251.0883,"[0.11241946811301602,0.07207608422194019]","[1,1,1]","[0.07381947179170949,0.11693927283834925]","[1,1,1]","[-0.044011539992806575,0.1298088984409596]","[1,1,1]","[0.008354340918824895,0.011259543058428084]","[-1,-1,-1]","[0.08599962997027571,-0.06287372055589746]","[-1,-1,-1]","[-0.06145364299439519,-0.18520308117221498]","[1,1,1]","[0.002907312990695865,0.17988639034457304]","[-1,-1,-1]","[-0.17196984877891983,-0.06611546889317463]","[-1,-1,-1]","[0.16211259719541965,0.044275172475880475]","[1,1,1]","[-0.17758191116559738,0.07886046604961355]","[-1,-1,-1]","[-0.14422824618175267,-0.10017611804956529]","[1,1,1]","[0.09138928786270971,0.003933607576895769]","[1,1,1]","[0.11364148420435617,0.1450799618513194]","[-1,-1,-1]","[0.11101506282862353,-0.09613946994114121]","[-1,-1,-1]","[-0.02834678606307492,0.046317890280670834]","[-1,-1,-1]","[-0.014868393537617552,-0.17728310778320952]","[1,1,1]","[0.05090340921354764,0.1569102994774716]","[1,1,1]","[-0.11919120057411232,-0.04493708436602074]","[1,1,1]","[0.14930786639633126,-0.03367268208008206]","[-1,-1,-1]","[-0.1436925050049503,-0.0025100200229919638]","[1,1,1]","[-0.00573024984164205,-0.09207244521735154]","[1,1,1]","[-0.1143211133438112,0.13946237297252337]","[-1,-1,-1]","[-0.044403622461701125,0.17961578073558865]","[1,1,1]","[-0.1019983035291884,-0.11156960250651378]","[1,1,1]","[-0.04615329905916902,-0.06988172944544593]","[-1,-1,-1]","[0.17203857920356333,-0.07720479276474244]","[1,1,1]","[0.1303561687598184,-0.13460357463173142]","[-1,-1,-1]","[0.029106971538316283,0.06539936667718305]","[-1,-1,-1]","[-0.08455498468481536,0.05733759852819907]","[-1,-1,-1]","[0.019960284599254686,-0.14486220001901176]","[-1,-1,-1]","[0.19436896466629192,-0.0004758412301573885]","[1,1,1]","[-0.1158878791716069,-0.15938756129489365]","[-1,-1,-1]","[0.02,0.02]",252.185,0,41,41,105,1,,,,,,,
,,,,,,,670127b7712bb16c386ef2af,682db3a852518ca703874610,2025-05-21_13h07.10.255,cuing_paradigm_dot,2024.1.5,Win32,156.25,682d556593cb38ad0a074487,,,,,,,,,,,252.1851,252.6818,,,252.927,253.8624,right,0.9298,,,,,,,,,0.45,,,,,,252.6818,252.927,253.8625,"[-0.16585737883749785,-0.07821681692994299]","[-1,-1,-1]","[0.1292915077125232,-0.14272817142685063]","[-1,-1,-1]","[-0.07462764375897069,-0.1776517517674806]","[1,1,1]","[0.15517713674532804,0.07206755842327636]","[-1,-1,-1]","[-0.04958588095595231,0.08517303306754191]","[1,1,1]","[-0.1873297123992669,0.05131467226032436]","[-1,-1,-1]","[0.13357765983886682,0.14421216195450062]","[-1,-1,-1]","[0.10115677559681911,0.09630828363957747]","[-1,-1,-1]","[-0.04504785514515815,0.00500693686984447]","[1,1,1]","[-0.001742292231864253,0.02403701551825688]","[-1,-1,-1]","[-0.13556602597010248,-0.03387203786088408]","[1,1,1]","[0.038800900336028746,0.002703597397939411]","[1,1,1]","[0.13017671090477237,-0.0319470491676825]","[-1,-1,-1]","[0.10714650935052666,-0.09277829422526575]","[-1,-1,-1]","[-0.13760918767138094,0.06487453330051086]","[-1,-1,-1]","[0.15963612433453123,0.008774332712523968]","[-1,-1,-1]","[0.06960657249649278,0.06343931976561232]","[1,1,1]","[-0.08551460558800747,-0.05979206881672573]","[-1,-1,-1]","[0.08204816078015043,-0.027551162953470203]","[-1,-1,-1]","[0.033445500950102285,-0.16633903240042766]","[-1,-1,-1]","[0.02973024010301115,0.12240265543648915]","[1,1,1]","[0.08350161001756841,0.17125538691712094]","[-1,-1,-1]","[0.052377713227306104,-0.1152499482201944]","[-1,-1,-1]","[-0.10360918689165226,0.03627196281940613]","[-1,-1,-1]","[0.0470434582502554,-0.07253961556937624]","[1,1,1]","[-0.12849464169074917,-0.10483407705986038]","[1,1,1]","[-0.09184714040577655,0.07910331886462162]","[1,1,1]","[-0.13197128590628918,0.14594577603673603]","[1,1,1]","[-0.017605211026637917,-0.10302075019374927]","[1,1,1]","[-0.03745932608232294,0.18788777888643743]","[1,1,1]","[0.04794301668864532,0.19124160362946419]","[1,1,1]","[0.0054386876340497955,-0.05260176781976727]","[-1,-1,-1]","[0.02,0.02]",254.9592,0,42,42,62,1,,,,,,,
,,,,,,,670127b7712bb16c386ef2af,682db3a852518ca703874610,2025-05-21_13h07.10.255,cuing_paradigm_dot,2024.1.5,Win32,156.25,682d556593cb38ad0a074487,,,,,,,,,,,254.9593,255.456,,,255.7077,256.256,right,0.5444,,,,,,,,,0.55,,,,,,255.456,255.7077,256.256,"[-0.020315151226612416,0.15349917833092416]","[-1,-1,-1]","[0.03832532150176863,-0.17585522318671548]","[-1,-1,-1]","[-0.13970129946927237,-0.06662853996275014]","[1,1,1]","[-0.11423782125811957,0.12533396285692]","[1,1,1]","[-0.10519391779773918,-0.15828836832372808]","[-1,-1,-1]","[0.07490447892492613,0.054209308707571215]","[-1,-1,-1]","[0.14171728400145583,0.04477748825233815]","[1,1,1]","[0.03184865108341292,0.05335673344341191]","[1,1,1]","[-0.10988969650362111,0.07055625242628379]","[1,1,1]","[0.10290282752184647,-0.16874203246542382]","[-1,-1,-1]","[0.03566723300570639,-0.06570718441288553]","[1,1,1]","[0.09356692580719671,-0.09676205009379618]","[-1,-1,-1]","[-0.04071478378763447,-0.09930040129101143]","[1,1,1]","[-0.19057184300179922,0.03565286135898327]","[1,1,1]","[0.16933251171696218,-0.10237656300763105]","[1,1,1]","[-0.14556016702464186,-0.12071592233091787]","[1,1,1]","[-0.1733635656097166,0.09800899982871483]","[-1,-1,-1]","[-0.03782914204672246,0.07173631179029115]","[-1,-1,-1]","[-0.021922903761593972,-0.008165603014386763]","[-1,-1,-1]","[0.16932162548254048,-0.05807003613516044]","[1,1,1]","[-0.07607166532472143,0.10348538534576902]","[1,1,1]","[-0.02029207294671355,-0.18822154845608813]","[1,1,1]","[-0.025824220883847622,-0.13946108872909438]","[-1,-1,-1]","[0.13087206825129583,0.14626635935863067]","[1,1,1]","[0.11722389549048697,-0.06357096580976795]","[1,1,1]","[-0.06499518662362075,-0.02309458740271304]","[-1,-1,-1]","[0.06173678907575673,-0.13628093389286847]","[1,1,1]","[0.07361252164972634,0.11652896226442437]","[-1,-1,-1]","[-0.19121918529432483,-0.009995188587762986]","[-1,-1,-1]","[-0.06751563685188415,0.035544706440069955]","[1,1,1]","[0.18038413800790326,0.03402647584564678]","[1,1,1]","[-0.10191338210674097,0.0060696604741103544]","[-1,-1,-1]","[0.02,0.02]",257.3528,0,43,43,133,1,,,,,,,
,,,,,,,670127b7712bb16c386ef2af,682db3a852518ca703874610,2025-05-21_13h07.10.255,cuing_paradigm_dot,2024.1.5,Win32,156.25,682d556593cb38ad0a074487,,,,,,,,,,,257.3529,257.8495,,,258.0948,258.927,left,0.8288,,,,,,,,,0.4,,,,,,257.8495,258.0948,258.927,"[-0.15835654002329524,-0.08381035317081048]","[1,1,1]","[-0.07295152830693005,-0.17758938810095465]","[-1,-1,-1]","[0.01257793548317264,-0.11485739234477033]","[1,1,1]","[0.024096028598671354,-0.0010289385545011096]","[-1,-1,-1]","[0.057875994328371164,-0.057343237998605176]","[-1,-1,-1]","[-0.005889170786494775,0.1564659750983155]","[-1,-1,-1]","[0.16650339912723935,-0.05837138464173308]","[-1,-1,-1]","[0.0033387298055239825,-0.1716348505774608]","[-1,-1,-1]","[-0.0029516282696666328,-0.058715382928600915]","[1,1,1]","[0.1339530657260956,-0.0923438681266658]","[-1,-1,-1]","[-0.10463022951690376,0.022043076899992794]","[1,1,1]","[-0.04347697658271726,0.05875719719026599]","[1,1,1]","[0.025357574006061603,0.10990292858457121]","[-1,-1,-1]","[0.1042409314250345,0.10410042969057709]","[1,1,1]","[-0.12927896445536496,-0.00960892895445516]","[-1,-1,-1]","[-0.09526257601492916,-0.05802933692107331]","[1,1,1]","[-0.10884000547398429,0.07469794264234379]","[-1,-1,-1]","[0.07729774138679539,0.16388519799379078]","[-1,-1,-1]","[-0.14597742736811908,0.09682771541383925]","[1,1,1]","[-0.024334993521354882,-0.13735330161410844]","[-1,-1,-1]","[0.15034179950757964,0.046704845014709465]","[-1,-1,-1]","[0.1091656837285646,-0.14666530907636702]","[-1,-1,-1]","[0.12222590453490413,-0.026618959684497307]","[1,1,1]","[0.059825720043065744,-0.16934516308975053]","[1,1,1]","[-0.06159323368457516,-0.009117276549516119]","[1,1,1]","[0.09439175418150765,0.03972089843014215]","[1,1,1]","[0.019987748512110125,0.05375069265166199]","[-1,-1,-1]","[-0.07103382825285263,-0.12516831843143664]","[1,1,1]","[0.06903527338931077,-0.000636739840835456]","[-1,-1,-1]","[-0.1113867344189343,0.13761372870642835]","[-1,-1,-1]","[-0.14702635625142615,0.04280492012289474]","[-1,-1,-1]","[0.14416868384274986,0.09212664889888064]","[-1,-1,-1]","[0.02,0.02]",260.0238,0,44,44,40,1,,,,,,,
