right,left,explain.started,explain.stopped,key_resp_3.keys,key_resp_3.rt,key_resp_3.duration,participant,session,date,expName,psychopyVersion,OS,frameRate,study_id,explain_2.started,explain_2.stopped,key_resp_4.keys,key_resp_4.rt,key_resp_4.duration,explain_3.started,explain_3.stopped,key_resp_5.keys,key_resp_5.rt,key_resp_5.duration,fixation.started,fixation.stopped,practice.started,practice.stopped,response.started,response.stopped,key_resp.keys,key_resp.rt,key_resp.duration,feedback.started,feedback.stopped,trials_2.thisRepN,trials_2.thisTrialN,trials_2.thisN,trials_2.thisIndex,trials_2.ran,white_ratio,explain_4.started,explain_4.stopped,key_resp_6.keys,key_resp_6.rt,key_resp_6.duration,dotDisplay.started,dotDisplay.stopped,ITI.started,polygon_1.pos,polygon_1.color,polygon_2.pos,polygon_2.color,polygon_3.pos,polygon_3.color,polygon_4.pos,polygon_4.color,polygon_5.pos,polygon_5.color,polygon_6.pos,polygon_6.color,polygon_7.pos,polygon_7.color,polygon_8.pos,polygon_8.color,polygon_9.pos,polygon_9.color,polygon_10.pos,polygon_10.color,polygon_11.pos,polygon_11.color,polygon_12.pos,polygon_12.color,polygon_13.pos,polygon_13.color,polygon_14.pos,polygon_14.color,polygon_15.pos,polygon_15.color,polygon_16.pos,polygon_16.color,polygon_17.pos,polygon_17.color,polygon_18.pos,polygon_18.color,polygon_19.pos,polygon_19.color,polygon_20.pos,polygon_20.color,polygon_21.pos,polygon_21.color,polygon_22.pos,polygon_22.color,polygon_23.pos,polygon_23.color,polygon_24.pos,polygon_24.color,polygon_25.pos,polygon_25.color,polygon_26.pos,polygon_26.color,polygon_27.pos,polygon_27.color,polygon_28.pos,polygon_28.color,polygon_29.pos,polygon_29.color,polygon_30.pos,polygon_30.color,polygon_31.pos,polygon_31.color,polygon_32.pos,polygon_32.color,dot_size,ITI.stopped,trials.thisRepN,trials.thisTrialN,trials.thisN,trials.thisIndex,trials.ran,break_2.started,break_2.stopped,trials_3.thisRepN,trials_3.thisTrialN,trials_3.thisN,trials_3.thisIndex,trials_3.ran
subject chose black,subject chose white,0.0002,64.6259,space,49.6206,,67104c7deff954cb22438402,682f0372089cc434d5c0ceea,2025-05-22_07h02.01.463,cuing_paradigm_dot,2024.1.5,Win32,163.9344262,682d556593cb38ad0a074487,,,,,,,,,,,,,,,,,,,,,,,,,,,,,,,,,,,,,,,,,,,,,,,,,,,,,,,,,,,,,,,,,,,,,,,,,,,,,,,,,,,,,,,,,,,,,,,,,,,,,,,,,,,,,,,,,
,,,,,,,67104c7deff954cb22438402,682f0372089cc434d5c0ceea,2025-05-22_07h02.01.463,cuing_paradigm_dot,2024.1.5,Win32,163.9344262,682d556593cb38ad0a074487,64.6261,96.432,space,1.7991,,,,,,,,,,,,,,,,,,,,,,,,,,,,,,,,,,,,,,,,,,,,,,,,,,,,,,,,,,,,,,,,,,,,,,,,,,,,,,,,,,,,,,,,,,,,,,,,,,,,,,,,,,,,,
,,,,,,,67104c7deff954cb22438402,682f0372089cc434d5c0ceea,2025-05-22_07h02.01.463,cuing_paradigm_dot,2024.1.5,Win32,163.9344262,682d556593cb38ad0a074487,,,,,,96.432,100.7289,space,1.2895,,,,,,,,,,,,,,,,,,,,,,,,,,,,,,,,,,,,,,,,,,,,,,,,,,,,,,,,,,,,,,,,,,,,,,,,,,,,,,,,,,,,,,,,,,,,,,,,,,,,,,,,
,,,,,,,67104c7deff954cb22438402,682f0372089cc434d5c0ceea,2025-05-22_07h02.01.463,cuing_paradigm_dot,2024.1.5,Win32,163.9344262,682d556593cb38ad0a074487,,,,,,,,,,,100.7417,101.2318,101.2321,101.4805,101.4806,102.3471,right,0.8497,,102.3471,103.4439,0,0,0,1,1,0.2,,,,,,,,,,,,,,,,,,,,,,,,,,,,,,,,,,,,,,,,,,,,,,,,,,,,,,,,,,,,,,,,,,,,,,,,,,,,,,,,,,,,,,
,,,,,,,67104c7deff954cb22438402,682f0372089cc434d5c0ceea,2025-05-22_07h02.01.463,cuing_paradigm_dot,2024.1.5,Win32,163.9344262,682d556593cb38ad0a074487,,,,,,,,,,,103.4442,103.9409,103.9409,104.1895,104.1896,104.3773,left,0.1835,,104.3773,105.4743,0,1,1,0,1,0.8,,,,,,,,,,,,,,,,,,,,,,,,,,,,,,,,,,,,,,,,,,,,,,,,,,,,,,,,,,,,,,,,,,,,,,,,,,,,,,,,,,,,,,
,,,,,,,67104c7deff954cb22438402,682f0372089cc434d5c0ceea,2025-05-22_07h02.01.463,cuing_paradigm_dot,2024.1.5,Win32,163.9344262,682d556593cb38ad0a074487,,,,,,,,,,,,,,,,,,,,,,,,,,,,105.4745,110.3654,space,1.8803,,,,,,,,,,,,,,,,,,,,,,,,,,,,,,,,,,,,,,,,,,,,,,,,,,,,,,,,,,,,,,,,,,,,,,,,,,,,,,,,,,
,,,,,,,67104c7deff954cb22438402,682f0372089cc434d5c0ceea,2025-05-22_07h02.01.463,cuing_paradigm_dot,2024.1.5,Win32,163.9344262,682d556593cb38ad0a074487,,,,,,,,,,,110.3733,110.8682,,,111.1171,111.4683,left,0.3399,,,,,,,,,0.55,,,,,,110.8685,111.117,111.4686,"[0.06203277967475792,0.07440182697553513]","[-1,-1,-1]","[-0.1530610044325605,-0.0075631008487851425]","[-1,-1,-1]","[0.19773002872772852,-0.024947711966046778]","[1,1,1]","[0.11546016752306548,0.015561308761394312]","[1,1,1]","[0.1419975292547439,0.13291068530291275]","[-1,-1,-1]","[-0.06113022116942584,-0.1438292390115455]","[1,1,1]","[0.14743042122538078,-0.09312792491126212]","[-1,-1,-1]","[0.007669029283095352,-0.14855944724598086]","[-1,-1,-1]","[0.010274648414868836,-0.04566100478003163]","[1,1,1]","[0.11782797468640362,-0.02979511582537738]","[1,1,1]","[0.031973432377424546,-0.19376638328204998]","[1,1,1]","[-0.11909969534659647,0.03478929561486806]","[1,1,1]","[0.08084047845193308,0.17047490654117195]","[1,1,1]","[-0.06778704172037404,-0.015240955955800113]","[1,1,1]","[0.052903872896832925,-0.04948890969670997]","[-1,-1,-1]","[0.11354814212960136,0.07743899106822841]","[1,1,1]","[0.06225794629659117,0.01991744885835757]","[-1,-1,-1]","[0.024000492424257985,0.11574866193048675]","[-1,-1,-1]","[-0.10177379837458857,-0.06863347397012375]","[-1,-1,-1]","[0.0972758368692893,-0.10739643153211821]","[1,1,1]","[-0.04299108768246121,0.1126634874674489]","[-1,-1,-1]","[-0.15681597640547187,0.12378658557424237]","[1,1,1]","[-0.08955254169846014,0.10590157432900907]","[-1,-1,-1]","[0.009324624672905386,0.018473390734999505]","[1,1,1]","[-0.08052959127358433,0.14679825390901374]","[-1,-1,-1]","[-0.17261003586646972,-0.04889751905455787]","[-1,-1,-1]","[0.19421561807982887,0.021196263865032886]","[1,1,1]","[-0.12501585539152135,0.1492271625997012]","[-1,-1,-1]","[0.16043887657963546,-0.05005792005418612]","[1,1,1]","[-0.19885217303484326,0.012646504100185571]","[1,1,1]","[0.06995237786295723,0.1238494551916012]","[1,1,1]","[0.18273496179527993,0.07327523561758316]","[1,1,1]","[0.02,0.02]",112.5653,0,0,0,120,1,,,,,,,
,,,,,,,67104c7deff954cb22438402,682f0372089cc434d5c0ceea,2025-05-22_07h02.01.463,cuing_paradigm_dot,2024.1.5,Win32,163.9344262,682d556593cb38ad0a074487,,,,,,,,,,,112.5656,113.0622,,,113.3108,113.3227,left,0.0014,,,,,,,,,0.1,,,,,,113.0623,113.3107,113.3228,"[0.001851497307239896,-0.009204357004381885]","[-1,-1,-1]","[-0.010249248924633095,0.04032214703361241]","[-1,-1,-1]","[-0.04170251764420814,-0.15048408540215014]","[-1,-1,-1]","[-0.10845636159235335,-0.15465470619064836]","[1,1,1]","[0.06694774381855563,0.12382322725464968]","[-1,-1,-1]","[-0.03462461194482224,0.15604620821585063]","[-1,-1,-1]","[-0.08711637017450817,-0.09342439498740274]","[-1,-1,-1]","[0.030911557951872358,-0.05780962660059754]","[-1,-1,-1]","[0.18102599103422648,0.02053617614462433]","[-1,-1,-1]","[0.06596871446234587,-0.1206109266791759]","[-1,-1,-1]","[-0.18269290231799518,-0.06151226701154794]","[-1,-1,-1]","[-0.03121742953563219,-0.05624848104944496]","[-1,-1,-1]","[0.12265627008212365,-0.15432470535959583]","[-1,-1,-1]","[0.14325649763871443,0.13496225447955262]","[-1,-1,-1]","[0.08416791659525971,-0.17018376842597974]","[1,1,1]","[0.15090059745895934,-0.08719098633682697]","[-1,-1,-1]","[0.08604198982516104,0.08586701949471877]","[-1,-1,-1]","[0.1749341384934074,-0.023601706432700337]","[-1,-1,-1]","[-0.12385297269724047,0.06388056017647346]","[-1,-1,-1]","[0.008086804783614883,-0.09638590724582397]","[-1,-1,-1]","[-0.07264929884163514,0.05263633891652272]","[-1,-1,-1]","[-0.11462738815308922,0.11457379060949582]","[-1,-1,-1]","[-0.10846501542464285,-0.0486840960316534]","[-1,-1,-1]","[0.031106033024320134,0.056613025224240686]","[-1,-1,-1]","[-0.08569616882031775,0.17425011694228237]","[-1,-1,-1]","[-0.15691744508060135,0.03958001084504191]","[-1,-1,-1]","[0.11416081055940375,-0.061305704782181426]","[-1,-1,-1]","[-0.046933081389076745,0.0077206937381275684]","[-1,-1,-1]","[0.043063931849478515,0.15712144932551353]","[-1,-1,-1]","[0.09724915528802967,0.010822118068989252]","[-1,-1,-1]","[0.1644443370652761,0.05768250572009362]","[1,1,1]","[-0.12930741033118484,-0.08322695439966325]","[-1,-1,-1]","[0.02,0.02]",114.4198,0,1,1,29,1,,,,,,,
,,,,,,,67104c7deff954cb22438402,682f0372089cc434d5c0ceea,2025-05-22_07h02.01.463,cuing_paradigm_dot,2024.1.5,Win32,163.9344262,682d556593cb38ad0a074487,,,,,,,,,,,114.4201,114.9168,,,115.1654,115.2804,right,0.1068,,,,,,,,,0.1,,,,,,114.9168,115.1653,115.2804,"[0.1492290478258329,-0.12001728269125611]","[1,1,1]","[0.1082902765516277,0.09985597884394114]","[-1,-1,-1]","[-0.10465072275221748,-0.10197713127222377]","[-1,-1,-1]","[0.04553012087356822,0.13317583534127195]","[-1,-1,-1]","[-0.016843137450089914,-0.06372622060873187]","[-1,-1,-1]","[0.04343473043641103,-0.03846126091705533]","[1,1,1]","[0.013184122867927249,-0.108751181356442]","[-1,-1,-1]","[-0.13343922842542785,0.013494829640368817]","[-1,-1,-1]","[-0.0167119962523115,-0.18653273478686969]","[-1,-1,-1]","[0.17966361278942256,0.05621153975403752]","[-1,-1,-1]","[0.033394216512269106,-0.1581979411371922]","[-1,-1,-1]","[0.09842967338067835,0.16348295982781655]","[-1,-1,-1]","[0.012058419793250404,0.06412644773308578]","[-1,-1,-1]","[0.09377032749433348,-0.02456153340724958]","[-1,-1,-1]","[-0.0243812894845533,0.03952577560993238]","[-1,-1,-1]","[0.07226211024676776,0.058567285925492]","[-1,-1,-1]","[0.17978204376520665,-0.004921522016307492]","[-1,-1,-1]","[-0.12295153550654085,0.09965333800674979]","[-1,-1,-1]","[-0.08253476821128326,-0.014736091623255817]","[-1,-1,-1]","[-0.04435170846998184,-0.001900320130641459]","[1,1,1]","[-0.17731465828232337,-0.012061658357606642]","[-1,-1,-1]","[-0.03892049794338558,-0.11103886558297227]","[-1,-1,-1]","[-0.07664627343171114,-0.13151300213355954]","[-1,-1,-1]","[0.08831472154370087,-0.115463127153835]","[-1,-1,-1]","[-0.03945647394498866,0.1785829940289857]","[-1,-1,-1]","[0.024689812014090977,0.19546041077622803]","[-1,-1,-1]","[0.017963033358532998,0.0014652471308576067]","[-1,-1,-1]","[0.13083816139482204,0.0650084773975484]","[-1,-1,-1]","[-0.09411720565416108,0.03540530429265814]","[-1,-1,-1]","[-0.15052530361510785,-0.0858951763820208]","[-1,-1,-1]","[-0.0663117996989998,0.09747062238196219]","[-1,-1,-1]","[0.1721273743000174,0.1013358464053001]","[-1,-1,-1]","[0.02,0.02]",116.3774,0,2,2,9,1,,,,,,,
,,,,,,,67104c7deff954cb22438402,682f0372089cc434d5c0ceea,2025-05-22_07h02.01.463,cuing_paradigm_dot,2024.1.5,Win32,163.9344262,682d556593cb38ad0a074487,,,,,,,,,,,116.3778,116.8743,,,117.123,117.3896,right,0.2551,,,,,,,,,0.5,,,,,,116.8743,117.1229,117.3897,"[0.10600099017282438,-0.14787389266543163]","[1,1,1]","[-0.12882093525175553,-0.11919529492830036]","[1,1,1]","[-0.08679841829409567,0.0901018282731607]","[-1,-1,-1]","[-0.1156247007812955,0.03179501493435559]","[1,1,1]","[0.03689646644912564,-0.14834593684227487]","[-1,-1,-1]","[0.08948383078845323,0.14758094807503183]","[-1,-1,-1]","[0.05142832831200699,-0.017797092884795383]","[1,1,1]","[-0.07017848778577296,0.036117381702425275]","[1,1,1]","[0.018694833597899183,0.024433736238030287]","[-1,-1,-1]","[0.06105345989522236,0.05423351554083285]","[1,1,1]","[-0.02898297650249373,-0.021631880960416187]","[1,1,1]","[0.14072632553302733,0.02042072499043546]","[1,1,1]","[0.12307110990413052,-0.03845794948156588]","[1,1,1]","[-0.031717990675488514,0.07673164516123734]","[1,1,1]","[0.13106988892766636,0.12114639868033297]","[-1,-1,-1]","[0.024114772604410823,0.19513942624389674]","[1,1,1]","[-0.06502809877424567,-0.1757152007375481]","[-1,-1,-1]","[-0.08345977206831227,-0.018615962068023177]","[-1,-1,-1]","[0.0619528689427712,-0.0802173082417387]","[-1,-1,-1]","[0.10542182887867312,-0.07596484204739364]","[-1,-1,-1]","[-0.14259199218799964,0.09947606103440572]","[1,1,1]","[-0.013570451995800264,0.11469439477201121]","[-1,-1,-1]","[-0.122351882329651,0.1421439628232523]","[-1,-1,-1]","[-0.0540677871286551,0.18792557133268314]","[1,1,1]","[-0.1805595326235456,0.02136374867343525]","[1,1,1]","[0.15219360066247994,0.06327350998972012]","[-1,-1,-1]","[0.014447185646059747,-0.06829293543325697]","[1,1,1]","[0.18272218924174308,-0.0607921572743195]","[-1,-1,-1]","[0.06850528878857695,0.18566507903958274]","[-1,-1,-1]","[-0.1718889208225139,-0.03390321865463147]","[-1,-1,-1]","[-0.07609415092497981,-0.1129111942922267]","[1,1,1]","[0.1908162226790319,0.04956864759343825]","[-1,-1,-1]","[0.02,0.02]",118.4865,0,3,3,103,1,,,,,,,
,,,,,,,67104c7deff954cb22438402,682f0372089cc434d5c0ceea,2025-05-22_07h02.01.463,cuing_paradigm_dot,2024.1.5,Win32,163.9344262,682d556593cb38ad0a074487,,,,,,,,,,,118.4867,118.9834,,,119.2322,119.4805,left,0.2406,,,,,,,,,0.4,,,,,,118.9834,119.2322,119.4805,"[-0.0897065803589848,-0.09138013065841032]","[-1,-1,-1]","[0.1859199851467586,0.01961748200622246]","[1,1,1]","[-0.0014727312026626966,-0.03032655119783844]","[-1,-1,-1]","[0.07136026750703933,-0.16816940276499656]","[-1,-1,-1]","[0.07749624095170163,0.18409278409403268]","[1,1,1]","[0.018807401374037233,0.1338382652287407]","[1,1,1]","[-0.15676340398518473,0.012413584347958709]","[-1,-1,-1]","[0.09761808071344534,-0.08283647829910294]","[1,1,1]","[-0.03674856974187566,0.013735390671371927]","[1,1,1]","[-0.17772290574271746,-0.02317446257198925]","[-1,-1,-1]","[0.04871849467064234,-0.07878018728867087]","[1,1,1]","[-0.02471965876347411,0.09015531043739246]","[1,1,1]","[0.16010963800392222,0.0510414334965995]","[-1,-1,-1]","[0.13843928174833817,0.010086946516102013]","[-1,-1,-1]","[-0.07554149076204238,0.027365800825252983]","[-1,-1,-1]","[-0.13415802475287908,-0.1435815534912461]","[1,1,1]","[-0.04729224055977884,-0.0319393770201692]","[-1,-1,-1]","[-0.16420390937629087,0.10565039984565117]","[-1,-1,-1]","[0.10157701137803674,0.0961921406609689]","[-1,-1,-1]","[-0.1237764997372711,-0.024120277470186333]","[1,1,1]","[-0.12894518352541137,0.04184078853840077]","[-1,-1,-1]","[0.17283777652672636,-0.032871502396489]","[-1,-1,-1]","[-0.08649824922115436,0.13061686078620557]","[-1,-1,-1]","[0.093477753574224,0.037229526437583794]","[1,1,1]","[0.010620912439116283,0.18615928565529138]","[-1,-1,-1]","[0.004506386902675679,-0.10650804185826261]","[-1,-1,-1]","[0.015861767224600743,-0.1594872481975084]","[-1,-1,-1]","[0.055657966077825125,0.0974882547986023]","[-1,-1,-1]","[-0.035095226320912505,-0.19454989732401845]","[1,1,1]","[-0.04322892932033906,0.13805531941683627]","[1,1,1]","[0.12904234247350252,-0.1527811823436652]","[1,1,1]","[-0.05179824107772156,-0.15772503916509326]","[-1,-1,-1]","[0.02,0.02]",120.5774,0,4,4,49,1,,,,,,,
,,,,,,,67104c7deff954cb22438402,682f0372089cc434d5c0ceea,2025-05-22_07h02.01.463,cuing_paradigm_dot,2024.1.5,Win32,163.9344262,682d556593cb38ad0a074487,,,,,,,,,,,120.5777,121.0743,,,121.323,121.5472,right,0.2132,,,,,,,,,0.55,,,,,,121.0743,121.323,121.5473,"[0.09852460272691488,-0.052899312016719935]","[1,1,1]","[0.03157081133847675,-0.052332550664219664]","[-1,-1,-1]","[-0.1656304437304494,0.021288309818529038]","[1,1,1]","[-0.1267178446680904,0.11478180647893681]","[-1,-1,-1]","[-0.04142618853971631,0.052947450774504114]","[-1,-1,-1]","[-0.14458645104100099,-0.02174467655807512]","[1,1,1]","[-0.07943138577458997,-0.1570191674073761]","[1,1,1]","[0.10882497188475004,0.12049341365256581]","[1,1,1]","[-0.09228901293512277,-0.07218613110792386]","[-1,-1,-1]","[0.18574000607866803,-0.053639027004315054]","[1,1,1]","[-0.03950796510839631,-0.09420660680055017]","[1,1,1]","[0.014347856822575509,0.11306003545674853]","[1,1,1]","[0.044583200811501904,-0.007977835226030416]","[-1,-1,-1]","[-0.04787316320656236,-0.023125466922923006]","[-1,-1,-1]","[0.03365513173679209,0.1885845097056365]","[-1,-1,-1]","[0.029950618396282488,-0.12907983886858376]","[-1,-1,-1]","[-0.08344758617684106,0.09614056075065232]","[-1,-1,-1]","[0.1192966985216288,0.0018362118606876537]","[1,1,1]","[-0.011470403999616456,0.012988285862739854]","[1,1,1]","[0.18209160019255202,0.03807265472198953]","[1,1,1]","[0.1520950726476145,0.1146182258260376]","[-1,-1,-1]","[-0.09085514875897802,-0.020888612118729687]","[-1,-1,-1]","[0.05510307593451711,0.10881251095199536]","[1,1,1]","[-0.016771188985545502,0.1905300293679157]","[1,1,1]","[0.04370234493030096,0.14819789509805406]","[1,1,1]","[-0.034695961925576335,-0.19694356465638663]","[1,1,1]","[-0.05431248060887265,0.17023527508312628]","[1,1,1]","[-0.005330950067809074,-0.15114131432441813]","[-1,-1,-1]","[0.08564483692262473,-0.14587968024317255]","[1,1,1]","[0.023837305624788013,0.036062211830674144]","[-1,-1,-1]","[-0.14076998725757414,-0.06748438513399198]","[1,1,1]","[0.003231266172344448,0.07124661748774398]","[-1,-1,-1]","[0.02,0.02]",122.6441,0,5,5,129,1,,,,,,,
,,,,,,,67104c7deff954cb22438402,682f0372089cc434d5c0ceea,2025-05-22_07h02.01.463,cuing_paradigm_dot,2024.1.5,Win32,163.9344262,682d556593cb38ad0a074487,,,,,,,,,,,122.6443,123.1411,,,123.3896,123.4744,left,0.0744,,,,,,,,,0.5,,,,,,123.1411,123.3896,123.4744,"[0.15986749176086357,-0.02716762313475305]","[-1,-1,-1]","[-0.1164528478670238,-0.006713631303386862]","[-1,-1,-1]","[0.07532953395161181,-0.09167918466753104]","[-1,-1,-1]","[0.004356612755002912,-0.03918761408742338]","[1,1,1]","[0.14967203498860301,0.015893173304097986]","[1,1,1]","[0.07945114532689884,-0.15178717624319105]","[1,1,1]","[0.08145444764560575,0.11029228270063453]","[1,1,1]","[0.017460620558065312,-0.07836781437678271]","[-1,-1,-1]","[0.05274119705234862,0.018344700448743086]","[-1,-1,-1]","[-0.06343168196410257,0.06777396974527879]","[1,1,1]","[-0.17187022140463995,-0.05085430457510755]","[-1,-1,-1]","[-0.13848324151514532,-0.13796080211704917]","[-1,-1,-1]","[-0.1268863435099242,0.042961435543156914]","[-1,-1,-1]","[0.04996418482374904,0.15457615535403285]","[1,1,1]","[-0.07016781392138287,0.023643231308969594]","[-1,-1,-1]","[0.14103603504789491,0.12109542915696407]","[-1,-1,-1]","[-0.16827342024241884,0.041963400598991694]","[-1,-1,-1]","[-0.054309801604724345,0.14826509990728093]","[1,1,1]","[0.1747113294299766,0.0704463527231798]","[-1,-1,-1]","[0.13507986660116053,-0.10433452028223457]","[1,1,1]","[0.04677768799793102,-0.18060607641837143]","[1,1,1]","[0.014621493224433998,0.07535588025324749]","[1,1,1]","[-0.09926238788904754,0.16098526328745003]","[1,1,1]","[-0.08456016669404218,-0.0681260099545937]","[-1,-1,-1]","[-0.05220486293383574,-0.11814009932203508]","[1,1,1]","[0.06563253913860496,-0.032317331980137066]","[-1,-1,-1]","[-0.008826870462386678,0.11708866508060677]","[1,1,1]","[0.0979978811913835,0.032885710102841435]","[1,1,1]","[-0.000564738623752198,-0.16547574893326952]","[1,1,1]","[-0.03242365284087063,-0.19051308718548862]","[-1,-1,-1]","[-0.03984152197131757,-0.06722798374210792]","[-1,-1,-1]","[-0.09416267722655298,-0.1096316313586405]","[1,1,1]","[0.02,0.02]",124.5713,0,6,6,91,1,,,,,,,
,,,,,,,67104c7deff954cb22438402,682f0372089cc434d5c0ceea,2025-05-22_07h02.01.463,cuing_paradigm_dot,2024.1.5,Win32,163.9344262,682d556593cb38ad0a074487,,,,,,,,,,,124.5715,125.0683,,,125.3169,125.4323,right,0.1077,,,,,,,,,0.55,,,,,,125.0684,125.3169,125.4323,"[-0.034399483676420935,-0.18643417788732558]","[-1,-1,-1]","[0.09192354560030333,0.1234479740037147]","[1,1,1]","[-0.17235619511841455,-0.058725221831109134]","[-1,-1,-1]","[0.05340993004254116,0.07675543712042561]","[1,1,1]","[-0.12198325673972253,0.05531241932715878]","[-1,-1,-1]","[-0.031765489098607436,0.13864536545562997]","[1,1,1]","[-0.06340484302834307,-0.024914329227362086]","[-1,-1,-1]","[0.009274885245602897,0.1485588089967152]","[-1,-1,-1]","[-0.02701965592921228,0.04515466872034585]","[-1,-1,-1]","[-0.17268542730894873,0.06489434148175172]","[1,1,1]","[0.1541330365235955,0.047449358531046135]","[1,1,1]","[0.10647904023338671,0.0789762218181226]","[-1,-1,-1]","[-0.10548057030245232,0.14031651485828595]","[1,1,1]","[0.03500388983030968,-0.08474273909254337]","[-1,-1,-1]","[0.059997007678419326,0.15156227812873724]","[1,1,1]","[0.05719829231447029,-0.007348817203933447]","[1,1,1]","[0.13501280602875082,-0.028435499141718005]","[-1,-1,-1]","[-0.14566304107271974,-0.10240880755032997]","[1,1,1]","[0.08221990560263796,-0.039721029858278606]","[1,1,1]","[0.014323461531198739,-0.15471871184431393]","[1,1,1]","[-0.07642720015434697,0.10732695576741964]","[1,1,1]","[-0.12239301019438281,-0.0693494267316489]","[-1,-1,-1]","[0.15744848061592623,-0.09446917009301158]","[1,1,1]","[0.17578284717294695,0.00856899512557382]","[-1,-1,-1]","[-0.054651107402196836,-0.14663819785674326]","[1,1,1]","[-0.02199998408639992,-0.04815686458246226]","[-1,-1,-1]","[0.11604853327945766,-0.10386711087712326]","[1,1,1]","[-0.15875954942577852,0.005662185935122444]","[-1,-1,-1]","[-0.01407864548930679,-0.11750788807108227]","[1,1,1]","[-0.10590013570227554,-0.11774687439565122]","[1,1,1]","[0.09300009168189267,-0.14259485403231914]","[-1,-1,-1]","[0.050799466158332744,-0.12305702858507186]","[1,1,1]","[0.02,0.02]",126.5289,0,7,7,124,1,,,,,,,
,,,,,,,67104c7deff954cb22438402,682f0372089cc434d5c0ceea,2025-05-22_07h02.01.463,cuing_paradigm_dot,2024.1.5,Win32,163.9344262,682d556593cb38ad0a074487,,,,,,,,,,,126.5291,127.0259,,,127.2745,127.4987,right,0.214,,,,,,,,,0.4,,,,,,127.026,127.2745,127.4987,"[-0.001271156317707525,-0.033021324833963084]","[-1,-1,-1]","[-0.0329644902865823,0.13117821288350107]","[1,1,1]","[0.15566004975605394,0.013181717765073613]","[1,1,1]","[0.03288996373504772,-0.16207813127065593]","[1,1,1]","[-0.12085224917974896,-0.044615908982826705]","[1,1,1]","[0.13976747223137898,0.10097303115709272]","[1,1,1]","[-0.010237519801951334,-0.1335050277585399]","[1,1,1]","[0.0840952378940611,-0.030382944814125273]","[-1,-1,-1]","[0.08074004381793741,0.15364837148855362]","[1,1,1]","[0.12425887947883592,-0.15106087424502462]","[-1,-1,-1]","[-0.06629401557647764,0.001909433271413517]","[-1,-1,-1]","[-0.11510608309843791,0.15102351628808547]","[-1,-1,-1]","[-0.16731765814554353,0.10728563697908283]","[1,1,1]","[0.027322132674280283,0.014872582361697409]","[1,1,1]","[0.1672849823165145,-0.030241041620334357]","[-1,-1,-1]","[0.038964032666304035,0.17028873897061977]","[-1,-1,-1]","[-0.08910109575234613,-0.1384462146225208]","[1,1,1]","[-0.06967451154364242,-0.07642440690836835]","[-1,-1,-1]","[0.09968920150058419,-0.10339257412293243]","[1,1,1]","[-0.12193279089971777,0.05269913043424836]","[-1,-1,-1]","[0.05226760596529771,-0.0850331679626942]","[-1,-1,-1]","[-0.1490271040053164,0.014097132668649027]","[-1,-1,-1]","[-0.07548779117371213,0.04091322734791688]","[-1,-1,-1]","[-0.017281137800132424,0.026337097697029854]","[-1,-1,-1]","[0.11414717050652701,0.05654224148026161]","[1,1,1]","[-0.12114409199604158,-0.10916646746626804]","[-1,-1,-1]","[0.19461426667032763,0.028946648617842005]","[-1,-1,-1]","[0.14594802251262334,-0.09782876029641022]","[-1,-1,-1]","[-0.032669653341854864,-0.19024742282415794]","[-1,-1,-1]","[-0.07386571455596533,0.13099220840995218]","[-1,-1,-1]","[0.08646215597365749,0.11114882169754958]","[-1,-1,-1]","[-0.15335398759287325,-0.08454517724640724]","[1,1,1]","[0.02,0.02]",128.5956,0,8,8,50,1,,,,,,,
,,,,,,,67104c7deff954cb22438402,682f0372089cc434d5c0ceea,2025-05-22_07h02.01.463,cuing_paradigm_dot,2024.1.5,Win32,163.9344262,682d556593cb38ad0a074487,,,,,,,,,,,128.5958,129.0926,,,129.3413,129.5048,left,0.1551,,,,,,,,,0.5,,,,,,129.0927,129.3412,129.5048,"[0.007072886687068173,-0.13467534782101095]","[-1,-1,-1]","[-0.0004496247081972898,-0.03434240689233938]","[1,1,1]","[-0.15594334657504896,0.008625115367387927]","[1,1,1]","[0.16770081250180122,0.01743427906161349]","[1,1,1]","[0.17188517294468597,-0.09600992415034051]","[-1,-1,-1]","[-0.01672921582269761,0.15629447697600585]","[1,1,1]","[0.11924988666145138,-0.10605702465434771]","[1,1,1]","[-0.047799566550384136,0.11128185989818266]","[-1,-1,-1]","[0.025964803936890456,-0.07151015996128711]","[-1,-1,-1]","[-0.10887433986242914,-0.14016506770215498]","[1,1,1]","[-0.12481042231180584,0.06711559317832168]","[-1,-1,-1]","[-0.07762980536206279,-0.021703744392731237]","[-1,-1,-1]","[0.10983925333679274,0.011548400527701131]","[-1,-1,-1]","[0.018359273275617448,0.025776685683586445]","[-1,-1,-1]","[-0.04857407823596234,-0.11016771684203966]","[-1,-1,-1]","[0.07612631094683917,0.1300125415785227]","[-1,-1,-1]","[0.12348572107952513,0.10180866721555937]","[-1,-1,-1]","[-0.1284031282445062,0.11376476065514356]","[1,1,1]","[0.08928924458074101,0.050900410022171924]","[-1,-1,-1]","[-0.017379813325091534,0.06733039291431253]","[1,1,1]","[-0.1162983028734404,0.0030036320332294665]","[-1,-1,-1]","[0.17299132954968305,0.07847417207471477]","[1,1,1]","[-0.1856285368619274,-0.0469329919896243]","[-1,-1,-1]","[-0.07317270905234478,0.15445390923949723]","[-1,-1,-1]","[-0.09621892571580445,-0.06828883834272409]","[1,1,1]","[0.04587429543137755,0.09391836196024438]","[1,1,1]","[0.020110048115850074,0.13693829498469665]","[1,1,1]","[0.034303537622584306,-0.16819057940360133]","[1,1,1]","[-0.1342362911524081,-0.0976760069719037]","[1,1,1]","[-0.037038423284683535,0.19250455896630614]","[-1,-1,-1]","[-0.1722623267615542,0.0745820506105787]","[1,1,1]","[-0.026041446476880756,-0.17381719048055125]","[1,1,1]","[0.02,0.02]",130.6017,0,9,9,117,1,,,,,,,
,,,,,,,67104c7deff954cb22438402,682f0372089cc434d5c0ceea,2025-05-22_07h02.01.463,cuing_paradigm_dot,2024.1.5,Win32,163.9344262,682d556593cb38ad0a074487,,,,,,,,,,,130.6019,131.0986,,,131.3473,131.4441,right,0.0854,,,,,,,,,0.55,,,,,,131.0987,131.3473,131.4441,"[0.08059870546607342,-0.16963675744840542]","[1,1,1]","[-0.007195653715602976,-0.18881326850978603]","[-1,-1,-1]","[-0.07586298759445718,-0.1817727306286079]","[-1,-1,-1]","[-0.10116766343035902,-0.06587421707350848]","[-1,-1,-1]","[-0.1336413617686901,-0.00023317123725702572]","[1,1,1]","[0.09771203394187365,0.12111087497646694]","[-1,-1,-1]","[0.07866536702890464,0.040483349073536797]","[-1,-1,-1]","[0.07557204642646677,-0.05011718533111348]","[1,1,1]","[0.12850375452977908,0.003962827740749132]","[1,1,1]","[0.0737661664507708,-0.002797369347405883]","[-1,-1,-1]","[0.06116654799512302,0.17799443587628808]","[1,1,1]","[-0.19526424753302726,0.003677049684203017]","[-1,-1,-1]","[-0.016699792776439664,-0.01198222535092487]","[1,1,1]","[0.027940488016271903,0.0585811329413017]","[1,1,1]","[-0.08168529091882203,0.04133971253776449]","[-1,-1,-1]","[-0.16517126846758437,-0.08616507347168023]","[1,1,1]","[0.15864657183783096,-0.02534005123852818]","[-1,-1,-1]","[0.17241801131562814,0.0779385109270463]","[-1,-1,-1]","[0.16921984134000928,0.02617360301422958]","[1,1,1]","[0.03197175843682528,-0.0964681763373764]","[1,1,1]","[-0.08444511530726043,0.14797876796352782]","[1,1,1]","[-0.03576086248978105,0.07820402277694205]","[-1,-1,-1]","[0.040192547288276356,-0.14478129710697732]","[1,1,1]","[0.0018686984075477627,0.0969655791116922]","[1,1,1]","[-0.04788308890322042,-0.09106617575673845]","[1,1,1]","[0.11766467181358703,-0.04106606542945059]","[1,1,1]","[-0.1645606906776623,0.08872400470575192]","[1,1,1]","[-0.12756925491980947,-0.12099692423702517]","[-1,-1,-1]","[-0.18889303308887678,0.05695819888811124]","[1,1,1]","[0.1251961973582797,-0.10963260991968457]","[-1,-1,-1]","[-0.036172866885712786,0.11922313073626203]","[-1,-1,-1]","[0.001509372880508206,-0.12270400871583773]","[1,1,1]","[0.02,0.02]",132.5411,0,10,10,143,1,,,,,,,
,,,,,,,67104c7deff954cb22438402,682f0372089cc434d5c0ceea,2025-05-22_07h02.01.463,cuing_paradigm_dot,2024.1.5,Win32,163.9344262,682d556593cb38ad0a074487,,,,,,,,,,,132.5413,133.0381,,,133.2866,133.4018,right,0.1058,,,,,,,,,0.5,,,,,,133.0381,133.2866,133.4018,"[-0.1842629010460024,0.012225149686886653]","[-1,-1,-1]","[-0.05893986950611218,0.0011725574823186035]","[1,1,1]","[-0.008714220813142125,-0.0012489574712134953]","[1,1,1]","[-0.11898365133084202,-0.11874926091185896]","[1,1,1]","[0.034345628687380184,-0.06546265710026557]","[-1,-1,-1]","[0.13559167624774068,-0.05133524365222311]","[1,1,1]","[0.03961198647024889,-0.13634122082248376]","[1,1,1]","[-0.007079352777517975,-0.11655735942603469]","[-1,-1,-1]","[0.08193523014053565,0.07827698208093392]","[-1,-1,-1]","[-0.0580992717062264,-0.19090066862498636]","[-1,-1,-1]","[0.04557217875234773,0.061277407100526864]","[-1,-1,-1]","[-0.007783677977494885,0.19091283835699746]","[-1,-1,-1]","[0.08111352062398973,-0.12330636457699459]","[1,1,1]","[-0.052950660003730284,-0.13828266597591324]","[1,1,1]","[0.031474191626632037,0.016221838248487667]","[1,1,1]","[0.10719114465554096,0.007959547495388788]","[1,1,1]","[0.047483008736026726,0.15617569357705655]","[1,1,1]","[-0.03930528280890404,0.12990633890321665]","[1,1,1]","[0.1346432289680281,-0.09386756751881165]","[1,1,1]","[0.18406666674508132,0.0018555825205668385]","[1,1,1]","[0.13803089612572672,0.1395258421779516]","[-1,-1,-1]","[-0.11294846409962488,0.06645000471768105]","[1,1,1]","[-0.033217916339109026,-0.04568701756330357]","[-1,-1,-1]","[-0.12749899730241127,0.13280247203160422]","[-1,-1,-1]","[0.0598854797656712,-0.027471581903260406]","[-1,-1,-1]","[-0.10259198471196121,-0.16608485609697327]","[-1,-1,-1]","[0.06049285243065382,-0.17779107949070622]","[-1,-1,-1]","[0.0792323220236219,0.12588947118727284]","[1,1,1]","[-0.03545631305122038,-0.08781916841903799]","[-1,-1,-1]","[0.1780989822407289,-0.041484285969005046]","[-1,-1,-1]","[-0.18823031067720206,-0.04047329931807127]","[-1,-1,-1]","[0.006101357816220437,0.116879662460277]","[1,1,1]","[0.02,0.02]",134.4987,0,11,11,115,1,,,,,,,
,,,,,,,67104c7deff954cb22438402,682f0372089cc434d5c0ceea,2025-05-22_07h02.01.463,cuing_paradigm_dot,2024.1.5,Win32,163.9344262,682d556593cb38ad0a074487,,,,,,,,,,,134.4989,134.9957,,,135.2444,135.4381,right,0.1816,,,,,,,,,0.4,,,,,,134.9957,135.2444,135.4381,"[0.15597612727810617,-0.06993496546442357]","[-1,-1,-1]","[0.05151083821206299,-0.056611917045604844]","[1,1,1]","[-0.12348932640980403,0.09637050578459835]","[1,1,1]","[-0.052889968385607444,0.01611289158470266]","[-1,-1,-1]","[-0.0518266770306885,-0.08616998381337054]","[1,1,1]","[0.15188688020184374,0.019936894562679202]","[-1,-1,-1]","[-0.049343471338783626,-0.030133919147586674]","[-1,-1,-1]","[-0.0032553889392131084,0.04208729825127415]","[-1,-1,-1]","[0.03781009242520003,0.17966165276598003]","[-1,-1,-1]","[-0.15603624820976889,-0.0031389605188320013]","[1,1,1]","[0.0006940745095973498,-0.039298605630627766]","[-1,-1,-1]","[0.07972924535003677,0.03662586778189159]","[-1,-1,-1]","[-0.04752030482064972,0.19015294762890878]","[-1,-1,-1]","[-0.14666344695309547,-0.08440127457218902]","[-1,-1,-1]","[-0.03228492693131352,-0.12403512857646118]","[1,1,1]","[-0.13284096303970813,-0.1490469431919609]","[1,1,1]","[0.09643358834123235,-0.13741415341013036]","[-1,-1,-1]","[-0.0895106201339162,-0.10864088170099476]","[-1,-1,-1]","[0.06591023306223269,0.12218132699657279]","[-1,-1,-1]","[-0.17051915764226155,0.04672778642071222]","[-1,-1,-1]","[-0.009219695040388635,0.111480523556623]","[1,1,1]","[-0.10434374041401906,0.00447314589439154]","[1,1,1]","[-0.09248306065288463,-0.1601839502537397]","[-1,-1,-1]","[0.1100121147123447,0.007995366836171938]","[-1,-1,-1]","[0.19017937101720303,-0.015294320852987878]","[1,1,1]","[0.11764593496076266,0.10291496018002848]","[1,1,1]","[0.0760840266381198,-0.02359208077194647]","[-1,-1,-1]","[0.02524289412131571,-0.17057265981442982]","[-1,-1,-1]","[0.04484618000809163,-0.10661154084097155]","[1,1,1]","[-0.11354090929815462,0.15258028830899575]","[1,1,1]","[0.1648437813798312,0.10091859071176063]","[1,1,1]","[-0.003967775636974506,0.17679192948155428]","[-1,-1,-1]","[0.02,0.02]",136.535,0,12,12,44,1,,,,,,,
,,,,,,,67104c7deff954cb22438402,682f0372089cc434d5c0ceea,2025-05-22_07h02.01.463,cuing_paradigm_dot,2024.1.5,Win32,163.9344262,682d556593cb38ad0a074487,,,,,,,,,,,136.5353,137.0321,,,137.2807,137.5412,right,0.2487,,,,,,,,,0.4,,,,,,137.0322,137.2806,137.5412,"[-0.040224751772680915,0.11872477255229376]","[-1,-1,-1]","[-0.15576255550685975,-0.0594331724297599]","[-1,-1,-1]","[-0.0720696611648616,-0.09842979918989767]","[1,1,1]","[-0.10787321378704459,0.07884982679213341]","[1,1,1]","[0.0718094621059718,-0.1154424768083241]","[-1,-1,-1]","[0.17840236882424307,-0.009348202100071788]","[-1,-1,-1]","[-0.09597317004326937,-0.013136296739017742]","[1,1,1]","[-0.1868271644134478,-0.015057971956013817]","[1,1,1]","[0.04254305745604704,0.13015716350919249]","[1,1,1]","[-0.027572759078409545,-0.12787545975666226]","[1,1,1]","[0.02308645445569453,-0.122964436750845]","[-1,-1,-1]","[0.048572189797265485,0.02269065551781067]","[-1,-1,-1]","[-0.0037488584178072214,0.006308355916507977]","[1,1,1]","[0.14551531906450726,-0.1290175728551681]","[-1,-1,-1]","[0.13123009554069667,-0.052094099955442064]","[-1,-1,-1]","[-0.06611086801829962,-0.1422517231466943]","[1,1,1]","[0.16008694811674645,0.11351037578014471]","[1,1,1]","[-0.04636687316643235,0.015388516282027365]","[-1,-1,-1]","[-0.04986624588457309,0.19293752303886116]","[1,1,1]","[0.051891569661928164,0.06267015086121638]","[-1,-1,-1]","[0.028054343937549693,-0.07682178079762596]","[-1,-1,-1]","[-0.003805144168306123,-0.04721441980669515]","[-1,-1,-1]","[0.09064050140632958,-0.16334477469756203]","[-1,-1,-1]","[0.0383183665897374,-0.030912681454975586]","[-1,-1,-1]","[0.09000117745431124,0.15601057915675864]","[-1,-1,-1]","[-0.011885236611495096,0.14913035118393844]","[1,1,1]","[0.14579097870398688,0.025992957802209022]","[-1,-1,-1]","[0.09882628801011435,-0.021106037073988053]","[1,1,1]","[-0.13733327665296946,-0.09811422688715876]","[1,1,1]","[0.019673447014004055,0.17389348830765283]","[-1,-1,-1]","[-0.10496202769906975,-0.15403560960495621]","[-1,-1,-1]","[-0.1055810526813123,0.03468197374978963]","[-1,-1,-1]","[0.02,0.02]",138.6382,0,13,13,57,1,,,,,,,
,,,,,,,67104c7deff954cb22438402,682f0372089cc434d5c0ceea,2025-05-22_07h02.01.463,cuing_paradigm_dot,2024.1.5,Win32,163.9344262,682d556593cb38ad0a074487,,,,,,,,,,,138.6383,139.1351,,,139.3839,139.4685,right,0.0731,,,,,,,,,0.1,,,,,,139.1351,139.3838,139.4686,"[-0.007925295507703751,0.1762390801087408]","[-1,-1,-1]","[-0.18274953163465868,-0.0552238468484379]","[-1,-1,-1]","[-0.08447437116337479,0.020951142236674908]","[1,1,1]","[-0.008091444470970993,0.007190151099989332]","[1,1,1]","[0.11663117783993103,0.10531420491231155]","[-1,-1,-1]","[-0.05676164815989392,-0.12159826199654246]","[-1,-1,-1]","[-0.08452473325049335,-0.18125300362180605]","[-1,-1,-1]","[-0.041013529672003744,0.04247217978338991]","[-1,-1,-1]","[0.05388737372662777,-0.18958339857526624]","[-1,-1,-1]","[0.10016338695195995,0.005412916947480011]","[-1,-1,-1]","[0.13816473118816927,-0.10170946872452098]","[-1,-1,-1]","[-0.13941627103752835,0.11853833424105975]","[1,1,1]","[-0.1426302746658382,0.04095966831569775]","[-1,-1,-1]","[-0.009882401376971791,-0.08005869987961767]","[-1,-1,-1]","[-0.09795740591716087,0.0617053211662694]","[-1,-1,-1]","[0.10553665915527059,0.1633768304843422]","[-1,-1,-1]","[-0.10669496230124972,-0.11088082275631155]","[-1,-1,-1]","[0.05746156524951288,0.1908679411670845]","[-1,-1,-1]","[0.12552536257221253,-0.04417300276041139]","[-1,-1,-1]","[0.1800809277414323,-0.03958027914409888]","[-1,-1,-1]","[0.08576378723536983,-0.10242794233367986]","[-1,-1,-1]","[0.06779087800907263,0.1272258779820051]","[-1,-1,-1]","[-0.18318768283924086,-0.004914073537223363]","[-1,-1,-1]","[-0.06768724759879893,0.16666392099215357]","[-1,-1,-1]","[0.022829128564686763,0.08520357670157087]","[-1,-1,-1]","[0.06450532860711113,-0.055441568564657394]","[-1,-1,-1]","[-0.1837305221289164,0.06729866188085766]","[-1,-1,-1]","[-0.12143366413179334,-0.008857741742977933]","[-1,-1,-1]","[0.01793428095632094,0.13935732501199338]","[-1,-1,-1]","[-0.12554785345919622,-0.049883845606287634]","[-1,-1,-1]","[-0.024504721523775894,0.13281212194598704]","[-1,-1,-1]","[0.15854614319307725,0.05914072675178939]","[-1,-1,-1]","[0.02,0.02]",140.5654,0,14,14,14,1,,,,,,,
,,,,,,,67104c7deff954cb22438402,682f0372089cc434d5c0ceea,2025-05-22_07h02.01.463,cuing_paradigm_dot,2024.1.5,Win32,163.9344262,682d556593cb38ad0a074487,,,,,,,,,,,140.5657,141.0623,,,141.311,141.5655,left,0.2421,,,,,,,,,0.5,,,,,,141.0624,141.311,141.5655,"[-0.10017997279344225,0.042884990143222466]","[1,1,1]","[-0.05435194697175818,-0.1282787338933798]","[1,1,1]","[-0.09823898961977696,-0.08874010080505784]","[-1,-1,-1]","[0.01437214685783347,-0.14994849288710788]","[1,1,1]","[-0.04103205383894723,-0.055783757736949435]","[-1,-1,-1]","[0.1810423360863707,0.02165606949940623]","[-1,-1,-1]","[0.060706337395093554,0.05749805922934402]","[-1,-1,-1]","[0.13186024233958848,-0.02660260678874636]","[-1,-1,-1]","[0.12379545727381124,0.137672458361037]","[1,1,1]","[0.12889321340052587,0.06618239572219287]","[-1,-1,-1]","[-0.17948885769992118,-0.07055537887008999]","[1,1,1]","[-0.1821892967153201,0.06946057854393868]","[1,1,1]","[0.0013546282528611282,-0.09473385873968782]","[1,1,1]","[0.045229668214565207,-0.04116055967403142]","[1,1,1]","[-0.139122263865115,-0.05784249812990441]","[1,1,1]","[-0.14240410784005628,0.018292721059799073]","[-1,-1,-1]","[0.1791461369084638,-0.051139916034603904]","[-1,-1,-1]","[0.04115089209649026,0.1201555333349882]","[-1,-1,-1]","[-0.0189858768533311,0.1225852914373366]","[-1,-1,-1]","[-0.04600438831915177,-0.17182587210943928]","[-1,-1,-1]","[0.018115611736192645,0.023242497492875082]","[1,1,1]","[-0.10330833257213062,-0.018009179621697805]","[-1,-1,-1]","[-0.15623151166045274,0.11164449604130512]","[1,1,1]","[-0.08691025784661462,0.1100977236732483]","[-1,-1,-1]","[-0.16363054048535217,-0.023850756421164406]","[1,1,1]","[0.10202272902384434,-0.1532256853432532]","[-1,-1,-1]","[-0.03142069424157413,-0.004458639873535629]","[1,1,1]","[0.08742597727879689,-0.05903222437182952]","[1,1,1]","[0.17321663508555438,0.06580314292855731]","[1,1,1]","[-0.11647394486381592,0.16151031824321296]","[1,1,1]","[-0.006198799740614597,0.08412871824854408]","[-1,-1,-1]","[0.08260315382758686,0.13397946507376826]","[-1,-1,-1]","[0.02,0.02]",142.6623,0,15,15,111,1,,,,,,,
,,,,,,,67104c7deff954cb22438402,682f0372089cc434d5c0ceea,2025-05-22_07h02.01.463,cuing_paradigm_dot,2024.1.5,Win32,163.9344262,682d556593cb38ad0a074487,,,,,,,,,,,142.6626,143.1594,,,143.408,143.4806,right,0.0651,,,,,,,,,0.5,,,,,,143.1594,143.408,143.4807,"[-0.17704795810668938,0.07744150187455301]","[1,1,1]","[0.12936863895481168,-0.01451731921160169]","[-1,-1,-1]","[0.0769295198569306,0.025113470050788952]","[-1,-1,-1]","[-0.06946429887416736,0.053790210276795855]","[1,1,1]","[0.0036957232741598803,-0.15162931580011516]","[-1,-1,-1]","[-0.1352107298193935,-0.08161920992308153]","[-1,-1,-1]","[0.1107719665334062,-0.05701109797176096]","[1,1,1]","[-0.13261929899152963,0.10934929134447219]","[1,1,1]","[0.047209595737327664,0.10364805926743478]","[-1,-1,-1]","[0.007426085479517506,0.09410932109900913]","[-1,-1,-1]","[-0.08263777163927322,0.10298276494188999]","[1,1,1]","[0.13671389321642255,0.024876941432353465]","[1,1,1]","[-0.0880800734471123,-0.17718846141332398]","[1,1,1]","[0.0210687789835883,-0.1961397621310759]","[-1,-1,-1]","[-0.08202044289852221,0.16057980589282175]","[1,1,1]","[-0.03646306485461276,0.14977866680448187]","[-1,-1,-1]","[-0.01961284546252343,-0.06083423839959584]","[-1,-1,-1]","[0.06256294849713777,-0.02367382347640933]","[1,1,1]","[0.10350711382804668,-0.14052984083818565]","[1,1,1]","[-0.0640286485284531,-0.01572277890339749]","[-1,-1,-1]","[-0.1393948568393683,-0.13736515102064564]","[-1,-1,-1]","[-0.07261063530149216,-0.08752173718531242]","[1,1,1]","[0.17304184414582613,0.0644788109888077]","[1,1,1]","[0.10151844637036528,0.09508631448781504]","[1,1,1]","[0.022153695466903767,0.007142125010381996]","[-1,-1,-1]","[0.17116255649056608,-0.04369372996051384]","[-1,-1,-1]","[0.10082903574117716,0.14874496940506635]","[1,1,1]","[0.05180705632860301,-0.14750607155211126]","[-1,-1,-1]","[0.04989605197886281,-0.07996186819711042]","[-1,-1,-1]","[-0.03270947549645392,0.10632711618584835]","[-1,-1,-1]","[-0.0844410293271035,-0.13203410878302585]","[1,1,1]","[0.0323527258770523,0.19490113024533626]","[1,1,1]","[0.02,0.02]",144.5775,0,16,16,108,1,,,,,,,
,,,,,,,67104c7deff954cb22438402,682f0372089cc434d5c0ceea,2025-05-22_07h02.01.463,cuing_paradigm_dot,2024.1.5,Win32,163.9344262,682d556593cb38ad0a074487,,,,,,,,,,,144.5777,145.0745,,,145.3231,145.523,left,0.1897,,,,,,,,,0.9,,,,,,145.0745,145.3231,145.523,"[0.09627099330834092,-0.17225476724402786]","[1,1,1]","[0.021464142407477987,0.04184723426165486]","[1,1,1]","[0.10973350482250825,0.13571807765420743]","[1,1,1]","[0.08341235008342714,0.07590008155642848]","[1,1,1]","[-0.15026612563602346,-0.04261505460427938]","[-1,-1,-1]","[0.13943761748744227,0.08436301088812202]","[1,1,1]","[0.04622593238598235,0.15284520264420967]","[1,1,1]","[-0.0008163145747780629,0.10005577660230809]","[1,1,1]","[0.016014861721988984,-0.0059912592795060985]","[1,1,1]","[-0.09783986551144977,-0.1568431612549657]","[1,1,1]","[0.11754118081867622,0.00424986309711569]","[1,1,1]","[-0.11062170397748967,-0.11017204723133249]","[1,1,1]","[0.024584972799744143,-0.17109257235767997]","[-1,-1,-1]","[-0.08477988569108656,-0.06155703369993513]","[1,1,1]","[-0.027866313691178507,-0.1780364585822113]","[1,1,1]","[-0.08718085265985251,0.04530264352782851]","[1,1,1]","[-0.10339814057272226,0.12952453285229595]","[1,1,1]","[0.15788020450942017,0.013515059343377685]","[-1,-1,-1]","[0.07444175860950729,-0.097335182750327]","[1,1,1]","[-0.08263526603462477,0.0919199362056186]","[1,1,1]","[0.08219359668660471,0.17405271991272112]","[1,1,1]","[0.0036022822928686547,0.1519142545895601]","[1,1,1]","[-0.026751733705932,0.002935702787922731]","[1,1,1]","[-0.15534760124322108,0.047511883899616594]","[1,1,1]","[-0.14920955707008018,-0.09374339920118513]","[1,1,1]","[-0.058812339762052225,-0.09483313334422235]","[1,1,1]","[-0.14874480682782873,0.12104558862184975]","[1,1,1]","[-0.16520132457812167,0.00739981644997607]","[1,1,1]","[-0.09382942510577315,0.00128503076345138]","[1,1,1]","[0.15428902637126046,-0.05394515048371066]","[1,1,1]","[0.06820997231372808,-0.0299740642690838]","[1,1,1]","[0.06742767241303196,0.010141891799578997]","[1,1,1]","[0.02,0.02]",146.62,0,17,17,200,1,,,,,,,
,,,,,,,67104c7deff954cb22438402,682f0372089cc434d5c0ceea,2025-05-22_07h02.01.463,cuing_paradigm_dot,2024.1.5,Win32,163.9344262,682d556593cb38ad0a074487,,,,,,,,,,,146.6202,147.117,,,147.3658,147.6503,left,0.2754,,,,,,,,,0.9,,,,,,147.117,147.3657,147.6503,"[0.08504506733057197,-0.07346566241632488]","[1,1,1]","[-0.07577136528948235,-0.10907770188644812]","[1,1,1]","[0.1522673313767577,-0.09175896976143841]","[1,1,1]","[-0.007048463249046347,0.18341318164353854]","[-1,-1,-1]","[0.13772118749741452,0.0001749741180967061]","[1,1,1]","[0.025968896566110386,0.1330809729167688]","[1,1,1]","[-0.043074262796504476,-0.018879296599126946]","[1,1,1]","[-0.04940277138863539,0.11701753554836601]","[1,1,1]","[-0.08786147947101743,0.02225447022032781]","[1,1,1]","[0.14136252424821752,0.0777034182795379]","[1,1,1]","[-0.008427384572126656,-0.1564065079792916]","[1,1,1]","[0.014135407816844357,-0.03137859673668362]","[-1,-1,-1]","[0.10008075277755156,0.1145407631162876]","[1,1,1]","[-0.09269354370236632,0.09270732827832827]","[1,1,1]","[-0.15548788879511036,0.008387522258714726]","[1,1,1]","[0.075530133473582,0.0060338854218201475]","[1,1,1]","[0.11940435750926043,-0.040715191366608686]","[1,1,1]","[0.029723186103533993,-0.1177856990303386]","[1,1,1]","[-0.05893670547930741,0.17259828603224395]","[1,1,1]","[-0.03924215010515767,-0.08659693698950473]","[1,1,1]","[0.028182162573139328,-0.19670783333234548]","[1,1,1]","[-0.15840940278793622,0.07607664172662501]","[1,1,1]","[0.09485176009391484,0.1747145110340992]","[-1,-1,-1]","[0.053411094152395706,0.16514278684883135]","[1,1,1]","[0.11507486384252637,-0.12550240781916042]","[1,1,1]","[-0.04406501710199944,0.03141645697839427]","[1,1,1]","[-0.0033891437575368105,0.07512519858375599]","[1,1,1]","[0.05003567390779846,0.09471157222445838]","[1,1,1]","[0.17716272659227966,-0.03215616905498004]","[1,1,1]","[-0.05396162402571451,-0.14510669672383472]","[1,1,1]","[0.09015151048944955,-0.1672935879763925]","[1,1,1]","[0.16752990194977177,0.029661420173545797]","[1,1,1]","[0.02,0.02]",148.7473,0,18,18,191,1,,,,,,,
,,,,,,,67104c7deff954cb22438402,682f0372089cc434d5c0ceea,2025-05-22_07h02.01.463,cuing_paradigm_dot,2024.1.5,Win32,163.9344262,682d556593cb38ad0a074487,,,,,,,,,,,148.7476,149.2443,,,149.4929,149.7049,right,0.204,,,,,,,,,0.45,,,,,,149.2443,149.4928,149.705,"[0.09378850975685867,-0.07107360335779454]","[1,1,1]","[-0.05696734651698976,0.06781332954249639]","[-1,-1,-1]","[0.002213059027380324,0.07701110787799703]","[-1,-1,-1]","[0.0721084872721019,0.011024554219899388]","[-1,-1,-1]","[-0.11246624934879941,0.0888044123378216]","[-1,-1,-1]","[0.06243375083310317,0.058582076262260085]","[1,1,1]","[-0.14755059414750715,-0.047651784649694655]","[1,1,1]","[-0.12626462056803436,-0.008831150251164398]","[1,1,1]","[0.025095657805825924,-0.12784601068237775]","[-1,-1,-1]","[-0.11762137489416424,-0.14354922609258544]","[-1,-1,-1]","[0.016336212027004186,-0.19452186912367955]","[-1,-1,-1]","[0.15599531561131588,0.005130933423328959]","[-1,-1,-1]","[-0.0842794115326872,-0.07091766168748859]","[-1,-1,-1]","[-0.08983977871048146,0.015459101336471217]","[1,1,1]","[-0.008002479173565025,-0.03979586147419145]","[1,1,1]","[0.010378571669623608,0.14404735520869122]","[1,1,1]","[-0.04017374943739833,0.14304214886036196]","[1,1,1]","[0.13207307313686945,0.038851150791749826]","[-1,-1,-1]","[-0.19851888062735978,-0.0022581124352632777]","[-1,-1,-1]","[-0.1600639001186203,0.05195365066212756]","[1,1,1]","[0.10932691920130302,-0.11515081831939368]","[1,1,1]","[0.1716072797274338,-0.09770683115136043]","[1,1,1]","[0.03869957855809227,-0.016900115492971022]","[-1,-1,-1]","[0.10821180277580697,0.0988119742495735]","[1,1,1]","[0.054750398262940043,0.10499107966745595]","[1,1,1]","[0.16119917596940206,0.10855877466434834]","[1,1,1]","[-0.04057602166784362,-0.14185071852440512]","[-1,-1,-1]","[-0.1383605511867776,0.1215084256151271]","[-1,-1,-1]","[-0.13134180717016403,-0.09973370383468748]","[-1,-1,-1]","[0.021082023524470552,0.03124892879342653]","[-1,-1,-1]","[-0.0895586439796646,0.1428007832469475]","[-1,-1,-1]","[0.040748398614934525,0.19441974843775056]","[-1,-1,-1]","[0.02,0.02]",150.8019,0,19,19,62,1,,,,,,,
,,,,,,,67104c7deff954cb22438402,682f0372089cc434d5c0ceea,2025-05-22_07h02.01.463,cuing_paradigm_dot,2024.1.5,Win32,163.9344262,682d556593cb38ad0a074487,,,,,,,,,,,150.8021,151.2989,,,151.5475,152.1959,right,0.6374,,,,,,,,,0.5,,,,,,151.2989,151.5475,152.1959,"[0.17290387247322075,-0.07229995046981513]","[1,1,1]","[-0.11403853705929014,-0.01730234095128275]","[1,1,1]","[0.11044906262227364,0.0930148629462684]","[-1,-1,-1]","[0.16578678019912507,0.06802373896156458]","[1,1,1]","[-0.15777469494895435,-0.09721502295682655]","[-1,-1,-1]","[-0.05435851370099336,0.08870304566803323]","[1,1,1]","[0.05507383258739956,-0.14035825508016284]","[1,1,1]","[-0.13942544330428933,0.0815865790154304]","[-1,-1,-1]","[-0.06438642152409657,0.04765906126428445]","[1,1,1]","[0.003922068117344285,0.018400408830859617]","[1,1,1]","[0.10378449599675278,0.029601059497179748]","[-1,-1,-1]","[-0.0013275616290337677,-0.13211580603930098]","[1,1,1]","[0.032293451519008316,0.06820118224345144]","[-1,-1,-1]","[-0.19052143805896546,-0.040996320740144136]","[-1,-1,-1]","[0.09803678140783055,-0.14155620915411346]","[-1,-1,-1]","[-0.08697719726006299,0.012474597390361287]","[1,1,1]","[0.10144214529517716,0.15131355438764651]","[1,1,1]","[-0.09575400203809252,-0.12442538066156646]","[-1,-1,-1]","[0.1976932833323714,0.02626876488080728]","[-1,-1,-1]","[0.04133947591963358,0.17125398244813647]","[-1,-1,-1]","[-0.07495207941498408,-0.16002607587663195]","[1,1,1]","[0.10057081434157382,-0.1015775305264802]","[-1,-1,-1]","[0.14790189150396982,0.11001973103889656]","[1,1,1]","[-0.01642209938355346,0.12109632412966657]","[-1,-1,-1]","[0.18530035099251288,-0.03228714948600704]","[-1,-1,-1]","[0.04987981214787495,0.11300140486757011]","[1,1,1]","[-0.07037551165600078,-0.0506747122469337]","[1,1,1]","[-0.07699836129208984,0.15413611281020725]","[-1,-1,-1]","[0.020008372637766676,-0.09786254391321465]","[1,1,1]","[0.052050673970424156,-0.01269861852000708]","[1,1,1]","[-0.1593405774048669,0.018053606267523278]","[-1,-1,-1]","[0.023704446772601053,-0.19575015138983]","[-1,-1,-1]","[0.02,0.02]",153.2928,0,20,20,93,1,,,,,,,
,,,,,,,67104c7deff954cb22438402,682f0372089cc434d5c0ceea,2025-05-22_07h02.01.463,cuing_paradigm_dot,2024.1.5,Win32,163.9344262,682d556593cb38ad0a074487,,,,,,,,,,,153.293,153.7897,,,154.0384,154.4383,left,0.3877,,,,,,,,,0.55,,,,,,153.7898,154.0383,154.4383,"[-0.03020063839180471,0.10439513730235105]","[-1,-1,-1]","[-0.1197878196993054,-0.018039124526041627]","[1,1,1]","[-0.1266312028636441,0.025853896756412583]","[-1,-1,-1]","[-0.0383339116525825,-0.16915518163830917]","[1,1,1]","[-0.19014004089511405,-0.012610268953827868]","[1,1,1]","[0.09042528975569988,-0.11675135876355916]","[1,1,1]","[0.07944287772626708,0.16638103287938077]","[-1,-1,-1]","[-0.10058764165117619,-0.0952563175903555]","[-1,-1,-1]","[0.0857058209608173,-0.06543828632842634]","[1,1,1]","[-0.031032070646349233,0.04586349307418368]","[1,1,1]","[0.13575007572853234,-0.02732310266483788]","[1,1,1]","[-0.14313681747878299,-0.09798992060030487]","[1,1,1]","[-0.08189723259187141,-0.05079355085383977]","[-1,-1,-1]","[-0.18721335990715818,-0.06241122214896508]","[1,1,1]","[0.12256672977001276,0.15777552576122458]","[1,1,1]","[-0.08861115532423212,0.16532959019040652]","[1,1,1]","[0.05862919607220876,-0.0013721339006832675]","[1,1,1]","[0.03174690227379488,-0.0846308574400751]","[-1,-1,-1]","[-0.1072551500661194,0.12680133540263586]","[-1,-1,-1]","[0.009644794115053038,0.19404165916521252]","[-1,-1,-1]","[0.14543630492622492,-0.11896265447297619]","[1,1,1]","[0.19339040933397553,0.02809428187911485]","[1,1,1]","[0.07569097922627001,0.0712100168106638]","[-1,-1,-1]","[-0.05146781011350646,-0.08610283154051981]","[-1,-1,-1]","[-0.08575345820258873,0.04439405574161007]","[1,1,1]","[-0.09860946010118345,-0.14652216545266009]","[1,1,1]","[0.002171484967565381,-0.12917052388252873]","[1,1,1]","[0.13346255221339526,0.049129878177321264]","[-1,-1,-1]","[-0.16765448650674838,0.06646922207027219]","[1,1,1]","[0.10875880640215935,0.10870082983606652]","[-1,-1,-1]","[-0.03208211698249869,0.17472210100677418]","[-1,-1,-1]","[0.010684739123974262,-0.017806898314428762]","[-1,-1,-1]","[0.02,0.02]",155.5352,0,21,21,125,1,,,,,,,
,,,,,,,67104c7deff954cb22438402,682f0372089cc434d5c0ceea,2025-05-22_07h02.01.463,cuing_paradigm_dot,2024.1.5,Win32,163.9344262,682d556593cb38ad0a074487,,,,,,,,,,,155.5355,156.0322,,,156.2808,156.5051,right,0.2169,,,,,,,,,0.9,,,,,,156.0322,156.2808,156.5052,"[0.13087887692049402,0.1504212256950522]","[1,1,1]","[0.14451482152995082,-0.09628685780093754]","[1,1,1]","[-0.05634200040872352,-0.02268358470823584]","[1,1,1]","[0.03809703739446195,-0.06030395530387057]","[1,1,1]","[0.0636834563237877,-0.13469054238322836]","[-1,-1,-1]","[0.09873121209160066,0.03232608646242091]","[1,1,1]","[-0.016036065780469493,0.02171692598792264]","[1,1,1]","[-0.06770471789180692,0.034997806489435644]","[1,1,1]","[0.09673329486535777,-0.09642917657086791]","[-1,-1,-1]","[-0.15153768017270908,-0.0018877750260460587]","[1,1,1]","[0.05476107963677216,0.021657256874516626]","[1,1,1]","[-0.11658974684483137,-0.0921029018519397]","[1,1,1]","[-0.07945168216177131,0.15235795688658957]","[1,1,1]","[-0.04497311494708145,0.1290604212952072]","[1,1,1]","[0.11334476136022789,0.10458905128490302]","[1,1,1]","[-0.02158423092016018,-0.0597653741174564]","[1,1,1]","[-0.14805844287542472,0.06546155362230688]","[1,1,1]","[0.1536156664872723,0.06751927998125354]","[-1,-1,-1]","[0.08516344604826509,0.17159964972563183]","[1,1,1]","[0.024320800626919582,0.09403330423761717]","[1,1,1]","[0.11678599500322644,-0.04093704152755299]","[1,1,1]","[-0.10804305446053779,0.07630328014500856]","[1,1,1]","[-0.015827654164585453,-0.10650629738301556]","[1,1,1]","[-0.031649244489351594,0.08127153938542873]","[1,1,1]","[0.049695556699182575,-0.18544925723827202]","[1,1,1]","[0.17037439292840295,0.028657748186628963]","[1,1,1]","[-0.15214266633080542,-0.05920942649405748]","[1,1,1]","[0.05633316579932722,0.14195798971219087]","[1,1,1]","[0.016289765289320926,0.1788215688457079]","[1,1,1]","[-0.017425539551610598,-0.17228390847164368]","[1,1,1]","[0.12008717865180564,-0.1452397488939554]","[1,1,1]","[0.15789705825134745,-0.018825471884977917]","[1,1,1]","[0.02,0.02]",157.6018,0,22,22,196,1,,,,,,,
,,,,,,,67104c7deff954cb22438402,682f0372089cc434d5c0ceea,2025-05-22_07h02.01.463,cuing_paradigm_dot,2024.1.5,Win32,163.9344262,682d556593cb38ad0a074487,,,,,,,,,,,157.6021,158.0989,,,158.3475,158.7959,right,0.438,,,,,,,,,0.45,,,,,,158.0989,158.3475,158.7959,"[-0.019510962626396903,0.10814111296719998]","[-1,-1,-1]","[-0.1414333638491542,0.05496755858229014]","[-1,-1,-1]","[-0.1745277661740058,-0.00394842600638863]","[-1,-1,-1]","[0.008151800841874945,0.04994858777266335]","[1,1,1]","[0.06684391423208487,0.1742499301958466]","[-1,-1,-1]","[-0.0572527684143045,-0.08920035160635521]","[1,1,1]","[0.15070024226956769,0.10596688519204774]","[-1,-1,-1]","[-0.016384174154100744,-0.05592488057029974]","[-1,-1,-1]","[-0.08162975224614116,-0.1464714082334611]","[-1,-1,-1]","[-0.04658744669209171,0.18008255972553522]","[-1,-1,-1]","[0.09178113196927312,-0.017118897251242726]","[1,1,1]","[0.12410730548486588,-0.14350026775902333]","[-1,-1,-1]","[-0.16090422294701706,-0.055252666442232604]","[-1,-1,-1]","[0.18047232932029622,-0.009052833794862774]","[-1,-1,-1]","[-0.08497361961407555,0.10518249430345572]","[1,1,1]","[0.0045854092934594776,-0.18913332237622435]","[-1,-1,-1]","[-0.1811041544785172,0.08159627694990758]","[1,1,1]","[0.056341449531692574,0.10508245875601796]","[1,1,1]","[0.10796789442344323,0.1437383029058556]","[1,1,1]","[-0.1490806753801341,0.1122809900348048]","[1,1,1]","[0.06846923098303861,-0.1763261688885544]","[-1,-1,-1]","[-0.14461571062011486,-0.11096670730489537]","[-1,-1,-1]","[0.16046989527110347,-0.07502583896154197]","[1,1,1]","[-0.0481711812235844,0.07532908358808921]","[-1,-1,-1]","[-0.11315586984353766,0.15868139184606284]","[1,1,1]","[0.05479129536097969,-0.03847388741652425]","[1,1,1]","[0.14025943400555776,0.0415281556777924]","[1,1,1]","[-0.018949460575136454,0.017607008619185502]","[-1,-1,-1]","[-0.07773030746367246,-0.04296722395236926]","[1,1,1]","[0.09812410218501419,-0.08505874381623789]","[-1,-1,-1]","[0.04255471781574151,-0.1407617129595756]","[1,1,1]","[0.06570495733740134,0.040119366746198204]","[-1,-1,-1]","[0.02,0.02]",159.8928,0,23,23,66,1,,,,,,,
,,,,,,,67104c7deff954cb22438402,682f0372089cc434d5c0ceea,2025-05-22_07h02.01.463,cuing_paradigm_dot,2024.1.5,Win32,163.9344262,682d556593cb38ad0a074487,,,,,,,,,,,159.893,160.3898,,,160.6384,161.1959,left,0.5474,,,,,,,,,0.5,,,,,,160.3898,160.6384,161.196,"[0.14880920735462938,-0.0036614475317117037]","[-1,-1,-1]","[0.05124545033977697,0.04418441603440764]","[1,1,1]","[-0.026669411313073668,-0.028165535660495858]","[1,1,1]","[0.09520310909618651,-0.006959054603481163]","[-1,-1,-1]","[0.10908179802227956,-0.12632542258457902]","[-1,-1,-1]","[0.15466769220897816,-0.06558345327474381]","[1,1,1]","[-0.054694303904450944,-0.12487355712402663]","[-1,-1,-1]","[-0.005698127248430612,0.028017022660227806]","[1,1,1]","[-0.061962612739270416,0.04836415988273303]","[1,1,1]","[0.028401588673100542,-0.039048122778863145]","[-1,-1,-1]","[0.17340714407459049,0.09301815931554136]","[1,1,1]","[-0.1054680081774844,0.02737844317576325]","[1,1,1]","[-0.14874381848898885,0.08969725699727032]","[-1,-1,-1]","[0.03675579072105845,-0.18416215327455807]","[-1,-1,-1]","[0.049467397972891625,-0.0813367545425261]","[-1,-1,-1]","[-0.06441669087047638,0.13686542007592795]","[1,1,1]","[-0.17006617952448053,-0.09811686292369316]","[-1,-1,-1]","[-0.048931384280441914,-0.18999851776739568]","[1,1,1]","[0.07223105583674384,-0.15939606254289954]","[1,1,1]","[-0.03682722596840848,-0.0750630118017116]","[1,1,1]","[-0.10571569698575557,-0.14056946828868863]","[1,1,1]","[0.1700543048301996,0.039888778701527454]","[-1,-1,-1]","[0.00013117410716935503,-0.12048078346743665]","[1,1,1]","[-0.16695525010889345,-0.05718045820280994]","[-1,-1,-1]","[-0.14596073821036643,0.03356941453056019]","[-1,-1,-1]","[0.051252095664074175,0.0013664522110305485]","[1,1,1]","[0.09199693267353454,0.17185829348355655]","[-1,-1,-1]","[-0.0756990712307145,-0.0024197060285563584]","[1,1,1]","[-0.0026648121960763547,0.08848184530791771]","[-1,-1,-1]","[0.10916423611036728,0.10888860814029742]","[-1,-1,-1]","[-0.08120607300350699,0.09581997186685354]","[1,1,1]","[0.11403214739122217,-0.0773163294565267]","[-1,-1,-1]","[0.02,0.02]",162.2929,0,24,24,102,1,,,,,,,
,,,,,,,67104c7deff954cb22438402,682f0372089cc434d5c0ceea,2025-05-22_07h02.01.463,cuing_paradigm_dot,2024.1.5,Win32,163.9344262,682d556593cb38ad0a074487,,,,,,,,,,,162.2931,162.7898,,,163.0385,163.2202,right,0.171,,,,,,,,,0.45,,,,,,162.7898,163.0385,163.2202,"[-0.10607935863149462,0.053865936698967186]","[-1,-1,-1]","[-0.054729186270998556,0.11903473318213033]","[1,1,1]","[-0.17693373323528624,0.035562304227685936]","[-1,-1,-1]","[0.018675795916388495,0.03185960091221573]","[1,1,1]","[0.06798974902351744,-0.14717993725492087]","[1,1,1]","[0.06769624071733288,0.022394977075395516]","[1,1,1]","[0.10339591817522005,-0.04303167385689596]","[-1,-1,-1]","[0.16360437990340615,-0.08982094896642209]","[1,1,1]","[-0.01717421067167166,-0.0701878725280439]","[1,1,1]","[0.11281046324507353,0.14164098265605418]","[-1,-1,-1]","[-0.08331351892144138,0.1485967642925682]","[-1,-1,-1]","[-0.15074150232653785,0.11991794643829057]","[-1,-1,-1]","[0.17809232062046376,0.01308895426887948]","[-1,-1,-1]","[-0.18025307913412564,-0.08099828574319153]","[-1,-1,-1]","[-0.05193571156244116,-0.10306537244166425]","[1,1,1]","[0.031189636016880604,0.19277927899959824]","[1,1,1]","[-0.023714519504384888,0.042328432426191664]","[-1,-1,-1]","[0.02046408373530533,-0.16534090108002233]","[1,1,1]","[0.14798775210784373,0.06377092168188815]","[1,1,1]","[-0.10297650785863523,-0.14042187198293218]","[-1,-1,-1]","[0.04508329078091847,-0.10925402990851212]","[1,1,1]","[0.03750791003150218,-0.004995513763508757]","[-1,-1,-1]","[0.11057462262213101,-0.08526940456764211]","[-1,-1,-1]","[0.10977464287170069,0.025677509038617204]","[-1,-1,-1]","[-0.11791773446533549,-0.01109762346239969]","[-1,-1,-1]","[0.1872790495562038,-0.05736351550614683]","[1,1,1]","[-0.05862265030999679,-0.05898978042542436]","[1,1,1]","[0.0670024934596625,0.0655522939988119]","[-1,-1,-1]","[-0.008014976544045711,-0.121917767299996]","[-1,-1,-1]","[-0.006229109306447632,0.10991783124523458]","[-1,-1,-1]","[0.11624334538269034,-0.1592899825976549]","[-1,-1,-1]","[0.08615978291601986,0.10343264761259517]","[1,1,1]","[0.02,0.02]",164.3172,0,25,25,85,1,,,,,,,
,,,,,,,67104c7deff954cb22438402,682f0372089cc434d5c0ceea,2025-05-22_07h02.01.463,cuing_paradigm_dot,2024.1.5,Win32,163.9344262,682d556593cb38ad0a074487,,,,,,,,,,,164.3175,164.8141,,,165.0628,165.3899,right,0.3155,,,,,,,,,0.45,,,,,,164.8141,165.0628,165.3899,"[-0.11961150693427731,-0.15277216486361078]","[1,1,1]","[-0.10392046928259545,0.13144952351136563]","[-1,-1,-1]","[0.0425446245766651,0.18451965718016827]","[-1,-1,-1]","[-0.06956726651453068,-0.003814948035035771]","[1,1,1]","[0.013762951285184184,-0.1312028334926436]","[1,1,1]","[-0.13214759214783686,-0.0840058813269311]","[-1,-1,-1]","[0.0432613980602493,0.030276920620658697]","[-1,-1,-1]","[0.05934303063610791,-0.16924232015877436]","[1,1,1]","[0.1684951253483836,0.036542223832958416]","[1,1,1]","[-0.021166402358227168,-0.06313598458562607]","[-1,-1,-1]","[0.052975811757482304,0.11498788857799089]","[1,1,1]","[-0.02069538539050769,0.01579699646388315]","[-1,-1,-1]","[0.13635213615279612,0.1257417532294714]","[-1,-1,-1]","[0.08980546123337094,0.08384595732206519]","[-1,-1,-1]","[-0.12198715429593009,0.031091391081592326]","[-1,-1,-1]","[0.09912199938592682,0.018621982641506503]","[-1,-1,-1]","[-0.06741125762927942,0.10027863345477694]","[-1,-1,-1]","[-0.006549995409085457,0.16890450923388448]","[-1,-1,-1]","[0.1915344596919685,-0.04263764464061511]","[1,1,1]","[0.09086995068449298,0.16061187350592968]","[1,1,1]","[0.010766318552266998,0.12580923842429032]","[-1,-1,-1]","[0.02022804441489492,-0.1807533902728298]","[1,1,1]","[-0.11382623991831652,-0.015689918137248533]","[1,1,1]","[0.1545799752843511,-0.1168107138353723]","[1,1,1]","[-0.019627298567296426,0.07686465692269308]","[-1,-1,-1]","[-0.03053369383472506,-0.14892665682824222]","[-1,-1,-1]","[0.1582578640902294,-0.01982635636182464]","[-1,-1,-1]","[-0.1272689620842753,0.08663051200278994]","[-1,-1,-1]","[-0.06790924228838723,-0.17233797844115578]","[1,1,1]","[0.069160462406945,-0.10506016167518484]","[-1,-1,-1]","[0.09732713550273,-0.15234298666136045]","[1,1,1]","[-0.08566805793368938,-0.11863296417235063]","[1,1,1]","[0.02,0.02]",166.4868,0,26,26,81,1,,,,,,,
,,,,,,,67104c7deff954cb22438402,682f0372089cc434d5c0ceea,2025-05-22_07h02.01.463,cuing_paradigm_dot,2024.1.5,Win32,163.9344262,682d556593cb38ad0a074487,,,,,,,,,,,166.4871,166.9838,,,167.2325,167.4445,right,0.2008,,,,,,,,,0.4,,,,,,166.9838,167.2324,167.4445,"[0.008847412618137604,-0.09157982712691455]","[1,1,1]","[-0.15644685597800753,0.018817923321620172]","[-1,-1,-1]","[-0.12720291077589282,0.06564856420250706]","[-1,-1,-1]","[-0.08685534035679537,-0.04304607211142057]","[-1,-1,-1]","[0.1468030850200341,0.11872804230312844]","[1,1,1]","[-0.06347156373559082,-0.12970153662586117]","[-1,-1,-1]","[0.12748104623943077,-0.1468941353090857]","[-1,-1,-1]","[0.15754072547578526,-0.0003739746503731346]","[1,1,1]","[-0.0471721553410051,-0.1905729599555788]","[-1,-1,-1]","[0.18781385551406082,0.033180954891606405]","[-1,-1,-1]","[-0.005610249835067135,-0.051978356709855546]","[-1,-1,-1]","[0.08631944893470953,0.08516509934950534]","[-1,-1,-1]","[-0.1149469849126277,-0.011671888697857355]","[1,1,1]","[0.170130378520542,-0.09413553135485254]","[-1,-1,-1]","[-0.15080898757403097,-0.09774389331724867]","[1,1,1]","[0.03379523303809444,-0.1592182432829806]","[-1,-1,-1]","[0.08314340711201647,0.00441811395083851]","[1,1,1]","[-0.006401237017549161,0.1271591258489927]","[-1,-1,-1]","[-0.0327329897506907,-0.013660555699348617]","[1,1,1]","[0.03971364588612796,0.009310929081500816]","[1,1,1]","[0.0659772660956984,0.13095893101878942]","[-1,-1,-1]","[-0.016118165483390467,-0.16534414511898218]","[1,1,1]","[0.06636939623355016,0.1772661456398334]","[1,1,1]","[-0.15907070097985457,-0.0430710383297594]","[-1,-1,-1]","[-0.03984783868597309,0.08395049688508283]","[1,1,1]","[0.07765035627715475,-0.1719431051104606]","[1,1,1]","[0.09344934636312835,-0.1118736319068681]","[-1,-1,-1]","[-0.07643385013639721,0.12833580545851736]","[1,1,1]","[0.14997456518316035,-0.055516500787035794]","[-1,-1,-1]","[0.1266618172483428,0.055990673655451184]","[-1,-1,-1]","[0.10939175599327876,-0.056129702091553095]","[-1,-1,-1]","[0.015277202595671412,0.04346451739528501]","[-1,-1,-1]","[0.02,0.02]",168.5414,0,27,27,45,1,,,,,,,
,,,,,,,67104c7deff954cb22438402,682f0372089cc434d5c0ceea,2025-05-22_07h02.01.463,cuing_paradigm_dot,2024.1.5,Win32,163.9344262,682d556593cb38ad0a074487,,,,,,,,,,,168.5418,169.0383,,,169.287,169.4687,right,0.1708,,,,,,,,,0.1,,,,,,169.0383,169.287,169.4687,"[0.06767371405254473,-0.14504419498883006]","[-1,-1,-1]","[-0.10188792518680467,-0.1344055134931783]","[-1,-1,-1]","[-0.00857977020876139,-0.004435262209011091]","[-1,-1,-1]","[0.002040106638123685,0.12459620890750404]","[-1,-1,-1]","[-0.06412982634044358,0.11464280597930632]","[-1,-1,-1]","[-0.012761366676576841,-0.1425371526093708]","[-1,-1,-1]","[0.14852313243563883,-0.008185491840627937]","[-1,-1,-1]","[-0.14125468888546575,-0.11349813693615476]","[1,1,1]","[-0.05505558898574391,0.06459763159608842]","[-1,-1,-1]","[0.05191052872482666,0.060752024954689926]","[-1,-1,-1]","[0.18396590501726273,0.020727265741400196]","[-1,-1,-1]","[0.08639879657761511,0.16026316097216234]","[-1,-1,-1]","[-0.13598154083150063,0.06182169269667713]","[-1,-1,-1]","[0.10912710664203296,0.004644964672052967]","[-1,-1,-1]","[-0.013466459403813342,0.1935544512994416]","[-1,-1,-1]","[0.06095828998081022,-0.0880876037793959]","[1,1,1]","[-0.1455657356826144,-0.06208259111217593]","[-1,-1,-1]","[0.03025393515741721,-0.01839541022421264]","[-1,-1,-1]","[0.10268271402279366,-0.03850760568657635]","[-1,-1,-1]","[0.1471797512106707,0.0459931065576401]","[-1,-1,-1]","[0.09400725807040156,0.0609882359528676]","[-1,-1,-1]","[0.009028559904260481,0.0805036791203129]","[-1,-1,-1]","[-0.07529042044418797,0.007332485966991006]","[-1,-1,-1]","[0.1861121281476827,-0.029167885466693907]","[-1,-1,-1]","[-0.13069130944535415,-0.012476144109210099]","[-1,-1,-1]","[-0.08140824873384687,-0.09956593347604306]","[-1,-1,-1]","[-0.0010562235433951457,0.03705735004600862]","[1,1,1]","[0.15531009675894872,-0.10943061189940653]","[-1,-1,-1]","[-0.13986303343193832,0.13076833311752112]","[-1,-1,-1]","[0.09502294060322738,0.11062838685800677]","[-1,-1,-1]","[-0.17664066723059663,-0.02098181126111597]","[-1,-1,-1]","[0.03719814278054008,-0.17926271455459145]","[-1,-1,-1]","[0.02,0.02]",170.5656,0,28,28,11,1,,,,,,,
,,,,,,,67104c7deff954cb22438402,682f0372089cc434d5c0ceea,2025-05-22_07h02.01.463,cuing_paradigm_dot,2024.1.5,Win32,163.9344262,682d556593cb38ad0a074487,,,,,,,,,,,170.566,171.0626,,,171.3114,171.5293,right,0.2101,,,,,,,,,0.6,,,,,,171.0626,171.3113,171.5293,"[-0.12532707861783982,0.1325000197042762]","[1,1,1]","[-0.003190127147969135,-0.04688167591187787]","[1,1,1]","[0.09480104035524425,0.05452231349673202]","[-1,-1,-1]","[0.05398664022811852,-0.09032522539583109]","[1,1,1]","[-0.1809715062832775,0.06561812626386346]","[-1,-1,-1]","[0.10457188967118936,-0.05577699425143712]","[1,1,1]","[0.04984947592354942,0.0895661365651008]","[1,1,1]","[-0.10538604452185175,-0.15796424931588463]","[1,1,1]","[0.13066511572204573,0.1404142016404715]","[-1,-1,-1]","[-0.06998960222635231,0.03131017400884005]","[-1,-1,-1]","[-0.04384956247774791,0.07425171244541273]","[-1,-1,-1]","[-0.040483455776085475,-0.10130527588896834]","[1,1,1]","[-0.09079485073485702,0.0972114819369106]","[1,1,1]","[0.024356978271888177,-0.01779753668667236]","[-1,-1,-1]","[-0.03238196146787239,0.13250225367885515]","[-1,-1,-1]","[0.060944406309608894,0.16226302937981815]","[-1,-1,-1]","[0.13982849567639427,0.09927249730387414]","[1,1,1]","[0.0018321032776376638,-0.08782225335699564]","[1,1,1]","[0.07913914077130267,-0.1588244023106135]","[-1,-1,-1]","[0.03626198378627087,-0.1942579395492561]","[1,1,1]","[-0.014226415593420912,0.04274582338178872]","[1,1,1]","[-0.08872463869481262,-0.10607619433791092]","[1,1,1]","[0.07998909008243132,0.12496766231703657]","[1,1,1]","[-0.13973910091159006,-0.08907321102214823]","[1,1,1]","[-0.16257984730122757,-0.03325980413310292]","[1,1,1]","[0.1645587435543035,0.028807534507186795]","[1,1,1]","[-0.11134363202375151,-0.01636226774368708]","[-1,-1,-1]","[0.0017369983082452893,0.08577588893869122]","[-1,-1,-1]","[0.14574467529166513,-0.10006239597262534]","[-1,-1,-1]","[-0.06893376353400679,-0.03593102364563531]","[-1,-1,-1]","[-0.02659532741829976,-0.19173637327856505]","[1,1,1]","[-0.17706237950058154,0.024546016329807973]","[1,1,1]","[0.02,0.02]",172.6262,0,29,29,177,1,,,,,,,
,,,,,,,67104c7deff954cb22438402,682f0372089cc434d5c0ceea,2025-05-22_07h02.01.463,cuing_paradigm_dot,2024.1.5,Win32,163.9344262,682d556593cb38ad0a074487,,,,,,,,,,,172.6265,173.1233,,,173.3718,173.8264,right,0.4456,,,,,,,,,0.45,,,,,,173.1233,173.3718,173.8264,"[-0.12617801848640564,-0.05755938057474184]","[1,1,1]","[-0.07995337184082171,0.12440320076403051]","[1,1,1]","[-0.14355861251087745,-0.10664459847309046]","[-1,-1,-1]","[0.08592173424829981,-0.007982971039173383]","[-1,-1,-1]","[-0.15968042887133768,0.058782692411571365]","[-1,-1,-1]","[0.0002338335232967254,-0.15080637165869407]","[-1,-1,-1]","[0.04890092942545257,0.07901378181259068]","[1,1,1]","[0.017716075292172794,0.048355327529674315]","[1,1,1]","[-0.10594403017445554,-0.012756980233765923]","[-1,-1,-1]","[0.06013082617814792,-0.12811294107210788]","[-1,-1,-1]","[-0.03518288207769788,0.06441643052856923]","[-1,-1,-1]","[0.12072769620455145,-0.05838487911059626]","[-1,-1,-1]","[0.03393011441616184,0.13340420711982448]","[-1,-1,-1]","[-0.11711649852906453,0.05555241509220755]","[1,1,1]","[0.07598771407867559,0.15821303153977753]","[1,1,1]","[-0.16699504520834177,0.10216542616011207]","[1,1,1]","[0.03500369041255664,-0.02992174351423127]","[1,1,1]","[-0.02487400042159544,-0.10260174096922589]","[-1,-1,-1]","[-0.11696820546942703,0.16134549316310992]","[1,1,1]","[-0.15770162525552028,-0.021069515876213356]","[-1,-1,-1]","[-0.13043166548289656,0.12081537990040733]","[1,1,1]","[0.015509473415118965,0.18421232564518839]","[1,1,1]","[-0.06298834534901115,-0.04981825041086809]","[-1,-1,-1]","[0.1277457374479963,-0.013577659047904622]","[1,1,1]","[0.17084762834091785,0.07682878363602327]","[-1,-1,-1]","[0.14683063729717094,-0.09453982552521246]","[-1,-1,-1]","[-0.014088629218483426,0.012471912091609694]","[-1,-1,-1]","[0.10013431927666784,0.1147418439113326]","[1,1,1]","[-0.1907904428413074,0.009910771542514657]","[1,1,1]","[-0.1783054611831037,-0.08300121687573059]","[-1,-1,-1]","[-0.11954021402947236,-0.1600807105344689]","[-1,-1,-1]","[0.1065587199485842,-0.12603179444680876]","[-1,-1,-1]","[0.02,0.02]",174.9233,0,30,30,89,1,,,,,,,
,,,,,,,67104c7deff954cb22438402,682f0372089cc434d5c0ceea,2025-05-22_07h02.01.463,cuing_paradigm_dot,2024.1.5,Win32,163.9344262,682d556593cb38ad0a074487,,,,,,,,,,,174.9235,175.4202,,,175.6688,176.0627,right,0.382,,,,,,,,,0.45,,,,,,175.4203,175.6688,176.0627,"[-0.030514906407957627,0.19418304498768402]","[1,1,1]","[-0.13769518689289797,0.02536958758107439]","[-1,-1,-1]","[0.14772378310748877,-0.050932074685050864]","[-1,-1,-1]","[-0.09415747139837878,-0.010541921847016555]","[1,1,1]","[0.001478274649666716,-0.18955605207323992]","[1,1,1]","[-0.14656349973976696,-0.09873909292834675]","[-1,-1,-1]","[-0.07408920404444082,0.10234618252931048]","[-1,-1,-1]","[0.01549067049562904,0.14379106492223526]","[-1,-1,-1]","[0.025209761477981363,0.08499856487756038]","[1,1,1]","[-0.17008870838525725,-0.022851104376334943]","[-1,-1,-1]","[-0.10771240746876828,-0.1409883341751042]","[-1,-1,-1]","[0.058193196627852634,0.11575547251633263]","[1,1,1]","[0.05228852231863776,-0.01734239202845296]","[-1,-1,-1]","[-0.03898455006870122,-0.17576984338928972]","[-1,-1,-1]","[0.1306326961474676,-0.10278320501732587]","[-1,-1,-1]","[-0.17207852753102382,0.04835812323392068]","[-1,-1,-1]","[0.1513721420031406,0.09730098735216665]","[1,1,1]","[0.0418434963084038,-0.14799252184164918]","[1,1,1]","[0.0972877608479571,0.009096455684843205]","[-1,-1,-1]","[-0.012357384776388022,0.0533088658436423]","[-1,-1,-1]","[0.049248269280532705,0.16529445148449745]","[1,1,1]","[0.0560746656400358,-0.09449969276374919]","[1,1,1]","[0.027852829519786498,-0.06600673416280971]","[1,1,1]","[-0.02420457262013621,0.11463478608023586]","[1,1,1]","[0.028445438527816006,0.041676303065074013]","[1,1,1]","[0.18665546181670528,0.051586975584044736]","[-1,-1,-1]","[-0.09300952428206008,-0.08879674439743905]","[-1,-1,-1]","[0.18677773095961606,0.008967456686335749]","[-1,-1,-1]","[-0.17514056223500132,-0.06360003554957376]","[1,1,1]","[0.001717587642060561,-0.09943637550369988]","[1,1,1]","[-0.041591907018944684,-0.11190668185127367]","[-1,-1,-1]","[0.09464956510464993,-0.14171951380215325]","[-1,-1,-1]","[0.02,0.02]",177.1596,0,31,31,78,1,,,,,,,
,,,,,,,67104c7deff954cb22438402,682f0372089cc434d5c0ceea,2025-05-22_07h02.01.463,cuing_paradigm_dot,2024.1.5,Win32,163.9344262,682d556593cb38ad0a074487,,,,,,,,,,,177.1598,177.6566,,,177.9052,178.1233,left,0.2083,,,,,,,,,0.6,,,,,,177.6566,177.9052,178.1233,"[0.0473029164088972,-0.15273067920912617]","[1,1,1]","[0.03715993709793442,0.046263144826903656]","[-1,-1,-1]","[-0.04127479934178274,-0.028498096820146254]","[1,1,1]","[-0.07248201934658531,-0.12263992526071592]","[1,1,1]","[0.19220445765265953,0.013113122161558475]","[-1,-1,-1]","[0.017196273324925695,-0.11321574400354785]","[-1,-1,-1]","[0.08139739902366123,-0.030123029364229822]","[1,1,1]","[-0.1861150833493271,0.006966236928168155]","[1,1,1]","[-0.11567958432107724,-0.15362896455903852]","[-1,-1,-1]","[-0.046455319034372,0.16477726175621846]","[-1,-1,-1]","[-0.05826734075754725,0.06437214677254238]","[-1,-1,-1]","[-0.11062293392433382,0.16338064060480514]","[1,1,1]","[0.09867074044965984,-0.0801540527492875]","[1,1,1]","[-0.10543604996331295,0.04073144573391623]","[-1,-1,-1]","[-0.06055057681747701,-0.16311973165028879]","[1,1,1]","[0.10248254552263716,-0.17097929961007574]","[-1,-1,-1]","[-0.1845233320723185,-0.058887501923844975]","[-1,-1,-1]","[-0.15250591614430606,-0.02809400752159168]","[-1,-1,-1]","[-0.03343009585624972,-0.08201917241088036]","[1,1,1]","[0.07623471820676737,0.02551904530835401]","[1,1,1]","[-0.15489084288477548,-0.12066685361307433]","[1,1,1]","[0.06026194358672033,-0.06458463981962673]","[1,1,1]","[0.14159728175309821,0.12315121756888817]","[1,1,1]","[0.06464360641395919,-0.10534860020174182]","[-1,-1,-1]","[-0.1410465710017055,-0.06664978966931814]","[-1,-1,-1]","[0.09876779011002218,0.07620808750246265]","[-1,-1,-1]","[0.1248341008485453,-0.04371910148986839]","[1,1,1]","[-0.010597720316885528,0.1000857081106418]","[1,1,1]","[-0.09665718706712949,0.11423292436109495]","[1,1,1]","[0.06556585767924306,0.17755498713532544]","[1,1,1]","[0.03238256480202938,-0.007159092872587478]","[1,1,1]","[0.04019477537810377,0.08723933299739532]","[1,1,1]","[0.02,0.02]",179.2203,0,32,32,165,1,,,,,,,
,,,,,,,67104c7deff954cb22438402,682f0372089cc434d5c0ceea,2025-05-22_07h02.01.463,cuing_paradigm_dot,2024.1.5,Win32,163.9344262,682d556593cb38ad0a074487,,,,,,,,,,,179.2204,179.7173,,,179.9659,180.2263,right,0.2524,,,,,,,,,0.45,,,,,,179.7173,179.9659,180.2263,"[0.06833457768814692,0.1546896888220549]","[-1,-1,-1]","[0.09391249370953479,0.03235507955062277]","[1,1,1]","[0.008717894454481737,0.024603707427976892]","[-1,-1,-1]","[0.07328147494144183,-0.13116809314048908]","[-1,-1,-1]","[-0.1883781736344922,-0.021334317149045406]","[1,1,1]","[0.16269224364746712,0.02526337428154663]","[1,1,1]","[-0.05529430569980003,-0.039407220855926656]","[-1,-1,-1]","[0.044873949499244184,-0.01818702571887219]","[1,1,1]","[0.0788111981339861,-0.07847351464674235]","[1,1,1]","[-0.04700710224143233,0.09637968296300066]","[-1,-1,-1]","[-0.03900141381332252,-0.12702908062156296]","[-1,-1,-1]","[-0.16516984228625928,0.09000706036027609]","[1,1,1]","[0.018332329631017937,0.1310006817787267]","[-1,-1,-1]","[0.05537998549089783,0.05686311245073073]","[1,1,1]","[-0.0014175773509608573,0.08199510531479906]","[-1,-1,-1]","[0.09148800885912298,0.07929090036188242]","[-1,-1,-1]","[0.17334347177969672,-0.045603784143612956]","[1,1,1]","[-0.09294827787619503,-0.07400093914708233]","[-1,-1,-1]","[-0.0944032637805668,0.052076639557353366]","[-1,-1,-1]","[0.0562119190861857,-0.174986663181562]","[-1,-1,-1]","[-0.035600483035494415,0.1649712492361988]","[-1,-1,-1]","[-0.17287505262594086,0.032633311786854545]","[1,1,1]","[-0.00021423403213754073,-0.19674975552417637]","[-1,-1,-1]","[-0.09750406758528464,-0.153714109743052]","[1,1,1]","[-0.11458733758766591,-0.03271072440464969]","[-1,-1,-1]","[0.14035217804866013,0.1294821951403787]","[1,1,1]","[-0.12117489067663857,0.11747099419014305]","[-1,-1,-1]","[0.03492568455047451,0.19189933614488644]","[-1,-1,-1]","[0.005139733132390563,-0.0379316187867423]","[1,1,1]","[0.11747994869621982,-0.045407012842325276]","[1,1,1]","[-0.1475262290950865,-0.05987156723269788]","[-1,-1,-1]","[0.02030236937398698,-0.12339486967479779]","[1,1,1]","[0.02,0.02]",181.3233,0,33,33,75,1,,,,,,,
,,,,,,,67104c7deff954cb22438402,682f0372089cc434d5c0ceea,2025-05-22_07h02.01.463,cuing_paradigm_dot,2024.1.5,Win32,163.9344262,682d556593cb38ad0a074487,,,,,,,,,,,181.3235,181.8203,,,182.0689,182.2506,right,0.1733,,,,,,,,,0.55,,,,,,181.8203,182.0688,182.2506,"[-0.009566826399877918,-0.040798527638354704]","[1,1,1]","[-0.10755252940729894,-0.1004951584742482]","[1,1,1]","[-0.12602751139749088,0.06776348076236288]","[-1,-1,-1]","[-0.11325474926400987,0.13783281338036313]","[1,1,1]","[0.10411126365213197,0.10830153911914585]","[-1,-1,-1]","[-0.19160354408228836,0.017449085967157437]","[1,1,1]","[0.06093880468755853,-0.07526263751366609]","[1,1,1]","[0.046841382225364145,0.08240007610799378]","[1,1,1]","[0.07180843547758649,0.004168049208078787]","[-1,-1,-1]","[-0.04867260245225571,0.011979095881411715]","[-1,-1,-1]","[0.03578552088677146,-0.025071365920188392]","[-1,-1,-1]","[-0.147880487047729,-0.0032729538530906896]","[1,1,1]","[-0.12724561809612564,-0.15039419735568618]","[1,1,1]","[0.1839721708856016,-0.052695498754475545]","[-1,-1,-1]","[-0.04666579299058701,0.1395563323154441]","[1,1,1]","[0.11181398425973642,0.15996819249535188]","[-1,-1,-1]","[0.12666351693727482,0.0685668855823156]","[1,1,1]","[0.060577950592941014,-0.12205958082511092]","[-1,-1,-1]","[0.0018072690294568066,-0.18328344334269492]","[1,1,1]","[0.13721661332768703,-0.07367056017302465]","[1,1,1]","[0.03847794425793043,-0.16199866443481656]","[1,1,1]","[0.09218877958672266,-0.16635108160981035]","[-1,-1,-1]","[-0.10374366741986149,-0.0024924084634918454]","[1,1,1]","[0.07123413524390888,0.16698848743463168]","[-1,-1,-1]","[-0.004441094897871624,0.01442149645736095]","[-1,-1,-1]","[-0.17988260179701585,-0.07210388298969359]","[1,1,1]","[0.011151016216639586,0.19611568699760545]","[-1,-1,-1]","[-0.13698553376391587,-0.05877997330915306]","[1,1,1]","[0.023455225078111572,0.11631790799644451]","[1,1,1]","[0.11178595724489751,-0.009550076029199073]","[-1,-1,-1]","[-0.08293276400349311,-0.1647736932589065]","[-1,-1,-1]","[0.1710185383655612,-0.10249921767381055]","[1,1,1]","[0.02,0.02]",183.3475,0,34,34,121,1,,,,,,,
,,,,,,,67104c7deff954cb22438402,682f0372089cc434d5c0ceea,2025-05-22_07h02.01.463,cuing_paradigm_dot,2024.1.5,Win32,163.9344262,682d556593cb38ad0a074487,,,,,,,,,,,183.3478,183.8445,,,184.0932,184.4446,left,0.3404,,,,,,,,,0.6,,,,,,183.8445,184.0932,184.4446,"[0.046094217982858336,-0.07768944869463007]","[1,1,1]","[-0.13738858909479412,-0.04198952170739002]","[1,1,1]","[0.1535664674415785,0.0029494603807223066]","[1,1,1]","[-0.17165948951124954,0.046442795327553646]","[1,1,1]","[0.05449944419477532,-0.18916938642289843]","[1,1,1]","[0.0870952235970008,0.0690432271933725]","[-1,-1,-1]","[-0.003413817540689724,-0.13413230984433452]","[-1,-1,-1]","[0.13377955540420375,-0.1372705734775123]","[1,1,1]","[-0.003668284887539905,0.17532699478851466]","[1,1,1]","[-0.0666499536549697,-0.029287260078178834]","[1,1,1]","[-0.00932140829253488,0.008054960584641446]","[1,1,1]","[-0.092808647987214,-0.13256868132210178]","[-1,-1,-1]","[-0.08963803242602826,0.024576339978697678]","[1,1,1]","[-0.07620240756014378,0.10640627219687819]","[1,1,1]","[-0.09233203343530161,-0.08658052378739106]","[-1,-1,-1]","[0.16404772192271702,0.08980773285827512]","[1,1,1]","[0.020754213708949056,0.13657753792071112]","[1,1,1]","[-0.14972745910222196,0.12896149260076767]","[-1,-1,-1]","[0.10082076659937896,0.15730140258606687]","[1,1,1]","[0.17801978428643978,-0.0421720788995377]","[1,1,1]","[0.06653531830595555,-0.11699557960103804]","[-1,-1,-1]","[0.124065443440477,-0.0730622023098897]","[-1,-1,-1]","[-0.054877823373078505,0.053745112352747045]","[-1,-1,-1]","[0.026770813324425897,0.06959074066886706]","[1,1,1]","[-0.1647140735531035,-0.08086359742088908]","[1,1,1]","[-0.00022723655215587548,-0.07235443775724731]","[1,1,1]","[0.03525150956043796,-0.007630689913328334]","[-1,-1,-1]","[0.1041381221204139,-0.03099577966200666]","[-1,-1,-1]","[0.0407114234979138,0.18146261737970892]","[-1,-1,-1]","[-0.13219854457684732,0.01943572254652789]","[-1,-1,-1]","[-0.17999288827092005,-0.028128833760721096]","[-1,-1,-1]","[0.07599852805802244,0.01811358718878466]","[1,1,1]","[0.02,0.02]",185.5415,0,35,35,156,1,,,,,,,
,,,,,,,67104c7deff954cb22438402,682f0372089cc434d5c0ceea,2025-05-22_07h02.01.463,cuing_paradigm_dot,2024.1.5,Win32,163.9344262,682d556593cb38ad0a074487,,,,,,,,,,,185.5418,186.0386,,,186.2871,186.3961,right,0.0992,,,,,,,,,0.1,,,,,,186.0386,186.2871,186.3962,"[0.12871362040500342,-0.152482180068506]","[-1,-1,-1]","[-0.05339714153101294,-0.03676577971578049]","[-1,-1,-1]","[0.1677791881969186,-0.03206328060520802]","[-1,-1,-1]","[-0.12174819122934924,0.1530527304057404]","[-1,-1,-1]","[0.01014425831277427,-0.020290036952521826]","[-1,-1,-1]","[-0.053170348771430065,-0.14032423880544737]","[-1,-1,-1]","[0.04543024094592391,0.17355651486587784]","[-1,-1,-1]","[0.019456696912203236,-0.15403022159933555]","[-1,-1,-1]","[0.04734976903820078,-0.11538301434945454]","[-1,-1,-1]","[-0.015486375054842518,0.03944615752497089]","[-1,-1,-1]","[-0.10600238612777618,-0.07629203785254893]","[1,1,1]","[-0.05092627035115256,0.16506910876585618]","[-1,-1,-1]","[-0.009630021854985321,-0.08929702460774365]","[-1,-1,-1]","[0.07989366148189694,-0.18228189705073858]","[-1,-1,-1]","[-0.14201924933231824,0.0838084770371952]","[-1,-1,-1]","[0.13706051674921116,-0.09322685897729488]","[-1,-1,-1]","[0.07890027221454678,0.05471135426125479]","[-1,-1,-1]","[0.149469663035705,0.129714517745456]","[1,1,1]","[-0.026901385185713136,0.10020195102957924]","[-1,-1,-1]","[0.18301186041000717,0.04292523799962988]","[-1,-1,-1]","[-0.08049830640886992,0.08553190626579192]","[-1,-1,-1]","[-0.1457178441325229,-0.11374287791474633]","[-1,-1,-1]","[0.07611290245059377,-0.05788873766200471]","[1,1,1]","[-0.054426441843129496,0.005167738005362108]","[-1,-1,-1]","[0.1403480106270466,0.05037795223284376]","[-1,-1,-1]","[-0.1951123714812231,0.01402503463143238]","[-1,-1,-1]","[-0.15357186315259896,-0.008339417913052354]","[-1,-1,-1]","[-0.08762637137535284,-0.17461179018007966]","[-1,-1,-1]","[0.10716042110152342,0.11410456538468525]","[-1,-1,-1]","[0.10402335523625435,0.1630119386053902]","[-1,-1,-1]","[0.028859552489145637,0.023891828698342624]","[-1,-1,-1]","[-0.031758327368116596,-0.1746667833730414]","[-1,-1,-1]","[0.02,0.02]",187.4931,0,36,36,26,1,,,,,,,
,,,,,,,67104c7deff954cb22438402,682f0372089cc434d5c0ceea,2025-05-22_07h02.01.463,cuing_paradigm_dot,2024.1.5,Win32,163.9344262,682d556593cb38ad0a074487,,,,,,,,,,,187.4932,187.99,,,188.2387,188.5719,left,0.3235,,,,,,,,,0.6,,,,,,187.9901,188.2387,188.5719,"[0.04177052244909347,0.15920012631461852]","[1,1,1]","[-0.013570630958365387,-0.18200347726222357]","[-1,-1,-1]","[0.005606929702234723,0.04665431913715061]","[-1,-1,-1]","[0.1560993399116985,-0.00058830383391111]","[-1,-1,-1]","[0.02864240396129962,-0.19017097116502735]","[-1,-1,-1]","[0.0786772089966557,-0.05044746655358113]","[1,1,1]","[0.07353718244759885,-0.13613119736398452]","[-1,-1,-1]","[0.025043252574771947,-0.0521450732353659]","[1,1,1]","[0.10407345721676928,0.011461722166110163]","[1,1,1]","[-0.03701244331543275,0.0703015862950285]","[1,1,1]","[0.12738951415045344,-0.09022362289787521]","[-1,-1,-1]","[-0.09037709332141715,-0.00689965753573887]","[-1,-1,-1]","[-0.048582597440974123,0.0006458726604964476]","[1,1,1]","[-0.14149714570579686,-0.1367489113983954]","[1,1,1]","[0.06257546322431402,0.04182609545108717]","[-1,-1,-1]","[-0.08496001094275861,-0.16437515145151754]","[-1,-1,-1]","[0.018473475478948533,-0.1109448040072328]","[1,1,1]","[-0.07414927785367106,-0.06460506396374081]","[1,1,1]","[-0.08157220517905527,0.16265260800775788]","[1,1,1]","[0.15779632289143974,0.08892190231265443]","[1,1,1]","[-0.15420076696569185,-0.08554094052966753]","[1,1,1]","[-0.10884285916283624,0.0918167548112122]","[1,1,1]","[0.03037108002684467,0.0897818544424857]","[1,1,1]","[0.13446362220077976,0.145814981891917]","[-1,-1,-1]","[-0.18366853461660224,-0.03308591144562835]","[-1,-1,-1]","[0.08674138453895826,0.14532264840847378]","[1,1,1]","[-0.04361702042401285,-0.13871477983930702]","[1,1,1]","[-0.16395636853677084,0.04207182634509976]","[1,1,1]","[-0.01540900268106023,0.1756313921726433]","[-1,-1,-1]","[-0.07514798316297429,-0.10853874469929803]","[1,1,1]","[-0.0733824891767826,0.11088149106666578]","[1,1,1]","[-0.13555805066004636,-0.036638225807834324]","[-1,-1,-1]","[0.02,0.02]",189.6689,0,37,37,175,1,,,,,,,
,,,,,,,67104c7deff954cb22438402,682f0372089cc434d5c0ceea,2025-05-22_07h02.01.463,cuing_paradigm_dot,2024.1.5,Win32,163.9344262,682d556593cb38ad0a074487,,,,,,,,,,,189.6693,190.1658,,,190.4144,190.6507,left,0.228,,,,,,,,,0.6,,,,,,190.1658,190.4143,190.6507,"[0.033951562342039006,0.04276182615200295]","[1,1,1]","[0.13777294391250092,-0.11399030566018815]","[1,1,1]","[0.032817323479623885,-0.19348593479328552]","[-1,-1,-1]","[-0.12711257014795063,-0.04341903523705977]","[1,1,1]","[0.07814154659495844,-0.05451819275164255]","[-1,-1,-1]","[0.14525099837984382,0.03097073320822865]","[-1,-1,-1]","[0.1816840312016651,-0.025510222494404343]","[1,1,1]","[-0.06472205885122172,0.1638571262461122]","[1,1,1]","[-0.1794479380589348,0.03516948945003103]","[-1,-1,-1]","[0.05584534974316704,-0.1338561741918815]","[-1,-1,-1]","[-0.07393799410599929,-0.17638142378689597]","[1,1,1]","[-0.038545619721702284,0.027614783404868407]","[1,1,1]","[-0.11982150469784154,-0.13452273485307734]","[1,1,1]","[-0.046840199431986564,0.12212403027713122]","[-1,-1,-1]","[0.024832067217241557,0.11130172441825212]","[-1,-1,-1]","[-0.10673266640371235,0.14048045345344518]","[-1,-1,-1]","[0.07589579946939302,0.01055320720324163]","[-1,-1,-1]","[0.01236537881502172,-0.02799069673660415]","[-1,-1,-1]","[-0.01721663417036319,-0.10131415297219167]","[-1,-1,-1]","[0.10234687257825936,0.10152163554415367]","[1,1,1]","[0.0771498796844684,-0.16776358253616178]","[1,1,1]","[-0.1895180659341091,-0.06283682029931062]","[1,1,1]","[0.1337068460026601,-0.06051895627274953]","[1,1,1]","[-0.023443047122638817,-0.1971355694751018]","[1,1,1]","[0.0016870896439145158,0.15210053379768704]","[1,1,1]","[-0.029852296961838134,-0.02368014161884696]","[1,1,1]","[-0.05899342552974881,0.0635775535660993]","[1,1,1]","[0.0008480156308104755,-0.15936114042132718]","[1,1,1]","[-0.08884413399072208,-0.0016864609836941167]","[1,1,1]","[0.0891568704241704,0.16889517585449265]","[-1,-1,-1]","[0.11611634158504085,0.06188979382473657]","[1,1,1]","[0.11864973865601687,-0.15846455220949413]","[-1,-1,-1]","[0.02,0.02]",191.7476,0,38,38,158,1,,,,,,,
,,,,,,,67104c7deff954cb22438402,682f0372089cc434d5c0ceea,2025-05-22_07h02.01.463,cuing_paradigm_dot,2024.1.5,Win32,163.9344262,682d556593cb38ad0a074487,,,,,,,,,,,191.7478,192.2445,,,192.4932,192.6932,right,0.1891,,,,,,,,,0.9,,,,,,192.2445,192.4932,192.6932,"[0.11530939736720872,-0.1206127270996355]","[1,1,1]","[0.00413072580580735,0.0415664768490455]","[1,1,1]","[0.00006809312983695115,0.14581753735120406]","[1,1,1]","[-0.10599872072891184,0.07839460728543611]","[1,1,1]","[-0.07819467582019504,-0.018995218851155904]","[1,1,1]","[-0.1643288793017326,-0.014995540938897082]","[1,1,1]","[0.06637942545731296,0.14798093767635812]","[1,1,1]","[0.13004484570725552,0.04192032530180991]","[1,1,1]","[-0.13813981155301971,-0.06243057414606027]","[1,1,1]","[0.08127354824062223,-0.028931607182318738]","[1,1,1]","[-0.008274720111303084,-0.1994005415135192]","[-1,-1,-1]","[-0.07416968325850738,-0.1480032096574403]","[1,1,1]","[0.055388624393885255,0.05393270185062639]","[1,1,1]","[0.1417064888320419,-0.06643132549924873]","[1,1,1]","[-0.17961648377116216,0.045667519775181034]","[1,1,1]","[0.03910812411791837,0.013728123911464952]","[1,1,1]","[0.05184353105582704,-0.19088790276523987]","[1,1,1]","[0.10240574587670907,-0.08018084318683237]","[1,1,1]","[-0.12373501893204499,0.1291305246911457]","[1,1,1]","[0.15165494219221656,0.10313552465617633]","[1,1,1]","[-0.051027005912893546,-0.11010983372296997]","[1,1,1]","[0.12093754649480455,-0.015697292636026858]","[-1,-1,-1]","[0.09140005363722042,0.10612807548526319]","[1,1,1]","[0.024476602928271442,-0.16015338228877946]","[1,1,1]","[0.18970478047099246,0.02736955683785086]","[1,1,1]","[0.003289283472918086,-0.019640555132658322]","[1,1,1]","[-0.04740734868938766,-0.05968534963368781]","[1,1,1]","[-0.052809633337079734,0.06369500737666568]","[-1,-1,-1]","[0.17296911855749397,-0.1002254784450465]","[1,1,1]","[-0.06059958957058473,0.11921690535053465]","[1,1,1]","[0.1912149314879528,-0.05533063513294031]","[1,1,1]","[-0.11097713403890999,0.03342003828062994]","[1,1,1]","[0.02,0.02]",193.79,0,39,39,197,1,,,,,,,
,,,,,,,67104c7deff954cb22438402,682f0372089cc434d5c0ceea,2025-05-22_07h02.01.463,cuing_paradigm_dot,2024.1.5,Win32,163.9344262,682d556593cb38ad0a074487,,,,,,,,,,,193.7903,194.287,,,194.5358,194.7417,left,0.1945,,,,,,,,,0.55,,,,,,194.287,194.5357,194.7418,"[-0.18407609248018908,0.04764519096153541]","[1,1,1]","[-0.025853734513691714,-0.12450076642718802]","[1,1,1]","[0.1732819066582333,0.09610694173717549]","[1,1,1]","[0.03665632561074007,0.09524063791438493]","[-1,-1,-1]","[0.030662188930113757,-0.10967773445196723]","[-1,-1,-1]","[-0.09791711175497281,0.1512053408659412]","[1,1,1]","[0.12323812204115643,0.029001369353062263]","[1,1,1]","[-0.1073591935448217,0.03591630352238597]","[1,1,1]","[-0.017487542011357753,0.022517684520592326]","[1,1,1]","[-0.12833211385819093,-0.011389322443819185]","[1,1,1]","[0.04765017037606208,0.038466923224910674]","[-1,-1,-1]","[0.02469012961511111,-0.15196488704268038]","[1,1,1]","[0.1312855334689608,-0.11645153143984842]","[1,1,1]","[0.01166497536761199,-0.06509076395317032]","[1,1,1]","[-0.007454395119866547,0.0793040835490648]","[-1,-1,-1]","[0.02985753670266139,0.15789659453294458]","[-1,-1,-1]","[-0.0488082871219879,0.16597394167968094]","[-1,-1,-1]","[-0.05303551866227332,-0.07238723445492122]","[-1,-1,-1]","[0.1082249847427734,-0.018950043388076734]","[-1,-1,-1]","[-0.15177275645176963,-0.11846447980251595]","[1,1,1]","[-0.0662983028418035,-0.1689997107600269]","[1,1,1]","[0.055990656997196075,-0.0757873821911057]","[1,1,1]","[-0.11585837527544685,-0.10055422097053764]","[-1,-1,-1]","[0.037892122255396066,-0.03285556972038661]","[1,1,1]","[0.07698663613729662,-0.1438297794917419]","[-1,-1,-1]","[-0.0817428921305567,-0.027956243267787426]","[1,1,1]","[0.1307061530164969,0.08275631432895786]","[-1,-1,-1]","[0.08334494271168982,0.09661321956407762]","[-1,-1,-1]","[-0.1838828076617886,-0.03903342299037308]","[-1,-1,-1]","[0.17714321193753343,-0.06993491917618888]","[1,1,1]","[-0.059051346667860626,0.02937800891632296]","[1,1,1]","[-0.13861862361048893,-0.06629411947532503]","[-1,-1,-1]","[0.02,0.02]",195.8385,0,40,40,140,1,,,,,,,
,,,,,,,67104c7deff954cb22438402,682f0372089cc434d5c0ceea,2025-05-22_07h02.01.463,cuing_paradigm_dot,2024.1.5,Win32,163.9344262,682d556593cb38ad0a074487,,,,,,,,,,,195.8387,196.3356,,,196.5841,196.8993,right,0.306,,,,,,,,,0.45,,,,,,196.3356,196.5841,196.8993,"[-0.015774775985175588,-0.02216800276088361]","[1,1,1]","[-0.16754310546091028,-0.011332177816385786]","[-1,-1,-1]","[-0.1297560141193686,0.10456592112300922]","[1,1,1]","[0.19189366010087505,-0.014213807165242133]","[-1,-1,-1]","[0.04808622740111103,0.018870998001627098]","[-1,-1,-1]","[0.11670525563928785,-0.06686850588726613]","[-1,-1,-1]","[-0.18002691370746127,-0.058675640094584376]","[-1,-1,-1]","[0.01845765865538054,0.19492719264392017]","[-1,-1,-1]","[-0.13506551914612586,0.05361385884133222]","[-1,-1,-1]","[0.08553271439579897,-0.15303753513079932]","[1,1,1]","[0.14474939448879476,-0.028537733999759188]","[1,1,1]","[0.09802604081751264,0.02797258279304079]","[-1,-1,-1]","[-0.06411097798768182,0.18542509448561859]","[1,1,1]","[-0.053971411676359736,0.07998026934448513]","[-1,-1,-1]","[0.140024897748222,0.06072377255963267]","[1,1,1]","[0.10278427597370549,0.11942372310405151]","[1,1,1]","[0.041766539437484575,-0.10030870841166019]","[-1,-1,-1]","[-0.05489768111223992,0.02946138691618569]","[1,1,1]","[0.17388231828775538,-0.08792850538456873]","[1,1,1]","[0.00486853705359885,0.09072821061956772]","[-1,-1,-1]","[-0.0678683107179356,-0.1477001675844244]","[1,1,1]","[0.1551926773920251,-0.1258380494646389]","[-1,-1,-1]","[-0.07980278678586815,-0.019684745320549576]","[-1,-1,-1]","[-0.07760993953448131,-0.07614597548640493]","[1,1,1]","[-0.036096481691299115,-0.06694733980036577]","[-1,-1,-1]","[-0.14658724028553172,-0.09282578796500754]","[-1,-1,-1]","[0.047298120074096464,-0.17885913644728443]","[-1,-1,-1]","[-0.018450699276192646,0.12975377844762506]","[1,1,1]","[-0.13174102306063637,-0.04013532927717974]","[1,1,1]","[0.15887269442617233,0.016729115009679205]","[1,1,1]","[-0.1004881132043161,0.13797861282972643]","[-1,-1,-1]","[-0.10787904032055923,0.019619131958956953]","[-1,-1,-1]","[0.02,0.02]",197.9961,0,41,41,88,1,,,,,,,
,,,,,,,67104c7deff954cb22438402,682f0372089cc434d5c0ceea,2025-05-22_07h02.01.463,cuing_paradigm_dot,2024.1.5,Win32,163.9344262,682d556593cb38ad0a074487,,,,,,,,,,,197.9963,198.4931,,,198.7417,198.9478,left,0.1964,,,,,,,,,0.6,,,,,,198.4931,198.7417,198.9478,"[0.09711643634729354,0.04751566758091459]","[-1,-1,-1]","[-0.012026449334755983,0.12577931627798095]","[1,1,1]","[0.030253846117266014,0.008106298740247934]","[1,1,1]","[-0.06349997854249413,-0.06989560337105552]","[1,1,1]","[0.14999168629536402,-0.07531608772506407]","[-1,-1,-1]","[0.10205000556744427,0.15095452748965527]","[-1,-1,-1]","[0.1442404844671438,-0.01384105863122417]","[-1,-1,-1]","[0.04361572093964664,-0.04244872866207194]","[-1,-1,-1]","[0.0678641970313134,-0.14827460229154146]","[1,1,1]","[-0.01201859321204154,0.06495490541652209]","[-1,-1,-1]","[-0.08019477395192386,0.17941234311470308]","[-1,-1,-1]","[-0.02715423103810552,-0.0920428582747392]","[1,1,1]","[-0.012254418648171924,-0.019130512763523]","[-1,-1,-1]","[0.13775238376232068,0.0625476294496698]","[1,1,1]","[-0.14009507498634158,0.033094764222537786]","[1,1,1]","[0.05057365652430892,0.13574139551409772]","[1,1,1]","[-0.13283990043850408,-0.02596019302710055]","[1,1,1]","[-0.12715225395804772,-0.06614759586060948]","[-1,-1,-1]","[-0.0591327987515984,0.057376085882429664]","[1,1,1]","[-0.134263080237,0.12643335322441168]","[1,1,1]","[0.10904574645394459,0.09293830635048093]","[1,1,1]","[0.08675152201587018,-0.01970799558924683]","[1,1,1]","[0.0220343931854742,-0.16611021865346948]","[-1,-1,-1]","[-0.040822916405343926,-0.1304572397706526]","[1,1,1]","[0.1218478208902046,-0.1483506179513382]","[1,1,1]","[0.1835176858938665,0.03020074097154342]","[1,1,1]","[-0.04107180955345708,0.09547547181168357]","[-1,-1,-1]","[0.1910740817326198,-0.039886526275506796]","[1,1,1]","[-0.05041092701938624,-0.17248208891999248]","[1,1,1]","[0.060672344283565834,-0.09595352834500688]","[-1,-1,-1]","[0.0015380642843380978,0.18638900186885463]","[1,1,1]","[0.06080526172179817,0.09695929635802557]","[-1,-1,-1]","[0.02,0.02]",200.0447,0,42,42,159,1,,,,,,,
,,,,,,,67104c7deff954cb22438402,682f0372089cc434d5c0ceea,2025-05-22_07h02.01.463,cuing_paradigm_dot,2024.1.5,Win32,163.9344262,682d556593cb38ad0a074487,,,,,,,,,,,200.045,200.5416,,,200.7902,200.9477,right,0.1482,,,,,,,,,0.4,,,,,,200.5417,200.7902,200.9477,"[-0.1711721444879832,0.08763133342064182]","[-1,-1,-1]","[-0.09421328913418812,0.1601619742949896]","[1,1,1]","[-0.10132550603061992,-0.08160410319396849]","[1,1,1]","[0.1724461522294867,0.010828782861191724]","[-1,-1,-1]","[-0.07625527027730493,0.005427509129707788]","[1,1,1]","[0.12822085888651408,-0.052702844179656566]","[-1,-1,-1]","[0.0343982718314958,0.062443823195697204]","[1,1,1]","[-0.053281064753996306,0.061062554492935836]","[-1,-1,-1]","[-0.08470865310240207,0.09001493507032914]","[1,1,1]","[0.0339043745068942,0.19255911757624344]","[-1,-1,-1]","[0.07088493076643951,-0.04295479377057372]","[1,1,1]","[0.08991031241181115,0.13244168543828833]","[-1,-1,-1]","[0.04792291209151352,-0.113354212146441]","[-1,-1,-1]","[0.10113209005673507,0.06353628674026195]","[1,1,1]","[0.13330144746850814,-0.11341528870031789]","[1,1,1]","[0.07174302928110166,0.005727202217724165]","[1,1,1]","[0.03207500528750968,0.1390926995690778]","[1,1,1]","[-0.1381445524732004,-0.05787249679436566]","[-1,-1,-1]","[-0.030602124893353812,-0.06105174761474549]","[-1,-1,-1]","[0.04333050893757631,-0.19423835699993794]","[-1,-1,-1]","[-0.13127995051966915,-0.11641941797856309]","[1,1,1]","[-0.03567092568469452,-0.11230719783004016]","[-1,-1,-1]","[-0.16915452479625984,0.01086070271372247]","[-1,-1,-1]","[0.011067383215644072,-0.1399162962295203]","[-1,-1,-1]","[0.16965979465391284,0.05756400688439851]","[-1,-1,-1]","[-0.09803080964685788,0.04730294569706394]","[-1,-1,-1]","[0.0021573867041319384,-0.017829696812861978]","[-1,-1,-1]","[-0.0411209577876806,0.18112445703940183]","[1,1,1]","[-0.17052082218318215,-0.08213143562536292]","[-1,-1,-1]","[-0.027259912965842674,0.11975939805886535]","[1,1,1]","[-0.005262942665730784,0.07746494147516564]","[-1,-1,-1]","[0.0925327865561222,0.17362762882955285]","[-1,-1,-1]","[0.02,0.02]",202.0447,0,43,43,59,1,,,,,,,
,,,,,,,67104c7deff954cb22438402,682f0372089cc434d5c0ceea,2025-05-22_07h02.01.463,cuing_paradigm_dot,2024.1.5,Win32,163.9344262,682d556593cb38ad0a074487,,,,,,,,,,,202.0449,202.5417,,,202.7903,203.2205,left,0.4205,,,,,,,,,0.6,,,,,,202.5417,202.7903,203.2205,"[-0.05151984434086104,0.16877758910719876]","[1,1,1]","[0.14661530988995483,-0.1325254900333367]","[-1,-1,-1]","[-0.0005212308765489102,0.09419369420591102]","[1,1,1]","[-0.0886286193518609,-0.02766066260885845]","[1,1,1]","[0.10258901950317183,0.1499415495660508]","[1,1,1]","[0.06450396478909527,0.06671751212585816]","[1,1,1]","[0.11182659234694543,-0.08038730955996906]","[1,1,1]","[-0.05246707321002989,0.013549581274375127]","[1,1,1]","[0.15559228014023405,0.1224805844219003]","[-1,-1,-1]","[0.1876317703990852,-0.03067830400886578]","[-1,-1,-1]","[0.026045178225266533,-0.15619886640770633]","[1,1,1]","[0.0951287438729111,-0.04154203577009024]","[-1,-1,-1]","[0.14418628140095033,0.029717395902641823]","[1,1,1]","[0.06500803958179559,0.18100321199755404]","[1,1,1]","[-0.13945129603131615,-0.12774289944532302]","[-1,-1,-1]","[0.05926462993137982,-0.07662040989981161]","[-1,-1,-1]","[-0.09322003357573891,0.06446140797092756]","[-1,-1,-1]","[-0.19676553752801768,0.000658544841579899]","[1,1,1]","[-0.14305225794399984,-0.01493502141538375]","[1,1,1]","[0.001648903891792728,0.15173729167180874]","[1,1,1]","[0.044664933729403465,0.12542779163155637]","[1,1,1]","[-0.11195841059081076,-0.09610689705864994]","[-1,-1,-1]","[-0.014512000435926207,-0.011541890289980863]","[-1,-1,-1]","[-0.17991367078440637,0.06167283060564947]","[-1,-1,-1]","[-0.04403247852179094,-0.13764444172380857]","[1,1,1]","[-0.156661114505259,0.11392645493623133]","[-1,-1,-1]","[0.07088157368311288,-0.17552425187988316]","[-1,-1,-1]","[0.01774632168420394,-0.09836367123905393]","[1,1,1]","[0.026100103800899024,0.016033169183230417]","[1,1,1]","[-0.021353623699949684,-0.05159983142898533]","[1,1,1]","[-0.05265462670059558,0.05661760148231954]","[-1,-1,-1]","[-0.08319280904536178,0.13886515320391132]","[1,1,1]","[0.02,0.02]",204.3175,0,44,44,166,1,,,,,,,
