right,left,explain.started,explain.stopped,key_resp_3.keys,key_resp_3.rt,key_resp_3.duration,participant,session,date,expName,psychopyVersion,OS,frameRate,study_id,explain_2.started,explain_2.stopped,key_resp_4.keys,key_resp_4.rt,key_resp_4.duration,explain_3.started,explain_3.stopped,key_resp_5.keys,key_resp_5.rt,key_resp_5.duration,fixation.started,fixation.stopped,practice.started,practice.stopped,response.started,response.stopped,key_resp.keys,feedback.started,feedback.stopped,trials_2.thisRepN,trials_2.thisTrialN,trials_2.thisN,trials_2.thisIndex,trials_2.ran,white_ratio,key_resp.rt,key_resp.duration,explain_4.started,explain_4.stopped,key_resp_6.keys,key_resp_6.rt,key_resp_6.duration,dotDisplay.started,dotDisplay.stopped,ITI.started,polygon_1.pos,polygon_1.color,polygon_2.pos,polygon_2.color,polygon_3.pos,polygon_3.color,polygon_4.pos,polygon_4.color,polygon_5.pos,polygon_5.color,polygon_6.pos,polygon_6.color,polygon_7.pos,polygon_7.color,polygon_8.pos,polygon_8.color,polygon_9.pos,polygon_9.color,polygon_10.pos,polygon_10.color,polygon_11.pos,polygon_11.color,polygon_12.pos,polygon_12.color,polygon_13.pos,polygon_13.color,polygon_14.pos,polygon_14.color,polygon_15.pos,polygon_15.color,polygon_16.pos,polygon_16.color,polygon_17.pos,polygon_17.color,polygon_18.pos,polygon_18.color,polygon_19.pos,polygon_19.color,polygon_20.pos,polygon_20.color,polygon_21.pos,polygon_21.color,polygon_22.pos,polygon_22.color,polygon_23.pos,polygon_23.color,polygon_24.pos,polygon_24.color,polygon_25.pos,polygon_25.color,polygon_26.pos,polygon_26.color,polygon_27.pos,polygon_27.color,polygon_28.pos,polygon_28.color,polygon_29.pos,polygon_29.color,polygon_30.pos,polygon_30.color,polygon_31.pos,polygon_31.color,polygon_32.pos,polygon_32.color,dot_size,ITI.stopped,trials.thisRepN,trials.thisTrialN,trials.thisN,trials.thisIndex,trials.ran,break_2.started,break_2.stopped,trials_3.thisRepN,trials_3.thisTrialN,trials_3.thisN,trials_3.thisIndex,trials_3.ran
subject chose white,subject chose black,0.0007,163.3481,space,148.3347,,672879d614dce67b8c3090ea,682db3be696128d1b65f8671,2025-05-21_13h07.32.267,cuing_paradigm_dot,2024.1.5,Win32,60.24096386,682d556593cb38ad0a074487,,,,,,,,,,,,,,,,,,,,,,,,,,,,,,,,,,,,,,,,,,,,,,,,,,,,,,,,,,,,,,,,,,,,,,,,,,,,,,,,,,,,,,,,,,,,,,,,,,,,,,,,,,,,,,,,,
,,,,,,,672879d614dce67b8c3090ea,682db3be696128d1b65f8671,2025-05-21_13h07.32.267,cuing_paradigm_dot,2024.1.5,Win32,60.24096386,682d556593cb38ad0a074487,163.3486,215.9424,space,22.5749,,,,,,,,,,,,,,,,,,,,,,,,,,,,,,,,,,,,,,,,,,,,,,,,,,,,,,,,,,,,,,,,,,,,,,,,,,,,,,,,,,,,,,,,,,,,,,,,,,,,,,,,,,,,,
,,,,,,,672879d614dce67b8c3090ea,682db3be696128d1b65f8671,2025-05-21_13h07.32.267,cuing_paradigm_dot,2024.1.5,Win32,60.24096386,682d556593cb38ad0a074487,,,,,,215.9427,219.9926,space,1.0444,,,,,,,,,,,,,,,,,,,,,,,,,,,,,,,,,,,,,,,,,,,,,,,,,,,,,,,,,,,,,,,,,,,,,,,,,,,,,,,,,,,,,,,,,,,,,,,,,,,,,,,,
,,,,,,,672879d614dce67b8c3090ea,682db3be696128d1b65f8671,2025-05-21_13h07.32.267,cuing_paradigm_dot,2024.1.5,Win32,60.24096386,682d556593cb38ad0a074487,,,,,,,,,,,220.0146,220.4951,220.4956,220.747,220.7472,222.2542,,222.2543,223.3475,0,0,0,0,1,0.8,,,,,,,,,,,,,,,,,,,,,,,,,,,,,,,,,,,,,,,,,,,,,,,,,,,,,,,,,,,,,,,,,,,,,,,,,,,,,,,,,,,,,,,,
,,,,,,,672879d614dce67b8c3090ea,682db3be696128d1b65f8671,2025-05-21_13h07.32.267,cuing_paradigm_dot,2024.1.5,Win32,60.24096386,682d556593cb38ad0a074487,,,,,,,,,,,223.3479,223.8822,223.8822,224.0964,224.0964,224.627,left,224.6272,225.7273,0,1,1,1,1,0.2,0.5193,,,,,,,,,,,,,,,,,,,,,,,,,,,,,,,,,,,,,,,,,,,,,,,,,,,,,,,,,,,,,,,,,,,,,,,,,,,,,,,,,,,,,,,
,,,,,,,672879d614dce67b8c3090ea,682db3be696128d1b65f8671,2025-05-21_13h07.32.267,cuing_paradigm_dot,2024.1.5,Win32,60.24096386,682d556593cb38ad0a074487,,,,,,,,,,,,,,,,,,,,,,,,,,,,225.7279,230.7274,space,1.9809,,,,,,,,,,,,,,,,,,,,,,,,,,,,,,,,,,,,,,,,,,,,,,,,,,,,,,,,,,,,,,,,,,,,,,,,,,,,,,,,,,
,,,,,,,672879d614dce67b8c3090ea,682db3be696128d1b65f8671,2025-05-21_13h07.32.267,cuing_paradigm_dot,2024.1.5,Win32,60.24096386,682d556593cb38ad0a074487,,,,,,,,,,,230.7429,231.2351,,,231.4691,232.3439,left,,,,,,,,0.5,0.8615,,,,,,,231.2356,231.469,232.3442,"[-0.15936572442299868,0.0032331483621435317]","[1,1,1]","[-0.004673800402901127,0.17212944300820204]","[1,1,1]","[-0.02886422980476761,0.13650313617725324]","[1,1,1]","[-0.06018314491666955,-0.1407774863871928]","[1,1,1]","[0.030973635072956984,-0.03165580930806297]","[-1,-1,-1]","[-0.08995131907821853,0.14918075147187507]","[-1,-1,-1]","[-0.14476423190170185,-0.04584539650142574]","[1,1,1]","[0.09771207249358278,-0.05652344945057372]","[-1,-1,-1]","[0.16097768272528218,-0.006299531349029516]","[1,1,1]","[-0.04043923866292608,0.04495335300954231]","[1,1,1]","[0.10057405323008152,0.0895656254281523]","[-1,-1,-1]","[0.05689336864159146,0.046964256141600345]","[-1,-1,-1]","[-0.07958970707221881,-0.18235826220020773]","[-1,-1,-1]","[-0.11261278594621019,-0.15815325008518033]","[1,1,1]","[-0.10883247821217172,0.0317257629448646]","[-1,-1,-1]","[-0.01104280502198427,-0.19584802556774317]","[1,1,1]","[-0.18455884378087586,-0.036238593496584266]","[-1,-1,-1]","[0.18625771220231813,-0.052075985355819115]","[1,1,1]","[0.07760773339211029,-0.09758762968112428]","[-1,-1,-1]","[0.0424382923577267,0.11263526347425111]","[-1,-1,-1]","[0.16361119291189094,0.09267184614773172]","[-1,-1,-1]","[0.10632977692000437,0.027980363224198664]","[1,1,1]","[0.03428903973798602,0.19454689501303674]","[-1,-1,-1]","[-0.09146751393028343,-0.09954121136419013]","[1,1,1]","[0.13187500662225538,0.059381679855573105]","[1,1,1]","[0.1397501907025477,0.12652251200006098]","[-1,-1,-1]","[-0.181584515773602,0.041203406322173]","[1,1,1]","[-0.07168491144980066,-0.014525877677813841]","[1,1,1]","[0.10874792121620082,0.15639451298974974]","[-1,-1,-1]","[0.024469559192298602,-0.14722037944714514]","[-1,-1,-1]","[-0.13014147895872363,0.1065429471713507]","[-1,-1,-1]","[-0.041235199180315416,0.19334890085903622]","[1,1,1]","[0.02,0.02]",233.4461,0,0,0,90,1,,,,,,,
,,,,,,,672879d614dce67b8c3090ea,682db3be696128d1b65f8671,2025-05-21_13h07.32.267,cuing_paradigm_dot,2024.1.5,Win32,60.24096386,682d556593cb38ad0a074487,,,,,,,,,,,233.4464,233.9454,,,234.184,234.6943,right,,,,,,,,0.9,0.4953,,,,,,,233.9454,234.184,234.6944,"[-0.03901990695480812,-0.05067462288992489]","[1,1,1]","[0.10198310533067713,0.1663868076692361]","[1,1,1]","[0.024213141350641284,0.10125287533420804]","[-1,-1,-1]","[-0.13300702796291985,-0.007100347430924984]","[1,1,1]","[0.08529393644021448,-0.09626461722156626]","[1,1,1]","[0.0025207048065550015,-0.16272449532775313]","[-1,-1,-1]","[0.08216553203806101,0.029286326783884365]","[1,1,1]","[0.18096404174301395,-0.03330410553568986]","[1,1,1]","[0.07087079604042092,-0.15158887835275395]","[1,1,1]","[0.13146745028363035,-0.046984202628658885]","[1,1,1]","[0.1495717702565696,-0.1139560803285671]","[-1,-1,-1]","[-0.06851697732432081,-0.17855841081946267]","[1,1,1]","[-0.0168327299643919,0.18227930390411798]","[1,1,1]","[0.005715668745250977,-0.018535459143699844]","[1,1,1]","[-0.02656265829859589,-0.09779727622422259]","[1,1,1]","[-0.1888071696227242,-0.005165518814666544]","[1,1,1]","[0.15713247348302814,0.02033654194377503]","[1,1,1]","[0.09915600104786815,0.10894609786690938]","[1,1,1]","[0.06282762397339105,0.07819625950487964]","[1,1,1]","[0.05251662668359875,0.13245628650918884]","[1,1,1]","[0.002820652854121875,0.14286831062288682]","[1,1,1]","[-0.03125005116313504,0.06703518593637289]","[1,1,1]","[-0.1481538320406764,0.08867461379574644]","[1,1,1]","[-0.14080181241277057,-0.14192616352318652]","[1,1,1]","[0.16315826621228977,0.0785668841835094]","[1,1,1]","[-0.14382743463997885,-0.08019208725570556]","[1,1,1]","[-0.09607622184723112,-0.1390118587669049]","[1,1,1]","[-0.14470099991382898,0.033667960482700834]","[1,1,1]","[0.026568802419425937,0.022068495717116197]","[1,1,1]","[-0.10208990410114814,-0.0775159153676024]","[1,1,1]","[0.08989075323482085,-0.013333721052286751]","[1,1,1]","[-0.08323376116880242,0.16414426754678782]","[1,1,1]","[0.02,0.02]",235.7972,0,1,1,209,1,,,,,,,
,,,,,,,672879d614dce67b8c3090ea,682db3be696128d1b65f8671,2025-05-21_13h07.32.267,cuing_paradigm_dot,2024.1.5,Win32,60.24096386,682d556593cb38ad0a074487,,,,,,,,,,,235.7975,236.2997,,,236.5454,237.1791,left,,,,,,,,0.45,0.6215,,,,,,,236.2997,236.5454,237.1792,"[0.05185034085228842,0.0019220220253194319]","[1,1,1]","[0.058751555831563836,0.16340196671649218]","[-1,-1,-1]","[-0.051989878481978447,0.09410162924312122]","[1,1,1]","[-0.13497387838975936,0.06760941055821973]","[1,1,1]","[0.04410243972135421,-0.19110090160826493]","[-1,-1,-1]","[-0.07020625865747879,-0.13247176513999645]","[-1,-1,-1]","[-0.08863276981662106,0.04735681007115495]","[-1,-1,-1]","[0.12047875964879057,0.0156953129498207]","[-1,-1,-1]","[0.024204729094820514,-0.12182051803249119]","[-1,-1,-1]","[-0.16294474443017815,-0.08265539613672106]","[1,1,1]","[-0.04589428487693794,-0.0017342228589866497]","[-1,-1,-1]","[0.04314093114052793,-0.05265842140054491]","[1,1,1]","[0.13894446300693294,-0.12925441913105953]","[1,1,1]","[0.018614865102798275,0.09099290801402951]","[-1,-1,-1]","[-0.14960781330989928,-0.13220192970364938]","[1,1,1]","[-0.047329575859992555,0.16950277205809247]","[-1,-1,-1]","[-0.08838216189292165,0.12616077140961388]","[1,1,1]","[0.09836980909762762,0.056191899874979606]","[-1,-1,-1]","[0.11814585079448167,0.15724780920541134]","[1,1,1]","[-0.17428425577155104,0.02630232023701763]","[1,1,1]","[0.06569267190695302,-0.11092483456267255]","[-1,-1,-1]","[-0.1286715642148218,0.13791235063973206]","[-1,-1,-1]","[-0.03992874976363131,-0.10302403322533975]","[1,1,1]","[0.1133373949571277,-0.04061951587852186]","[1,1,1]","[-0.0027557352001724017,0.022535928361499074]","[-1,-1,-1]","[0.13634548557073323,-0.0828895353531336]","[1,1,1]","[-0.08951978497812378,-0.056551163407949225]","[-1,-1,-1]","[-0.10273154710308385,0.003316748707662049]","[-1,-1,-1]","[0.147061127859221,0.11386999007075779]","[-1,-1,-1]","[0.040035999705783906,0.048302136412789784]","[-1,-1,-1]","[0.06627180749185184,0.11434097218425787]","[1,1,1]","[0.0012724066798684521,0.16381538528554257]","[-1,-1,-1]","[0.02,0.02]",238.2801,0,2,2,78,1,,,,,,,
,,,,,,,672879d614dce67b8c3090ea,682db3be696128d1b65f8671,2025-05-21_13h07.32.267,cuing_paradigm_dot,2024.1.5,Win32,60.24096386,682d556593cb38ad0a074487,,,,,,,,,,,238.2805,238.7814,,,239.0305,239.73,left,,,,,,,,0.4,0.6898,,,,,,,238.7815,239.0305,239.7301,"[0.05399270827410038,-0.08832338459230481]","[1,1,1]","[0.09261056785711491,-0.1538229374249173]","[1,1,1]","[-0.07342563528413963,0.1243564641880834]","[-1,-1,-1]","[-0.06011921028264364,-0.008234509486609922]","[-1,-1,-1]","[0.15130695613705572,-0.0673652054798023]","[1,1,1]","[0.1768788973590836,-0.014708457623321777]","[-1,-1,-1]","[0.007857969130916966,-0.057896309042258065]","[1,1,1]","[0.07844617463637207,0.04457908926313726]","[-1,-1,-1]","[0.1692087751837813,0.08388728016860587]","[-1,-1,-1]","[0.03899676577332614,-0.1701099596646139]","[1,1,1]","[0.09728984630106867,-0.11014450725373055]","[1,1,1]","[-0.00459299370544071,-0.18912739129112316]","[-1,-1,-1]","[-0.11927910745514082,0.15559186768976738]","[1,1,1]","[-0.06034489766737617,-0.06944575847032568]","[-1,-1,-1]","[-0.11774790275087178,0.04063662966401926]","[-1,-1,-1]","[-0.10977491036872969,-0.09278567133803349]","[-1,-1,-1]","[-0.18658356909979265,-0.014042463115468173]","[-1,-1,-1]","[0.07978521224979443,0.1515803214223561]","[-1,-1,-1]","[0.18475806763625777,0.03223809642949472]","[1,1,1]","[0.1033687259657511,-0.06992627349733792]","[1,1,1]","[0.014083011241405033,0.1218045118561851]","[-1,-1,-1]","[-0.02479298647499836,0.13646264785579826]","[-1,-1,-1]","[-0.06866323253399341,-0.12204631973143923]","[1,1,1]","[-0.03710355316807436,-0.15930563369839135]","[1,1,1]","[-0.02678810393373859,0.17789881256530693]","[1,1,1]","[-0.004556084577356024,0.07061469687157873]","[-1,-1,-1]","[-0.016254417859016303,0.011756268959923337]","[-1,-1,-1]","[0.1283706504601769,-0.029103182941600435]","[-1,-1,-1]","[-0.12737762374095693,-0.14174083700755258]","[-1,-1,-1]","[0.11556513191852683,0.08564528874106168]","[-1,-1,-1]","[0.056366174843527614,-0.0009790423705017916]","[-1,-1,-1]","[-0.17171553277905918,0.09794944419369984]","[1,1,1]","[0.02,0.02]",240.8216,0,3,3,58,1,,,,,,,
,,,,,,,672879d614dce67b8c3090ea,682db3be696128d1b65f8671,2025-05-21_13h07.32.267,cuing_paradigm_dot,2024.1.5,Win32,60.24096386,682d556593cb38ad0a074487,,,,,,,,,,,240.822,241.3131,,,241.5632,242.0627,left,,,,,,,,0.45,0.4896,,,,,,,241.3131,241.5631,242.0628,"[-0.13073759868341644,-0.07141774379834818]","[1,1,1]","[-0.07363787825185655,-0.04374851498668763]","[-1,-1,-1]","[0.0065698636343868464,0.13583740131831865]","[-1,-1,-1]","[0.10893622250503632,0.0893693382159365]","[-1,-1,-1]","[0.15212454256118005,-0.09370554596805215]","[-1,-1,-1]","[-0.1584031516520209,0.10601234966334065]","[1,1,1]","[-0.07337051028225193,0.11056592732585063]","[-1,-1,-1]","[-0.15547999415061872,0.02349546911048974]","[1,1,1]","[-0.010618796801041164,-0.012518041208480709]","[-1,-1,-1]","[-0.032489640821838285,0.18658440884957894]","[1,1,1]","[0.13004647643960254,0.04501091680716492]","[-1,-1,-1]","[0.05405747122112793,-0.0014227400263665396]","[-1,-1,-1]","[0.07906524473077195,-0.14157312021929142]","[1,1,1]","[0.048688943744841444,0.17563581801443173]","[-1,-1,-1]","[-0.1988429666995529,0.01955685952543362]","[1,1,1]","[-0.018739188407451753,-0.10725286409410645]","[-1,-1,-1]","[0.028142787916781976,0.10023741061393128]","[1,1,1]","[-0.09716010756683298,-0.12120213564785495]","[-1,-1,-1]","[-0.07231395688514461,0.028560677337956357]","[-1,-1,-1]","[-0.019222812631522333,0.09925542948730534]","[-1,-1,-1]","[0.012618280028791418,-0.14021172167289891]","[1,1,1]","[-0.09963339049217503,0.16726803621502837]","[1,1,1]","[-0.13719945899294964,0.05954468902514878]","[-1,-1,-1]","[0.09656637335040302,-0.0771514038759329]","[-1,-1,-1]","[-0.09065434434294334,-0.16094293489044834]","[-1,-1,-1]","[0.18120870961171948,0.04235939573042192]","[1,1,1]","[-0.007326744412700368,-0.17839573596827873]","[-1,-1,-1]","[0.07957974566848654,0.0555801940600537]","[1,1,1]","[0.1737468745594703,-0.03951386488736068]","[1,1,1]","[0.1533272709879682,0.11547892963210327]","[1,1,1]","[-0.11549209011174535,-0.020721366139278424]","[-1,-1,-1]","[0.038237852565812566,0.04463649338011456]","[1,1,1]","[0.02,0.02]",243.1547,0,4,4,72,1,,,,,,,
,,,,,,,672879d614dce67b8c3090ea,682db3be696128d1b65f8671,2025-05-21_13h07.32.267,cuing_paradigm_dot,2024.1.5,Win32,60.24096386,682d556593cb38ad0a074487,,,,,,,,,,,243.155,243.6469,,,243.8901,244.618,left,,,,,,,,0.1,0.7195,,,,,,,243.6469,243.89,244.6181,"[0.16896874729433423,-0.09178045229929217]","[-1,-1,-1]","[-0.023110920307605736,0.1588819470328329]","[-1,-1,-1]","[-0.014209572477868292,0.0633075792736326]","[-1,-1,-1]","[0.11243650390736488,0.08652597530511323]","[-1,-1,-1]","[-0.15412850981418813,0.0028522655892673945]","[-1,-1,-1]","[0.07700460912120977,0.01779021554308896]","[-1,-1,-1]","[-0.09220170911045021,-0.04590560386964457]","[-1,-1,-1]","[0.044868748760168164,-0.12282872074752324]","[-1,-1,-1]","[-0.013304119913314066,-0.07537209581258715]","[-1,-1,-1]","[-0.056893879453825805,-0.0723036016060529]","[-1,-1,-1]","[-0.09416628180755107,0.12747221453163593]","[-1,-1,-1]","[0.03281836696434216,0.06179905736654495]","[-1,-1,-1]","[-0.07347549891732516,-0.1367702111440736]","[-1,-1,-1]","[0.08518021007610553,-0.10680300733159061]","[-1,-1,-1]","[-0.049380485167864974,0.03453086958328382]","[-1,-1,-1]","[-0.1743000407679206,-0.046727474763722326]","[-1,-1,-1]","[0.19888541592193468,0.016704529300006626]","[-1,-1,-1]","[0.06394294200882969,0.11904210820748025]","[1,1,1]","[0.06257690664796933,-0.05750299610216944]","[1,1,1]","[0.008848013000407556,0.11118753665326347]","[-1,-1,-1]","[-0.11482410333741762,-0.12995724611071888]","[-1,-1,-1]","[-0.1947477740498578,0.004156510348919235]","[-1,-1,-1]","[-0.13361388726962195,-0.05056482185178075]","[-1,-1,-1]","[-0.1518664124861448,-0.10812815488906129]","[-1,-1,-1]","[0.14335323851091533,-0.13004371042828303]","[-1,-1,-1]","[0.17791157651353853,0.06774330018570772]","[-1,-1,-1]","[0.031967162817346385,-0.018760808341067314]","[-1,-1,-1]","[0.05726007110938754,0.1745018976906993]","[-1,-1,-1]","[-0.010972081716715761,0.02287993367362654]","[-1,-1,-1]","[0.04827013847288902,-0.164840151306753]","[-1,-1,-1]","[0.12345124091917377,-0.018132981039361944]","[1,1,1]","[-0.19303298946460318,0.050291578955601726]","[-1,-1,-1]","[0.02,0.02]",245.713,0,5,5,8,1,,,,,,,
,,,,,,,672879d614dce67b8c3090ea,682db3be696128d1b65f8671,2025-05-21_13h07.32.267,cuing_paradigm_dot,2024.1.5,Win32,60.24096386,682d556593cb38ad0a074487,,,,,,,,,,,245.7134,246.2159,,,246.4637,247.1639,right,,,,,,,,0.55,0.6893,,,,,,,246.216,246.4637,247.164,"[-0.007703979291605993,-0.12650779918154348]","[-1,-1,-1]","[-0.015545511385254963,-0.061777415227180985]","[1,1,1]","[0.18330243996217424,0.028037797518560642]","[1,1,1]","[0.08179921109526206,-0.16089572362555804]","[1,1,1]","[-0.0950371584877731,0.12049956208079438]","[1,1,1]","[0.03211674720306193,0.14049099974514656]","[1,1,1]","[-0.1751467540221861,0.005532101606787739]","[-1,-1,-1]","[0.04854540944656567,0.19169361579800345]","[1,1,1]","[0.0331068258309698,0.0504885647447546]","[-1,-1,-1]","[0.01771044536984828,-0.03145703053297387]","[1,1,1]","[-0.07597864627706771,-0.10097872227305775]","[1,1,1]","[0.10368741565689858,0.15039352864565736]","[-1,-1,-1]","[-0.11341343427871474,0.043476528439123606]","[-1,-1,-1]","[0.1174930325162435,0.061564511626216956]","[1,1,1]","[-0.15797966841267694,0.062263724732722944]","[-1,-1,-1]","[-0.14022016211730154,-0.0490364797109643]","[1,1,1]","[-0.019405307159681872,0.07826365881054163]","[1,1,1]","[-0.043732200683583355,-0.16164868262995125]","[1,1,1]","[-0.07460266933269419,0.0010860595510827538]","[-1,-1,-1]","[0.08577780515280115,0.02617809227525552]","[-1,-1,-1]","[0.10091095468131361,-0.014474396232859931]","[-1,-1,-1]","[-0.08993426346324178,-0.038500089376187936]","[1,1,1]","[0.07771603645049834,-0.08347808711775653]","[1,1,1]","[0.10134374766938653,0.10193061440296565]","[-1,-1,-1]","[0.15147060258336595,-0.05824583103876207]","[1,1,1]","[0.1303170702176641,-0.14995584076087043]","[1,1,1]","[-0.14481590223715232,0.1301020470664926]","[-1,-1,-1]","[-0.13050407345168033,0.0032886861551684366]","[1,1,1]","[-0.047769028197465174,0.04709351164321827]","[-1,-1,-1]","[0.15638954902058447,0.12103502795218798]","[-1,-1,-1]","[-0.1512404283853857,-0.11670819688747618]","[1,1,1]","[0.16561143181593557,-0.11083618847798374]","[-1,-1,-1]","[0.02,0.02]",248.2623,0,6,6,121,1,,,,,,,
,,,,,,,672879d614dce67b8c3090ea,682db3be696128d1b65f8671,2025-05-21_13h07.32.267,cuing_paradigm_dot,2024.1.5,Win32,60.24096386,682d556593cb38ad0a074487,,,,,,,,,,,248.2626,248.7498,,,248.9964,249.4287,right,,,,,,,,0.9,0.4199,,,,,,,248.7499,248.9963,249.4288,"[0.0047595374892851925,-0.07518252806461928]","[1,1,1]","[-0.10300347161583694,-0.12384423406421262]","[1,1,1]","[0.11321415593463224,-0.09954996211807528]","[1,1,1]","[-0.08436856817544595,0.023144930114176624]","[1,1,1]","[0.10914199737856511,-0.015080245343737851]","[1,1,1]","[0.0043518913787908625,-0.005054350227052561]","[1,1,1]","[0.1088748751959937,0.09863615327339877]","[1,1,1]","[0.07698434075171151,-0.15816224245139124]","[1,1,1]","[-0.15222216782356604,-0.08248902622995913]","[1,1,1]","[0.15384114366674517,-0.0395586447542707]","[1,1,1]","[0.04895756555502132,0.10552863343705071]","[1,1,1]","[-0.015869179072980577,-0.1410953329266322]","[-1,-1,-1]","[0.06952150293367969,-0.0036918616099120938]","[1,1,1]","[-0.019662462393273992,0.1484816441174467]","[1,1,1]","[-0.11540430475906874,0.09507653512742634]","[1,1,1]","[0.05439147281633784,-0.11518703341920983]","[-1,-1,-1]","[-0.15111251398806905,0.07534067699833703]","[1,1,1]","[-0.024658973119093312,-0.03471829532711143]","[1,1,1]","[0.012816314606449263,0.07881241494791928]","[1,1,1]","[0.16046456932093364,-0.0867986337193772]","[1,1,1]","[-0.09954519607146052,0.16178190651251276]","[1,1,1]","[-0.018103445998442214,0.046827555113727694]","[1,1,1]","[0.06917336983432118,0.062286724597905685]","[1,1,1]","[0.025128204050254576,-0.1874061880183466]","[1,1,1]","[-0.03266597318375708,0.09263984119893676]","[-1,-1,-1]","[-0.07178319264819844,-0.04272410625321101]","[1,1,1]","[-0.05509502887775324,-0.163567929519918]","[1,1,1]","[-0.1369809442940688,-0.029969320305893363]","[1,1,1]","[0.1487643888196607,0.0034871797917107577]","[1,1,1]","[-0.09997671273592898,-0.07833041979342353]","[1,1,1]","[-0.13729807054432808,0.016103401001021964]","[1,1,1]","[-0.10521173038169962,-0.16632097073100482]","[1,1,1]","[0.02,0.02]",250.5301,0,7,7,186,1,,,,,,,
,,,,,,,672879d614dce67b8c3090ea,682db3be696128d1b65f8671,2025-05-21_13h07.32.267,cuing_paradigm_dot,2024.1.5,Win32,60.24096386,682d556593cb38ad0a074487,,,,,,,,,,,250.5304,251.0422,,,251.2855,252.3298,left,,,,,,,,0.4,1.0319,,,,,,,251.0422,251.2854,252.3299,"[0.08024502059958276,-0.044449609970667686]","[1,1,1]","[0.04662016742829224,-0.1842865013173021]","[-1,-1,-1]","[-0.1611002348458691,-0.026644683872314133]","[1,1,1]","[-0.06220269389748238,-0.018326558812838928]","[1,1,1]","[0.025233706983638027,0.024535395642209586]","[1,1,1]","[0.15897939474579137,-0.03825145537492592]","[1,1,1]","[0.05516089287883524,-0.01095749086875558]","[-1,-1,-1]","[-0.048966078390841696,-0.18309107706406189]","[-1,-1,-1]","[-0.015073071265739655,0.1063193226359754]","[1,1,1]","[-0.08217116078643716,-0.13644374528183398]","[-1,-1,-1]","[0.16927105723264177,0.050390830414265245]","[-1,-1,-1]","[-0.18021174722941374,-0.08181297545942795]","[-1,-1,-1]","[-0.13210801162963043,-0.1172411302440391]","[1,1,1]","[-0.021727997410609188,0.004821250916973102]","[-1,-1,-1]","[0.04487810129822054,0.18816992255566134]","[1,1,1]","[0.049451204688802014,0.07630046727829622]","[-1,-1,-1]","[-0.12935352959859167,0.038054472948460344]","[-1,-1,-1]","[-0.10271523056419928,-0.04736887408690509]","[1,1,1]","[0.0656508643951789,0.13915844066191604]","[1,1,1]","[0.0054379609834844,-0.15497896716726742]","[-1,-1,-1]","[0.08187346474219505,-0.15390749628752792]","[1,1,1]","[-0.07876751536199246,0.0213388804438114]","[1,1,1]","[0.1972390962440589,0.018619011568116347]","[-1,-1,-1]","[0.12328233991809855,-0.1491707164417605]","[-1,-1,-1]","[-0.10671675505306921,0.16203107416258766]","[-1,-1,-1]","[0.07772820062690948,0.04153749167936145]","[-1,-1,-1]","[0.13291171810037808,0.11928409590589552]","[-1,-1,-1]","[-0.0638066315159664,0.18842790761164338]","[-1,-1,-1]","[0.11122740186494982,-0.007719273461837945]","[-1,-1,-1]","[0.037417416669245654,-0.07632722721251056]","[1,1,1]","[0.1531026407134479,-0.08989628150418762]","[-1,-1,-1]","[-0.026023174303057433,-0.04272524523700796]","[-1,-1,-1]","[0.02,0.02]",253.4311,0,8,8,56,1,,,,,,,
,,,,,,,672879d614dce67b8c3090ea,682db3be696128d1b65f8671,2025-05-21_13h07.32.267,cuing_paradigm_dot,2024.1.5,Win32,60.24096386,682d556593cb38ad0a074487,,,,,,,,,,,253.4317,253.9342,,,254.1807,254.5633,right,,,,,,,,0.6,0.3715,,,,,,,253.9342,254.1807,254.5633,"[-0.08033845235515374,0.015557515271829957]","[1,1,1]","[0.07227997053214662,-0.0805058730885968]","[-1,-1,-1]","[0.06805390065328003,0.06935005702425959]","[-1,-1,-1]","[-0.02413224109068979,0.04637660496066935]","[1,1,1]","[0.18580931518956711,0.006465638350157464]","[1,1,1]","[0.09529551462156143,0.1111128009728171]","[-1,-1,-1]","[-0.17626036392857658,0.06570349882472025]","[-1,-1,-1]","[-0.05703913336323344,0.17464241148729542]","[1,1,1]","[0.06023944684173632,-0.003375781034957056]","[1,1,1]","[-0.0333175411365891,-0.012865397588460238]","[1,1,1]","[0.039536365626906336,0.10411370269214858]","[1,1,1]","[-0.05062570651372566,-0.06457911201212697]","[1,1,1]","[-0.13411400669009996,-0.004264448847257647]","[-1,-1,-1]","[-0.01198571684152912,-0.10071971095652182]","[1,1,1]","[0.036593053720290744,0.04192806245250368]","[-1,-1,-1]","[-0.010629730249683975,-0.05824952554420555]","[1,1,1]","[0.0810783551863445,0.1786891316569385]","[-1,-1,-1]","[0.13510992613728376,-0.1210774019435731]","[1,1,1]","[-0.13187809266848763,0.13328878712730038]","[-1,-1,-1]","[-0.06527524183035126,0.0748376356637745]","[-1,-1,-1]","[0.04124661527239916,0.1846234239110207]","[1,1,1]","[-0.1425446375398214,-0.10301310604955281]","[-1,-1,-1]","[-0.10255961264092164,-0.09422135945377642]","[-1,-1,-1]","[-0.12663609284743138,-0.1515076742029283]","[1,1,1]","[0.009887421065634335,-0.1828187378245441]","[-1,-1,-1]","[-0.10993317772364247,0.08794217746558448]","[1,1,1]","[0.061310474592827034,-0.19036868383235145]","[1,1,1]","[-0.07739470666008473,-0.17752028991302754]","[1,1,1]","[-0.19308221496954417,0.026520681585820837]","[1,1,1]","[0.14267357851142679,0.0765512885980125]","[1,1,1]","[0.13854255790414569,-0.08113311242256613]","[1,1,1]","[-0.10996849391883985,-0.043458187728068025]","[-1,-1,-1]","[0.02,0.02]",255.6651,0,9,9,164,1,,,,,,,
,,,,,,,672879d614dce67b8c3090ea,682db3be696128d1b65f8671,2025-05-21_13h07.32.267,cuing_paradigm_dot,2024.1.5,Win32,60.24096386,682d556593cb38ad0a074487,,,,,,,,,,,255.6655,256.1685,,,256.4141,256.9969,right,,,,,,,,0.45,0.5691,,,,,,,256.1686,256.414,256.997,"[0.13601454568941226,-0.013818501964049178]","[-1,-1,-1]","[-0.0048441050547098005,-0.06272063530015479]","[1,1,1]","[0.006692806981772847,0.15752021714938705]","[1,1,1]","[0.10098467337566232,-0.14608513101973675]","[1,1,1]","[0.00012175686406474383,-0.13865372327899445]","[-1,-1,-1]","[0.052932418602646567,0.15846434826102995]","[1,1,1]","[0.10781886642749558,0.06096073536382725]","[-1,-1,-1]","[0.045774355788201326,0.048412829104041606]","[1,1,1]","[0.16233751441293037,0.05613976340921988]","[1,1,1]","[0.19753171938327996,0.01580236911517223]","[-1,-1,-1]","[-0.06846868343062514,-0.17567707806301372]","[-1,-1,-1]","[-0.06564850324434146,-0.036186575460930716]","[1,1,1]","[0.11889304579855457,0.11538853361390637]","[1,1,1]","[-0.061281975132209024,-0.1249728450760199]","[-1,-1,-1]","[0.09666504470479911,0.14990173681205252]","[1,1,1]","[0.1818565498011854,-0.03365091031982661]","[-1,-1,-1]","[-0.1033692644854527,0.0569137245341134]","[1,1,1]","[-0.11096569378625812,-0.035371071776324106]","[1,1,1]","[-0.03708407257329889,0.10410729421132567]","[-1,-1,-1]","[-0.07359691305511828,0.1739555025500476]","[-1,-1,-1]","[0.019381055364580985,0.09061887260797676]","[1,1,1]","[-0.17964929285370443,0.06349699723989068]","[-1,-1,-1]","[0.04507088662913355,-0.13378732524628623]","[-1,-1,-1]","[0.01610362791848289,-0.01281761960895624]","[-1,-1,-1]","[0.07548661195855706,-0.04980713249073615]","[1,1,1]","[-0.1524077514783136,-0.09290488970298813]","[-1,-1,-1]","[0.12631368244149052,-0.09828841616350859]","[1,1,1]","[-0.11280974951184998,0.1364744127963484]","[-1,-1,-1]","[-0.023397271678595077,-0.17112528706812793]","[-1,-1,-1]","[-0.14096968775854682,0.021194785194965766]","[-1,-1,-1]","[0.059620538910157624,0.1053626003335256]","[-1,-1,-1]","[-0.04652225825458579,0.027335598424841866]","[-1,-1,-1]","[0.02,0.02]",258.0969,0,10,10,84,1,,,,,,,
,,,,,,,672879d614dce67b8c3090ea,682db3be696128d1b65f8671,2025-05-21_13h07.32.267,cuing_paradigm_dot,2024.1.5,Win32,60.24096386,682d556593cb38ad0a074487,,,,,,,,,,,258.0973,258.588,,,258.845,259.3306,left,,,,,,,,0.4,0.4714,,,,,,,258.5881,258.845,259.3307,"[0.005843484298458371,0.0840395411433109]","[-1,-1,-1]","[0.09874960144044438,0.15390298756243426]","[-1,-1,-1]","[0.07350265279474294,-0.12184179344764014]","[-1,-1,-1]","[0.056201522282785576,0.15107032356821476]","[-1,-1,-1]","[0.12902981800810845,-0.04008582159209571]","[-1,-1,-1]","[-0.04197857326412259,0.029890896609427092]","[1,1,1]","[0.07541458939480895,-0.07368829927223412]","[-1,-1,-1]","[-0.109533192822291,0.04366786273674499]","[-1,-1,-1]","[-0.03109072837961847,-0.18692463765649897]","[-1,-1,-1]","[0.09076017838481655,0.038129516704129285]","[-1,-1,-1]","[0.01997708498243955,-0.12668698279131066]","[1,1,1]","[0.17569952707770858,-0.04644647432247036]","[-1,-1,-1]","[-0.18081914621899872,-0.023218713545970958]","[1,1,1]","[0.090312310264703,-0.0026209658815658033]","[-1,-1,-1]","[-0.04184929930412996,-0.11304964734022528]","[1,1,1]","[0.15471504443659603,0.06676089819098861]","[1,1,1]","[-0.12347655014765917,-0.07819311618678144]","[1,1,1]","[-0.06234707057413778,0.07655989301894722]","[-1,-1,-1]","[-0.027815870552082927,0.16632669865220914]","[-1,-1,-1]","[0.1374138828746801,0.0005370900232638285]","[1,1,1]","[0.1375160001318271,0.10877398186917156]","[-1,-1,-1]","[-0.16916980866062192,0.10026350207378097]","[1,1,1]","[0.04264035524349032,0.024098687244888985]","[1,1,1]","[0.04616271969912018,0.07137460801335448]","[1,1,1]","[0.1547024960780601,-0.12646189042705155]","[-1,-1,-1]","[0.09043730082466044,-0.1611946853283273]","[1,1,1]","[-0.15144235904646902,0.025312916615954393]","[1,1,1]","[-0.05466324743533964,0.13508022714114912]","[-1,-1,-1]","[-0.08388156161433248,-0.044368749442007235]","[-1,-1,-1]","[-0.07370547621853928,-0.16549003678482033]","[-1,-1,-1]","[-0.08683642106647686,0.17041642671134938]","[-1,-1,-1]","[0.0012082405812789496,-0.07505298896731814]","[1,1,1]","[0.02,0.02]",260.4323,0,11,11,45,1,,,,,,,
,,,,,,,672879d614dce67b8c3090ea,682db3be696128d1b65f8671,2025-05-21_13h07.32.267,cuing_paradigm_dot,2024.1.5,Win32,60.24096386,682d556593cb38ad0a074487,,,,,,,,,,,260.4326,260.8873,,,261.1321,261.6977,right,,,,,,,,0.5,0.5505,,,,,,,260.8873,261.132,261.6978,"[0.005535186614764087,0.0033226704713578237]","[1,1,1]","[-0.1358697564344316,-0.1397603708409632]","[-1,-1,-1]","[-0.0675513748851437,-0.1603389778232811]","[-1,-1,-1]","[-0.0791568070799189,0.13473815502708197]","[1,1,1]","[0.14474764366820936,-0.010871805880064946]","[-1,-1,-1]","[0.10727797201115988,0.07832924328426161]","[-1,-1,-1]","[-0.1606602752228845,-0.09045435060942196]","[1,1,1]","[0.030955481961275472,-0.0431079891058754]","[-1,-1,-1]","[0.0895195810153771,-0.10551581300546842]","[-1,-1,-1]","[0.048701885177983,0.0399323991158271]","[1,1,1]","[0.13588363063776507,-0.05417890794047576]","[1,1,1]","[0.09105461776197234,0.026534696583837503]","[1,1,1]","[0.11173106678119289,0.15496303306820913]","[-1,-1,-1]","[-0.14074185276701937,-0.052986874403213376]","[1,1,1]","[0.06627852075253352,-0.15943917334306307]","[1,1,1]","[0.031193020829049428,0.15557804526670305]","[-1,-1,-1]","[-0.006390764898065311,-0.08292230679542346]","[1,1,1]","[0.0841180087355216,-0.032579912764013765]","[-1,-1,-1]","[0.0589536625924693,0.11212955088989626]","[1,1,1]","[0.05973068349350761,-0.07838473357016118]","[-1,-1,-1]","[0.1610245728691601,0.060738134371179656]","[-1,-1,-1]","[-0.0037683818548958667,0.0780410779440269]","[-1,-1,-1]","[-0.08707593770608049,-0.07762952705405979]","[-1,-1,-1]","[-0.03389219609763766,-0.1867724312098757]","[1,1,1]","[0.03475302037176211,-0.12109621904231807]","[-1,-1,-1]","[0.18892320845205982,-0.02335463417425004]","[1,1,1]","[0.11474103996125265,-0.15162297568878885]","[-1,-1,-1]","[-0.07010178972446401,0.05084651833774564]","[1,1,1]","[-0.19850836920535064,0.020006652566210988]","[1,1,1]","[-0.01888862414219469,0.1782428829137527]","[1,1,1]","[0.15087593424329754,-0.1001877417703158]","[1,1,1]","[-0.16606107416275306,0.06840854797009549]","[-1,-1,-1]","[0.02,0.02]",262.7987,0,12,12,93,1,,,,,,,
,,,,,,,672879d614dce67b8c3090ea,682db3be696128d1b65f8671,2025-05-21_13h07.32.267,cuing_paradigm_dot,2024.1.5,Win32,60.24096386,682d556593cb38ad0a074487,,,,,,,,,,,262.7991,263.3026,,,263.5515,263.9257,right,,,,,,,,0.9,0.364,,,,,,,263.3027,263.5515,263.9258,"[0.06573056647133245,-0.00008948356787170885]","[1,1,1]","[-0.10970017019083113,0.09674876208897863]","[1,1,1]","[-0.1390845317639306,-0.13906724844820825]","[1,1,1]","[0.18956461319771556,0.04586117167687214]","[1,1,1]","[-0.1289369019104337,0.15127972150894992]","[1,1,1]","[0.12362383793192379,0.103085444065586]","[1,1,1]","[-0.06854698650700734,0.035774594505748096]","[1,1,1]","[0.09912778602103144,-0.05170157369560322]","[1,1,1]","[-0.04698400199584509,-0.0960699869793598]","[1,1,1]","[-0.06120981822998941,-0.14220528534362806]","[1,1,1]","[0.11302308860543843,-0.004022682348668682]","[1,1,1]","[-0.08917692931850633,-0.17498790204636794]","[1,1,1]","[0.09786288316617289,-0.1290116376156152]","[1,1,1]","[0.0031679480224326957,0.13427716435453685]","[1,1,1]","[0.11989131909306971,-0.08930951906191593]","[1,1,1]","[0.1883848215769348,-0.005113274014992111]","[1,1,1]","[0.03792082054180913,-0.11913013201375508]","[1,1,1]","[-0.18390944979968293,0.07290371081905414]","[1,1,1]","[-0.06363551692433268,-0.029152111298945897]","[1,1,1]","[-0.02295192081362676,0.191432567025873]","[-1,-1,-1]","[-0.061702225395609954,0.11201526196569384]","[1,1,1]","[0.0302450557822799,0.03175349173017576]","[1,1,1]","[0.1623327833942169,0.08721867026544912]","[1,1,1]","[-0.09281843248679665,-0.07029711535437248]","[-1,-1,-1]","[0.029604908019363992,-0.07510391360209911]","[-1,-1,-1]","[-0.012953860315364624,-0.18621575812536384]","[1,1,1]","[-0.17422153316459998,-0.09531079665132709]","[1,1,1]","[0.09354384753155778,0.1684876112192077]","[1,1,1]","[0.045304045232832345,0.08771215720840522]","[1,1,1]","[-0.1392535092064747,-0.06169066281474701]","[1,1,1]","[-0.09363220046335877,0.1764232885792202]","[1,1,1]","[0.1886968943134518,-0.059312009203595986]","[1,1,1]","[0.02,0.02]",265.0183,0,13,13,205,1,,,,,,,
,,,,,,,672879d614dce67b8c3090ea,682db3be696128d1b65f8671,2025-05-21_13h07.32.267,cuing_paradigm_dot,2024.1.5,Win32,60.24096386,682d556593cb38ad0a074487,,,,,,,,,,,265.0189,265.5178,,,265.7697,266.165,left,,,,,,,,0.1,0.3816,,,,,,,265.5178,265.7697,266.165,"[-0.03421631801873508,0.08464615524485196]","[-1,-1,-1]","[-0.05095020068836233,0.12246507535960019]","[-1,-1,-1]","[-0.041816909695081124,-0.058032167641763874]","[-1,-1,-1]","[-0.08010084795624349,-0.17107815711050187]","[-1,-1,-1]","[-0.15258030302737358,-0.011775166905767116]","[-1,-1,-1]","[0.020572717888259574,-0.0018190116426607906]","[-1,-1,-1]","[-0.11018740479667916,-0.11228570094510681]","[-1,-1,-1]","[0.09298443583001936,0.1589205556897256]","[-1,-1,-1]","[-0.1531096680145362,0.06286632065558723]","[-1,-1,-1]","[-0.05534109096004142,0.02832606909849875]","[-1,-1,-1]","[0.007427280915841136,-0.059592743297551036]","[-1,-1,-1]","[0.003063567316279633,0.11849024924307777]","[-1,-1,-1]","[-0.008146496355907229,0.041502848663482944]","[-1,-1,-1]","[0.18690741308254477,0.018795969850679894]","[1,1,1]","[0.11601417979560315,0.03963002328498802]","[-1,-1,-1]","[0.09378754780061217,-0.05792061876364227]","[-1,-1,-1]","[-0.10718292027537327,0.0980514101979707]","[-1,-1,-1]","[-0.12786774171290538,-0.14821006122997188]","[-1,-1,-1]","[0.12939725505776778,-0.016221487312170695]","[1,1,1]","[-0.11745475386144417,0.13873009088328161]","[1,1,1]","[-0.018377995675075948,0.196573482285123]","[-1,-1,-1]","[0.09566080861266936,-0.15554613918760898]","[-1,-1,-1]","[0.03916386578418308,-0.14495211338802955]","[-1,-1,-1]","[0.16056576074692225,-0.08021526354571412]","[-1,-1,-1]","[0.1340395831157394,0.12345800236556105]","[-1,-1,-1]","[-0.11028314279118558,0.03910479925526216]","[-1,-1,-1]","[0.05269861221741855,0.0416006968840233]","[-1,-1,-1]","[0.11436768450056568,-0.10996098434656917]","[-1,-1,-1]","[0.04414290886728627,0.16134055728076865]","[-1,-1,-1]","[-0.14150689948688938,-0.06909748841185377]","[-1,-1,-1]","[0.0585553094864446,0.08630119279431817]","[-1,-1,-1]","[-0.19558801253224675,-0.016120846848216394]","[-1,-1,-1]","[0.02,0.02]",267.279,0,14,14,17,1,,,,,,,
,,,,,,,672879d614dce67b8c3090ea,682db3be696128d1b65f8671,2025-05-21_13h07.32.267,cuing_paradigm_dot,2024.1.5,Win32,60.24096386,682d556593cb38ad0a074487,,,,,,,,,,,267.2792,267.783,,,268.0177,268.7986,left,,,,,,,,0.45,0.7683,,,,,,,267.7831,268.0176,268.7987,"[0.09665573402496876,-0.0009206865593122431]","[-1,-1,-1]","[0.055461553844259937,-0.12905027052760293]","[1,1,1]","[0.10033130003201578,0.10499153757711527]","[1,1,1]","[-0.06296871597392245,0.09097558252785103]","[-1,-1,-1]","[-0.16715495476113826,0.061913613997578276]","[1,1,1]","[0.004143262415532442,0.1946687900758719]","[-1,-1,-1]","[0.1581626906947765,-0.11466016374115208]","[1,1,1]","[-0.19219771153021709,0.02638433678850352]","[-1,-1,-1]","[0.1698324742617527,0.0716806945798076]","[-1,-1,-1]","[0.09721391472764046,-0.11083320288698362]","[1,1,1]","[-0.08742923391192517,-0.12408526169884117]","[-1,-1,-1]","[-0.09682412261927047,-0.08010201256741059]","[-1,-1,-1]","[0.06626948936952552,-0.06423426338302649]","[-1,-1,-1]","[-0.10293668981639925,-0.014746545642258845]","[-1,-1,-1]","[0.04442115599952657,0.11699150298716252]","[1,1,1]","[-0.03171721133764913,0.16148271313006027]","[1,1,1]","[-0.1284539996431634,0.11848673862320235]","[1,1,1]","[-0.003462613120405287,-0.10642334866475806]","[1,1,1]","[0.04305055379963186,-0.0012025754613219143]","[-1,-1,-1]","[0.015105186098788283,-0.047340982597647366]","[-1,-1,-1]","[0.18778282699999885,0.0000953929632856123]","[1,1,1]","[0.10548572350630832,0.05110678214345868]","[-1,-1,-1]","[-0.02824914491803566,-0.16735577078205285]","[1,1,1]","[0.0021732351699671358,0.008959816144749977]","[1,1,1]","[0.006884660177126747,0.05006242456198549]","[-1,-1,-1]","[0.06511576827260578,0.1781914447205955]","[-1,-1,-1]","[-0.06092226678344576,-0.031208630443729526]","[-1,-1,-1]","[-0.1725583209445369,-0.0855786368156603]","[-1,-1,-1]","[-0.04460226455636379,-0.076649019378563]","[-1,-1,-1]","[0.15614397457006754,-0.06590499993693624]","[1,1,1]","[-0.12833782726454912,-0.11154099520502692]","[-1,-1,-1]","[-0.12007801273692678,0.07021117911523254]","[1,1,1]","[0.02,0.02]",269.899,0,15,15,68,1,,,,,,,
,,,,,,,672879d614dce67b8c3090ea,682db3be696128d1b65f8671,2025-05-21_13h07.32.267,cuing_paradigm_dot,2024.1.5,Win32,60.24096386,682d556593cb38ad0a074487,,,,,,,,,,,269.8994,270.4152,,,270.6622,272.1515,,,,,,,,,0.5,,,,,,,,270.4152,270.6622,272.1516,"[-0.08730091184003211,-0.12204682338804097]","[1,1,1]","[0.04949287805085373,0.18129118110666742]","[-1,-1,-1]","[0.011115401666473143,0.025286752530906634]","[-1,-1,-1]","[0.10265209407263466,0.0443863793619163]","[-1,-1,-1]","[-0.003191677924274325,0.1894036274052533]","[1,1,1]","[-0.17032727866189074,0.08041494182386713]","[1,1,1]","[-0.006608056273207384,-0.18007453385223782]","[1,1,1]","[-0.045907815419118245,0.16431119309104514]","[1,1,1]","[0.050967026602326826,0.031623498036945794]","[-1,-1,-1]","[0.08753527138004008,-0.08126193117315474]","[-1,-1,-1]","[-0.19386635296001783,-0.045942724702308035]","[-1,-1,-1]","[0.17361122912230093,-0.046072717824669394]","[-1,-1,-1]","[-0.12985244139611066,-0.14496135515793238]","[-1,-1,-1]","[-0.11921018094723736,0.11761443541121175]","[1,1,1]","[0.009009426797612434,0.12852584076246149]","[-1,-1,-1]","[0.17253797797714887,0.06443379649923046]","[1,1,1]","[0.14726231356590677,-0.09557020364194344]","[1,1,1]","[-0.15987362354451382,0.02032201176122665]","[1,1,1]","[0.08843068672133667,-0.16230725848124133]","[1,1,1]","[0.033103320123931,-0.029928879881670385]","[-1,-1,-1]","[-0.013466558779728181,0.05888884878456237]","[1,1,1]","[-0.15386405998740826,-0.08137868251524787]","[1,1,1]","[-0.006980801767583736,-0.11373078723705236]","[-1,-1,-1]","[-0.1261050705121984,0.05083150222830522]","[-1,-1,-1]","[-0.15882878365588737,-0.021970685420035725]","[-1,-1,-1]","[-0.05746702724486419,-0.026740530779000675]","[-1,-1,-1]","[0.13953482399489153,0.10369898819300247]","[1,1,1]","[-0.06448998680887784,0.03760550416895354]","[-1,-1,-1]","[-0.11137368843985831,0.16304278726481744]","[-1,-1,-1]","[0.07972182405262605,-0.03134878716785047]","[1,1,1]","[0.03226361688894359,-0.1473307592367391]","[1,1,1]","[0.1600237028412311,0.011829127720027812]","[1,1,1]","[0.02,0.02]",273.2495,0,16,16,112,1,,,,,,,
,,,,,,,672879d614dce67b8c3090ea,682db3be696128d1b65f8671,2025-05-21_13h07.32.267,cuing_paradigm_dot,2024.1.5,Win32,60.24096386,682d556593cb38ad0a074487,,,,,,,,,,,273.25,273.7377,,,273.9822,274.3825,left,,,,,,,,0.6,0.3866,,,,,,,273.7377,273.9822,274.3826,"[0.1377435512710796,-0.005922021212059965]","[-1,-1,-1]","[-0.0754899557533995,0.018953441832259384]","[-1,-1,-1]","[-0.13936687580213436,-0.06263603687947836]","[1,1,1]","[0.02665577199995682,0.08931912335138725]","[1,1,1]","[0.12833858835658465,-0.07731963919317676]","[-1,-1,-1]","[0.18392565391361346,0.04557833867384157]","[-1,-1,-1]","[0.008482506550607798,-0.03242947025875542]","[1,1,1]","[0.01141921321581342,-0.15997706190850608]","[1,1,1]","[0.19024333561977183,-0.03749693469971409]","[-1,-1,-1]","[-0.024184427694160914,-0.19305902609812023]","[-1,-1,-1]","[-0.018586014098441423,0.12495841631098172]","[1,1,1]","[-0.13021198413395482,0.08898410508857474]","[1,1,1]","[-0.09188351770793893,-0.036471256749966416]","[1,1,1]","[0.04472669369437245,-0.07713301649407632]","[1,1,1]","[0.09866248451840759,-0.16572231922986796]","[1,1,1]","[0.048734096154454634,0.16750881799754022]","[-1,-1,-1]","[0.08057361168147367,0.08938017009600537]","[-1,-1,-1]","[0.12897741399074494,0.1414574273011937]","[1,1,1]","[-0.0032949122162485465,0.017725482538052357]","[1,1,1]","[-0.07523780470069076,0.13447287386737153]","[1,1,1]","[-0.15809753491434975,0.015295989348748361]","[-1,-1,-1]","[-0.09235802201010836,-0.17254564954373797]","[1,1,1]","[-0.0647958651289284,0.08642482826728341]","[1,1,1]","[-0.09836734157361207,-0.1049021133385202]","[-1,-1,-1]","[0.16791290463033634,-0.09992480249459952]","[-1,-1,-1]","[0.08993922953085014,-0.11169949992201376]","[-1,-1,-1]","[-0.18618923215628347,-0.036872150396948515]","[-1,-1,-1]","[0.051683158387142804,0.027307895023663705]","[1,1,1]","[-0.13358108916978728,-0.14654014864696424]","[1,1,1]","[-0.17543770687670307,0.06603938411313295]","[1,1,1]","[0.00437349452842302,0.18455461678967638]","[1,1,1]","[-0.16776615465567177,-0.10684234602231774]","[1,1,1]","[0.02,0.02]",275.4705,0,17,17,160,1,,,,,,,
,,,,,,,672879d614dce67b8c3090ea,682db3be696128d1b65f8671,2025-05-21_13h07.32.267,cuing_paradigm_dot,2024.1.5,Win32,60.24096386,682d556593cb38ad0a074487,,,,,,,,,,,275.4708,275.9672,,,276.2971,276.5329,right,,,,,,,,0.9,0.2215,,,,,,,275.9673,276.297,276.5329,"[0.16775804350051615,0.02532997765681769]","[1,1,1]","[-0.08991704803654016,-0.009834306746624671]","[1,1,1]","[0.09447191495746014,-0.04735677808068506]","[1,1,1]","[-0.15616865172687222,0.07411675940701952]","[1,1,1]","[0.05728256560441684,0.10963378425849382]","[1,1,1]","[-0.04020888722313034,0.08270891920400185]","[-1,-1,-1]","[-0.05078023852648653,-0.0663913064966617]","[1,1,1]","[0.03043794952602702,-0.15516916653574897]","[1,1,1]","[-0.01481104109322643,-0.17547965459874795]","[1,1,1]","[-0.04946692759638989,0.03814655680667864]","[1,1,1]","[-0.0006431048006842685,-0.052551463686109044]","[1,1,1]","[0.12602978192978193,0.1446087545447812]","[1,1,1]","[-0.012880905892445301,0.1303445953290646]","[1,1,1]","[-0.07339064670913917,0.15862188420221232]","[1,1,1]","[-0.11487241333468921,-0.06490207977791033]","[1,1,1]","[0.1461360067649859,-0.132701161971682]","[1,1,1]","[-0.13084583016857732,0.13006328039295914]","[1,1,1]","[0.02090504686345425,-0.10650823301737256]","[1,1,1]","[-0.10714678116205655,0.05383729188008784]","[1,1,1]","[0.15003302636360674,-0.050084820518539325]","[1,1,1]","[-0.16705424386238713,-0.09816953244782871]","[-1,-1,-1]","[0.013629657565977478,0.18069934917406302]","[1,1,1]","[-0.07661248391359067,-0.0981197674104743]","[1,1,1]","[0.11265904227643778,-0.00302230165674078]","[1,1,1]","[0.156442069808063,0.10464351937254694]","[1,1,1]","[0.07958120906022106,0.06848523452655693]","[1,1,1]","[0.07762675642494449,0.177393816539077]","[1,1,1]","[0.0324947877225502,-0.02343253085093573]","[-1,-1,-1]","[-0.1418234631054687,-0.025517339631806118]","[1,1,1]","[0.09487398056096774,-0.12708530305542207]","[1,1,1]","[0.027768509268371825,0.029181627288609766]","[1,1,1]","[-0.035755470781252914,-0.11148860892100199]","[1,1,1]","[0.02,0.02]",277.6259,0,18,18,193,1,,,,,,,
,,,,,,,672879d614dce67b8c3090ea,682db3be696128d1b65f8671,2025-05-21_13h07.32.267,cuing_paradigm_dot,2024.1.5,Win32,60.24096386,682d556593cb38ad0a074487,,,,,,,,,,,277.6263,278.1211,,,278.3735,279.6024,right,,,,,,,,0.5,1.2197,,,,,,,278.1211,278.3735,279.6025,"[-0.06497238436230109,-0.13314361580084189]","[-1,-1,-1]","[0.10469513234081457,-0.09951062469450996]","[1,1,1]","[-0.09875259108357957,0.107067011673585]","[-1,-1,-1]","[0.005137788266605316,0.13217068843438937]","[-1,-1,-1]","[0.12090471567500634,0.13421898838637977]","[1,1,1]","[-0.14768931294086643,-0.11048093094130976]","[1,1,1]","[0.08589949994483521,-0.15001644027432087]","[1,1,1]","[0.05212309224421201,0.1317652108944826]","[-1,-1,-1]","[0.014398820770549443,0.024225569812876317]","[-1,-1,-1]","[0.055116421332418127,-0.17699112909427492]","[1,1,1]","[-0.10113109811667029,0.051630763739400946]","[1,1,1]","[-0.08493620169307305,-0.07914103185989003]","[-1,-1,-1]","[0.16536537511385285,0.04503313843187545]","[1,1,1]","[-0.07045208892459158,0.02326021812647373]","[1,1,1]","[0.1389146808809534,-0.011869441805776251]","[1,1,1]","[0.012570153446795213,-0.13812147232544122]","[1,1,1]","[-0.18225568650991686,0.003876601575779749]","[-1,-1,-1]","[0.07071470987401995,0.08318593960339327]","[1,1,1]","[-0.062299707171821525,-0.017670456701921362]","[1,1,1]","[-0.13590495935805819,0.13965897972265945]","[-1,-1,-1]","[-0.05087637697049751,0.15279543873048015]","[-1,-1,-1]","[0.016799570439578266,-0.19252413618566397]","[-1,-1,-1]","[0.1888269199725739,-0.04930303183717897]","[-1,-1,-1]","[-0.1616932086985328,0.05443274887641139]","[-1,-1,-1]","[-0.08543278307624434,-0.17889005841555483]","[1,1,1]","[0.024090425848026616,0.07479579523556197]","[-1,-1,-1]","[0.03953408420724656,-0.08313247859762782]","[-1,-1,-1]","[0.06395422593752206,-0.025427015126005228]","[1,1,1]","[0.12806742523747675,-0.13626070292689063]","[1,1,1]","[-0.0212390124796653,-0.03710439280709666]","[-1,-1,-1]","[-0.038016934508967065,-0.08096771661489843]","[-1,-1,-1]","[-0.10583538532935084,-0.03779114619492212]","[1,1,1]","[0.02,0.02]",280.6954,0,19,19,100,1,,,,,,,
,,,,,,,672879d614dce67b8c3090ea,682db3be696128d1b65f8671,2025-05-21_13h07.32.267,cuing_paradigm_dot,2024.1.5,Win32,60.24096386,682d556593cb38ad0a074487,,,,,,,,,,,280.6957,281.188,,,281.4341,282.1503,right,,,,,,,,0.6,0.7085,,,,,,,281.188,281.434,282.1503,"[-0.05044847068993,0.06696430718762009]","[1,1,1]","[0.007392235658990821,0.02962274271833623]","[1,1,1]","[-0.08243538819682417,-0.1678669853448587]","[-1,-1,-1]","[-0.03295788399260913,0.1843239313940645]","[1,1,1]","[-0.0705224692380291,0.0018762080555157785]","[1,1,1]","[-0.05819029481312506,0.1412854116930181]","[1,1,1]","[0.010185891814048902,0.1333218705808537]","[1,1,1]","[0.005497843911458486,-0.16919876244905976]","[1,1,1]","[0.1196226795581104,-0.1484614470098312]","[1,1,1]","[0.035226724681646414,-0.09193302055842059]","[-1,-1,-1]","[0.09777926962592341,-0.003886513678208224]","[-1,-1,-1]","[0.09323669675975237,-0.0780238989643945]","[1,1,1]","[0.08792663316867762,0.1629797049936137]","[1,1,1]","[0.045774056392714334,0.01089693128995726]","[1,1,1]","[-0.19360286873907606,-0.049173097858655375]","[-1,-1,-1]","[-0.08959511958629886,0.04451997497156407]","[-1,-1,-1]","[0.12255151206144259,0.14219863046307277]","[-1,-1,-1]","[-0.01917855665623037,-0.08424802467768874]","[1,1,1]","[-0.14556738921207735,-0.05484349614853746]","[1,1,1]","[-0.09876501276183133,0.17052776539690243]","[1,1,1]","[-0.12444890173875807,-0.1088590066568925]","[-1,-1,-1]","[-0.18724884658580696,0.03843982014217727]","[1,1,1]","[-0.11795967421566798,-0.025096593368952404]","[1,1,1]","[0.012681078799840897,0.1871799147204]","[-1,-1,-1]","[0.051288145606647226,0.06917057761365437]","[-1,-1,-1]","[0.19018349130955647,-0.0444726142661562]","[-1,-1,-1]","[-0.09588217314675394,0.11886714846597127]","[-1,-1,-1]","[0.1420016587733043,0.006143410615786388]","[1,1,1]","[-0.012636126441780478,0.09923034482112272]","[1,1,1]","[0.1376783534841657,-0.09813795392165009]","[1,1,1]","[0.12976319728277053,0.09070420780842599]","[-1,-1,-1]","[-0.1619800905074617,0.09303076422343928]","[-1,-1,-1]","[0.02,0.02]",283.2446,0,20,20,166,1,,,,,,,
,,,,,,,672879d614dce67b8c3090ea,682db3be696128d1b65f8671,2025-05-21_13h07.32.267,cuing_paradigm_dot,2024.1.5,Win32,60.24096386,682d556593cb38ad0a074487,,,,,,,,,,,283.245,283.735,,,283.9864,284.3261,left,,,,,,,,0.1,0.3303,,,,,,,283.7351,283.9864,284.3262,"[-0.10733849498006652,0.10501670306874923]","[-1,-1,-1]","[0.12090812361937608,-0.08086946663385805]","[1,1,1]","[0.15482065943519152,0.094362938498569]","[-1,-1,-1]","[-0.030748970887880676,-0.002497598157215003]","[-1,-1,-1]","[-0.18447893706538757,-0.05226290496103963]","[-1,-1,-1]","[-0.07148858443802994,-0.12104981450057453]","[-1,-1,-1]","[0.01784398684476027,0.0993144284504712]","[-1,-1,-1]","[0.01340089813622969,-0.013886964365544522]","[-1,-1,-1]","[0.049471218956440924,-0.14352849776916243]","[-1,-1,-1]","[0.0794704789285651,-0.047724934654489785]","[-1,-1,-1]","[0.0024584927683637924,0.1409398274996235]","[-1,-1,-1]","[0.06277631854534745,0.016426265573351466]","[-1,-1,-1]","[0.009152404908549532,-0.07343373682328622]","[-1,-1,-1]","[-0.0065191495690191765,-0.16582083852823903]","[1,1,1]","[-0.093155126812267,0.04633855672991937]","[-1,-1,-1]","[0.0928156759373416,0.11351621316467052]","[-1,-1,-1]","[0.06099183831104696,0.18003218409167143]","[-1,-1,-1]","[-0.14444232959890677,-0.016432562753292874]","[-1,-1,-1]","[-0.07867082910259347,0.17538965264800768]","[-1,-1,-1]","[-0.053888158104794054,-0.1595349625153557]","[-1,-1,-1]","[-0.034611863919636804,-0.0753983510895999]","[-1,-1,-1]","[-0.034183577715297654,0.06469729544188525]","[-1,-1,-1]","[-0.12898109035851799,-0.08437571921513709]","[-1,-1,-1]","[-0.15559460114831025,0.045851340219499125]","[-1,-1,-1]","[-0.16656075196406234,0.1011620849598557]","[-1,-1,-1]","[0.18019721279516254,0.008447962226582248]","[-1,-1,-1]","[0.11013493208317002,-0.13466933049218335]","[-1,-1,-1]","[-0.10662655735165075,0.0052615138539099885]","[1,1,1]","[0.054346068696227934,0.07487817477423614]","[-1,-1,-1]","[-0.05666468781857252,0.11451513270547399]","[-1,-1,-1]","[0.14236671781041166,0.03007023986745278]","[-1,-1,-1]","[0.08971780085290339,-0.17587572740768537]","[-1,-1,-1]","[0.02,0.02]",285.4221,0,21,21,5,1,,,,,,,
,,,,,,,672879d614dce67b8c3090ea,682db3be696128d1b65f8671,2025-05-21_13h07.32.267,cuing_paradigm_dot,2024.1.5,Win32,60.24096386,682d556593cb38ad0a074487,,,,,,,,,,,285.4225,285.9201,,,286.1719,286.7006,left,,,,,,,,0.1,0.5138,,,,,,,285.9202,286.1718,286.7006,"[-0.07181135952606572,0.08737187504919952]","[-1,-1,-1]","[0.11709377047386409,0.06724204136067748]","[-1,-1,-1]","[-0.0756809683120039,-0.02331302684109637]","[-1,-1,-1]","[0.07227399746467796,0.16751495314698206]","[-1,-1,-1]","[0.10597020702844677,-0.11394387518689443]","[-1,-1,-1]","[-0.006204337104233653,-0.09513229491565738]","[-1,-1,-1]","[0.07239621126307118,-0.049685059177823905]","[-1,-1,-1]","[-0.18320870334206166,0.015383169609324537]","[1,1,1]","[0.09486997061899112,-0.16704991742580724]","[1,1,1]","[-0.169148406618185,0.06657189209770714]","[-1,-1,-1]","[0.15181936164613102,0.03568393920900167]","[-1,-1,-1]","[-0.00423008173860033,-0.19833265235072559]","[-1,-1,-1]","[-0.12461599629778557,0.035362652368726925]","[-1,-1,-1]","[-0.07024057695236789,-0.13185961843484853]","[1,1,1]","[0.02393962031160764,0.11307637701995356]","[-1,-1,-1]","[-0.092121455024202,0.1384512129712487]","[-1,-1,-1]","[0.18078112078693098,-0.02797693961028888]","[-1,-1,-1]","[-0.015082533727792122,0.07572020384855281]","[-1,-1,-1]","[-0.053120791083437056,0.15249318084214014]","[-1,-1,-1]","[0.02748359920897914,0.18575986667340819]","[-1,-1,-1]","[0.06844833596288642,0.0758047143595398]","[-1,-1,-1]","[0.03982199292256201,-0.1952544313495893]","[-1,-1,-1]","[-0.19477921487181768,-0.040687557736178666]","[-1,-1,-1]","[-0.009208884338229537,-0.019076102423717777]","[-1,-1,-1]","[0.1526424241795022,-0.11163489128259874]","[-1,-1,-1]","[0.11574263110586959,0.1201526734430851]","[-1,-1,-1]","[-0.137592644870973,-0.06001685431228971]","[-1,-1,-1]","[0.11152883638866884,0.02660128474043619]","[-1,-1,-1]","[0.013514751821863041,0.023320004235466454]","[-1,-1,-1]","[-0.11362477650231956,-0.12063640781828762]","[-1,-1,-1]","[-0.06075909862405475,-0.08722752850209799]","[-1,-1,-1]","[-0.039680850903406686,-0.04620150754054908]","[-1,-1,-1]","[0.02,0.02]",287.8019,0,22,22,26,1,,,,,,,
,,,,,,,672879d614dce67b8c3090ea,682db3be696128d1b65f8671,2025-05-21_13h07.32.267,cuing_paradigm_dot,2024.1.5,Win32,60.24096386,682d556593cb38ad0a074487,,,,,,,,,,,287.8024,288.2905,,,288.536,289.7181,right,,,,,,,,0.4,1.1696,,,,,,,288.2906,288.5359,289.7182,"[-0.006603898812652176,0.1490880651740964]","[-1,-1,-1]","[0.0543944533247113,-0.053866319919761416]","[-1,-1,-1]","[0.013035619171864927,0.07189087245942519]","[-1,-1,-1]","[0.11417313809454903,0.12474744160079188]","[-1,-1,-1]","[-0.04225747358466876,-0.06085804462263397]","[1,1,1]","[-0.05096143863185919,-0.11729410520349304]","[-1,-1,-1]","[-0.05540710812885484,0.005136081665295652]","[-1,-1,-1]","[0.11500542272253259,-0.11284579004548677]","[-1,-1,-1]","[0.002327957787019324,-0.0631861538300654]","[-1,-1,-1]","[-0.1711947675268083,0.008091643475416578]","[1,1,1]","[-0.008294073662963069,-0.13127100311644302]","[1,1,1]","[-0.126102309315213,-0.1471099202371592]","[1,1,1]","[-0.03249567458972873,0.09325337679135681]","[1,1,1]","[0.11212545332265242,-0.05396900633464594]","[1,1,1]","[0.0037009726928677726,-0.19784882921411104]","[-1,-1,-1]","[0.029979584040473337,-0.16648896614159606]","[-1,-1,-1]","[0.048513376071927135,0.10861915894977092]","[-1,-1,-1]","[0.12633637950647206,-0.005523671065742398]","[1,1,1]","[0.07239296423352257,-0.11831131836905907]","[-1,-1,-1]","[-0.17544068307138658,-0.06941585931110016]","[-1,-1,-1]","[-0.1234009584696088,0.07550168766675407]","[1,1,1]","[0.08721121263273855,0.1759264151637974]","[-1,-1,-1]","[-0.11286919695093484,0.002466362891564971]","[1,1,1]","[-0.011307538384945245,0.19042639274863374]","[-1,-1,-1]","[-0.12406385368081647,-0.0653370481676126]","[1,1,1]","[0.1688137645365926,0.06491498920038903]","[-1,-1,-1]","[-0.07016854926753147,0.12041426626282163]","[-1,-1,-1]","[0.06009407164171619,0.025452264312141648]","[-1,-1,-1]","[-0.05828721519997793,0.16631378633780397]","[1,1,1]","[0.11533696572961336,0.038976513575300874]","[1,1,1]","[0.033191477498925384,0.18157296044445978]","[1,1,1]","[-0.07239896544028375,0.04932666989075476]","[-1,-1,-1]","[0.02,0.02]",290.8206,0,23,23,41,1,,,,,,,
,,,,,,,672879d614dce67b8c3090ea,682db3be696128d1b65f8671,2025-05-21_13h07.32.267,cuing_paradigm_dot,2024.1.5,Win32,60.24096386,682d556593cb38ad0a074487,,,,,,,,,,,290.8211,291.32,,,291.5709,292.0348,right,,,,,,,,0.5,0.4514,,,,,,,291.3201,291.5709,292.0349,"[-0.06858847412708892,0.021572799330880917]","[1,1,1]","[-0.013688248151148288,-0.018289945862978243]","[1,1,1]","[-0.13985804869694782,-0.12982078196249255]","[1,1,1]","[-0.125250772818978,-0.07212454695551175]","[1,1,1]","[-0.15621616522856838,0.07907626991022947]","[1,1,1]","[-0.17195125193178282,-0.012827207473342631]","[-1,-1,-1]","[-0.14242966938415352,0.1368214428520807]","[-1,-1,-1]","[0.004608905751924001,-0.13273018724528593]","[1,1,1]","[-0.08143856842043407,-0.1340548146903286]","[1,1,1]","[0.10056699640327457,-0.09691732984956841]","[1,1,1]","[0.06377121113772724,-0.15805996995353147]","[1,1,1]","[-0.06097263195529831,0.061981902206744495]","[-1,-1,-1]","[0.08005599005857983,0.11031786262713768]","[-1,-1,-1]","[-0.016505015119773675,-0.08605939104786102]","[-1,-1,-1]","[0.11763821094007929,0.14554781109041415]","[-1,-1,-1]","[0.18179899405389122,0.03371195156581904]","[1,1,1]","[-0.09683400449754286,0.12314037199197349]","[-1,-1,-1]","[0.05389604156938772,0.005915108415943263]","[-1,-1,-1]","[0.0012072367903417545,0.04008350937662974]","[1,1,1]","[-0.06266704452974389,0.1686355756102389]","[-1,-1,-1]","[0.15946343973296023,-0.05524743758956295]","[-1,-1,-1]","[0.14977920366086997,0.11561070349356505]","[-1,-1,-1]","[0.025794042945946588,0.10169245355415334]","[1,1,1]","[0.024091257457489162,-0.03577653842258315]","[1,1,1]","[-0.174813328306193,-0.08076998692206941]","[-1,-1,-1]","[0.05294268815694782,0.15257598541061823]","[1,1,1]","[0.006581641306310014,0.1663083254934785]","[-1,-1,-1]","[-0.02129235539814328,-0.19531825889022325]","[-1,-1,-1]","[0.13018884679572962,0.022532644865954195]","[1,1,1]","[0.059409689619263704,-0.08192888424045537]","[-1,-1,-1]","[0.08882570850316715,-0.051119352506839036]","[-1,-1,-1]","[-0.07511934354259903,-0.02278283543848958]","[1,1,1]","[0.02,0.02]",293.1363,0,24,24,92,1,,,,,,,
,,,,,,,672879d614dce67b8c3090ea,682db3be696128d1b65f8671,2025-05-21_13h07.32.267,cuing_paradigm_dot,2024.1.5,Win32,60.24096386,682d556593cb38ad0a074487,,,,,,,,,,,293.1368,293.6363,,,293.8948,294.3184,left,,,,,,,,0.1,0.4129,,,,,,,293.6363,293.8947,294.3185,"[0.026163500656345068,-0.040552364363649396]","[1,1,1]","[0.030537123433375748,-0.19471506979017295]","[-1,-1,-1]","[-0.021939849776089287,-0.011643712790322393]","[-1,-1,-1]","[-0.1716569745012529,0.04744545049804513]","[-1,-1,-1]","[0.0674502244506196,0.09435258453103054]","[-1,-1,-1]","[0.13502145251962577,0.1336617862963003]","[-1,-1,-1]","[0.08123613993831284,-0.1746888306482028]","[-1,-1,-1]","[0.05662847940626521,-0.09747282424119273]","[-1,-1,-1]","[-0.028366578472371232,-0.10768094603702227]","[-1,-1,-1]","[-0.07211958233587336,0.178636694897078]","[-1,-1,-1]","[0.09550067572437121,-0.08675073709271648]","[-1,-1,-1]","[-0.08665883109653331,-0.048283292507311046]","[-1,-1,-1]","[0.13124728903015936,-0.022384177431892253]","[-1,-1,-1]","[0.1758184722277283,-0.09328471268462231]","[-1,-1,-1]","[0.17759642113996119,0.09195495000456298]","[-1,-1,-1]","[0.032850901453964104,0.05348015709023757]","[-1,-1,-1]","[0.08065742749674248,0.02758383635153959]","[-1,-1,-1]","[-0.18693645565661274,-0.06051423652416923]","[-1,-1,-1]","[-0.1295573561601493,0.13943963875951434]","[-1,-1,-1]","[-0.05327850235494497,-0.17890527825991284]","[1,1,1]","[0.17696089109131863,-0.034624430927452626]","[-1,-1,-1]","[0.012903842399231489,-0.14256420978120543]","[-1,-1,-1]","[0.04989217113942142,0.18993930637345463]","[-1,-1,-1]","[-0.02366373146397428,0.1361165421167084]","[-1,-1,-1]","[-0.051416935570740264,0.06550087692077915]","[-1,-1,-1]","[-0.033851514520805946,0.1949824073207356]","[-1,-1,-1]","[-0.06793636403251543,0.025487126380290576]","[-1,-1,-1]","[-0.16880368365353393,0.00005363163659971015]","[-1,-1,-1]","[0.02873723348027461,0.14755000714136457]","[1,1,1]","[-0.10327383996304444,-0.10078786536823561]","[-1,-1,-1]","[-0.12757288255727262,0.09294584502696977]","[-1,-1,-1]","[-0.0835998682892407,0.10379520844225851]","[-1,-1,-1]","[0.02,0.02]",295.4116,0,25,25,0,1,,,,,,,
,,,,,,,672879d614dce67b8c3090ea,682db3be696128d1b65f8671,2025-05-21_13h07.32.267,cuing_paradigm_dot,2024.1.5,Win32,60.24096386,682d556593cb38ad0a074487,,,,,,,,,,,295.4119,295.9126,,,296.1542,296.7945,left,,,,,,,,0.4,0.6295,,,,,,,295.9127,296.1541,296.7946,"[0.07675876639819877,-0.17064902253411976]","[1,1,1]","[-0.1544018509713288,0.023445290866693454]","[-1,-1,-1]","[0.17941170195777997,0.03091064430566094]","[1,1,1]","[-0.036427235639516005,0.1407478493397172]","[-1,-1,-1]","[-0.07856691862957439,-0.03191276718464127]","[1,1,1]","[0.133010203167799,-0.09458998881575005]","[-1,-1,-1]","[-0.07158026742563647,0.09961045522636247]","[1,1,1]","[-0.04291512634524144,-0.17640848045785126]","[1,1,1]","[0.05261090160931671,-0.044469171280066624]","[-1,-1,-1]","[0.05067771862149034,0.1652342905307964]","[-1,-1,-1]","[0.12709347642430532,0.12711306209693046]","[1,1,1]","[0.1912536378127571,-0.04234069713082466]","[-1,-1,-1]","[-0.12015719754054632,-0.07065416814543538]","[1,1,1]","[-0.17596747993845566,-0.06266657869084137]","[-1,-1,-1]","[0.12514283942058751,0.03423078243360063]","[-1,-1,-1]","[0.17284800326441013,0.09650061230970026]","[1,1,1]","[0.012172780788713802,0.05610745639048366]","[1,1,1]","[0.12426433643379953,-0.15617076119054665]","[-1,-1,-1]","[-0.11520167744288215,0.04063152654940115]","[-1,-1,-1]","[0.1314353248306233,-0.05399888612521429]","[1,1,1]","[0.05612120426736061,0.04018893614561721]","[1,1,1]","[0.08684238629163264,-0.0005686736092127031]","[-1,-1,-1]","[-0.03115283583967139,0.06862542277630403]","[-1,-1,-1]","[0.09125395001101251,0.17213507684079304]","[-1,-1,-1]","[0.06931352284176849,0.08754720513879709]","[-1,-1,-1]","[0.058514529465206876,-0.1248878935882104]","[-1,-1,-1]","[-0.03379450845342261,-0.12137885448485071]","[-1,-1,-1]","[-0.08772482190298261,-0.1477178346790869]","[-1,-1,-1]","[-0.10783872860718452,0.12475367012194613]","[1,1,1]","[0.16262660708863758,-0.009504737975441394]","[1,1,1]","[-0.1684196972903722,0.09917457697694752]","[-1,-1,-1]","[-0.07894406476542594,0.15830908646146802]","[-1,-1,-1]","[0.02,0.02]",297.8858,0,26,26,40,1,,,,,,,
,,,,,,,672879d614dce67b8c3090ea,682db3be696128d1b65f8671,2025-05-21_13h07.32.267,cuing_paradigm_dot,2024.1.5,Win32,60.24096386,682d556593cb38ad0a074487,,,,,,,,,,,297.8862,298.387,,,298.6276,299.3532,right,,,,,,,,0.6,0.7164,,,,,,,298.3871,298.6276,299.3533,"[-0.05082913956128738,-0.036770906447951446]","[1,1,1]","[-0.04228787530799645,0.15862665369348425]","[1,1,1]","[0.054758096426797645,-0.047211591711366616]","[-1,-1,-1]","[0.02324021010172824,0.05647327236551705]","[-1,-1,-1]","[0.13106776882715654,0.04679840929400869]","[1,1,1]","[-0.15872884396095424,0.08279028778934845]","[1,1,1]","[0.0357254207564046,0.09752968336066373]","[1,1,1]","[-0.08000412860895052,-0.06770534583693723]","[-1,-1,-1]","[-0.036897911909203045,-0.08674040189655965]","[1,1,1]","[0.035919790269981725,0.14679457551086916]","[1,1,1]","[0.09826975286340572,-0.08124330305984204]","[1,1,1]","[-0.1715254963225162,-0.023489745460586978]","[-1,-1,-1]","[0.03351692435794658,0.1930879885119916]","[1,1,1]","[0.07447401338703223,0.17676385841679976]","[-1,-1,-1]","[0.03327801748660361,-0.11462151311597284]","[1,1,1]","[0.05983963355514491,-0.15725618696235757]","[-1,-1,-1]","[0.18255306097606216,-0.013796235109974849]","[-1,-1,-1]","[-0.0284389082881972,-0.17105191183599952]","[-1,-1,-1]","[-0.16304620540849005,-0.08235167335051802]","[1,1,1]","[-0.030755393176007534,0.05133958124522526]","[1,1,1]","[0.10435119613793797,-0.12714393414622366]","[1,1,1]","[-0.11237827933955125,0.040221843565293465]","[-1,-1,-1]","[-0.0020148439892476357,0.1720136358489311]","[1,1,1]","[0.15681094310164104,-0.07660463567468147]","[1,1,1]","[0.11282458886983716,0.011095236713456663]","[1,1,1]","[0.13111666733793426,-0.04265082486938714]","[-1,-1,-1]","[-0.07254246578818152,0.09013394743964016]","[1,1,1]","[-0.09200099732003199,0.1607224062021016]","[1,1,1]","[0.06876036379258252,0.0711764758238534]","[-1,-1,-1]","[-0.07049685494054792,0.037329079076403704]","[-1,-1,-1]","[0.15200956755514622,0.12510422894228143]","[-1,-1,-1]","[0.09828105163450168,0.10437565743907147]","[1,1,1]","[0.02,0.02]",300.4544,0,27,27,159,1,,,,,,,
,,,,,,,672879d614dce67b8c3090ea,682db3be696128d1b65f8671,2025-05-21_13h07.32.267,cuing_paradigm_dot,2024.1.5,Win32,60.24096386,682d556593cb38ad0a074487,,,,,,,,,,,300.4548,300.9535,,,301.1923,302.1868,left,,,,,,,,0.55,0.9855,,,,,,,300.9535,301.1923,302.1869,"[0.17645788553682304,-0.03850152659939613]","[-1,-1,-1]","[-0.06563659955670717,0.17666973079584494]","[1,1,1]","[-0.19254286227026354,0.027967937838428773]","[-1,-1,-1]","[0.1067268297109838,-0.004030261097278684]","[-1,-1,-1]","[0.1041821330789964,-0.04825901463871163]","[-1,-1,-1]","[-0.10822430313689253,0.08112632650250882]","[1,1,1]","[-0.05916992762180085,0.0031878920352945953]","[1,1,1]","[0.002522402463141557,0.023327273719247896]","[-1,-1,-1]","[-0.006257321310002145,-0.1274956589416895]","[-1,-1,-1]","[0.029516556626734563,-0.01550417902480278]","[-1,-1,-1]","[-0.13638080831839686,0.14221503110280362]","[1,1,1]","[0.19724096198084295,0.013568560332800841]","[-1,-1,-1]","[0.045959207745058135,0.17402618499112998]","[-1,-1,-1]","[0.06623143144159857,0.05799611101576095]","[1,1,1]","[-0.10473325402150728,-0.04973029120446787]","[1,1,1]","[-0.1636970508115477,-0.028587404143656986]","[1,1,1]","[0.022267231687415755,-0.1819200413418029]","[-1,-1,-1]","[-0.01035134732028742,0.1578539465979518]","[-1,-1,-1]","[0.10319400241586729,-0.11775667774374472]","[1,1,1]","[-0.03195541859337704,-0.18941037364380975]","[1,1,1]","[-0.03320812517884062,0.05691071687460458]","[-1,-1,-1]","[0.15024290940656673,0.037479286403175674]","[-1,-1,-1]","[-0.16645581660932812,-0.07564277133250298]","[1,1,1]","[-0.11798184010410516,-0.13077287205146834]","[1,1,1]","[-0.14951182531843005,0.01592399937774714]","[1,1,1]","[0.08313402119416861,0.1404178174026375]","[1,1,1]","[0.13705375238563544,-0.14012110679053436]","[1,1,1]","[0.1385349213552607,0.1298774900351394]","[1,1,1]","[0.08395749273864998,-0.16959523914716612]","[1,1,1]","[-0.08278966223523783,-0.17599998477381712]","[-1,-1,-1]","[0.012192007025846618,0.08582345433721261]","[1,1,1]","[0.10849216615910885,0.03867882219161419]","[1,1,1]","[0.02,0.02]",303.2909,0,28,28,129,1,,,,,,,
,,,,,,,672879d614dce67b8c3090ea,682db3be696128d1b65f8671,2025-05-21_13h07.32.267,cuing_paradigm_dot,2024.1.5,Win32,60.24096386,682d556593cb38ad0a074487,,,,,,,,,,,303.2916,303.7897,,,304.0362,305.2785,right,,,,,,,,0.5,1.2318,,,,,,,303.7897,304.0362,305.2786,"[0.1105636786405325,-0.10115304323141476]","[-1,-1,-1]","[0.07370437869504749,0.08933900228510652]","[1,1,1]","[0.19143442973323666,-0.04027713794244343]","[-1,-1,-1]","[0.04231860925285133,-0.06906026096731356]","[1,1,1]","[0.13689387129843478,0.0525312055674058]","[1,1,1]","[0.18980887371986252,0.027981134778139793]","[1,1,1]","[0.07149027532126224,0.00007791223120540132]","[1,1,1]","[-0.16282313178568544,-0.06523631784101916]","[-1,-1,-1]","[0.006731852979823913,0.19136349610158393]","[-1,-1,-1]","[-0.1462918405223775,0.11085526341261855]","[-1,-1,-1]","[0.06551517020774231,-0.1654760337572652]","[-1,-1,-1]","[-0.1276508550656986,0.004672503506711511]","[1,1,1]","[-0.1707962967508096,0.035303947714979654]","[-1,-1,-1]","[-0.004577605332053982,-0.0022088851746842704]","[1,1,1]","[-0.00008579362722085659,-0.16645664502181937]","[1,1,1]","[-0.10795578307758202,-0.12707324552655114]","[-1,-1,-1]","[-0.06006704102030455,0.0400578133526529]","[-1,-1,-1]","[0.04607349255313809,0.18079405119688416]","[1,1,1]","[-0.009003011179345195,0.04201999351261886]","[-1,-1,-1]","[-0.05938567496034089,-0.0338053228758099]","[1,1,1]","[0.03226424984148381,0.021719509696189684]","[-1,-1,-1]","[0.03987362051118924,0.1393755908491161]","[-1,-1,-1]","[0.1353804562255842,-0.010641963186835121]","[1,1,1]","[0.060640130155372896,-0.12335772824250475]","[-1,-1,-1]","[-0.1086340684955622,-0.08167329959326367]","[1,1,1]","[-0.06998582483041063,0.1472430538238543]","[1,1,1]","[0.1263710391812368,0.09555234468965282]","[-1,-1,-1]","[-0.0332527276548127,0.09652080803855567]","[1,1,1]","[0.013211620216681918,-0.03886165616232388]","[-1,-1,-1]","[0.1675200444130782,-0.10485759677773764]","[-1,-1,-1]","[0.1496112901205681,0.13026645218175723]","[1,1,1]","[-0.1146877149671343,0.16283335975732552]","[1,1,1]","[0.02,0.02]",306.3747,0,29,29,101,1,,,,,,,
,,,,,,,672879d614dce67b8c3090ea,682db3be696128d1b65f8671,2025-05-21_13h07.32.267,cuing_paradigm_dot,2024.1.5,Win32,60.24096386,682d556593cb38ad0a074487,,,,,,,,,,,306.3751,306.8754,,,307.1184,307.5031,right,,,,,,,,0.1,0.3699,,,,,,,306.8755,307.1184,307.5032,"[-0.035479666697428254,0.10957993309771086]","[-1,-1,-1]","[0.09815401723226887,0.09088927334799723]","[-1,-1,-1]","[0.09716503363336992,-0.10827106950442546]","[-1,-1,-1]","[0.03807137914258042,-0.043107344147707054]","[-1,-1,-1]","[0.14116882114188395,0.10713567404096544]","[-1,-1,-1]","[-0.08142758090935436,0.1264711954164604]","[-1,-1,-1]","[-0.12540116308360236,0.0722511403070166]","[-1,-1,-1]","[0.07150997788721569,0.18242764274580817]","[-1,-1,-1]","[0.08389786634930173,0.035048710675080245]","[-1,-1,-1]","[-0.1333695962328345,-0.13766776766132283]","[-1,-1,-1]","[0.01282869629486374,0.03339234522598358]","[1,1,1]","[0.12688887739850896,-0.15290968353480272]","[-1,-1,-1]","[0.026597105324705737,-0.165501700257607]","[-1,-1,-1]","[0.14988188915967054,0.022234750793758466]","[-1,-1,-1]","[0.04279116018915404,0.06783570070685234]","[-1,-1,-1]","[-0.007192808144722366,-0.13590339308641322]","[-1,-1,-1]","[-0.06210539387990798,0.07798735626605992]","[1,1,1]","[0.05957556231008113,-0.0017475376777741022]","[-1,-1,-1]","[0.041095612284008806,-0.09745739784121292]","[-1,-1,-1]","[-0.05972974680214229,-0.11429345204397377]","[-1,-1,-1]","[-0.11950259678920844,-0.010118929553804468]","[1,1,1]","[-0.01911760763657154,0.18653652558899844]","[-1,-1,-1]","[0.08174488252289655,-0.18048600156233738]","[-1,-1,-1]","[0.08077920977145567,-0.04179287813475601]","[-1,-1,-1]","[-0.06095471707843092,-0.1587612001576118]","[-1,-1,-1]","[0.06426526656184645,-0.13881133553123498]","[-1,-1,-1]","[0.03049652190934121,0.18730745873485882]","[-1,-1,-1]","[-0.04513894051948106,0.015111981374852628]","[-1,-1,-1]","[-0.02190950426200664,-0.18044057133343858]","[-1,-1,-1]","[-0.16407770268208852,0.10748742549846975]","[-1,-1,-1]","[0.0004745661287090261,0.1341917850538748]","[-1,-1,-1]","[-0.08467327688319064,-0.051852385539127605]","[-1,-1,-1]","[0.02,0.02]",308.5939,0,30,30,23,1,,,,,,,
,,,,,,,672879d614dce67b8c3090ea,682db3be696128d1b65f8671,2025-05-21_13h07.32.267,cuing_paradigm_dot,2024.1.5,Win32,60.24096386,682d556593cb38ad0a074487,,,,,,,,,,,308.5976,309.0921,,,309.3377,310.4282,right,,,,,,,,0.55,1.0786,,,,,,,309.0921,309.3377,310.4283,"[0.055139192980356314,0.17462857227371734]","[-1,-1,-1]","[-0.12942652215805275,0.10058806796961005]","[-1,-1,-1]","[0.005578813804446594,-0.19091413681730326]","[-1,-1,-1]","[-0.047340577085752455,-0.12924900130270392]","[1,1,1]","[-0.16054664741304797,0.05213713540346673]","[-1,-1,-1]","[0.15981547668518353,-0.011732834400455376]","[-1,-1,-1]","[-0.022156533939371496,0.18923216193748343]","[-1,-1,-1]","[-0.05943735507972259,-0.06376216264649562]","[-1,-1,-1]","[0.11640800878640123,0.1065378482690915]","[-1,-1,-1]","[0.04095431263686194,-0.16013768778907767]","[-1,-1,-1]","[-0.03640406536240694,0.05462373235976314]","[-1,-1,-1]","[0.03642292816105529,0.06990690472948058]","[1,1,1]","[-0.007814484414348202,0.11984599343667826]","[1,1,1]","[-0.10203800107990724,0.027227059713546335]","[1,1,1]","[0.09200369854263817,-0.12918734150335268]","[1,1,1]","[0.050580369100926746,-0.0908562276213223]","[1,1,1]","[0.05827682892142119,-0.00015835456281491965]","[1,1,1]","[-0.11949224937769999,-0.11906151997308502]","[1,1,1]","[-0.0035093490099093595,-0.04548929096104684]","[1,1,1]","[0.011158141445911575,0.028077128215708964]","[1,1,1]","[-0.13162830495860106,-0.08047045552898924]","[1,1,1]","[-0.17489227874408972,-0.06394816388650856]","[1,1,1]","[-0.1767846240612182,0.004972674742146436]","[1,1,1]","[-0.007302563662446122,-0.1324873266977815]","[-1,-1,-1]","[-0.10610706859026761,-0.16009357674958588]","[1,1,1]","[-0.1373202597783666,-0.005133226737375474]","[1,1,1]","[0.08535876646937378,-0.04001544116784016]","[1,1,1]","[-0.039218752937553135,-0.19065375158292266]","[-1,-1,-1]","[0.16565011848924363,0.06887880567489019]","[-1,-1,-1]","[0.18112454987706716,-0.07930647930931971]","[-1,-1,-1]","[-0.05687428565899114,0.09602218675092561]","[1,1,1]","[-0.1193438031196263,0.1556845307408219]","[1,1,1]","[0.02,0.02]",311.5246,0,31,31,135,1,,,,,,,
,,,,,,,672879d614dce67b8c3090ea,682db3be696128d1b65f8671,2025-05-21_13h07.32.267,cuing_paradigm_dot,2024.1.5,Win32,60.24096386,682d556593cb38ad0a074487,,,,,,,,,,,311.525,312.0517,,,312.2867,313.004,right,,,,,,,,0.45,0.7049,,,,,,,312.0518,312.2866,313.004,"[0.0210219250900268,-0.05170663591733034]","[-1,-1,-1]","[0.07676017570431583,-0.10865925724551445]","[-1,-1,-1]","[0.16608812628657546,-0.09347975215983205]","[1,1,1]","[0.021615764155021266,0.18129084215608154]","[1,1,1]","[0.06324115129313715,-0.0002756455191242605]","[-1,-1,-1]","[-0.14403223862015552,-0.10204578874464951]","[1,1,1]","[-0.15367914300892271,0.027991679106375345]","[1,1,1]","[-0.10144043673901373,-0.06398292980936787]","[-1,-1,-1]","[0.018730745395602273,0.13569299998406326]","[1,1,1]","[0.1865323094473002,0.06371113549636115]","[1,1,1]","[-0.09881188458020826,0.14561798369743714]","[1,1,1]","[-0.020763562347122518,0.004708832514447562]","[1,1,1]","[-0.07263935070639682,-0.00023427870979979995]","[1,1,1]","[-0.01240180814748669,-0.14335579892837264]","[-1,-1,-1]","[-0.17179383923347433,-0.022284874462981163]","[-1,-1,-1]","[0.11053912588494065,-0.0333852302849312]","[-1,-1,-1]","[-0.057805407680881195,0.15073637690067854]","[-1,-1,-1]","[0.16846650525696188,-0.0522674905637756]","[-1,-1,-1]","[0.03291651794927986,0.05586308011614367]","[1,1,1]","[-0.028741393413437955,0.04775087549638665]","[-1,-1,-1]","[0.10776808475735561,0.01480716773557801]","[1,1,1]","[-0.03773390673299568,-0.09939488713458598]","[-1,-1,-1]","[0.14654995800682016,0.09861013438730654]","[-1,-1,-1]","[-0.08717794432625955,-0.1149588311724398]","[1,1,1]","[-0.023579897803061217,0.10224346627933988]","[-1,-1,-1]","[-0.1254715978026804,0.09703456721425875]","[-1,-1,-1]","[0.06955495114796796,-0.15797006947541578]","[-1,-1,-1]","[-0.06946308268221207,-0.1554237628383853]","[-1,-1,-1]","[-0.09769370141695635,0.06664408478960214]","[-1,-1,-1]","[0.1230365582405452,0.13519495895691816]","[1,1,1]","[-0.003386640558976684,-0.19295856016382662]","[-1,-1,-1]","[0.11700477706546314,0.06072483979774617]","[1,1,1]","[0.02,0.02]",314.1157,0,32,32,67,1,,,,,,,
,,,,,,,672879d614dce67b8c3090ea,682db3be696128d1b65f8671,2025-05-21_13h07.32.267,cuing_paradigm_dot,2024.1.5,Win32,60.24096386,682d556593cb38ad0a074487,,,,,,,,,,,314.1161,314.6058,,,314.8648,316.3434,right,,,,,,,,0.9,1.4721,,,,,,,314.6059,314.8647,316.3435,"[0.1467680568039363,0.032485405030065494]","[1,1,1]","[-0.08696927390961655,0.07387014190126122]","[1,1,1]","[-0.06012794263297111,-0.18963969836450975]","[1,1,1]","[-0.03098256126684936,0.11742750393692447]","[1,1,1]","[-0.16812296241537936,-0.04733978789446147]","[1,1,1]","[0.04719870119826545,0.026138343878866405]","[1,1,1]","[0.07542985789146411,-0.07574242919257465]","[1,1,1]","[0.05043179617502675,-0.17862958749937108]","[1,1,1]","[-0.11088775296578808,-0.05202130674871362]","[1,1,1]","[0.013871182349609905,-0.03967829680928205]","[-1,-1,-1]","[-0.051941953098400266,-0.12661966251702142]","[1,1,1]","[0.11903873917240933,-0.09307909955775939]","[1,1,1]","[-0.02405221397666899,-0.022047540313353403]","[-1,-1,-1]","[0.11293923405740107,0.08562041925050838]","[1,1,1]","[0.0005017670780976299,0.045807424072002924]","[1,1,1]","[-0.18705633859773438,0.03869922717182401]","[1,1,1]","[-0.13136475176995793,0.059450419854211095]","[1,1,1]","[0.05347644426941738,0.07283984736152883]","[1,1,1]","[-0.16050786788965693,0.1188854504601367]","[1,1,1]","[-0.004161948226735188,0.18505288984629734]","[1,1,1]","[0.11259221041242022,-0.04914939062678206]","[1,1,1]","[0.14951528539283174,-0.012074071659703886]","[1,1,1]","[-0.044511639065043705,0.013126640972848005]","[-1,-1,-1]","[0.04519525961102065,-0.13885927704017162]","[1,1,1]","[-0.027875716381708666,-0.08269549618785922]","[1,1,1]","[0.08649868163714132,0.1407008872590771]","[1,1,1]","[-0.06788529000961385,0.1455731744650275]","[1,1,1]","[0.15642218817778358,-0.12199160983017603]","[1,1,1]","[-0.13658003975994906,0.0043237443446583965]","[1,1,1]","[0.15508962457877626,0.07285159151110761]","[1,1,1]","[-0.05140680922956838,0.05396490519077614]","[1,1,1]","[0.08806470435032783,-0.1393329056631124]","[1,1,1]","[0.02,0.02]",317.441,0,33,33,187,1,,,,,,,
,,,,,,,672879d614dce67b8c3090ea,682db3be696128d1b65f8671,2025-05-21_13h07.32.267,cuing_paradigm_dot,2024.1.5,Win32,60.24096386,682d556593cb38ad0a074487,,,,,,,,,,,317.4414,317.9397,,,318.1886,318.6715,right,,,,,,,,0.9,0.4668,,,,,,,317.9398,318.1886,318.6716,"[0.14655426568542854,0.013058567310151183]","[1,1,1]","[0.15546401452020436,-0.061686254322420274]","[1,1,1]","[0.16325534920565604,0.06312984514613926]","[1,1,1]","[-0.1927921776114381,-0.007120821292412861]","[1,1,1]","[0.07696567940540207,-0.14948901899387104]","[-1,-1,-1]","[0.04310461706475368,-0.08919129886700598]","[1,1,1]","[-0.14469048494094316,0.1176639064719636]","[1,1,1]","[0.012105745830545791,-0.01475953189949807]","[1,1,1]","[-0.002052118462369168,0.03987591068664574]","[1,1,1]","[-0.15273275109401452,0.007312674302010937]","[1,1,1]","[-0.14632912587747587,-0.09751086105660867]","[1,1,1]","[0.007893897702546403,0.13224964061669187]","[1,1,1]","[-0.07447366157739767,-0.06701336430959642]","[1,1,1]","[0.025550081510138715,-0.1983129714657951]","[1,1,1]","[0.081648162691266,-0.005361143591160169]","[-1,-1,-1]","[0.09021511393527037,0.03727468936381022]","[1,1,1]","[-0.06098148029622001,-0.17663125141228883]","[1,1,1]","[-0.13023790118777,-0.046866584229257324]","[1,1,1]","[0.08183012496012086,-0.06653276690930725]","[1,1,1]","[0.1023880197517935,0.09840093012469857]","[1,1,1]","[-0.012822310988223439,-0.1389499382213168]","[1,1,1]","[-0.08677215068226954,0.10157832613702662]","[1,1,1]","[-0.10846200347018511,-0.1438421694874903]","[1,1,1]","[0.03430384593185368,-0.14420266789962205]","[1,1,1]","[-0.17916735033715353,0.07314652431047247]","[1,1,1]","[0.02101762310749272,0.1970260248549169]","[1,1,1]","[-0.05828055572728746,0.1635911110275207]","[-1,-1,-1]","[0.10993695009718572,-0.12267053036507262]","[1,1,1]","[-0.04296775706379441,-0.0007449393743936098]","[1,1,1]","[0.05944519357826839,0.116687329373865]","[1,1,1]","[0.19330703577720187,-0.007597383244159276]","[1,1,1]","[-0.0909221078440366,-0.018456489934089673]","[1,1,1]","[0.02,0.02]",319.7726,0,34,34,199,1,,,,,,,
,,,,,,,672879d614dce67b8c3090ea,682db3be696128d1b65f8671,2025-05-21_13h07.32.267,cuing_paradigm_dot,2024.1.5,Win32,60.24096386,682d556593cb38ad0a074487,,,,,,,,,,,319.7729,320.274,,,320.519,321.6658,left,,,,,,,,0.4,1.1387,,,,,,,320.274,320.519,321.6659,"[-0.025574731008254643,0.17275274237948446]","[-1,-1,-1]","[0.013723827146367384,-0.06952800756285554]","[1,1,1]","[-0.10804129887625172,-0.14039956493566244]","[-1,-1,-1]","[-0.009525343631772282,-0.12186753236931537]","[-1,-1,-1]","[0.0982255266537498,0.029899091272328114]","[-1,-1,-1]","[0.024776177135457652,0.015510403735671977]","[1,1,1]","[-0.062834840365074,0.11771893318212004]","[1,1,1]","[-0.05228054673440321,0.0004837165219399159]","[1,1,1]","[-0.1550082158832794,0.02260843744086796]","[1,1,1]","[0.08723033438660027,-0.08669240934583328]","[-1,-1,-1]","[0.026404691857429562,0.15879102120330593]","[-1,-1,-1]","[0.10378213823752948,-0.044372572497949306]","[-1,-1,-1]","[-0.05569957390001994,-0.042895238250031324]","[-1,-1,-1]","[-0.14516244082867563,-0.028816801662584244]","[1,1,1]","[-0.04392344065885247,-0.14284374941806421]","[-1,-1,-1]","[-0.03824546957942466,-0.08296408989493681]","[-1,-1,-1]","[0.07747447036369925,0.11226595222586595]","[1,1,1]","[-0.12623111575290097,0.11336002413825207]","[-1,-1,-1]","[0.002995427238329702,-0.18216629337175688]","[-1,-1,-1]","[0.01615082099530904,-0.028841105423594877]","[1,1,1]","[-0.028110239373392156,0.06296051892260969]","[-1,-1,-1]","[-0.1109947320596136,0.004492746883745377]","[1,1,1]","[-0.13577987215169252,-0.08053824267433195]","[1,1,1]","[0.16489916224085374,-0.10490025086841577]","[-1,-1,-1]","[0.11771252312261146,0.07523702120149134]","[1,1,1]","[0.13798365316586933,-0.13852375993409716]","[-1,-1,-1]","[0.001411350338566209,0.12125370854939423]","[-1,-1,-1]","[-0.10742960635254974,0.055542414902989175]","[1,1,1]","[0.14174925840933547,-0.02732449350092245]","[-1,-1,-1]","[0.06837610283110968,-0.015942994735374114]","[-1,-1,-1]","[-0.08494625852463449,-0.08215597612262053]","[-1,-1,-1]","[0.17713069637523066,-0.05017415311626979]","[1,1,1]","[0.02,0.02]",322.7623,0,35,35,44,1,,,,,,,
,,,,,,,672879d614dce67b8c3090ea,682db3be696128d1b65f8671,2025-05-21_13h07.32.267,cuing_paradigm_dot,2024.1.5,Win32,60.24096386,682d556593cb38ad0a074487,,,,,,,,,,,322.7627,323.2585,,,323.5056,324.1554,left,,,,,,,,0.45,0.6333,,,,,,,323.2585,323.5056,324.1555,"[-0.08365716957218541,-0.1048636214330486]","[-1,-1,-1]","[-0.12125397404874734,0.07253311197971853]","[-1,-1,-1]","[-0.024521789201345724,0.09612911444558107]","[-1,-1,-1]","[0.07901220988549629,0.1483065472449752]","[-1,-1,-1]","[-0.1469921050670353,-0.07784263925914639]","[-1,-1,-1]","[0.0780398174369116,0.049612201786893774]","[1,1,1]","[0.010864442800310571,0.15323513111682882]","[1,1,1]","[0.14232996273100884,-0.11386783827081483]","[-1,-1,-1]","[-0.14477859812409788,0.009088969895770781]","[-1,-1,-1]","[-0.11533634924619023,-0.162566332565069]","[1,1,1]","[-0.05818048465616969,0.12974302995865486]","[-1,-1,-1]","[-0.1676823042840416,-0.03560905464923695]","[1,1,1]","[0.027093847815202188,0.04909002556396608]","[-1,-1,-1]","[-0.07562723887507662,0.07848294988495223]","[1,1,1]","[0.04116863367543472,-0.19089680916673063]","[-1,-1,-1]","[-0.028654832331466654,-0.06916582060362228]","[-1,-1,-1]","[0.11582819908807684,0.07675265106341196]","[1,1,1]","[-0.024150232799849413,0.025167612749472695]","[-1,-1,-1]","[0.05786765663694676,0.09737168369921297]","[-1,-1,-1]","[0.14602616261684276,-0.02062901699387802]","[-1,-1,-1]","[-0.07705663332301362,0.008432482978546771]","[1,1,1]","[-0.046224897193177426,-0.16379923890479048]","[1,1,1]","[0.07065962889174733,-0.028469907337990142]","[1,1,1]","[-0.042731402204176705,-0.01285235708477239]","[-1,-1,-1]","[0.09325573982859706,-0.11151455257847404]","[1,1,1]","[0.00026857724048083835,0.19442962910327036]","[1,1,1]","[0.03063939328258043,-0.14049679571895848]","[1,1,1]","[0.17688844557340452,0.039382612846758196]","[1,1,1]","[-0.012131002964978202,-0.19436747487985184]","[-1,-1,-1]","[0.14802432643803032,0.10374333911381049]","[1,1,1]","[-0.12248684901039124,-0.035215616823659646]","[-1,-1,-1]","[-0.1542916357502355,0.11575821818047159]","[-1,-1,-1]","[0.02,0.02]",325.2597,0,36,36,65,1,,,,,,,
,,,,,,,672879d614dce67b8c3090ea,682db3be696128d1b65f8671,2025-05-21_13h07.32.267,cuing_paradigm_dot,2024.1.5,Win32,60.24096386,682d556593cb38ad0a074487,,,,,,,,,,,325.2601,325.7704,,,326.0128,326.8489,right,,,,,,,,0.55,0.8265,,,,,,,325.7705,326.0127,326.8489,"[0.06811859573526614,0.010868109438667612]","[1,1,1]","[-0.02945830616515232,0.01807801467610552]","[-1,-1,-1]","[0.08072737378345583,-0.14781840483338998]","[1,1,1]","[0.09964699422233404,-0.057531807885845075]","[1,1,1]","[-0.19934291512545602,0.002356915683266485]","[1,1,1]","[-0.04362349592163446,0.07532727677977935]","[-1,-1,-1]","[0.014131467137506924,-0.16002376237610355]","[1,1,1]","[0.11453501459794158,0.15804832223892157]","[-1,-1,-1]","[-0.05006829803911736,0.12971873793154887]","[1,1,1]","[-0.015316753763173988,0.17688124540702807]","[-1,-1,-1]","[0.025246762543432492,-0.04723945498766178]","[1,1,1]","[0.19828416526531095,0.004062697528941397]","[1,1,1]","[0.017413484112419244,0.11364682616021125]","[-1,-1,-1]","[-0.0599193338284898,-0.15623210351519748]","[1,1,1]","[-0.1479808031708917,0.0019066688181390479]","[-1,-1,-1]","[0.001785158016474963,-0.010733224545125883]","[-1,-1,-1]","[0.15500364137174774,-0.0007010572947016341]","[-1,-1,-1]","[-0.1301388321109985,-0.04377774285056524]","[1,1,1]","[-0.08545762637033838,-0.022737285602870562]","[-1,-1,-1]","[-0.10992094409049592,0.15368693985806386]","[-1,-1,-1]","[-0.041844227148551814,-0.10664256963311079]","[1,1,1]","[-0.11985274358745726,0.042999376405082654]","[1,1,1]","[-0.07147671598925215,0.03331816160027128]","[-1,-1,-1]","[0.16119151489998826,-0.052369741401583764]","[-1,-1,-1]","[-0.18517545258394746,0.06309320163894454]","[1,1,1]","[0.06068186809537176,0.1000281588787315]","[1,1,1]","[0.12431171103919926,0.06758803828391217]","[1,1,1]","[0.020980873023414896,0.05497615384020617]","[1,1,1]","[0.13117516237971547,-0.10755529880023129]","[1,1,1]","[0.06582101596817867,0.05554560173885362]","[-1,-1,-1]","[-0.016647762539634053,-0.19685211841164907]","[1,1,1]","[0.05495895709826761,0.15811681131526972]","[-1,-1,-1]","[0.02,0.02]",327.9278,0,37,37,137,1,,,,,,,
,,,,,,,672879d614dce67b8c3090ea,682db3be696128d1b65f8671,2025-05-21_13h07.32.267,cuing_paradigm_dot,2024.1.5,Win32,60.24096386,682d556593cb38ad0a074487,,,,,,,,,,,327.9281,328.4242,,,328.6724,329.3066,right,,,,,,,,0.6,0.6225,,,,,,,328.4243,328.6723,329.3067,"[-0.02429900584911654,-0.07828019231251634]","[-1,-1,-1]","[-0.054832211360768414,-0.1816559523646478]","[-1,-1,-1]","[-0.06996817371709216,0.022393876239156035]","[-1,-1,-1]","[0.09193172057045083,-0.0970162487412628]","[1,1,1]","[0.08805373710978392,0.08598623810803092]","[-1,-1,-1]","[-0.19136574506499401,0.03730500758170632]","[1,1,1]","[0.02553628708497164,-0.08863200688692563]","[1,1,1]","[0.04524076552735096,0.10686030269580857]","[-1,-1,-1]","[-0.13458785142029797,-0.0028169526103630047]","[1,1,1]","[0.09772445762426048,0.030570653946103084]","[1,1,1]","[0.007754244172668795,-0.18192177005430996]","[-1,-1,-1]","[0.0058113920025436,-0.03189523355338673]","[1,1,1]","[-0.13235209305502038,-0.06563742677698856]","[1,1,1]","[0.052508651505925916,-0.04156073661225802]","[1,1,1]","[0.18278286897945187,0.009345740768257662]","[-1,-1,-1]","[-0.04743115735488572,0.0710957783166157]","[1,1,1]","[-0.1386973131555545,0.04097047243532361]","[1,1,1]","[0.0532807651871858,0.1842814866718291]","[-1,-1,-1]","[0.17495372323774702,0.06059310195400505]","[1,1,1]","[-0.14567195873836367,-0.10913170623926785]","[1,1,1]","[0.14549902508579993,0.0947045649095565]","[-1,-1,-1]","[0.13923715096363898,-0.00726629857993613]","[-1,-1,-1]","[0.05068539391613172,0.028565959965532517]","[1,1,1]","[-0.05024588745083562,-0.11853504858908884]","[-1,-1,-1]","[-0.10904955869139138,0.08777896398050541]","[1,1,1]","[-0.05870476696257876,0.12336088022010806]","[1,1,1]","[-0.04466187094436829,0.17441608278273676]","[-1,-1,-1]","[-0.10242203848090503,-0.14793333622857271]","[-1,-1,-1]","[0.10093406139521151,0.14268306150580146]","[1,1,1]","[0.08718255138126899,-0.1384165849553584]","[1,1,1]","[-0.09496205212236485,-0.036346190403075726]","[1,1,1]","[-0.18469489527683192,-0.03280686234391512]","[1,1,1]","[0.02,0.02]",330.4101,0,38,38,176,1,,,,,,,
,,,,,,,672879d614dce67b8c3090ea,682db3be696128d1b65f8671,2025-05-21_13h07.32.267,cuing_paradigm_dot,2024.1.5,Win32,60.24096386,682d556593cb38ad0a074487,,,,,,,,,,,330.4106,330.9038,,,331.1567,332.6576,,,,,,,,,0.45,,,,,,,,330.9038,331.1567,332.6577,"[-0.023926141757449396,-0.031124865498553332]","[1,1,1]","[-0.18481082220161074,0.057657320905730725]","[1,1,1]","[0.020727385631968184,0.015702293431386512]","[-1,-1,-1]","[-0.028056295556159613,-0.16297704911926106]","[-1,-1,-1]","[-0.17304107451449122,0.09608376826437416]","[1,1,1]","[-0.004720104856240061,-0.19687480896753637]","[1,1,1]","[-0.11990120889462018,0.05889289682332248]","[1,1,1]","[-0.039783857958050194,-0.11182268370237984]","[-1,-1,-1]","[0.1654030620842384,0.06233990097692341]","[-1,-1,-1]","[-0.08771400652465905,-0.0940123878624839]","[-1,-1,-1]","[0.13495679569126035,-0.09371937549223507]","[-1,-1,-1]","[0.09235486814049876,0.011223910415856393]","[1,1,1]","[0.01061980236113435,-0.14380811907484115]","[1,1,1]","[-0.08086199638315365,0.17966742147506923]","[-1,-1,-1]","[0.10433603632493718,0.14254833988994756]","[-1,-1,-1]","[0.03907649561593087,0.1365157888318736]","[-1,-1,-1]","[0.048124302334872665,-0.10704114464391855]","[1,1,1]","[0.12452562028896595,0.055915703884182495]","[-1,-1,-1]","[-0.10357932562038365,-0.010156789991177974]","[1,1,1]","[-0.14772997110655206,-0.04968445363080103]","[-1,-1,-1]","[0.005180470755061895,-0.09202128643840296]","[-1,-1,-1]","[0.06059615957065444,-0.14898783955373746]","[-1,-1,-1]","[-0.07098226941832197,0.0649781313582786]","[-1,-1,-1]","[0.03207612391603762,0.09177242143543846]","[-1,-1,-1]","[-0.02618213888820396,0.0396656504510194]","[1,1,1]","[0.08874952140127602,-0.062225790806686984]","[-1,-1,-1]","[0.054874644416641215,-0.03656246383658177]","[1,1,1]","[0.04156585225741207,0.18838423393470943]","[-1,-1,-1]","[0.14468537867760653,0.006070805476159049]","[1,1,1]","[0.17922070927708564,-0.048046577239942344]","[1,1,1]","[-0.046240654082006026,0.14868013050914233]","[-1,-1,-1]","[-0.18420003548545721,0.017120587861682534]","[1,1,1]","[0.02,0.02]",333.7717,0,39,39,71,1,,,,,,,
,,,,,,,672879d614dce67b8c3090ea,682db3be696128d1b65f8671,2025-05-21_13h07.32.267,cuing_paradigm_dot,2024.1.5,Win32,60.24096386,682d556593cb38ad0a074487,,,,,,,,,,,333.7721,334.2601,,,334.5107,334.8066,left,,,,,,,,0.9,0.2827,,,,,,,334.2601,334.5106,334.8067,"[0.180888134571728,0.07510978519681681]","[1,1,1]","[0.13402933243791185,-0.06809748786119296]","[1,1,1]","[0.061404898712362835,-0.1736690806041232]","[1,1,1]","[0.08844427857801049,0.14126136861305585]","[1,1,1]","[0.17315584695928524,-0.015546610071089838]","[-1,-1,-1]","[-0.08245600968684437,-0.16893576650720704]","[1,1,1]","[0.01691958127208768,0.18571931146645013]","[1,1,1]","[-0.04772471965223287,-0.13432012388187997]","[1,1,1]","[0.08929402486371345,-0.04060991915050727]","[1,1,1]","[0.011411312784470488,0.11087947789863183]","[1,1,1]","[0.025874936218251255,-0.0059022574606145545]","[1,1,1]","[-0.03629469018944879,0.1603037618863302]","[1,1,1]","[-0.12487656132550223,0.0012704130733680481]","[1,1,1]","[0.1006375356253112,-0.00021771333154054555]","[-1,-1,-1]","[0.07006939782027576,0.09193618893319432]","[1,1,1]","[-0.05097855805528987,0.07077216532821132]","[1,1,1]","[-0.006264085108684143,-0.11648530833864569]","[1,1,1]","[-0.07814044016682029,0.03287917974180939]","[1,1,1]","[0.14429786631753497,0.012977308655631327]","[1,1,1]","[0.012914585147027325,-0.166560568220115]","[1,1,1]","[0.16067911050862138,0.11554229874329797]","[1,1,1]","[-0.10157674449490432,-0.08349345250002599]","[1,1,1]","[-0.15050955711415462,-0.04539873060928828]","[1,1,1]","[-0.07406872956728283,0.1113773057752836]","[1,1,1]","[0.09519958018164695,-0.10775178269918552]","[-1,-1,-1]","[0.045952159592504066,-0.08909170854219545]","[1,1,1]","[-0.12178651238311293,0.11035716622156898]","[1,1,1]","[0.01867729810376908,-0.05585494237298417]","[1,1,1]","[-0.15474281084782007,0.05577276586543304]","[1,1,1]","[-0.07818992940276707,0.16157825774327317]","[1,1,1]","[0.11814387728901402,0.10520500594605198]","[1,1,1]","[-0.13753229813103393,-0.14033505230742155]","[1,1,1]","[0.02,0.02]",335.9068,0,40,40,200,1,,,,,,,
,,,,,,,672879d614dce67b8c3090ea,682db3be696128d1b65f8671,2025-05-21_13h07.32.267,cuing_paradigm_dot,2024.1.5,Win32,60.24096386,682d556593cb38ad0a074487,,,,,,,,,,,335.9071,336.3952,,,336.6417,337.5238,right,,,,,,,,0.55,0.871,,,,,,,336.3953,336.6417,337.5238,"[0.01216426571730102,-0.09925625922393778]","[-1,-1,-1]","[0.07543060420829406,-0.11585394349948255]","[1,1,1]","[-0.017680189704469967,0.03851341156278534]","[1,1,1]","[-0.16788753016324318,0.0750990265192903]","[1,1,1]","[-0.061380901478870285,0.16551277097270284]","[1,1,1]","[0.11157932978336307,-0.011136829146573756]","[1,1,1]","[0.028730348113915498,0.006842813771647547]","[1,1,1]","[-0.05786445223971586,0.03006875185652924]","[-1,-1,-1]","[-0.01571979108764909,0.15943164199465487]","[1,1,1]","[-0.19484580375665356,-0.019425039021363524]","[1,1,1]","[-0.0025854295106208574,-0.14841475713913693]","[-1,-1,-1]","[0.12388213371546564,0.14419982777896362]","[-1,-1,-1]","[-0.061692423633031485,-0.08375729720427694]","[-1,-1,-1]","[0.18868491106492674,0.02824118494229974]","[-1,-1,-1]","[-0.11486594404414786,0.02737825286649249]","[-1,-1,-1]","[0.0808737569721,-0.1801089268900791]","[-1,-1,-1]","[-0.11417554333934093,0.1001759882083615]","[1,1,1]","[-0.18462002843703024,0.02339656323850564]","[-1,-1,-1]","[0.1651588144112903,-0.09966897450263017]","[1,1,1]","[0.11586411959566267,-0.12127856938973544]","[-1,-1,-1]","[0.1446322383475543,-0.05712491494285675]","[-1,-1,-1]","[-0.12372196664006768,-0.07464764876720521]","[-1,-1,-1]","[-0.08916416247370794,-0.14631726429289058]","[1,1,1]","[0.19198635046386536,-0.036882009035410675]","[1,1,1]","[-0.13952129383622477,-0.14238543975916224]","[1,1,1]","[-0.03426733828089451,0.11772599635876291]","[1,1,1]","[0.056314019640523114,-0.06873532315911382]","[1,1,1]","[0.14134883218632682,0.07686794668573933]","[1,1,1]","[-0.03684697587975884,-0.1779660764465113]","[-1,-1,-1]","[0.02160335924311108,0.11516028648641134]","[1,1,1]","[0.038128178948019564,0.05896826488133655]","[-1,-1,-1]","[0.03454793662451441,0.1732653942008787]","[1,1,1]","[0.02,0.02]",338.6256,0,41,41,126,1,,,,,,,
,,,,,,,672879d614dce67b8c3090ea,682db3be696128d1b65f8671,2025-05-21_13h07.32.267,cuing_paradigm_dot,2024.1.5,Win32,60.24096386,682d556593cb38ad0a074487,,,,,,,,,,,338.6262,339.1272,,,339.3748,340.4073,right,,,,,,,,0.55,1.0196,,,,,,,339.1272,339.3748,340.4074,"[0.1771933923606963,-0.08946817737059382]","[1,1,1]","[-0.12283540373585745,-0.10260171237181394]","[-1,-1,-1]","[-0.16236565738861444,-0.07834653647683139]","[1,1,1]","[-0.0026040856937794483,-0.10677758468524043]","[-1,-1,-1]","[0.022250776062380323,0.008102110531764066]","[-1,-1,-1]","[-0.002295887657759988,0.044992438599406444]","[1,1,1]","[-0.1728099938994048,-0.01598893833405448]","[-1,-1,-1]","[-0.06673790302232951,0.10275650847980014]","[1,1,1]","[0.05205480145409169,-0.1707874808729582]","[1,1,1]","[0.01861909908816671,0.16201428696215323]","[-1,-1,-1]","[0.17379766847798656,0.08265619000128957]","[-1,-1,-1]","[0.04545660756272069,-0.030150545948767562]","[-1,-1,-1]","[-0.15000303237912618,0.03193423922445185]","[1,1,1]","[-0.09456496114765069,-0.15419994430982278]","[1,1,1]","[-0.044416768493701644,-0.09161886254209402]","[1,1,1]","[-0.09271306057887727,0.024093035083041163]","[-1,-1,-1]","[0.03201008226236831,0.09255746188827788]","[-1,-1,-1]","[0.03923468844003305,-0.13189462865788731]","[1,1,1]","[0.11201207582496517,-0.15862337015702632]","[-1,-1,-1]","[0.09659264150229613,-0.08330370649977556]","[-1,-1,-1]","[-0.11118921564797501,0.14864820418686442]","[1,1,1]","[-0.1372439310197362,0.10905047495058955]","[1,1,1]","[-0.018689670117111732,-0.1930167814734616]","[1,1,1]","[0.12152964448645705,-0.022881854330703253]","[-1,-1,-1]","[0.16551743512257064,-0.0025414906114312476]","[1,1,1]","[-0.18267597734148866,0.06739731258850558]","[1,1,1]","[-0.10912364193590439,0.06161163030997414]","[1,1,1]","[-0.05868453239569902,-0.13180682214716025]","[1,1,1]","[0.13669886522529962,0.10851139885780786]","[-1,-1,-1]","[0.041586654701521994,-0.09001272936526854]","[-1,-1,-1]","[-0.09559136455263667,-0.025199225425896466]","[1,1,1]","[0.13281036176766958,0.035547231286856794]","[1,1,1]","[0.02,0.02]",341.5048,0,42,42,130,1,,,,,,,
,,,,,,,672879d614dce67b8c3090ea,682db3be696128d1b65f8671,2025-05-21_13h07.32.267,cuing_paradigm_dot,2024.1.5,Win32,60.24096386,682d556593cb38ad0a074487,,,,,,,,,,,341.5051,341.9929,,,342.2438,343.2745,left,,,,,,,,0.45,1.0189,,,,,,,341.9931,342.2438,343.2746,"[-0.12950038846818715,-0.10721733480463583]","[1,1,1]","[-0.06795242233716806,-0.1701317961806846]","[-1,-1,-1]","[0.01734651578886758,-0.12141653800069249]","[1,1,1]","[-0.14020509422285876,-0.0336504748005084]","[-1,-1,-1]","[-0.042241942619567444,-0.06336491811086273]","[-1,-1,-1]","[0.08082252275417469,-0.17035076876812696]","[-1,-1,-1]","[-0.08964358187474028,0.06846040438203543]","[1,1,1]","[0.03885831473852189,0.1671118329486833]","[-1,-1,-1]","[0.019879975723233405,-0.05093685486310429]","[-1,-1,-1]","[-0.005283166803681935,0.030229090522696234]","[-1,-1,-1]","[0.16582483977141882,0.04678947844865744]","[1,1,1]","[-0.17810598863405577,0.05419665417859088]","[-1,-1,-1]","[-0.11796605605726965,-0.15821368350781706]","[-1,-1,-1]","[-0.13674140913267846,0.0078954227808493]","[-1,-1,-1]","[0.004297959573196465,-0.16073443997219392]","[-1,-1,-1]","[0.09476047332694205,-0.10604340558252734]","[-1,-1,-1]","[0.16688604296346693,0.004589759243237129]","[1,1,1]","[0.0633391095070424,0.08308614610722141]","[-1,-1,-1]","[0.03355732433698184,0.11209484308568844]","[1,1,1]","[-0.06646988056185053,0.01355699028641807]","[1,1,1]","[-0.038102605681952895,0.19477493754942107]","[1,1,1]","[-0.1989030833268209,0.012008592663481572]","[1,1,1]","[-0.1788148990984117,-0.045058931597108734]","[-1,-1,-1]","[0.1401220805432392,0.09660965717735043]","[-1,-1,-1]","[-0.09034420539321113,-0.09702748238966243]","[1,1,1]","[0.09506188287601482,-0.05503254909003027]","[1,1,1]","[-0.12031954513636554,0.12514390055928692]","[1,1,1]","[0.10212538032725438,0.11703158932084383]","[-1,-1,-1]","[-0.06846536953449969,0.11080149300542451]","[-1,-1,-1]","[-0.032874939708465285,-0.11380338536506884]","[-1,-1,-1]","[0.18511676479637723,-0.033729362107772616]","[1,1,1]","[0.001343743034956622,0.076578180464696]","[1,1,1]","[0.02,0.02]",344.3735,0,43,43,76,1,,,,,,,
,,,,,,,672879d614dce67b8c3090ea,682db3be696128d1b65f8671,2025-05-21_13h07.32.267,cuing_paradigm_dot,2024.1.5,Win32,60.24096386,682d556593cb38ad0a074487,,,,,,,,,,,344.374,344.8744,,,345.1269,345.9748,right,,,,,,,,0.6,0.8301,,,,,,,344.8745,345.1269,345.9748,"[0.03715779039236687,0.17378211442682853]","[-1,-1,-1]","[-0.004283646282843271,0.04114648924521667]","[1,1,1]","[0.09178839825124256,-0.12702683760232075]","[-1,-1,-1]","[-0.10426499569090703,-0.10538494348685254]","[1,1,1]","[-0.10036729165943695,0.06359401108661801]","[-1,-1,-1]","[-0.1119992739054861,0.004074165654330136]","[1,1,1]","[-0.015721399173261753,0.11355347161848378]","[-1,-1,-1]","[-0.08911895175674497,0.10638623118421238]","[1,1,1]","[-0.10650712045680656,0.16596238763611368]","[-1,-1,-1]","[0.08808914522824694,0.14541964241418973]","[1,1,1]","[0.07691405990520704,0.07506883678938452]","[-1,-1,-1]","[-0.09838479149403917,-0.03955504281514868]","[1,1,1]","[-0.15431892248612197,-0.025287372185465094]","[1,1,1]","[0.08220821656926983,-0.04865709344051337]","[-1,-1,-1]","[-0.1301644434554363,0.10623708326381424]","[1,1,1]","[-0.030296189153770307,-0.1873118364519663]","[1,1,1]","[0.01736313862000886,-0.08030223654573615]","[1,1,1]","[0.023143548163388133,0.08989790821024987]","[1,1,1]","[-0.05348090662642229,-0.02033386728418644]","[-1,-1,-1]","[0.09257154292861615,0.0023193133080009302]","[-1,-1,-1]","[-0.17333386762573613,0.012955095276844632]","[1,1,1]","[-0.022837701233441785,-0.12301369232120041]","[-1,-1,-1]","[-0.010732858843571025,-0.02419381709181561]","[1,1,1]","[0.014939339192934862,-0.1475729587739837]","[-1,-1,-1]","[0.1639252177132383,-0.04331898627029489]","[1,1,1]","[0.13649508616622377,0.08893397150819635]","[1,1,1]","[0.18410376139643667,0.07350723014266045]","[-1,-1,-1]","[0.05160800434598295,-0.003829768751718992]","[1,1,1]","[-0.08807929504503245,-0.16266774795249112]","[1,1,1]","[-0.04925697462688157,0.1469531698504559]","[1,1,1]","[-0.02865471570226326,0.07505092930993348]","[1,1,1]","[-0.15596551760695887,-0.07397385669748802]","[-1,-1,-1]","[0.02,0.02]",347.0782,0,44,44,171,1,,,,,,,
