right,left,explain.started,explain.stopped,key_resp_3.keys,key_resp_3.rt,key_resp_3.duration,participant,session,date,expName,psychopyVersion,OS,frameRate,study_id,explain_2.started,explain_2.stopped,key_resp_4.keys,key_resp_4.rt,key_resp_4.duration,explain_3.started,explain_3.stopped,key_resp_5.keys,key_resp_5.rt,key_resp_5.duration,fixation.started,fixation.stopped,practice.started,practice.stopped,response.started,response.stopped,key_resp.keys,feedback.started,feedback.stopped,trials_2.thisRepN,trials_2.thisTrialN,trials_2.thisN,trials_2.thisIndex,trials_2.ran,white_ratio,key_resp.rt,key_resp.duration,explain_4.started,explain_4.stopped,key_resp_6.keys,key_resp_6.rt,key_resp_6.duration,dotDisplay.started,dotDisplay.stopped,ITI.started,polygon_1.pos,polygon_1.color,polygon_2.pos,polygon_2.color,polygon_3.pos,polygon_3.color,polygon_4.pos,polygon_4.color,polygon_5.pos,polygon_5.color,polygon_6.pos,polygon_6.color,polygon_7.pos,polygon_7.color,polygon_8.pos,polygon_8.color,polygon_9.pos,polygon_9.color,polygon_10.pos,polygon_10.color,polygon_11.pos,polygon_11.color,polygon_12.pos,polygon_12.color,polygon_13.pos,polygon_13.color,polygon_14.pos,polygon_14.color,polygon_15.pos,polygon_15.color,polygon_16.pos,polygon_16.color,polygon_17.pos,polygon_17.color,polygon_18.pos,polygon_18.color,polygon_19.pos,polygon_19.color,polygon_20.pos,polygon_20.color,polygon_21.pos,polygon_21.color,polygon_22.pos,polygon_22.color,polygon_23.pos,polygon_23.color,polygon_24.pos,polygon_24.color,polygon_25.pos,polygon_25.color,polygon_26.pos,polygon_26.color,polygon_27.pos,polygon_27.color,polygon_28.pos,polygon_28.color,polygon_29.pos,polygon_29.color,polygon_30.pos,polygon_30.color,polygon_31.pos,polygon_31.color,polygon_32.pos,polygon_32.color,dot_size,ITI.stopped,trials.thisRepN,trials.thisTrialN,trials.thisN,trials.thisIndex,trials.ran,break_2.started,break_2.stopped,trials_3.thisRepN,trials_3.thisTrialN,trials_3.thisN,trials_3.thisIndex,trials_3.ran
subject chose white,subject chose black,0.0007,50.5203,space,35.5016,,672e070e0a631ffab8d21860,682db4dc9fc219e305f4ce8e,2025-05-21_13h17.44.192,cuing_paradigm_dot,2024.1.5,Win32,59.52380952,682d556593cb38ad0a074487,,,,,,,,,,,,,,,,,,,,,,,,,,,,,,,,,,,,,,,,,,,,,,,,,,,,,,,,,,,,,,,,,,,,,,,,,,,,,,,,,,,,,,,,,,,,,,,,,,,,,,,,,,,,,,,,,
,,,,,,,672e070e0a631ffab8d21860,682db4dc9fc219e305f4ce8e,2025-05-21_13h17.44.192,cuing_paradigm_dot,2024.1.5,Win32,59.52380952,682d556593cb38ad0a074487,50.5214,166.9488,space,86.4069,,,,,,,,,,,,,,,,,,,,,,,,,,,,,,,,,,,,,,,,,,,,,,,,,,,,,,,,,,,,,,,,,,,,,,,,,,,,,,,,,,,,,,,,,,,,,,,,,,,,,,,,,,,,,
,,,,,,,672e070e0a631ffab8d21860,682db4dc9fc219e305f4ce8e,2025-05-21_13h17.44.192,cuing_paradigm_dot,2024.1.5,Win32,59.52380952,682d556593cb38ad0a074487,,,,,,166.949,187.4652,space,17.5007,,,,,,,,,,,,,,,,,,,,,,,,,,,,,,,,,,,,,,,,,,,,,,,,,,,,,,,,,,,,,,,,,,,,,,,,,,,,,,,,,,,,,,,,,,,,,,,,,,,,,,,,
,,,,,,,672e070e0a631ffab8d21860,682db4dc9fc219e305f4ce8e,2025-05-21_13h17.44.192,cuing_paradigm_dot,2024.1.5,Win32,59.52380952,682d556593cb38ad0a074487,,,,,,,,,,,187.5066,187.9783,187.9794,188.2295,188.2298,189.7279,,189.7285,190.8277,0,0,0,0,1,0.8,,,,,,,,,,,,,,,,,,,,,,,,,,,,,,,,,,,,,,,,,,,,,,,,,,,,,,,,,,,,,,,,,,,,,,,,,,,,,,,,,,,,,,,,
,,,,,,,672e070e0a631ffab8d21860,682db4dc9fc219e305f4ce8e,2025-05-21_13h17.44.192,cuing_paradigm_dot,2024.1.5,Win32,59.52380952,682d556593cb38ad0a074487,,,,,,,,,,,190.83,191.3275,191.3277,191.5828,191.583,192.2,left,192.2001,193.2976,0,1,1,1,1,0.2,0.6016,,,,,,,,,,,,,,,,,,,,,,,,,,,,,,,,,,,,,,,,,,,,,,,,,,,,,,,,,,,,,,,,,,,,,,,,,,,,,,,,,,,,,,,
,,,,,,,672e070e0a631ffab8d21860,682db4dc9fc219e305f4ce8e,2025-05-21_13h17.44.192,cuing_paradigm_dot,2024.1.5,Win32,59.52380952,682d556593cb38ad0a074487,,,,,,,,,,,,,,,,,,,,,,,,,,,,193.2985,198.9007,space,2.5834,,,,,,,,,,,,,,,,,,,,,,,,,,,,,,,,,,,,,,,,,,,,,,,,,,,,,,,,,,,,,,,,,,,,,,,,,,,,,,,,,,
,,,,,,,672e070e0a631ffab8d21860,682db4dc9fc219e305f4ce8e,2025-05-21_13h17.44.192,cuing_paradigm_dot,2024.1.5,Win32,59.52380952,682d556593cb38ad0a074487,,,,,,,,,,,198.9281,199.4102,,,199.6616,199.8782,left,,,,,,,,0.45,0.2078,,,,,,,199.4112,199.6614,199.8795,"[-0.09219756296783951,-0.0395790250394038]","[-1,-1,-1]","[0.09235475787656651,0.003663606109597071]","[-1,-1,-1]","[-0.1713225138672276,-0.010859628850956095]","[-1,-1,-1]","[0.14676214085353678,-0.12257051256254992]","[-1,-1,-1]","[-0.07720190654274328,0.12543056227553423]","[-1,-1,-1]","[0.036173358878648754,0.15117457844589421]","[-1,-1,-1]","[-0.0276065906365191,0.06863739525595682]","[-1,-1,-1]","[0.09292153805643227,0.1618761118126763]","[1,1,1]","[0.010509512349446627,0.08697059085177455]","[1,1,1]","[-0.09917723420459171,0.07166883235307668]","[1,1,1]","[0.01600916308170019,-0.08929204914143689]","[-1,-1,-1]","[-0.14796398279368406,-0.05600953005981411]","[1,1,1]","[-0.15193329183114618,-0.12133048921341898]","[-1,-1,-1]","[-0.003551829509272081,0.019105559854842184]","[-1,-1,-1]","[0.13239480247314073,0.017295596958187633]","[1,1,1]","[0.1263922331454164,-0.07066920478748712]","[1,1,1]","[0.14647307721852562,0.10653532112278825]","[1,1,1]","[0.048612035621786794,0.029486817586557166]","[-1,-1,-1]","[0.18187030535765208,-0.03816088842480853]","[-1,-1,-1]","[-0.10007849783244441,-0.11553795632473005]","[-1,-1,-1]","[0.02623049720032892,-0.1394421396870683]","[1,1,1]","[-0.02129745486741188,-0.04177479186083839]","[1,1,1]","[-0.06692535129734056,0.17170863822885826]","[1,1,1]","[0.051680501413138846,-0.1886858459102834]","[-1,-1,-1]","[0.05408050742268001,-0.07632483599117573]","[1,1,1]","[-0.14299379226272577,0.1204090593348284]","[-1,-1,-1]","[0.09521075563211215,-0.10782419682593541]","[1,1,1]","[-0.17907508709717493,0.03288216442753946]","[-1,-1,-1]","[0.08647390053638362,0.04385263492280726]","[1,1,1]","[0.08328752842928762,0.12181726567268479]","[-1,-1,-1]","[0.047420142876083635,0.0706731316726156]","[-1,-1,-1]","[-0.18352188252224236,0.07622639041412362]","[1,1,1]","[0.02,0.02]",200.9773,0,0,0,75,1,,,,,,,
,,,,,,,672e070e0a631ffab8d21860,682db4dc9fc219e305f4ce8e,2025-05-21_13h17.44.192,cuing_paradigm_dot,2024.1.5,Win32,59.52380952,682d556593cb38ad0a074487,,,,,,,,,,,200.9787,201.4767,,,201.7284,203.227,,,,,,,,,0.45,,,,,,,,201.4771,201.7284,203.2273,"[-0.049770440224364935,0.004417340227787044]","[1,1,1]","[-0.024049615881541444,-0.11134296960214395]","[-1,-1,-1]","[-0.03176551241318402,0.17180466333742334]","[-1,-1,-1]","[0.03897725044859849,0.1735490939700012]","[1,1,1]","[-0.16769251498775262,-0.10275400947287922]","[1,1,1]","[-0.17233905110179518,-0.04522044587250669]","[-1,-1,-1]","[0.06266384888342336,-0.010624693800179958]","[1,1,1]","[0.007292211945008545,-0.059247455008141554]","[1,1,1]","[-0.08765999998196458,-0.13369921650063432]","[-1,-1,-1]","[-0.11831743639269586,0.09974043148615996]","[1,1,1]","[-0.1225879915154613,-0.09275339160507054]","[-1,-1,-1]","[-0.09320424266587764,0.13620115515058032]","[-1,-1,-1]","[-0.19213774719856372,-0.008759285561847553]","[1,1,1]","[0.19048019544636507,-0.016888860298063416]","[1,1,1]","[0.095243422232533,-0.07709987164126761]","[-1,-1,-1]","[0.14501199716071506,0.09847331124980657]","[-1,-1,-1]","[0.13802570100620218,0.027994881963473207]","[-1,-1,-1]","[0.024111198561557887,0.011867250967455042]","[-1,-1,-1]","[-0.09031383413451413,-0.06009507548622684]","[-1,-1,-1]","[0.18079465364055664,0.03913450234873033]","[-1,-1,-1]","[-0.12113632067824412,0.05341899854421781]","[-1,-1,-1]","[0.14835566046042134,-0.011921262653328926]","[-1,-1,-1]","[-0.00042561900180109196,0.10925640212417612]","[1,1,1]","[0.11933965531911507,0.12978101737760034]","[-1,-1,-1]","[-0.16374778385225924,0.06740138285111803]","[1,1,1]","[0.1100899021278903,0.06495786448357199]","[-1,-1,-1]","[-0.06301898137473626,-0.1799197918225138]","[-1,-1,-1]","[-0.1261948372135688,0.006239561171239688]","[-1,-1,-1]","[-0.046765735506200376,0.08005584849812744]","[1,1,1]","[0.006565871432388033,-0.18388364299415347]","[1,1,1]","[0.04169506694608711,-0.08432018454523783]","[1,1,1]","[0.07016434193210819,0.14097953706878175]","[1,1,1]","[0.02,0.02]",204.3268,0,1,1,69,1,,,,,,,
,,,,,,,672e070e0a631ffab8d21860,682db4dc9fc219e305f4ce8e,2025-05-21_13h17.44.192,cuing_paradigm_dot,2024.1.5,Win32,59.52380952,682d556593cb38ad0a074487,,,,,,,,,,,204.3281,204.8266,,,205.0778,205.6436,left,,,,,,,,0.5,0.5525,,,,,,,204.8267,205.0777,205.6437,"[0.041414164341177485,-0.06139732893638552]","[1,1,1]","[-0.12376298190612878,-0.12861394222369088]","[1,1,1]","[-0.04922981546417989,-0.10743281054845118]","[-1,-1,-1]","[0.030529132500287055,-0.16117466507917605]","[-1,-1,-1]","[0.10794904119375323,0.08362924643614605]","[-1,-1,-1]","[-0.005512550142131125,0.11329935396941188]","[-1,-1,-1]","[-0.12526722233495488,0.0008325053782567953]","[1,1,1]","[-0.06884506451379585,0.05220473515635887]","[-1,-1,-1]","[-0.010629868335439111,0.1946289191086356]","[-1,-1,-1]","[0.05254101679896944,0.1636216258916331]","[-1,-1,-1]","[0.11531994404085144,0.044099621325411155]","[-1,-1,-1]","[-0.13852934355284172,0.11751874896738605]","[1,1,1]","[-0.02006983226759258,-0.030866931902391984]","[-1,-1,-1]","[0.13821348392811622,-0.12613616866400773]","[1,1,1]","[0.15958390723574933,0.059348828907261134]","[1,1,1]","[-0.16356336735112278,0.03923968956628115]","[-1,-1,-1]","[0.1626619137174768,0.014200207738761685]","[1,1,1]","[0.03746167136877418,-0.10188012442581255]","[1,1,1]","[0.06328722499627511,0.09038598387180888]","[-1,-1,-1]","[-0.11191599923522118,0.04014623840570159]","[-1,-1,-1]","[-0.0021646309254408575,0.04911805996236879]","[-1,-1,-1]","[0.14197000788825812,-0.022765912617831504]","[1,1,1]","[0.0804868577715687,-0.02476994199803498]","[-1,-1,-1]","[-0.08421989890774217,-0.084540463933973]","[1,1,1]","[-0.13728775338031649,-0.06776283373137526]","[1,1,1]","[-0.11082691731319863,0.1540062407514035]","[1,1,1]","[0.1266046058918153,-0.07420666041258167]","[-1,-1,-1]","[-0.016208722826678363,-0.17056633331798618]","[-1,-1,-1]","[-0.06972099042630842,-0.17382435242629224]","[1,1,1]","[0.11399752954850613,0.14192683911332046]","[1,1,1]","[0.08336795545979744,-0.11194351340649518]","[1,1,1]","[0.06555734138076487,0.021025463759807347]","[1,1,1]","[0.02,0.02]",206.7433,0,2,2,116,1,,,,,,,
,,,,,,,672e070e0a631ffab8d21860,682db4dc9fc219e305f4ce8e,2025-05-21_13h17.44.192,cuing_paradigm_dot,2024.1.5,Win32,59.52380952,682d556593cb38ad0a074487,,,,,,,,,,,206.7449,207.2431,,,207.494,207.9103,right,,,,,,,,0.5,0.4042,,,,,,,207.2431,207.4939,207.9104,"[0.16749452742269,0.03317526692477715]","[-1,-1,-1]","[0.09036450450542324,-0.06990009553897064]","[1,1,1]","[-0.17665937589568081,0.03493244019104896]","[-1,-1,-1]","[0.08576402360929647,0.12055605412061916]","[1,1,1]","[0.054243442356568194,0.02761700191062724]","[1,1,1]","[0.17209099082932003,-0.060564846990931266]","[-1,-1,-1]","[0.01125656521693127,0.018100432523201152]","[1,1,1]","[0.14924826861891743,0.11226668629656357]","[1,1,1]","[0.06122590125969558,-0.15588311055040488]","[1,1,1]","[-0.020601159598950022,0.1396064535656931]","[1,1,1]","[0.19657784189601518,-0.01540466260222171]","[-1,-1,-1]","[0.18515437711838453,0.06981302450514314]","[-1,-1,-1]","[-0.04855741834477299,0.033899844085007236]","[-1,-1,-1]","[0.1020768414300098,-0.014767356928911466]","[-1,-1,-1]","[-0.033517664262193714,-0.15682173772849511]","[1,1,1]","[0.11503878122251596,0.08439961225810642]","[-1,-1,-1]","[-0.10755477413833439,-0.026697442094659102]","[-1,-1,-1]","[-0.10981075861808968,0.14936193458089242]","[-1,-1,-1]","[0.02070356955991764,0.13276328871172097]","[-1,-1,-1]","[0.10289226566742157,-0.12322835697481367]","[1,1,1]","[0.04634356012668012,0.17475621311173492]","[-1,-1,-1]","[-0.13451034801838,0.006070227656823264]","[1,1,1]","[-0.15555753917713763,-0.05517898722185451]","[1,1,1]","[-0.014266362242164555,-0.11751034795763363]","[1,1,1]","[-0.13077078131838504,0.06840742149763628]","[-1,-1,-1]","[-0.05933542681460337,0.09523084067788369]","[1,1,1]","[-0.017632745126954334,-0.07332676612285162]","[1,1,1]","[0.013974180801483887,-0.19408698678162867]","[-1,-1,-1]","[0.024934322996143076,-0.129164763897909]","[1,1,1]","[0.1499154557505872,-0.024575035197652955]","[-1,-1,-1]","[0.023107334573574216,0.09122913448795807]","[-1,-1,-1]","[-0.08900472505468418,-0.13855005623663352]","[1,1,1]","[0.02,0.02]",209.0099,0,3,3,95,1,,,,,,,
,,,,,,,672e070e0a631ffab8d21860,682db4dc9fc219e305f4ce8e,2025-05-21_13h17.44.192,cuing_paradigm_dot,2024.1.5,Win32,59.52380952,682d556593cb38ad0a074487,,,,,,,,,,,209.0113,209.51,,,209.7609,211.2606,,,,,,,,,0.45,,,,,,,,209.5102,209.7608,211.2608,"[0.15402036397975882,0.013224704408223468]","[1,1,1]","[-0.15639152554323893,-0.05915437941688119]","[-1,-1,-1]","[-0.05772375402696436,-0.18190807870556108]","[1,1,1]","[-0.11629297129558248,0.04419721039661501]","[1,1,1]","[0.15259013245660255,0.09549764907938203]","[1,1,1]","[0.031149613074758564,0.16721281134938432]","[1,1,1]","[-0.12026151501454505,-0.1504082324977391]","[1,1,1]","[-0.08628976325225018,-0.11296218666249852]","[-1,-1,-1]","[0.17915075697710622,0.061616358383172365]","[1,1,1]","[0.013367187516964122,0.10769929045840418]","[-1,-1,-1]","[-0.0051394897927273435,0.047949964897380244]","[1,1,1]","[-0.01496002117887005,-0.06086861350364039]","[-1,-1,-1]","[-0.1488541589408226,0.10844422512339952]","[-1,-1,-1]","[0.12866787410965722,-0.10650663134263096]","[-1,-1,-1]","[0.037940676564181604,-0.08245717032647705]","[-1,-1,-1]","[0.10172047567595868,0.16229776394223508]","[-1,-1,-1]","[-0.014485386157928026,0.002175037059110824]","[-1,-1,-1]","[0.0019385696797325402,-0.10058017923206536]","[-1,-1,-1]","[0.1108630328318586,0.03790004291579459]","[-1,-1,-1]","[-0.09166081848656737,-0.06610309880489026]","[-1,-1,-1]","[0.0812861163016343,0.10716360024037065]","[-1,-1,-1]","[-0.030731171818878984,-0.14923482455113546]","[1,1,1]","[0.045890843795474034,-0.1480762608473364]","[1,1,1]","[0.018843272755138387,-0.02552109049110213]","[1,1,1]","[-0.07314648880969211,0.0792917192747464]","[-1,-1,-1]","[0.09364183150749016,-0.1709673871330291]","[-1,-1,-1]","[0.18599250031129813,-0.04676451900422184]","[1,1,1]","[0.04593317117688149,0.003932053569366414]","[-1,-1,-1]","[-0.054646350164673334,0.14157836707010904]","[1,1,1]","[0.12721921599703856,-0.048212907042973215]","[-1,-1,-1]","[-0.15862849193733822,-0.012566401317584932]","[1,1,1]","[-0.0703532318641268,-0.03140581874210821]","[-1,-1,-1]","[0.02,0.02]",212.3599,0,4,4,81,1,,,,,,,
,,,,,,,672e070e0a631ffab8d21860,682db4dc9fc219e305f4ce8e,2025-05-21_13h17.44.192,cuing_paradigm_dot,2024.1.5,Win32,59.52380952,682d556593cb38ad0a074487,,,,,,,,,,,212.3619,212.8597,,,213.1103,213.527,left,,,,,,,,0.45,0.4015,,,,,,,212.8599,213.1103,213.527,"[0.001214628559331132,-0.19058261274536895]","[-1,-1,-1]","[0.06167981914229485,-0.05712083001363933]","[1,1,1]","[-0.10592579773534674,0.16360285884493653]","[-1,-1,-1]","[0.03548604715669097,-0.08865503498299908]","[-1,-1,-1]","[-0.06122263110081031,-0.1852748867179331]","[1,1,1]","[0.03696746773000951,0.16881290999554385]","[1,1,1]","[0.08943630441680483,0.03968268991206215]","[-1,-1,-1]","[-0.16766059980169273,0.055163748169141276]","[-1,-1,-1]","[-0.03762847803542484,0.09867921684835411]","[-1,-1,-1]","[0.08274524001452309,-0.003758433233181858]","[1,1,1]","[0.1397618241461173,0.016900804066004596]","[1,1,1]","[-0.14451319892494704,0.09316045032733497]","[-1,-1,-1]","[0.15560749417856626,-0.049056992304269166]","[-1,-1,-1]","[0.08195724194790333,0.08891941338377567]","[-1,-1,-1]","[0.027798992641018615,-0.01599218394767007]","[-1,-1,-1]","[-0.0812334586743516,-0.04825021688749809]","[-1,-1,-1]","[-0.04867304911124348,0.039320171977841316]","[1,1,1]","[0.0736734851884915,-0.17094452715080152]","[-1,-1,-1]","[0.03133438156346967,0.05958066014480787]","[-1,-1,-1]","[-0.044207858187099824,-0.07098536648038986]","[-1,-1,-1]","[-0.16137294686385942,-0.0007069237119908481]","[-1,-1,-1]","[-0.09227466813948712,0.11859325004855699]","[1,1,1]","[-0.016521793815257813,0.1437692400596107]","[1,1,1]","[0.05809804458584844,0.13181103119006266]","[1,1,1]","[-0.10384032169366246,-0.1494073105566074]","[-1,-1,-1]","[0.15834570962994826,0.11633100797090377]","[-1,-1,-1]","[-0.059591002412703015,0.1453759891155596]","[1,1,1]","[-0.019244294720244224,-0.14244890174232414]","[1,1,1]","[0.10901696845114259,-0.09515535289358835]","[1,1,1]","[-0.16461462589099335,-0.09731653066284122]","[1,1,1]","[0.1461090195847247,-0.13286470416270643]","[-1,-1,-1]","[0.196699654637989,0.019511767136355714]","[1,1,1]","[0.02,0.02]",214.626,0,5,5,64,1,,,,,,,
,,,,,,,672e070e0a631ffab8d21860,682db4dc9fc219e305f4ce8e,2025-05-21_13h17.44.192,cuing_paradigm_dot,2024.1.5,Win32,59.52380952,682d556593cb38ad0a074487,,,,,,,,,,,214.6277,215.1263,,,215.3769,215.7937,left,,,,,,,,0.55,0.4054,,,,,,,215.1263,215.3767,215.7938,"[-0.13986539295849532,0.0198908670931812]","[-1,-1,-1]","[0.10361133992399042,-0.06544851507865172]","[-1,-1,-1]","[-0.11800719514239974,-0.028377659937966294]","[-1,-1,-1]","[0.132518764362465,0.03745039566397411]","[1,1,1]","[0.10821656219821492,-0.11198647265872294]","[-1,-1,-1]","[-0.062085995328972125,-0.11612336480483411]","[1,1,1]","[0.03130022058472375,-0.015741940162056024]","[1,1,1]","[0.15523650320455853,-0.0960361800774]","[1,1,1]","[-0.18565958037218935,-0.03349018743131352]","[-1,-1,-1]","[-0.1453807579160726,0.11107149899647314]","[1,1,1]","[0.03933444455695122,0.07930076722796107]","[1,1,1]","[-0.04256982463632447,0.1034342386939163]","[1,1,1]","[0.01677775352897467,0.1323354085018043]","[1,1,1]","[-0.053153928858220345,-0.023341215015451118]","[-1,-1,-1]","[-0.11187151183431486,-0.09052005470726478]","[1,1,1]","[0.061824968347113554,-0.04233645068484578]","[1,1,1]","[0.15341017229472684,0.07963268867640351]","[1,1,1]","[0.022020380373140885,-0.09796797580424416]","[1,1,1]","[-0.06728009704410581,0.06359872260527065]","[-1,-1,-1]","[-0.005881035041810341,0.034646919552273704]","[-1,-1,-1]","[0.009226177809311925,-0.1455611532015209]","[1,1,1]","[0.08627066047526756,0.011498736165605474]","[-1,-1,-1]","[0.1769750543269054,-0.034873962315952536]","[-1,-1,-1]","[-0.07069780542687824,0.022357862755447024]","[-1,-1,-1]","[0.07122879131146445,0.15962989572201688]","[1,1,1]","[-0.08519598366351883,0.13077836373822885]","[1,1,1]","[0.1264762113980994,-0.15013342518597927]","[-1,-1,-1]","[-0.09873621818036263,-0.16752322160040997]","[1,1,1]","[0.06319635855131296,-0.18822852228665676]","[-1,-1,-1]","[-0.010898081331689064,-0.06413126178516623]","[1,1,1]","[-0.028520719710683626,0.1547639806168087]","[1,1,1]","[0.12351801347725766,-0.01069893603138098]","[-1,-1,-1]","[0.02,0.02]",216.8927,0,6,6,129,1,,,,,,,
,,,,,,,672e070e0a631ffab8d21860,682db4dc9fc219e305f4ce8e,2025-05-21_13h17.44.192,cuing_paradigm_dot,2024.1.5,Win32,59.52380952,682d556593cb38ad0a074487,,,,,,,,,,,216.8943,217.3927,,,217.646,218.3114,right,,,,,,,,0.5,0.654,,,,,,,217.3928,217.6458,218.3121,"[-0.026376764095794834,0.06120188724656282]","[1,1,1]","[-0.006489761728625028,-0.03399066858734207]","[-1,-1,-1]","[0.03716845052755205,-0.05655491751476343]","[-1,-1,-1]","[0.02748209520363317,0.12722282019372466]","[-1,-1,-1]","[-0.02466497163136921,-0.1517004943762237]","[-1,-1,-1]","[0.1637208630484318,-0.08285537162112994]","[1,1,1]","[-0.13491489832403994,0.03622928167479274]","[-1,-1,-1]","[0.08006396936881077,-0.06708720927701815]","[-1,-1,-1]","[-0.07618168103021869,0.11655977183276321]","[1,1,1]","[0.1624812909122161,0.05417889977989597]","[1,1,1]","[0.004504031031118827,0.16786412848604507]","[-1,-1,-1]","[0.12294217734856477,-0.10793350974780368]","[1,1,1]","[0.15732253171096336,0.014092672957862663]","[1,1,1]","[0.044014748869466186,0.06732684377083471]","[-1,-1,-1]","[-0.00897367172179662,0.010623076832648444]","[-1,-1,-1]","[-0.07125746168546113,0.011593604301326771]","[1,1,1]","[0.03828654753609618,-0.17682482906720212]","[-1,-1,-1]","[-0.16084969379210898,0.06781909609623239]","[-1,-1,-1]","[-0.021399709927461492,-0.08289788212947356]","[1,1,1]","[-0.09889326053042682,-0.047511395579832465]","[1,1,1]","[-0.1317896804277311,-0.019533455039183033]","[1,1,1]","[0.11361018358727747,0.01365235518014469]","[1,1,1]","[-0.1499896238104217,-0.11631358477585087]","[1,1,1]","[0.11834525417136744,-0.049354398992718096]","[-1,-1,-1]","[0.1385109524134922,0.13078832309525218]","[-1,-1,-1]","[0.05814206801018229,0.1815066227238835]","[1,1,1]","[-0.18873533826171288,0.01067799375238267]","[-1,-1,-1]","[0.07247036823340183,0.012519824513160764]","[1,1,1]","[-0.11312211310942924,0.08689381530951164]","[-1,-1,-1]","[-0.0677350592248983,-0.1276101811258349]","[-1,-1,-1]","[-0.10773013690951447,0.14839949975149172]","[1,1,1]","[0.10043288992641858,-0.16380093066171056]","[1,1,1]","[0.02,0.02]",219.4097,0,7,7,118,1,,,,,,,
,,,,,,,672e070e0a631ffab8d21860,682db4dc9fc219e305f4ce8e,2025-05-21_13h17.44.192,cuing_paradigm_dot,2024.1.5,Win32,59.52380952,682d556593cb38ad0a074487,,,,,,,,,,,219.4114,219.9091,,,220.1614,220.4601,left,,,,,,,,0.1,0.2913,,,,,,,219.9092,220.1609,220.4602,"[-0.17319020722409248,-0.009071867691335084]","[-1,-1,-1]","[-0.04336711683748883,-0.125787569293028]","[1,1,1]","[0.07040981777110367,-0.14604921388958142]","[-1,-1,-1]","[0.12625632523533878,-0.027328873977948795]","[-1,-1,-1]","[-0.08636963333146802,0.1789679282928141]","[-1,-1,-1]","[0.013632623119082764,-0.015381273096735835]","[-1,-1,-1]","[0.02683217458112597,0.16397669263611564]","[-1,-1,-1]","[-0.004192470430446137,0.11981406144879347]","[1,1,1]","[0.05411099097301637,-0.09101896213395705]","[-1,-1,-1]","[-0.08965293409469778,-0.13417026708355717]","[-1,-1,-1]","[0.01967789147960384,-0.17203260041479015]","[-1,-1,-1]","[0.16574716362954922,-0.08557819607233477]","[-1,-1,-1]","[0.14518476266499747,-0.13310542717356627]","[-1,-1,-1]","[-0.09874555216366145,-0.013897154983975053]","[-1,-1,-1]","[-0.023001367681761104,-0.1834591615648827]","[-1,-1,-1]","[-0.05231441228614895,0.11772014879972459]","[-1,-1,-1]","[-0.1625318055173294,0.040482128711368075]","[-1,-1,-1]","[-0.05242946866950728,0.02848102157376961]","[-1,-1,-1]","[0.013511402938358319,-0.07569380465581281]","[-1,-1,-1]","[0.1777386002565094,-0.036198025275617586]","[-1,-1,-1]","[0.10725546167032546,0.02130009350463121]","[-1,-1,-1]","[0.19764855216632432,0.014511086156722997]","[-1,-1,-1]","[-0.0584677220155531,0.07623928724521455]","[-1,-1,-1]","[0.0754078767868653,0.07669967052898297]","[1,1,1]","[0.09329725112244688,0.11898114030115245]","[-1,-1,-1]","[-0.04760804187720642,0.16401565594249276]","[-1,-1,-1]","[-0.10570687836600373,-0.08885148642651812]","[-1,-1,-1]","[-0.09249088911707895,0.11675526979307926]","[-1,-1,-1]","[-0.15822208324822098,0.10512283601817282]","[-1,-1,-1]","[-0.0056305207333655965,0.03662070978775422]","[-1,-1,-1]","[0.16973177125822606,0.0880184942784189]","[-1,-1,-1]","[0.10426213227890324,-0.09896729925150465]","[-1,-1,-1]","[0.02,0.02]",221.5592,0,8,8,23,1,,,,,,,
,,,,,,,672e070e0a631ffab8d21860,682db4dc9fc219e305f4ce8e,2025-05-21_13h17.44.192,cuing_paradigm_dot,2024.1.5,Win32,59.52380952,682d556593cb38ad0a074487,,,,,,,,,,,221.5605,222.0591,,,222.31,222.5933,left,,,,,,,,0.1,0.272,,,,,,,222.0591,222.3099,222.5933,"[0.05269263653531605,0.15913217405563002]","[-1,-1,-1]","[-0.022426725054922905,0.17884583592805758]","[-1,-1,-1]","[-0.03762763244051158,0.10264997894604472]","[-1,-1,-1]","[-0.02380853754488283,-0.09861261718973932]","[-1,-1,-1]","[-0.11997203133838351,-0.030089953379245405]","[1,1,1]","[0.0009481776083480894,-0.0020254891512367854]","[-1,-1,-1]","[0.16107588334515538,0.03299974389828835]","[-1,-1,-1]","[0.13193794765771666,-0.14960514266671607]","[-1,-1,-1]","[-0.039276677220920736,-0.1715957897938224]","[-1,-1,-1]","[-0.08506604895972773,0.0006113685205354741]","[-1,-1,-1]","[-0.1321472616337195,0.11356910220620323]","[-1,-1,-1]","[0.04941251999352875,-0.10293165439338099]","[1,1,1]","[0.0010885650509271792,0.14493063551504942]","[-1,-1,-1]","[-0.06964606226962247,-0.04439867476450474]","[-1,-1,-1]","[-0.17655028387313454,0.00917966718836917]","[-1,-1,-1]","[0.0337963089983473,-0.05311749704994992]","[-1,-1,-1]","[0.09092720619601229,-0.10333997862231535]","[-1,-1,-1]","[-0.12882078478972342,-0.12615217972843337]","[-1,-1,-1]","[0.14274671255148266,-0.033817161002005214]","[-1,-1,-1]","[-0.07606898481281928,0.0634165889102828]","[-1,-1,-1]","[-0.1523665099881922,-0.06208655062705404]","[-1,-1,-1]","[0.04354986103035949,-0.17288250649764053]","[-1,-1,-1]","[0.03148290284006897,0.08087128962443106]","[1,1,1]","[0.04289760891002211,0.03200675923072066]","[-1,-1,-1]","[0.11868044908374294,0.15762410244327252]","[-1,-1,-1]","[-0.11816151689339893,0.07071227527674842]","[-1,-1,-1]","[-0.11542715579978982,-0.07932852775818366]","[-1,-1,-1]","[0.10650750453735716,0.024695757722333008]","[-1,-1,-1]","[0.17067214929282679,0.08574800648469919]","[-1,-1,-1]","[-0.07624658027399867,-0.11199276579422304]","[-1,-1,-1]","[0.10815365767188653,0.11092885335731545]","[-1,-1,-1]","[0.05638453777767802,-0.008205955044619266]","[-1,-1,-1]","[0.02,0.02]",223.6923,0,9,9,25,1,,,,,,,
,,,,,,,672e070e0a631ffab8d21860,682db4dc9fc219e305f4ce8e,2025-05-21_13h17.44.192,cuing_paradigm_dot,2024.1.5,Win32,59.52380952,682d556593cb38ad0a074487,,,,,,,,,,,223.6934,224.1922,,,224.4436,224.8125,right,,,,,,,,0.5,0.3621,,,,,,,224.1923,224.4435,224.8129,"[-0.11058920295862235,-0.02571076598013502]","[1,1,1]","[0.1741115037775546,0.06043688673104614]","[-1,-1,-1]","[-0.17731215061797156,-0.017732931452885254]","[1,1,1]","[-0.18708131361021052,0.06024721055922327]","[1,1,1]","[-0.11256087115095627,0.05516082141615122]","[1,1,1]","[0.06641730997873103,0.1319489735939168]","[-1,-1,-1]","[-0.10129928300748427,-0.07857905964480749]","[-1,-1,-1]","[0.020491500012187518,0.04313562052763586]","[-1,-1,-1]","[0.131899958759091,0.006353796008982732]","[1,1,1]","[-0.05495029115881192,0.057946539274364564]","[-1,-1,-1]","[-0.1423558687303621,-0.10547703839840203]","[-1,-1,-1]","[-0.01300058788131348,0.18108584686757676]","[1,1,1]","[0.11672331868795621,0.09520836462101495]","[-1,-1,-1]","[-0.023070530356659947,0.09824228490091946]","[-1,-1,-1]","[-0.12354198489770467,0.14435225836160376]","[-1,-1,-1]","[0.026287459515083125,-0.15739386135342004]","[1,1,1]","[0.12930226346052154,-0.13343306971144633]","[-1,-1,-1]","[-0.030200127061628685,-0.10757666044548826]","[1,1,1]","[0.09446226831636555,0.06057907625592728]","[-1,-1,-1]","[-0.015817751484269393,-0.06529693285798589]","[-1,-1,-1]","[-0.08936082093313849,-0.1744734851083559]","[-1,-1,-1]","[-0.07567220700360652,-0.11723356191600383]","[1,1,1]","[-0.0432870279743201,-0.1753705548660639]","[1,1,1]","[-0.0727309807512915,0.1482630015046258]","[1,1,1]","[0.17984810066079027,-0.04611834189511236]","[1,1,1]","[0.11435108656584807,-0.05615442517628112]","[-1,-1,-1]","[0.02005444590686417,-0.02342222094062845]","[1,1,1]","[0.03969698134626684,0.19035251490093588]","[-1,-1,-1]","[0.06416928148358403,-0.10764677969810499]","[-1,-1,-1]","[0.09727445664822537,-0.16928348829125522]","[1,1,1]","[0.1885012446284549,0.020591578905076555]","[1,1,1]","[0.013629184997528744,0.11720000294358462]","[1,1,1]","[0.02,0.02]",225.9092,0,10,10,108,1,,,,,,,
,,,,,,,672e070e0a631ffab8d21860,682db4dc9fc219e305f4ce8e,2025-05-21_13h17.44.192,cuing_paradigm_dot,2024.1.5,Win32,59.52380952,682d556593cb38ad0a074487,,,,,,,,,,,225.9105,226.4087,,,226.6597,226.9611,left,,,,,,,,0.45,0.2952,,,,,,,226.4087,226.6597,226.9612,"[0.020782451306489726,-0.14967845020507795]","[1,1,1]","[0.12470662874407522,0.13053306924746655]","[-1,-1,-1]","[-0.15567094096405165,-0.006425051009971114]","[-1,-1,-1]","[-0.06534236970957721,-0.14617668574168166]","[-1,-1,-1]","[-0.03633500690656873,0.060194413136284784]","[-1,-1,-1]","[0.09224685262861552,-0.11609811537392965]","[1,1,1]","[-0.02956530841121131,-0.06564965803955725]","[-1,-1,-1]","[0.10671222553206978,-0.05189582999789307]","[1,1,1]","[-0.17220814371823312,0.08647652222226347]","[-1,-1,-1]","[-0.058150152376705434,-0.026917123289561046]","[1,1,1]","[-0.0999412141277322,0.00019082522876871845]","[1,1,1]","[0.17217622296435994,0.0843782381220391]","[1,1,1]","[0.1675736824519472,-0.10012443169875705]","[-1,-1,-1]","[0.04907781239068996,-0.09288669330978697]","[1,1,1]","[-0.03295531702136389,-0.11797958533006904]","[1,1,1]","[-0.08264013013593492,-0.10932549698008541]","[-1,-1,-1]","[-0.12145683493327179,-0.047508096357704914]","[1,1,1]","[-0.09341800005231231,0.042570076604907844]","[1,1,1]","[0.1302931121582534,0.033278024112831005]","[-1,-1,-1]","[0.052958118869815114,0.021473282867056673]","[1,1,1]","[0.1517649595026427,-0.028434566548181228]","[-1,-1,-1]","[0.09447467243687421,0.06280769089012675]","[-1,-1,-1]","[-0.1625487858938957,-0.08596557085699955]","[-1,-1,-1]","[0.09415461807457881,-0.011905986745413844]","[1,1,1]","[-0.03345417541848409,0.14454525474178406]","[-1,-1,-1]","[0.053755450673937756,0.1352091014436124]","[-1,-1,-1]","[-0.009246705536512643,0.10138172534171168]","[1,1,1]","[-0.10247428176163707,-0.16318315737707015]","[-1,-1,-1]","[0.0023989249555476317,0.18182144325912505]","[-1,-1,-1]","[0.02068183630448251,-0.048925272566765154]","[1,1,1]","[0.035922914879755345,-0.1951024530007705]","[-1,-1,-1]","[-0.01112762877831248,-0.009017091655583507]","[-1,-1,-1]","[0.02,0.02]",228.0585,0,11,11,80,1,,,,,,,
,,,,,,,672e070e0a631ffab8d21860,682db4dc9fc219e305f4ce8e,2025-05-21_13h17.44.192,cuing_paradigm_dot,2024.1.5,Win32,59.52380952,682d556593cb38ad0a074487,,,,,,,,,,,228.0596,228.5588,,,228.8097,229.0596,left,,,,,,,,0.1,0.2404,,,,,,,228.559,228.8097,229.0597,"[-0.127242043957409,0.10645129524370049]","[-1,-1,-1]","[0.004454467158231966,-0.029577078703981123]","[-1,-1,-1]","[0.029554786819769446,-0.11323559929883369]","[-1,-1,-1]","[0.10848086408183621,0.12909185114219504]","[-1,-1,-1]","[0.0980232960226858,-0.12181063357344818]","[1,1,1]","[0.15749228489469835,0.06168251128108218]","[-1,-1,-1]","[0.14013759406168336,-0.10601198896261575]","[-1,-1,-1]","[-0.13323095177408628,0.037174626832559746]","[-1,-1,-1]","[0.14180765855201188,-0.06374482131420152]","[-1,-1,-1]","[0.021754575770716225,0.03146057803700064]","[-1,-1,-1]","[0.04797675387688958,-0.17428903624227884]","[-1,-1,-1]","[-0.0925632761438938,-0.11635348000034333]","[-1,-1,-1]","[0.06407262582285905,0.0902690950649355]","[-1,-1,-1]","[-0.028888773476617478,-0.07078056346510288]","[-1,-1,-1]","[0.031791371267592454,0.1844317867475441]","[-1,-1,-1]","[-0.16898425472903036,0.09102956440686258]","[1,1,1]","[-0.0013622582038446194,-0.1996618331147733]","[-1,-1,-1]","[0.08393172690929787,-0.07910634063489352]","[-1,-1,-1]","[-0.07976421203677656,0.09238086944066627]","[-1,-1,-1]","[-0.0710554706227598,0.04077995091567524]","[-1,-1,-1]","[-0.06103180818924285,0.16351535523797178]","[-1,-1,-1]","[-0.03070064740692455,0.11901851570804087]","[-1,-1,-1]","[0.07911287774791136,0.035714720446816055]","[-1,-1,-1]","[-0.18146950421870958,-0.07725299714447778]","[-1,-1,-1]","[0.17935382834004548,-0.0441776076804506]","[-1,-1,-1]","[-0.0743341172370399,-0.15295280321015092]","[-1,-1,-1]","[0.11866438396738349,-0.01564868976336181]","[-1,-1,-1]","[-0.1069040670395018,-0.0017042029020408532]","[-1,-1,-1]","[0.012598617712800743,0.11808341807107246]","[1,1,1]","[0.15765546132965194,0.12065644181304108]","[-1,-1,-1]","[-0.08931440468463903,-0.056510435063828586]","[-1,-1,-1]","[-0.028728339249890666,0.025338572292012147]","[-1,-1,-1]","[0.02,0.02]",230.1589,0,12,12,12,1,,,,,,,
,,,,,,,672e070e0a631ffab8d21860,682db4dc9fc219e305f4ce8e,2025-05-21_13h17.44.192,cuing_paradigm_dot,2024.1.5,Win32,59.52380952,682d556593cb38ad0a074487,,,,,,,,,,,230.1602,230.6588,,,230.9098,231.2762,left,,,,,,,,0.4,0.3536,,,,,,,230.6588,230.9097,231.2762,"[-0.0174826751000796,-0.05545415862061011]","[-1,-1,-1]","[0.06319471957545414,0.12129018188528361]","[-1,-1,-1]","[0.033632004075994,0.04791171231060002]","[-1,-1,-1]","[-0.032147535001916396,0.029073278472514185]","[1,1,1]","[-0.04704605821269988,-0.18357333804072157]","[1,1,1]","[-0.15354003099361327,-0.10601194197261063]","[-1,-1,-1]","[0.11546072333557453,0.1560054073534686]","[-1,-1,-1]","[0.11513815098005399,-0.07037562519885164]","[1,1,1]","[0.1687442213918313,0.037088689868150275]","[-1,-1,-1]","[0.11000822995365857,-0.16314010152505634]","[-1,-1,-1]","[-0.1571893121521303,0.006478113642653811]","[1,1,1]","[0.07014716681740443,-0.13264752325991094]","[-1,-1,-1]","[0.028186353674647505,-0.15649680423332338]","[-1,-1,-1]","[0.03227418155079848,-0.09990289418148238]","[1,1,1]","[0.009700850635770905,0.16826932314664247]","[1,1,1]","[-0.101061818250138,-0.11456671866317159]","[1,1,1]","[0.1619492677743848,-0.027669093410531365]","[-1,-1,-1]","[-0.13973165633642867,0.08980306173100161]","[-1,-1,-1]","[0.1261918533709398,0.029621559046704153]","[1,1,1]","[0.14200238846207322,-0.11452724231284139]","[1,1,1]","[-0.0809297136339811,0.1676566180834178]","[-1,-1,-1]","[-0.10008174963285113,-0.03966830908739883]","[-1,-1,-1]","[0.14845904065357132,0.09397798424264618]","[-1,-1,-1]","[0.09444285315142652,-0.01841388290153844]","[-1,-1,-1]","[-0.11479096183300426,0.13510198557592545]","[1,1,1]","[-0.04378376900829945,-0.10583324800794594]","[1,1,1]","[0.07373792845339767,0.029691522700643506]","[-1,-1,-1]","[-0.09649174224617145,0.06766733609953034]","[1,1,1]","[0.032851736678993756,-0.009102720568444142]","[-1,-1,-1]","[-0.10295031579106118,0.019094277765629948]","[-1,-1,-1]","[-0.046207653658593174,0.07219869743318141]","[1,1,1]","[0.07273113550939739,0.0717135094354954]","[-1,-1,-1]","[0.02,0.02]",232.3753,0,13,13,47,1,,,,,,,
,,,,,,,672e070e0a631ffab8d21860,682db4dc9fc219e305f4ce8e,2025-05-21_13h17.44.192,cuing_paradigm_dot,2024.1.5,Win32,59.52380952,682d556593cb38ad0a074487,,,,,,,,,,,232.3766,232.8752,,,233.1256,233.5422,left,,,,,,,,0.4,0.4067,,,,,,,232.8752,233.1255,233.5422,"[0.12174775200459728,0.014274348602928647]","[1,1,1]","[0.024171306607506278,0.1957861827553342]","[-1,-1,-1]","[0.08509285348797994,-0.10086321603396006]","[-1,-1,-1]","[-0.052199802404725514,0.0466256508366913]","[-1,-1,-1]","[0.08835685513683064,0.10297008416426312]","[1,1,1]","[0.16351146553478832,0.028136395046446612]","[1,1,1]","[-0.06670722435531933,-0.0437780912950686]","[-1,-1,-1]","[-0.17704092537654267,0.029413462411851294]","[-1,-1,-1]","[0.15321685139247543,-0.010566935574502835]","[1,1,1]","[-0.11271027995310555,0.12727013869470424]","[1,1,1]","[0.011062810842729453,-0.12384201598302332]","[-1,-1,-1]","[-0.005885834690413383,-0.08534350007339486]","[-1,-1,-1]","[-0.11830582601908322,-0.08145063576391974]","[-1,-1,-1]","[0.008846704911516711,-0.006439732205536551]","[-1,-1,-1]","[-0.08006545962926528,0.16424266638420537]","[-1,-1,-1]","[0.18586789333683873,-0.05834476374945246]","[-1,-1,-1]","[0.06297001504340212,-0.1542461297933065]","[1,1,1]","[0.010730240398096997,0.046420179131512924]","[1,1,1]","[-0.1156058869902123,-0.13978916158387278]","[1,1,1]","[-0.15845051050909198,-0.018261861822593695]","[-1,-1,-1]","[0.05871944410406866,0.02620908982450468]","[1,1,1]","[-0.11226036689657767,0.03203418044750664]","[1,1,1]","[-0.15255568816900245,0.06355095520236995]","[1,1,1]","[-0.09671629587614128,0.08911407102707736]","[-1,-1,-1]","[0.06044532801221821,-0.04778937923432132]","[1,1,1]","[-0.15932999683562565,-0.08975361743711534]","[-1,-1,-1]","[-0.012410457380617631,-0.17231414371815468]","[1,1,1]","[-0.039020631658203055,-0.1414154580650006]","[-1,-1,-1]","[0.029257531279731634,0.11953255483401774]","[-1,-1,-1]","[0.03396443119115619,-0.0908583577581875]","[-1,-1,-1]","[0.08581267859935658,0.1636125680800587]","[-1,-1,-1]","[-0.013401638722934525,0.16172513212151535]","[-1,-1,-1]","[0.02,0.02]",234.6414,0,14,14,38,1,,,,,,,
,,,,,,,672e070e0a631ffab8d21860,682db4dc9fc219e305f4ce8e,2025-05-21_13h17.44.192,cuing_paradigm_dot,2024.1.5,Win32,59.52380952,682d556593cb38ad0a074487,,,,,,,,,,,234.6426,235.1417,,,235.392,235.6111,left,,,,,,,,0.4,0.2133,,,,,,,235.1417,235.3919,235.6111,"[0.07371646374463835,0.055244184958847156]","[1,1,1]","[0.09451944877527313,-0.11333350789858965]","[-1,-1,-1]","[0.1241693648330522,0.15606966176382878]","[1,1,1]","[0.15722667669072413,0.06918595103425863]","[1,1,1]","[0.014566037161041353,0.17241020685770364]","[-1,-1,-1]","[-0.11868089454233438,0.07754865451874662]","[-1,-1,-1]","[-0.04856032291798569,0.0010663146135534598]","[1,1,1]","[-0.08944555934103042,-0.05861620948595393]","[-1,-1,-1]","[0.00219908811246927,0.02002211292971531]","[1,1,1]","[0.12575188539468327,0.10031677626599696]","[-1,-1,-1]","[-0.0951042777687466,-0.01351005001735973]","[1,1,1]","[-0.18834622399209908,0.0514385404068929]","[-1,-1,-1]","[0.0822572066230425,-0.03461116070860506]","[1,1,1]","[-0.047765782166260415,0.10438058019386963]","[-1,-1,-1]","[-0.15135758716074876,-0.038303856558557]","[-1,-1,-1]","[-0.12227696494339828,0.15439147585659718]","[-1,-1,-1]","[-0.03726996228842747,-0.05924816912122558]","[1,1,1]","[0.12221107532834054,0.0007194914550218814]","[-1,-1,-1]","[-0.07685458829929685,0.05362311932063802]","[1,1,1]","[-0.16367984217858633,0.10486080776928981]","[-1,-1,-1]","[0.151292926970875,-0.1279423068957095]","[1,1,1]","[0.0035565598578334054,-0.03057955909609618]","[1,1,1]","[-0.19803765355210554,-0.013142518501566749]","[1,1,1]","[-0.06437057980777228,-0.11522411514245363]","[-1,-1,-1]","[0.03291449151298069,0.11146661389968614]","[1,1,1]","[-0.15642702708963974,0.004608906697659281]","[-1,-1,-1]","[0.008453266677059784,-0.1589359029175243]","[-1,-1,-1]","[0.17890121090129998,-0.031768419076750876]","[-1,-1,-1]","[0.004818568198872195,-0.11895859638238149]","[-1,-1,-1]","[-0.07348985008461179,0.16563204802420028]","[-1,-1,-1]","[-0.09762944489150514,-0.15069256780817505]","[-1,-1,-1]","[0.02379271766027985,-0.0728937960714239]","[-1,-1,-1]","[0.02,0.02]",236.708,0,15,15,59,1,,,,,,,
,,,,,,,672e070e0a631ffab8d21860,682db4dc9fc219e305f4ce8e,2025-05-21_13h17.44.192,cuing_paradigm_dot,2024.1.5,Win32,59.52380952,682d556593cb38ad0a074487,,,,,,,,,,,236.7092,237.2081,,,237.4589,238.0254,right,,,,,,,,0.9,0.5523,,,,,,,237.2082,237.4587,238.0254,"[0.04273433901180457,-0.191481070495461]","[1,1,1]","[-0.03654615362544049,0.034342739223382726]","[1,1,1]","[0.18594596950442316,-0.019494368238578932]","[1,1,1]","[-0.07990098022224319,-0.09600748042620183]","[1,1,1]","[-0.023338890012617537,-0.17779870366678222]","[1,1,1]","[-0.17150767800403985,0.03138918709827143]","[1,1,1]","[0.09857343963644732,0.006986009537664956]","[1,1,1]","[0.08453728672968161,0.10288781244337342]","[1,1,1]","[0.06944788968640493,-0.11557380521785696]","[1,1,1]","[0.09564240381898136,0.1639557096500607]","[1,1,1]","[0.19285961807728208,0.050307781254122545]","[1,1,1]","[0.126116489552143,-0.08644320738853067]","[1,1,1]","[-0.15280914818353994,-0.012579217135795783]","[1,1,1]","[-0.11112777825507766,-0.000005102226748708223]","[-1,-1,-1]","[-0.035132486497993866,0.09619987857719808]","[1,1,1]","[-0.04823754199882979,-0.054294467266820794]","[1,1,1]","[-0.039459253122698844,-0.10064068984087757]","[1,1,1]","[0.021374872221093893,0.06177945078752117]","[1,1,1]","[-0.10985549603953615,0.06792005082564445]","[1,1,1]","[0.14612475965899552,-0.036569677756347584]","[1,1,1]","[-0.052717794652884536,0.16611362632586812]","[1,1,1]","[0.02941524609136139,0.008227334171852533]","[1,1,1]","[0.09103813735193918,-0.15382125223746407]","[1,1,1]","[0.04494005368413785,0.12547771382301853]","[1,1,1]","[0.06136214995037076,-0.05808155363306037]","[1,1,1]","[0.13216559170958428,0.12236617215472212]","[-1,-1,-1]","[-0.14141810829151222,-0.09568311928099396]","[1,1,1]","[-0.011511283710711062,0.1854483632414407]","[1,1,1]","[-0.03751820197892964,-0.014257505112062942]","[1,1,1]","[0.12987560835598955,0.06841150144616424]","[1,1,1]","[0.02910754034030733,-0.1035146882737554]","[1,1,1]","[-0.008103890413482586,0.14178798622501476]","[-1,-1,-1]","[0.02,0.02]",239.1247,0,16,16,209,1,,,,,,,
,,,,,,,672e070e0a631ffab8d21860,682db4dc9fc219e305f4ce8e,2025-05-21_13h17.44.192,cuing_paradigm_dot,2024.1.5,Win32,59.52380952,682d556593cb38ad0a074487,,,,,,,,,,,239.1261,239.6246,,,239.8756,240.142,left,,,,,,,,0.1,0.2533,,,,,,,239.6247,239.8754,240.1422,"[0.02918851838687022,0.07542424859942233]","[-1,-1,-1]","[0.1769381490319151,-0.07221382228972974]","[-1,-1,-1]","[0.18297071200907733,-0.021541479297158307]","[-1,-1,-1]","[-0.09029600217659961,-0.14872793093078995]","[1,1,1]","[-0.19524358932330296,0.007453218401111271]","[-1,-1,-1]","[-0.01150279054298227,0.12981334424471597]","[-1,-1,-1]","[0.040193680793642945,0.16183492583051232]","[-1,-1,-1]","[-0.1519230749672742,-0.12624208999305944]","[-1,-1,-1]","[0.03143049389315067,-0.16616732921574048]","[-1,-1,-1]","[0.08834101776209402,0.1194404839986701]","[-1,-1,-1]","[-0.04164139420108349,-0.1684310309680334]","[-1,-1,-1]","[0.15807008905202127,0.07099157311528055]","[1,1,1]","[-0.020055211745947283,0.19267891509347573]","[-1,-1,-1]","[0.09713336015662484,-0.08301229065946676]","[-1,-1,-1]","[-0.060480037924977165,0.14330204467961352]","[-1,-1,-1]","[0.08445510578491308,-0.12627464028733082]","[-1,-1,-1]","[-0.15813970994518808,0.06112778364559114]","[-1,-1,-1]","[0.09839076536822895,0.057835123362183084]","[-1,-1,-1]","[-0.15239155654042832,-0.038687694321691994]","[-1,-1,-1]","[-0.14005092854365092,-0.08356826941005153]","[-1,-1,-1]","[0.030944157411279576,-0.06502557999153653]","[-1,-1,-1]","[-0.1591985778775012,0.10220223425111148]","[1,1,1]","[-0.06153605614147446,-0.08660218394351209]","[-1,-1,-1]","[0.07089182243055915,-0.042104658549186706]","[-1,-1,-1]","[0.004613996275008452,-0.011381905370966235]","[-1,-1,-1]","[-0.06772018981156387,0.05249615101258482]","[-1,-1,-1]","[-0.07566302381919528,-0.017489017830164596]","[-1,-1,-1]","[0.11258754969098655,0.005131961028671772]","[-1,-1,-1]","[0.02398293753721376,-0.11900655269193777]","[-1,-1,-1]","[-0.11313514848689876,0.021001376109190246]","[-1,-1,-1]","[-0.12329360146006631,0.1256017568474438]","[-1,-1,-1]","[-0.026509385836648264,0.023807276871159272]","[-1,-1,-1]","[0.02,0.02]",241.2413,0,17,17,19,1,,,,,,,
,,,,,,,672e070e0a631ffab8d21860,682db4dc9fc219e305f4ce8e,2025-05-21_13h17.44.192,cuing_paradigm_dot,2024.1.5,Win32,59.52380952,682d556593cb38ad0a074487,,,,,,,,,,,241.2426,241.7413,,,241.9926,242.3751,left,,,,,,,,0.1,0.3699,,,,,,,241.7414,241.9926,242.3752,"[-0.05935249059141109,-0.0175325936592562]","[-1,-1,-1]","[-0.1307338914366839,-0.07652736702799999]","[-1,-1,-1]","[-0.09446618942685034,-0.051546777313563594]","[-1,-1,-1]","[-0.04126325472074541,0.14690143121078444]","[-1,-1,-1]","[-0.001477823754939388,0.012952227216018441]","[-1,-1,-1]","[0.12551670624124464,-0.15543786821197586]","[-1,-1,-1]","[0.13431699813921402,-0.10743984967843698]","[-1,-1,-1]","[0.034011498888978677,-0.13807468078220733]","[-1,-1,-1]","[0.035602031815620466,0.15237551365650384]","[-1,-1,-1]","[-0.1941032099953362,-0.04557473190179485]","[-1,-1,-1]","[-0.045817918200932964,0.0918715656302552]","[-1,-1,-1]","[-0.014122921322745773,0.05982900343340346]","[-1,-1,-1]","[0.030600583522770848,0.0885047984666465]","[-1,-1,-1]","[0.01924680019803944,-0.03696745386694484]","[-1,-1,-1]","[-0.17175228475102586,-0.08595501904739415]","[1,1,1]","[-0.08665648282658661,0.12840610282334347]","[-1,-1,-1]","[-0.13588499646815477,-0.02166494556417328]","[-1,-1,-1]","[-0.10438151566580085,-0.1395317875881884]","[-1,-1,-1]","[0.07583500785975074,-0.0879773578448616]","[1,1,1]","[0.05275434450069606,-0.010640427312277755]","[-1,-1,-1]","[-0.04792476998243213,-0.10371371786649668]","[-1,-1,-1]","[0.16800102214650983,0.012782646133521093]","[-1,-1,-1]","[-0.10916228184282002,0.0813140249829079]","[-1,-1,-1]","[0.13667376015281413,-0.04468165109753894]","[-1,-1,-1]","[-0.19497627482562468,-0.0026033907352921892]","[-1,-1,-1]","[0.09597676974073734,-0.026212745443794407]","[-1,-1,-1]","[-0.1367382743573756,0.1404707819681327]","[-1,-1,-1]","[0.09554568126170374,0.10934790860267472]","[1,1,1]","[0.014232256827630328,-0.17563211168528087]","[-1,-1,-1]","[0.17783826276130857,-0.07296378287210777]","[-1,-1,-1]","[-0.014505304507760063,0.11701147221987178]","[-1,-1,-1]","[-0.14303536171555337,-0.11619313237105777]","[-1,-1,-1]","[0.02,0.02]",243.4747,0,18,18,28,1,,,,,,,
,,,,,,,672e070e0a631ffab8d21860,682db4dc9fc219e305f4ce8e,2025-05-21_13h17.44.192,cuing_paradigm_dot,2024.1.5,Win32,59.52380952,682d556593cb38ad0a074487,,,,,,,,,,,243.4762,243.9749,,,244.2249,244.7249,right,,,,,,,,0.55,0.4851,,,,,,,243.975,244.2248,244.725,"[0.0947162659035731,-0.12103596624043372]","[1,1,1]","[-0.07160338236810507,-0.10386881974239127]","[-1,-1,-1]","[-0.10709048627406553,0.16855238555006882]","[-1,-1,-1]","[-0.08840374322306449,0.012599700107091731]","[1,1,1]","[0.1710895847732818,-0.03018118762388918]","[1,1,1]","[-0.04028305412632939,-0.1395941258514059]","[-1,-1,-1]","[-0.05399339905757884,0.055916286132990135]","[1,1,1]","[-0.10186034143538587,0.056701081169499526]","[-1,-1,-1]","[0.074335323280855,0.056444861022615915]","[1,1,1]","[-0.19735188820590796,0.013755455183705963]","[1,1,1]","[0.15579123898626684,0.01933573157302591]","[-1,-1,-1]","[-0.1513803839389357,0.01801195370194483]","[-1,-1,-1]","[0.05590349949149695,-0.18716697238497623]","[1,1,1]","[-0.16552804306802366,-0.09543959564810256]","[1,1,1]","[0.11986844802966741,-0.05265492947503606]","[1,1,1]","[0.022482149919164435,-0.10474047932367546]","[1,1,1]","[-0.15273947891038772,0.0769172260904433]","[-1,-1,-1]","[0.1405485478161539,-0.10705294803443653]","[-1,-1,-1]","[-0.0017684229628354012,-0.05150420849389714]","[1,1,1]","[-0.0831400084293849,-0.0444990510678026]","[-1,-1,-1]","[0.015083580784130357,0.04291312039865782]","[-1,-1,-1]","[0.16091251077348467,0.059755147402655605]","[1,1,1]","[-0.02381870644591749,-0.19684225246347203]","[-1,-1,-1]","[-0.026062402711930215,0.16746553393225744]","[1,1,1]","[0.036476765954054025,0.149512390600469]","[1,1,1]","[0.027490621888255903,0.0011804607625697048]","[-1,-1,-1]","[0.040250944710197786,0.0898125513999162]","[-1,-1,-1]","[0.10059980952563623,0.09687892645397561]","[1,1,1]","[0.06386782485380874,0.18312930475025097]","[1,1,1]","[-0.026249076311609793,0.10291746645505653]","[-1,-1,-1]","[-0.06921446182071604,0.14215855963750942]","[1,1,1]","[0.06024878710195032,-0.14593182597580415]","[1,1,1]","[0.02,0.02]",245.8242,0,19,19,136,1,,,,,,,
,,,,,,,672e070e0a631ffab8d21860,682db4dc9fc219e305f4ce8e,2025-05-21_13h17.44.192,cuing_paradigm_dot,2024.1.5,Win32,59.52380952,682d556593cb38ad0a074487,,,,,,,,,,,245.8254,246.3246,,,246.5751,246.9415,left,,,,,,,,0.6,0.3514,,,,,,,246.3248,246.575,246.9415,"[-0.06697052217347252,0.1470802451668604]","[1,1,1]","[-0.044842563282211374,-0.09006296375295889]","[-1,-1,-1]","[0.1094848041507539,-0.1015366171420872]","[1,1,1]","[-0.14982761301496095,0.10466576495461498]","[-1,-1,-1]","[-0.11627785988472668,-0.041763373727936315]","[-1,-1,-1]","[0.03493323805831082,-0.14163739586622717]","[1,1,1]","[0.0038900756614155315,0.08493753791187622]","[1,1,1]","[-0.16438541895872102,0.050489728536547304]","[-1,-1,-1]","[0.13732294080482949,-0.011277170624819486]","[-1,-1,-1]","[0.07992878036471338,0.02012057206809792]","[1,1,1]","[-0.09391206676249654,-0.09189647906184975]","[1,1,1]","[-0.06070292407778897,-0.16375715915596825]","[1,1,1]","[-0.10604275588694966,0.1343961890887119]","[-1,-1,-1]","[-0.13339533422241726,-0.11495364162976383]","[-1,-1,-1]","[0.08896504129886666,0.06438331183125272]","[-1,-1,-1]","[0.14091392925138646,0.11961438096216319]","[1,1,1]","[-0.16335935983600824,0.005602125361173256]","[1,1,1]","[0.0021616529976064337,0.1580565780211669]","[1,1,1]","[0.15982761162542403,0.03496465425200664]","[1,1,1]","[-0.059899866078899265,-0.020748891555582318]","[1,1,1]","[0.09163429590145279,0.12139365411696564]","[-1,-1,-1]","[0.08515062726545462,-0.024796873391067068]","[-1,-1,-1]","[0.12341525658253703,-0.05074675823112153]","[1,1,1]","[0.04155669923634154,-0.09827169115264227]","[1,1,1]","[-0.022447530466326172,0.011636035958550527]","[1,1,1]","[0.009065681568045141,-0.1972843672330897]","[-1,-1,-1]","[-0.00495941861758522,-0.1464862820771994]","[1,1,1]","[0.1641921045339285,-0.07747243087122253]","[1,1,1]","[-0.0517110460125808,0.04807866435582725]","[-1,-1,-1]","[-0.05591623956015632,0.10066716324935895]","[-1,-1,-1]","[0.1404779094506715,0.07703814883719587]","[1,1,1]","[0.035355319362022665,0.005533208936236364]","[1,1,1]","[0.02,0.02]",248.0411,0,20,20,150,1,,,,,,,
,,,,,,,672e070e0a631ffab8d21860,682db4dc9fc219e305f4ce8e,2025-05-21_13h17.44.192,cuing_paradigm_dot,2024.1.5,Win32,59.52380952,682d556593cb38ad0a074487,,,,,,,,,,,248.0423,248.5407,,,248.792,249.1914,left,,,,,,,,0.6,0.3885,,,,,,,248.5408,248.7919,249.1914,"[-0.14149410837804655,-0.007425382637472546]","[1,1,1]","[-0.06559687216045053,-0.12282009090725363]","[-1,-1,-1]","[-0.019047125925494752,0.0658631353572541]","[1,1,1]","[0.003018218914072382,-0.02146115871860706]","[-1,-1,-1]","[0.03521203341429119,-0.08711413124525233]","[1,1,1]","[-0.09663096942595518,0.0070460975387352945]","[1,1,1]","[-0.0920412973689553,0.13641581160032573]","[1,1,1]","[0.17287985427756805,-0.034174147561332]","[-1,-1,-1]","[0.06946433068486403,0.05347055252683825]","[1,1,1]","[-0.06481258092328081,-0.07815846555492408]","[1,1,1]","[0.14907329413262344,0.010026690485586529]","[1,1,1]","[-0.04721852109278679,0.12193097969558234]","[-1,-1,-1]","[0.11366969088123564,-0.07648621428701997]","[-1,-1,-1]","[-0.15296116469139528,0.08733260580399309]","[1,1,1]","[0.18882318208425622,0.054080136875142064]","[-1,-1,-1]","[-0.12543011336423332,-0.1447641830627192]","[-1,-1,-1]","[-0.003822971600175915,-0.07025124593082076]","[-1,-1,-1]","[-0.09032320846452553,0.09494637340851896]","[1,1,1]","[0.150069585753271,-0.10260418030519987]","[-1,-1,-1]","[-0.032180428518257455,-0.17596633767764316]","[1,1,1]","[0.01253797910732591,0.10560282253002029]","[-1,-1,-1]","[0.01660496773892879,0.027671699885168773]","[1,1,1]","[0.034179530548196106,0.18208879479142046]","[1,1,1]","[0.12393779447517939,0.06750053667656516]","[1,1,1]","[0.032419052887368814,-0.15841397600201274]","[1,1,1]","[0.007062535204087583,-0.12346054865932259]","[1,1,1]","[0.07517112210642174,0.1677663858973684]","[-1,-1,-1]","[0.12391547007045917,0.11645556858983988]","[-1,-1,-1]","[-0.07144172387620137,-0.16574088840129755]","[1,1,1]","[-0.19066952287640548,0.043884145385205846]","[-1,-1,-1]","[0.059245826852269215,-0.12432508165110644]","[1,1,1]","[-0.18856784002320873,-0.060306718488162825]","[1,1,1]","[0.02,0.02]",250.2908,0,21,21,166,1,,,,,,,
,,,,,,,672e070e0a631ffab8d21860,682db4dc9fc219e305f4ce8e,2025-05-21_13h17.44.192,cuing_paradigm_dot,2024.1.5,Win32,59.52380952,682d556593cb38ad0a074487,,,,,,,,,,,250.2922,250.7907,,,251.0411,251.2265,right,,,,,,,,0.5,0.1787,,,,,,,250.7907,251.041,251.2266,"[-0.13683790728837578,0.023160264912767365]","[-1,-1,-1]","[0.03630912689734343,-0.18674195215592587]","[1,1,1]","[0.050010778588677786,-0.0799890245065494]","[1,1,1]","[0.08610424327309961,0.08740407583707865]","[1,1,1]","[-0.036424317463117285,-0.12515227651407765]","[1,1,1]","[0.04124301718797552,0.09311934094374585]","[-1,-1,-1]","[0.007976601390460638,-0.11026395606447598]","[1,1,1]","[0.05460094310922281,-0.02541581959684625]","[1,1,1]","[-0.07202434643166071,-0.17505616447572367]","[-1,-1,-1]","[0.1856020130840378,0.0466075153543018]","[-1,-1,-1]","[-0.11700339027135186,-0.10576698430863804]","[-1,-1,-1]","[0.12925320842496202,-0.10902359960351915]","[-1,-1,-1]","[-0.1256386471493253,0.07456422466829501]","[1,1,1]","[-0.09918487474229633,-0.14273140973758602]","[1,1,1]","[0.11854830914365584,0.005971579199946784]","[-1,-1,-1]","[-0.18156685009605084,-0.06688805331814987]","[1,1,1]","[-0.052730548072727555,0.12883220528804823]","[1,1,1]","[0.12942382897193902,0.09703180342062065]","[-1,-1,-1]","[-0.002121160024527599,-0.036488113664553054]","[-1,-1,-1]","[-0.11444466690506001,0.15471533879359223]","[-1,-1,-1]","[-0.1485002549176926,-0.03578764731948728]","[1,1,1]","[-0.021525653588128264,0.05832361571985824]","[-1,-1,-1]","[-0.008188067980108325,0.19350515487625009]","[-1,-1,-1]","[0.024561487715616292,0.049923333567618265]","[-1,-1,-1]","[0.08088819158685187,-0.17080020009106006]","[-1,-1,-1]","[-0.05057863512855682,0.18181225568109108]","[1,1,1]","[-0.07590604683323394,-0.011124590789072259]","[1,1,1]","[0.026164320737717843,0.1567338331212325]","[-1,-1,-1]","[0.13004295456958306,0.14607936176730021]","[1,1,1]","[0.12870778823402793,-0.05666230516073426]","[1,1,1]","[-0.18050350654706027,0.05663065350087303]","[-1,-1,-1]","[-0.07361835661595298,0.045539103409450846]","[1,1,1]","[0.02,0.02]",252.3239,0,22,22,107,1,,,,,,,
,,,,,,,672e070e0a631ffab8d21860,682db4dc9fc219e305f4ce8e,2025-05-21_13h17.44.192,cuing_paradigm_dot,2024.1.5,Win32,59.52380952,682d556593cb38ad0a074487,,,,,,,,,,,252.3255,252.8239,,,253.0748,253.3744,right,,,,,,,,0.9,0.2896,,,,,,,252.824,253.0746,253.3745,"[0.0136457777164566,-0.137880541691548]","[-1,-1,-1]","[0.19446554880252184,0.039309283815834276]","[1,1,1]","[-0.1874352035413666,-0.0409221431733837]","[1,1,1]","[-0.051268687165280775,-0.0882931128112088]","[1,1,1]","[0.03466480200404406,0.063227381689703]","[1,1,1]","[0.07289139476588927,-0.17451558318228957]","[1,1,1]","[-0.1411794505462529,0.04208613043141127]","[1,1,1]","[0.05083489961266185,-0.04165466623284585]","[1,1,1]","[0.08793783407729909,-0.056963483426737585]","[1,1,1]","[-0.10706385986669231,0.11862489039276575]","[1,1,1]","[-0.06286009897509749,-0.021582905410888063]","[1,1,1]","[-0.03067020839409938,0.14569010300202628]","[1,1,1]","[-0.029236225565089185,-0.19172771872684932]","[1,1,1]","[-0.04955474263621835,-0.13751848054987048]","[1,1,1]","[-0.08574676598596644,0.040229945644173516]","[1,1,1]","[0.18495252316068436,-0.07201194733259589]","[1,1,1]","[0.15287072651461114,-0.022555567718930407]","[1,1,1]","[-0.01593641288868233,0.09555209097235812]","[1,1,1]","[-0.003281092273528728,0.19935352634434458]","[1,1,1]","[-0.08963414760084636,-0.1394090821384319]","[1,1,1]","[-0.18527916418134135,0.0222528946547834]","[1,1,1]","[0.09773786078972202,-0.12147097143368585]","[1,1,1]","[0.013970978106427855,-0.00014934676760193163]","[1,1,1]","[0.198164968693646,-0.006670438214652954]","[1,1,1]","[0.09967625661402246,0.049879490616228886]","[1,1,1]","[0.07718356219265704,0.12440069227109941]","[-1,-1,-1]","[-0.12834353595138515,-0.0451218959609788]","[1,1,1]","[0.12576402012135365,0.01569555022557653]","[-1,-1,-1]","[-0.13815662306703383,-0.11306165468488094]","[1,1,1]","[0.1590869895478765,0.09849878630168823]","[1,1,1]","[-0.05205212104447018,0.07374694268165276]","[1,1,1]","[0.13549312084049417,-0.08551213098842447]","[1,1,1]","[0.02,0.02]",254.4738,0,23,23,180,1,,,,,,,
,,,,,,,672e070e0a631ffab8d21860,682db4dc9fc219e305f4ce8e,2025-05-21_13h17.44.192,cuing_paradigm_dot,2024.1.5,Win32,59.52380952,682d556593cb38ad0a074487,,,,,,,,,,,254.4749,254.974,,,255.2247,255.7585,left,,,,,,,,0.5,0.5214,,,,,,,254.974,255.2245,255.7585,"[0.07095755322930031,0.08676771221145624]","[1,1,1]","[-0.057734387422491214,-0.18405471943492682]","[-1,-1,-1]","[0.04419775857983021,-0.0918068115783377]","[1,1,1]","[0.0691960069343963,-0.005650957874576152]","[-1,-1,-1]","[-0.0772976596058731,-0.11541802391717237]","[1,1,1]","[0.062328641538593514,-0.04823817842801543]","[1,1,1]","[-0.02767233597920299,-0.15174645693817307]","[-1,-1,-1]","[0.1441329973537499,0.1054536496559935]","[-1,-1,-1]","[0.10575535834874135,-0.024217840080583107]","[1,1,1]","[-0.05330560855871568,0.00034858033244018435]","[1,1,1]","[-0.051878686930537626,0.09074123571386243]","[-1,-1,-1]","[-0.13148002514783338,-0.013563229812203557]","[1,1,1]","[0.00784295432656467,0.14013684802561807]","[1,1,1]","[0.014277378758546237,0.06691406776912792]","[-1,-1,-1]","[-0.04608551158435284,-0.07591998131787059]","[-1,-1,-1]","[0.1293244334212632,-0.07247578871267307]","[1,1,1]","[-0.11403485748509025,0.1002122117383362]","[1,1,1]","[0.16929781150133483,0.06783654436103738]","[-1,-1,-1]","[-0.013414366750115007,0.034327241322340774]","[-1,-1,-1]","[-0.17007660234679636,0.047972533258802005]","[1,1,1]","[-0.03824651365085543,0.15243738140673682]","[1,1,1]","[0.18320312478110112,-0.05403697461020443]","[-1,-1,-1]","[-0.1651787536504118,-0.06652766163428415]","[-1,-1,-1]","[0.1095421154959752,0.07051915626184622]","[-1,-1,-1]","[0.06007713167322147,-0.13510066908699955]","[1,1,1]","[0.14888459896411044,-0.02637431531998465]","[-1,-1,-1]","[-0.10850149016702809,-0.14877750652070418]","[-1,-1,-1]","[-0.007354158529656602,-0.043331613617005174]","[1,1,1]","[0.10629680186207545,-0.16860338447604242]","[1,1,1]","[0.14849161612458617,0.016174204216951333]","[-1,-1,-1]","[-0.1038486041630133,-0.07757688558516582]","[-1,-1,-1]","[0.027017162715816122,-0.15983540320598214]","[1,1,1]","[0.02,0.02]",256.857,0,24,24,106,1,,,,,,,
,,,,,,,672e070e0a631ffab8d21860,682db4dc9fc219e305f4ce8e,2025-05-21_13h17.44.192,cuing_paradigm_dot,2024.1.5,Win32,59.52380952,682d556593cb38ad0a074487,,,,,,,,,,,256.8581,257.3723,,,257.6241,258.3407,left,,,,,,,,0.55,0.7065,,,,,,,257.3724,257.624,258.3408,"[-0.13738526823228553,0.10771466097271909]","[1,1,1]","[-0.09251013224940664,-0.01158323294672115]","[-1,-1,-1]","[-0.0791706385729334,0.15831176056022647]","[-1,-1,-1]","[0.03872015413003132,-0.05035493425534698]","[1,1,1]","[-0.04460333815271117,-0.09412996195343336]","[1,1,1]","[0.044291036795362046,0.1376885936369476]","[1,1,1]","[0.09045593607887598,0.11879088036311006]","[-1,-1,-1]","[-0.16669974831346523,0.006670742153792775]","[-1,-1,-1]","[0.06372980134639028,-0.1387157217235688]","[-1,-1,-1]","[0.01707280916182492,0.07102280126013265]","[1,1,1]","[0.17128737244615547,0.05425779291253644]","[1,1,1]","[0.05304226561434759,-0.18582944215939198]","[1,1,1]","[-0.15136053429922383,-0.07333724160508164]","[1,1,1]","[-0.027338236777676272,0.11079030929887979]","[1,1,1]","[0.12674694170168782,-0.09507617633692025]","[-1,-1,-1]","[-0.03530970877740513,0.05914989064396661]","[1,1,1]","[-0.11457544574123761,-0.11139889441781906]","[1,1,1]","[0.12467330631676503,0.04298112326206613]","[-1,-1,-1]","[0.004473542386082276,0.026481546096664234]","[1,1,1]","[0.1637784167107996,-0.032986036832358595]","[1,1,1]","[-0.02023309656087302,-0.1858366078599353]","[-1,-1,-1]","[-0.08453446490995234,-0.0833858446034549]","[1,1,1]","[-0.12886813761061972,0.06420218343447161]","[-1,-1,-1]","[0.1137505308016754,-0.014060356657846574]","[1,1,1]","[0.08567535285958044,0.06473339016909017]","[-1,-1,-1]","[-0.02764181849879715,0.18356655117622453]","[1,1,1]","[-0.11881823131353901,0.14357325694440154]","[-1,-1,-1]","[0.0012647431217735967,0.15479226734200077]","[1,1,1]","[0.15768463837804453,0.09907676285933258]","[-1,-1,-1]","[0.09188947877403511,-0.06601593232811245]","[-1,-1,-1]","[-0.05036446443116756,-0.14058335574224753]","[1,1,1]","[0.05089711893976222,0.03579914607590759]","[-1,-1,-1]","[0.02,0.02]",259.4401,0,25,25,121,1,,,,,,,
,,,,,,,672e070e0a631ffab8d21860,682db4dc9fc219e305f4ce8e,2025-05-21_13h17.44.192,cuing_paradigm_dot,2024.1.5,Win32,59.52380952,682d556593cb38ad0a074487,,,,,,,,,,,259.442,259.9405,,,260.1905,260.8407,left,,,,,,,,0.45,0.6341,,,,,,,259.9406,260.1905,260.8408,"[-0.08407543920536185,-0.05900357875504158]","[-1,-1,-1]","[-0.027710168435836305,0.017258145810424768]","[-1,-1,-1]","[0.05972523797966858,0.06223631779721227]","[-1,-1,-1]","[0.14156732753559031,0.062134307262764706]","[1,1,1]","[0.08219573580560234,-0.029780247694958704]","[-1,-1,-1]","[-0.13114814533045566,-0.12619659335143082]","[1,1,1]","[0.014636747593883876,0.015053336808442888]","[-1,-1,-1]","[-0.06412586928193684,0.04558127342725105]","[1,1,1]","[0.11166325691010404,-0.14313442015055752]","[1,1,1]","[-0.17500642641707498,-0.022751506623604815]","[1,1,1]","[-0.01806490001064558,0.09452110354645167]","[1,1,1]","[0.11887122204541367,0.10199670673196992]","[-1,-1,-1]","[0.12073883540734648,-0.00033708476118080217]","[1,1,1]","[0.07680004393035468,-0.09876395160996232]","[-1,-1,-1]","[-0.17945741445296207,0.08103438581463623]","[-1,-1,-1]","[0.0030050615813736964,-0.13410149724022344]","[-1,-1,-1]","[-0.13570362075800074,0.10943137895595158]","[-1,-1,-1]","[0.14802989655957233,-0.031156764953630355]","[1,1,1]","[-0.04091898915585939,0.15663106412137592]","[1,1,1]","[-0.020035653743909785,-0.19470379997694245]","[1,1,1]","[-0.007257087418873293,-0.08943699246436479]","[1,1,1]","[0.1746907689931206,0.025494914570268153]","[-1,-1,-1]","[0.11982845201366117,-0.06536916915062779]","[-1,-1,-1]","[-0.11767622952510533,0.019478931303711956]","[1,1,1]","[-0.13175116871153578,-0.03735063893319616]","[-1,-1,-1]","[0.07368703895105402,-0.18140132356795727]","[1,1,1]","[0.01753635974094241,0.1824521920952446]","[-1,-1,-1]","[0.03310110312438274,-0.035163337015739586]","[-1,-1,-1]","[0.11268775647941569,0.16455826297341664]","[-1,-1,-1]","[0.005181282976974147,0.05850033358051249]","[-1,-1,-1]","[-0.0633704419642352,-0.15039738236481828]","[1,1,1]","[-0.015313955912614025,-0.04467234902779305]","[-1,-1,-1]","[0.02,0.02]",261.9403,0,26,26,79,1,,,,,,,
,,,,,,,672e070e0a631ffab8d21860,682db4dc9fc219e305f4ce8e,2025-05-21_13h17.44.192,cuing_paradigm_dot,2024.1.5,Win32,59.52380952,682d556593cb38ad0a074487,,,,,,,,,,,261.9417,262.4402,,,262.6905,263.4738,right,,,,,,,,0.6,0.7718,,,,,,,262.4403,262.6905,263.4738,"[0.0025053579583214328,-0.02718189173412675]","[1,1,1]","[-0.10795866399982473,-0.04396400294409468]","[1,1,1]","[-0.03651034773192767,-0.007026944619993312]","[-1,-1,-1]","[-0.007860646616998024,0.08200634933445698]","[-1,-1,-1]","[-0.10227568217888586,0.04895448214281277]","[-1,-1,-1]","[0.006948121505697949,0.1721660329604826]","[1,1,1]","[-0.09244286906801726,-0.15227995421665366]","[1,1,1]","[-0.0736954627636566,0.09171257566586485]","[1,1,1]","[0.09043882975152864,0.1351749454257666]","[-1,-1,-1]","[0.13766169512954585,0.01857606483168453]","[1,1,1]","[0.07912313252631047,-0.041564039723959945]","[-1,-1,-1]","[0.15038048178952707,0.07730399118357575]","[1,1,1]","[-0.13337825411128965,-0.0911289986199584]","[-1,-1,-1]","[0.03340918302596391,-0.1525272627559712]","[1,1,1]","[-0.08491861683261846,-0.004112106478767681]","[1,1,1]","[-0.14190058728928995,0.12069809693412464]","[1,1,1]","[-0.041239206990484785,-0.08351021939401654]","[-1,-1,-1]","[0.06027020532804845,-0.09320018670515784]","[-1,-1,-1]","[-0.14127936162958288,-0.001960779684243208]","[-1,-1,-1]","[-0.07840452135238457,-0.09999475303001794]","[1,1,1]","[0.1434816409915472,-0.03689395793932441]","[1,1,1]","[0.07137574087114026,0.03771390220596083]","[1,1,1]","[-0.04390922648333918,-0.14332475078811924]","[-1,-1,-1]","[-0.03411346471949206,0.11523904722943239]","[1,1,1]","[0.042813854398001054,0.09989682882318288]","[1,1,1]","[0.14864070316141254,0.13231660648017407]","[1,1,1]","[0.1260481841000105,-0.11634982652450668]","[-1,-1,-1]","[0.16598941591817726,-0.09146481832882722]","[1,1,1]","[0.1913539887654377,-0.007818500842919558]","[-1,-1,-1]","[0.17923061899171913,0.039337298797914505]","[1,1,1]","[-0.03837104994060898,0.04148967174473686]","[-1,-1,-1]","[0.08001539882242747,-0.17615047348413174]","[1,1,1]","[0.02,0.02]",264.5732,0,27,27,173,1,,,,,,,
,,,,,,,672e070e0a631ffab8d21860,682db4dc9fc219e305f4ce8e,2025-05-21_13h17.44.192,cuing_paradigm_dot,2024.1.5,Win32,59.52380952,682d556593cb38ad0a074487,,,,,,,,,,,264.5743,265.0732,,,265.3237,265.6767,left,,,,,,,,0.55,0.3465,,,,,,,265.0732,265.3236,265.6768,"[-0.07123384576724008,0.055613510628112935]","[1,1,1]","[0.11153255767981024,-0.1144185886127727]","[-1,-1,-1]","[0.1465642536557112,0.11601376631047966]","[1,1,1]","[0.1778779551091277,0.040170162430718394]","[1,1,1]","[-0.1510574808044876,0.0744287347408584]","[1,1,1]","[0.05839037291120794,0.0779052822763937]","[1,1,1]","[0.034143002598648664,-0.021957537148147035]","[-1,-1,-1]","[-0.028051525161385933,-0.18820536666533774]","[1,1,1]","[0.007635827961218956,0.13679811666620229]","[-1,-1,-1]","[-0.0993318332901738,-0.14185493363957935]","[-1,-1,-1]","[-0.012792465975788665,0.018702770654971404]","[1,1,1]","[0.007391738336057966,-0.1452964443127049]","[-1,-1,-1]","[-0.11176596934691116,0.05498090525419739]","[-1,-1,-1]","[0.092671726549978,0.1317347148595274]","[-1,-1,-1]","[-0.06629151648590408,-0.007343887691463904]","[1,1,1]","[0.045637658193337025,-0.18038463299458493]","[1,1,1]","[-0.07917528287575763,0.12626266936053587]","[-1,-1,-1]","[-0.15347060431363457,-0.0593687707627528]","[1,1,1]","[-0.033574133887403955,0.11665416474993699]","[1,1,1]","[-0.021951890675429575,0.1802400676328199]","[-1,-1,-1]","[-0.15306467540006427,-0.018789198247450976]","[1,1,1]","[-0.034225266423277015,-0.10493238415055271]","[-1,-1,-1]","[-0.19409457881239245,0.01399239226739584]","[-1,-1,-1]","[-0.08572699518000801,0.17393937185442282]","[-1,-1,-1]","[-0.021092868464396564,-0.02319659141070109]","[1,1,1]","[0.18648873526572543,-0.06847349768688545]","[1,1,1]","[0.098809906670402,0.07956457261772]","[-1,-1,-1]","[0.13725222294356207,-0.07100364040845741]","[1,1,1]","[-0.1243583245095186,-0.093270558321758]","[1,1,1]","[0.0873806594528802,0.010159132134026316]","[-1,-1,-1]","[-0.1443629891243163,0.13374466183603917]","[1,1,1]","[0.09572655083754028,-0.07621701371941877]","[1,1,1]","[0.02,0.02]",266.7732,0,28,28,123,1,,,,,,,
,,,,,,,672e070e0a631ffab8d21860,682db4dc9fc219e305f4ce8e,2025-05-21_13h17.44.192,cuing_paradigm_dot,2024.1.5,Win32,59.52380952,682d556593cb38ad0a074487,,,,,,,,,,,266.7744,267.2732,,,267.5242,268.0739,right,,,,,,,,0.9,0.5372,,,,,,,267.2733,267.524,268.0739,"[-0.15502047454731507,0.09622934566021184]","[1,1,1]","[-0.06729370422058843,-0.05356502388930718]","[1,1,1]","[0.008397854419657218,-0.07922244530104279]","[1,1,1]","[0.11714176837142967,-0.017032559037778495]","[1,1,1]","[0.10369340890799222,0.09706325337227224]","[1,1,1]","[0.16052279437455816,0.10861659981963838]","[-1,-1,-1]","[-0.08959804813037364,-0.1351873359402974]","[1,1,1]","[-0.07839968027583817,-0.00867437318945031]","[1,1,1]","[-0.12784673490598944,0.14515314522730577]","[1,1,1]","[0.1612866500986965,-0.06096957902608186]","[1,1,1]","[-0.04148044204316505,0.0982252073325392]","[1,1,1]","[-0.025091279277233,0.15975225146586794]","[1,1,1]","[0.06121377610867146,-0.11202598265520922]","[1,1,1]","[0.09684270085982197,0.02578551806018298]","[1,1,1]","[-0.12105708838530262,0.06768515061857328]","[1,1,1]","[0.04763380793382161,0.14541285963246778]","[1,1,1]","[0.08369045823634674,-0.07728183060971747]","[1,1,1]","[-0.18220179705370493,-0.07970907599250376]","[1,1,1]","[0.1044982586168869,0.15999706905105962]","[1,1,1]","[-0.050051663244823255,0.024492221509889705]","[1,1,1]","[0.17882423221649918,0.02015422411121257]","[1,1,1]","[0.1525485026760332,0.061297425195912164]","[1,1,1]","[-0.006836521031852948,0.05008622207350222]","[1,1,1]","[0.05764869855114474,-0.16119480533766212]","[-1,-1,-1]","[0.11058828917018755,-0.16350529390392812]","[1,1,1]","[-0.04705325079986029,-0.1681166978137949]","[1,1,1]","[-0.021582765647157557,-0.11912637494515424]","[1,1,1]","[-0.1581259403868897,0.006612880215781421]","[1,1,1]","[-0.010667964126367883,-0.19468372521082858]","[1,1,1]","[-0.14645743986127388,-0.12368685755422194]","[1,1,1]","[0.03834317510247783,0.10443386457170678]","[1,1,1]","[-0.06348766040599592,0.17553842251063306]","[-1,-1,-1]","[0.02,0.02]",269.1729,0,29,29,188,1,,,,,,,
,,,,,,,672e070e0a631ffab8d21860,682db4dc9fc219e305f4ce8e,2025-05-21_13h17.44.192,cuing_paradigm_dot,2024.1.5,Win32,59.52380952,682d556593cb38ad0a074487,,,,,,,,,,,269.1741,269.6736,,,269.924,270.6734,right,,,,,,,,0.5,0.7346,,,,,,,269.6736,269.9239,270.6736,"[0.10519334678057427,0.1493987693580664]","[-1,-1,-1]","[-0.04177958536197967,0.16968041441088544]","[-1,-1,-1]","[-0.1667184774740239,-0.10428427558081066]","[-1,-1,-1]","[-0.15045861627023313,0.12119490423594058]","[1,1,1]","[0.07552678291935763,-0.0026631045714302594]","[1,1,1]","[-0.017570536031891144,0.08872979566929104]","[-1,-1,-1]","[0.04145186560011786,0.14448913361846114]","[-1,-1,-1]","[-0.109751020488166,0.16229920308683587]","[-1,-1,-1]","[0.1724921244013842,-0.08781579822658502]","[-1,-1,-1]","[-0.14886264939362812,0.03457370685798547]","[1,1,1]","[0.014787085763418757,-0.024110121267716354]","[1,1,1]","[0.1953510117636854,-0.027188451925699332]","[1,1,1]","[-0.16858263752293579,0.07310761428595737]","[-1,-1,-1]","[-0.19037319465897012,-0.057022211985620165]","[-1,-1,-1]","[0.008467012641367882,0.1794826923202975]","[-1,-1,-1]","[-0.04411520008042223,-0.042973828767904676]","[1,1,1]","[0.06345831790034805,0.08974044738762593]","[-1,-1,-1]","[-0.13162301564034373,-0.06145364903918658]","[1,1,1]","[-0.07116408902433469,-0.1230715405690427]","[-1,-1,-1]","[-0.07825490249745638,-0.020810339765631857]","[1,1,1]","[0.006837418912709417,-0.14041881476946072]","[1,1,1]","[0.006443031478136567,0.0320950343322132]","[1,1,1]","[-0.10130217813336173,0.04713586206802626]","[-1,-1,-1]","[0.13015541953857745,0.04910663216059864]","[-1,-1,-1]","[-0.11770322856942238,-0.005066957630260956]","[1,1,1]","[-0.1573979791920447,-0.014270249244710839]","[-1,-1,-1]","[0.1384238039065528,-0.03647191167365778]","[1,1,1]","[0.00578132273402512,-0.06514336017778159]","[-1,-1,-1]","[-0.08485210839347325,0.12754305235501337]","[1,1,1]","[-0.044448085682289584,-0.18691297411895097]","[1,1,1]","[0.11679905263831544,-0.12141493860428941]","[1,1,1]","[-0.11881002128236429,-0.14615653423088257]","[1,1,1]","[0.02,0.02]",271.773,0,30,30,100,1,,,,,,,
,,,,,,,672e070e0a631ffab8d21860,682db4dc9fc219e305f4ce8e,2025-05-21_13h17.44.192,cuing_paradigm_dot,2024.1.5,Win32,59.52380952,682d556593cb38ad0a074487,,,,,,,,,,,271.7744,272.2729,,,272.5235,272.9072,right,,,,,,,,0.6,0.3733,,,,,,,272.273,272.5233,272.9073,"[-0.07732983799460376,-0.14571526744205793]","[-1,-1,-1]","[-0.10587465691824749,-0.04686369532176814]","[1,1,1]","[0.15383808126294124,-0.01595027025711718]","[1,1,1]","[-0.0055905281201963,-0.028707944961663213]","[1,1,1]","[0.18490074920403063,0.050343614498947725]","[1,1,1]","[-0.17629533385037333,-0.06693708054394]","[-1,-1,-1]","[-0.0814822380780369,-0.004720744876033378]","[1,1,1]","[0.08872112640701642,0.11413937265227979]","[1,1,1]","[0.17840881124691604,-0.07634475554753134]","[1,1,1]","[-0.09770581687731818,0.033785151824809116]","[1,1,1]","[-0.042799662538566506,-0.04581132390775336]","[-1,-1,-1]","[0.004370840907217649,0.1210772584698953]","[1,1,1]","[-0.11824632780177251,0.08028416222565324]","[1,1,1]","[-0.0251331278024865,-0.19036990761299066]","[1,1,1]","[0.0861589442677457,-0.02360668387295693]","[1,1,1]","[0.09259528856484178,-0.11827250022760388]","[-1,-1,-1]","[0.012157924600569912,-0.06830547732823719]","[-1,-1,-1]","[0.05513111975455614,0.012865624085590041]","[1,1,1]","[-0.042584652074325435,0.18687133161579728]","[-1,-1,-1]","[0.007096937753578204,0.19389043591628843]","[-1,-1,-1]","[0.10015746438847208,0.16246584106405063]","[-1,-1,-1]","[-0.1551389154748624,-0.013624271408182082]","[-1,-1,-1]","[-0.0014984305322642102,-0.13855781289946623]","[1,1,1]","[-0.054072729172604965,0.14250458670287858]","[-1,-1,-1]","[0.05363050306331676,0.07502718347658957]","[1,1,1]","[-0.00036168178912097476,0.04231313717730819]","[1,1,1]","[-0.030881841037691857,0.005142234724446449]","[1,1,1]","[0.0699287527326477,-0.1814614455003333]","[-1,-1,-1]","[0.056936267147613316,-0.07338848893757988]","[1,1,1]","[0.022278027927241633,-0.18235313369649317]","[-1,-1,-1]","[0.10686359748167401,-0.16050816330591028]","[-1,-1,-1]","[0.05078420086451151,0.13398321687081283]","[1,1,1]","[0.02,0.02]",274.0063,0,31,31,165,1,,,,,,,
,,,,,,,672e070e0a631ffab8d21860,682db4dc9fc219e305f4ce8e,2025-05-21_13h17.44.192,cuing_paradigm_dot,2024.1.5,Win32,59.52380952,682d556593cb38ad0a074487,,,,,,,,,,,274.0079,274.5061,,,274.7572,275.573,left,,,,,,,,0.45,0.8003,,,,,,,274.5062,274.757,275.5731,"[0.12114758783194392,-0.03137956959651014]","[-1,-1,-1]","[0.19811355708252415,0.0023041615727475654]","[1,1,1]","[-0.15618853061720495,-0.011056539973399069]","[1,1,1]","[0.10213521955019916,0.13761731992248127]","[-1,-1,-1]","[0.001999854839315,-0.14102367500309443]","[1,1,1]","[0.007468852673648826,0.10888674612498932]","[-1,-1,-1]","[-0.12766053495630306,-0.11672826059497073]","[1,1,1]","[-0.11810961522494674,0.08035152778084408]","[-1,-1,-1]","[0.0985016346186878,-0.10613090856459889]","[-1,-1,-1]","[0.012685736889221182,0.030895460592799885]","[1,1,1]","[-0.09235566547477637,-0.07831757759437502]","[-1,-1,-1]","[-0.0625430992422867,0.06609733080800272]","[-1,-1,-1]","[0.010047910097757986,-0.088556946785204]","[-1,-1,-1]","[-0.06342256382924417,-0.009661054236901714]","[1,1,1]","[0.1638593585647546,-0.09099421000755374]","[1,1,1]","[-0.17836688953354246,0.0712005161827121]","[-1,-1,-1]","[0.009719465079807395,-0.012993463717013438]","[1,1,1]","[-0.022408184403437625,-0.1918117914385376]","[-1,-1,-1]","[0.06499712880609046,-0.05050056000406456]","[1,1,1]","[-0.1429762673143008,-0.053040721362109244]","[-1,-1,-1]","[0.09033672699356576,0.027968860636650748]","[-1,-1,-1]","[0.09261294165415382,-0.167129455981097]","[1,1,1]","[0.15259000679522083,0.0590198395877779]","[-1,-1,-1]","[-0.022392146393500078,0.0821706293157804]","[1,1,1]","[0.03604709903716757,-0.16901746431491105]","[1,1,1]","[0.11852913707820992,0.09654384334596544]","[1,1,1]","[-0.06294897163646261,-0.1272221106779695]","[-1,-1,-1]","[0.18045570153105117,-0.05206669398477847]","[-1,-1,-1]","[-0.10356877531525353,0.11865728672254672]","[-1,-1,-1]","[0.05075069473594156,0.11457576494886479]","[-1,-1,-1]","[0.04457797553025167,-0.11239041039970218]","[-1,-1,-1]","[-0.11267984259265251,0.014135632584113166]","[1,1,1]","[0.02,0.02]",276.6726,0,32,32,70,1,,,,,,,
,,,,,,,672e070e0a631ffab8d21860,682db4dc9fc219e305f4ce8e,2025-05-21_13h17.44.192,cuing_paradigm_dot,2024.1.5,Win32,59.52380952,682d556593cb38ad0a074487,,,,,,,,,,,276.6739,277.1728,,,277.4236,278.0582,left,,,,,,,,0.4,0.6163,,,,,,,277.1729,277.4234,278.0583,"[-0.000975862129146375,-0.10945152842603989]","[1,1,1]","[0.07779802981956319,-0.048420540799339364]","[-1,-1,-1]","[-0.1079555431129619,0.014833131290141166]","[1,1,1]","[-0.08046485949867005,-0.16816586650453827]","[1,1,1]","[-0.11925382402181302,0.05583272385907494]","[1,1,1]","[0.11372175174858655,0.010655010541386699]","[-1,-1,-1]","[-0.16183725208884225,-0.016747557559863385]","[-1,-1,-1]","[-0.14063198261634882,0.12995526203002858]","[-1,-1,-1]","[0.03609992114801794,-0.05721256943540479]","[1,1,1]","[-0.04048451513248645,0.13607664258250304]","[1,1,1]","[0.017076451918323098,0.18085822187407055]","[-1,-1,-1]","[-0.10436348425503292,0.09367402519829482]","[1,1,1]","[-0.040808450333400886,-0.07337560325833284]","[-1,-1,-1]","[0.06932096412216435,0.16445162747037356]","[-1,-1,-1]","[0.01581081920858849,0.11598016196403509]","[-1,-1,-1]","[-0.03610090327878881,0.02412156416917899]","[-1,-1,-1]","[0.04193611310047408,0.002992014707481923]","[-1,-1,-1]","[-0.14997053210777422,-0.11094013516626863]","[1,1,1]","[-0.15983544575003963,0.02649537776309741]","[1,1,1]","[0.04141876707705451,0.07981507578031927]","[1,1,1]","[-0.023817418571103886,0.08472871084722029]","[-1,-1,-1]","[0.014568389105403335,-0.14688867531125782]","[-1,-1,-1]","[-0.11872461049395051,-0.039817707263829716]","[1,1,1]","[-0.08809984672805285,0.1543459476655902]","[1,1,1]","[0.1291941708807335,-0.04700030620625791]","[-1,-1,-1]","[-0.03738305560805098,-0.17149137937669318]","[-1,-1,-1]","[0.09726144614817753,-0.09006110357367234]","[-1,-1,-1]","[-0.10005640592844796,-0.11595450498520554]","[1,1,1]","[0.16404453859409876,0.042775158296091416]","[-1,-1,-1]","[0.1736898083479894,-0.07422284025628391]","[-1,-1,-1]","[-0.014711792895028311,-0.02018248333829807]","[-1,-1,-1]","[0.15815360776010456,0.11995355267003371]","[-1,-1,-1]","[0.02,0.02]",279.1557,0,33,33,48,1,,,,,,,
,,,,,,,672e070e0a631ffab8d21860,682db4dc9fc219e305f4ce8e,2025-05-21_13h17.44.192,cuing_paradigm_dot,2024.1.5,Win32,59.52380952,682d556593cb38ad0a074487,,,,,,,,,,,279.1564,279.656,,,279.9068,281.0074,left,,,,,,,,0.5,1.0846,,,,,,,279.656,279.9066,281.0075,"[0.15160856181703408,0.09720653953413716]","[-1,-1,-1]","[0.025097992546128975,-0.17628576864292514]","[1,1,1]","[-0.1307016367857904,-0.10479406352546294]","[-1,-1,-1]","[0.031664327657351596,-0.006710094962366923]","[-1,-1,-1]","[-0.14443720900765417,0.11732950703153211]","[-1,-1,-1]","[0.07899332474230676,-0.10499846949812021]","[1,1,1]","[0.08180870790561982,0.10676129159027348]","[1,1,1]","[-0.1653103030576407,-0.018780182234624004]","[1,1,1]","[-0.05858168798933878,-0.1235938375751888]","[-1,-1,-1]","[0.07246156082299743,-0.16263258177692738]","[1,1,1]","[0.08448618189853759,0.02778838617354817]","[1,1,1]","[0.16345446134298075,-0.05694393399908875]","[1,1,1]","[0.18500922898786368,0.013349244635869662]","[1,1,1]","[0.1467791287257233,-0.10082164205416222]","[1,1,1]","[-0.010071730229415633,-0.00036341825227573026]","[1,1,1]","[0.03435660597993456,0.170296111920527]","[1,1,1]","[-0.04926605057060479,0.17916816603109256]","[1,1,1]","[0.11989901724533168,-0.14075680881173297]","[-1,-1,-1]","[-0.08176727765074354,-0.1645266762707845]","[1,1,1]","[-0.03694949635152723,-0.05729842742453113]","[1,1,1]","[0.11219037975162299,-0.03498716893154302]","[-1,-1,-1]","[0.046922132995149836,-0.07892052487645572]","[-1,-1,-1]","[0.01612299466292377,-0.1294816468022686]","[-1,-1,-1]","[0.10588495664054556,0.1589424160285349]","[-1,-1,-1]","[-0.18484475938422223,0.0441605629331799]","[1,1,1]","[-0.13009878707191774,0.0054851203118099654]","[-1,-1,-1]","[-0.027416910426015444,-0.1697926536730666]","[-1,-1,-1]","[-0.08786193906047716,-0.050534131754992384]","[1,1,1]","[0.013090376721468183,0.06553104446468784]","[-1,-1,-1]","[-0.01956848971769543,0.11509004227522741]","[-1,-1,-1]","[-0.08912236832628397,0.08867668130094573]","[-1,-1,-1]","[-0.17246845639913838,-0.06368216649436308]","[-1,-1,-1]","[0.02,0.02]",282.1058,0,34,34,115,1,,,,,,,
,,,,,,,672e070e0a631ffab8d21860,682db4dc9fc219e305f4ce8e,2025-05-21_13h17.44.192,cuing_paradigm_dot,2024.1.5,Win32,59.52380952,682d556593cb38ad0a074487,,,,,,,,,,,282.1072,282.606,,,282.8565,283.1399,right,,,,,,,,0.5,0.2684,,,,,,,282.6062,282.8564,283.1399,"[0.04335829377205796,0.11439835664540099]","[-1,-1,-1]","[-0.042524944323124696,-0.18109774065681292]","[-1,-1,-1]","[-0.009533534871170016,-0.0022574912475188903]","[-1,-1,-1]","[-0.09794173741433791,0.06645743362756527]","[-1,-1,-1]","[0.10051375997509429,0.036849771470026785]","[-1,-1,-1]","[0.00872404053475827,-0.08767695715615828]","[-1,-1,-1]","[0.07975130557566416,-0.06442864206592692]","[1,1,1]","[0.03787755634040504,0.04124022147614636]","[-1,-1,-1]","[-0.04532280075849398,0.04259096412425467]","[1,1,1]","[-0.12679634650039465,0.027872213783019597]","[1,1,1]","[0.13540088611197917,-0.11838816506802087]","[1,1,1]","[-0.10376909233153923,-0.013721833264642772]","[1,1,1]","[-0.02289425990863223,0.09337086025184879]","[1,1,1]","[-0.14864331902388986,-0.023453507225193387]","[1,1,1]","[0.062166411245644385,-0.15461008199683446]","[1,1,1]","[0.1479319092957432,0.11297891955136004]","[-1,-1,-1]","[-0.14716690832132664,0.10431300230606524]","[1,1,1]","[-0.1670807597246584,0.05753906252473332]","[1,1,1]","[0.08653578602825951,0.12361504978321836]","[-1,-1,-1]","[0.02220351385880056,-0.19186498179826203]","[1,1,1]","[0.014039190229608643,0.07394533662084479]","[-1,-1,-1]","[-0.04201297653065351,-0.08588038280498857]","[-1,-1,-1]","[-0.042231513506638375,0.1952927879509989]","[-1,-1,-1]","[0.14863667741783912,-0.056533866220274974]","[1,1,1]","[0.16600996145573854,0.0704621095885742]","[1,1,1]","[-0.06421731326693612,-0.039712011565093616]","[-1,-1,-1]","[0.022152198089108358,0.19010342771046926]","[1,1,1]","[0.035359883398998614,-0.012490551294577318]","[1,1,1]","[-0.06833306680967431,0.14685801185558267]","[1,1,1]","[-0.09171770047369487,-0.0736951738477574]","[-1,-1,-1]","[0.10722814212837395,-0.032331568740384994]","[-1,-1,-1]","[-0.10681707389540691,-0.1208433054738058]","[-1,-1,-1]","[0.02,0.02]",284.2387,0,35,35,104,1,,,,,,,
,,,,,,,672e070e0a631ffab8d21860,682db4dc9fc219e305f4ce8e,2025-05-21_13h17.44.192,cuing_paradigm_dot,2024.1.5,Win32,59.52380952,682d556593cb38ad0a074487,,,,,,,,,,,284.2404,284.7393,,,284.9892,285.2563,left,,,,,,,,0.6,0.2561,,,,,,,284.7397,284.9892,285.2564,"[-0.1528702310334044,-0.06775994080280909]","[1,1,1]","[0.15877262867628283,0.10436497946122393]","[1,1,1]","[-0.021646130668415725,0.012044989076319311]","[1,1,1]","[0.1176123006852431,0.05457090165654388]","[-1,-1,-1]","[0.1542509468017222,-0.032443324244984445]","[1,1,1]","[-0.04558428341208405,0.160497816622196]","[-1,-1,-1]","[0.037977986271815534,0.09535713073799747]","[1,1,1]","[-0.12829641636918773,-0.0334852406676073]","[-1,-1,-1]","[-0.08852897048659181,0.06656579132970386]","[1,1,1]","[0.12106922815439532,-0.09526378173744154]","[-1,-1,-1]","[-0.05228251477586363,-0.15309915948438668]","[-1,-1,-1]","[-0.061994778156352716,-0.09151563287796778]","[-1,-1,-1]","[0.01776310352232325,-0.034213787691619764]","[1,1,1]","[0.10045246771393926,0.10496829323402429]","[1,1,1]","[0.06483222084353656,-0.09355760715011237]","[1,1,1]","[-0.14386967845927404,0.07298661084169925]","[-1,-1,-1]","[0.15393600102651508,-0.12726959700091256]","[-1,-1,-1]","[0.1949396864428479,0.02775720062511869]","[-1,-1,-1]","[-0.08144008595539716,0.13514709337902653]","[-1,-1,-1]","[-0.1841496176876728,0.011239972427280913]","[1,1,1]","[0.14719730276928256,0.027165804888838373]","[1,1,1]","[-0.08998708227955755,-0.009194387184676169]","[1,1,1]","[0.09041390451583577,0.16628413363212574]","[1,1,1]","[0.04306545222450927,0.19411241176170121]","[1,1,1]","[-0.1386537715055719,-0.11129421619188574]","[1,1,1]","[0.11423852731908272,-0.14597911797708993]","[-1,-1,-1]","[-0.0007910595089780937,-0.13922179030791812]","[1,1,1]","[-0.05006393119418907,0.08801149289941039]","[1,1,1]","[-0.12553403616523662,0.14123513426614476]","[-1,-1,-1]","[-0.0895465967467632,-0.049659492145675437]","[-1,-1,-1]","[0.0765746859634574,0.050440580489773415]","[1,1,1]","[0.01184456341226166,-0.09144638520426016]","[1,1,1]","[0.02,0.02]",286.3559,0,36,36,156,1,,,,,,,
,,,,,,,672e070e0a631ffab8d21860,682db4dc9fc219e305f4ce8e,2025-05-21_13h17.44.192,cuing_paradigm_dot,2024.1.5,Win32,59.52380952,682d556593cb38ad0a074487,,,,,,,,,,,286.3576,286.8556,,,287.1061,287.3063,right,,,,,,,,0.6,0.1852,,,,,,,286.8558,287.1061,287.3064,"[-0.17436963771368333,-0.07996174189346039]","[1,1,1]","[-0.08754770325408198,0.02008826014200663]","[1,1,1]","[-0.14767324060739068,0.06443894009555114]","[-1,-1,-1]","[-0.1320346585892647,-0.0477619912944336]","[1,1,1]","[-0.008714418714363634,0.11680682909855784]","[-1,-1,-1]","[-0.11146652838087755,0.1072787624505731]","[-1,-1,-1]","[0.1331619659990478,0.11697450463698286]","[1,1,1]","[-0.0845737252353884,0.16487157513250547]","[-1,-1,-1]","[0.16460580987004125,-0.03454843753892188]","[1,1,1]","[-0.10388799072126723,-0.11634881657950794]","[-1,-1,-1]","[0.06121256053035493,0.0554010939117869]","[1,1,1]","[0.16763918048279777,0.03831126260127301]","[1,1,1]","[-0.027142312047959395,0.07735051618578237]","[1,1,1]","[-0.025098551397225333,0.17379752539560647]","[1,1,1]","[0.1353398117189367,-0.1338451061931476]","[1,1,1]","[-0.17756943564068509,-0.016445695516295936]","[-1,-1,-1]","[0.1218408804114474,-0.08923066266084716]","[-1,-1,-1]","[0.05792883561745139,0.18910390684175107]","[-1,-1,-1]","[0.12920017943696044,0.01922278688662616]","[1,1,1]","[-0.14672726677988024,-0.12965262025093918]","[-1,-1,-1]","[-0.041064417169745786,-0.022195015216787736]","[1,1,1]","[0.014128933462537243,0.043138249653236364]","[1,1,1]","[-0.04883790166237222,-0.18414364800684976]","[-1,-1,-1]","[-0.012238437733494945,-0.05401419755696745]","[1,1,1]","[0.01674335847188598,-0.18328965061253913]","[-1,-1,-1]","[0.04533432865118967,-0.08094988077943754]","[1,1,1]","[0.03264277148044974,0.12154468566268303]","[1,1,1]","[0.10106169793178908,-0.1577139154955263]","[1,1,1]","[-0.030379994639901983,-0.1028235437600227]","[1,1,1]","[0.07333328824533604,0.09940389541616163]","[1,1,1]","[0.08360087785515513,-0.051402843936551354]","[-1,-1,-1]","[-0.06504444955814978,0.11661111697073706]","[-1,-1,-1]","[0.02,0.02]",288.4055,0,37,37,157,1,,,,,,,
,,,,,,,672e070e0a631ffab8d21860,682db4dc9fc219e305f4ce8e,2025-05-21_13h17.44.192,cuing_paradigm_dot,2024.1.5,Win32,59.52380952,682d556593cb38ad0a074487,,,,,,,,,,,288.407,288.9056,,,289.1563,289.1729,left,,,,,,,,0.4,0.0067,,,,,,,288.9058,289.1562,289.1729,"[0.10048854694265759,0.045942389895582865]","[1,1,1]","[0.04212089261401889,0.01612688677401948]","[1,1,1]","[0.042082888481046646,0.09505210725771758]","[-1,-1,-1]","[0.16928742298564156,0.09162349504772346]","[-1,-1,-1]","[-0.10337302389964564,-0.11627061401739773]","[-1,-1,-1]","[-0.010356960714168069,0.01167610626644359]","[-1,-1,-1]","[-0.047875910422595556,0.08550769716751039]","[1,1,1]","[0.08405037650939347,-0.13523925596924588]","[-1,-1,-1]","[-0.011082387349773874,0.16286494712141628]","[-1,-1,-1]","[0.14789493666388198,-0.047560712790407425]","[1,1,1]","[-0.08742766816843997,0.04391577904542341]","[-1,-1,-1]","[0.0016479252614742187,0.08874405396371131]","[1,1,1]","[-0.057597045502514085,-0.049184856957034534]","[1,1,1]","[0.0876971121756951,-0.048090112492496596]","[-1,-1,-1]","[-0.17530109937340946,0.08359587627711426]","[-1,-1,-1]","[0.03088800057717968,0.18940821724751844]","[1,1,1]","[0.010751782300881172,-0.11128023667127027]","[-1,-1,-1]","[0.04054037106239592,-0.18367633604911704]","[1,1,1]","[0.07431306727810347,0.14383379363510515]","[-1,-1,-1]","[-0.09282803180052798,0.12661226193164643]","[-1,-1,-1]","[0.05851821225206383,-0.0862732234001382]","[-1,-1,-1]","[0.1248424839958872,0.14405259989576258]","[1,1,1]","[-0.054021917265781025,0.13919196589046984]","[-1,-1,-1]","[0.023909308801361228,-0.06542282980615231]","[1,1,1]","[-0.16261700932993123,-0.09683863439447507]","[-1,-1,-1]","[-0.17244819058790065,-0.004575706673561307]","[1,1,1]","[-0.10157859792818891,-0.16549891556392396]","[-1,-1,-1]","[0.13423586962936096,-0.1364263160638594]","[1,1,1]","[-0.10601336083806845,-0.03930786223776324]","[-1,-1,-1]","[-0.16067910059351315,-0.05054632735634507]","[-1,-1,-1]","[0.1632669548311963,0.0074723769410072576]","[1,1,1]","[0.1088724081061886,0.08762765472917122]","[-1,-1,-1]","[0.02,0.02]",290.2721,0,38,38,35,1,,,,,,,
,,,,,,,672e070e0a631ffab8d21860,682db4dc9fc219e305f4ce8e,2025-05-21_13h17.44.192,cuing_paradigm_dot,2024.1.5,Win32,59.52380952,682d556593cb38ad0a074487,,,,,,,,,,,290.2741,290.7721,,,291.0231,292.5223,,,,,,,,,0.1,,,,,,,,290.7721,291.0231,292.5223,"[0.14171466759755982,0.016929300353408092]","[-1,-1,-1]","[0.18109971267566966,-0.013909538785292334]","[-1,-1,-1]","[-0.008755680012881536,0.09865971008530236]","[-1,-1,-1]","[-0.16391722526826033,-0.05708678482552027]","[-1,-1,-1]","[0.12946232606021432,0.061955463355298085]","[-1,-1,-1]","[0.15143743442092825,-0.0801433106061001]","[-1,-1,-1]","[0.11062397889577112,-0.1446944881024994]","[-1,-1,-1]","[0.03842295096154549,0.058964996647151005]","[-1,-1,-1]","[-0.1436674768860455,-0.13395310466510535]","[-1,-1,-1]","[-0.018268399850329523,-0.10421875740180529]","[1,1,1]","[-0.12666801136355238,0.13470737636210653]","[-1,-1,-1]","[0.06357134454644961,-0.1794086718200866]","[-1,-1,-1]","[0.15959621935267704,0.09978200834382615]","[-1,-1,-1]","[-0.10641128174821572,-0.033799184987347346]","[1,1,1]","[-0.062425007219121156,-0.1287543857616426]","[-1,-1,-1]","[-0.05878471820257046,0.1336582322204842]","[-1,-1,-1]","[-0.04899843611774765,-0.17977939884064595]","[1,1,1]","[-0.04882230874901437,0.0600948034383401]","[-1,-1,-1]","[0.008894213076289948,0.015761511877090323]","[-1,-1,-1]","[-0.12137378804354516,0.009358091480984897]","[-1,-1,-1]","[-0.17377432017591096,0.023337406225162536]","[-1,-1,-1]","[0.010470583191870723,0.13579036248718018]","[-1,-1,-1]","[0.057478434220115684,-0.026108162151882833]","[-1,-1,-1]","[-0.045821799151814224,-0.02266371274433604]","[-1,-1,-1]","[0.045614275501433134,-0.07422264404027265]","[-1,-1,-1]","[-0.04725409097880998,-0.07642133846827096]","[-1,-1,-1]","[0.007162665228102425,-0.03829959926766096]","[-1,-1,-1]","[0.016444692032576883,0.18791419669995302]","[-1,-1,-1]","[-0.1071705924858953,-0.15937646222634697]","[-1,-1,-1]","[0.058916729865451094,0.1667890414995878]","[-1,-1,-1]","[-0.11130198260049728,0.07647343335500012]","[-1,-1,-1]","[0.10283970844086356,-0.06006586346489054]","[-1,-1,-1]","[0.02,0.02]",293.622,0,39,39,26,1,,,,,,,
,,,,,,,672e070e0a631ffab8d21860,682db4dc9fc219e305f4ce8e,2025-05-21_13h17.44.192,cuing_paradigm_dot,2024.1.5,Win32,59.52380952,682d556593cb38ad0a074487,,,,,,,,,,,293.6239,294.1221,,,294.3727,294.7393,right,,,,,,,,0.6,0.3581,,,,,,,294.1222,294.3726,294.7393,"[-0.0929745532376949,0.053216976071163526]","[-1,-1,-1]","[-0.045105876901116525,-0.047509099766472364]","[1,1,1]","[0.10272593497459867,0.16417318270325568]","[-1,-1,-1]","[0.0038959670127611083,-0.12856163460337128]","[-1,-1,-1]","[0.04359417627181199,0.06454549343488333]","[1,1,1]","[-0.15969249582598757,-0.056164062048336294]","[-1,-1,-1]","[0.047478313212442745,-0.18258996516198853]","[1,1,1]","[0.046858645428394165,0.008156206113017237]","[-1,-1,-1]","[-0.14423517982998996,-0.10881303199321225]","[-1,-1,-1]","[0.17898819361733637,-0.07805303623833401]","[1,1,1]","[0.0035695053439207067,0.04677194197212234]","[1,1,1]","[-0.12224286700279756,0.1395630287081281]","[1,1,1]","[-0.03727848278196316,-0.12044890928897521]","[1,1,1]","[0.08480647123756713,-0.012938546448844252]","[1,1,1]","[0.021130319530287805,0.19065788720526644]","[-1,-1,-1]","[-0.16605808895824914,0.0152599857696689]","[1,1,1]","[0.04820607700360031,-0.05901570493840707]","[-1,-1,-1]","[-0.05352009876858674,0.08896517560807153]","[1,1,1]","[0.1302197968329782,-0.1063845066364512]","[1,1,1]","[0.14686088257130026,0.07167064943008282]","[1,1,1]","[0.04216846751133151,0.10678943330182457]","[-1,-1,-1]","[-0.09569198313012002,-0.16532595530457472]","[1,1,1]","[-0.123349841685798,-0.021418024590956763]","[-1,-1,-1]","[0.1499782462472547,-0.013314647436647299]","[-1,-1,-1]","[-0.06648942507287704,0.16687098302602738]","[1,1,1]","[-0.16611193829272394,0.08278840846534218]","[1,1,1]","[-0.06242861102904915,0.004222927955687365]","[-1,-1,-1]","[0.0992046264450479,-0.15440948698529106]","[1,1,1]","[0.06392769604319846,0.15131359026219798]","[1,1,1]","[0.021770404313280818,-0.09117713861596714]","[-1,-1,-1]","[-0.00563341865643199,-0.05437832719614549]","[1,1,1]","[-0.007651534733619648,-0.009125405089412578]","[1,1,1]","[0.02,0.02]",295.8384,0,40,40,164,1,,,,,,,
,,,,,,,672e070e0a631ffab8d21860,682db4dc9fc219e305f4ce8e,2025-05-21_13h17.44.192,cuing_paradigm_dot,2024.1.5,Win32,59.52380952,682d556593cb38ad0a074487,,,,,,,,,,,295.8398,296.3386,,,296.5891,296.9718,left,,,,,,,,0.55,0.3684,,,,,,,296.3387,296.5891,296.9719,"[-0.06254679455237638,-0.05932746035034211]","[1,1,1]","[-0.09088648468572864,-0.09249001353404653]","[-1,-1,-1]","[0.12949702525857013,-0.062093002895405536]","[1,1,1]","[0.17478615582796792,-0.05479361515182993]","[-1,-1,-1]","[0.07143183479737396,0.06251345797593662]","[1,1,1]","[0.1724991145666791,0.05174639016662145]","[1,1,1]","[-0.05133052112484451,0.15076126349549757]","[1,1,1]","[-0.02440725268756999,-0.1350764549326297]","[1,1,1]","[0.0836016710637832,0.1361080222411797]","[-1,-1,-1]","[-0.13260962964926043,0.007020485354793876]","[1,1,1]","[-0.16764878799524527,0.04225839351825781]","[-1,-1,-1]","[-0.12945521215311576,-0.14809642262752593]","[-1,-1,-1]","[0.011926276650210522,0.0908249725501618]","[1,1,1]","[-0.17271360890376505,-0.045453518905328845]","[1,1,1]","[0.12083880506574672,0.10618650028981853]","[1,1,1]","[0.09295688968020718,-0.11118871470941939]","[1,1,1]","[-0.026341509657473134,0.10453257002954543]","[-1,-1,-1]","[-0.0468840807438964,0.03808531255229778]","[1,1,1]","[0.012677460436843422,-0.0766409620921041]","[-1,-1,-1]","[0.16231038259396197,-0.003973268116408242]","[1,1,1]","[-0.024640821858899008,-0.027471596876591623]","[1,1,1]","[-0.005043593293304398,0.17776580456526483]","[1,1,1]","[-0.07876622727065138,0.09595413230817931]","[-1,-1,-1]","[-0.16530343152315957,0.10548148643583888]","[-1,-1,-1]","[-0.08826987568018589,0.04009120352530245]","[-1,-1,-1]","[-0.06655092521081303,-0.13426086994921596]","[1,1,1]","[0.030254950132971123,0.1288712084111187]","[-1,-1,-1]","[0.00836282625960689,0.007615485910772024]","[-1,-1,-1]","[0.08468371444153616,-0.17440558154236785]","[-1,-1,-1]","[-0.11916682875928399,-0.03284247238856476]","[1,1,1]","[0.1420762682521374,-0.11357710182970247]","[1,1,1]","[-0.10297702268190552,0.16681483786774529]","[-1,-1,-1]","[0.02,0.02]",298.0718,0,41,41,141,1,,,,,,,
,,,,,,,672e070e0a631ffab8d21860,682db4dc9fc219e305f4ce8e,2025-05-21_13h17.44.192,cuing_paradigm_dot,2024.1.5,Win32,59.52380952,682d556593cb38ad0a074487,,,,,,,,,,,298.0738,298.5716,,,298.8229,299.1224,right,,,,,,,,0.55,0.2845,,,,,,,298.5717,298.8228,299.1225,"[-0.04635312210113411,0.0005238214799279791]","[-1,-1,-1]","[0.16965274909366532,0.04512797903504447]","[-1,-1,-1]","[0.15749570967395687,-0.09797907610012165]","[1,1,1]","[-0.15544677219344738,0.035847468326655106]","[1,1,1]","[-0.16958275206557705,-0.090238616410956]","[-1,-1,-1]","[-0.10423527479214997,-0.032638809400435016]","[1,1,1]","[0.13509859570097554,-0.06381183821591202]","[1,1,1]","[-0.09373115121044348,0.08729635187556609]","[1,1,1]","[0.09004431567306251,0.1705805887153204]","[-1,-1,-1]","[0.008721337154903525,-0.16619620599637736]","[-1,-1,-1]","[0.03224373933711488,0.1736994427209002]","[-1,-1,-1]","[0.04729854574451666,-0.01392878584116445]","[-1,-1,-1]","[-0.17631401823132303,0.08344181036684623]","[1,1,1]","[-0.08807377272134018,0.17711571833759868]","[1,1,1]","[-0.001346283984305616,0.10706201631035499]","[1,1,1]","[0.027827312078934855,-0.10040172434075194]","[1,1,1]","[0.10501415119231054,0.034055186802684045]","[1,1,1]","[0.08159505912317677,-0.1344109588192369]","[1,1,1]","[-0.08338864413147551,-0.16546094618243593]","[1,1,1]","[-0.11737985140154437,-0.07738166978224727]","[-1,-1,-1]","[-0.018576836630408773,0.05524515948488699]","[-1,-1,-1]","[0.03494879850264466,0.051427269544060225]","[-1,-1,-1]","[-0.17065890000864348,-0.013566599685248896]","[1,1,1]","[0.18071333286335553,-0.024385879164465184]","[-1,-1,-1]","[0.09131929440061255,-0.07769917561469704]","[1,1,1]","[0.1610076426807675,0.08447474355475297]","[1,1,1]","[0.05353944314524026,-0.19229770054528847]","[-1,-1,-1]","[-0.01927418764511494,0.198861282452414]","[-1,-1,-1]","[-0.14731736863554776,-0.13218463399088234]","[1,1,1]","[0.009863911785810203,-0.05444387708327458]","[-1,-1,-1]","[-0.013301119065400446,0.1571760662901795]","[1,1,1]","[-0.028105112900180487,-0.196034221575684]","[1,1,1]","[0.02,0.02]",300.2219,0,42,42,144,1,,,,,,,
,,,,,,,672e070e0a631ffab8d21860,682db4dc9fc219e305f4ce8e,2025-05-21_13h17.44.192,cuing_paradigm_dot,2024.1.5,Win32,59.52380952,682d556593cb38ad0a074487,,,,,,,,,,,300.224,300.7216,,,300.9723,301.3389,left,,,,,,,,0.1,0.3534,,,,,,,300.7218,300.9722,301.339,"[-0.057730681866892786,-0.1412039257639841]","[-1,-1,-1]","[-0.1488637135823367,0.09868769494996825]","[-1,-1,-1]","[0.06119142945378665,-0.01236364816752948]","[-1,-1,-1]","[0.18657352875568134,0.011499172666783101]","[-1,-1,-1]","[-0.017343821054600715,-0.16399942421531286]","[-1,-1,-1]","[-0.13287594755795423,0.02318026497437583]","[-1,-1,-1]","[-0.13301827933900665,0.13992322555612016]","[-1,-1,-1]","[0.025706115907720387,-0.04928269431138751]","[-1,-1,-1]","[0.1339595130149418,-0.139411133117259]","[-1,-1,-1]","[0.0449217236951495,-0.11388827735836768]","[-1,-1,-1]","[0.1323153177791155,-0.05008853562511215]","[-1,-1,-1]","[0.13301319264452519,0.08953974989315391]","[-1,-1,-1]","[0.004123990972545013,0.1065546016650855]","[-1,-1,-1]","[-0.13645711849176498,-0.12777767653034255]","[-1,-1,-1]","[-0.12830676545095188,-0.07451501081592081]","[-1,-1,-1]","[0.1327389392133825,-0.008380255484319504]","[-1,-1,-1]","[-0.09006264128623197,-0.09598478440569831]","[-1,-1,-1]","[0.15363003686333934,0.04198772948672748]","[-1,-1,-1]","[0.055416649996239534,0.08153232939295071]","[-1,-1,-1]","[-0.04119077870939949,0.14075171263690134]","[1,1,1]","[-0.024408464650585604,-0.06271631080311595]","[-1,-1,-1]","[-0.09100653702258654,-0.008145132967522447]","[-1,-1,-1]","[0.0954900318877146,0.03827677573402036]","[-1,-1,-1]","[0.13215025978319733,0.14986239784974012]","[-1,-1,-1]","[0.18191738732012366,-0.047701098757641454]","[1,1,1]","[0.009749945949917878,0.0003030557984804823]","[-1,-1,-1]","[-0.1776338408382594,-0.03339713645851038]","[-1,-1,-1]","[0.059842720472528234,0.17101333383801565]","[1,1,1]","[-0.07869001272302609,0.06755336617514789]","[-1,-1,-1]","[-0.18673517981122453,0.041745613821685984]","[-1,-1,-1]","[-0.10852688561789944,-0.16215393658112645]","[-1,-1,-1]","[-0.03899832887373919,0.011378768928841678]","[-1,-1,-1]","[0.02,0.02]",302.4381,0,43,43,16,1,,,,,,,
,,,,,,,672e070e0a631ffab8d21860,682db4dc9fc219e305f4ce8e,2025-05-21_13h17.44.192,cuing_paradigm_dot,2024.1.5,Win32,59.52380952,682d556593cb38ad0a074487,,,,,,,,,,,302.4394,302.9381,,,303.1888,303.3916,right,,,,,,,,0.9,0.1961,,,,,,,302.9381,303.1888,303.3917,"[0.16280170085445744,0.008323552328754162]","[1,1,1]","[-0.17777418912459442,-0.059196964980870105]","[1,1,1]","[-0.040572436482848244,-0.12447933612475062]","[1,1,1]","[0.04386695295917468,0.12681234144088147]","[1,1,1]","[0.15852148947320746,0.05097237844633936]","[1,1,1]","[0.08750095082159669,0.09493372829602671]","[1,1,1]","[-0.012233897855504463,0.09011365729080865]","[1,1,1]","[-0.07243921173808214,0.01771223226552209]","[1,1,1]","[-0.13046663101411932,0.13387572313645063]","[-1,-1,-1]","[-0.04886523351188237,0.14389042511074945]","[1,1,1]","[0.13131736902994684,-0.12739641283858977]","[1,1,1]","[-0.13343443329414661,-0.02587153188042608]","[1,1,1]","[-0.024338859472717946,-0.025193973908864797]","[1,1,1]","[0.09468330133838553,-0.0051647352550841475]","[1,1,1]","[-0.05229646458859041,0.08546119276812573]","[1,1,1]","[0.09669017191949146,-0.05677050636374808]","[1,1,1]","[0.052643614023322516,-0.06611104971229993]","[1,1,1]","[-0.056538348410335316,-0.17840054846794157]","[1,1,1]","[0.01415549053242978,-0.08928246646272026]","[1,1,1]","[-0.10715798569581617,0.08910819173724284]","[1,1,1]","[0.10331209437834694,0.041533107517471794]","[1,1,1]","[-0.1749168498251798,0.05913436331890377]","[1,1,1]","[0.057666826260205487,-0.1894634601441838]","[1,1,1]","[0.06765795534608615,0.18349532570904334]","[-1,-1,-1]","[0.025866779419698248,0.07622674059301755]","[1,1,1]","[0.008385348608154028,-0.17580946179186643]","[1,1,1]","[-0.0813898527214584,-0.11905233617479459]","[-1,-1,-1]","[0.0162213194320542,0.030484441371086517]","[1,1,1]","[0.13375882286920163,0.11047578137504926]","[1,1,1]","[0.08850048439399469,-0.12507197397422057]","[1,1,1]","[-0.11011296247580121,-0.07769228594753337]","[1,1,1]","[-0.06493377454158952,0.1855266094181543]","[1,1,1]","[0.02,0.02]",304.4876,0,44,44,201,1,,,,,,,
