right,left,explain.started,explain.stopped,key_resp_3.keys,key_resp_3.rt,key_resp_3.duration,participant,session,date,expName,psychopyVersion,OS,frameRate,study_id,explain_2.started,explain_2.stopped,key_resp_4.keys,key_resp_4.rt,key_resp_4.duration,explain_3.started,explain_3.stopped,key_resp_5.keys,key_resp_5.rt,key_resp_5.duration,fixation.started,fixation.stopped,practice.started,practice.stopped,response.started,response.stopped,key_resp.keys,feedback.started,feedback.stopped,trials_2.thisRepN,trials_2.thisTrialN,trials_2.thisN,trials_2.thisIndex,trials_2.ran,white_ratio,key_resp.rt,key_resp.duration,explain_4.started,explain_4.stopped,key_resp_6.keys,key_resp_6.rt,key_resp_6.duration,dotDisplay.started,dotDisplay.stopped,ITI.started,polygon_1.pos,polygon_1.color,polygon_2.pos,polygon_2.color,polygon_3.pos,polygon_3.color,polygon_4.pos,polygon_4.color,polygon_5.pos,polygon_5.color,polygon_6.pos,polygon_6.color,polygon_7.pos,polygon_7.color,polygon_8.pos,polygon_8.color,polygon_9.pos,polygon_9.color,polygon_10.pos,polygon_10.color,polygon_11.pos,polygon_11.color,polygon_12.pos,polygon_12.color,polygon_13.pos,polygon_13.color,polygon_14.pos,polygon_14.color,polygon_15.pos,polygon_15.color,polygon_16.pos,polygon_16.color,polygon_17.pos,polygon_17.color,polygon_18.pos,polygon_18.color,polygon_19.pos,polygon_19.color,polygon_20.pos,polygon_20.color,polygon_21.pos,polygon_21.color,polygon_22.pos,polygon_22.color,polygon_23.pos,polygon_23.color,polygon_24.pos,polygon_24.color,polygon_25.pos,polygon_25.color,polygon_26.pos,polygon_26.color,polygon_27.pos,polygon_27.color,polygon_28.pos,polygon_28.color,polygon_29.pos,polygon_29.color,polygon_30.pos,polygon_30.color,polygon_31.pos,polygon_31.color,polygon_32.pos,polygon_32.color,dot_size,ITI.stopped,trials.thisRepN,trials.thisTrialN,trials.thisN,trials.thisIndex,trials.ran,break_2.started,break_2.stopped,trials_3.thisRepN,trials_3.thisTrialN,trials_3.thisN,trials_3.thisIndex,trials_3.ran
subject chose black,subject chose white,0.0004,135.6777,space,120.6536,,675b473fc50c2d9d8f0afbff,682f0fd8a2d1caaba58ae65b,2025-05-22_12h57.05.203,cuing_paradigm_dot,2024.1.5,Win32,61.34969325,682d573fa47f1360d1451895,,,,,,,,,,,,,,,,,,,,,,,,,,,,,,,,,,,,,,,,,,,,,,,,,,,,,,,,,,,,,,,,,,,,,,,,,,,,,,,,,,,,,,,,,,,,,,,,,,,,,,,,,,,,,,,,,
,,,,,,,675b473fc50c2d9d8f0afbff,682f0fd8a2d1caaba58ae65b,2025-05-22_12h57.05.203,cuing_paradigm_dot,2024.1.5,Win32,61.34969325,682d573fa47f1360d1451895,135.6785,238.1145,space,72.4141,,,,,,,,,,,,,,,,,,,,,,,,,,,,,,,,,,,,,,,,,,,,,,,,,,,,,,,,,,,,,,,,,,,,,,,,,,,,,,,,,,,,,,,,,,,,,,,,,,,,,,,,,,,,,
,,,,,,,675b473fc50c2d9d8f0afbff,682f0fd8a2d1caaba58ae65b,2025-05-22_12h57.05.203,cuing_paradigm_dot,2024.1.5,Win32,61.34969325,682d573fa47f1360d1451895,,,,,,238.1153,249.5959,space,8.4581,,,,,,,,,,,,,,,,,,,,,,,,,,,,,,,,,,,,,,,,,,,,,,,,,,,,,,,,,,,,,,,,,,,,,,,,,,,,,,,,,,,,,,,,,,,,,,,,,,,,,,,,
,,,,,,,675b473fc50c2d9d8f0afbff,682f0fd8a2d1caaba58ae65b,2025-05-22_12h57.05.203,cuing_paradigm_dot,2024.1.5,Win32,61.34969325,682d573fa47f1360d1451895,,,,,,,,,,,249.6691,250.1112,250.1123,250.3514,250.3519,251.8438,,251.8444,252.9445,0,0,0,1,1,0.2,,,,,,,,,,,,,,,,,,,,,,,,,,,,,,,,,,,,,,,,,,,,,,,,,,,,,,,,,,,,,,,,,,,,,,,,,,,,,,,,,,,,,,,,
,,,,,,,675b473fc50c2d9d8f0afbff,682f0fd8a2d1caaba58ae65b,2025-05-22_12h57.05.203,cuing_paradigm_dot,2024.1.5,Win32,61.34969325,682d573fa47f1360d1451895,,,,,,,,,,,252.9461,253.4431,253.4431,253.6947,253.695,254.361,left,254.3613,255.4603,0,1,1,0,1,0.8,0.6363,,,,,,,,,,,,,,,,,,,,,,,,,,,,,,,,,,,,,,,,,,,,,,,,,,,,,,,,,,,,,,,,,,,,,,,,,,,,,,,,,,,,,,,
,,,,,,,675b473fc50c2d9d8f0afbff,682f0fd8a2d1caaba58ae65b,2025-05-22_12h57.05.203,cuing_paradigm_dot,2024.1.5,Win32,61.34969325,682d573fa47f1360d1451895,,,,,,,,,,,,,,,,,,,,,,,,,,,,255.4621,266.4929,space,8.0078,,,,,,,,,,,,,,,,,,,,,,,,,,,,,,,,,,,,,,,,,,,,,,,,,,,,,,,,,,,,,,,,,,,,,,,,,,,,,,,,,,
,,,,,,,675b473fc50c2d9d8f0afbff,682f0fd8a2d1caaba58ae65b,2025-05-22_12h57.05.203,cuing_paradigm_dot,2024.1.5,Win32,61.34969325,682d573fa47f1360d1451895,,,,,,,,,,,266.5392,267.0083,,,267.2613,267.5253,right,,,,,,,,0.1,0.2355,,,,,,,267.0098,267.2612,267.527,"[0.02543640783292013,-0.10438561575837947]","[-1,-1,-1]","[0.14885316513659158,0.07892697499168641]","[-1,-1,-1]","[0.04721721461387203,0.12392939937233109]","[-1,-1,-1]","[0.10941797881610935,-0.08399596155501203]","[-1,-1,-1]","[-0.0070728919764585525,-0.0744979450107942]","[-1,-1,-1]","[-0.11579003040362118,-0.14364902669286653]","[1,1,1]","[0.08267528211702456,-0.17225575344855779]","[-1,-1,-1]","[-0.021277693939941583,0.13580869951394423]","[-1,-1,-1]","[-0.15813539895870687,-0.10672872155045461]","[-1,-1,-1]","[-0.11954527221727687,-0.05604139597953172]","[-1,-1,-1]","[-0.033837230662898274,0.17550987797440762]","[-1,-1,-1]","[0.017151338846351984,0.0629124564328904]","[-1,-1,-1]","[-0.09921844715414001,0.17082299641841475]","[-1,-1,-1]","[0.06329750035464231,-0.06562161903710993]","[-1,-1,-1]","[-0.06152129785478639,0.08030857684090592]","[-1,-1,-1]","[0.16049653608476444,-0.06769689806022311]","[-1,-1,-1]","[-0.008605300575514233,0.010223520978705207]","[-1,-1,-1]","[-0.08849902313797985,-0.0008179802093182342]","[1,1,1]","[-0.11118350583487817,0.04195521022838306]","[-1,-1,-1]","[0.06266079314789953,0.037805016610888566]","[-1,-1,-1]","[0.051986649195652754,-0.02025153339307738]","[-1,-1,-1]","[0.17918239181086454,-0.01582828820191046]","[-1,-1,-1]","[0.190699398543415,0.05250794722345464]","[-1,-1,-1]","[-0.05439545117298706,-0.18795762486633735]","[-1,-1,-1]","[0.006455524504430031,-0.17342528012418731]","[-1,-1,-1]","[-0.12771608410135235,0.08410257111619102]","[-1,-1,-1]","[-0.19872574536936663,0.0180740218498064]","[1,1,1]","[-0.052122675331305296,-0.11367754311696997]","[-1,-1,-1]","[0.12948825253717572,0.13822465332411907]","[-1,-1,-1]","[-0.0698865175743941,-0.0476287413227824]","[-1,-1,-1]","[0.13529260123494352,0.022069311482192825]","[-1,-1,-1]","[0.11290140736329743,0.057346948270296266]","[-1,-1,-1]","[0.02,0.02]",268.6255,0,0,0,20,1,,,,,,,
,,,,,,,675b473fc50c2d9d8f0afbff,682f0fd8a2d1caaba58ae65b,2025-05-22_12h57.05.203,cuing_paradigm_dot,2024.1.5,Win32,61.34969325,682d573fa47f1360d1451895,,,,,,,,,,,268.6272,269.125,,,269.3664,269.6586,left,,,,,,,,0.55,0.2764,,,,,,,269.1252,269.3663,269.6587,"[-0.04059825083675477,-0.12229635328913391]","[1,1,1]","[-0.1481324535811539,-0.06825619586171391]","[1,1,1]","[-0.17628353816893988,-0.03308049432070024]","[1,1,1]","[0.1368847256125945,0.11109062836937202]","[1,1,1]","[0.06703441934317064,-0.12452535801110186]","[1,1,1]","[-0.1204227545138242,0.1125560608428978]","[-1,-1,-1]","[0.1002116788152517,0.018864309263800925]","[-1,-1,-1]","[-0.16047788552191877,0.08806991753297905]","[-1,-1,-1]","[0.007945789188748617,-0.019882192798856262]","[1,1,1]","[-0.031583742884368556,-0.17152210547284666]","[1,1,1]","[0.07147616643521273,-0.06846056157735822]","[1,1,1]","[-0.0681791755140061,0.12458764684940048]","[1,1,1]","[0.18386133181060668,-0.055153352274181]","[-1,-1,-1]","[0.14035574398790304,-0.12741109812319087]","[-1,-1,-1]","[-0.08375944811405836,-0.07850317079040779]","[-1,-1,-1]","[-0.06396446990426073,0.06931842250166494]","[1,1,1]","[0.008341310061465611,0.17736894518368185]","[1,1,1]","[-0.18755156651313667,0.011977726236809063]","[1,1,1]","[0.04459065194902792,-0.19196131563972121]","[-1,-1,-1]","[0.06227758379196125,0.14780244751263708]","[-1,-1,-1]","[0.009312705177100226,0.08468831936076722]","[1,1,1]","[-0.006130048674752114,-0.09679723861657474]","[-1,-1,-1]","[0.10971703107115455,0.06660885158567907]","[1,1,1]","[-0.1198133987502015,-0.10929863171663699]","[-1,-1,-1]","[0.0071858965877255685,0.0411537476749035]","[1,1,1]","[-0.01921650257821421,0.11994889465909263]","[1,1,1]","[-0.08169438191474644,-0.008399805524728535]","[1,1,1]","[0.006039646314693925,-0.15362954648115718]","[-1,-1,-1]","[0.062270624869871095,0.08791101302798882]","[-1,-1,-1]","[0.09928098394781291,-0.038614259311195324]","[1,1,1]","[-0.12259011060334413,-0.002308862151623446]","[-1,-1,-1]","[0.17958554017369857,0.08439142874101996]","[-1,-1,-1]","[0.02,0.02]",270.7582,0,1,1,120,1,,,,,,,
,,,,,,,675b473fc50c2d9d8f0afbff,682f0fd8a2d1caaba58ae65b,2025-05-22_12h57.05.203,cuing_paradigm_dot,2024.1.5,Win32,61.34969325,682d573fa47f1360d1451895,,,,,,,,,,,270.7599,271.2581,,,271.5094,271.6587,right,,,,,,,,0.4,0.1188,,,,,,,271.2583,271.5093,271.6588,"[-0.02710157413092704,-0.12361719486194109]","[-1,-1,-1]","[-0.1797227574297126,0.08582744660033981]","[-1,-1,-1]","[0.11698898540492919,0.1086249508302348]","[1,1,1]","[-0.18794559699282365,0.036064140921683176]","[-1,-1,-1]","[0.10541402012478658,-0.09334074008327713]","[-1,-1,-1]","[0.022865705139931514,0.050371268157467286]","[1,1,1]","[0.056884847027228735,0.08755693028404268]","[-1,-1,-1]","[0.08644667908640097,-0.14722982868182866]","[1,1,1]","[0.08787796997708583,0.16216299168640033]","[1,1,1]","[-0.011516723277391144,0.13961941084738402]","[-1,-1,-1]","[0.16067224183700676,0.06836424764605151]","[1,1,1]","[-0.047428533359531226,0.0007491338765929769]","[-1,-1,-1]","[-0.05179556376679467,-0.05557583217694863]","[-1,-1,-1]","[0.11444958040202334,0.02894007892894414]","[-1,-1,-1]","[-0.025601738733494063,0.18735324986049487]","[1,1,1]","[-0.10190161086990951,0.15747556830550818]","[-1,-1,-1]","[-0.0718693822207814,-0.17030902510187923]","[-1,-1,-1]","[-0.11078093692606926,-0.07954309226190905]","[-1,-1,-1]","[-0.14161448340694321,0.1314929477613274]","[1,1,1]","[-0.15527192749484356,-0.12426698897061395]","[1,1,1]","[-0.1017591476020882,0.005933836029933221]","[1,1,1]","[0.03936523809917936,-0.033164320066698366]","[-1,-1,-1]","[-0.08937670592942187,0.1002870843275707]","[1,1,1]","[-0.12258338723032867,-0.030985025487194142]","[1,1,1]","[0.05298230358480622,-0.18864199502525703]","[-1,-1,-1]","[0.011848187190857638,-0.16874857039602026]","[-1,-1,-1]","[0.1773228866613904,-0.08049469796261317]","[-1,-1,-1]","[-0.12654114185299392,0.06751865471014523]","[-1,-1,-1]","[0.11401156601430286,-0.02829598591512313]","[-1,-1,-1]","[0.03827865055157962,0.13749421544090232]","[1,1,1]","[-0.18832518663557896,-0.007639819932979955]","[1,1,1]","[-0.056297392587569856,0.12581491425013575]","[-1,-1,-1]","[0.02,0.02]",272.7578,0,2,2,37,1,,,,,,,
,,,,,,,675b473fc50c2d9d8f0afbff,682f0fd8a2d1caaba58ae65b,2025-05-22_12h57.05.203,cuing_paradigm_dot,2024.1.5,Win32,61.34969325,682d573fa47f1360d1451895,,,,,,,,,,,272.7593,273.2578,,,273.5156,273.6746,right,,,,,,,,0.4,0.1493,,,,,,,273.2579,273.5155,273.6747,"[0.05525572263243849,-0.09832351808280805]","[1,1,1]","[0.012599700059440546,0.10822559783505102]","[1,1,1]","[-0.16564539042679624,-0.04644939389416327]","[1,1,1]","[-0.09305015903005062,0.13812412935541427]","[-1,-1,-1]","[0.07974578408925163,0.034945050138880024]","[-1,-1,-1]","[-0.015187730775848968,-0.1736248318934479]","[-1,-1,-1]","[-0.03919730561169521,0.16948431791298776]","[1,1,1]","[-0.02550108156196649,0.07826881180585649]","[-1,-1,-1]","[0.12812971098832715,-0.0036381943215609137]","[-1,-1,-1]","[-0.06026722924486584,-0.09145720578893826]","[1,1,1]","[-0.1505316805766574,-0.0963759348166156]","[1,1,1]","[0.06624010088028487,0.09774421588525065]","[1,1,1]","[0.16020020289578768,0.03322164010789807]","[-1,-1,-1]","[0.026581302942991904,0.18460326118904155]","[-1,-1,-1]","[-0.12409175466764438,0.021235544526936122]","[1,1,1]","[0.0736379763327806,-0.015033231522162077]","[-1,-1,-1]","[0.1741260468525309,-0.03675768519039273]","[-1,-1,-1]","[0.14736595887294962,0.1342937153612246]","[1,1,1]","[-0.011879715093675948,-0.0140089202786671]","[1,1,1]","[-0.06928656078616993,-0.1369862812309731]","[-1,-1,-1]","[-0.024681604621957544,-0.0717690199965679]","[-1,-1,-1]","[-0.055696948731370696,0.11852145950042066]","[-1,-1,-1]","[0.15457319601659847,-0.10794259110427022]","[1,1,1]","[0.03802835805822836,-0.15306274393431735]","[-1,-1,-1]","[0.1573236328555068,0.09502450474664999]","[-1,-1,-1]","[-0.059735322001331824,-0.03262671259311906]","[-1,-1,-1]","[-0.18789172378566973,0.03094553757652385]","[-1,-1,-1]","[0.08436782345157985,0.17446860070890266]","[-1,-1,-1]","[-0.0974614491557039,-0.059016225094022934]","[1,1,1]","[0.09478601800277121,-0.14456242275088005]","[-1,-1,-1]","[-0.041225457435886265,0.028563029788075497]","[1,1,1]","[0.04866598758438543,-0.05497575404540595]","[-1,-1,-1]","[0.02,0.02]",274.7741,0,3,3,45,1,,,,,,,
,,,,,,,675b473fc50c2d9d8f0afbff,682f0fd8a2d1caaba58ae65b,2025-05-22_12h57.05.203,cuing_paradigm_dot,2024.1.5,Win32,61.34969325,682d573fa47f1360d1451895,,,,,,,,,,,274.7754,275.2744,,,275.525,275.6083,right,,,,,,,,0.6,0.0529,,,,,,,275.2746,275.5249,275.6084,"[-0.0843991119798866,-0.030414038284335834]","[1,1,1]","[0.17789763700271183,0.04278041033407078]","[1,1,1]","[-0.014406317087040503,0.005748980946411983]","[1,1,1]","[0.06900575287929722,-0.10277575704641936]","[1,1,1]","[-0.09561403168819142,-0.13692629763788422]","[1,1,1]","[0.14668526601187043,-0.031140432557356115]","[-1,-1,-1]","[0.08235692402921616,0.00618820577995498]","[1,1,1]","[0.11947472218678916,0.050602271364319634]","[1,1,1]","[-0.04240671958831353,0.06271357340564436]","[-1,-1,-1]","[-0.021239175297836078,-0.0673037325255028]","[-1,-1,-1]","[0.07045327821413315,-0.17490752961483397]","[-1,-1,-1]","[-0.05859152641058065,0.18461842899002226]","[-1,-1,-1]","[-0.12797533769951835,-0.017786701978908716]","[-1,-1,-1]","[0.1500874844541516,0.01277870977562052]","[1,1,1]","[-0.17281485920208045,0.058724611312024284]","[1,1,1]","[-0.07177542223847846,0.1296005298794464]","[1,1,1]","[-0.034660522464579784,-0.16869954886157643]","[1,1,1]","[0.1435295847280748,0.1093406664381476]","[-1,-1,-1]","[0.053930997757434235,0.04026589727526706]","[1,1,1]","[-0.16680981112478555,-0.0034233109791893947]","[-1,-1,-1]","[-0.09421505838012356,-0.09510558710097107]","[1,1,1]","[-0.1436370758884456,-0.06215592770522674]","[1,1,1]","[-0.14263555437149922,-0.12011706372127262]","[1,1,1]","[0.11052010211338095,-0.16566440613029979]","[1,1,1]","[0.034911370069611154,-0.06823945590949063]","[-1,-1,-1]","[0.07971848400001104,0.10569662884942758]","[-1,-1,-1]","[-0.08698199663796621,0.02980725973205441]","[1,1,1]","[-0.013529607434704456,-0.12744297156399073]","[-1,-1,-1]","[-0.15665594152486337,0.12205259689949152]","[-1,-1,-1]","[0.028340413568849736,-0.02327174428000743]","[-1,-1,-1]","[0.011677801434872393,0.1667673020495915]","[1,1,1]","[-0.025181124196904693,0.11349802035956662]","[1,1,1]","[0.02,0.02]",276.7076,0,4,4,152,1,,,,,,,
,,,,,,,675b473fc50c2d9d8f0afbff,682f0fd8a2d1caaba58ae65b,2025-05-22_12h57.05.203,cuing_paradigm_dot,2024.1.5,Win32,61.34969325,682d573fa47f1360d1451895,,,,,,,,,,,276.7088,277.2074,,,277.4588,277.6413,right,,,,,,,,0.45,0.155,,,,,,,277.2075,277.4585,277.6414,"[-0.01284559774753627,0.15972395319399754]","[1,1,1]","[0.009253717850712054,-0.07291579577721252]","[-1,-1,-1]","[0.04732152992764464,-0.10630073998957917]","[-1,-1,-1]","[-0.12654466739623846,0.061501791783491064]","[1,1,1]","[-0.014739516183608647,0.09721741870288414]","[1,1,1]","[0.13903767576052972,0.037515051881907305]","[1,1,1]","[0.17689709117360122,0.021061219759344343]","[-1,-1,-1]","[0.19135054771404444,-0.05417666586863912]","[-1,-1,-1]","[0.025326548342316887,0.049896641057828865]","[-1,-1,-1]","[0.15585063844970395,-0.0739124486624984]","[-1,-1,-1]","[0.08177209632484136,0.02592791667329354]","[-1,-1,-1]","[0.016748993116843063,-0.006571875691095702]","[1,1,1]","[0.04778379554328905,0.08601542199357023]","[-1,-1,-1]","[-0.10153426917498538,-0.10333654358339366]","[-1,-1,-1]","[-0.15759310916217317,0.0018774518974572837]","[-1,-1,-1]","[-0.08218799148380102,-0.14530264318176364]","[1,1,1]","[0.12759017571657474,-0.153548858594168]","[-1,-1,-1]","[-0.022327376461945787,-0.14113514478692107]","[1,1,1]","[-0.056043882969471846,0.038495122741859]","[-1,-1,-1]","[-0.14632159571180137,-0.04198005170240328]","[1,1,1]","[0.05611493155155507,-0.01866617112364373]","[1,1,1]","[-0.18463310439032596,0.05973984442953627]","[-1,-1,-1]","[-0.07836511849405917,0.13421313581067826]","[1,1,1]","[-0.0616328942061823,-0.06191236783918956]","[1,1,1]","[0.10439246293833931,0.0916985552746903]","[1,1,1]","[0.1110714982637159,0.13241100115259916]","[-1,-1,-1]","[-0.12761905359953357,0.12211117304259159]","[-1,-1,-1]","[0.09300674859731489,-0.10499946166479608]","[1,1,1]","[-0.07253358380063767,-0.021689168563349234]","[1,1,1]","[-0.15550514894369605,-0.12116353739268257]","[-1,-1,-1]","[0.03077029705434569,0.12231481835000393]","[-1,-1,-1]","[0.12480953496040763,-0.010461486520054339]","[-1,-1,-1]","[0.02,0.02]",278.74,0,5,5,68,1,,,,,,,
,,,,,,,675b473fc50c2d9d8f0afbff,682f0fd8a2d1caaba58ae65b,2025-05-22_12h57.05.203,cuing_paradigm_dot,2024.1.5,Win32,61.34969325,682d573fa47f1360d1451895,,,,,,,,,,,278.741,279.2405,,,279.4803,280.0239,right,,,,,,,,0.5,0.5108,,,,,,,279.2406,279.4802,280.0241,"[-0.020261147650366008,0.00583539818796942]","[-1,-1,-1]","[-0.03657434681326401,-0.08061840893337138]","[-1,-1,-1]","[0.17917391561200566,0.016602570201263715]","[1,1,1]","[0.04341886211247101,-0.13619810037087413]","[1,1,1]","[-0.040659970196969764,0.1633969984306807]","[1,1,1]","[0.10180788854720584,0.021267430236588197]","[1,1,1]","[0.08301768094032337,-0.05039894408787121]","[-1,-1,-1]","[0.11918674832779394,0.06929687407678302]","[1,1,1]","[0.17666415879934008,-0.05727695619841378]","[-1,-1,-1]","[0.02357345808398647,-0.051833801118027704]","[1,1,1]","[0.06802037062712518,0.07406800560456095]","[-1,-1,-1]","[-0.055066284668666636,-0.020243479234872224]","[1,1,1]","[0.005861394512783324,0.13470873455937027]","[-1,-1,-1]","[-0.08952911358184089,0.0012699433118382425]","[-1,-1,-1]","[0.1651242754464465,0.10280152826957648]","[1,1,1]","[-0.06652312507313192,0.04910418287090641]","[-1,-1,-1]","[-0.12000742353326664,0.09558816059330666]","[1,1,1]","[0.06204727907787193,0.15690843593879922]","[-1,-1,-1]","[-0.15164674482860785,0.12552802548978573]","[-1,-1,-1]","[-0.19016251511593657,0.054308949144088715]","[1,1,1]","[-0.10436436168492948,-0.051042263522115966]","[-1,-1,-1]","[0.09059528906704319,-0.15878639314963583]","[1,1,1]","[-0.15847187777588406,-0.08772930692155366]","[-1,-1,-1]","[0.057354687733345906,-0.1847379862493064]","[1,1,1]","[0.047462839177272904,-0.09073890943446035]","[1,1,1]","[0.04384746309742184,0.03406268337271969]","[-1,-1,-1]","[-0.12252633005200388,-0.12415087958368132]","[1,1,1]","[-0.0439630852249631,-0.14142421023076335]","[-1,-1,-1]","[0.11945920906022368,-0.08187585525094816]","[1,1,1]","[-0.13904341084806898,0.03462354795542425]","[-1,-1,-1]","[0.09502727783491256,0.11936284665703432]","[-1,-1,-1]","[0.09669815051670645,-0.11841943096345298]","[1,1,1]","[0.02,0.02]",281.1236,0,6,6,112,1,,,,,,,
,,,,,,,675b473fc50c2d9d8f0afbff,682f0fd8a2d1caaba58ae65b,2025-05-22_12h57.05.203,cuing_paradigm_dot,2024.1.5,Win32,61.34969325,682d573fa47f1360d1451895,,,,,,,,,,,281.1251,281.6234,,,281.8635,282.1477,right,,,,,,,,0.4,0.268,,,,,,,281.6235,281.8635,282.1479,"[0.11321921420150935,-0.1347813878281204]","[1,1,1]","[0.16070874272999872,0.02735624238526065]","[1,1,1]","[0.18014089977367026,-0.019977360763446493]","[1,1,1]","[-0.06372446431079412,0.18286786436290411]","[-1,-1,-1]","[0.04993490161608613,-0.18196375424512595]","[1,1,1]","[0.1199046381292229,-0.029350798108229992]","[-1,-1,-1]","[0.029543011884069523,-0.1349880462688702]","[-1,-1,-1]","[-0.08724433510525975,-0.061786902483779715]","[-1,-1,-1]","[-0.13384467669823297,0.1288134176526181]","[1,1,1]","[0.03775896643703975,-0.006069418011740894]","[-1,-1,-1]","[0.09349548080914546,0.03976128004950483]","[1,1,1]","[-0.14337255748134614,-0.05594663762588682]","[1,1,1]","[-0.10696261992858193,0.07598482429705831]","[1,1,1]","[0.03731959843903305,0.1570799995997017]","[1,1,1]","[-0.03830863023663171,-0.10923629659429947]","[-1,-1,-1]","[0.08305881891547126,-0.09961337601507192]","[1,1,1]","[-0.0066229420930828745,-0.03065861601412391]","[-1,-1,-1]","[0.05920408824272768,0.09534714270812115]","[-1,-1,-1]","[-0.1298409755578052,0.013101345348823132]","[-1,-1,-1]","[-0.178478273047406,-0.08440871410761316]","[1,1,1]","[-0.015605954336920923,0.015419961467162738]","[-1,-1,-1]","[0.12316568176127331,0.12640171175805412]","[-1,-1,-1]","[0.07750798440014307,0.1520456610938762]","[-1,-1,-1]","[-0.06895929206858323,0.0016657796819076758]","[-1,-1,-1]","[0.022309536051620404,-0.06641562032597381]","[1,1,1]","[-0.04038513879017573,0.05537134409008674]","[1,1,1]","[-0.020997209294266517,0.15854393035845613]","[-1,-1,-1]","[-0.1007856182721751,-0.14606116487213544]","[-1,-1,-1]","[0.1657891865626604,-0.09237293127358502]","[-1,-1,-1]","[-0.17614057313377987,0.056349699590818786]","[-1,-1,-1]","[0.010752634210368513,0.11412251393950466]","[-1,-1,-1]","[-0.19514700447717834,0.018385236913771537]","[-1,-1,-1]","[0.02,0.02]",283.2461,0,7,7,32,1,,,,,,,
,,,,,,,675b473fc50c2d9d8f0afbff,682f0fd8a2d1caaba58ae65b,2025-05-22_12h57.05.203,cuing_paradigm_dot,2024.1.5,Win32,61.34969325,682d573fa47f1360d1451895,,,,,,,,,,,283.247,283.746,,,283.9905,284.3067,right,,,,,,,,0.55,0.2863,,,,,,,283.7461,283.9904,284.3069,"[0.049027917969440345,0.06439562843614272]","[-1,-1,-1]","[0.14280921756302323,-0.13453675359787765]","[-1,-1,-1]","[0.056820133007182076,0.12058953644673141]","[1,1,1]","[0.07619973948274213,-0.07888402873641273]","[1,1,1]","[-0.1352722605480215,0.11392243143912253]","[1,1,1]","[-0.04194748636509888,-0.15821221059265178]","[-1,-1,-1]","[0.02329923863143938,-0.11704743064721877]","[1,1,1]","[-0.14069858985970685,-0.0713599753768941]","[1,1,1]","[0.11615258733406084,-0.09650856297002597]","[1,1,1]","[-0.015483802312768911,0.15057901922114988]","[-1,-1,-1]","[0.12663640967846673,0.07761785404531708]","[-1,-1,-1]","[-0.06685501165685662,-0.09571257367019258]","[1,1,1]","[0.026602812797839073,-0.16965351289732705]","[-1,-1,-1]","[0.03801499459583345,0.005628451841482966]","[1,1,1]","[-0.11644764975777011,-0.009760175380148556]","[1,1,1]","[0.029032185179781695,0.1907163022513268]","[1,1,1]","[0.18789400729518682,0.028898053577269524]","[1,1,1]","[0.152652914639053,-0.0685340053885188]","[-1,-1,-1]","[0.13070008794136223,0.010187320960266356]","[-1,-1,-1]","[-0.11604336683544929,0.07456333731167568]","[1,1,1]","[-0.0033623076026280813,0.06770231069118975]","[-1,-1,-1]","[-0.07768213525671151,0.00040574835809039647]","[1,1,1]","[-0.06869200801845858,0.12927135128351344]","[-1,-1,-1]","[-0.0513745595950423,0.04098668754743324]","[-1,-1,-1]","[-0.17875125415472132,0.030373014108749728]","[-1,-1,-1]","[0.06257500459134945,-0.039696223742489475]","[1,1,1]","[-0.1577333238031131,-0.031678420730414936]","[1,1,1]","[0.10250399104352324,-0.14799307946197904]","[1,1,1]","[0.08942714000576453,0.16142819351065163]","[-1,-1,-1]","[-0.09192944046612193,-0.17650924522762462]","[1,1,1]","[-0.10357423135049855,-0.05180162767889399]","[1,1,1]","[-0.03127778421387617,-0.0729284491448154]","[-1,-1,-1]","[0.02,0.02]",285.4064,0,8,8,149,1,,,,,,,
,,,,,,,675b473fc50c2d9d8f0afbff,682f0fd8a2d1caaba58ae65b,2025-05-22_12h57.05.203,cuing_paradigm_dot,2024.1.5,Win32,61.34969325,682d573fa47f1360d1451895,,,,,,,,,,,285.4074,285.9065,,,286.1638,286.323,left,,,,,,,,0.9,0.1501,,,,,,,285.9067,286.1636,286.3231,"[-0.043802265755349255,0.1226860821116681]","[1,1,1]","[0.039380828647458455,0.17203722357652917]","[-1,-1,-1]","[-0.11828458893003965,0.1251232639702577]","[1,1,1]","[-0.15399749462638238,-0.013302280036675702]","[1,1,1]","[-0.03316422726862456,0.03232373763645851]","[1,1,1]","[0.005068230496780106,-0.029891066153852897]","[1,1,1]","[0.09152123028381974,0.05930989847852346]","[-1,-1,-1]","[0.007643876081984323,-0.12823114943657582]","[1,1,1]","[-0.07778140241329788,0.026141166755248496]","[1,1,1]","[-0.07212864459796252,-0.10732902135688428]","[1,1,1]","[0.10981730467047701,0.11778595717540466]","[1,1,1]","[-0.02936599851840436,0.18137947746506528]","[1,1,1]","[-0.1894268228355671,0.058181709012414144]","[1,1,1]","[0.06251060240891983,-0.04706987912820413]","[1,1,1]","[0.10204452625643376,-0.14624307535695164]","[1,1,1]","[-0.016432486294398047,0.07911251929562907]","[1,1,1]","[0.17107732065553272,0.10302856015476297]","[1,1,1]","[-0.01439715815324588,-0.08358185296786734]","[1,1,1]","[0.1390972417959746,0.02300015951630962]","[1,1,1]","[-0.08234517506690235,0.1678296224577932]","[1,1,1]","[0.07350185879946416,0.0015738160183764829]","[1,1,1]","[-0.009827207535379226,-0.1766552960052525]","[1,1,1]","[0.1706254316617995,-0.09371566064467075]","[1,1,1]","[0.10540681882665424,-0.08561037870375005]","[1,1,1]","[-0.10234622233724586,-0.006284491986787758]","[1,1,1]","[0.05353346938343505,0.12710279731251417]","[-1,-1,-1]","[-0.06216272375209923,-0.16079672492516517]","[1,1,1]","[-0.18375437999056804,-0.06391232362618152]","[1,1,1]","[-0.12973886010061822,-0.1485672112822399]","[1,1,1]","[0.19503815617004014,-0.03437724245714178]","[1,1,1]","[-0.13263815401724263,0.03133715067162343]","[1,1,1]","[0.043458339715257255,-0.1796743103761626]","[1,1,1]","[0.02,0.02]",287.423,0,9,9,203,1,,,,,,,
,,,,,,,675b473fc50c2d9d8f0afbff,682f0fd8a2d1caaba58ae65b,2025-05-22_12h57.05.203,cuing_paradigm_dot,2024.1.5,Win32,61.34969325,682d573fa47f1360d1451895,,,,,,,,,,,287.4241,287.9226,,,288.1629,288.4137,right,,,,,,,,0.55,0.2353,,,,,,,287.9228,288.1628,288.4138,"[0.004467506391200944,0.09579779214199334]","[-1,-1,-1]","[0.016762945696828714,-0.008564798313263077]","[1,1,1]","[0.04625743170238527,-0.1618932438652001]","[1,1,1]","[-0.0064330768248481674,-0.1417618980716988]","[-1,-1,-1]","[0.1926014040006197,0.04080000204750483]","[-1,-1,-1]","[-0.04463402558486376,0.045709649731979204]","[-1,-1,-1]","[0.13645299215989043,-0.01712817167586698]","[-1,-1,-1]","[-0.09838143160293468,-0.09263495732832719]","[1,1,1]","[-0.04779202788276917,-0.03721998199863747]","[1,1,1]","[0.19653443115836833,-0.02213815162958541]","[1,1,1]","[0.0892310975290465,0.0005618112079756849]","[1,1,1]","[-0.08632124456582245,0.06396367348014155]","[-1,-1,-1]","[-0.12811468021661837,0.008983799815769303]","[1,1,1]","[0.12186183431902324,-0.14358087509199038]","[1,1,1]","[0.09688726082633133,0.05194781860230854]","[-1,-1,-1]","[0.046986117584037645,0.15663323815756383]","[-1,-1,-1]","[-0.07617139018619005,-0.14468984543084823]","[1,1,1]","[0.06929372577787882,0.10944452429504514]","[1,1,1]","[0.10812455456522556,-0.06814747080660645]","[1,1,1]","[-0.06332014932892491,0.12262306971570264]","[1,1,1]","[-0.06760421662289934,0.17829762264628507]","[1,1,1]","[0.11798885684201933,0.11220680806118667]","[1,1,1]","[-0.11565839861942519,-0.03931963512473891]","[-1,-1,-1]","[-0.17930244149910507,-0.08284143168521879]","[-1,-1,-1]","[-0.12554718660301575,-0.1316463771208282]","[1,1,1]","[0.04063263185453766,-0.06476084123433201]","[1,1,1]","[-0.109198572373105,0.13231745177282664]","[-1,-1,-1]","[-0.08748916544117036,0.021950137488346472]","[1,1,1]","[-0.04312893528930229,-0.09971178213633615]","[-1,-1,-1]","[-0.03234355444919895,0.1550366099980455]","[-1,-1,-1]","[0.0842616570789793,0.1714234581284588]","[-1,-1,-1]","[0.036088475121816,0.06770414502635387]","[1,1,1]","[0.02,0.02]",289.5059,0,10,10,130,1,,,,,,,
,,,,,,,675b473fc50c2d9d8f0afbff,682f0fd8a2d1caaba58ae65b,2025-05-22_12h57.05.203,cuing_paradigm_dot,2024.1.5,Win32,61.34969325,682d573fa47f1360d1451895,,,,,,,,,,,289.5072,290.0057,,,290.2573,290.5557,right,,,,,,,,0.6,0.2702,,,,,,,290.0058,290.2572,290.5559,"[-0.14970359713013104,-0.12124873403622113]","[1,1,1]","[0.1346722146287766,-0.07646565777714834]","[-1,-1,-1]","[0.11275153567910244,0.05404436990313822]","[-1,-1,-1]","[0.1365004828570424,0.01186621395882959]","[1,1,1]","[0.1761895815649942,0.06887331855305472]","[1,1,1]","[0.0477573072729049,0.16225878980953942]","[1,1,1]","[0.031480447170617175,0.09541485679610812]","[1,1,1]","[0.002356862050267445,0.011860214932211864]","[-1,-1,-1]","[0.08829024235771164,-0.04452106297128515]","[1,1,1]","[-0.08676322649565893,0.15367891897990646]","[1,1,1]","[-0.028609138940808857,0.040441187793158376]","[-1,-1,-1]","[0.08610376230664918,0.1281297285831796]","[-1,-1,-1]","[-0.06426041085737463,-0.0950281595306709]","[1,1,1]","[0.04670792554662177,-0.03564806309932098]","[-1,-1,-1]","[0.05932970330653187,0.022032529236680868]","[-1,-1,-1]","[-0.10634701937078403,0.06694949600610915]","[1,1,1]","[0.01485830507599704,-0.17294824686982874]","[1,1,1]","[0.07745908615723367,-0.12749839937207366]","[1,1,1]","[-0.13225169469575304,-0.01763921717014429]","[-1,-1,-1]","[-0.010732213269545224,-0.05831107782458577]","[1,1,1]","[-0.037043416129784616,0.16906750208615226]","[-1,-1,-1]","[-0.059144003122049815,-0.04168793928175593]","[1,1,1]","[-0.16819490651985486,0.04950092111240065]","[1,1,1]","[0.16195275921089616,-0.03179533463546236]","[1,1,1]","[-0.11105881586328262,-0.14199762473043598]","[-1,-1,-1]","[0.14527495233767623,0.0975628581057923]","[1,1,1]","[0.13337654941641408,-0.148174007290958]","[-1,-1,-1]","[-0.05340050688339148,-0.17556471353779024]","[1,1,1]","[-0.05537235825575589,0.09249859468414891]","[1,1,1]","[0.006739548728753482,0.17992711409769863]","[-1,-1,-1]","[-0.1772589812769815,-0.027793234460166724]","[-1,-1,-1]","[0.04713864444992957,-0.07675453513797983]","[1,1,1]","[0.02,0.02]",291.6551,0,11,11,171,1,,,,,,,
,,,,,,,675b473fc50c2d9d8f0afbff,682f0fd8a2d1caaba58ae65b,2025-05-22_12h57.05.203,cuing_paradigm_dot,2024.1.5,Win32,61.34969325,682d573fa47f1360d1451895,,,,,,,,,,,291.6565,292.1556,,,292.407,292.7058,right,,,,,,,,0.5,0.2698,,,,,,,292.1556,292.4068,292.706,"[-0.1126398213361247,0.11097107530246689]","[1,1,1]","[-0.01249209819462346,-0.04700940130117311]","[-1,-1,-1]","[-0.03145335802427218,-0.0035944982517531698]","[-1,-1,-1]","[0.09252403943825352,0.03120864286369762]","[-1,-1,-1]","[0.06851892656009828,-0.05688499651468647]","[-1,-1,-1]","[0.02495209310413985,-0.06747869497868869]","[1,1,1]","[0.18837861246955123,0.02941822548559393]","[-1,-1,-1]","[-0.0922585629376863,-0.1482290060440129]","[1,1,1]","[0.029818151498175304,0.13921213547994363]","[-1,-1,-1]","[-0.08997373474009576,-0.04121855216329229]","[1,1,1]","[0.16944703386288806,0.06865100016517701]","[-1,-1,-1]","[0.13056071283268875,-0.0881944361962438]","[1,1,1]","[0.05528268460107119,-0.09469592201176556]","[1,1,1]","[-0.10968491520257628,0.03458427188180921]","[1,1,1]","[-0.002885653028098692,-0.17965576225590413]","[-1,-1,-1]","[-0.04667047976727413,-0.15367403418718026]","[1,1,1]","[-0.16495321967033266,-0.0823052485165707]","[-1,-1,-1]","[-0.06740262468094836,0.06228045700503147]","[1,1,1]","[-0.08832844568482495,0.16194013150140402]","[-1,-1,-1]","[0.014647659388326994,-0.12448789008816072]","[1,1,1]","[0.012545615187503627,0.09820526896497674]","[1,1,1]","[-0.11227427680480867,-0.08481699010880264]","[1,1,1]","[0.10874699739889233,0.0736698824768765]","[-1,-1,-1]","[0.06581939193571297,0.08516813838410736]","[-1,-1,-1]","[-0.16142280002781814,0.009273329800138088]","[1,1,1]","[0.16530839260857114,-0.03624848176870136]","[1,1,1]","[-0.19196501215690467,-0.036268659490265205]","[-1,-1,-1]","[-0.04174447423689894,0.1912685698044342]","[1,1,1]","[-0.046470932373808914,-0.0726597836013907]","[-1,-1,-1]","[-0.003523229650061739,0.16803982607930415]","[1,1,1]","[0.06324436208614737,-0.1416091933878081]","[-1,-1,-1]","[0.10185253393607893,-0.019539072697905283]","[-1,-1,-1]","[0.02,0.02]",293.8047,0,12,12,116,1,,,,,,,
,,,,,,,675b473fc50c2d9d8f0afbff,682f0fd8a2d1caaba58ae65b,2025-05-22_12h57.05.203,cuing_paradigm_dot,2024.1.5,Win32,61.34969325,682d573fa47f1360d1451895,,,,,,,,,,,293.8058,294.3051,,,294.5443,294.8058,right,,,,,,,,0.55,0.2487,,,,,,,294.3052,294.5442,294.8059,"[-0.1620770541261253,0.0790615758022802]","[-1,-1,-1]","[0.14930249070439042,0.11827721681727717]","[1,1,1]","[-0.10455660635596092,0.004856147995392278]","[-1,-1,-1]","[-0.1236285768202722,0.12841060885233765]","[-1,-1,-1]","[-0.032453725989044856,-0.16905178384282407]","[-1,-1,-1]","[0.17153676760887185,0.036500504641024556]","[-1,-1,-1]","[-0.06829111655379835,0.059461113511137205]","[1,1,1]","[0.04650466373092843,-0.14920183076137086]","[1,1,1]","[0.04001725963692493,0.16735026208172513]","[1,1,1]","[-0.01606513347746337,0.047635759904612135]","[-1,-1,-1]","[-0.16802664307656157,-0.03170156835458234]","[-1,-1,-1]","[0.0210063214776736,-0.07490466629747099]","[1,1,1]","[0.050691069073318155,-0.016325911396352803]","[1,1,1]","[-0.09799013598636507,-0.06305136164220002]","[-1,-1,-1]","[0.15263813797237183,-0.005179221992737926]","[-1,-1,-1]","[0.0004373313760620873,0.09558642260702548]","[-1,-1,-1]","[-0.05796099162409854,-0.11088854057894587]","[-1,-1,-1]","[-0.04054044299142178,-0.0365074411739316]","[1,1,1]","[0.11408354213260538,-0.09855203682288768]","[1,1,1]","[0.01457425408043443,-0.12188795670632896]","[1,1,1]","[0.09195208577525658,-0.03036815425653012]","[1,1,1]","[-0.08385337244508344,-0.16891335722700418]","[-1,-1,-1]","[-0.16296282022135294,-0.10277975434455602]","[1,1,1]","[-0.1511098311340748,0.03207339273390045]","[1,1,1]","[0.11100124456051899,0.08320001344311559]","[1,1,1]","[0.16073181887171692,-0.05290090877210841]","[1,1,1]","[-0.025707254068420615,0.1653536732168936]","[1,1,1]","[-0.0641714306132519,0.1246652528046573]","[-1,-1,-1]","[-0.1976937639129994,-0.0013888459309140423]","[-1,-1,-1]","[0.0009375849252675748,-0.03056250924640992]","[1,1,1]","[0.030134622018576897,-0.19564797140567905]","[1,1,1]","[-0.06628052867291886,0.01664495593642918]","[1,1,1]","[0.02,0.02]",295.9052,0,13,13,147,1,,,,,,,
,,,,,,,675b473fc50c2d9d8f0afbff,682f0fd8a2d1caaba58ae65b,2025-05-22_12h57.05.203,cuing_paradigm_dot,2024.1.5,Win32,61.34969325,682d573fa47f1360d1451895,,,,,,,,,,,295.9064,296.4047,,,296.6564,296.9883,left,,,,,,,,0.1,0.3085,,,,,,,296.4048,296.6561,296.9884,"[0.12876432003082763,0.05424280501660642]","[-1,-1,-1]","[-0.16803011213955626,-0.10471960140694823]","[-1,-1,-1]","[0.07485871339186319,-0.05164564666067441]","[-1,-1,-1]","[-0.03459835246924918,0.15192143589112853]","[-1,-1,-1]","[0.1480260617250172,0.01756831297942965]","[-1,-1,-1]","[0.1125565505873493,-0.0888158488059777]","[1,1,1]","[-0.020301138484152437,-0.05794589215982329]","[-1,-1,-1]","[-0.003894510592174166,0.08787054387382541]","[-1,-1,-1]","[0.004901141116069502,-0.009229154632504788]","[-1,-1,-1]","[0.023576719457242525,0.12844052603590614]","[-1,-1,-1]","[0.10687845240375204,0.02034752240650014]","[-1,-1,-1]","[-0.0664072560325976,-0.04636096178221979]","[-1,-1,-1]","[-0.09311028393058152,0.10869415051990945]","[-1,-1,-1]","[0.002676287653445894,0.19529410467452205]","[-1,-1,-1]","[0.06383164411941032,0.013265745099838456]","[-1,-1,-1]","[-0.08673952263205977,0.1756568257852988]","[-1,-1,-1]","[0.15425770528818986,-0.11297082764292495]","[-1,-1,-1]","[-0.1094513443559723,0.013658390455265979]","[-1,-1,-1]","[0.08208699227253662,0.13315685067054564]","[-1,-1,-1]","[-0.11005901214660813,-0.02831834156813729]","[-1,-1,-1]","[-0.14798544348007675,0.10552704280334044]","[1,1,1]","[0.1602266639897141,0.11750690888590429]","[-1,-1,-1]","[-0.0758214418572795,-0.11413373309302323]","[-1,-1,-1]","[0.1191435756718858,-0.16037960031834145]","[-1,-1,-1]","[0.03721203207408599,-0.15940234211045803]","[-1,-1,-1]","[-0.17869135313303064,0.038035002223543904]","[-1,-1,-1]","[0.07030497547131401,-0.09380691323295864]","[-1,-1,-1]","[0.08099091902937507,0.05841447900190408]","[-1,-1,-1]","[0.02571011051387671,-0.04458392453594519]","[-1,-1,-1]","[-0.056675611468009084,-0.17714296294492418]","[1,1,1]","[0.07518838326940294,-0.1815801520883097]","[-1,-1,-1]","[-0.05526588695835584,0.000075767717553235]","[-1,-1,-1]","[0.02,0.02]",298.0879,0,14,14,15,1,,,,,,,
,,,,,,,675b473fc50c2d9d8f0afbff,682f0fd8a2d1caaba58ae65b,2025-05-22_12h57.05.203,cuing_paradigm_dot,2024.1.5,Win32,61.34969325,682d573fa47f1360d1451895,,,,,,,,,,,298.0889,298.5882,,,298.8383,299.3212,right,,,,,,,,0.6,0.4565,,,,,,,298.5883,298.8381,299.3213,"[-0.1662084307870002,0.04957623558873754]","[1,1,1]","[0.14911750647571043,0.04561339090300371]","[1,1,1]","[0.026306071443325845,-0.18677253938935032]","[-1,-1,-1]","[-0.06704824719232186,0.08494212171024283]","[1,1,1]","[-0.05567716353436693,0.1825238007265635]","[1,1,1]","[-0.03292667623668279,-0.07703235084388399]","[1,1,1]","[0.05290551300635498,-0.12427452373158836]","[1,1,1]","[0.11744204393010316,-0.12385741050304638]","[1,1,1]","[-0.18898519959923024,-0.029841704407219203]","[-1,-1,-1]","[-0.08054826542699785,-0.13401077485982452]","[1,1,1]","[-0.01051492949478457,0.13983917033297452]","[-1,-1,-1]","[-0.18128417568459065,-0.07232088387692782]","[1,1,1]","[-0.02888131872019855,0.027794954843933108]","[1,1,1]","[-0.12625336497452358,-0.06287039115193516]","[-1,-1,-1]","[0.030080327182807783,-0.016127795131687928]","[1,1,1]","[0.09402564642770353,-0.06420770272454428]","[1,1,1]","[-0.10329240447912959,0.03287559932082079]","[1,1,1]","[0.022938263147000176,0.0805121583999781]","[-1,-1,-1]","[-0.011865032829050154,0.1891601750734183]","[-1,-1,-1]","[-0.04870963869869579,-0.16819681049716487]","[1,1,1]","[0.10735565960840066,-0.01803982329829226]","[1,1,1]","[0.10459478954152603,-0.1693256501001202]","[-1,-1,-1]","[-0.018106057799881732,-0.1205205159797228]","[-1,-1,-1]","[-0.17057622003113018,0.008674144357273393]","[-1,-1,-1]","[0.12358312597903752,0.08510198241001346]","[1,1,1]","[-0.014320855154679115,0.06540021557087794]","[-1,-1,-1]","[0.062438358511736326,0.10591555323271347]","[1,1,1]","[-0.0957130407848984,-0.022627177762505703]","[-1,-1,-1]","[-0.14703024092609215,0.11234159838992482]","[1,1,1]","[0.08488842439508625,0.025972276566250323]","[1,1,1]","[0.15570738725567917,-0.06447812484251542]","[-1,-1,-1]","[0.040175093592583366,0.0397847571320383]","[-1,-1,-1]","[0.02,0.02]",300.4208,0,15,15,150,1,,,,,,,
,,,,,,,675b473fc50c2d9d8f0afbff,682f0fd8a2d1caaba58ae65b,2025-05-22_12h57.05.203,cuing_paradigm_dot,2024.1.5,Win32,61.34969325,682d573fa47f1360d1451895,,,,,,,,,,,300.4224,300.921,,,301.1622,301.3549,right,,,,,,,,0.1,0.1691,,,,,,,300.9211,301.162,301.355,"[-0.19323427400187232,0.050008752452769575]","[-1,-1,-1]","[0.09884261569479255,-0.16005331619600582]","[-1,-1,-1]","[0.11920095838464839,-0.07478016089769907]","[-1,-1,-1]","[0.09363946346187485,0.14816587367964468]","[-1,-1,-1]","[0.10789569533658264,0.10394350349952305]","[-1,-1,-1]","[-0.07764217163759726,0.057038987651203056]","[-1,-1,-1]","[-0.043814857138376885,-0.09151422617620579]","[-1,-1,-1]","[0.1762079427157864,0.04178397341409385]","[-1,-1,-1]","[-0.11658671352038769,-0.09095384817748825]","[-1,-1,-1]","[-0.09069945600357333,-0.12427392320715278]","[-1,-1,-1]","[-0.036426753074004614,0.09066125440980449]","[-1,-1,-1]","[0.07981294773917277,-0.10279910143630941]","[-1,-1,-1]","[0.11485644758023095,0.0371973560033548]","[-1,-1,-1]","[-0.058849858631665294,-0.1524214342135431]","[-1,-1,-1]","[-0.13516388611557525,0.07618829348932929]","[-1,-1,-1]","[0.055371715032326706,0.07780361034057794]","[-1,-1,-1]","[-0.1753032882399193,-0.06231505725815659]","[1,1,1]","[0.005701254639854965,-0.19857767843155422]","[-1,-1,-1]","[-0.0205395176147952,0.025272859920369296]","[1,1,1]","[0.011840561742194841,-0.03525102377678438]","[-1,-1,-1]","[-0.03331118251234432,0.14731596679843134]","[1,1,1]","[-0.07666390077766373,-0.0376552095239772]","[-1,-1,-1]","[0.13502630254671275,-0.02603934956034416]","[-1,-1,-1]","[0.008876593763471937,0.08287137179185121]","[-1,-1,-1]","[0.16742846031303957,-0.07793602686571159]","[-1,-1,-1]","[0.041346566061387036,-0.13914611511948824]","[-1,-1,-1]","[-0.11707044897786242,0.13442115776997132]","[-1,-1,-1]","[0.025211373413765458,0.013482317631052097]","[-1,-1,-1]","[-0.10486204472056021,0.013572524597870648]","[-1,-1,-1]","[0.18170469411334003,0.001988839174317626]","[-1,-1,-1]","[-0.17691725258843427,0.08915499122345955]","[-1,-1,-1]","[-0.14455511503249177,-0.007531010670926549]","[-1,-1,-1]","[0.02,0.02]",302.454,0,16,16,21,1,,,,,,,
,,,,,,,675b473fc50c2d9d8f0afbff,682f0fd8a2d1caaba58ae65b,2025-05-22_12h57.05.203,cuing_paradigm_dot,2024.1.5,Win32,61.34969325,682d573fa47f1360d1451895,,,,,,,,,,,302.4552,302.9539,,,303.2114,303.4378,right,,,,,,,,0.5,0.2111,,,,,,,302.954,303.2114,303.438,"[-0.02786395098021049,-0.16565115194004082]","[-1,-1,-1]","[-0.005482191247463693,0.02914529164044404]","[-1,-1,-1]","[-0.08829813401435227,-0.12920609493612248]","[-1,-1,-1]","[0.13296859624738822,0.039865746914377644]","[1,1,1]","[-0.13826024561802436,-0.12447961617500689]","[-1,-1,-1]","[0.08597017956010165,-0.051567394048931646]","[-1,-1,-1]","[-0.01631442759307764,-0.08106450336448977]","[1,1,1]","[0.015084841315897697,-0.03512106114162725]","[-1,-1,-1]","[0.044047626128646766,-0.11000661981709416]","[-1,-1,-1]","[0.17450877193565675,0.04088186911944203]","[1,1,1]","[-0.0493018124664935,0.004874318274465701]","[1,1,1]","[-0.15094243069413013,0.0997775097536332]","[1,1,1]","[-0.1840548520185114,0.061274933405893815]","[-1,-1,-1]","[0.0695550653786749,0.07765342664457738]","[-1,-1,-1]","[-0.06547762758549162,-0.032223393009681675]","[1,1,1]","[0.16454496529860413,-0.08272711641318888]","[1,1,1]","[-0.12630618186430964,-0.027788671747745384]","[-1,-1,-1]","[0.046309311644930386,0.011949171765942195]","[-1,-1,-1]","[0.08669464296118672,0.15770496453613878]","[1,1,1]","[0.10533181803955473,-0.005882938442999939]","[-1,-1,-1]","[0.04540029583537845,-0.06693149975836372]","[-1,-1,-1]","[-0.03621313507904893,0.17057210902912534]","[1,1,1]","[-0.16868519014469396,-0.0365455172805621]","[1,1,1]","[0.0363819536542153,-0.16906734911675952]","[1,1,1]","[0.001111001568679379,0.0704955553741728]","[1,1,1]","[-0.12682451207099138,0.06759116182012212]","[-1,-1,-1]","[-0.19659756666333286,-0.005318519198365315]","[1,1,1]","[0.19294347478331472,-0.0008102194866592133]","[-1,-1,-1]","[0.09158647321635055,-0.10264795383043812]","[1,1,1]","[-0.07299309556597783,-0.07368585932248198]","[1,1,1]","[0.004940399784644987,-0.14179861148470327]","[1,1,1]","[-0.044717121111834915,0.1130266013744017]","[-1,-1,-1]","[0.02,0.02]",304.5367,0,17,17,104,1,,,,,,,
,,,,,,,675b473fc50c2d9d8f0afbff,682f0fd8a2d1caaba58ae65b,2025-05-22_12h57.05.203,cuing_paradigm_dot,2024.1.5,Win32,61.34969325,682d573fa47f1360d1451895,,,,,,,,,,,304.5382,305.0373,,,305.2898,305.7043,right,,,,,,,,0.6,0.3859,,,,,,,305.0374,305.2897,305.7043,"[-0.044371843105624156,-0.07471767023182135]","[1,1,1]","[-0.1636157560247924,-0.05209153176146149]","[1,1,1]","[0.07760232342531548,0.14153017734680304]","[1,1,1]","[-0.03789395290898881,0.02280829088449462]","[-1,-1,-1]","[0.0456420471732695,0.05055060052679029]","[-1,-1,-1]","[-0.13331353468529228,0.08308628959974124]","[-1,-1,-1]","[0.04539221567612951,0.18200967318852387]","[-1,-1,-1]","[-0.08076031145949616,0.1543658641035207]","[1,1,1]","[0.0873470892205828,-0.05416123242075856]","[-1,-1,-1]","[0.10636596785045373,-0.13154130986790347]","[-1,-1,-1]","[0.14603220859616273,0.08679808842366116]","[1,1,1]","[0.04792783743260052,-0.14011094195754492]","[-1,-1,-1]","[0.1937802126211107,-0.007178659260013541]","[1,1,1]","[0.035969566084114966,-0.01095618927981712]","[1,1,1]","[-0.008179376403863224,0.10083695460265059]","[1,1,1]","[-0.07176369378355392,-0.11017733595017484]","[-1,-1,-1]","[-0.0033912756208490076,-0.19624038774866534]","[-1,-1,-1]","[0.08921967095894445,0.024811714025430937]","[1,1,1]","[-0.09117083898956863,-0.042527597443369494]","[-1,-1,-1]","[-0.0459305013537046,0.08399055378793628]","[1,1,1]","[-0.025259448688736003,0.18172465152468004]","[-1,-1,-1]","[0.049571567055420616,0.09350806317616134]","[1,1,1]","[0.027259224011660733,-0.0719434152584987]","[1,1,1]","[-0.09937497907213597,-0.16446056579669693]","[1,1,1]","[-0.030311654564968576,-0.021448826400173582]","[1,1,1]","[-0.16089992925109722,0.018096867637551046]","[1,1,1]","[-0.11590684042804496,-0.11274735515419411]","[1,1,1]","[-0.0775404192217673,0.04328435871745789]","[-1,-1,-1]","[0.005843988701764617,-0.13040519842091106]","[1,1,1]","[0.1342095370035058,-0.07424178770642374]","[1,1,1]","[0.1386326524840924,-0.008105753639920311]","[1,1,1]","[-0.10131105330208846,-0.0023915088826392352]","[-1,-1,-1]","[0.02,0.02]",306.8035,0,18,18,153,1,,,,,,,
,,,,,,,675b473fc50c2d9d8f0afbff,682f0fd8a2d1caaba58ae65b,2025-05-22_12h57.05.203,cuing_paradigm_dot,2024.1.5,Win32,61.34969325,682d573fa47f1360d1451895,,,,,,,,,,,306.8045,307.3035,,,307.5429,307.7938,right,,,,,,,,0.5,0.2347,,,,,,,307.3036,307.5429,307.7939,"[0.0989279862518081,0.12050590091272574]","[-1,-1,-1]","[0.01895117609330085,0.06205860810698484]","[1,1,1]","[0.012301872929529584,-0.026087994635265975]","[-1,-1,-1]","[-0.0030387329644757455,0.1562399410220256]","[-1,-1,-1]","[0.0630565894125057,-0.18063767475671413]","[1,1,1]","[-0.04765543381680328,0.1841844988810784]","[1,1,1]","[-0.09133663016997864,0.04320977499758581]","[1,1,1]","[0.05119716417359827,0.1392849924819317]","[1,1,1]","[-0.0876894645839592,-0.10633162247385528]","[1,1,1]","[0.09503789306084866,0.008194113685960125]","[-1,-1,-1]","[-0.06090274752951297,-0.022581799970794056]","[-1,-1,-1]","[-0.08903018336162533,-0.05659994255132701]","[1,1,1]","[0.08810618306723793,-0.08622294633399541]","[1,1,1]","[0.07050832473853234,0.1864390729394113]","[-1,-1,-1]","[0.04584488825394041,-0.13171558126573926]","[-1,-1,-1]","[0.16571933458823596,0.006533460441905497]","[-1,-1,-1]","[-0.08005205724169767,0.15835755012199207]","[-1,-1,-1]","[-0.05328632576907735,-0.14380523432617]","[-1,-1,-1]","[0.05232841773324957,0.0260741046744304]","[-1,-1,-1]","[0.13762818709303662,-0.06584209197510509]","[1,1,1]","[-0.17500826859283203,-0.028837855870394818]","[-1,-1,-1]","[0.10166201223291116,-0.0444387474078557]","[-1,-1,-1]","[0.16500255860911775,0.07106197479783631]","[1,1,1]","[-0.05774785192546504,0.06789164629927005]","[1,1,1]","[-0.1395960747328961,0.07403021256209093]","[1,1,1]","[-0.18243314116972928,0.033818836529559686]","[1,1,1]","[-0.12212605110763408,-0.025072499204146316]","[1,1,1]","[-0.10432307209754327,0.12518485365726464]","[1,1,1]","[0.08948139362421642,-0.1466650890750708]","[-1,-1,-1]","[0.19276922183203732,-0.02867017316504502]","[1,1,1]","[-0.020170685920521448,0.05237080731947656]","[-1,-1,-1]","[-0.12140981362688257,-0.13508334182378254]","[-1,-1,-1]","[0.02,0.02]",308.8867,0,19,19,118,1,,,,,,,
,,,,,,,675b473fc50c2d9d8f0afbff,682f0fd8a2d1caaba58ae65b,2025-05-22_12h57.05.203,cuing_paradigm_dot,2024.1.5,Win32,61.34969325,682d573fa47f1360d1451895,,,,,,,,,,,308.8879,309.3866,,,309.6371,309.9036,right,,,,,,,,0.1,0.2517,,,,,,,309.3868,309.6369,309.9037,"[0.15557307918871466,-0.12379826744610012]","[-1,-1,-1]","[-0.14629196809541994,0.01788900072965873]","[-1,-1,-1]","[0.006177214456695865,0.09002636358696299]","[1,1,1]","[-0.15089295713515252,0.10180078898440528]","[-1,-1,-1]","[-0.041457846211039255,-0.184390952270435]","[-1,-1,-1]","[-0.08085003546176517,-0.03949432413800315]","[-1,-1,-1]","[0.04877249043953685,-0.09783600821701276]","[-1,-1,-1]","[0.18557265749900556,-0.040862334390738456]","[-1,-1,-1]","[-0.0549149317867398,0.17116536893483125]","[-1,-1,-1]","[0.1379953938930731,-0.042894600336583766]","[-1,-1,-1]","[0.05080961727025737,0.13086519895961582]","[-1,-1,-1]","[0.11046829048893814,-0.013099122465838582]","[-1,-1,-1]","[-0.14664579481583984,-0.04870326208828296]","[-1,-1,-1]","[0.057072623289197585,-0.05285351516169578]","[-1,-1,-1]","[0.14874666044789694,0.03978838659398966]","[-1,-1,-1]","[0.08573157968524618,0.17535348201474946]","[-1,-1,-1]","[0.07665596848286912,0.034518294970914354]","[-1,-1,-1]","[0.020634949302345183,0.04911953963277369]","[-1,-1,-1]","[-0.13235172064806497,-0.1094982426997291]","[-1,-1,-1]","[-0.02100278093778512,0.05306024709484625]","[-1,-1,-1]","[-0.003385886524607905,0.17082973667655546]","[-1,-1,-1]","[-0.18603294178320612,-0.05680811138150556]","[-1,-1,-1]","[-0.09540943482090904,0.12921011929162876]","[-1,-1,-1]","[0.1077257968324144,-0.1656981561654757]","[-1,-1,-1]","[-0.00040056761116119636,-0.18338349108785745]","[-1,-1,-1]","[-0.0934400760303348,0.05280337006894988]","[-1,-1,-1]","[0.03390318087182959,-0.009259467717661576]","[-1,-1,-1]","[0.09156671259538585,0.12505764801883912]","[-1,-1,-1]","[0.11514077919110711,-0.09061578369382954]","[-1,-1,-1]","[-0.033540098732031884,-0.011859334737873657]","[-1,-1,-1]","[0.01409981708177351,-0.07034395847166702]","[1,1,1]","[0.013517927624348653,-0.13643330084177288]","[1,1,1]","[0.02,0.02]",311.0032,0,20,20,29,1,,,,,,,
,,,,,,,675b473fc50c2d9d8f0afbff,682f0fd8a2d1caaba58ae65b,2025-05-22_12h57.05.203,cuing_paradigm_dot,2024.1.5,Win32,61.34969325,682d573fa47f1360d1451895,,,,,,,,,,,311.0043,311.5029,,,311.7541,312.0532,right,,,,,,,,0.6,0.288,,,,,,,311.503,311.7539,312.0533,"[-0.18432725052766893,-0.05345239957827821]","[1,1,1]","[0.03049219445171707,-0.09703610252848864]","[1,1,1]","[-0.032461616123145756,0.10181285855676667]","[1,1,1]","[0.06755115166404366,0.05123573841319267]","[-1,-1,-1]","[0.033632858852917655,-0.16892678451191875]","[1,1,1]","[-0.12173689728369708,0.13767202584407862]","[1,1,1]","[-0.11380585246951727,0.06560790262847073]","[1,1,1]","[-0.02691375224803162,0.18287170193212213]","[1,1,1]","[-0.03711947906257572,-0.17030409347749068]","[-1,-1,-1]","[0.12490210954088068,-0.05363210137375121]","[-1,-1,-1]","[0.1127775313923699,0.12266749076653784]","[-1,-1,-1]","[-0.043123114086701476,-0.10771545832049959]","[1,1,1]","[0.14392062100510433,0.018705952018728034]","[-1,-1,-1]","[-0.067570599163478,0.04721866548127813]","[-1,-1,-1]","[-0.15463461059156802,0.08378496236114691]","[-1,-1,-1]","[0.10405544282742486,-0.13184892872606785]","[1,1,1]","[0.04198319709713226,0.15629572351066234]","[-1,-1,-1]","[-0.009822673073880404,-0.14063231687011182]","[1,1,1]","[0.15319971823352063,-0.020313601446312037]","[1,1,1]","[-0.14671017016629648,0.03588904725039085]","[-1,-1,-1]","[0.1882429463095675,-0.054805756700148464]","[1,1,1]","[-0.08922774728246397,-0.07481694720294678]","[1,1,1]","[0.03726666983816953,-0.041877820421702884]","[1,1,1]","[-0.19911222914952853,-0.00753013930057001]","[1,1,1]","[-0.0637580470397082,-0.024982120560766746]","[1,1,1]","[-0.13654553679581227,-0.07565695739913877]","[1,1,1]","[0.13707895743027493,-0.10653531390599899]","[-1,-1,-1]","[0.16785503974320656,0.10280819166984485]","[1,1,1]","[-0.010655423525627183,0.06286203827024382]","[-1,-1,-1]","[0.11004053749713263,0.08084212070061049]","[-1,-1,-1]","[0.11189740148309195,0.1652342394297372]","[1,1,1]","[-0.07110594982268614,0.15941243801007285]","[-1,-1,-1]","[0.02,0.02]",313.1524,0,21,21,177,1,,,,,,,
,,,,,,,675b473fc50c2d9d8f0afbff,682f0fd8a2d1caaba58ae65b,2025-05-22_12h57.05.203,cuing_paradigm_dot,2024.1.5,Win32,61.34969325,682d573fa47f1360d1451895,,,,,,,,,,,313.1535,313.6523,,,313.8929,314.1768,left,,,,,,,,0.9,0.267,,,,,,,313.6524,313.8929,314.1768,"[-0.13843667569558232,0.11913875229243161]","[1,1,1]","[0.17021766000367536,-0.009341880149471574]","[1,1,1]","[0.0929092763946921,-0.0005516347500348538]","[1,1,1]","[-0.14597193928606253,-0.08911362725567495]","[1,1,1]","[-0.1671398091740741,0.05933963979875968]","[1,1,1]","[-0.011014090814489943,-0.04420464490210514]","[-1,-1,-1]","[-0.09942234615423867,-0.12218273832993286]","[1,1,1]","[0.012437575963697564,0.01714877326884645]","[1,1,1]","[0.08572715383245338,-0.12433332645487256]","[1,1,1]","[0.11279240387435557,0.1252711542420637]","[1,1,1]","[0.14512902119890658,-0.05423588243575282]","[1,1,1]","[-0.1461443109209347,-0.0032153682104720154]","[1,1,1]","[0.07861933745194688,0.18366137975371397]","[1,1,1]","[0.05400907993222285,0.039133633131601474]","[1,1,1]","[-0.08448146654671718,0.1059456506002273]","[1,1,1]","[-0.0020411391937290454,-0.17332401455033355]","[1,1,1]","[-0.08303497362273918,-0.03043833519311678]","[1,1,1]","[0.06396757937504911,-0.1773615216243636]","[-1,-1,-1]","[-0.07141614990332774,0.1803553165064555]","[1,1,1]","[-0.10759739584509444,0.06208507658320592]","[1,1,1]","[0.11316368181999438,0.03452852878366497]","[1,1,1]","[0.015916350378357664,-0.09762942070000281]","[1,1,1]","[-0.059588965012273364,-0.14633948381342937]","[-1,-1,-1]","[0.07558936018585295,-0.036969469151946016]","[1,1,1]","[-0.03307906769356788,0.14566704450082507]","[1,1,1]","[-0.012568091285861093,0.08716554697608034]","[1,1,1]","[-0.0305484340225519,0.0022883544962126524]","[1,1,1]","[-0.19028090110218163,0.0011919273397040643]","[1,1,1]","[-0.05742113410864217,-0.08970691799813119]","[1,1,1]","[0.13169088749132088,0.0759443778335679]","[1,1,1]","[-0.048332868268111326,0.05484911844589006]","[1,1,1]","[-0.0975910176510272,-0.17234298168526901]","[1,1,1]","[0.02,0.02]",315.2752,0,22,22,190,1,,,,,,,
,,,,,,,675b473fc50c2d9d8f0afbff,682f0fd8a2d1caaba58ae65b,2025-05-22_12h57.05.203,cuing_paradigm_dot,2024.1.5,Win32,61.34969325,682d573fa47f1360d1451895,,,,,,,,,,,315.276,315.7752,,,316.02,316.3527,right,,,,,,,,0.5,0.3019,,,,,,,315.7752,316.0199,316.3528,"[-0.09872412480515697,-0.07355200615658941]","[1,1,1]","[-0.10804106904576773,-0.12520006597994077]","[1,1,1]","[0.052541841368060054,0.03934552312096943]","[-1,-1,-1]","[-0.022166718145796422,0.06637636292536715]","[1,1,1]","[-0.015108594619550336,0.11973451970995083]","[1,1,1]","[-0.11792661267592067,0.1554662578026245]","[-1,-1,-1]","[0.14527390579639485,0.03419322410528387]","[-1,-1,-1]","[0.16168184447858383,0.09591015831504376]","[-1,-1,-1]","[0.08742767245759504,-0.014380543146289101]","[-1,-1,-1]","[0.1642667143052231,-0.007942670548449104]","[-1,-1,-1]","[0.05844551832994029,-0.1854230282880786]","[1,1,1]","[-0.052981995343975734,-0.12008076934012107]","[1,1,1]","[0.1356919142610388,-0.06035654164443398]","[1,1,1]","[0.013337305342246605,0.1657179819638111]","[1,1,1]","[0.056554053380072855,-0.13864500154223225]","[1,1,1]","[-0.1501191337111765,0.08951420037192022]","[1,1,1]","[-0.1554089293912762,-0.08504216553109752]","[-1,-1,-1]","[0.05640225157171255,0.16532047560238355]","[-1,-1,-1]","[0.0030571171012648466,-0.021415994330095035]","[-1,-1,-1]","[0.052531753988518046,-0.09511790418079813]","[1,1,1]","[0.10298490011820599,0.16239510866404955]","[-1,-1,-1]","[0.169667850681728,-0.09697696053554049]","[-1,-1,-1]","[-0.13437450946520274,0.005636055337994357]","[1,1,1]","[-0.07266563329847009,0.16343167312719245]","[-1,-1,-1]","[-0.00096990695475924,-0.11976134652336909]","[1,1,1]","[0.12399595248406978,-0.12579555043762874]","[-1,-1,-1]","[-0.0913250914590121,0.08730426730399532]","[-1,-1,-1]","[-0.09139582040655068,0.027897982369998065]","[1,1,1]","[0.05340984804674688,0.07997796515187301]","[-1,-1,-1]","[-0.027528233454156444,0.022468048748459264]","[1,1,1]","[-0.17398093406092666,0.045923573998952166]","[1,1,1]","[0.043558172324821086,-0.04749018123273423]","[-1,-1,-1]","[0.02,0.02]",317.4523,0,23,23,94,1,,,,,,,
,,,,,,,675b473fc50c2d9d8f0afbff,682f0fd8a2d1caaba58ae65b,2025-05-22_12h57.05.203,cuing_paradigm_dot,2024.1.5,Win32,61.34969325,682d573fa47f1360d1451895,,,,,,,,,,,317.4539,317.9521,,,318.192,318.4593,right,,,,,,,,0.55,0.2514,,,,,,,317.9522,318.1919,318.4593,"[0.10012023246466607,-0.047819690379834676]","[1,1,1]","[-0.07822546899256731,0.17111421884561437]","[1,1,1]","[-0.18031955542725392,0.0513530199281411]","[1,1,1]","[0.009603578682709625,0.19433214203652716]","[1,1,1]","[-0.07906299706121939,-0.0061898591462634855]","[-1,-1,-1]","[-0.021246263877263746,-0.09543042910545668]","[-1,-1,-1]","[-0.028323305749778503,0.09162358677368891]","[1,1,1]","[-0.15487543074980922,-0.07827571028961071]","[1,1,1]","[0.031014442629338813,0.013395147366119364]","[-1,-1,-1]","[-0.12301072215089312,0.14613236600824644]","[1,1,1]","[-0.1261926053366059,0.08329348310107895]","[-1,-1,-1]","[0.04080197669301186,0.10687213727519146]","[1,1,1]","[-0.10350391697817612,0.04646228912878036]","[1,1,1]","[0.006750576636765842,-0.1645855433752966]","[-1,-1,-1]","[-0.03025695100314147,0.029830574671421483]","[-1,-1,-1]","[0.09302042119474818,-0.1270767755716774]","[1,1,1]","[0.045340336238966585,-0.04422588137309641]","[-1,-1,-1]","[0.13281420384909987,0.10279129810409525]","[1,1,1]","[0.05776453680742324,-0.10180810505688567]","[-1,-1,-1]","[0.12161974134672549,-0.00136461747943165]","[-1,-1,-1]","[-0.07641667689882892,0.10388857022932176]","[-1,-1,-1]","[0.04156582723097513,-0.13846406141245063]","[1,1,1]","[-0.05883731554405022,-0.10994402625652196]","[-1,-1,-1]","[0.15169360053166767,0.06399009723432993]","[1,1,1]","[-0.04074921197864627,-0.0184725871555752]","[1,1,1]","[-0.11741884323532575,-0.05057869381646956]","[1,1,1]","[-0.09029810797998117,-0.14993854191580794]","[1,1,1]","[0.17748576983934933,0.030747932122556918]","[1,1,1]","[-0.022160489723473554,0.15022249503284982]","[1,1,1]","[0.06950125710758386,0.07400160939080767]","[-1,-1,-1]","[0.1138203717199757,0.05038359452133408]","[-1,-1,-1]","[0.004615868567444727,-0.05317968536632756]","[-1,-1,-1]","[0.02,0.02]",319.5593,0,24,24,127,1,,,,,,,
,,,,,,,675b473fc50c2d9d8f0afbff,682f0fd8a2d1caaba58ae65b,2025-05-22_12h57.05.203,cuing_paradigm_dot,2024.1.5,Win32,61.34969325,682d573fa47f1360d1451895,,,,,,,,,,,319.56,320.0591,,,320.3025,320.5685,right,,,,,,,,0.5,0.2357,,,,,,,320.0591,320.3024,320.5687,"[0.18436727123947874,-0.03072921436371547]","[-1,-1,-1]","[-0.07512421696244152,-0.07343151354144922]","[1,1,1]","[-0.014713282737793178,-0.12837359640586882]","[1,1,1]","[0.08735263783193549,-0.0332140062215017]","[-1,-1,-1]","[-0.006510527375816307,0.04618343628980168]","[1,1,1]","[-0.09268332572212028,0.14996072388749537]","[-1,-1,-1]","[-0.060980705850460344,0.05445144005710275]","[-1,-1,-1]","[0.1375165631334196,0.03219280414805457]","[1,1,1]","[-0.19401316426361487,-0.026182518803371805]","[1,1,1]","[-0.00917399138688554,-0.17379900312609584]","[1,1,1]","[-0.1494678399147262,0.11710403179566181]","[1,1,1]","[0.0628473409735336,-0.14047795467773067]","[1,1,1]","[0.13735632302969647,-0.04868947690272438]","[-1,-1,-1]","[0.1091756119288646,0.11641291215111804]","[-1,-1,-1]","[-0.005578633024589068,-0.07575352973250793]","[-1,-1,-1]","[0.18521058370722587,0.05799910772433233]","[1,1,1]","[-0.045955123965144784,0.13450843718995065]","[-1,-1,-1]","[0.07298315465322595,0.09626040972166931]","[-1,-1,-1]","[-0.122666851451978,0.047109029187578345]","[1,1,1]","[-0.05887711619602869,0.09656523022173649]","[-1,-1,-1]","[-0.11629415566886828,-0.10514333522289027]","[1,1,1]","[0.03773090722203538,0.026404250356877622]","[1,1,1]","[0.06257294572924844,-0.08066834810160636]","[-1,-1,-1]","[-0.1773158642428736,0.04204361707330228]","[1,1,1]","[-0.11784222760429301,-0.028111851492530787]","[1,1,1]","[-0.005100170749137631,0.12910587805573653]","[-1,-1,-1]","[-0.006880386057945982,0.005939458061887378]","[-1,-1,-1]","[-0.16114719562684274,-0.1119417425350639]","[1,1,1]","[-0.04723437224361721,-0.0429094327864031]","[-1,-1,-1]","[-0.07589024334075258,-0.1779730810500665]","[-1,-1,-1]","[-0.1472512331212648,-0.07199643563827467]","[-1,-1,-1]","[0.05514917187253082,-0.18455139444193389]","[1,1,1]","[0.02,0.02]",321.6684,0,25,25,100,1,,,,,,,
,,,,,,,675b473fc50c2d9d8f0afbff,682f0fd8a2d1caaba58ae65b,2025-05-22_12h57.05.203,cuing_paradigm_dot,2024.1.5,Win32,61.34969325,682d573fa47f1360d1451895,,,,,,,,,,,321.6697,322.1678,,,322.4185,322.7013,left,,,,,,,,0.45,0.2743,,,,,,,322.1679,322.4184,322.7015,"[0.0777332462270483,0.04114936932175811]","[-1,-1,-1]","[-0.1286405854029346,0.12738552959706884]","[-1,-1,-1]","[0.08960543599694949,-0.1138410480756313]","[-1,-1,-1]","[-0.035221082576922434,0.11040709930283507]","[1,1,1]","[-0.04672293686906533,-0.015303846729828978]","[-1,-1,-1]","[0.14131128039597232,0.006743154222661164]","[-1,-1,-1]","[-0.03791179717566925,-0.1296159456290628]","[-1,-1,-1]","[-0.070194524747278,-0.06821560947130229]","[1,1,1]","[0.12679340241610185,-0.057077309926264495]","[-1,-1,-1]","[0.0390737936456414,-0.10732843307471993]","[1,1,1]","[0.16570871576869786,0.09263708831479188]","[1,1,1]","[-0.07882974725232786,0.09233044306252731]","[-1,-1,-1]","[-0.1546068377990774,-0.09806563208675871]","[-1,-1,-1]","[-0.18796153073125987,-0.03807101271011684]","[-1,-1,-1]","[-0.16648783133529488,0.0120142798510998]","[1,1,1]","[0.029994036457751377,-0.1634640243992061]","[1,1,1]","[0.02082233354225512,0.11886635473477956]","[1,1,1]","[-0.010658636235809829,0.1808701265621947]","[1,1,1]","[0.18026719689488913,-0.08320358152892758]","[-1,-1,-1]","[-0.17650007284056762,0.06058302964659584]","[-1,-1,-1]","[-0.1264063673281862,-0.06892747407193352]","[1,1,1]","[0.07495109177532573,0.08863563084738829]","[-1,-1,-1]","[0.09141928143044847,0.17670340325617334]","[-1,-1,-1]","[0.020489880453142078,-0.029731513363260877]","[1,1,1]","[0.06613728543748604,-0.0042438095710003055]","[-1,-1,-1]","[-0.14542632444054654,-0.033414302150925924]","[1,1,1]","[-0.10625896165026052,-0.16067631319341025]","[-1,-1,-1]","[0.065331475075498,-0.068280394788745]","[1,1,1]","[-0.06538620132072086,0.13844753451780198]","[1,1,1]","[-0.09356237489844797,0.011882049295298102]","[1,1,1]","[0.14906248241906694,-0.11667721246596323]","[-1,-1,-1]","[0.12157262187959092,0.1469840878522254]","[-1,-1,-1]","[0.02,0.02]",323.8086,0,26,26,77,1,,,,,,,
,,,,,,,675b473fc50c2d9d8f0afbff,682f0fd8a2d1caaba58ae65b,2025-05-22_12h57.05.203,cuing_paradigm_dot,2024.1.5,Win32,61.34969325,682d573fa47f1360d1451895,,,,,,,,,,,323.8093,324.3014,,,324.5519,324.8347,left,,,,,,,,0.5,0.2717,,,,,,,324.3014,324.5518,324.8349,"[-0.035000337761834685,0.1616390555787905]","[-1,-1,-1]","[0.18181519217573933,0.05538758720706211]","[-1,-1,-1]","[0.14708994265301947,0.07568949335582618]","[1,1,1]","[0.11249914065371208,-0.14334280905165056]","[1,1,1]","[0.06464187273990936,-0.001471586930796938]","[-1,-1,-1]","[-0.0052837591548071635,0.05017878550401436]","[-1,-1,-1]","[-0.034173669044088494,0.08539529495085424]","[-1,-1,-1]","[-0.13531942541292782,-0.0947268158159485]","[-1,-1,-1]","[0.05003229365087448,-0.048312924809728174]","[-1,-1,-1]","[-0.1090301006104992,-0.13390147382472833]","[1,1,1]","[0.0391304194735727,0.05988607542686211]","[-1,-1,-1]","[-0.06684143630987158,-0.14393154435740244]","[1,1,1]","[-0.16138544299803032,0.103765170595284]","[-1,-1,-1]","[-0.0902127116512615,-0.09026538170171564]","[1,1,1]","[-0.029149730142236763,-0.16694020314622338]","[1,1,1]","[0.051226333512972635,-0.0969795105697685]","[1,1,1]","[0.10214303549051133,0.1298330319046376]","[1,1,1]","[-0.1309279305635571,0.02688476878196435]","[-1,-1,-1]","[-0.10365084124043444,0.10348500528293228]","[-1,-1,-1]","[0.13713448889468927,-0.010112777312267224]","[1,1,1]","[0.061125958722022096,-0.18950464215654278]","[1,1,1]","[0.07233725044896072,0.17823530823006173]","[1,1,1]","[-0.14485292179864392,-0.015743197501493778]","[-1,-1,-1]","[0.10349841750440951,-0.05822151953817034]","[-1,-1,-1]","[-0.05538259135789131,-0.026996295648893522]","[1,1,1]","[0.03468640685068856,0.11985908850605698]","[-1,-1,-1]","[-0.09874827178047592,0.16919698976204495]","[1,1,1]","[-0.10851659419173126,0.06323958440883198]","[1,1,1]","[0.07111965492466904,-0.13753775143681382]","[-1,-1,-1]","[-0.16717586183423275,-0.05655035207508252]","[1,1,1]","[-0.005893772348180156,0.11385237125725561]","[-1,-1,-1]","[-0.0479976835972767,0.0310744216892635]","[1,1,1]","[0.02,0.02]",325.934,0,27,27,114,1,,,,,,,
,,,,,,,675b473fc50c2d9d8f0afbff,682f0fd8a2d1caaba58ae65b,2025-05-22_12h57.05.203,cuing_paradigm_dot,2024.1.5,Win32,61.34969325,682d573fa47f1360d1451895,,,,,,,,,,,325.935,326.4337,,,326.6752,326.9344,right,,,,,,,,0.1,0.2366,,,,,,,326.4338,326.6751,326.9345,"[0.1542815912352779,-0.06085893565874036]","[-1,-1,-1]","[-0.0007805341035635763,0.036818835664508325]","[-1,-1,-1]","[0.0015290916818500317,-0.10593980998256204]","[-1,-1,-1]","[0.033633328493298045,0.11169187454230177]","[-1,-1,-1]","[-0.1420545963309487,0.022935945834677517]","[-1,-1,-1]","[-0.18364331930588018,-0.027443538302329058]","[-1,-1,-1]","[-0.1538808771283053,-0.06936233008153002]","[-1,-1,-1]","[0.09017901530359804,-0.17732889942913044]","[-1,-1,-1]","[0.0777457146952442,0.08441024973849794]","[-1,-1,-1]","[-0.010240417831040774,0.15090418536548192]","[-1,-1,-1]","[-0.18610988481059182,0.05452581047842498]","[-1,-1,-1]","[0.059125754447237104,-0.12242536355513066]","[-1,-1,-1]","[-0.15352013999893765,0.08547750350385316]","[-1,-1,-1]","[0.050018119100717885,0.03223304760751413]","[-1,-1,-1]","[0.15385281346560936,0.03790248522092492]","[-1,-1,-1]","[0.11433562653621662,0.017684356968191775]","[-1,-1,-1]","[0.14172279779313424,0.10521345175804497]","[-1,-1,-1]","[-0.014647520141226798,-0.042855377420461895]","[-1,-1,-1]","[0.012277086014958142,0.19569268169941434]","[-1,-1,-1]","[-0.016176674455784277,0.10444170088734764]","[-1,-1,-1]","[-0.07466964692989407,-0.04551783461183621]","[-1,-1,-1]","[-0.0751697862390979,-0.1591122978112614]","[-1,-1,-1]","[-0.1112766715256415,-0.07609421460433764]","[1,1,1]","[0.021491144602771125,0.07083613175026805]","[-1,-1,-1]","[0.08489240122632659,-0.061618952420127306]","[-1,-1,-1]","[0.012874433077304409,-0.19857140602407578]","[1,1,1]","[0.11113837969861906,0.14251425351836958]","[-1,-1,-1]","[0.07342744051852494,0.1734723570553144]","[1,1,1]","[0.18735247152184567,0.010599128779375817]","[-1,-1,-1]","[-0.08401138736942151,0.15762967803164116]","[-1,-1,-1]","[-0.055317940937247456,-0.0077272948662233274]","[-1,-1,-1]","[-0.04471100115983835,-0.11505379378668179]","[-1,-1,-1]","[0.02,0.02]",328.0342,0,28,28,0,1,,,,,,,
,,,,,,,675b473fc50c2d9d8f0afbff,682f0fd8a2d1caaba58ae65b,2025-05-22_12h57.05.203,cuing_paradigm_dot,2024.1.5,Win32,61.34969325,682d573fa47f1360d1451895,,,,,,,,,,,328.0353,328.534,,,328.7746,328.8751,right,,,,,,,,0.4,0.0848,,,,,,,328.5341,328.7745,328.8752,"[0.05702762592906824,-0.13882053717873974]","[-1,-1,-1]","[-0.17909866391921309,0.08674275870634693]","[-1,-1,-1]","[-0.15905040767151643,-0.07484120948458772]","[1,1,1]","[-0.019498045712583182,0.008874937755196327]","[-1,-1,-1]","[-0.03447556401182547,-0.0770849723013821]","[-1,-1,-1]","[0.01544074053789835,0.1775997510529651]","[1,1,1]","[0.1561869674159885,-0.07125822759549014]","[-1,-1,-1]","[-0.09250298837357399,0.012998882330656313]","[-1,-1,-1]","[-0.018251496226578984,0.12418362493472161]","[1,1,1]","[-0.07718019252732222,-0.17324565809973166]","[-1,-1,-1]","[-0.05062750267662888,0.17451327526959826]","[1,1,1]","[0.19235789742321502,-0.01326054794417203]","[1,1,1]","[-0.04623574684938496,0.05883506633135466]","[-1,-1,-1]","[0.14189227979293423,-0.019103503124365498]","[1,1,1]","[0.11903302425843566,0.05182445140348639]","[1,1,1]","[0.07482845151786403,0.0461553080418298]","[1,1,1]","[0.11779255583727202,0.13941657551783093]","[-1,-1,-1]","[0.09182809157343684,-0.06704645750846913]","[-1,-1,-1]","[-0.1872810882217042,0.02262889534697863]","[-1,-1,-1]","[0.009440130140266886,-0.13184688101723954]","[-1,-1,-1]","[-0.127128344858365,0.10547289733402147]","[1,1,1]","[-0.14421736239087984,-0.0180210780065725]","[1,1,1]","[0.07117146463973813,-0.0008366516132523787]","[-1,-1,-1]","[-0.07712961461916548,-0.10763912842587757]","[-1,-1,-1]","[-0.08568472445873433,0.15395622250049604]","[1,1,1]","[-0.05930691736178118,0.10373634439841242]","[-1,-1,-1]","[-0.1470110132606986,0.03640965202980326]","[-1,-1,-1]","[0.14798266495813453,0.09753648102705267]","[-1,-1,-1]","[0.029596446950359113,-0.03233360241779041]","[-1,-1,-1]","[-0.024466097071862904,-0.16783574396597356]","[-1,-1,-1]","[0.040430356126837284,0.13051773682929935]","[1,1,1]","[-0.11404338066489145,-0.0552823538080852]","[1,1,1]","[0.02,0.02]",329.9731,0,29,29,44,1,,,,,,,
,,,,,,,675b473fc50c2d9d8f0afbff,682f0fd8a2d1caaba58ae65b,2025-05-22_12h57.05.203,cuing_paradigm_dot,2024.1.5,Win32,61.34969325,682d573fa47f1360d1451895,,,,,,,,,,,329.9741,330.4733,,,330.7175,330.8848,right,,,,,,,,0.1,0.159,,,,,,,330.4733,330.7173,330.8849,"[-0.1163393984453416,-0.15563151576040932]","[-1,-1,-1]","[0.13487499095909353,-0.10141822512336973]","[-1,-1,-1]","[0.06999296049770677,-0.09404639644563996]","[-1,-1,-1]","[-0.013001638159220015,-0.16651762976963647]","[-1,-1,-1]","[-0.00423835114139796,0.1035374979205422]","[-1,-1,-1]","[-0.09296781199718186,0.003011087212235169]","[1,1,1]","[-0.07368248304345856,-0.17417818483843955]","[-1,-1,-1]","[-0.15978538649422516,-0.11878746654036115]","[-1,-1,-1]","[0.12860183182591783,0.014179639138486619]","[-1,-1,-1]","[0.04609544643967935,0.08245624823904886]","[-1,-1,-1]","[0.04105564413959742,0.02609581480143248]","[-1,-1,-1]","[0.1858287493566135,-0.03169663735205788]","[-1,-1,-1]","[-0.0608750805910191,0.09878572569564502]","[-1,-1,-1]","[-0.08356392306268645,-0.08902750425200188]","[1,1,1]","[-0.1123884749451421,0.13693755194463075]","[-1,-1,-1]","[0.013278769391022573,-0.1201809171676524]","[-1,-1,-1]","[0.09215835752762666,0.05995073690437582]","[-1,-1,-1]","[0.12529474091941065,0.13965954258236143]","[-1,-1,-1]","[-0.18485605810123648,0.010433881994239402]","[-1,-1,-1]","[0.04324160560622994,-0.04676428853876816]","[1,1,1]","[0.08302592084691086,-0.16713342035332332]","[-1,-1,-1]","[-0.11877740761219176,0.09115374350716379]","[-1,-1,-1]","[0.17020726449910833,0.016228775343572806]","[-1,-1,-1]","[-0.13454450771378346,0.035868942457118906]","[-1,-1,-1]","[-0.11974739401869142,-0.11253594694222921]","[-1,-1,-1]","[-0.15207134920046167,-0.07866497235045383]","[-1,-1,-1]","[-0.06669734075108474,-0.13116909293764126]","[-1,-1,-1]","[0.09328000206541862,-0.021492902466862814]","[-1,-1,-1]","[-0.020694722855394084,0.15995208720223406]","[-1,-1,-1]","[0.05647918981637184,0.1792761793397121]","[-1,-1,-1]","[-0.04681440773847404,0.009056108391847947]","[-1,-1,-1]","[0.06985539093855549,0.12762268182373404]","[-1,-1,-1]","[0.02,0.02]",331.9833,0,30,30,27,1,,,,,,,
,,,,,,,675b473fc50c2d9d8f0afbff,682f0fd8a2d1caaba58ae65b,2025-05-22_12h57.05.203,cuing_paradigm_dot,2024.1.5,Win32,61.34969325,682d573fa47f1360d1451895,,,,,,,,,,,331.9847,332.4829,,,332.7343,332.9343,right,,,,,,,,0.1,0.17,,,,,,,332.4829,332.7342,332.9343,"[0.09556275370957382,-0.10197088881683769]","[-1,-1,-1]","[0.09684289616943835,0.09076325127265998]","[-1,-1,-1]","[-0.021384085200678776,0.1794889114748557]","[-1,-1,-1]","[-0.0013028850770203633,-0.05313678104383284]","[-1,-1,-1]","[-0.0770446419011102,0.17103272761639082]","[1,1,1]","[-0.06653554737237422,0.010147766281995109]","[-1,-1,-1]","[-0.023776075873603114,-0.0016297535878934853]","[-1,-1,-1]","[-0.08287775579760337,0.12286379922504355]","[1,1,1]","[-0.02685349941607058,0.12443749474842442]","[-1,-1,-1]","[0.08359313982969672,0.15242842956891742]","[-1,-1,-1]","[0.023992334241595196,-0.1655172688575011]","[-1,-1,-1]","[-0.016324715200625492,0.050249197428007195]","[1,1,1]","[0.14210420612355987,-0.1380805223255725]","[-1,-1,-1]","[-0.06722351398820851,-0.15587476189597124]","[-1,-1,-1]","[0.06864128972545717,0.03278898353245961]","[-1,-1,-1]","[0.11708622336763785,0.006343878167868333]","[-1,-1,-1]","[0.06430340534482554,-0.18260493419570856]","[-1,-1,-1]","[-0.19204252767816762,-0.01834602454341941]","[-1,-1,-1]","[-0.03656677439507313,-0.18589196501005825]","[-1,-1,-1]","[-0.06017853263187207,-0.038320476990756275]","[-1,-1,-1]","[-0.1705732397051709,0.05235517593720392]","[-1,-1,-1]","[0.18141187995028876,0.03631121345523776]","[-1,-1,-1]","[-0.0810647981820921,-0.10640446999362771]","[-1,-1,-1]","[0.1314846419575251,-0.06550643997796156]","[-1,-1,-1]","[-0.11696137800261246,-0.011308618012562123]","[-1,-1,-1]","[-0.155353405680473,-0.07907140749240424]","[-1,-1,-1]","[0.18034539314508896,-0.0515080888270091]","[-1,-1,-1]","[0.05616978240741296,-0.08260220116996683]","[-1,-1,-1]","[0.020289483580462068,-0.12561764729328248]","[-1,-1,-1]","[0.027783360461223653,-0.013632692462166881]","[-1,-1,-1]","[-0.1318053454073037,-0.14519333933513673]","[-1,-1,-1]","[-0.08340109458535028,0.06946884680176921]","[-1,-1,-1]","[0.02,0.02]",334.0339,0,31,31,5,1,,,,,,,
,,,,,,,675b473fc50c2d9d8f0afbff,682f0fd8a2d1caaba58ae65b,2025-05-22_12h57.05.203,cuing_paradigm_dot,2024.1.5,Win32,61.34969325,682d573fa47f1360d1451895,,,,,,,,,,,334.0351,334.5333,,,334.7849,335.0003,right,,,,,,,,0.4,0.186,,,,,,,334.5334,334.7847,335.0005,"[0.10579654821140604,0.15230710049343044]","[1,1,1]","[-0.04893171487135171,-0.1390172249095175]","[-1,-1,-1]","[0.003089610313895969,-0.06597940060923063]","[1,1,1]","[0.1734229830248954,-0.008089303344280974]","[-1,-1,-1]","[-0.16174495097381017,0.11552529111769187]","[-1,-1,-1]","[0.031173987576124516,0.031056966398199756]","[-1,-1,-1]","[0.08948299349600382,-0.026141458813233067]","[-1,-1,-1]","[-0.14204061200220397,-0.034564438836100504]","[1,1,1]","[-0.18521602910262908,-0.05709412075562599]","[1,1,1]","[0.14067185690089865,0.0821670901859098]","[-1,-1,-1]","[-0.09072690410164545,0.023236909405961452]","[-1,-1,-1]","[0.028565769328862248,0.07569280978956676]","[1,1,1]","[0.03634591476771845,0.16552805911112561]","[1,1,1]","[0.18072114815496976,-0.0699818967142203]","[1,1,1]","[0.15420846324282525,0.126464807542371]","[1,1,1]","[0.15324381432371573,-0.11201423402071194]","[1,1,1]","[-0.10025912659866167,-0.028722198290706664]","[1,1,1]","[-0.044189397856128354,-0.05183628378182155]","[-1,-1,-1]","[-0.15144153759162926,0.07608366846135124]","[-1,-1,-1]","[0.09156818618284057,0.014042483707638501]","[-1,-1,-1]","[-0.05551753980956782,0.04261353182697681]","[-1,-1,-1]","[0.07042671173175333,-0.17063412385327473]","[-1,-1,-1]","[0.17740757099932794,0.04769259126787529]","[-1,-1,-1]","[-0.05261688093914579,0.09095140953983921]","[-1,-1,-1]","[-0.07829443827176996,-0.08126756256422249]","[-1,-1,-1]","[-0.03345295909086447,-0.09937187660193117]","[-1,-1,-1]","[-0.04296390420623478,0.13752299443127644]","[-1,-1,-1]","[-0.10381846239323385,0.15414110409078302]","[-1,-1,-1]","[0.06986835958384931,0.10397716758532907]","[1,1,1]","[0.00195202076763634,-0.1398497322567488]","[1,1,1]","[-0.006533462755959538,-0.013787459223743824]","[-1,-1,-1]","[0.01229667538113194,-0.185826772642649]","[1,1,1]","[0.02,0.02]",336.0995,0,32,32,49,1,,,,,,,
,,,,,,,675b473fc50c2d9d8f0afbff,682f0fd8a2d1caaba58ae65b,2025-05-22_12h57.05.203,cuing_paradigm_dot,2024.1.5,Win32,61.34969325,682d573fa47f1360d1451895,,,,,,,,,,,336.1006,336.5994,,,336.8397,337.0243,right,,,,,,,,0.6,0.1667,,,,,,,336.5994,336.8397,337.0243,"[0.1465808255405997,0.0402845183856807]","[-1,-1,-1]","[-0.05687882308662246,-0.12297842296480486]","[-1,-1,-1]","[0.18642418551319928,0.010645604065225207]","[-1,-1,-1]","[0.028054988535940385,0.18807416220024475]","[1,1,1]","[-0.056560187653742,0.06995635661757521]","[1,1,1]","[-0.02675344117801451,0.0356404809122311]","[1,1,1]","[-0.01568574274284308,-0.055461202076537326]","[1,1,1]","[0.13184033114189891,-0.04431400648633898]","[-1,-1,-1]","[0.09687711313753382,0.05245395831330383]","[1,1,1]","[-0.060197697222122766,0.18465901070282859]","[-1,-1,-1]","[0.05310293644483968,-0.05873541868571476]","[-1,-1,-1]","[-0.13619790484430672,-0.06571915058084206]","[-1,-1,-1]","[-0.04685410259903328,-0.014645060874924107]","[1,1,1]","[0.14467436691591548,0.09195068511408702]","[1,1,1]","[-0.0036996924856780708,0.1406158338140081]","[1,1,1]","[-0.1103049902052136,0.12917657564723942]","[1,1,1]","[-0.11063586356521571,-0.019121343081385172]","[1,1,1]","[-0.169535798644889,0.048083413883538983]","[1,1,1]","[0.13837347782233078,-0.12034419848850583]","[-1,-1,-1]","[0.07142302731837298,-0.14305090987677013]","[1,1,1]","[-0.0960319727916585,0.03656677915584293]","[1,1,1]","[0.019466479114176507,0.01729439388358393]","[-1,-1,-1]","[-0.09566943706585353,-0.16503934213751398]","[1,1,1]","[0.09914046928917933,-0.09524432695319332]","[1,1,1]","[-0.17826842720632383,-0.013556646149391836]","[1,1,1]","[0.13525893162766023,0.14240383636255685]","[1,1,1]","[0.052415888493631074,0.07768259819248487]","[-1,-1,-1]","[-0.016043946160411226,-0.1702834626539061]","[1,1,1]","[-0.1446091072457987,0.08395968776811438]","[-1,-1,-1]","[0.18317100587450103,-0.029866810180801055]","[1,1,1]","[0.08918236170124512,0.11803833239200688]","[-1,-1,-1]","[0.017341333414266177,-0.08112323547475658]","[-1,-1,-1]","[0.02,0.02]",338.123,0,33,33,174,1,,,,,,,
,,,,,,,675b473fc50c2d9d8f0afbff,682f0fd8a2d1caaba58ae65b,2025-05-22_12h57.05.203,cuing_paradigm_dot,2024.1.5,Win32,61.34969325,682d573fa47f1360d1451895,,,,,,,,,,,338.1239,338.6225,,,338.8664,339.1663,right,,,,,,,,0.55,0.2819,,,,,,,338.6227,338.8663,339.1663,"[-0.020800228272480927,0.05695576497671975]","[1,1,1]","[0.1491238981327806,0.03412372599391964]","[1,1,1]","[0.025800867619389965,0.15903151677838928]","[1,1,1]","[0.1218081304470113,0.13742929876802795]","[1,1,1]","[-0.11748682153167056,0.15822419218868142]","[1,1,1]","[0.013775079591036691,-0.1273556895843039]","[-1,-1,-1]","[-0.041974947365625195,-0.05339588022087477]","[1,1,1]","[-0.024345421754984477,-0.18282040664355337]","[1,1,1]","[0.039404952567804935,0.030340617337901048]","[1,1,1]","[0.1328054605150111,-0.09623626157418112]","[-1,-1,-1]","[0.18677754725907034,-0.021915745891494125]","[-1,-1,-1]","[-0.062163490317020786,-0.13613076756074893]","[1,1,1]","[0.010557715179699233,-0.02129725371339611]","[-1,-1,-1]","[-0.04922296202040456,-0.09800668714618531]","[1,1,1]","[0.008811137169885153,-0.07491966782854985]","[-1,-1,-1]","[-0.1802897705239701,-0.0398282606557741]","[1,1,1]","[-0.12162232254258624,0.05606160395118526]","[1,1,1]","[0.007998362141103844,0.10561932753484957]","[1,1,1]","[-0.10562171610764068,-0.008081329949525809]","[-1,-1,-1]","[-0.15809782342826867,0.013654491508760868]","[1,1,1]","[0.06892767802457321,0.13076996388691295]","[1,1,1]","[-0.05691885174622114,0.14229920047742994]","[-1,-1,-1]","[-0.051882843887498906,0.025718188567018036]","[-1,-1,-1]","[-0.17349717982288693,0.07069028373007646]","[-1,-1,-1]","[0.0636891362509139,-0.11271519588006328]","[1,1,1]","[0.11522203717901273,0.010344006107405284]","[-1,-1,-1]","[0.05340579107256006,0.08690664766483809]","[-1,-1,-1]","[-0.09531761390943043,-0.1586781431462965]","[-1,-1,-1]","[-0.08385286558115924,0.07951713243002921]","[-1,-1,-1]","[0.10143295435703233,0.08656068957958499]","[-1,-1,-1]","[0.09703282128572902,-0.05511653793485553]","[1,1,1]","[-0.15873446931817797,-0.10747528214261158]","[1,1,1]","[0.02,0.02]",340.2657,0,34,34,145,1,,,,,,,
,,,,,,,675b473fc50c2d9d8f0afbff,682f0fd8a2d1caaba58ae65b,2025-05-22_12h57.05.203,cuing_paradigm_dot,2024.1.5,Win32,61.34969325,682d573fa47f1360d1451895,,,,,,,,,,,340.2665,340.7656,,,341.0241,341.383,left,,,,,,,,0.9,0.3375,,,,,,,340.7656,341.024,341.3832,"[0.05766430616563168,0.1317135109375152]","[1,1,1]","[0.042480713248705525,-0.10277306667879717]","[1,1,1]","[0.017691965646698907,0.13885319332952425]","[1,1,1]","[-0.05716910000933198,0.13903887935352974]","[1,1,1]","[-0.09372052454844713,0.16296508082240552]","[1,1,1]","[0.1822732668303516,-0.054106594044379355]","[1,1,1]","[-0.04500944731932839,0.09142241260695366]","[1,1,1]","[0.13821017518510817,0.09811731701741273]","[1,1,1]","[0.020930399555810712,-0.05890090122253316]","[1,1,1]","[-0.0038993803310557805,-0.15063345220933902]","[-1,-1,-1]","[-0.18642195112302018,0.025189759354206313]","[1,1,1]","[-0.09487094989890253,-0.1206270539709171]","[1,1,1]","[0.027671788870813452,0.005211448361940211]","[1,1,1]","[-0.0781076951775581,-0.031079641857943235]","[1,1,1]","[-0.05758806591737216,0.01665895043393728]","[1,1,1]","[0.10320741504288047,-0.0864488103526601]","[1,1,1]","[-0.03522153742613994,-0.08917475605391142]","[1,1,1]","[0.010070609109074327,-0.1923528525122833]","[1,1,1]","[0.12530943120269894,-0.1496788100151285]","[1,1,1]","[-0.1211106952429898,0.0583493274732689]","[-1,-1,-1]","[-0.113231384789025,0.11046278406147028]","[1,1,1]","[0.19065102437024814,-0.014807288763364311]","[1,1,1]","[0.04841204709998283,0.1866300649779698]","[1,1,1]","[-0.09226820787242919,-0.07829606172610365]","[1,1,1]","[0.08585686757607273,0.07959738043836097]","[1,1,1]","[0.08499266535355181,-0.16731369490982034]","[1,1,1]","[0.07604645406270558,0.01531157477982377]","[1,1,1]","[-0.10813437017532612,-0.1600386338524888]","[-1,-1,-1]","[-0.034375657817322,-0.194346549667697]","[1,1,1]","[-0.15027971672804602,-0.05012408239639378]","[1,1,1]","[0.14509798745492167,-0.03846524931658858]","[1,1,1]","[-0.08374520460767396,0.07961567166078906]","[1,1,1]","[0.02,0.02]",342.4823,0,35,35,186,1,,,,,,,
,,,,,,,675b473fc50c2d9d8f0afbff,682f0fd8a2d1caaba58ae65b,2025-05-22_12h57.05.203,cuing_paradigm_dot,2024.1.5,Win32,61.34969325,682d573fa47f1360d1451895,,,,,,,,,,,342.4835,342.9823,,,343.2226,343.5825,left,,,,,,,,0.9,0.3457,,,,,,,342.9823,343.2226,343.5826,"[-0.1829057240780633,0.014368937143225196]","[1,1,1]","[0.06247933130094076,-0.14851394741890955]","[1,1,1]","[-0.04751050605317349,-0.10434041068440657]","[1,1,1]","[0.13229978611013246,-0.13418030951210663]","[1,1,1]","[-0.03141418391407967,0.07159313706228561]","[-1,-1,-1]","[-0.1089281266537922,-0.03743035920718938]","[1,1,1]","[-0.13687662676529883,-0.12905368784116752]","[1,1,1]","[0.03497023893019887,-0.016050346163410025]","[-1,-1,-1]","[-0.05797959903076045,-0.018380298594498204]","[1,1,1]","[-0.1541515499438107,-0.031172814574968486]","[1,1,1]","[-0.0067496128424852295,-0.15711062846404486]","[1,1,1]","[0.17237926263606368,-0.06761059509266767]","[1,1,1]","[-0.10881932518328523,0.04223705774133497]","[1,1,1]","[-0.05921713385127355,0.17687487782312472]","[1,1,1]","[-0.1603064304153777,-0.09163024548880046]","[1,1,1]","[0.019553143120176076,0.1368221874249793]","[1,1,1]","[0.07514838185285104,0.06393084833780799]","[-1,-1,-1]","[0.11298229337473616,0.12879760711052585]","[1,1,1]","[0.009718429389623185,-0.06441427632384346]","[1,1,1]","[0.1854437065493968,0.06011917871083542]","[1,1,1]","[0.05758880904557413,-0.19032498683846627]","[1,1,1]","[-0.13137882319862815,0.07597202444023078]","[1,1,1]","[-0.0964860778971897,-0.1045415414323383]","[1,1,1]","[0.08752617257196087,-0.10949390347256531]","[1,1,1]","[-0.059705858809323734,0.1294099485216579]","[1,1,1]","[0.15544100730596652,-0.009310777518347482]","[1,1,1]","[-0.0041714015290869625,0.0113668332981319]","[1,1,1]","[-0.1750241053179625,0.06051967883468127]","[1,1,1]","[-0.08807063042168951,0.09943773835889756]","[1,1,1]","[0.14643348313208143,0.1043182497893663]","[1,1,1]","[0.12486312579323046,0.043878150053924175]","[1,1,1]","[0.028335691713147804,0.09309635623606594]","[1,1,1]","[0.02,0.02]",344.6823,0,36,36,199,1,,,,,,,
,,,,,,,675b473fc50c2d9d8f0afbff,682f0fd8a2d1caaba58ae65b,2025-05-22_12h57.05.203,cuing_paradigm_dot,2024.1.5,Win32,61.34969325,682d573fa47f1360d1451895,,,,,,,,,,,344.6839,345.1818,,,345.4327,345.6651,right,,,,,,,,0.9,0.2028,,,,,,,345.1819,345.4327,345.6653,"[0.018455565443786435,-0.013461301728220873]","[-1,-1,-1]","[0.08878923960330043,-0.09661980933395826]","[1,1,1]","[-0.08693968038517731,0.04485521173303619]","[1,1,1]","[-0.17449894724298137,-0.02733680599981184]","[1,1,1]","[-0.16279812494363335,0.04092588580293022]","[1,1,1]","[-0.06599342554788115,-0.04452624308377025]","[1,1,1]","[0.15637451178765358,-0.011051331897853026]","[1,1,1]","[0.03298403049596044,0.16258687025631693]","[1,1,1]","[-0.019935730677837483,-0.04335111086392118]","[1,1,1]","[0.07260112814665463,0.11175024433075625]","[1,1,1]","[-0.14772289608206735,0.12026023754335713]","[1,1,1]","[0.008223500016023877,0.08483628086930697]","[1,1,1]","[0.0044880179066755415,-0.11881473451462499]","[1,1,1]","[-0.07598162857521959,-0.10568271035220313]","[1,1,1]","[0.022862351826142012,-0.055140168711042034]","[1,1,1]","[0.037699501598763854,-0.14478043890672831]","[1,1,1]","[0.14159377989428776,-0.07450253850820097]","[-1,-1,-1]","[-0.026056355543461245,0.12033497784474402]","[1,1,1]","[0.16247369589026958,0.040282704069990946]","[1,1,1]","[-0.041330311969841875,0.07396866297037395]","[1,1,1]","[0.15314221033157238,0.10364218646736845]","[1,1,1]","[-0.14977006096867074,-0.08389678126232121]","[1,1,1]","[0.12131942494895212,0.06500216058282068]","[1,1,1]","[0.09881497986738366,-0.0009208247997890347]","[1,1,1]","[-0.0668272262076048,0.11052362344751421]","[1,1,1]","[0.06847689214686356,0.04917710838604189]","[1,1,1]","[-0.10992203741360104,-0.15610181514060403]","[1,1,1]","[-0.13840711479972484,-0.005713860968641808]","[-1,-1,-1]","[0.17662012811059688,-0.05029864678423199]","[1,1,1]","[0.08091058715504215,0.17651895826017322]","[1,1,1]","[-0.04683111643291533,0.18844258927295365]","[1,1,1]","[0.11541361020037483,-0.138226333293518]","[1,1,1]","[0.02,0.02]",346.7654,0,37,37,198,1,,,,,,,
,,,,,,,675b473fc50c2d9d8f0afbff,682f0fd8a2d1caaba58ae65b,2025-05-22_12h57.05.203,cuing_paradigm_dot,2024.1.5,Win32,61.34969325,682d573fa47f1360d1451895,,,,,,,,,,,346.7667,347.2653,,,347.5054,347.8226,right,,,,,,,,0.45,0.3015,,,,,,,347.2653,347.5053,347.8227,"[-0.1019761655840887,-0.08793970198538571]","[1,1,1]","[0.039203938867662026,-0.10013888029596078]","[-1,-1,-1]","[0.04346343584685898,0.0008837470109713582]","[1,1,1]","[-0.05283283604302622,0.05375798386209672]","[1,1,1]","[0.013796053845479718,-0.05589333646302511]","[-1,-1,-1]","[0.1494856083271968,-0.10908553409097696]","[-1,-1,-1]","[0.006420158897601772,0.12134670799781425]","[-1,-1,-1]","[-0.02429022031405513,0.09448331232849193]","[1,1,1]","[-0.16726589945002088,0.10183209146647722]","[1,1,1]","[0.11674919253870783,0.06843331120166493]","[1,1,1]","[-0.03401137392250014,-0.011195276468430678]","[-1,-1,-1]","[-0.1535284708403299,-0.06377076639801169]","[-1,-1,-1]","[0.0920939255185788,-0.018685962914434747]","[-1,-1,-1]","[0.046734285514845576,-0.14298473217423976]","[1,1,1]","[0.1723810609598468,0.0024139714838051544]","[-1,-1,-1]","[-0.07222331743799017,0.13981428826244488]","[-1,-1,-1]","[-0.04144323093444415,-0.1679101873613453]","[-1,-1,-1]","[0.04472058685048953,0.15440481673998624]","[1,1,1]","[0.1084555411825556,-0.0584605420827702]","[-1,-1,-1]","[-0.06664059510950769,-0.05667455896569432]","[1,1,1]","[-0.19039089033001003,-0.015354969201280167]","[-1,-1,-1]","[0.029494772194780278,0.04193924903176583]","[-1,-1,-1]","[0.09418036457547488,-0.17464232374819527]","[1,1,1]","[-0.008460485048113281,-0.12989204235047472]","[-1,-1,-1]","[-0.0671027321865475,0.09963833279638586]","[-1,-1,-1]","[0.09439742015934324,0.11317330380158695]","[-1,-1,-1]","[0.0990763086852212,-0.13254612573380847]","[-1,-1,-1]","[0.173057136836292,0.05794187034195252]","[1,1,1]","[-0.11496110538970164,-0.14335065041515443]","[1,1,1]","[0.0018904766758803756,0.17504133307059894]","[1,1,1]","[0.102376956665969,0.16788387883830802]","[1,1,1]","[-0.12538972555815484,0.002514095727712302]","[-1,-1,-1]","[0.02,0.02]",348.923,0,38,38,80,1,,,,,,,
,,,,,,,675b473fc50c2d9d8f0afbff,682f0fd8a2d1caaba58ae65b,2025-05-22_12h57.05.203,cuing_paradigm_dot,2024.1.5,Win32,61.34969325,682d573fa47f1360d1451895,,,,,,,,,,,348.9238,349.4207,,,349.6723,349.915,right,,,,,,,,0.6,0.2275,,,,,,,349.4207,349.6722,349.9151,"[0.07950052108466817,0.14159305873492364]","[1,1,1]","[-0.042943430494407665,0.17212517962399113]","[1,1,1]","[0.17715182456595288,-0.045381095373329655]","[1,1,1]","[0.011770411420149045,-0.17974223008364112]","[1,1,1]","[0.010252409031092332,-0.027030151708388732]","[1,1,1]","[0.17100379028107454,0.018745334838403717]","[-1,-1,-1]","[0.017868656459288357,0.02316734109637365]","[-1,-1,-1]","[-0.04846925958363843,-0.014283113568567152]","[1,1,1]","[0.1788228096138991,-0.08835090511014401]","[1,1,1]","[-0.11221554715220335,-0.1240596655339138]","[-1,-1,-1]","[-0.17028006263242665,0.009742792338817472]","[1,1,1]","[0.09787609803853867,0.10040301274494091]","[1,1,1]","[-0.08928211466587664,0.09987410363317621]","[1,1,1]","[-0.10063985879512229,0.007636239969088524]","[1,1,1]","[0.13761150117564583,-0.07993289507804247]","[1,1,1]","[0.004827013809181405,0.12103086168513923]","[1,1,1]","[-0.09076450386069032,0.05837819277361144]","[1,1,1]","[-0.1326131042017771,-0.05571140454893951]","[-1,-1,-1]","[0.10376339381840695,-0.003996704223717494]","[-1,-1,-1]","[0.0660603865705705,-0.09439902686735098]","[-1,-1,-1]","[0.04509274304005326,0.07635037801767958]","[1,1,1]","[0.10172720128454313,-0.13181038095088127]","[-1,-1,-1]","[-0.01924766389074274,-0.12597881701899313]","[-1,-1,-1]","[-0.06516627861198286,-0.06800414398610019]","[-1,-1,-1]","[0.027418227536141523,-0.11672323062109535]","[-1,-1,-1]","[-0.04135440040217376,0.09754371941671923]","[-1,-1,-1]","[0.04101733952514027,0.1797303562807152]","[-1,-1,-1]","[0.06379219442166124,-0.014366773464552651]","[-1,-1,-1]","[-0.12641868799312045,0.08165713659044029]","[1,1,1]","[0.05207158174070355,-0.1533597353572283]","[1,1,1]","[0.10024016886286265,0.05748032792274869]","[1,1,1]","[-0.1746857239294975,0.07628292410433526]","[1,1,1]","[0.02,0.02]",351.0146,0,39,39,158,1,,,,,,,
,,,,,,,675b473fc50c2d9d8f0afbff,682f0fd8a2d1caaba58ae65b,2025-05-22_12h57.05.203,cuing_paradigm_dot,2024.1.5,Win32,61.34969325,682d573fa47f1360d1451895,,,,,,,,,,,351.016,351.5145,,,351.7719,352.1146,left,,,,,,,,0.9,0.3281,,,,,,,351.5146,351.7718,352.1147,"[-0.0746882800209166,0.11612980896663737]","[1,1,1]","[0.03665422404875728,-0.10637944972575095]","[1,1,1]","[0.01148784470375398,0.14213617901907322]","[1,1,1]","[-0.0528739764047612,-0.01869534729608876]","[-1,-1,-1]","[-0.14847778268242864,-0.08314209094770758]","[1,1,1]","[-0.049091140444875246,-0.07900611044938433]","[1,1,1]","[0.1509511656887016,-0.09976983780038996]","[1,1,1]","[0.07283389892730607,0.04838743663945558]","[1,1,1]","[-0.10667413741005727,-0.09430679159355256]","[1,1,1]","[-0.12163074988786618,0.12499837787342657]","[1,1,1]","[-0.14752708389334024,-0.1288118612245221]","[1,1,1]","[-0.029257097493502807,0.06793119768100488]","[1,1,1]","[-0.17366755381973437,0.008686011680798387]","[1,1,1]","[-0.12762156692734164,-0.02147571125626208]","[1,1,1]","[0.049516176215658556,0.16299605959897157]","[1,1,1]","[0.01983976630262869,-0.15788762204053833]","[1,1,1]","[0.06090856109216606,0.09032570704129306]","[1,1,1]","[0.07817601085897244,-0.14993891498080247]","[1,1,1]","[0.16405556254248468,0.09420955878422983]","[1,1,1]","[0.18061381928928785,0.010951548174887204]","[1,1,1]","[0.07809708114598161,-0.03177797065715718]","[1,1,1]","[-0.032922143033076286,-0.17987038091589666]","[1,1,1]","[0.11004643386981096,-0.05963220913858326]","[1,1,1]","[0.038471890381876435,-0.04559260610124971]","[1,1,1]","[0.11261901646210293,0.09786525107462378]","[-1,-1,-1]","[-0.09370171550237809,0.05671403364092411]","[1,1,1]","[0.1798565494299858,-0.0645742916106828]","[-1,-1,-1]","[0.11884723302344431,-0.019822970746091635]","[1,1,1]","[-0.004088564376540244,0.18213346186088736]","[1,1,1]","[0.06876796411792753,-0.07288776022254884]","[1,1,1]","[-0.16776184022850088,0.10325601403635774]","[1,1,1]","[-0.18563659539637595,0.062117300115302844]","[1,1,1]","[0.02,0.02]",353.2142,0,40,40,204,1,,,,,,,
,,,,,,,675b473fc50c2d9d8f0afbff,682f0fd8a2d1caaba58ae65b,2025-05-22_12h57.05.203,cuing_paradigm_dot,2024.1.5,Win32,61.34969325,682d573fa47f1360d1451895,,,,,,,,,,,353.2154,353.7142,,,353.9543,354.3381,right,,,,,,,,0.1,0.3678,,,,,,,353.7143,353.9543,354.3382,"[-0.049796685931717835,0.03223016676625398]","[-1,-1,-1]","[0.04095524728864487,0.16402935907202792]","[-1,-1,-1]","[-0.13860531680653373,-0.09349736835299315]","[-1,-1,-1]","[-0.03153846783366314,-0.09955744512591345]","[1,1,1]","[0.06663068185252673,0.07302517216202796]","[-1,-1,-1]","[0.15194518674666027,0.12136196651539159]","[-1,-1,-1]","[0.03950981850391607,0.11225062118501122]","[-1,-1,-1]","[0.012719862386825069,-0.09803560592078514]","[-1,-1,-1]","[-0.12873851042276307,0.08901217758669792]","[-1,-1,-1]","[0.1273326448595019,0.006282226135507344]","[-1,-1,-1]","[0.1724864568418561,-0.10020814912879927]","[-1,-1,-1]","[0.055026354573252285,-0.09187869403040373]","[-1,-1,-1]","[0.06455590674725036,-0.16474226668986452]","[-1,-1,-1]","[-0.16893404553590813,0.1015903841601511]","[-1,-1,-1]","[0.1225455899944852,-0.1177531227315961]","[-1,-1,-1]","[-0.025515628536645487,0.11513478428843336]","[-1,-1,-1]","[-0.155697005501556,-0.027460728350401763]","[-1,-1,-1]","[-0.08159270995500828,-0.06384571083038122]","[-1,-1,-1]","[-0.0007051484875106372,-0.05490468188260487]","[-1,-1,-1]","[-0.17430474558522233,0.022708798942969132]","[-1,-1,-1]","[0.07709692056900412,-0.04210114032703062]","[-1,-1,-1]","[0.18704484942433475,-0.049510701060052106]","[1,1,1]","[0.02094607057298698,-0.19005718026889704]","[1,1,1]","[0.13986553172180166,-0.06744438304468402]","[-1,-1,-1]","[-0.08747239313535649,0.15621788047737822]","[-1,-1,-1]","[-0.012160875121394151,-0.16719652721827216]","[-1,-1,-1]","[0.08426151279329595,0.16834708920327493]","[-1,-1,-1]","[0.16692531858493098,0.08365737729352511]","[-1,-1,-1]","[-0.06678249382792222,-0.16292517369480758]","[-1,-1,-1]","[-0.07369551559606434,0.10112867377323602]","[-1,-1,-1]","[-0.043871520448252876,0.1551557540114405]","[-1,-1,-1]","[-0.18148303469439273,-0.07823697492399648]","[-1,-1,-1]","[0.02,0.02]",355.4368,0,41,41,3,1,,,,,,,
,,,,,,,675b473fc50c2d9d8f0afbff,682f0fd8a2d1caaba58ae65b,2025-05-22_12h57.05.203,cuing_paradigm_dot,2024.1.5,Win32,61.34969325,682d573fa47f1360d1451895,,,,,,,,,,,355.4379,355.9369,,,356.1884,356.5475,right,,,,,,,,0.5,0.3414,,,,,,,355.937,356.1883,356.5476,"[0.0629326706648048,-0.18729288933878233]","[-1,-1,-1]","[0.16346102394620793,0.029470344146772225]","[1,1,1]","[0.15996046722990195,0.09341929215623768]","[-1,-1,-1]","[0.12335718247824962,-0.1358273827169123]","[1,1,1]","[0.017469462150930433,0.14222646682562085]","[-1,-1,-1]","[-0.1765332940928179,-0.004933904703222272]","[-1,-1,-1]","[0.06621121634922174,0.02705797712206361]","[-1,-1,-1]","[-0.11941890270675004,0.13299153144403858]","[1,1,1]","[-0.03606210893461346,0.0034274579887108173]","[1,1,1]","[-0.023863277642235507,0.1912345024548304]","[-1,-1,-1]","[0.06893191393055577,-0.05310560953208316]","[-1,-1,-1]","[-0.0584845113996219,-0.18479356345176426]","[1,1,1]","[-0.012662683221512453,-0.11546037703442118]","[1,1,1]","[-0.011627582502079929,-0.17523469884764958]","[-1,-1,-1]","[-0.003163735369181246,0.0907448394454623]","[-1,-1,-1]","[0.04323236312297554,-0.02125868761277366]","[1,1,1]","[0.10031205580859624,-0.014235662421192275]","[1,1,1]","[0.15428975162836228,-0.030522877623683414]","[-1,-1,-1]","[-0.06948731945876503,-0.020842434373921116]","[1,1,1]","[-0.11199000318481328,0.05458219617025878]","[1,1,1]","[0.10688850941711525,0.11485255330366573]","[-1,-1,-1]","[-0.07393567924839839,-0.10311944967945212]","[-1,-1,-1]","[-0.1498959590833513,-0.11344016087668918]","[1,1,1]","[0.03967351794191283,-0.11797814526965378]","[-1,-1,-1]","[-0.16750078238075977,0.07808518244248451]","[-1,-1,-1]","[-0.0929326956028736,0.014528380515160304]","[1,1,1]","[0.06851856802469715,0.13655765909218676]","[-1,-1,-1]","[0.10863759892852201,-0.07944719440041749]","[-1,-1,-1]","[0.12328995674439049,0.03528562650841214]","[1,1,1]","[0.1719575530060622,-0.085549532651787]","[1,1,1]","[-0.17876667470292187,-0.0607162019850961]","[1,1,1]","[-0.055446276627415095,0.03997672038041464]","[1,1,1]","[0.02,0.02]",357.646,0,42,42,110,1,,,,,,,
,,,,,,,675b473fc50c2d9d8f0afbff,682f0fd8a2d1caaba58ae65b,2025-05-22_12h57.05.203,cuing_paradigm_dot,2024.1.5,Win32,61.34969325,682d573fa47f1360d1451895,,,,,,,,,,,357.6471,358.1459,,,358.3976,358.7137,right,,,,,,,,0.4,0.3003,,,,,,,358.146,358.3975,358.7138,"[0.16026375187871633,0.027851988989449152]","[-1,-1,-1]","[0.012155503169148882,0.015662178384705547]","[1,1,1]","[-0.08670543679028181,0.16936064927154676]","[1,1,1]","[0.09444798406063873,0.10806623502918924]","[1,1,1]","[-0.06584736599095826,-0.11463591342318469]","[1,1,1]","[-0.10912783670269904,0.00900621283726392]","[1,1,1]","[0.02035765060462161,-0.07536237890003138]","[1,1,1]","[-0.17352719626228472,-0.06422502603665833]","[-1,-1,-1]","[0.05778705474208887,0.04515360016958826]","[1,1,1]","[-0.034080046454651965,-0.18376441683374486]","[-1,-1,-1]","[0.11194064054031472,0.06832341792772655]","[-1,-1,-1]","[0.055701666633515994,0.003839252676724377]","[1,1,1]","[-0.1741926264376032,0.027142073653498893]","[-1,-1,-1]","[0.14301678066821422,0.10485789076985981]","[-1,-1,-1]","[-0.15479968216682777,0.09775740463926959]","[-1,-1,-1]","[-0.12540078075317637,0.14328437031932875]","[1,1,1]","[0.1026416005053542,0.14918495688016556]","[1,1,1]","[-0.023661552213782515,0.12402763772683147]","[-1,-1,-1]","[-0.02583212314660049,-0.0849181718448658]","[-1,-1,-1]","[-0.10899703030931225,0.06866331725752262]","[1,1,1]","[0.018659085052995295,0.081750566376333]","[-1,-1,-1]","[-0.09362999205901848,-0.06465225229748865]","[-1,-1,-1]","[0.007973655258924175,-0.18004201647134585]","[-1,-1,-1]","[-0.09140574679086867,-0.17706100264996566]","[-1,-1,-1]","[0.09986985669729205,-0.17028867283762208]","[-1,-1,-1]","[0.09227109515282292,-0.10748596417530701]","[-1,-1,-1]","[-0.004917954655895943,-0.14213595681374963]","[1,1,1]","[0.12931784669198518,-0.05764446437374133]","[-1,-1,-1]","[0.060443486310926844,0.16119581574140926]","[-1,-1,-1]","[-0.08188347520094615,0.10738587114237004]","[-1,-1,-1]","[0.17005279947350027,-0.07971484655134436]","[1,1,1]","[-0.06918677968855394,0.040549647551100756]","[-1,-1,-1]","[0.02,0.02]",359.8129,0,43,43,47,1,,,,,,,
,,,,,,,675b473fc50c2d9d8f0afbff,682f0fd8a2d1caaba58ae65b,2025-05-22_12h57.05.203,cuing_paradigm_dot,2024.1.5,Win32,61.34969325,682d573fa47f1360d1451895,,,,,,,,,,,359.814,360.3135,,,360.5646,360.7966,right,,,,,,,,0.6,0.2021,,,,,,,360.3136,360.5645,360.7967,"[0.03497075464269201,0.1911303130490946]","[-1,-1,-1]","[0.035106190952907575,-0.1622192319365774]","[-1,-1,-1]","[-0.10811743317949585,-0.11395087572548618]","[1,1,1]","[0.18216637422998172,0.015575547671715363]","[1,1,1]","[0.09460147757736642,0.15146745035834874]","[-1,-1,-1]","[0.12412032075029925,-0.04455366577073906]","[1,1,1]","[0.14443195642082962,0.13673728304966148]","[1,1,1]","[-0.051774350464526074,0.1186152136629104]","[-1,-1,-1]","[-0.1279285955467885,0.0045033497619925604]","[1,1,1]","[-0.12911226486906824,0.11076924483612151]","[1,1,1]","[0.15735366354200506,-0.08818937661259094]","[1,1,1]","[0.16629686758148246,0.08083097014483837]","[-1,-1,-1]","[-0.14060894270403704,-0.046981502827129255]","[-1,-1,-1]","[-0.06723944360556552,-0.1077457595656437]","[1,1,1]","[-0.07535037331930843,-0.03358269138021198]","[-1,-1,-1]","[-0.09681280253878137,0.1367082611956185]","[1,1,1]","[-0.17889687228203013,-0.03254217027607935]","[-1,-1,-1]","[-0.06237694439330208,0.06326594283368163]","[1,1,1]","[-0.04249576396049536,0.19148696264529166]","[1,1,1]","[0.08754147612914649,0.000013454020991095201]","[1,1,1]","[-0.02961899701400687,0.03527136371330756]","[-1,-1,-1]","[0.008109947032556842,0.07975298035649227]","[1,1,1]","[-0.04038110691476143,-0.004315543653277006]","[-1,-1,-1]","[0.09588238872187789,-0.11274149702356234]","[-1,-1,-1]","[0.0022916436756912624,-0.1996368370059566]","[1,1,1]","[-0.1965143564784582,0.014711454451938192]","[-1,-1,-1]","[-0.022649223049903616,-0.1680067005837833]","[1,1,1]","[0.03833718373322014,-0.0314794935984319]","[1,1,1]","[0.10840267388755302,-0.1507749509017882]","[1,1,1]","[0.007158253686053886,-0.11983855147819453]","[1,1,1]","[0.003301882745972526,0.15451327859385666]","[1,1,1]","[0.03611134837811086,0.018018956578169803]","[-1,-1,-1]","[0.02,0.02]",361.8966,0,44,44,172,1,,,,,,,
