right,left,explain.started,explain.stopped,key_resp_3.keys,key_resp_3.rt,key_resp_3.duration,participant,session,date,expName,psychopyVersion,OS,frameRate,study_id,explain_2.started,explain_2.stopped,key_resp_4.keys,key_resp_4.rt,key_resp_4.duration,explain_3.started,explain_3.stopped,key_resp_5.keys,key_resp_5.rt,key_resp_5.duration,fixation.started,fixation.stopped,practice.started,practice.stopped,response.started,response.stopped,key_resp.keys,feedback.started,feedback.stopped,trials_2.thisRepN,trials_2.thisTrialN,trials_2.thisN,trials_2.thisIndex,trials_2.ran,white_ratio,key_resp.rt,key_resp.duration,explain_4.started,explain_4.stopped,key_resp_6.keys,key_resp_6.rt,key_resp_6.duration,dotDisplay.started,dotDisplay.stopped,ITI.started,polygon_1.pos,polygon_1.color,polygon_2.pos,polygon_2.color,polygon_3.pos,polygon_3.color,polygon_4.pos,polygon_4.color,polygon_5.pos,polygon_5.color,polygon_6.pos,polygon_6.color,polygon_7.pos,polygon_7.color,polygon_8.pos,polygon_8.color,polygon_9.pos,polygon_9.color,polygon_10.pos,polygon_10.color,polygon_11.pos,polygon_11.color,polygon_12.pos,polygon_12.color,polygon_13.pos,polygon_13.color,polygon_14.pos,polygon_14.color,polygon_15.pos,polygon_15.color,polygon_16.pos,polygon_16.color,polygon_17.pos,polygon_17.color,polygon_18.pos,polygon_18.color,polygon_19.pos,polygon_19.color,polygon_20.pos,polygon_20.color,polygon_21.pos,polygon_21.color,polygon_22.pos,polygon_22.color,polygon_23.pos,polygon_23.color,polygon_24.pos,polygon_24.color,polygon_25.pos,polygon_25.color,polygon_26.pos,polygon_26.color,polygon_27.pos,polygon_27.color,polygon_28.pos,polygon_28.color,polygon_29.pos,polygon_29.color,polygon_30.pos,polygon_30.color,polygon_31.pos,polygon_31.color,polygon_32.pos,polygon_32.color,dot_size,ITI.stopped,trials.thisRepN,trials.thisTrialN,trials.thisN,trials.thisIndex,trials.ran,break_2.started,break_2.stopped,trials_3.thisRepN,trials_3.thisTrialN,trials_3.thisN,trials_3.thisIndex,trials_3.ran
subject chose black,subject chose white,0.0003,27.1063,space,12.0781,,675d61c63a00cb308be414f7,682f0fbf903a3fea600b7c8b,2025-05-22_13h00.49.643,cuing_paradigm_dot,2024.1.5,Win32,60.60606061,682d573fa47f1360d1451895,,,,,,,,,,,,,,,,,,,,,,,,,,,,,,,,,,,,,,,,,,,,,,,,,,,,,,,,,,,,,,,,,,,,,,,,,,,,,,,,,,,,,,,,,,,,,,,,,,,,,,,,,,,,,,,,,
,,,,,,,675d61c63a00cb308be414f7,682f0fbf903a3fea600b7c8b,2025-05-22_13h00.49.643,cuing_paradigm_dot,2024.1.5,Win32,60.60606061,682d573fa47f1360d1451895,27.1065,61.8806,space,4.7676,,,,,,,,,,,,,,,,,,,,,,,,,,,,,,,,,,,,,,,,,,,,,,,,,,,,,,,,,,,,,,,,,,,,,,,,,,,,,,,,,,,,,,,,,,,,,,,,,,,,,,,,,,,,,
,,,,,,,675d61c63a00cb308be414f7,682f0fbf903a3fea600b7c8b,2025-05-22_13h00.49.643,cuing_paradigm_dot,2024.1.5,Win32,60.60606061,682d573fa47f1360d1451895,,,,,,61.8808,65.1036,space,0.2049,,,,,,,,,,,,,,,,,,,,,,,,,,,,,,,,,,,,,,,,,,,,,,,,,,,,,,,,,,,,,,,,,,,,,,,,,,,,,,,,,,,,,,,,,,,,,,,,,,,,,,,,
,,,,,,,675d61c63a00cb308be414f7,682f0fbf903a3fea600b7c8b,2025-05-22_13h00.49.643,cuing_paradigm_dot,2024.1.5,Win32,60.60606061,682d573fa47f1360d1451895,,,,,,,,,,,65.1145,65.603,65.6039,65.8526,65.8527,67.3518,,67.3525,68.4506,0,0,0,1,1,0.2,,,,,,,,,,,,,,,,,,,,,,,,,,,,,,,,,,,,,,,,,,,,,,,,,,,,,,,,,,,,,,,,,,,,,,,,,,,,,,,,,,,,,,,,
,,,,,,,675d61c63a00cb308be414f7,682f0fbf903a3fea600b7c8b,2025-05-22_13h00.49.643,cuing_paradigm_dot,2024.1.5,Win32,60.60606061,682d573fa47f1360d1451895,,,,,,,,,,,68.4516,68.9551,68.9552,69.1999,69.2001,70.086,left,70.0861,71.1812,0,1,1,0,1,0.8,0.8647,,,,,,,,,,,,,,,,,,,,,,,,,,,,,,,,,,,,,,,,,,,,,,,,,,,,,,,,,,,,,,,,,,,,,,,,,,,,,,,,,,,,,,,
,,,,,,,675d61c63a00cb308be414f7,682f0fbf903a3fea600b7c8b,2025-05-22_13h00.49.643,cuing_paradigm_dot,2024.1.5,Win32,60.60606061,682d573fa47f1360d1451895,,,,,,,,,,,,,,,,,,,,,,,,,,,,71.1822,74.2949,space,0.0881,,,,,,,,,,,,,,,,,,,,,,,,,,,,,,,,,,,,,,,,,,,,,,,,,,,,,,,,,,,,,,,,,,,,,,,,,,,,,,,,,,
,,,,,,,675d61c63a00cb308be414f7,682f0fbf903a3fea600b7c8b,2025-05-22_13h00.49.643,cuing_paradigm_dot,2024.1.5,Win32,60.60606061,682d573fa47f1360d1451895,,,,,,,,,,,74.3034,74.7945,,,75.0452,75.8791,right,,,,,,,,0.55,0.8131,,,,,,,74.7958,75.0451,75.8793,"[0.06575148921009219,-0.03754228636304742]","[-1,-1,-1]","[-0.1407773739038537,-0.02927514186954358]","[-1,-1,-1]","[-0.09731453241611424,0.009867499822451775]","[1,1,1]","[0.1627887462948635,0.10086964077588213]","[1,1,1]","[0.1944731012724874,-0.0052037292521893465]","[-1,-1,-1]","[-0.04206811625500905,0.1723182305831665]","[-1,-1,-1]","[0.05476481394690608,0.14062376942227184]","[-1,-1,-1]","[-0.17838780330954487,0.06995938975135452]","[1,1,1]","[-0.05479207722327528,0.019280584913989162]","[-1,-1,-1]","[-0.02669359626557716,-0.12346198586775003]","[1,1,1]","[0.010682065331950265,0.19173733930131076]","[1,1,1]","[-0.13082103513880938,0.11903780997203339]","[-1,-1,-1]","[0.06509855191214069,0.06034326718896442]","[-1,-1,-1]","[0.017237964294507732,-0.0670449761298924]","[-1,-1,-1]","[0.0708019930379203,-0.1867064555495993]","[1,1,1]","[0.0789994008556495,-0.09097511051751443]","[1,1,1]","[0.15870898157078359,-0.09504784224027525]","[1,1,1]","[0.017954077001622878,-0.1786428124453648]","[1,1,1]","[0.0008252033810032135,-0.014059307500007771]","[-1,-1,-1]","[-0.09743589835127608,-0.13586876308987833]","[-1,-1,-1]","[0.15055311050491416,-0.02165964955952537]","[1,1,1]","[0.11878929998066544,0.0963252925818259]","[1,1,1]","[0.017958207526923717,0.1216917431764164]","[1,1,1]","[0.13639834796301897,0.027665300006968062]","[1,1,1]","[-0.09780048302405403,0.09187646815952542]","[-1,-1,-1]","[0.009119188481648395,0.03851550997609014]","[1,1,1]","[0.1189942684966593,-0.1445707170331318]","[1,1,1]","[-0.024825448385290237,0.08224647964693815]","[1,1,1]","[0.17612440936883897,0.04504246103853081]","[-1,-1,-1]","[-0.05677602281607455,-0.04505698442531405]","[1,1,1]","[-0.07781603253384078,0.14730588765800584]","[-1,-1,-1]","[-0.0307305850492502,-0.1911001424797273]","[1,1,1]","[0.02,0.02]",76.9755,0,0,0,148,1,,,,,,,
,,,,,,,675d61c63a00cb308be414f7,682f0fbf903a3fea600b7c8b,2025-05-22_13h00.49.643,cuing_paradigm_dot,2024.1.5,Win32,60.60606061,682d573fa47f1360d1451895,,,,,,,,,,,76.976,77.4753,,,77.7139,78.265,left,,,,,,,,0.9,0.5447,,,,,,,77.4754,77.7137,78.265,"[0.15958045945590296,0.07845960138788582]","[1,1,1]","[-0.0048534402113568995,-0.031874694976472676]","[1,1,1]","[0.1128684653937741,-0.157607997339614]","[1,1,1]","[-0.07673363410890277,0.11156671278913785]","[1,1,1]","[0.19458880745720236,0.044823627414365436]","[-1,-1,-1]","[0.0991604761659786,-0.11718161509617017]","[1,1,1]","[-0.16192460042084766,-0.03690665413264618]","[1,1,1]","[-0.0639747217973509,-0.03250376916152955]","[1,1,1]","[-0.12358724292043627,0.057125833030012424]","[1,1,1]","[-0.12339902686226195,-0.14035989747317906]","[1,1,1]","[0.04483052953054947,-0.09877889656416615]","[1,1,1]","[0.09418010043101642,0.09485992791179323]","[1,1,1]","[0.13964850616105495,-0.09248698738203982]","[1,1,1]","[0.05228639007146088,-0.17474660486612742]","[1,1,1]","[0.017087028728290706,0.14990275151848603]","[1,1,1]","[0.10636740742680934,-0.06870311160207454]","[1,1,1]","[-0.05096137176817359,0.1816911678824437]","[-1,-1,-1]","[-0.1208961961960025,0.13605911496437567]","[1,1,1]","[-0.029329426384877472,-0.06937261109872178]","[1,1,1]","[-0.08144554629202921,0.014699072507086665]","[1,1,1]","[0.08108978655823249,-0.03549439250511705]","[-1,-1,-1]","[0.12966148244548487,0.03545693639878122]","[1,1,1]","[0.10688907563926477,0.15926742773326832]","[1,1,1]","[0.06736775240771863,0.0054031384856739325]","[1,1,1]","[0.06167162717809671,0.18318827803736554]","[1,1,1]","[-0.12040858011962574,-0.04983547460162233]","[1,1,1]","[-0.1315758475325717,0.010739505850864351]","[1,1,1]","[0.1259911245329027,-0.01450736537342813]","[1,1,1]","[-0.0855397750933375,-0.09325289759477949]","[1,1,1]","[0.02278082548796421,-0.061054012756210745]","[1,1,1]","[-0.06445116388989348,0.06319694634016351]","[1,1,1]","[-0.04323111641852323,-0.19311778100946553]","[1,1,1]","[0.02,0.02]",79.3611,0,1,1,188,1,,,,,,,
,,,,,,,675d61c63a00cb308be414f7,682f0fbf903a3fea600b7c8b,2025-05-22_13h00.49.643,cuing_paradigm_dot,2024.1.5,Win32,60.60606061,682d573fa47f1360d1451895,,,,,,,,,,,79.3621,79.8598,,,80.1118,80.5897,left,,,,,,,,0.6,0.4619,,,,,,,79.8599,80.1117,80.59,"[-0.18615752811519465,0.0537586629314781]","[1,1,1]","[-0.01897489553509102,0.010680145990422397]","[1,1,1]","[0.11294208232574927,-0.10684867714174198]","[-1,-1,-1]","[-0.14428512684366115,0.07181655745097894]","[-1,-1,-1]","[0.06230015734453756,0.013863094331742045]","[-1,-1,-1]","[0.036698327693315234,0.09051832624284045]","[1,1,1]","[0.04482088887971827,0.1476637287812149]","[1,1,1]","[-0.1395081918019131,-0.04375798812792796]","[-1,-1,-1]","[0.1527468073840032,0.031155416643842186]","[1,1,1]","[0.011792384663761557,-0.1974473128240793]","[1,1,1]","[-0.19935828507898365,0.0025627686889879604]","[-1,-1,-1]","[0.05061102521509865,-0.08040123626245274]","[1,1,1]","[-0.0685629133660603,0.018065253962699448]","[1,1,1]","[-0.07159826051049288,0.18090437587268066]","[1,1,1]","[0.10978614359404607,-0.06140078379202336]","[1,1,1]","[-0.07460411454762766,-0.05201368158554974]","[-1,-1,-1]","[-0.025732022509432063,-0.08521761105556253]","[-1,-1,-1]","[0.0028755128191477737,0.18232206460562042]","[1,1,1]","[0.16195916255409726,-0.07057355506762333]","[1,1,1]","[-0.05250347809104556,0.12634831127613919]","[-1,-1,-1]","[0.13582252982669818,0.1302181992675361]","[-1,-1,-1]","[-0.09499316881675805,0.11657999081054629]","[1,1,1]","[-0.03592679035705713,-0.14046697782613554]","[-1,-1,-1]","[-0.1089336470298253,-0.16376123395142872]","[-1,-1,-1]","[-0.17795844817464324,-0.057332398608172734]","[1,1,1]","[0.19447981548968232,-0.046419343933012364]","[1,1,1]","[-0.08074489253567994,0.059936367147615834]","[1,1,1]","[0.028593071409672596,-0.1544128473408927]","[1,1,1]","[0.14261122545216376,0.0764334487927844]","[-1,-1,-1]","[-0.13939616283807976,0.11485476645812571]","[-1,-1,-1]","[0.09481335172725859,0.1659001714520261]","[1,1,1]","[0.13402131383673094,-0.1480988045981588]","[1,1,1]","[0.02,0.02]",81.6929,0,2,2,164,1,,,,,,,
,,,,,,,675d61c63a00cb308be414f7,682f0fbf903a3fea600b7c8b,2025-05-22_13h00.49.643,cuing_paradigm_dot,2024.1.5,Win32,60.60606061,682d573fa47f1360d1451895,,,,,,,,,,,81.6937,82.1869,,,82.443,83.1079,left,,,,,,,,0.5,0.6581,,,,,,,82.1869,82.443,83.108,"[0.039701830960076755,0.010928625540046982]","[1,1,1]","[0.051992526417151165,-0.11901109021981875]","[-1,-1,-1]","[0.10748717463671865,-0.0036382082377985035]","[-1,-1,-1]","[-0.12843931090598004,-0.017192303300049772]","[-1,-1,-1]","[0.15959782533711137,-0.03470822601412474]","[1,1,1]","[-0.0012800546489181205,-0.006201263937753399]","[-1,-1,-1]","[-0.0214093284948733,-0.1449795514020128]","[-1,-1,-1]","[-0.013578357257028422,0.19150080088617763]","[-1,-1,-1]","[0.05137723598284682,-0.17063053669202052]","[1,1,1]","[0.07687435109222239,0.029892019209241567]","[1,1,1]","[-0.13197608821933765,0.11059656985935863]","[-1,-1,-1]","[0.14905058707058633,-0.12275346056521758]","[-1,-1,-1]","[-0.07632240823136006,-0.13234019027938088]","[1,1,1]","[0.12539845211032882,0.08520839429331328]","[1,1,1]","[0.09394245926564544,-0.1348258386097765]","[1,1,1]","[-0.0010338639078398438,0.1095284407512707]","[-1,-1,-1]","[0.08540887442367749,0.1740491502167202]","[-1,-1,-1]","[0.020815141871814224,0.1461300937036264]","[1,1,1]","[-0.14551390379029913,0.04954829804908041]","[-1,-1,-1]","[-0.04753062405272635,-0.08121335314648762]","[1,1,1]","[0.04723887481939035,-0.048696470739339255]","[1,1,1]","[-0.10186813650510741,0.08166795464962497]","[-1,-1,-1]","[-0.1593096098491996,-0.07375235791523628]","[-1,-1,-1]","[0.18274958061082244,0.04053114141431618]","[1,1,1]","[0.06846481279178412,0.10911342388881531]","[-1,-1,-1]","[-0.05168214350028657,0.15494224048447375]","[1,1,1]","[-0.05974773943028606,0.10332898318690921]","[1,1,1]","[-0.11641180706388715,-0.1157415011334518]","[1,1,1]","[-0.1773246433818858,-0.03753199794482507]","[-1,-1,-1]","[-0.092514108950582,-0.05135467372810962]","[-1,-1,-1]","[0.006742513116462352,0.044328906573705806]","[1,1,1]","[-0.01076643528479408,-0.06101498901043083]","[1,1,1]","[0.02,0.02]",84.2022,0,3,3,107,1,,,,,,,
,,,,,,,675d61c63a00cb308be414f7,682f0fbf903a3fea600b7c8b,2025-05-22_13h00.49.643,cuing_paradigm_dot,2024.1.5,Win32,60.60606061,682d573fa47f1360d1451895,,,,,,,,,,,84.2035,84.7012,,,84.9409,85.324,right,,,,,,,,0.5,0.3768,,,,,,,84.7013,84.9408,85.3241,"[0.18482799692070984,-0.06542325206453614]","[-1,-1,-1]","[-0.07478589586911819,0.15907752421427096]","[-1,-1,-1]","[-0.14318051672083645,-0.030252089294106877]","[1,1,1]","[-0.006928628918098759,0.13698677874751006]","[1,1,1]","[0.06223632827872956,-0.10824590210764949]","[-1,-1,-1]","[0.09799845485758227,0.10933917910789362]","[-1,-1,-1]","[0.05494654349146566,-0.1767996288604759]","[1,1,1]","[-0.14654332620555566,0.12234534060400415]","[1,1,1]","[-0.11626599774578959,0.06900350785243846]","[1,1,1]","[0.11668860106484938,-0.004277705538460395]","[1,1,1]","[0.002247620646541492,-0.19747853941123264]","[-1,-1,-1]","[-0.08342838383141762,-0.11142012269720546]","[1,1,1]","[0.09126061135290721,0.16278982185201182]","[1,1,1]","[-0.0867106509011307,-0.17478927741605985]","[1,1,1]","[0.12600678950264277,-0.07383818375768306]","[-1,-1,-1]","[0.0076919301795564604,0.05398253073974412]","[1,1,1]","[0.15815878049697943,0.05367724486085727]","[-1,-1,-1]","[-0.05841773774546615,-0.03967800032722149]","[1,1,1]","[-0.1134209430420415,0.015761123315695156]","[-1,-1,-1]","[-0.03802048258482281,-0.1646813118274303]","[-1,-1,-1]","[-0.02669473023017335,-0.07170131384612093]","[-1,-1,-1]","[-0.1750539772058434,-0.05921966921948725]","[1,1,1]","[0.10115822729507629,0.05090353627379216]","[-1,-1,-1]","[0.17613415569218577,0.08995248281130229]","[1,1,1]","[-0.00220779898947891,-0.13918931905356074]","[1,1,1]","[-0.020394374255344426,0.08417552201173938]","[-1,-1,-1]","[0.01850145827028128,-0.02295976842332979]","[1,1,1]","[-0.1664326105645223,0.06332554729614702]","[-1,-1,-1]","[-0.08058928277699723,0.09641210706846776]","[-1,-1,-1]","[-0.19185051347670315,0.021867677589942836]","[1,1,1]","[0.05364395151279377,-0.06380914390524081]","[-1,-1,-1]","[-0.1274367920264681,-0.07125414214248563]","[-1,-1,-1]","[0.02,0.02]",86.4173,0,4,4,96,1,,,,,,,
,,,,,,,675d61c63a00cb308be414f7,682f0fbf903a3fea600b7c8b,2025-05-22_13h00.49.643,cuing_paradigm_dot,2024.1.5,Win32,60.60606061,682d573fa47f1360d1451895,,,,,,,,,,,86.4179,86.9165,,,87.1706,87.5653,right,,,,,,,,0.45,0.3695,,,,,,,86.9166,87.1706,87.5654,"[-0.012891000362670465,-0.046655617613049316]","[-1,-1,-1]","[0.05496166483387631,0.11039248444841954]","[-1,-1,-1]","[0.04391086705168338,0.06466964214204134]","[1,1,1]","[-0.12730795615341753,0.057707326426433024]","[1,1,1]","[-0.1654858454105153,0.11061840496513786]","[-1,-1,-1]","[0.15130912404381885,0.031938494028752075]","[-1,-1,-1]","[-0.0859470173306781,-0.13140682212585758]","[1,1,1]","[-0.15819553408562748,-0.013852267249526876]","[-1,-1,-1]","[-0.014029013813820245,0.10127427856979462]","[-1,-1,-1]","[0.08174755049992762,0.004291590086275526]","[-1,-1,-1]","[0.13771753473145815,-0.06943984889188834]","[1,1,1]","[0.04594514711259779,-0.1676776871022371]","[1,1,1]","[0.04878627546979452,0.16611934226787192]","[1,1,1]","[-0.11114453886655366,-0.00019908612231599822]","[1,1,1]","[0.09026808727087253,-0.1717615773115726]","[-1,-1,-1]","[0.025702735333899943,-0.07792985525539145]","[-1,-1,-1]","[-0.06905070223482773,0.13400533333853346]","[-1,-1,-1]","[-0.04806914155900697,-0.01452276394038938]","[1,1,1]","[-0.1792119935626103,0.05090629471308234]","[-1,-1,-1]","[-0.15057359660205777,-0.06082521009460827]","[-1,-1,-1]","[0.08514076176771676,-0.12954754601004215]","[-1,-1,-1]","[-0.05852457346747805,0.05191957428656751]","[-1,-1,-1]","[0.016059838294297888,0.014247586686316859]","[1,1,1]","[-0.13210607675894076,-0.13233349363858563]","[1,1,1]","[0.09530653440692645,0.08692362360569392]","[1,1,1]","[-0.011553250745490773,0.16965775258607863]","[1,1,1]","[-0.01065559745673127,0.04432785931388889]","[1,1,1]","[0.09691221705752795,0.16344146372435245]","[-1,-1,-1]","[-0.019975350765078417,-0.08930199645740108]","[-1,-1,-1]","[-0.1734649843734498,-0.09748119334295098]","[-1,-1,-1]","[-0.10809342115488355,-0.04240866176339725]","[-1,-1,-1]","[-0.01302855342227685,-0.18699847852726673]","[1,1,1]","[0.02,0.02]",88.6673,0,5,5,68,1,,,,,,,
,,,,,,,675d61c63a00cb308be414f7,682f0fbf903a3fea600b7c8b,2025-05-22_13h00.49.643,cuing_paradigm_dot,2024.1.5,Win32,60.60606061,682d573fa47f1360d1451895,,,,,,,,,,,88.6675,89.164,,,89.4143,89.8368,left,,,,,,,,0.5,0.4029,,,,,,,89.1641,89.4142,89.8368,"[-0.07420540954986819,0.0013786834533759487]","[1,1,1]","[-0.17988843817428504,-0.08544607073440903]","[-1,-1,-1]","[0.0762906606415889,-0.1783629398103432]","[1,1,1]","[0.0137153301719844,-0.07247343461721492]","[-1,-1,-1]","[-0.054641575700210346,-0.13845086094339815]","[-1,-1,-1]","[0.060264015835365274,-0.004476050985160019]","[1,1,1]","[-0.054250488628244616,0.12290440690447135]","[-1,-1,-1]","[0.09922345890732452,0.021510484132605995]","[1,1,1]","[0.03965276339099914,0.06935251295286976]","[-1,-1,-1]","[0.13128085435139789,-0.00912071893835897]","[-1,-1,-1]","[0.09867496480971852,0.12948220848947162]","[-1,-1,-1]","[0.13517897385382532,-0.12144078064561549]","[1,1,1]","[-0.0017381313563951568,0.032830707139144266]","[1,1,1]","[-0.1841013937987099,0.05222928089343773]","[-1,-1,-1]","[-0.11718345416343741,-0.11695323776661234]","[1,1,1]","[0.05072966782534574,-0.05385174094344502]","[-1,-1,-1]","[-0.1523652404475705,-0.0333599935626164]","[-1,-1,-1]","[0.008647217619857707,0.18758776323799606]","[1,1,1]","[0.027605627997524418,0.14401004086999578]","[-1,-1,-1]","[-0.042748753938890764,-0.038504705936715136]","[-1,-1,-1]","[0.03829312542012938,-0.1230393020248813]","[1,1,1]","[-0.09655162865205363,0.07357794164260904]","[-1,-1,-1]","[-0.12392681452138121,0.036137920887386536]","[-1,-1,-1]","[-0.10983724633227288,-0.15976813917526075]","[1,1,1]","[0.17300748311858394,-0.09492168572938366]","[-1,-1,-1]","[-0.11921932827794586,0.13040577056622568]","[1,1,1]","[0.17247333072345253,0.06242277359640621]","[-1,-1,-1]","[0.09866863840569698,0.07498717177289753]","[1,1,1]","[0.13652718332663175,0.09888984790519147]","[1,1,1]","[-0.06316650159831265,0.04138634726419673]","[1,1,1]","[-0.01049783436884561,-0.13646702889661164]","[1,1,1]","[0.026162383083967292,-0.19687316957728657]","[1,1,1]","[0.02,0.02]",90.9294,0,6,6,114,1,,,,,,,
,,,,,,,675d61c63a00cb308be414f7,682f0fbf903a3fea600b7c8b,2025-05-22_13h00.49.643,cuing_paradigm_dot,2024.1.5,Win32,60.60606061,682d573fa47f1360d1451895,,,,,,,,,,,90.9311,91.4287,,,91.6818,91.8616,right,,,,,,,,0.4,0.1527,,,,,,,91.4287,91.6817,91.8617,"[-0.038902955956330594,-0.007382954439360939]","[-1,-1,-1]","[-0.10990504978783994,-0.1416687473896223]","[-1,-1,-1]","[0.009914083139744012,-0.1359661801879531]","[1,1,1]","[0.07240749560285019,0.04711338814580912]","[1,1,1]","[-0.009724493978671667,0.05630114846294111]","[1,1,1]","[0.14397273534601954,-0.06367997672555759]","[1,1,1]","[-0.08409419038817846,-0.03109705642027632]","[1,1,1]","[0.1842085694660271,-0.06949729336017497]","[-1,-1,-1]","[0.1406919575076469,0.11144113311556716]","[1,1,1]","[-0.08635876028861653,0.147742932760955]","[-1,-1,-1]","[0.019606199034177183,0.0039006081222554296]","[1,1,1]","[0.05768072972914686,0.13310384078483262]","[-1,-1,-1]","[0.11799759390652678,0.04465771493155723]","[-1,-1,-1]","[0.15581745229845348,-0.011170264708506435]","[-1,-1,-1]","[-0.023097285623518822,-0.17030565482380502]","[-1,-1,-1]","[-0.026517587419361752,-0.07889983784094674]","[-1,-1,-1]","[0.05302136909705044,0.1843283474986962]","[-1,-1,-1]","[-0.07329453229883427,0.09985319979311141]","[-1,-1,-1]","[0.08758699957098558,-0.11905297752114335]","[-1,-1,-1]","[-0.014784163965551416,0.1701200905565664]","[-1,-1,-1]","[0.013432879369866289,-0.07143521698261933]","[-1,-1,-1]","[-0.17879759398202597,0.07174304477009903]","[-1,-1,-1]","[-0.12534567904753036,0.0670539735233281]","[-1,-1,-1]","[-0.16312292300481773,0.02465613556562259]","[1,1,1]","[-0.04931571936857725,0.06308054074915387]","[1,1,1]","[-0.17634758740553738,-0.062615517657796]","[-1,-1,-1]","[0.10225021464482446,-0.031976398565074934]","[1,1,1]","[0.13446144999246862,-0.1296385372868356]","[-1,-1,-1]","[-0.09152793008064686,0.03817853394654236]","[1,1,1]","[0.06432370667591916,-0.1758667001980721]","[1,1,1]","[0.17008289578639182,0.03635306463239161]","[1,1,1]","[-0.011016281950046308,0.09666432232560147]","[-1,-1,-1]","[0.02,0.02]",92.9604,0,7,7,47,1,,,,,,,
,,,,,,,675d61c63a00cb308be414f7,682f0fbf903a3fea600b7c8b,2025-05-22_13h00.49.643,cuing_paradigm_dot,2024.1.5,Win32,60.60606061,682d573fa47f1360d1451895,,,,,,,,,,,92.9611,93.4602,,,93.6986,93.792,left,,,,,,,,0.55,0.0821,,,,,,,93.4603,93.6984,93.7921,"[0.1244258231747245,0.0528182354049569]","[1,1,1]","[0.08031387370776788,0.17608701094011603]","[-1,-1,-1]","[0.0291324242800633,-0.14198754625422433]","[-1,-1,-1]","[-0.010713361350273738,-0.12534304328676027]","[-1,-1,-1]","[-0.012496013369646179,0.05112310196031545]","[1,1,1]","[-0.07741646674055051,0.05168508905932238]","[1,1,1]","[-0.15435250813754414,0.07025299457211963]","[-1,-1,-1]","[-0.037255781492640666,-0.000356049238130815]","[1,1,1]","[0.0839062467766063,-0.07628000361529925]","[1,1,1]","[-0.039652471680691206,0.14045910936073927]","[1,1,1]","[-0.18603451249252131,-0.05462191041103146]","[-1,-1,-1]","[0.16880034670642013,-0.017956843755194626]","[1,1,1]","[-0.0868686486922416,-0.06362197595173279]","[-1,-1,-1]","[0.12869718352180698,-0.09124336460045145]","[1,1,1]","[-0.009490262861993228,0.1725578990734505]","[1,1,1]","[0.037429717174284595,-0.07769579427588394]","[1,1,1]","[-0.07868062441538831,0.16125131412475674]","[1,1,1]","[-0.13100798079379736,-0.019729203645768485]","[1,1,1]","[-0.07279459131209863,-0.18188786772877633]","[-1,-1,-1]","[0.1082236878788887,0.1193264263408573]","[1,1,1]","[0.04014514541607795,0.03984391170432794]","[-1,-1,-1]","[0.16477276122574305,0.03592780484203075]","[-1,-1,-1]","[-0.13061928435161363,0.1257345119846456]","[-1,-1,-1]","[-0.0546107998669363,-0.10425967030145408]","[1,1,1]","[0.004170333475138779,-0.018087869185126344]","[-1,-1,-1]","[-0.19207121097852667,0.01697341627076869]","[-1,-1,-1]","[0.15496454612782892,0.11981640597645737]","[1,1,1]","[-0.02650533901559135,-0.19776595281542633]","[-1,-1,-1]","[-0.09978114681640153,-0.1364927007559927]","[-1,-1,-1]","[-0.06448638490535799,0.1051101721388166]","[1,1,1]","[0.06967077425258303,0.07095631109632329]","[1,1,1]","[-0.1393535591837477,-0.11696351912774408]","[1,1,1]","[0.02,0.02]",94.8972,0,8,8,132,1,,,,,,,
,,,,,,,675d61c63a00cb308be414f7,682f0fbf903a3fea600b7c8b,2025-05-22_13h00.49.643,cuing_paradigm_dot,2024.1.5,Win32,60.60606061,682d573fa47f1360d1451895,,,,,,,,,,,94.8979,95.3967,,,95.6422,95.9573,right,,,,,,,,0.45,0.2903,,,,,,,95.3968,95.6422,95.9573,"[-0.023700612659190826,0.003279833063140654]","[1,1,1]","[-0.0628480161765674,0.1335930988051802]","[-1,-1,-1]","[0.09448729633289592,0.005536004298033251]","[1,1,1]","[-0.18857680843995767,0.025401142638463936]","[-1,-1,-1]","[-0.14401593013928798,0.11339728419212919]","[-1,-1,-1]","[0.14660598450494877,0.06674171698165922]","[-1,-1,-1]","[0.048208568029203105,0.05590304766121624]","[-1,-1,-1]","[0.06223786236424045,-0.18413287681448762]","[-1,-1,-1]","[0.04519164474730303,0.1582389495440568]","[1,1,1]","[0.03837686243018958,-0.12745552648106842]","[-1,-1,-1]","[0.09743874953898618,-0.03944681325511729]","[-1,-1,-1]","[0.137442500552632,-0.11021138146757029]","[-1,-1,-1]","[-0.0014586408534272674,-0.05602048108714964]","[-1,-1,-1]","[-0.15121815222093063,-0.12266813548212739]","[-1,-1,-1]","[0.11436067662386427,0.13675485774466814]","[1,1,1]","[-0.01286916503838949,0.1690382198992166]","[1,1,1]","[-0.1658857655701618,-0.02433748861518895]","[1,1,1]","[0.048717022152915686,0.11770735669187495]","[-1,-1,-1]","[0.14883069179638095,-0.020392375191386553]","[-1,-1,-1]","[-0.033253017993218295,-0.1627354321096327]","[1,1,1]","[-0.07255251954971827,-0.09584619880530354]","[-1,-1,-1]","[-0.09381788948904793,0.06334038367527121]","[-1,-1,-1]","[0.07963737586073825,-0.11709518865059154]","[1,1,1]","[0.020755246599679224,-0.011099823675453225]","[1,1,1]","[-0.06945607209410784,0.17686647928580648]","[-1,-1,-1]","[0.09044123202846478,0.07073539161936436]","[1,1,1]","[0.002470574472596043,-0.1087344343155598]","[1,1,1]","[-0.06291037032863621,-0.005074949213558137]","[1,1,1]","[-0.10687079190592684,-0.0485751685513472]","[-1,-1,-1]","[-0.030714143274133555,0.06981387915648866]","[1,1,1]","[-0.13912391614301925,0.01366679437055821]","[-1,-1,-1]","[0.004370469983346214,0.11387271650258067]","[1,1,1]","[0.02,0.02]",97.0567,0,9,9,71,1,,,,,,,
,,,,,,,675d61c63a00cb308be414f7,682f0fbf903a3fea600b7c8b,2025-05-22_13h00.49.643,cuing_paradigm_dot,2024.1.5,Win32,60.60606061,682d573fa47f1360d1451895,,,,,,,,,,,97.0576,97.5559,,,97.8065,98.2554,right,,,,,,,,0.1,0.4383,,,,,,,97.556,97.8064,98.2555,"[-0.10335171632799084,-0.04711347621189183]","[-1,-1,-1]","[0.021953600436133838,0.1890918412722836]","[-1,-1,-1]","[-0.008040537270687546,-0.11263710597478922]","[-1,-1,-1]","[0.1243680507585385,-0.09189014771177224]","[-1,-1,-1]","[-0.03398653584548322,0.09066091594738253]","[-1,-1,-1]","[0.1471304917939794,-0.02430905309675017]","[-1,-1,-1]","[-0.13855791221488625,0.09448037753164355]","[-1,-1,-1]","[0.008114695197559703,-0.19236962775441407]","[-1,-1,-1]","[-0.00022557873939877646,-0.152175106510407]","[-1,-1,-1]","[0.08319014823340234,0.14116519195728666]","[-1,-1,-1]","[-0.1724053431632528,-0.010077073654534977]","[-1,-1,-1]","[0.10456694637044085,-0.05017026389784424]","[-1,-1,-1]","[0.08968252298711983,0.003963587150447215]","[-1,-1,-1]","[0.11244534672107545,-0.1498849437484544]","[1,1,1]","[-0.18712811002210175,-0.05119257638591448]","[-1,-1,-1]","[-0.10039755397804928,-0.13526910104887258]","[-1,-1,-1]","[-0.029627013075529507,0.013214751872435931]","[-1,-1,-1]","[-0.12361439573700181,0.032590252185361525]","[-1,-1,-1]","[-0.16459795471993213,-0.10739075236742106]","[-1,-1,-1]","[0.1548137807054501,-0.1246746233182486]","[1,1,1]","[0.15647426615949023,0.06188469928729412]","[-1,-1,-1]","[-0.055175911342647994,-0.08041348874258475]","[-1,-1,-1]","[0.182670540505233,-0.05180193743111485]","[-1,-1,-1]","[-0.10788269154839553,0.1403406238183218]","[-1,-1,-1]","[0.13154986436448735,0.10004889515528703]","[-1,-1,-1]","[-0.0987282304994699,0.06713553334420407]","[-1,-1,-1]","[0.01775337003969152,0.0544368561674916]","[1,1,1]","[-0.0501192091394996,-0.13559820059215213]","[-1,-1,-1]","[-0.07375926547733286,0.02036693284956593]","[-1,-1,-1]","[0.04054239098812404,0.13542020954419234]","[-1,-1,-1]","[-0.04917459204413276,-0.18519995851175894]","[-1,-1,-1]","[0.1139387336785418,0.04698992137155658]","[-1,-1,-1]","[0.02,0.02]",99.3545,0,10,10,10,1,,,,,,,
,,,,,,,675d61c63a00cb308be414f7,682f0fbf903a3fea600b7c8b,2025-05-22_13h00.49.643,cuing_paradigm_dot,2024.1.5,Win32,60.60606061,682d573fa47f1360d1451895,,,,,,,,,,,99.3551,99.854,,,100.0924,100.5697,left,,,,,,,,0.5,0.4616,,,,,,,99.854,100.0923,100.5698,"[-0.1534713327284605,-0.10438241090073547]","[-1,-1,-1]","[-0.08840456709400414,0.07053917627347792]","[-1,-1,-1]","[0.18475555723092654,0.05638026928867405]","[-1,-1,-1]","[0.005294138846585363,0.18919568566893452]","[-1,-1,-1]","[-0.008992804580611986,-0.0760222768608706]","[1,1,1]","[-0.13922688755590418,-0.060200351461791576]","[1,1,1]","[0.032163433034171525,0.030452182271150378]","[-1,-1,-1]","[-0.07571645788534713,0.170044397085107]","[1,1,1]","[0.05724868715154838,0.08479362719932365]","[-1,-1,-1]","[-0.028490635088735155,-0.003036080655398294]","[-1,-1,-1]","[-0.08715127841249776,-0.08522172624862605]","[-1,-1,-1]","[0.09211677929685413,0.12096587842471708]","[-1,-1,-1]","[-0.126451969378364,0.13584323606996954]","[-1,-1,-1]","[0.10079365477850154,-0.12382933301059265]","[1,1,1]","[0.1925609170672838,-0.029242741022747425]","[1,1,1]","[-0.04812541304119584,0.09534741974164293]","[1,1,1]","[-0.013808175513163953,-0.1625033800895411]","[1,1,1]","[0.043994240930166274,-0.031340024230087464]","[1,1,1]","[0.03781454218635538,0.16209775860421194]","[-1,-1,-1]","[0.020819642575918906,-0.18969310809871104]","[-1,-1,-1]","[0.11604861580750726,-0.057895197086308796]","[1,1,1]","[0.16267344167866726,0.007407577386900302]","[1,1,1]","[0.07363521697034327,0.018234972842585642]","[-1,-1,-1]","[-0.1473931994587472,0.023313913233450105]","[1,1,1]","[-0.020896738214479273,0.1573172126932528]","[1,1,1]","[0.17821743587304117,-0.07474871599755664]","[1,1,1]","[0.04238592664956631,-0.10325832659669751]","[1,1,1]","[-0.0941851573954815,-0.13761269376778107]","[-1,-1,-1]","[-0.11858694797364235,-0.005837117312269799]","[-1,-1,-1]","[-0.06868731464767285,0.02381668936832553]","[1,1,1]","[0.11785981253530095,0.0881738224368385]","[1,1,1]","[0.07413698474365031,-0.06699801521038876]","[-1,-1,-1]","[0.02,0.02]",101.6692,0,11,11,93,1,,,,,,,
,,,,,,,675d61c63a00cb308be414f7,682f0fbf903a3fea600b7c8b,2025-05-22_13h00.49.643,cuing_paradigm_dot,2024.1.5,Win32,60.60606061,682d573fa47f1360d1451895,,,,,,,,,,,101.6699,102.1688,,,102.4078,102.8678,right,,,,,,,,0.4,0.433,,,,,,,102.1688,102.4076,102.8678,"[0.039650263616022724,-0.11124360884141608]","[1,1,1]","[0.1532974503462338,0.12493020063889557]","[1,1,1]","[-0.01155468600973853,-0.026867509433271194]","[-1,-1,-1]","[-0.1492424752319799,-0.10336987791010924]","[-1,-1,-1]","[0.09848749622071526,-0.02790605597707076]","[1,1,1]","[-0.017946295456399773,0.07286856866115177]","[1,1,1]","[0.10581976340650692,0.1298590949445112]","[-1,-1,-1]","[0.08086214198621695,0.16316397687522938]","[-1,-1,-1]","[-0.06110361698380687,0.14947837919367762]","[-1,-1,-1]","[-0.005022316713198972,-0.1788733696239506]","[-1,-1,-1]","[0.05580490752890543,-0.0039031371706722507]","[-1,-1,-1]","[-0.12017113063784161,0.015744236010950322]","[1,1,1]","[-0.012764523962074937,-0.12871245113210708]","[-1,-1,-1]","[-0.004093275342667803,0.14042216485320702]","[-1,-1,-1]","[-0.11583136502512378,-0.04775181939203251]","[1,1,1]","[-0.0704068596922375,0.06483271623702168]","[-1,-1,-1]","[-0.05968167095881614,-0.03466498600071308]","[-1,-1,-1]","[0.19218177224220037,-0.05306013812136699]","[1,1,1]","[0.023797871665060925,0.1697122600037153]","[-1,-1,-1]","[-0.1657707488848049,0.0852545859290222]","[1,1,1]","[-0.1816394989755963,0.02530937642326874]","[-1,-1,-1]","[0.11516056894742603,-0.11531716962251386]","[1,1,1]","[-0.0560703786668095,-0.17603614042882834]","[-1,-1,-1]","[-0.04994265402000027,-0.0801804775484306]","[-1,-1,-1]","[0.11241800743582486,0.06529213459897781]","[-1,-1,-1]","[0.08127996270775423,-0.1579070741749968]","[1,1,1]","[0.05224326134471042,0.09986318239419334]","[-1,-1,-1]","[0.002345365557573712,0.024971499923665128]","[1,1,1]","[0.1717675263559456,0.07590075159975233]","[-1,-1,-1]","[-0.176645748118534,-0.07190335612352423]","[-1,-1,-1]","[0.18099451814956954,0.035214512904570644]","[1,1,1]","[-0.11569337088226116,0.06746351307947672]","[1,1,1]","[0.02,0.02]",103.9717,0,12,12,34,1,,,,,,,
,,,,,,,675d61c63a00cb308be414f7,682f0fbf903a3fea600b7c8b,2025-05-22_13h00.49.643,cuing_paradigm_dot,2024.1.5,Win32,60.60606061,682d573fa47f1360d1451895,,,,,,,,,,,103.9724,104.4664,,,104.7167,105.1553,left,,,,,,,,0.55,0.4167,,,,,,,104.4664,104.7166,105.1554,"[-0.09239376538354416,-0.09651949875272962]","[1,1,1]","[-0.050170970961459144,0.10560025753052266]","[1,1,1]","[0.04012867371852843,0.13031177095138494]","[-1,-1,-1]","[0.14808400675656339,-0.002832694051545847]","[1,1,1]","[0.12723899269337388,0.14451449894802804]","[1,1,1]","[0.09394242641312166,-0.05716817355512832]","[1,1,1]","[-0.1785477919111374,-0.03252449803857551]","[1,1,1]","[-0.09561293197499185,0.05316460476843245]","[-1,-1,-1]","[0.0074258187879043865,0.08973293731535098]","[1,1,1]","[-0.014400159434902205,-0.06940572928771609]","[1,1,1]","[-0.055601144709750715,0.012659888406685013]","[1,1,1]","[0.15357818713056315,-0.11703150033900277]","[1,1,1]","[-0.1922390763550691,0.025621405666411783]","[1,1,1]","[0.09075221589264562,-0.15723971468402015]","[-1,-1,-1]","[0.047049941140602056,-0.10260943073826562]","[-1,-1,-1]","[-0.15424913569619447,0.11938666798578335]","[1,1,1]","[0.0851285561366993,0.15573686429889314]","[-1,-1,-1]","[-0.009830077132657501,-0.016414733597747307]","[-1,-1,-1]","[0.02813657802034101,-0.19327978070212665]","[1,1,1]","[0.14314276571042792,-0.06231721416728949]","[-1,-1,-1]","[0.045858031488669924,0.044844538581336135]","[-1,-1,-1]","[-0.12794532325150543,-0.05614780088400093]","[-1,-1,-1]","[-0.02897105376862432,0.19770586203500273]","[1,1,1]","[-0.10454495998215371,-0.005579574442948558]","[1,1,1]","[-0.15497080253245868,-0.09560460140426187]","[1,1,1]","[0.0032484495269738973,-0.13140722440263228]","[-1,-1,-1]","[-0.1676600040193507,0.05844734504499525]","[-1,-1,-1]","[0.17074993052133536,0.07063121683590284]","[-1,-1,-1]","[-0.050678538415208335,-0.09068267257272554]","[-1,-1,-1]","[0.09891061883407548,0.043998784514994685]","[1,1,1]","[-0.03330648548128613,-0.16858323220720856]","[1,1,1]","[-0.08012803627670301,-0.1432257589681036]","[-1,-1,-1]","[0.02,0.02]",106.2485,0,13,13,121,1,,,,,,,
,,,,,,,675d61c63a00cb308be414f7,682f0fbf903a3fea600b7c8b,2025-05-22_13h00.49.643,cuing_paradigm_dot,2024.1.5,Win32,60.60606061,682d573fa47f1360d1451895,,,,,,,,,,,106.2497,106.7476,,,106.9984,107.5144,right,,,,,,,,0.55,0.4945,,,,,,,106.7476,106.9981,107.5144,"[-0.012937497591054448,0.153851459214184]","[1,1,1]","[0.05755594328600722,0.007769986866998172]","[1,1,1]","[0.12306112920855154,-0.056330504612383925]","[1,1,1]","[0.028593673660305123,0.07650355743036062]","[-1,-1,-1]","[0.17085318633782773,0.01766172427711873]","[1,1,1]","[-0.05813118586600397,-0.035176940553409704]","[1,1,1]","[-0.11133917027687722,0.028038153330605713]","[-1,-1,-1]","[-0.028730843733126562,-0.07917116473971042]","[1,1,1]","[-0.13792032234933552,0.07487603053663355]","[1,1,1]","[0.022510197151768586,-0.14396126104725865]","[1,1,1]","[-0.07370277439101218,-0.09206880274574629]","[-1,-1,-1]","[-0.1048358237230288,0.12552928177096925]","[-1,-1,-1]","[-0.15820207257823926,-0.01956042358871191]","[1,1,1]","[0.05702926810555813,-0.04622104716782499]","[-1,-1,-1]","[-0.012732133338238364,-0.17023805268269962]","[1,1,1]","[-0.13064822190646988,-0.14263242776931037]","[-1,-1,-1]","[0.10023961830058647,-0.16215256872262376]","[-1,-1,-1]","[0.03947153232634074,-0.1884726429645233]","[-1,-1,-1]","[-0.02255338446284352,-0.004130492387179177]","[1,1,1]","[-0.15001895227523365,-0.09718528605103126]","[-1,-1,-1]","[0.12099892058237902,0.039897777978690215]","[1,1,1]","[0.13810857727091103,0.09479893442422731]","[1,1,1]","[0.11914154877119434,-0.014505783782612266]","[1,1,1]","[-0.0897494754789479,-0.16187454028568554]","[-1,-1,-1]","[0.15882814816871682,-0.08611119540924095]","[1,1,1]","[0.08148984192428534,0.13195345434460706]","[1,1,1]","[0.07014890130908955,0.07060987746170735]","[1,1,1]","[-0.06666759522616007,0.052392244618540085]","[-1,-1,-1]","[0.03854280677972277,0.1608418578365014]","[-1,-1,-1]","[-0.023014527750603534,0.11440410700655303]","[-1,-1,-1]","[-0.1779365383516318,0.07297436934476824]","[1,1,1]","[-0.056601192051915904,-0.13029712816303676]","[-1,-1,-1]","[0.02,0.02]",108.6122,0,14,14,139,1,,,,,,,
,,,,,,,675d61c63a00cb308be414f7,682f0fbf903a3fea600b7c8b,2025-05-22_13h00.49.643,cuing_paradigm_dot,2024.1.5,Win32,60.60606061,682d573fa47f1360d1451895,,,,,,,,,,,108.6131,109.1109,,,109.3489,110.0609,right,,,,,,,,0.1,0.6932,,,,,,,109.1109,109.3489,110.0613,"[-0.1401182547963636,0.04405234327958173]","[-1,-1,-1]","[-0.1087011468146153,0.09800232532051871]","[1,1,1]","[-0.11510475564293886,-0.10202395330213408]","[1,1,1]","[0.06092673038474746,-0.1415687901609814]","[-1,-1,-1]","[0.027905593308123998,0.10580055651355341]","[-1,-1,-1]","[-0.025505385033126077,-0.08067438425919035]","[-1,-1,-1]","[0.016729426567880366,-0.11586592069888903]","[-1,-1,-1]","[-0.07050856496578252,0.16609101869530618]","[-1,-1,-1]","[-0.012885368623180312,-0.16688965428724106]","[-1,-1,-1]","[-0.07787026345148361,0.028713406843531117]","[-1,-1,-1]","[-0.1915323204689486,0.017091129960017652]","[-1,-1,-1]","[-0.045227110389447725,-0.036603111392626154]","[-1,-1,-1]","[-0.05719871088663422,0.11265091424379362]","[-1,-1,-1]","[-0.11420203702969581,-0.028577530929594638]","[-1,-1,-1]","[0.0839567268444003,0.06596335832610435]","[-1,-1,-1]","[-0.015921475098947965,0.0770997807645728]","[-1,-1,-1]","[0.15833836714672825,-0.025495714477811484]","[-1,-1,-1]","[0.0725606382760695,0.0021034967565926946]","[-1,-1,-1]","[0.08953960308265897,0.16371643514496842]","[-1,-1,-1]","[0.04908694738814121,0.15304153572600196]","[-1,-1,-1]","[-0.1718334241556907,-0.07802347174913882]","[1,1,1]","[0.16307504390386743,0.031977232251275065]","[-1,-1,-1]","[0.021823396533823234,0.18818890522285517]","[-1,-1,-1]","[-0.05382500437863506,-0.11955927629216015]","[-1,-1,-1]","[-0.12885385886176934,0.13945082654618499]","[-1,-1,-1]","[0.18221211975173252,-0.07985938646392615]","[-1,-1,-1]","[-0.0713026751033682,-0.06773247681818795]","[-1,-1,-1]","[0.06628911515681163,-0.09664842783052388]","[-1,-1,-1]","[0.049420227003517885,0.042283907619982464]","[-1,-1,-1]","[-0.022439415439849328,0.15633198222387656]","[-1,-1,-1]","[0.009045725732820045,-0.033281007034099246]","[-1,-1,-1]","[0.10188128357807737,-0.07284333713519044]","[-1,-1,-1]","[0.02,0.02]",111.1601,0,15,15,0,1,,,,,,,
,,,,,,,675d61c63a00cb308be414f7,682f0fbf903a3fea600b7c8b,2025-05-22_13h00.49.643,cuing_paradigm_dot,2024.1.5,Win32,60.60606061,682d573fa47f1360d1451895,,,,,,,,,,,111.1615,111.6598,,,111.9093,112.2917,right,,,,,,,,0.45,0.371,,,,,,,111.6599,111.9092,112.2919,"[0.1459041496061679,-0.043332649880250235]","[-1,-1,-1]","[-0.025760048345148584,0.10816375024023553]","[1,1,1]","[0.06514813782663822,0.007081295884310058]","[1,1,1]","[0.1892050510330694,0.002883443820695781]","[-1,-1,-1]","[0.029449904376429803,0.13004975327729573]","[-1,-1,-1]","[-0.1546543323644632,0.07519768046291803]","[-1,-1,-1]","[-0.02082071751246874,0.04791553141634578]","[-1,-1,-1]","[0.1589094238357121,0.10629523220598507]","[-1,-1,-1]","[-0.13286838863046177,-0.07795432509895082]","[-1,-1,-1]","[0.0701156301574209,0.16176344471222237]","[-1,-1,-1]","[-0.09246381841259006,-0.14331672920128968]","[-1,-1,-1]","[-0.053180601542789044,-0.08771134450720061]","[-1,-1,-1]","[0.09324813964104683,-0.11380419829466303]","[1,1,1]","[0.12982463039831504,0.1505199249966121]","[1,1,1]","[0.08551153007126347,0.11350345929396126]","[-1,-1,-1]","[0.1358033818383559,0.002076170522390481]","[-1,-1,-1]","[0.08036503810867138,-0.1684810160522915]","[1,1,1]","[-0.05962987891527828,0.18539923906169797]","[-1,-1,-1]","[-0.03328412643429073,-0.037882333796380604]","[-1,-1,-1]","[0.09341772172216782,-0.0716968974734421]","[1,1,1]","[0.039620635347084314,0.19595234328836397]","[1,1,1]","[0.01069627876002905,-0.16785533832359695]","[-1,-1,-1]","[-0.05518852588121702,0.009647177866758477]","[-1,-1,-1]","[-0.12973774161855056,0.0343163115035532]","[-1,-1,-1]","[-0.14647163051754594,0.11776396053756191]","[1,1,1]","[0.03958527528013048,-0.032801627236333786]","[1,1,1]","[-0.09636052604921508,-0.03963458476963404]","[1,1,1]","[0.029554514733335847,0.034184109321454166]","[1,1,1]","[-0.028258350501644408,-0.17770870678973227]","[1,1,1]","[0.139661659838964,-0.1191027996844696]","[-1,-1,-1]","[-0.10756393206553391,0.16706270128758707]","[1,1,1]","[0.03699804958458398,-0.11453883985227079]","[1,1,1]","[0.02,0.02]",113.3919,0,16,16,77,1,,,,,,,
,,,,,,,675d61c63a00cb308be414f7,682f0fbf903a3fea600b7c8b,2025-05-22_13h00.49.643,cuing_paradigm_dot,2024.1.5,Win32,60.60606061,682d573fa47f1360d1451895,,,,,,,,,,,113.3931,113.8908,,,114.1288,114.4743,right,,,,,,,,0.1,0.3398,,,,,,,113.8909,114.1288,114.4743,"[0.011870484975998921,0.054224207258831536]","[-1,-1,-1]","[0.028097397648792287,-0.0678453565990108]","[-1,-1,-1]","[0.14716595305719832,-0.09612884080189171]","[-1,-1,-1]","[0.02793800237183402,0.1465942982389371]","[-1,-1,-1]","[-0.04983356092756897,-0.044173633091232144]","[-1,-1,-1]","[0.06880975987707032,-0.18124580993795844]","[-1,-1,-1]","[0.1133051461922809,0.02273712508484199]","[-1,-1,-1]","[0.15730469821923493,0.08907852191650316]","[-1,-1,-1]","[0.038781703007215444,-0.027255878473311092]","[-1,-1,-1]","[0.10133964394543964,-0.152055027322121]","[-1,-1,-1]","[-0.10144518198480003,0.01390203621940759]","[-1,-1,-1]","[-0.14426538561878186,0.018439433154525]","[-1,-1,-1]","[-0.04411937794291298,-0.16140833124319653]","[1,1,1]","[-0.07576951243260954,0.12366152242520591]","[1,1,1]","[-0.014708366668100836,0.010977506377091264]","[-1,-1,-1]","[-0.11579620283219245,-0.13115911938400254]","[1,1,1]","[-0.14463491088107683,0.060266279242046326]","[-1,-1,-1]","[-0.1357745107014362,-0.03557675043174429]","[-1,-1,-1]","[-0.03814682567095923,0.08085752767369178]","[-1,-1,-1]","[-0.06794624731428305,0.04670637651230193]","[-1,-1,-1]","[0.005824723228469468,-0.1779523454120535]","[-1,-1,-1]","[0.17047956682625978,0.016304435953664626]","[-1,-1,-1]","[0.005369182920453492,-0.13793490768321404]","[-1,-1,-1]","[0.11912992720365849,0.13385890280438156]","[-1,-1,-1]","[-0.00639713360478994,0.1744686617931664]","[-1,-1,-1]","[0.06831619195589189,0.14576232240648435]","[-1,-1,-1]","[-0.12172331040608096,-0.08072494554956756]","[-1,-1,-1]","[0.14197077065058036,-0.13663244180851036]","[-1,-1,-1]","[-0.17791006904545276,-0.05376188020036036]","[-1,-1,-1]","[-0.06022624128554766,-0.09874511614548784]","[-1,-1,-1]","[0.06620213969689684,0.06754693712622048]","[-1,-1,-1]","[0.0467229377701103,-0.12936887211650477]","[-1,-1,-1]","[0.02,0.02]",115.5724,0,17,17,9,1,,,,,,,
,,,,,,,675d61c63a00cb308be414f7,682f0fbf903a3fea600b7c8b,2025-05-22_13h00.49.643,cuing_paradigm_dot,2024.1.5,Win32,60.60606061,682d573fa47f1360d1451895,,,,,,,,,,,115.5731,116.077,,,116.327,116.6375,right,,,,,,,,0.4,0.2871,,,,,,,116.0771,116.327,116.6376,"[0.015952548042952402,0.18753156893584336]","[-1,-1,-1]","[-0.13866200688479188,0.026195692544028742]","[-1,-1,-1]","[0.11801282162728637,0.07864067701383687]","[1,1,1]","[0.10438971811393286,-0.13981597588307484]","[1,1,1]","[-0.1589144502131058,-0.03453839776206829]","[1,1,1]","[-0.08200175181805187,0.06504405324786015]","[-1,-1,-1]","[0.13418218399720727,-0.1114115164826706]","[-1,-1,-1]","[0.10003858892623026,0.12430491510970222]","[1,1,1]","[-0.017480971212637558,-0.07262976251172563]","[1,1,1]","[-0.07316113608842141,-0.06838174723399965]","[-1,-1,-1]","[0.04377134247695541,-0.1103729470151792]","[-1,-1,-1]","[0.05625588806939433,0.1012189913670687]","[1,1,1]","[-0.01410642182277049,0.0959645910746145]","[-1,-1,-1]","[0.147988283055783,0.032982441172270914]","[1,1,1]","[-0.11416003207658741,-0.12227278336124718]","[1,1,1]","[-0.03584495146322086,-0.11984152175704542]","[1,1,1]","[0.1534015020222754,-0.024862765829252693]","[-1,-1,-1]","[-0.06755692271196352,-0.1802834454922672]","[-1,-1,-1]","[0.02545744224859828,-0.03569010621247345]","[-1,-1,-1]","[0.07034460601027333,0.06285220838799946]","[-1,-1,-1]","[0.017520107977144844,-0.16123413191760966]","[-1,-1,-1]","[-0.018540376456493014,0.14169008520800158]","[-1,-1,-1]","[-0.12140543425847675,0.08071832424091539]","[-1,-1,-1]","[0.14709735847824842,0.12098094920801056]","[-1,-1,-1]","[0.18759816326379322,-0.06905273191075362]","[1,1,1]","[0.04560193395096125,0.011239511918829397]","[-1,-1,-1]","[0.05209966661774026,-0.18860152912795694]","[-1,-1,-1]","[0.10848442302167012,-0.01302631840259408]","[-1,-1,-1]","[-0.015403870076784072,-0.18915653616836073]","[1,1,1]","[-0.12510781871575832,0.13804982905094404]","[1,1,1]","[-0.11949825296366569,-0.025035731686798603]","[-1,-1,-1]","[-0.1491765524204564,-0.09587149325592229]","[1,1,1]","[0.02,0.02]",117.7375,0,18,18,40,1,,,,,,,
,,,,,,,675d61c63a00cb308be414f7,682f0fbf903a3fea600b7c8b,2025-05-22_13h00.49.643,cuing_paradigm_dot,2024.1.5,Win32,60.60606061,682d573fa47f1360d1451895,,,,,,,,,,,117.7388,118.2367,,,118.4868,118.8685,left,,,,,,,,0.55,0.356,,,,,,,118.2368,118.4868,118.8685,"[-0.11181504563692894,0.15536895671649112]","[-1,-1,-1]","[-0.1277585263227793,0.020144285618829964]","[-1,-1,-1]","[-0.06854231499860232,0.060390497133918114]","[1,1,1]","[0.03379731439950203,0.13695815042348478]","[1,1,1]","[-0.00503869599447004,-0.005743042863370905]","[1,1,1]","[0.13203074050683286,-0.0061705368190893345]","[-1,-1,-1]","[0.09617041333467752,0.14250315838579308]","[-1,-1,-1]","[0.03593521336451914,0.18073476670859762]","[1,1,1]","[-0.09331150136187574,-0.16096848263968047]","[1,1,1]","[-0.15247975463127422,-0.03784931363475957]","[1,1,1]","[-0.07364168213311427,-0.12086346065335793]","[-1,-1,-1]","[0.03304724371859265,0.08736605584836397]","[1,1,1]","[-0.006673743039384706,0.06254216301850761]","[-1,-1,-1]","[-0.0023371831230676204,-0.15371916292328336]","[1,1,1]","[0.06400000743081918,-0.09363413503682973]","[-1,-1,-1]","[-0.028074217888316457,-0.184613150831759]","[-1,-1,-1]","[0.06303841967690073,-0.04603335317161159]","[1,1,1]","[0.13539794482586806,-0.14540920227669066]","[-1,-1,-1]","[-0.08972600727412723,-0.03386765443779396]","[1,1,1]","[-0.15789166561197016,0.06878553217331994]","[1,1,1]","[-0.14140054510832906,-0.11929617869312703]","[1,1,1]","[0.0005876391038756651,-0.08593089329595852]","[-1,-1,-1]","[-0.06916602756005383,0.13335247257372265]","[1,1,1]","[0.057764063993904616,-0.15595797867325487]","[-1,-1,-1]","[-0.06260179064961527,0.01291985078192326]","[-1,-1,-1]","[0.03434197455235419,0.04385626953504566]","[1,1,1]","[0.18986841897602916,0.05319006501497448]","[1,1,1]","[-0.03957371680957604,-0.02600895209400293]","[1,1,1]","[-0.05340782448938233,0.19235766056510653]","[-1,-1,-1]","[0.06201155816400703,0.014027597839906767]","[-1,-1,-1]","[0.10123802442596329,0.02532635293265325]","[1,1,1]","[0.12217832175612706,0.07163040066921164]","[1,1,1]","[0.02,0.02]",119.9688,0,19,19,136,1,,,,,,,
,,,,,,,675d61c63a00cb308be414f7,682f0fbf903a3fea600b7c8b,2025-05-22_13h00.49.643,cuing_paradigm_dot,2024.1.5,Win32,60.60606061,682d573fa47f1360d1451895,,,,,,,,,,,119.9695,120.4677,,,120.7083,121.117,right,,,,,,,,0.4,0.3863,,,,,,,120.4677,120.7083,121.117,"[-0.13083175283464243,0.09933387154711003]","[1,1,1]","[0.07147667149887992,-0.00006447307409554596]","[1,1,1]","[0.04835350254662648,0.10011341315568337]","[1,1,1]","[-0.007547597348155487,0.031079299720589853]","[-1,-1,-1]","[0.08509908339277493,-0.11597015693023757]","[1,1,1]","[0.05675556809155221,0.13991392873782535]","[-1,-1,-1]","[-0.14334683922835295,0.01794815547813615]","[1,1,1]","[-0.133562788233561,0.14644821752103118]","[-1,-1,-1]","[-0.08375602280431113,-0.10645068168061642]","[-1,-1,-1]","[0.02727979428061577,-0.1470164005081256]","[-1,-1,-1]","[0.06651488430173705,-0.050157567440831684]","[-1,-1,-1]","[-0.08590019658244298,-0.18013474927875942]","[-1,-1,-1]","[0.17002910647385033,0.09865934534409283]","[-1,-1,-1]","[0.1789024651397134,0.052655457729213435]","[1,1,1]","[-0.039598838004538124,-0.13687030831867478]","[-1,-1,-1]","[0.10775808194497377,0.10235689761619164]","[-1,-1,-1]","[-0.16709869497957833,-0.08378511058596418]","[-1,-1,-1]","[0.13106419115453916,-0.019238342557769194]","[1,1,1]","[0.016610781744713077,0.13398002919881571]","[1,1,1]","[0.19140458129762006,-0.052703064268769535]","[1,1,1]","[-0.1880351885232544,-0.02470693921767398]","[-1,-1,-1]","[-0.0971702654256608,-0.008399713015673072]","[-1,-1,-1]","[0.047503529048244585,0.04046780577705651]","[-1,-1,-1]","[0.002830359985012432,0.06982045211172454]","[1,1,1]","[-0.04207481500796056,-0.06838684542448578]","[-1,-1,-1]","[-0.1463211463757239,-0.13276311790254497]","[1,1,1]","[-0.032110062308964404,0.14992040759460587]","[-1,-1,-1]","[0.1225713959042473,-0.06134622224416358]","[1,1,1]","[0.01428538648666757,-0.08797386990897021]","[1,1,1]","[0.12853269292516273,-0.1259508413039837]","[-1,-1,-1]","[0.006618767489623284,-0.04833406809082203]","[-1,-1,-1]","[-0.11861221521890362,0.0494179467616885]","[-1,-1,-1]","[0.02,0.02]",122.2162,0,20,20,54,1,,,,,,,
,,,,,,,675d61c63a00cb308be414f7,682f0fbf903a3fea600b7c8b,2025-05-22_13h00.49.643,cuing_paradigm_dot,2024.1.5,Win32,60.60606061,682d573fa47f1360d1451895,,,,,,,,,,,122.217,122.7161,,,122.966,123.3149,left,,,,,,,,0.9,0.3203,,,,,,,122.7162,122.9659,123.3149,"[0.1294363235881525,-0.014110061379843341]","[1,1,1]","[-0.026982167336471727,0.08240990224819342]","[1,1,1]","[-0.01949020371771741,-0.005407102114422602]","[1,1,1]","[-0.051461711297637366,-0.09084951051947225]","[1,1,1]","[0.01066858999113072,-0.09715546138700012]","[1,1,1]","[0.06929202615206784,-0.05788789567388191]","[1,1,1]","[0.19033114894210199,0.03607777892062841]","[1,1,1]","[-0.14448003144941443,0.0228852565765371]","[1,1,1]","[-0.08049739976234031,0.11598630442623964]","[1,1,1]","[-0.045210337548069544,0.1546751685240225]","[1,1,1]","[0.10087227537157513,-0.11198596165151785]","[1,1,1]","[-0.10813715077686606,-0.11011499791407407]","[1,1,1]","[-0.19570361187991614,-0.010387623104081797]","[1,1,1]","[-0.08617699334168602,-0.06442788197928831]","[1,1,1]","[-0.01216163031834341,-0.17132136716288815]","[1,1,1]","[-0.05270082665156379,-0.03163420836872659]","[-1,-1,-1]","[0.04399939757806895,-0.020991550509530377]","[1,1,1]","[0.035875430695296195,0.08453073950232154]","[1,1,1]","[0.08868089648893696,0.016894198221100665]","[1,1,1]","[-0.118880468921022,-0.03911697373114414]","[-1,-1,-1]","[-0.09013278076296122,0.07433830156569325]","[1,1,1]","[-0.13045327321836064,0.08556253474884945]","[1,1,1]","[0.10283736406799808,0.16673546125287975]","[1,1,1]","[0.05104314008784895,-0.14505937756510484]","[1,1,1]","[0.044123005958356575,0.15864934301994102]","[1,1,1]","[0.13749866574534944,0.05500079550644854]","[1,1,1]","[-0.0933209643742066,-0.16543096924266626]","[-1,-1,-1]","[-0.1035695952811351,0.013326095422692795]","[1,1,1]","[0.038252769454311414,-0.19108849920847065]","[1,1,1]","[0.16394690733653658,0.08942378907826523]","[1,1,1]","[-0.15945253065962584,-0.06319772494952422]","[1,1,1]","[0.051023217710097414,-0.09352335173138437]","[1,1,1]","[0.02,0.02]",124.4142,0,21,21,206,1,,,,,,,
,,,,,,,675d61c63a00cb308be414f7,682f0fbf903a3fea600b7c8b,2025-05-22_13h00.49.643,cuing_paradigm_dot,2024.1.5,Win32,60.60606061,682d573fa47f1360d1451895,,,,,,,,,,,124.4148,124.9139,,,125.1668,125.7834,left,,,,,,,,0.55,0.6117,,,,,,,124.914,125.1667,125.7834,"[0.14868555679834974,-0.03196982707367659]","[1,1,1]","[0.07729026440179783,0.11419266044249972]","[1,1,1]","[0.15850301181553164,0.04043989105588998]","[1,1,1]","[-0.14373003909102708,0.09118971736518235]","[-1,-1,-1]","[0.07441556931645775,-0.1853512227819377]","[1,1,1]","[-0.004938193754618819,-0.13712483671014883]","[-1,-1,-1]","[0.08020095639410459,-0.04849049620794353]","[1,1,1]","[0.12071545094796184,0.10190936799250472]","[1,1,1]","[-0.09034638192121004,-0.13953884606391392]","[1,1,1]","[-0.001626089493943637,0.006985860202076426]","[1,1,1]","[0.008248917700353279,-0.19584027929161354]","[-1,-1,-1]","[-0.0692857005122379,-0.05869597385906985]","[1,1,1]","[-0.02490784669082299,0.06033898804722291]","[-1,-1,-1]","[-0.0849484894335949,0.12012618711910224]","[-1,-1,-1]","[-0.07430173850818952,0.07540513005242822]","[1,1,1]","[-0.017561741440038428,0.1621145687061179]","[-1,-1,-1]","[0.11897751775644634,-0.06449555936387151]","[-1,-1,-1]","[0.18222227804893598,-0.05930386754009765]","[-1,-1,-1]","[-0.020089963010159757,-0.06714202433647884]","[1,1,1]","[-0.09800346981181364,-0.006393756334685238]","[1,1,1]","[-0.16765001521985218,-0.051196362803961386]","[-1,-1,-1]","[-0.0325123385484331,0.12241561075797724]","[-1,-1,-1]","[-0.06007684998170897,-0.09810735053942464]","[-1,-1,-1]","[-0.06374074751210512,0.15533483941106718]","[1,1,1]","[-0.18523093238876082,-0.01323611986166317]","[1,1,1]","[0.07521854694821072,0.15524064993476946]","[1,1,1]","[-0.07295072741662445,0.03184255140612375]","[1,1,1]","[0.1269710740991173,-0.11383471111234272]","[-1,-1,-1]","[0.03491136310207326,-0.12173480596353008]","[1,1,1]","[-0.1492027906174853,-0.11207576131073588]","[-1,-1,-1]","[0.010466753462240477,0.10148827081756862]","[-1,-1,-1]","[0.08377866340652394,-0.14572413795311268]","[1,1,1]","[0.02,0.02]",126.8788,0,22,22,137,1,,,,,,,
,,,,,,,675d61c63a00cb308be414f7,682f0fbf903a3fea600b7c8b,2025-05-22_13h00.49.643,cuing_paradigm_dot,2024.1.5,Win32,60.60606061,682d573fa47f1360d1451895,,,,,,,,,,,126.88,127.3786,,,127.6287,127.9606,left,,,,,,,,0.9,0.3027,,,,,,,127.3787,127.6286,127.9606,"[-0.0413938629367773,0.034435531202901236]","[1,1,1]","[-0.0753506927777664,0.08999081797411138]","[1,1,1]","[-0.09374487093752022,0.1620149793671659]","[1,1,1]","[0.03963888478663042,0.017594063476663743]","[1,1,1]","[0.038194366472448664,0.07482312755667958]","[1,1,1]","[0.027167260654802322,-0.04527540072037672]","[1,1,1]","[0.012107146142410955,0.19475636795321252]","[1,1,1]","[0.11432658183763858,-0.13396672869701032]","[1,1,1]","[-0.18438026856623504,-0.03027338499567211]","[1,1,1]","[-0.06819249706078234,-0.006384047074642107]","[1,1,1]","[0.09460704786145882,0.12950274971323936]","[1,1,1]","[-0.09001457564789696,0.050153638814579855]","[-1,-1,-1]","[0.04933876237441469,0.12016885730413805]","[1,1,1]","[-0.12275004644579894,0.10188575860352313]","[1,1,1]","[0.016942572586844108,-0.1822176416274838]","[1,1,1]","[0.09142625269785624,-0.17461007092852202]","[1,1,1]","[-0.03687591222814793,-0.09846130080197064]","[1,1,1]","[-0.008773869250882539,0.10414785318076672]","[-1,-1,-1]","[0.15530465131952426,-0.029031722536171877]","[1,1,1]","[-0.15871461884608812,0.004438175271912897]","[1,1,1]","[0.12992531832745563,0.04613255582911268]","[1,1,1]","[-0.13258683279735467,-0.12011460649152109]","[1,1,1]","[0.007049811507692288,-0.11203073012433833]","[1,1,1]","[-0.08232337606670881,-0.08917969485122672]","[1,1,1]","[-0.043190890258293466,-0.05382144413088682]","[1,1,1]","[0.16724340062936854,0.019640073454577103]","[-1,-1,-1]","[0.11303585173497542,-0.08277788477095177]","[1,1,1]","[-0.17121384018808625,-0.06833612874506141]","[1,1,1]","[0.0032692797104119605,0.04621240286053859]","[1,1,1]","[0.0673996840804777,0.16543037643238287]","[1,1,1]","[0.1897133392537732,0.05279562627735298]","[1,1,1]","[0.09535849781541693,0.07856719907295599]","[1,1,1]","[0.02,0.02]",129.0602,0,23,23,209,1,,,,,,,
,,,,,,,675d61c63a00cb308be414f7,682f0fbf903a3fea600b7c8b,2025-05-22_13h00.49.643,cuing_paradigm_dot,2024.1.5,Win32,60.60606061,682d573fa47f1360d1451895,,,,,,,,,,,129.0609,129.5599,,,129.815,130.1423,left,,,,,,,,0.9,0.3104,,,,,,,129.56,129.8149,130.1424,"[-0.19016782447726835,-0.015953861060797533]","[1,1,1]","[-0.04530012061958889,-0.08693064556468509]","[1,1,1]","[-0.11915734144704175,0.14446091120874627]","[1,1,1]","[0.09523141460894989,-0.04495620860818658]","[-1,-1,-1]","[-0.05273806312460302,0.13608160256860075]","[1,1,1]","[-0.04297698198915538,0.06656121873778492]","[1,1,1]","[0.12992428608878093,0.0004277240877375583]","[1,1,1]","[0.0012472367973584094,0.05201230261449279]","[1,1,1]","[0.13033839924796908,-0.1405109222886598]","[1,1,1]","[0.04997016443439183,-0.029560743784541526]","[1,1,1]","[0.06591021336301789,0.09514863110766592]","[1,1,1]","[-0.1523933729234124,-0.04449399893575641]","[1,1,1]","[0.1691531681152754,-0.037939801296347934]","[1,1,1]","[-0.003353923972136832,-0.16490429048043576]","[1,1,1]","[0.07941871436672715,0.033632338752707644]","[1,1,1]","[-0.15587836885533446,0.04568251090294576]","[1,1,1]","[-0.04400051053917668,-0.18527426369902433]","[1,1,1]","[0.05158905396230868,-0.10055292664095526]","[1,1,1]","[-0.1343366545429438,-0.14024450795568216]","[1,1,1]","[-0.00865786383813637,0.16283614835544305]","[1,1,1]","[-0.1337238506956079,-0.09369078538162605]","[1,1,1]","[-0.06202822778092219,-0.1259308615049679]","[1,1,1]","[0.0392934579684039,0.16430590839690484]","[-1,-1,-1]","[-0.13351037953455278,-0.0004564699331503548]","[1,1,1]","[-0.03221892559872517,-0.024907782091908873]","[1,1,1]","[0.0947330992492106,-0.09556387304899167]","[1,1,1]","[0.1197361066158606,0.1551947713608164]","[1,1,1]","[-0.1698226220901166,0.09039503617412006]","[-1,-1,-1]","[-0.12417231889730708,0.07794691424317789]","[1,1,1]","[-0.10124107633406697,-0.025135904990019848]","[1,1,1]","[0.16430176014715142,0.10259996494383697]","[1,1,1]","[0.002306344090566571,-0.1125774086850051]","[1,1,1]","[0.02,0.02]",131.2414,0,24,24,205,1,,,,,,,
,,,,,,,675d61c63a00cb308be414f7,682f0fbf903a3fea600b7c8b,2025-05-22_13h00.49.643,cuing_paradigm_dot,2024.1.5,Win32,60.60606061,682d573fa47f1360d1451895,,,,,,,,,,,131.2424,131.7409,,,131.9952,132.5727,right,,,,,,,,0.55,0.559,,,,,,,131.741,131.9951,132.5728,"[0.021544745613084944,-0.11711364919394424]","[-1,-1,-1]","[-0.13836463199058718,0.1366529535444247]","[1,1,1]","[0.190624409116721,0.03773347232591103]","[-1,-1,-1]","[-0.09022098854886143,0.10926174428667837]","[1,1,1]","[-0.14075997346308297,0.02429085037449133]","[-1,-1,-1]","[-0.044594787455800144,0.12876584195555352]","[1,1,1]","[-0.15358590689758259,0.0703804240349925]","[1,1,1]","[0.027895604841546028,0.07565599176201937]","[-1,-1,-1]","[-0.06805689569450979,0.18215747321721976]","[-1,-1,-1]","[-0.14204768401655415,-0.13089417925247054]","[1,1,1]","[0.1596346204264992,-0.09163650459286524]","[-1,-1,-1]","[-0.03711078050454382,0.07617094374651974]","[-1,-1,-1]","[0.05444966675177603,0.17373409352187544]","[-1,-1,-1]","[-0.002950533251254846,0.03850506951642202]","[1,1,1]","[-0.10718747553354625,-0.1615950384687935]","[1,1,1]","[-0.08244640521959817,-0.07865974254748466]","[1,1,1]","[-0.1696487946439719,-0.009819762830508423]","[1,1,1]","[0.020546435666294865,0.12396328818119419]","[1,1,1]","[0.10906859024620497,-0.16013490383913911]","[1,1,1]","[0.09211512102953975,-0.11325075331199116]","[-1,-1,-1]","[-0.06593482024213933,-0.11851144578735415]","[1,1,1]","[-0.008294348983133772,-0.15176514489379817]","[1,1,1]","[0.057587294440796764,-0.01604510826164442]","[1,1,1]","[0.15019761448943783,0.005767697484102114]","[-1,-1,-1]","[-0.03213583616687251,-0.03883968126827574]","[1,1,1]","[0.03113721473464115,-0.060338301327558255]","[-1,-1,-1]","[-0.06580349913611722,0.022934593989547142]","[1,1,1]","[-0.10443055276658847,-0.04190446951318563]","[-1,-1,-1]","[0.13885717800300218,0.047783378522949074]","[1,1,1]","[-0.048276622028453994,-0.18702410665738878]","[1,1,1]","[-0.18188911077764064,-0.07523101406088911]","[-1,-1,-1]","[0.16452688973039592,0.09193140997205408]","[-1,-1,-1]","[0.02,0.02]",133.6719,0,25,25,129,1,,,,,,,
,,,,,,,675d61c63a00cb308be414f7,682f0fbf903a3fea600b7c8b,2025-05-22_13h00.49.643,cuing_paradigm_dot,2024.1.5,Win32,60.60606061,682d573fa47f1360d1451895,,,,,,,,,,,133.6728,134.1716,,,134.4252,134.9937,left,,,,,,,,0.55,0.5629,,,,,,,134.1716,134.4252,134.9938,"[-0.062932658083945,-0.08261319966876396]","[-1,-1,-1]","[-0.07345709411824425,-0.13717675554372724]","[1,1,1]","[0.16733052546447372,0.014295017590810432]","[-1,-1,-1]","[0.10813834092577165,-0.005146330444548074]","[-1,-1,-1]","[0.06345554791758935,0.054387342441845433]","[-1,-1,-1]","[0.10831926031860077,-0.064315662601107]","[-1,-1,-1]","[0.19053435529257043,-0.03155113511765947]","[-1,-1,-1]","[0.016582872844120432,0.17709211647905412]","[-1,-1,-1]","[0.07265547021903491,-0.09214099924461872]","[1,1,1]","[0.03414667408607972,0.0035738517384338196]","[1,1,1]","[-0.1159735670571502,-0.05167508782755964]","[-1,-1,-1]","[0.06270877797197016,-0.17797816151669169]","[1,1,1]","[0.12708444857785506,-0.1353663688867395]","[1,1,1]","[0.012869706974845926,-0.03431120396287644]","[1,1,1]","[0.12986059825739285,0.05805113073354329]","[-1,-1,-1]","[-0.15889664649307936,-0.11483832672179992]","[1,1,1]","[0.09973025287599997,0.14099128365771443]","[1,1,1]","[-0.1783507178702653,0.04009779390357556]","[1,1,1]","[-0.15150877183173236,-0.024145308795135326]","[1,1,1]","[-0.02909739012614263,0.17917857781076332]","[1,1,1]","[-0.017702573752422252,-0.14148161965434272]","[1,1,1]","[-0.07909422803934393,0.015194204549656322]","[1,1,1]","[-0.10200492362711573,-0.1013457683575916]","[-1,-1,-1]","[0.14707558364379772,0.11088149232122584]","[-1,-1,-1]","[-0.07822517857272511,0.07177107454435334]","[1,1,1]","[-0.14486077903421143,0.11180702523521674]","[-1,-1,-1]","[-0.12256694584935465,0.019276109691608204]","[1,1,1]","[-0.058422615458208815,0.1414245028245157]","[-1,-1,-1]","[0.07385758358835219,0.10657716319294587]","[-1,-1,-1]","[-0.008556385825236407,0.13536332282632935]","[1,1,1]","[0.03671207939445015,-0.0664995146046123]","[1,1,1]","[-0.13241715299520393,0.07331056867933945]","[1,1,1]","[0.02,0.02]",136.087,0,26,26,123,1,,,,,,,
,,,,,,,675d61c63a00cb308be414f7,682f0fbf903a3fea600b7c8b,2025-05-22_13h00.49.643,cuing_paradigm_dot,2024.1.5,Win32,60.60606061,682d573fa47f1360d1451895,,,,,,,,,,,136.0879,136.586,,,136.8257,137.8017,right,,,,,,,,0.45,0.9525,,,,,,,136.586,136.8256,137.8018,"[-0.09701782808571381,-0.16670767483690704]","[1,1,1]","[0.04332203593560449,-0.11585988927143691]","[-1,-1,-1]","[-0.04023210728262154,-0.18933565594141055]","[-1,-1,-1]","[-0.09932186859119672,-0.0885118996932957]","[1,1,1]","[0.10518578234307231,0.12581331866062012]","[1,1,1]","[-0.06532452119752889,0.044914838677729524]","[1,1,1]","[-0.03453406313783418,-0.029907502991376844]","[1,1,1]","[0.13411533744296764,0.05727011569838611]","[-1,-1,-1]","[-0.16983284556094957,-0.04484447227268726]","[-1,-1,-1]","[0.12381802589703146,-0.04494408775632278]","[-1,-1,-1]","[0.1845875090449599,0.03009379637642978]","[-1,-1,-1]","[0.14502120594471143,-0.08033684146268187]","[-1,-1,-1]","[0.08977003234804003,-0.11184160805643736]","[-1,-1,-1]","[-0.13821777737443214,-0.00038855175892620183]","[-1,-1,-1]","[0.008451430735289426,0.07152097325972781]","[1,1,1]","[0.11954916128420265,-0.1551150013024906]","[-1,-1,-1]","[0.08891997919974791,0.05790157864466805]","[1,1,1]","[0.05403239501199205,0.16625717578301477]","[1,1,1]","[0.05349842619831691,0.0008901986081347117]","[1,1,1]","[-0.12245567051419484,0.1262989145565408]","[-1,-1,-1]","[0.015098241530586053,-0.1523713951340918]","[-1,-1,-1]","[0.07288995790907633,-0.061360242570178934]","[1,1,1]","[-0.12893777973569337,0.07797404694078787]","[-1,-1,-1]","[-0.0850153505050556,-0.015096752369610273]","[1,1,1]","[-0.17416486882902277,-0.08738287617562893]","[-1,-1,-1]","[-0.0997416664622853,0.023884434296403547]","[1,1,1]","[-0.04038091319122367,0.012967491289855084]","[-1,-1,-1]","[-0.0118312337011535,0.18859068005114638]","[-1,-1,-1]","[0.007686086408738603,-0.0008964470980022669]","[-1,-1,-1]","[-0.16192125436119797,0.036904016731250405]","[-1,-1,-1]","[-0.08577914329804696,0.16546572283903155]","[1,1,1]","[0.03220700820311263,0.12169679293355425]","[1,1,1]","[0.02,0.02]",138.9006,0,27,27,88,1,,,,,,,
,,,,,,,675d61c63a00cb308be414f7,682f0fbf903a3fea600b7c8b,2025-05-22_13h00.49.643,cuing_paradigm_dot,2024.1.5,Win32,60.60606061,682d573fa47f1360d1451895,,,,,,,,,,,138.9012,139.3997,,,139.65,140.0501,right,,,,,,,,0.4,0.3759,,,,,,,139.3997,139.6499,140.0501,"[-0.06513671214627002,0.18324429008485993]","[1,1,1]","[0.12152271540567507,0.10511277070364379]","[-1,-1,-1]","[0.02671959572279953,0.06993262219770148]","[1,1,1]","[0.11511051839326063,-0.11522485417366485]","[-1,-1,-1]","[-0.10365914981486325,-0.00841839253131723]","[-1,-1,-1]","[0.14202690803130694,0.049534840524755444]","[-1,-1,-1]","[0.03163714314511503,0.010058074288683168]","[-1,-1,-1]","[0.026431384875927836,-0.17981778951199764]","[1,1,1]","[-0.0980314487368306,-0.1375203711000842]","[-1,-1,-1]","[0.005756708073708679,-0.0483511481777575]","[-1,-1,-1]","[-0.1213791030409524,-0.08111355380487405]","[1,1,1]","[-0.06122054882941622,-0.1798737293436322]","[1,1,1]","[0.18751242827846795,0.008009380966481867]","[1,1,1]","[-0.0711097641473233,0.0808087124818172]","[-1,-1,-1]","[0.07453823914953046,0.0821840484713982]","[-1,-1,-1]","[-0.01829115773201536,-0.15229438413766608]","[1,1,1]","[-0.07112197918331381,0.032076125378984216]","[-1,-1,-1]","[-0.11605587551019177,0.11457342260476695]","[-1,-1,-1]","[-0.0584647267915691,-0.06007365392482174]","[1,1,1]","[0.15232747379378817,-0.06376438426156661]","[1,1,1]","[0.06060447500803206,0.14584911650627055]","[1,1,1]","[0.17488779862508583,0.07368840997269961]","[-1,-1,-1]","[-0.1645149146419731,-0.08725800575795975]","[-1,-1,-1]","[-0.15934785839940724,0.08846372874315592]","[-1,-1,-1]","[-0.1706211259263375,0.04098649201602682]","[-1,-1,-1]","[-0.13153576202502124,0.030827866820395428]","[-1,-1,-1]","[-0.16265626005274475,-0.008053102103737952]","[1,1,1]","[-0.004673875728005029,0.16781477675458356]","[1,1,1]","[0.09601900355569289,-0.059155963035256935]","[1,1,1]","[-0.019337141400587617,0.009291205107033526]","[-1,-1,-1]","[-0.04289753230958347,-0.10354526611309121]","[-1,-1,-1]","[-0.0015544010552772276,0.10797094320201328]","[-1,-1,-1]","[0.02,0.02]",141.1488,0,28,28,36,1,,,,,,,
,,,,,,,675d61c63a00cb308be414f7,682f0fbf903a3fea600b7c8b,2025-05-22_13h00.49.643,cuing_paradigm_dot,2024.1.5,Win32,60.60606061,682d573fa47f1360d1451895,,,,,,,,,,,141.1496,141.6473,,,141.9012,142.4137,left,,,,,,,,0.6,0.4935,,,,,,,141.6474,141.9012,142.4138,"[0.14294411097909338,0.05392446488118023]","[1,1,1]","[-0.1380124318735656,-0.11692158176586309]","[-1,-1,-1]","[0.09838700872858344,-0.15029006006270557]","[1,1,1]","[-0.08985311948268311,-0.05001873246956996]","[1,1,1]","[0.07891438337735883,-0.04756955557928881]","[1,1,1]","[0.015459483610508255,0.07043700250165914]","[-1,-1,-1]","[-0.10509444859430962,0.10922274288998542]","[1,1,1]","[0.0031946419944700855,-0.04446590803055088]","[1,1,1]","[0.07661782254361857,0.1342341220203956]","[1,1,1]","[-0.03561577667435991,-0.021191680849473468]","[1,1,1]","[0.04526538325346091,-0.11158842526682798]","[1,1,1]","[-0.15917458496869674,-0.015025716830429352]","[-1,-1,-1]","[-0.12035928432424171,0.02717564921108581]","[-1,-1,-1]","[0.12444299772403306,0.015910230239390564]","[-1,-1,-1]","[0.002079054539065177,-0.170046612556002]","[1,1,1]","[0.17655833284590072,0.017510416250022382]","[-1,-1,-1]","[-0.148532835133384,-0.06877028437715241]","[1,1,1]","[0.14629119292419313,-0.11529871867211113]","[-1,-1,-1]","[-0.02171914057199475,0.10375516788864782]","[-1,-1,-1]","[-0.09294987405369741,-0.09541325144448645]","[1,1,1]","[-0.124333967971788,0.07052399283180655]","[1,1,1]","[0.004211458133262509,0.00777282429043262]","[1,1,1]","[-0.1977892809822586,-0.003893492895969705]","[1,1,1]","[-0.05361782815864653,0.04108091861729157]","[1,1,1]","[0.022643971007410023,0.1552935133199326]","[-1,-1,-1]","[0.0638631232812745,-0.1721322765581867]","[1,1,1]","[-0.07763607086878549,0.14942633083097354]","[1,1,1]","[0.10472186968119723,0.06945949495581452]","[-1,-1,-1]","[0.1034273408182215,-0.10696033328879456]","[-1,-1,-1]","[0.05563492745615318,0.09913956520828086]","[-1,-1,-1]","[-0.010860320709057052,-0.12547769673018164]","[-1,-1,-1]","[-0.07873256039715416,-0.17200018740817363]","[1,1,1]","[0.02,0.02]",143.5132,0,29,29,177,1,,,,,,,
,,,,,,,675d61c63a00cb308be414f7,682f0fbf903a3fea600b7c8b,2025-05-22_13h00.49.643,cuing_paradigm_dot,2024.1.5,Win32,60.60606061,682d573fa47f1360d1451895,,,,,,,,,,,143.514,144.0127,,,144.2669,144.6112,right,,,,,,,,0.1,0.3202,,,,,,,144.0127,144.2669,144.6113,"[0.01671089342881314,0.06822300233311064]","[-1,-1,-1]","[0.13386704624377616,0.11385333750172622]","[-1,-1,-1]","[-0.10297941434220742,0.08421860334720173]","[-1,-1,-1]","[0.09409477941692602,-0.15707344599522774]","[-1,-1,-1]","[-0.017974041614872552,-0.1211273878945509]","[-1,-1,-1]","[-0.01872309038577806,0.17525981420541584]","[-1,-1,-1]","[0.051736213708202215,-0.1262314291205254]","[-1,-1,-1]","[-0.09890366486873634,0.009692128696137604]","[-1,-1,-1]","[0.10488612123470355,0.022598137825322988]","[1,1,1]","[-0.1863146052871274,-0.058288480854787036]","[-1,-1,-1]","[-0.05602917851944296,-0.18113401195869808]","[-1,-1,-1]","[-0.09559471599346189,-0.04204706752033809]","[-1,-1,-1]","[0.060344549091002196,-0.06394155908243537]","[-1,-1,-1]","[0.10575857305427849,0.16576731658795196]","[1,1,1]","[0.1845491507820267,0.006317215768668739]","[-1,-1,-1]","[-0.002006095051302893,0.13653310461164417]","[-1,-1,-1]","[-0.13185737300905437,-0.09778741713521688]","[-1,-1,-1]","[-0.10195896348276969,-0.13897734826059144]","[-1,-1,-1]","[-0.03924474311291067,0.025322385125804113]","[-1,-1,-1]","[-0.031203067619405868,0.09090811213364777]","[-1,-1,-1]","[0.0010266767827833221,0.027566527147339585]","[-1,-1,-1]","[0.03623613348767885,0.15422949385869775]","[-1,-1,-1]","[-0.16478348434030002,0.03541955808028182]","[-1,-1,-1]","[0.1812289965352098,0.0794010684674939]","[-1,-1,-1]","[0.1695063179007821,-0.09607919376968568]","[-1,-1,-1]","[-0.06593139339364343,0.11988249940225411]","[-1,-1,-1]","[-0.049770935979861444,-0.07700930345750721]","[-1,-1,-1]","[-0.14860867389996515,0.08572143019795853]","[1,1,1]","[-0.09641344953958855,0.15165443834408843]","[-1,-1,-1]","[-0.006017640685269104,-0.16942107024801764]","[-1,-1,-1]","[0.0703683495732835,0.11673507898698485]","[-1,-1,-1]","[0.15998859866886245,-0.0554018672057681]","[-1,-1,-1]","[0.02,0.02]",145.711,0,30,30,17,1,,,,,,,
,,,,,,,675d61c63a00cb308be414f7,682f0fbf903a3fea600b7c8b,2025-05-22_13h00.49.643,cuing_paradigm_dot,2024.1.5,Win32,60.60606061,682d573fa47f1360d1451895,,,,,,,,,,,145.7116,146.2106,,,146.4646,146.8825,left,,,,,,,,0.6,0.3992,,,,,,,146.2107,146.4645,146.8826,"[-0.15359286923736515,0.05686154391302725]","[-1,-1,-1]","[-0.027723075315735556,-0.11029130928001611]","[-1,-1,-1]","[0.11597723951698,-0.14763203696547064]","[1,1,1]","[0.08109627105984091,-0.0403038232761483]","[1,1,1]","[0.13446811483129611,0.07063353325199531]","[-1,-1,-1]","[-0.016100670887068097,0.1840885270428519]","[-1,-1,-1]","[-0.15474203165488282,0.007706597353375816]","[1,1,1]","[-0.12867108269580926,-0.10947728553876425]","[1,1,1]","[-0.03296550500438527,0.01603399718461051]","[1,1,1]","[0.10250626597697357,0.14603338211290046]","[1,1,1]","[-0.0907831023096977,-0.020331506916080884]","[-1,-1,-1]","[-0.0358645487723123,-0.06059069119880434]","[1,1,1]","[-0.0894572876923491,0.11571289134076293]","[1,1,1]","[-0.005651410041244835,0.0569537245145542]","[-1,-1,-1]","[-0.04649914728774292,-0.1699306043164779]","[1,1,1]","[0.011389905698909195,0.11848900508328739]","[-1,-1,-1]","[0.06535518829495761,-0.13339891651057767]","[1,1,1]","[-0.08877702879260832,0.06268627655069155]","[1,1,1]","[0.031118537899672997,-0.18543804997401883]","[1,1,1]","[0.09783560264091049,-0.10599769707967345]","[-1,-1,-1]","[-0.047039360177542636,0.1174384369625641]","[-1,-1,-1]","[0.014494848872429697,-0.11562285740136378]","[1,1,1]","[0.16678294226739196,-0.06451516830909884]","[-1,-1,-1]","[0.1827840665729646,0.034522430240063615]","[1,1,1]","[-0.07561285474222826,0.16964612523930736]","[1,1,1]","[0.0603627282643918,0.03690092395645894]","[1,1,1]","[0.001032019125098927,-0.03374442667581516]","[1,1,1]","[-0.12888901374540107,0.14612461890697057]","[-1,-1,-1]","[0.12517153044910076,-0.022592774871404753]","[1,1,1]","[-0.08535316552790598,-0.0958787548779517]","[-1,-1,-1]","[-0.15685306155708637,-0.07004575492348679]","[1,1,1]","[-0.1429442699495208,0.10716547027217369]","[-1,-1,-1]","[0.02,0.02]",147.9759,0,31,31,168,1,,,,,,,
,,,,,,,675d61c63a00cb308be414f7,682f0fbf903a3fea600b7c8b,2025-05-22_13h00.49.643,cuing_paradigm_dot,2024.1.5,Win32,60.60606061,682d573fa47f1360d1451895,,,,,,,,,,,147.9771,148.4788,,,148.7302,148.981,left,,,,,,,,0.9,0.2441,,,,,,,148.4788,148.7302,148.9811,"[0.06879279701333692,-0.09961429117883022]","[-1,-1,-1]","[-0.07415617093975932,0.019001716649011458]","[1,1,1]","[-0.028310570421571278,0.03846169251463317]","[1,1,1]","[-0.079727340513704,-0.12544717749001014]","[1,1,1]","[0.1067235662251672,-0.04774332987767407]","[1,1,1]","[0.08676246825321209,0.10664135309375199]","[1,1,1]","[-0.11339202879522389,0.009420867493965805]","[1,1,1]","[0.08518614150988932,0.04188532616379855]","[1,1,1]","[-0.098719778658451,-0.04398604022831591]","[1,1,1]","[-0.0917295903494959,0.15394072570957365]","[1,1,1]","[0.18164954514664228,-0.0026848284786056198]","[1,1,1]","[-0.15380566514847432,0.08300298303576883]","[1,1,1]","[0.038014844610510155,0.0810341304709156]","[1,1,1]","[0.17226357889232613,-0.05146290477327328]","[1,1,1]","[0.005791783970804314,-0.08928491436048094]","[1,1,1]","[-0.029962027678592892,-0.011029923333358496]","[1,1,1]","[0.1239664734264771,0.08219930286826017]","[1,1,1]","[0.18931651038333772,0.05431554214296842]","[-1,-1,-1]","[0.03709935631697601,-0.03458514249924047]","[1,1,1]","[0.014811705891530757,0.19340643591700987]","[1,1,1]","[-0.027647348648818543,0.19142792334524983]","[1,1,1]","[0.01725696548014888,0.1171344758101967]","[1,1,1]","[-0.006773216185301872,-0.1943888045143405]","[1,1,1]","[-0.03734850053416606,0.12461945664262514]","[1,1,1]","[-0.13403102368720685,-0.14349997783718535]","[1,1,1]","[-0.1460514116067534,-0.05908425880296423]","[1,1,1]","[0.08643300943006525,-0.160525849826047]","[1,1,1]","[-0.0809823676320641,0.08032028124609562]","[1,1,1]","[-0.015602852181691397,-0.14779098343628672]","[1,1,1]","[0.11255141902999799,0.14387289813495477]","[1,1,1]","[0.11062137356492825,-0.11893874379767712]","[-1,-1,-1]","[-0.019141679943767625,0.0799995336399227]","[1,1,1]","[0.02,0.02]",150.0729,0,32,32,195,1,,,,,,,
,,,,,,,675d61c63a00cb308be414f7,682f0fbf903a3fea600b7c8b,2025-05-22_13h00.49.643,cuing_paradigm_dot,2024.1.5,Win32,60.60606061,682d573fa47f1360d1451895,,,,,,,,,,,150.0737,150.5727,,,150.8273,151.0895,right,,,,,,,,0.1,0.2472,,,,,,,150.5728,150.8273,151.0896,"[0.08337216089446044,-0.05619454831464107]","[-1,-1,-1]","[-0.04327975522624566,0.006501781002762071]","[-1,-1,-1]","[0.15716852818401644,0.104613319875767]","[-1,-1,-1]","[-0.01170801067043652,-0.09332275667723432]","[-1,-1,-1]","[-0.030752590282444942,0.16973588954162336]","[-1,-1,-1]","[0.10889995091193501,0.004554045588585505]","[-1,-1,-1]","[-0.10610950492874828,0.10957230998178634]","[-1,-1,-1]","[-0.09391574202486466,0.05780645895529644]","[-1,-1,-1]","[-0.07285730185319912,0.1844501600158498]","[-1,-1,-1]","[-0.06259476513340799,-0.18149563523839668]","[-1,-1,-1]","[0.11841659256843454,-0.1271129258017481]","[-1,-1,-1]","[0.005199286935476416,0.09037512241390253]","[-1,-1,-1]","[-0.1192877213413648,-0.07295056979838192]","[-1,-1,-1]","[-0.04615807362445667,0.1199528222595147]","[-1,-1,-1]","[-0.08970932583447389,-0.0034926810722908977]","[-1,-1,-1]","[-0.0009921283595846233,-0.17722227097188353]","[-1,-1,-1]","[0.13570226764879248,0.036282378025798076]","[-1,-1,-1]","[-0.11492877798646861,-0.13673306927510298]","[-1,-1,-1]","[0.03486913720888695,-0.07832685285672589]","[-1,-1,-1]","[0.009759649684478618,0.15249050622320057]","[-1,-1,-1]","[-0.1635823063618102,0.05336726760323592]","[-1,-1,-1]","[-0.046966468470456046,0.05252989071637534]","[-1,-1,-1]","[-0.15375209818245072,-0.013288642535763846]","[-1,-1,-1]","[0.1195531519300204,0.14857031725859798]","[-1,-1,-1]","[0.17778932033012543,-0.007993625101704743]","[-1,-1,-1]","[-0.05240981147639684,-0.09022536969132602]","[1,1,1]","[-0.15095463505570314,0.13027487422271475]","[1,1,1]","[0.05785253727151474,-0.13611454002795495]","[-1,-1,-1]","[-0.019843388652273256,-0.04386385250175342]","[-1,-1,-1]","[0.10778283642582219,0.08492420049999685]","[1,1,1]","[-0.17018667716054026,-0.07180850942815191]","[-1,-1,-1]","[0.0639554034317761,0.07748005420231363]","[-1,-1,-1]","[0.02,0.02]",152.1882,0,33,33,23,1,,,,,,,
,,,,,,,675d61c63a00cb308be414f7,682f0fbf903a3fea600b7c8b,2025-05-22_13h00.49.643,cuing_paradigm_dot,2024.1.5,Win32,60.60606061,682d573fa47f1360d1451895,,,,,,,,,,,152.1887,152.6917,,,152.9425,153.1881,left,,,,,,,,0.9,0.2388,,,,,,,152.6917,152.9424,153.1882,"[0.04797794370572396,0.1207959066850843]","[1,1,1]","[0.05354932731183797,-0.18990948232672333]","[1,1,1]","[0.09524281745389658,-0.033106846240951296]","[1,1,1]","[0.034052461764646214,-0.08718332637546135]","[1,1,1]","[0.018209895800226028,-0.15531335161209894]","[-1,-1,-1]","[-0.05399585063124028,0.10638949193810132]","[1,1,1]","[-0.029624114539035885,0.1725103007660845]","[1,1,1]","[-0.055585543250948145,-0.1343354976002505]","[1,1,1]","[0.12113193336235097,-0.08779120534310242]","[-1,-1,-1]","[-0.10115725712284794,0.16575618590491686]","[1,1,1]","[0.11309965479927755,0.11679104449433414]","[-1,-1,-1]","[-0.010957487658372666,-0.0337864787895388]","[1,1,1]","[0.07173392328809873,0.16804921530898093]","[1,1,1]","[-0.1596407751326037,-0.008962852110232629]","[1,1,1]","[-0.015216903362738638,0.12910489287804008]","[1,1,1]","[0.0006001652450307911,0.046359435738969355]","[1,1,1]","[-0.07681378367302698,-0.006433633762803453]","[1,1,1]","[-0.18471087237403075,0.06079218052438158]","[1,1,1]","[0.04336830379996754,-0.03875439047154735]","[1,1,1]","[0.15619397736606,-0.023478890906395638]","[1,1,1]","[-0.047458299274795356,-0.08135135271383616]","[1,1,1]","[-0.07038153224953132,-0.17634138837392285]","[1,1,1]","[0.16228462551851588,-0.10146201355074796]","[1,1,1]","[0.10755936721231675,0.01907044675158001]","[1,1,1]","[-0.16789542872128413,-0.07368418447873053]","[1,1,1]","[-0.1523299483379996,-0.11847655479913993]","[1,1,1]","[-0.0911746598090064,-0.10540625244792963]","[1,1,1]","[-0.13611792971396608,0.037981839221585205]","[1,1,1]","[-0.1405339815730532,0.13412011904162652]","[1,1,1]","[-0.03963022321710843,0.02156823486821029]","[1,1,1]","[0.07481479052730075,-0.07581092787906239]","[1,1,1]","[0.1974092882362588,0.01347441208050978]","[1,1,1]","[0.02,0.02]",154.2865,0,34,34,194,1,,,,,,,
,,,,,,,675d61c63a00cb308be414f7,682f0fbf903a3fea600b7c8b,2025-05-22_13h00.49.643,cuing_paradigm_dot,2024.1.5,Win32,60.60606061,682d573fa47f1360d1451895,,,,,,,,,,,154.2875,154.7859,,,155.0396,155.4515,right,,,,,,,,0.4,0.3959,,,,,,,154.7859,155.0395,155.4516,"[0.0857171852676528,-0.15775115885896318]","[-1,-1,-1]","[-0.11865837335741354,-0.09842934780176345]","[1,1,1]","[0.14920006139998465,-0.12473087998666345]","[1,1,1]","[-0.06255238767367054,-0.06013905640650325]","[1,1,1]","[0.12825892389357194,-0.02078518648850599]","[-1,-1,-1]","[-0.014655664782374076,-0.0663636596407644]","[-1,-1,-1]","[-0.15080210913743827,-0.059462983648378986]","[1,1,1]","[0.013863776066177053,0.19007205059348017]","[1,1,1]","[0.045443451562527944,0.056911205217944134]","[1,1,1]","[-0.025120712844852986,0.07767415583452232]","[-1,-1,-1]","[0.10707671259940374,0.08492337421936749]","[-1,-1,-1]","[-0.07696508674225779,-0.011157451532164925]","[1,1,1]","[-0.17356428455059003,0.09406134832237063]","[-1,-1,-1]","[-0.06028785289792387,-0.1422218178604665]","[-1,-1,-1]","[-0.06511710318540727,0.06283251377742735]","[1,1,1]","[-0.059387147964655426,0.18367302883769965]","[1,1,1]","[0.08190359437501768,0.038161673017518]","[1,1,1]","[-0.16125313660995333,0.03522541789265197]","[-1,-1,-1]","[0.0377006863893011,-0.06991910343078264]","[-1,-1,-1]","[0.018667994997564996,-0.029511323486030486]","[-1,-1,-1]","[-0.009390805095550792,-0.1930502543951293]","[1,1,1]","[-0.12060506917873809,0.11235225726079627]","[1,1,1]","[-0.18329095936886575,-0.0051814041301459935]","[-1,-1,-1]","[-0.10725787785305148,-0.04909043185487618]","[-1,-1,-1]","[0.14159650735568993,0.05012441998518742]","[-1,-1,-1]","[-0.051924022739847565,0.14393919737615976]","[-1,-1,-1]","[0.005934527380417306,0.0215038869193334]","[1,1,1]","[0.019569592790825333,-0.16260188662915717]","[-1,-1,-1]","[0.06291929404911907,0.13466404672295312]","[-1,-1,-1]","[-0.09855714387216544,0.16145396106671395]","[-1,-1,-1]","[-0.12205441708272943,-0.14303216494171112]","[-1,-1,-1]","[0.09152772465361404,-0.057659254358057375]","[-1,-1,-1]","[0.02,0.02]",156.5506,0,35,35,57,1,,,,,,,
,,,,,,,675d61c63a00cb308be414f7,682f0fbf903a3fea600b7c8b,2025-05-22_13h00.49.643,cuing_paradigm_dot,2024.1.5,Win32,60.60606061,682d573fa47f1360d1451895,,,,,,,,,,,156.5513,157.0506,,,157.3058,157.5997,right,,,,,,,,0.4,0.2776,,,,,,,157.0506,157.3058,157.5997,"[0.13346966806252503,0.06881348357097881]","[-1,-1,-1]","[-0.151011789712094,0.0029733668946655446]","[-1,-1,-1]","[-0.08535792494575843,0.1390876404474463]","[-1,-1,-1]","[0.18430036708310382,0.07080682600044692]","[1,1,1]","[0.0848494812088856,0.17711838394736046]","[-1,-1,-1]","[0.1471901452198515,0.0008381825427182379]","[-1,-1,-1]","[-0.04142862849859317,0.15588217236788476]","[1,1,1]","[0.10009802019391721,-0.10776512367629823]","[-1,-1,-1]","[-0.011963545253970134,0.0458891679678386]","[1,1,1]","[-0.13247037420957514,-0.05529235110909575]","[1,1,1]","[0.03876007397264815,-0.10344609375158866]","[1,1,1]","[-0.03624714778562628,-0.17468392169515035]","[1,1,1]","[-0.12315214292453712,0.08377758840020742]","[1,1,1]","[0.04260565974672813,0.15447456909206714]","[1,1,1]","[0.14908661540096993,0.10979384965524114]","[-1,-1,-1]","[0.131103737290611,0.1499935873258245]","[-1,-1,-1]","[0.06595670656673372,-0.1343476425911787]","[-1,-1,-1]","[0.04385242551025322,0.03144254910461038]","[-1,-1,-1]","[0.09991401668738562,-0.058504557637525066]","[-1,-1,-1]","[-0.025775987425012418,-0.12446078308935839]","[1,1,1]","[-0.059339080731418525,0.09385724579835583]","[-1,-1,-1]","[-0.09876934955564404,0.02899533495218438]","[-1,-1,-1]","[-0.1771660851701208,-0.05811320018982325]","[1,1,1]","[-0.13549634911020841,0.12272445618651923]","[-1,-1,-1]","[-0.09961300310140385,-0.08751504487843176]","[-1,-1,-1]","[0.0972219297382428,-0.009760011554127373]","[-1,-1,-1]","[-0.03494836974008314,0.007407747833927777]","[-1,-1,-1]","[0.0887113439446738,0.07806020220001203]","[-1,-1,-1]","[0.1984439205495842,0.021270028207150956]","[1,1,1]","[-0.0670340619575982,-0.05239162993926434]","[-1,-1,-1]","[0.04461954069362633,-0.04786855201870158]","[1,1,1]","[0.03418975714896307,0.10054860251969631]","[1,1,1]","[0.02,0.02]",158.6993,0,36,36,31,1,,,,,,,
,,,,,,,675d61c63a00cb308be414f7,682f0fbf903a3fea600b7c8b,2025-05-22_13h00.49.643,cuing_paradigm_dot,2024.1.5,Win32,60.60606061,682d573fa47f1360d1451895,,,,,,,,,,,158.7001,159.1985,,,159.454,159.6817,right,,,,,,,,0.4,0.2107,,,,,,,159.1986,159.4539,159.6819,"[0.10951612331530658,-0.1561983128061216]","[1,1,1]","[-0.04513856100121025,-0.14096623328722988]","[-1,-1,-1]","[-0.10069726060663785,-0.13507559875605898]","[-1,-1,-1]","[0.04407815102674265,-0.0928027592127003]","[-1,-1,-1]","[-0.009630005301638747,-0.1933153701634846]","[-1,-1,-1]","[0.011975189117201405,0.016373385150882835]","[-1,-1,-1]","[-0.06053447446936837,0.12655741208110516]","[-1,-1,-1]","[-0.004723234812948482,0.15192879072235052]","[1,1,1]","[-0.0992121723869319,-0.026513203422560878]","[-1,-1,-1]","[0.15944803677159256,-0.021174189669440766]","[-1,-1,-1]","[0.08312571130054691,0.029632899889843963]","[-1,-1,-1]","[0.061085705789852084,0.18459163372220244]","[-1,-1,-1]","[0.04332867073340442,0.13020147355512998]","[-1,-1,-1]","[0.16036415354014566,0.05637105365070777]","[1,1,1]","[-0.1766570040953388,-0.022573457256551927]","[1,1,1]","[0.06134895936673891,-0.13592423551863073]","[-1,-1,-1]","[0.1542023576964471,-0.11289065742851274]","[-1,-1,-1]","[-0.05865842933503879,0.18521335615732962]","[-1,-1,-1]","[0.11637745111904142,0.08095763711211282]","[-1,-1,-1]","[-0.05235344814359178,-0.03582224854586366]","[1,1,1]","[0.003063409427218711,0.10004895194768507]","[1,1,1]","[0.11497330178040709,-0.06168128073531957]","[-1,-1,-1]","[-0.147342529150583,0.02023579167562142]","[1,1,1]","[-0.0529655177176371,-0.09658092112155912]","[1,1,1]","[0.1556793088414216,0.1112983617636242]","[-1,-1,-1]","[-0.15921603932583306,0.09068411770044744]","[1,1,1]","[-0.03404555502945802,0.07515712900830443]","[-1,-1,-1]","[-0.14818664837589993,-0.10193376811767545]","[1,1,1]","[-0.06967281998596733,0.026271167430340792]","[1,1,1]","[0.10370660073545415,0.14840023756757587]","[1,1,1]","[-0.1100672424016206,-0.08965965238058705]","[1,1,1]","[0.03249988139825491,0.07260341485251076]","[-1,-1,-1]","[0.02,0.02]",160.7803,0,37,37,56,1,,,,,,,
,,,,,,,675d61c63a00cb308be414f7,682f0fbf903a3fea600b7c8b,2025-05-22_13h00.49.643,cuing_paradigm_dot,2024.1.5,Win32,60.60606061,682d573fa47f1360d1451895,,,,,,,,,,,160.781,161.2797,,,161.5297,161.7787,left,,,,,,,,0.9,0.2212,,,,,,,161.2797,161.5296,161.7788,"[0.12176885698789211,-0.09887951596049538]","[1,1,1]","[-0.07169251554069252,-0.13012579422397674]","[1,1,1]","[0.011170456372262693,0.11750588307772056]","[1,1,1]","[-0.11475825836225759,0.021514505977008748]","[1,1,1]","[0.0650915494459288,0.15861944263422884]","[1,1,1]","[-0.1209081681025956,0.14955781186552491]","[1,1,1]","[0.045857548405993306,-0.06599978400533044]","[1,1,1]","[-0.02317374609687559,0.08883525523384761]","[1,1,1]","[0.00991758213766679,0.057530728152855905]","[1,1,1]","[-0.14987832416968,-0.11420245823074723]","[1,1,1]","[0.1772575423727901,0.08313456558769872]","[1,1,1]","[0.18808738044334128,-0.03645543413305924]","[1,1,1]","[0.17674376609860262,0.02944479249466271]","[1,1,1]","[-0.10904524653544335,-0.14630254460807138]","[1,1,1]","[-0.026415477538583546,-0.1162346104465675]","[1,1,1]","[-0.06058712251021981,0.14818311036624174]","[1,1,1]","[0.11851907760916792,0.08977450450476278]","[1,1,1]","[0.0569593877373652,-0.17433464944170618]","[-1,-1,-1]","[-0.18342039999401263,0.043295356423617405]","[1,1,1]","[0.10488432515749543,-0.1617058189477458]","[-1,-1,-1]","[-0.09595262856353066,-0.014376759264183019]","[1,1,1]","[0.009083862232422564,-0.014000856978458443]","[1,1,1]","[-0.0455969439470867,-0.015040196789147477]","[1,1,1]","[0.0823112571101908,0.07111843203530493]","[1,1,1]","[-0.02157449535188703,-0.19677184145828888]","[1,1,1]","[-0.12368558125296827,0.07835363364302103]","[1,1,1]","[0.09127774895326689,0.12587588645489484]","[1,1,1]","[-0.16924239917591594,0.09688144220106094]","[-1,-1,-1]","[-0.13789571293419076,-0.018640577381683343]","[1,1,1]","[0.06672165513299379,-0.0037143803329309256]","[1,1,1]","[0.027381695263631992,-0.13718536307580875]","[1,1,1]","[0.06129269886199546,-0.10291392295055322]","[1,1,1]","[0.02,0.02]",162.8785,0,38,38,181,1,,,,,,,
,,,,,,,675d61c63a00cb308be414f7,682f0fbf903a3fea600b7c8b,2025-05-22_13h00.49.643,cuing_paradigm_dot,2024.1.5,Win32,60.60606061,682d573fa47f1360d1451895,,,,,,,,,,,162.8794,163.3783,,,163.631,163.8605,left,,,,,,,,0.9,0.2029,,,,,,,163.3784,163.631,163.8606,"[0.02290155570426474,0.042574987761169344]","[1,1,1]","[0.03144237919736548,-0.04391708639790865]","[1,1,1]","[0.12490752038911646,0.10364324085822817]","[1,1,1]","[0.06828736647427104,0.13965169359539206]","[1,1,1]","[0.04736398414074315,-0.11483558820577566]","[1,1,1]","[-0.14423286204345914,0.06325012368226428]","[1,1,1]","[-0.0547871632970177,0.14475690868977584]","[1,1,1]","[0.17269505775227187,0.07122135210103081]","[1,1,1]","[0.12255012895502138,0.04545659052638115]","[1,1,1]","[-0.06648212072272447,0.01394717539093317]","[1,1,1]","[-0.11191412059364958,-0.12164848244104937]","[1,1,1]","[-0.011427734276214983,-0.04582543043780172]","[1,1,1]","[0.0819608841414683,0.1804994683244712]","[1,1,1]","[-0.04047176166108992,-0.10671982939706348]","[1,1,1]","[0.13467967694555377,-0.07171069069131225]","[1,1,1]","[0.10487824836754987,-0.16028864674197152]","[1,1,1]","[0.031602021748936324,0.17994391293906423]","[1,1,1]","[-0.17900251307989756,0.04346360350713184]","[1,1,1]","[-0.01987469240686615,0.01936519417372881]","[1,1,1]","[-0.003133278500654532,0.15157837305071786]","[1,1,1]","[-0.12602135594192562,0.023775285426076015]","[1,1,1]","[-0.03957815011147254,0.07440935453654765]","[-1,-1,-1]","[0.19557726809390769,-0.007550868778108484]","[1,1,1]","[0.04373263468111845,0.08285376884730741]","[1,1,1]","[-0.020347972385191513,-0.1733907188065721]","[1,1,1]","[0.11336153623799473,0.15019109893932092]","[1,1,1]","[-0.08343357441329285,-0.17394788845436185]","[1,1,1]","[-0.1231105461077287,0.1351907621306679]","[1,1,1]","[-0.17953366525545641,-0.0014135509847919717]","[1,1,1]","[-0.052479935872276055,0.18796215985567058]","[-1,-1,-1]","[0.046028994722279594,-0.0027731193632055257]","[-1,-1,-1]","[-0.07559048839314114,-0.07686854627074638]","[1,1,1]","[0.02,0.02]",164.9602,0,39,39,184,1,,,,,,,
,,,,,,,675d61c63a00cb308be414f7,682f0fbf903a3fea600b7c8b,2025-05-22_13h00.49.643,cuing_paradigm_dot,2024.1.5,Win32,60.60606061,682d573fa47f1360d1451895,,,,,,,,,,,164.961,165.4637,,,165.7088,165.8754,right,,,,,,,,0.6,0.1584,,,,,,,165.4638,165.7088,165.8754,"[0.030295736446361406,-0.0958169950652836]","[1,1,1]","[-0.14771332893223654,-0.03501929536993267]","[1,1,1]","[-0.1252343873277805,-0.06867336608499731]","[-1,-1,-1]","[0.020059527325331707,0.0726932561932253]","[1,1,1]","[-0.1289803167550485,0.061412994226475094]","[-1,-1,-1]","[0.10673618222872207,-0.016476669838769366]","[1,1,1]","[0.021077703971989555,-0.0440168496911502]","[1,1,1]","[-0.0571465380664901,-0.015099696796336909]","[1,1,1]","[-0.05778973770096617,-0.16148424280545584]","[-1,-1,-1]","[-0.02032311733651429,0.18208297030382187]","[-1,-1,-1]","[0.09348347216692197,-0.07054409203515218]","[1,1,1]","[-0.03581249448986835,0.0722556772573216]","[1,1,1]","[-0.0709982020121058,0.1062151696641014]","[-1,-1,-1]","[0.15362907694910913,-0.006815509154373231]","[1,1,1]","[0.04808479454544084,-0.15364877812347275]","[1,1,1]","[0.151732744007088,0.11724852800148887]","[1,1,1]","[0.06764325770703003,0.1604015411621754]","[1,1,1]","[-0.0260218031896218,-0.10119381956578458]","[-1,-1,-1]","[0.13725588302820296,0.06799260956752935]","[1,1,1]","[0.11805895748389987,0.14818828146492247]","[1,1,1]","[-0.07166670592510532,-0.05350081885567144]","[-1,-1,-1]","[0.08644814538964833,-0.11924128735491826]","[-1,-1,-1]","[-0.16169008189585432,0.02508269341114604]","[1,1,1]","[0.17660464354669944,-0.05106587316640057]","[1,1,1]","[-0.11595571911058968,-0.0029768884557467637]","[-1,-1,-1]","[0.0008519939414968439,0.11198151728357475]","[1,1,1]","[0.1388589883454362,-0.07612463352117771]","[1,1,1]","[-0.08338939627948562,-0.1011170475281363]","[-1,-1,-1]","[-0.15807381534137985,-0.10294025032519621]","[1,1,1]","[0.07564868675070917,0.03992266972710123]","[-1,-1,-1]","[-0.12916967457147194,0.12177377137019949]","[-1,-1,-1]","[0.1333279401383971,-0.14364607366822782]","[-1,-1,-1]","[0.02,0.02]",166.9737,0,40,40,166,1,,,,,,,
,,,,,,,675d61c63a00cb308be414f7,682f0fbf903a3fea600b7c8b,2025-05-22_13h00.49.643,cuing_paradigm_dot,2024.1.5,Win32,60.60606061,682d573fa47f1360d1451895,,,,,,,,,,,166.9744,167.474,,,167.7272,168.0894,right,,,,,,,,0.55,0.3537,,,,,,,167.4741,167.7271,168.0894,"[-0.011714088664701014,0.016795161014353372]","[-1,-1,-1]","[-0.06246661794697385,-0.16008334488430562]","[1,1,1]","[0.013571554794241738,-0.0714477560374787]","[1,1,1]","[0.08916506506612108,0.04306415130204149]","[1,1,1]","[-0.15177522701478582,0.09252085119620031]","[1,1,1]","[-0.08550790041348542,0.03752203651564938]","[1,1,1]","[0.01774079907457824,-0.1977051412017253]","[-1,-1,-1]","[-0.04421144622645719,0.16829829708294178]","[1,1,1]","[0.12761109042211446,-0.11297862063490414]","[1,1,1]","[-0.07731155858105239,-0.07461017751979884]","[-1,-1,-1]","[-0.1313721542125856,-0.07279844514219729]","[-1,-1,-1]","[0.030231137577013595,-0.15120789886429184]","[1,1,1]","[-0.015897258346239167,0.07319364639594639]","[1,1,1]","[0.030947090965119557,0.057988055244724265]","[-1,-1,-1]","[0.01599123550182531,0.17730132141303612]","[-1,-1,-1]","[-0.109824974510803,-0.007738171071345036]","[1,1,1]","[0.14864254210066094,-0.04262965127374354]","[-1,-1,-1]","[-0.05076468429208849,-0.12028185527484489]","[1,1,1]","[-0.027855160168548665,-0.03467351785181563]","[-1,-1,-1]","[0.08661194924873682,0.08516776133842731]","[-1,-1,-1]","[0.18472427727468238,0.0071401688452559795]","[1,1,1]","[0.021771855696472144,0.11329765836318727]","[-1,-1,-1]","[-0.16122354019142918,0.0008353096151514877]","[-1,-1,-1]","[0.1354683691139907,0.050788032452400614]","[-1,-1,-1]","[-0.1775443900843524,0.04971080501901861]","[1,1,1]","[0.10186214752268323,-0.01523379157850791]","[-1,-1,-1]","[-0.14450462018573337,-0.131756390578481]","[1,1,1]","[0.07307407148643802,-0.04569977926137178]","[1,1,1]","[-0.1107037186679139,0.09631653864011967]","[1,1,1]","[0.04355421427008165,-0.10190008057287554]","[1,1,1]","[-0.0988064692861639,0.13878950877030308]","[-1,-1,-1]","[-0.10200616862874529,-0.11939573547412981]","[1,1,1]","[0.02,0.02]",169.1879,0,41,41,142,1,,,,,,,
,,,,,,,675d61c63a00cb308be414f7,682f0fbf903a3fea600b7c8b,2025-05-22_13h00.49.643,cuing_paradigm_dot,2024.1.5,Win32,60.60606061,682d573fa47f1360d1451895,,,,,,,,,,,169.1882,169.6905,,,169.942,170.3702,left,,,,,,,,0.55,0.4049,,,,,,,169.6906,169.942,170.3702,"[-0.012734659326020118,0.13399376328102358]","[1,1,1]","[-0.08639873227829982,-0.01003732439631078]","[-1,-1,-1]","[-0.05895138355806702,-0.0987953914080606]","[1,1,1]","[-0.09297512292838246,-0.1621190023196434]","[1,1,1]","[-0.011194365957454088,0.04279886186876153]","[-1,-1,-1]","[0.17882508610631964,-0.029735526592559056]","[1,1,1]","[0.08167309876837703,0.0007591344687371286]","[1,1,1]","[0.12006011229805523,0.10090347938878913]","[1,1,1]","[0.08480165488431385,-0.10692495837360487]","[1,1,1]","[-0.10075074581989862,0.03815180711910667]","[-1,-1,-1]","[-0.1539683431411091,-0.1053408556327341]","[-1,-1,-1]","[-0.1775546642305554,-0.0336904689221238]","[1,1,1]","[-0.07705108180508904,0.15056928521362536]","[1,1,1]","[0.033429534655090486,0.1906809011103167]","[-1,-1,-1]","[0.1300890003012402,-0.01793306963868704]","[1,1,1]","[0.0249428295833036,-0.028616647638152592]","[-1,-1,-1]","[-0.16882257449800905,0.08395452091926132]","[1,1,1]","[-0.011246209966361937,-0.16944615930935994]","[1,1,1]","[0.16859225138238396,0.03585145820622724]","[-1,-1,-1]","[-0.11637619986337888,0.16049011283491138]","[-1,-1,-1]","[-0.02639580320025185,-0.05556526393991]","[-1,-1,-1]","[0.10520740304006629,0.13955691682027097]","[1,1,1]","[-0.012216858179044846,-0.09474875516490071]","[1,1,1]","[-0.12396829744524093,0.10099196728300512]","[1,1,1]","[-0.15773744582655394,0.004879738297465422]","[-1,-1,-1]","[-0.039167762093486734,-0.012277470248670107]","[1,1,1]","[-0.039673327203975206,0.1747747071024044]","[1,1,1]","[0.0828262982028077,-0.05003400789629384]","[-1,-1,-1]","[0.10754780215220962,0.052158705054553466]","[-1,-1,-1]","[-0.11292055857591005,-0.045776483760816264]","[-1,-1,-1]","[-0.06114416360340146,0.06049565939254921]","[1,1,1]","[-0.025501408482342194,0.08416718128220325]","[-1,-1,-1]","[0.02,0.02]",171.473,0,42,42,147,1,,,,,,,
,,,,,,,675d61c63a00cb308be414f7,682f0fbf903a3fea600b7c8b,2025-05-22_13h00.49.643,cuing_paradigm_dot,2024.1.5,Win32,60.60606061,682d573fa47f1360d1451895,,,,,,,,,,,171.4732,171.9695,,,172.2218,172.7059,right,,,,,,,,0.1,0.4663,,,,,,,171.9695,172.2218,172.706,"[-0.15182135366661126,-0.061355888221192506]","[-1,-1,-1]","[-0.07634448807328134,0.04642242978184571]","[-1,-1,-1]","[0.10788692774740816,0.12780452078630744]","[-1,-1,-1]","[0.05417313003558664,-0.12707740390044658]","[-1,-1,-1]","[0.18343364482166707,0.0780320436969489]","[-1,-1,-1]","[-0.08025301107477996,-0.07126405231801809]","[-1,-1,-1]","[0.11498079032274788,-0.14646000790048647]","[-1,-1,-1]","[0.06599577655978194,0.1605941706329882]","[-1,-1,-1]","[0.10648491255023557,-0.050486691144640994]","[-1,-1,-1]","[-0.08984381482585417,0.12235538407391014]","[-1,-1,-1]","[-0.13089289312728833,0.11017292561848636]","[-1,-1,-1]","[-0.04800719320094711,-0.17205212470527406]","[-1,-1,-1]","[-0.11363383050306737,-0.033662145535249856]","[-1,-1,-1]","[-0.12315939989221109,-0.14897032294895696]","[-1,-1,-1]","[0.07973796449701893,-0.001701525691149888]","[1,1,1]","[0.0002510191498046055,-0.18630076558250572]","[-1,-1,-1]","[0.15763258694983012,-0.09312495805682539]","[1,1,1]","[0.1317942059878517,-0.006783260830682933]","[1,1,1]","[-0.0491756908000561,-0.09970835557302743]","[-1,-1,-1]","[0.08461889729682945,0.038519917540644724]","[-1,-1,-1]","[-0.08363612628313453,0.17236751484172827]","[-1,-1,-1]","[0.003312990034715749,-0.052196665414742945]","[-1,-1,-1]","[-0.1535549073502258,-0.1155935094555678]","[-1,-1,-1]","[0.003227670898621105,0.049762458695581574]","[-1,-1,-1]","[0.060302122409726884,0.08355037014816055]","[-1,-1,-1]","[-0.02680989951073549,0.09148471492387972]","[-1,-1,-1]","[0.04876889052710084,-0.05642670624266139]","[-1,-1,-1]","[0.1305272194577945,0.054161663415088074]","[-1,-1,-1]","[0.008589555840421599,0.17345566904542714]","[-1,-1,-1]","[-0.024632909624780246,0.006326730248637187]","[-1,-1,-1]","[0.1478888501003868,0.12410407949702137]","[-1,-1,-1]","[0.1154019760343322,-0.09627667804034383]","[-1,-1,-1]","[0.02,0.02]",173.8001,0,43,43,27,1,,,,,,,
,,,,,,,675d61c63a00cb308be414f7,682f0fbf903a3fea600b7c8b,2025-05-22_13h00.49.643,cuing_paradigm_dot,2024.1.5,Win32,60.60606061,682d573fa47f1360d1451895,,,,,,,,,,,173.8003,174.3002,,,174.5504,174.934,left,,,,,,,,0.6,0.3508,,,,,,,174.3004,174.5503,174.9341,"[0.11435980727307492,0.03283966914467031]","[1,1,1]","[-0.1818397659253529,-0.039480524552483555]","[1,1,1]","[0.11881497674283996,-0.027604248294688567]","[-1,-1,-1]","[-0.12273571859296446,0.041762470760366724]","[-1,-1,-1]","[-0.12649239730600492,0.1300589352182361]","[-1,-1,-1]","[0.0610109785205703,0.023234124864700667]","[-1,-1,-1]","[-0.0399956468990897,0.14503078791693721]","[-1,-1,-1]","[0.11732629433175906,0.08227431233739166]","[1,1,1]","[-0.08117072911066218,-0.1496520139914049]","[1,1,1]","[-0.04864695519035826,0.06144579370134061]","[-1,-1,-1]","[0.03957941114076442,-0.10342071419587118]","[1,1,1]","[0.011552162475622354,0.023919931993193904]","[1,1,1]","[0.1801699774717086,-0.04563366666325351]","[1,1,1]","[-0.0396516958369466,-0.14264556669018366]","[1,1,1]","[0.18894097112712327,0.016037023172406614]","[1,1,1]","[0.11110544154111807,-0.10597021904321964]","[1,1,1]","[-0.03302823843489453,-0.027075884833918967]","[-1,-1,-1]","[0.00018381653308781483,0.13856198246104334]","[-1,-1,-1]","[-0.04557724717079601,-0.19158383082238067]","[-1,-1,-1]","[0.025092339930770275,0.102876037075662]","[-1,-1,-1]","[-0.005692619364240059,0.07031993972634276]","[-1,-1,-1]","[-0.17181105351245732,0.0690999073919114]","[1,1,1]","[-0.019945607147948616,-0.09826147034619315]","[1,1,1]","[0.09238818086981355,-0.07010594134575684]","[1,1,1]","[-0.08674799683843538,0.008900271116161982]","[-1,-1,-1]","[0.14457338889817142,0.13016537523628474]","[1,1,1]","[0.05157692590363147,-0.15797742825708505]","[1,1,1]","[-0.12587370421476066,-0.11339099787528892]","[1,1,1]","[-0.09591902082922055,0.09666207192183267]","[-1,-1,-1]","[-0.14674437974922724,0.004236098924334308]","[1,1,1]","[0.08186089347601805,0.1427764965907151]","[1,1,1]","[-0.13375646801287547,-0.03888029947939878]","[1,1,1]","[0.02,0.02]",176.0326,0,44,44,153,1,,,,,,,
