right,left,explain.started,explain.stopped,key_resp_3.keys,key_resp_3.rt,key_resp_3.duration,participant,session,date,expName,psychopyVersion,OS,frameRate,study_id,explain_2.started,explain_2.stopped,key_resp_4.keys,key_resp_4.rt,key_resp_4.duration,explain_3.started,explain_3.stopped,key_resp_5.keys,key_resp_5.rt,key_resp_5.duration,fixation.started,fixation.stopped,practice.started,practice.stopped,response.started,response.stopped,key_resp.keys,key_resp.rt,key_resp.duration,feedback.started,feedback.stopped,trials_2.thisRepN,trials_2.thisTrialN,trials_2.thisN,trials_2.thisIndex,trials_2.ran,white_ratio,explain_4.started,explain_4.stopped,key_resp_6.keys,key_resp_6.rt,key_resp_6.duration,dotDisplay.started,dotDisplay.stopped,ITI.started,polygon_1.pos,polygon_1.color,polygon_2.pos,polygon_2.color,polygon_3.pos,polygon_3.color,polygon_4.pos,polygon_4.color,polygon_5.pos,polygon_5.color,polygon_6.pos,polygon_6.color,polygon_7.pos,polygon_7.color,polygon_8.pos,polygon_8.color,polygon_9.pos,polygon_9.color,polygon_10.pos,polygon_10.color,polygon_11.pos,polygon_11.color,polygon_12.pos,polygon_12.color,polygon_13.pos,polygon_13.color,polygon_14.pos,polygon_14.color,polygon_15.pos,polygon_15.color,polygon_16.pos,polygon_16.color,polygon_17.pos,polygon_17.color,polygon_18.pos,polygon_18.color,polygon_19.pos,polygon_19.color,polygon_20.pos,polygon_20.color,polygon_21.pos,polygon_21.color,polygon_22.pos,polygon_22.color,polygon_23.pos,polygon_23.color,polygon_24.pos,polygon_24.color,polygon_25.pos,polygon_25.color,polygon_26.pos,polygon_26.color,polygon_27.pos,polygon_27.color,polygon_28.pos,polygon_28.color,polygon_29.pos,polygon_29.color,polygon_30.pos,polygon_30.color,polygon_31.pos,polygon_31.color,polygon_32.pos,polygon_32.color,dot_size,ITI.stopped,trials.thisRepN,trials.thisTrialN,trials.thisN,trials.thisIndex,trials.ran,break_2.started,break_2.stopped,trials_3.thisRepN,trials_3.thisTrialN,trials_3.thisN,trials_3.thisIndex,trials_3.ran
subject chose black,subject chose white,0.0004,88.0631,space,73.0397,,67668ecc7d364b41006a474d,682f0ffa17108db496e2597a,2025-05-22_12h56.48.049,cuing_paradigm_dot,2024.1.5,Win32,29.94011976,682d573fa47f1360d1451895,,,,,,,,,,,,,,,,,,,,,,,,,,,,,,,,,,,,,,,,,,,,,,,,,,,,,,,,,,,,,,,,,,,,,,,,,,,,,,,,,,,,,,,,,,,,,,,,,,,,,,,,,,,,,,,,,
,,,,,,,67668ecc7d364b41006a474d,682f0ffa17108db496e2597a,2025-05-22_12h56.48.049,cuing_paradigm_dot,2024.1.5,Win32,29.94011976,682d573fa47f1360d1451895,88.0644,147.7928,space,29.678,,,,,,,,,,,,,,,,,,,,,,,,,,,,,,,,,,,,,,,,,,,,,,,,,,,,,,,,,,,,,,,,,,,,,,,,,,,,,,,,,,,,,,,,,,,,,,,,,,,,,,,,,,,,,
,,,,,,,67668ecc7d364b41006a474d,682f0ffa17108db496e2597a,2025-05-22_12h56.48.049,cuing_paradigm_dot,2024.1.5,Win32,29.94011976,682d573fa47f1360d1451895,,,,,,147.7931,153.7588,space,2.9301,,,,,,,,,,,,,,,,,,,,,,,,,,,,,,,,,,,,,,,,,,,,,,,,,,,,,,,,,,,,,,,,,,,,,,,,,,,,,,,,,,,,,,,,,,,,,,,,,,,,,,,,
,,,,,,,67668ecc7d364b41006a474d,682f0ffa17108db496e2597a,2025-05-22_12h56.48.049,cuing_paradigm_dot,2024.1.5,Win32,29.94011976,682d573fa47f1360d1451895,,,,,,,,,,,153.7978,154.2921,154.2931,154.5258,154.5262,155.1256,right,0.5454,,155.126,156.2251,0,0,0,1,1,0.2,,,,,,,,,,,,,,,,,,,,,,,,,,,,,,,,,,,,,,,,,,,,,,,,,,,,,,,,,,,,,,,,,,,,,,,,,,,,,,,,,,,,,,
,,,,,,,67668ecc7d364b41006a474d,682f0ffa17108db496e2597a,2025-05-22_12h56.48.049,cuing_paradigm_dot,2024.1.5,Win32,29.94011976,682d573fa47f1360d1451895,,,,,,,,,,,156.2269,156.7245,156.7246,156.959,156.9591,157.4574,left,0.4781,,157.4577,158.5578,0,1,1,0,1,0.8,,,,,,,,,,,,,,,,,,,,,,,,,,,,,,,,,,,,,,,,,,,,,,,,,,,,,,,,,,,,,,,,,,,,,,,,,,,,,,,,,,,,,,
,,,,,,,67668ecc7d364b41006a474d,682f0ffa17108db496e2597a,2025-05-22_12h56.48.049,cuing_paradigm_dot,2024.1.5,Win32,29.94011976,682d573fa47f1360d1451895,,,,,,,,,,,,,,,,,,,,,,,,,,,,158.5589,170.991,space,9.4176,,,,,,,,,,,,,,,,,,,,,,,,,,,,,,,,,,,,,,,,,,,,,,,,,,,,,,,,,,,,,,,,,,,,,,,,,,,,,,,,,,
,,,,,,,67668ecc7d364b41006a474d,682f0ffa17108db496e2597a,2025-05-22_12h56.48.049,cuing_paradigm_dot,2024.1.5,Win32,29.94011976,682d573fa47f1360d1451895,,,,,,,,,,,171.0208,171.5238,,,171.7591,172.4235,right,0.6446,,,,,,,,,0.1,,,,,,171.5248,171.759,172.4245,"[-0.011654376298597939,-0.17193482139714797]","[-1,-1,-1]","[-0.14295428799700297,0.009147080559357711]","[-1,-1,-1]","[-0.06336742986828199,0.11319605568500417]","[-1,-1,-1]","[0.07040545087071179,-0.06315003832495886]","[-1,-1,-1]","[0.13119666941343508,-0.13940845205309121]","[-1,-1,-1]","[0.040961879228846095,-0.09421868373441038]","[-1,-1,-1]","[-0.14591829024869601,0.08802808291352149]","[-1,-1,-1]","[-0.02238170948658479,-0.07339424666955674]","[-1,-1,-1]","[-0.07264094003368274,-0.05112177143153762]","[-1,-1,-1]","[0.1882472643491367,0.047844337070237046]","[-1,-1,-1]","[0.031076296860018764,0.14405077902165553]","[-1,-1,-1]","[0.09898513978188334,0.0016144964180328351]","[1,1,1]","[0.19743704916429902,-0.0056075324451579246]","[1,1,1]","[0.03877998638416589,0.09694748229593068]","[-1,-1,-1]","[-0.13256839154729488,-0.14751218932595087]","[-1,-1,-1]","[-0.08327331926994683,0.15185618369566664]","[-1,-1,-1]","[-0.18826491305461598,-0.009640339410101941]","[-1,-1,-1]","[-0.17059942832196504,0.04512869960109387]","[-1,-1,-1]","[0.14586236873799086,0.07239524235251926]","[-1,-1,-1]","[-0.13598967089997596,-0.04626969637154181]","[-1,-1,-1]","[0.057697228197801195,-0.1513371574439324]","[-1,-1,-1]","[0.08635203925425945,0.07342114231793205]","[-1,-1,-1]","[-0.13626806305255998,-0.09584251081764328]","[-1,-1,-1]","[0.13202483918813127,0.11257065403693614]","[-1,-1,-1]","[0.14699614264839445,0.01004383770956137]","[-1,-1,-1]","[0.08169355428795926,0.17442747434281766]","[1,1,1]","[-0.008867552454021634,0.060690412819231904]","[-1,-1,-1]","[0.08633598789477702,0.13117035580405853]","[-1,-1,-1]","[-0.03427206573014794,-0.022746680733279387]","[-1,-1,-1]","[-0.1785980291010604,-0.05368679069253017]","[-1,-1,-1]","[-0.006179298343331569,0.015198643398408821]","[-1,-1,-1]","[-0.09110556112923138,0.054766190054929706]","[-1,-1,-1]","[0.02,0.02]",173.5239,0,0,0,29,1,,,,,,,
,,,,,,,67668ecc7d364b41006a474d,682f0ffa17108db496e2597a,2025-05-22_12h56.48.049,cuing_paradigm_dot,2024.1.5,Win32,29.94011976,682d573fa47f1360d1451895,,,,,,,,,,,173.5256,174.0235,,,174.2577,174.9236,right,0.646,,,,,,,,,0.45,,,,,,174.0237,174.2576,174.9238,"[-0.006155092541596476,0.12397740363419649]","[1,1,1]","[0.10986137702786726,-0.12744589037538878]","[-1,-1,-1]","[-0.19745630757112492,-0.007565055530833406]","[-1,-1,-1]","[0.059456755475527236,0.000009645612284993379]","[-1,-1,-1]","[-0.02691182986867328,-0.03672703367840564]","[1,1,1]","[0.12111415158663855,-0.023119227521437333]","[-1,-1,-1]","[-0.11935714901083713,0.04742254985106516]","[1,1,1]","[0.11197324689691932,0.15286751921470215]","[1,1,1]","[-0.16408904984452494,0.10708995451173747]","[-1,-1,-1]","[-0.005982101847713167,0.023056064292012925]","[-1,-1,-1]","[-0.06612744851968635,0.06372261451196791]","[-1,-1,-1]","[-0.1475298716710311,0.017605452591361797]","[-1,-1,-1]","[0.1631558687556696,-0.01586092309760124]","[1,1,1]","[-0.029319627859059855,-0.19360631647150095]","[-1,-1,-1]","[0.039483596489217954,-0.09877794732535329]","[-1,-1,-1]","[0.044389765064781976,0.048885808964492225]","[1,1,1]","[0.0424033216929859,-0.16113933254806276]","[-1,-1,-1]","[0.07444337208780331,0.10947594631563605]","[1,1,1]","[-0.11554223202133616,-0.055192111586733775]","[-1,-1,-1]","[0.02262933244654057,0.09107402567680951]","[1,1,1]","[0.01606298769897259,0.16804366179456437]","[-1,-1,-1]","[-0.0291490072289082,-0.1443354488313857]","[-1,-1,-1]","[-0.09491776138673841,-0.11647718583902597]","[1,1,1]","[0.09725819634628224,0.06375193831528764]","[1,1,1]","[0.15826813788232644,0.09447023274357974]","[-1,-1,-1]","[-0.03895131055388267,0.17452382475082825]","[-1,-1,-1]","[-0.16631662513427473,-0.0916922227958359]","[1,1,1]","[-0.1350786964379304,-0.1321609444053365]","[-1,-1,-1]","[-0.0018149736514854484,-0.09712127670420426]","[1,1,1]","[-0.07546898076104086,-0.0305411328223462]","[1,1,1]","[-0.08390611603910846,-0.17553624320436076]","[1,1,1]","[-0.1564914438173162,-0.04481016152998822]","[-1,-1,-1]","[0.02,0.02]",176.0233,0,1,1,70,1,,,,,,,
,,,,,,,67668ecc7d364b41006a474d,682f0ffa17108db496e2597a,2025-05-22_12h56.48.049,cuing_paradigm_dot,2024.1.5,Win32,29.94011976,682d573fa47f1360d1451895,,,,,,,,,,,176.024,176.5234,,,176.7591,177.4568,left,0.6842,,,,,,,,,0.55,,,,,,176.5235,176.7588,177.457,"[0.1924126440414824,-0.0297617345771715]","[1,1,1]","[0.027026547538264112,0.13730330345077577]","[-1,-1,-1]","[0.01724120993493861,0.07898548420169786]","[1,1,1]","[-0.09873354169419829,-0.1194157115206952]","[1,1,1]","[-0.008066854160650195,-0.1451896509720817]","[1,1,1]","[-0.17041204329761847,0.09701787542460015]","[1,1,1]","[0.16612615382018084,0.04232842571497466]","[-1,-1,-1]","[-0.1170513913279117,0.1240889954862721]","[1,1,1]","[0.07894753755458618,0.0142631636263284]","[-1,-1,-1]","[-0.07176101686738605,0.10046254912232495]","[-1,-1,-1]","[0.07129481174251341,-0.10886298888266939]","[1,1,1]","[-0.08734050837030252,-0.0007512631662052267]","[1,1,1]","[0.02926716691008835,-0.17672974569697097]","[1,1,1]","[-0.010696846460770022,-0.08234423213967808]","[-1,-1,-1]","[0.11536013138989278,-0.13388591461910682]","[1,1,1]","[0.11718340047079183,0.084387548441955]","[-1,-1,-1]","[-0.08902905396651958,-0.07789173951740219]","[1,1,1]","[0.14711132317712566,-0.0402389998663534]","[-1,-1,-1]","[-0.029511838801503362,0.1638710908768034]","[1,1,1]","[-0.05308463944616854,0.05535871335545284]","[-1,-1,-1]","[-0.08748697517821077,0.1646221913292899]","[1,1,1]","[-0.1380705389775319,-0.02592481422304686]","[-1,-1,-1]","[0.11333205338457708,-0.012574253589835159]","[1,1,1]","[-0.026291095692867136,-0.015351268624807502]","[-1,-1,-1]","[0.0664317676187045,0.14684333660286006]","[-1,-1,-1]","[0.07663489403569251,-0.1777277035828103]","[-1,-1,-1]","[0.04892196828644838,-0.03493834285491395]","[1,1,1]","[0.033485719343019645,-0.08586659531998994]","[1,1,1]","[0.13783981812863708,-0.08165782748567922]","[1,1,1]","[-0.17936818198442617,-0.0017645541729444953]","[-1,-1,-1]","[-0.15501235683909953,-0.10848751458793081]","[1,1,1]","[-0.006649064445733226,0.11343594392592775]","[-1,-1,-1]","[0.02,0.02]",178.5568,0,2,2,143,1,,,,,,,
,,,,,,,67668ecc7d364b41006a474d,682f0ffa17108db496e2597a,2025-05-22_12h56.48.049,cuing_paradigm_dot,2024.1.5,Win32,29.94011976,682d573fa47f1360d1451895,,,,,,,,,,,178.5582,179.0564,,,179.2907,179.9568,right,0.635,,,,,,,,,0.55,,,,,,179.0564,179.2904,179.9569,"[-0.09784935468593534,0.09682118905478569]","[-1,-1,-1]","[0.040144797597430816,0.18347308321806974]","[1,1,1]","[0.11520120049635424,-0.004353487444947332]","[-1,-1,-1]","[-0.01675081530767587,0.08857391388569211]","[-1,-1,-1]","[-0.03088294668422032,-0.040663549719006875]","[1,1,1]","[-0.07962866448631249,0.02888680718545853]","[1,1,1]","[-0.17596892205088938,0.01246884159629925]","[1,1,1]","[0.1473024347346859,-0.0473350215815243]","[-1,-1,-1]","[-0.057725643469831174,0.11584881021165329]","[1,1,1]","[-0.1512831179627435,0.045852538404413834]","[1,1,1]","[0.014120486767129495,-0.12134575945548531]","[1,1,1]","[-0.13885045869476567,-0.058643060024426596]","[-1,-1,-1]","[0.1676491331555506,0.04472958604692833]","[1,1,1]","[-0.030043254308676142,-0.09469830894902545]","[1,1,1]","[0.07487345873829641,-0.113833958739381]","[-1,-1,-1]","[-0.08728427397969678,0.1769839196706708]","[1,1,1]","[0.061537882102159436,-0.0419930252884359]","[1,1,1]","[0.06269617823998644,0.15022703512725025]","[1,1,1]","[-0.07980057786082553,-0.06700108011008593]","[-1,-1,-1]","[0.020837824996065256,0.06749237496749616]","[-1,-1,-1]","[-0.022213929050882354,0.03438952011765739]","[1,1,1]","[0.00046986474405809163,-0.18880933001192213]","[-1,-1,-1]","[0.10896950301838287,-0.06262691437191081]","[1,1,1]","[-0.1375955658594328,0.09043633175057135]","[1,1,1]","[0.1191345421779378,-0.15670082377420244]","[-1,-1,-1]","[0.012152214687467598,0.009421640494524207]","[1,1,1]","[0.021632088062517766,-0.03218691530360715]","[-1,-1,-1]","[0.1555085246905397,0.12040299210914929]","[1,1,1]","[-0.0016454915141246224,0.19359183687733317]","[-1,-1,-1]","[0.05470642178642404,-0.16692735007915036]","[1,1,1]","[-0.07088088448627157,-0.1599720817054143]","[-1,-1,-1]","[-0.06085361853899841,-0.010935910948553786]","[-1,-1,-1]","[0.02,0.02]",181.0564,0,3,3,148,1,,,,,,,
,,,,,,,67668ecc7d364b41006a474d,682f0ffa17108db496e2597a,2025-05-22_12h56.48.049,cuing_paradigm_dot,2024.1.5,Win32,29.94011976,682d573fa47f1360d1451895,,,,,,,,,,,181.0579,181.557,,,181.7911,182.4566,left,0.6381,,,,,,,,,0.5,,,,,,181.5572,181.7909,182.4567,"[-0.06729131021876113,-0.11410972460001965]","[1,1,1]","[0.04815824877254408,-0.1382508096716681]","[1,1,1]","[0.14520486052619244,0.06814975212326646]","[-1,-1,-1]","[-0.11899356387482227,-0.10014498383375915]","[1,1,1]","[-0.09592083734825631,0.12969020246914748]","[-1,-1,-1]","[0.015371624568906889,0.0007438995727375891]","[1,1,1]","[0.0666704451323245,0.026197362122352012]","[1,1,1]","[-0.07369724524694028,-0.03088371975333213]","[1,1,1]","[-0.03999805739679984,0.057861221998377524]","[1,1,1]","[0.18540217998439568,-0.0062849407714956505]","[-1,-1,-1]","[0.11878861673440815,-0.10332714314207923]","[1,1,1]","[-0.1594007173464811,-0.06275865518309456]","[1,1,1]","[-0.1699416020767825,-0.0009531114182004043]","[1,1,1]","[0.02840757746919583,-0.06714945598501222]","[-1,-1,-1]","[-0.030742432447692414,-0.05206064816734381]","[1,1,1]","[-0.03053315901134605,0.1360253196154427]","[-1,-1,-1]","[-0.027734883248799542,-0.19409774383325823]","[1,1,1]","[-0.17981511891484656,0.0463976788132985]","[-1,-1,-1]","[0.10614904050413534,0.09514277898894341]","[-1,-1,-1]","[-0.09471387463180193,0.05098300596798365]","[-1,-1,-1]","[-0.11473762036932551,-0.000017853435772784926]","[-1,-1,-1]","[0.07271116021523345,-0.0998465727429895]","[1,1,1]","[0.11150535428209338,-0.002867807764428669]","[-1,-1,-1]","[-0.14119559218166317,-0.13887240871443027]","[-1,-1,-1]","[-0.026846734489563418,-0.11877402202022308]","[-1,-1,-1]","[0.09182729463004324,-0.05527529724220526]","[-1,-1,-1]","[0.13354839215442899,0.14506699188199595]","[-1,-1,-1]","[0.1809733752081164,-0.0713859046605098]","[-1,-1,-1]","[-0.02443715066319436,-0.0050633005040099524]","[-1,-1,-1]","[-0.1386041868813679,0.09752573170997772]","[1,1,1]","[0.14445315591044952,-0.0350551975562167]","[1,1,1]","[0.007631046145475611,-0.1677822607164583]","[1,1,1]","[0.02,0.02]",183.5557,0,4,4,92,1,,,,,,,
,,,,,,,67668ecc7d364b41006a474d,682f0ffa17108db496e2597a,2025-05-22_12h56.48.049,cuing_paradigm_dot,2024.1.5,Win32,29.94011976,682d573fa47f1360d1451895,,,,,,,,,,,183.5564,184.0561,,,184.2908,185.0575,left,0.7353,,,,,,,,,0.9,,,,,,184.0562,184.2907,185.0576,"[-0.03341118031880445,0.011851231699330287]","[1,1,1]","[-0.14509310654571236,0.037101186562462765]","[1,1,1]","[-0.16994621139854363,-0.03815190047095606]","[1,1,1]","[-0.0005601248884279525,-0.12168261249705521]","[1,1,1]","[-0.05475472079707318,-0.06731633049681483]","[1,1,1]","[0.1390863680858037,-0.08583739874008998]","[1,1,1]","[-0.00011736899683744107,-0.048029133160450155]","[1,1,1]","[0.10797210854887437,0.13169853622880345]","[-1,-1,-1]","[0.07314776392427429,0.050203220755416895]","[1,1,1]","[-0.06812337389339072,-0.13299025344872895]","[1,1,1]","[-0.11896620193553033,-0.012312464332625722]","[1,1,1]","[0.10316637165729767,-0.02403166023746099]","[1,1,1]","[0.06060691279885298,-0.17630055677815354]","[1,1,1]","[0.0016499739520562328,0.07294261362093954]","[1,1,1]","[0.04708713528256753,-0.002625744242306413]","[1,1,1]","[-0.11046176482351905,-0.08343886261783348]","[-1,-1,-1]","[0.009412072751897666,-0.16819231396623438]","[1,1,1]","[0.0665466728208843,-0.09527259552977568]","[1,1,1]","[-0.17627807122793665,0.06684055008515105]","[1,1,1]","[-0.13116367438439996,0.09842489242131636]","[1,1,1]","[0.11802502131790689,0.061780396778925835]","[1,1,1]","[0.11328212511216675,-0.15659098401767046]","[-1,-1,-1]","[-0.09479266272707386,-0.16683662776286687]","[1,1,1]","[0.038710271769624396,0.15288876780989868]","[1,1,1]","[0.184837966332337,-0.06303083650549428]","[1,1,1]","[-0.024782943004060597,0.1735177657932828]","[1,1,1]","[-0.06528480530040881,0.18804906378015304]","[1,1,1]","[-0.051707766701618633,0.12267281388734229]","[1,1,1]","[-0.13837349118130335,-0.12567926267485055]","[1,1,1]","[0.1639594804703281,0.03809686482345192]","[1,1,1]","[-0.030892070348145624,-0.1614785701327851]","[1,1,1]","[0.12982006859121065,0.006526819283236592]","[1,1,1]","[0.02,0.02]",186.1566,0,5,5,202,1,,,,,,,
,,,,,,,67668ecc7d364b41006a474d,682f0ffa17108db496e2597a,2025-05-22_12h56.48.049,cuing_paradigm_dot,2024.1.5,Win32,29.94011976,682d573fa47f1360d1451895,,,,,,,,,,,186.1573,186.6561,,,186.8902,187.8232,left,0.9155,,,,,,,,,0.6,,,,,,186.6562,186.8902,187.8233,"[-0.10356071674784957,0.10064316568361156]","[1,1,1]","[-0.03172120657789694,-0.1240658720299605]","[1,1,1]","[0.08232378517453412,0.04760548699162601]","[-1,-1,-1]","[-0.038023106307417606,-0.022670340825772572]","[1,1,1]","[-0.10831997868523528,-0.16132709486765942]","[-1,-1,-1]","[0.09145008475285085,-0.05398042102240241]","[1,1,1]","[-0.03802273277051165,0.09454299463696832]","[-1,-1,-1]","[-0.18070260851054804,-0.026464055872748245]","[1,1,1]","[-0.1138472539936569,0.14091173293219875]","[1,1,1]","[0.13293335672929948,-0.11137103041124509]","[-1,-1,-1]","[-0.03583788197942499,0.13577358590069738]","[1,1,1]","[0.11741936965912016,-0.00856667763372912]","[-1,-1,-1]","[0.017811334207778917,-0.12365818748961345]","[1,1,1]","[0.049020103257384484,0.12281168123664804]","[1,1,1]","[0.013213876273034027,0.19832431421648156]","[-1,-1,-1]","[-0.17737756268112032,0.020555505389512247]","[1,1,1]","[0.13809850684994532,0.03092916620179614]","[1,1,1]","[-0.003033318378280439,0.002948730954544999]","[1,1,1]","[0.09346943960619088,0.10189491377252304]","[1,1,1]","[0.07068645959384585,-0.10663149575263256]","[1,1,1]","[0.18127587383342184,0.05735969466897526]","[1,1,1]","[0.1447449406800445,0.07423081417132943]","[1,1,1]","[0.10740868491435461,0.1501406436689173]","[1,1,1]","[-0.05583643962650887,-0.07700042687673186]","[-1,-1,-1]","[0.05174106156177234,-0.18096770988956265]","[-1,-1,-1]","[-0.12131921309363977,-0.08141076215519392]","[-1,-1,-1]","[0.1354248986891904,0.11555298489710365]","[-1,-1,-1]","[-0.07558519995431158,0.1550725408762319]","[-1,-1,-1]","[0.1406434665005564,-0.05664069173192147]","[1,1,1]","[-0.09827033523307964,0.0397039693597539]","[1,1,1]","[0.16591575929605334,-0.024758341243222657]","[-1,-1,-1]","[-0.12273075167400568,-0.017087543351485424]","[-1,-1,-1]","[0.02,0.02]",188.9228,0,6,6,170,1,,,,,,,
,,,,,,,67668ecc7d364b41006a474d,682f0ffa17108db496e2597a,2025-05-22_12h56.48.049,cuing_paradigm_dot,2024.1.5,Win32,29.94011976,682d573fa47f1360d1451895,,,,,,,,,,,188.9239,189.4225,,,189.6565,190.4235,left,0.741,,,,,,,,,0.6,,,,,,189.4225,189.6564,190.4236,"[-0.00015837540919736622,0.12365664916206524]","[1,1,1]","[-0.16516003486432326,-0.03594873728622774]","[1,1,1]","[0.03959612549028321,0.029061108131925684]","[-1,-1,-1]","[0.1617035166049724,-0.019150086239214794]","[-1,-1,-1]","[-0.015444264039334027,0.1978470472028289]","[-1,-1,-1]","[-0.15846910067109624,-0.08395020949266152]","[1,1,1]","[0.1315354627923095,0.12693897683089167]","[1,1,1]","[0.06294208138836598,-0.10886346707770256]","[1,1,1]","[0.07739011745231056,-0.1488244146517827]","[-1,-1,-1]","[-0.10158959391969014,-0.06893741791538063]","[1,1,1]","[-0.17361587088759686,0.011646295188943043]","[1,1,1]","[-0.14854100884213547,0.05805466913939587]","[-1,-1,-1]","[0.07121886675427391,-0.044444746182634984]","[1,1,1]","[-0.016049114528796607,0.03900017063444527]","[-1,-1,-1]","[-0.12604860308361004,-0.006005988556151264]","[-1,-1,-1]","[0.02533013454825971,-0.1335530180542562]","[-1,-1,-1]","[-0.06301206728226871,-0.055064254673452384]","[1,1,1]","[0.10324526372167467,0.03331039202550197]","[1,1,1]","[0.151359570523085,-0.05948960591395507]","[1,1,1]","[-0.09167719573535833,0.09503826214543078]","[1,1,1]","[-0.08838044128678298,0.036876074452958194]","[1,1,1]","[-0.14751973171232244,0.10156443598793]","[-1,-1,-1]","[-0.028172284605953137,-0.10622933754896821]","[-1,-1,-1]","[0.15675343192588734,0.026531919142362144]","[-1,-1,-1]","[-0.07610498075133293,0.1662925323684539]","[-1,-1,-1]","[-0.1365314725915934,-0.11774898002204054]","[1,1,1]","[0.018279944629920993,-0.17334822587450552]","[1,1,1]","[-0.02714924498571498,0.09166215063975752]","[1,1,1]","[0.029710581145829317,-0.02743836246606293]","[-1,-1,-1]","[0.116819804328491,-0.038637155340816985]","[1,1,1]","[0.08974429959711827,-0.0062222894225623234]","[1,1,1]","[0.15918585200956378,0.08363794293546103]","[1,1,1]","[0.02,0.02]",191.5225,0,7,7,150,1,,,,,,,
,,,,,,,67668ecc7d364b41006a474d,682f0ffa17108db496e2597a,2025-05-22_12h56.48.049,cuing_paradigm_dot,2024.1.5,Win32,29.94011976,682d573fa47f1360d1451895,,,,,,,,,,,191.5238,192.0224,,,192.2561,192.8229,right,0.5366,,,,,,,,,0.1,,,,,,192.0224,192.2559,192.8229,"[0.09237814979264715,0.09665723432724993]","[-1,-1,-1]","[0.13439790776333485,0.1412042415064481]","[-1,-1,-1]","[0.08725202517683572,-0.062091577312317625]","[-1,-1,-1]","[-0.10888289132702735,0.07721054977193136]","[-1,-1,-1]","[-0.11367943033149876,-0.020720394859411725]","[-1,-1,-1]","[-0.17063845159259783,0.02299167557402822]","[-1,-1,-1]","[-0.1203300672702276,-0.13030880013400947]","[-1,-1,-1]","[0.04312635927675802,0.15502430435589445]","[-1,-1,-1]","[-0.018405202362397406,-0.1983346838007144]","[-1,-1,-1]","[-0.042154790309089404,0.10462318332543996]","[-1,-1,-1]","[0.07825654739720991,-0.16932991943747833]","[-1,-1,-1]","[-0.09616259121247864,0.17148006126235504]","[-1,-1,-1]","[-0.15751929386897856,-0.01605275357149414]","[-1,-1,-1]","[-0.11196055710468458,-0.08776449636498009]","[-1,-1,-1]","[-0.05153031730339751,-0.026911416639450472]","[-1,-1,-1]","[0.10280792700594668,-0.13577799177630376]","[-1,-1,-1]","[0.1846963239701385,-0.06850135839152079]","[-1,-1,-1]","[0.08293946768733926,0.05482912425086761]","[-1,-1,-1]","[-0.10020159258554093,0.018720465254015817]","[-1,-1,-1]","[0.15852854181822332,-0.023499559379389818]","[-1,-1,-1]","[0.16293144764111375,0.02654290526720352]","[1,1,1]","[-0.03632391294547169,0.02787284756330903]","[-1,-1,-1]","[-0.0574829255190696,0.19097621033250847]","[-1,-1,-1]","[0.08289422036412712,0.14146826246844305]","[1,1,1]","[-0.051904640329631185,-0.14965144310714049]","[-1,-1,-1]","[0.054314337166726206,0.00129970370519876]","[1,1,1]","[0.02119575193385034,-0.10476510262074232]","[-1,-1,-1]","[0.1276521675067819,0.04668346028725009]","[-1,-1,-1]","[0.02155827718425631,0.08231600486724411]","[-1,-1,-1]","[0.17487147002150555,0.09436781790734833]","[-1,-1,-1]","[0.14933749770802568,-0.08966943480517883]","[-1,-1,-1]","[0.014587925843902751,0.0072029682827248085]","[-1,-1,-1]","[0.02,0.02]",193.9221,0,8,8,21,1,,,,,,,
,,,,,,,67668ecc7d364b41006a474d,682f0ffa17108db496e2597a,2025-05-22_12h56.48.049,cuing_paradigm_dot,2024.1.5,Win32,29.94011976,682d573fa47f1360d1451895,,,,,,,,,,,193.9232,194.422,,,194.6563,195.1887,left,0.5182,,,,,,,,,0.6,,,,,,194.422,194.6562,195.1887,"[0.1549946856364323,0.06261060496577221]","[-1,-1,-1]","[0.011832149747071634,-0.04066791508485144]","[-1,-1,-1]","[-0.08612370762315694,0.11027370501368498]","[-1,-1,-1]","[0.09252477001761593,-0.00704048361051449]","[1,1,1]","[0.05276270665653502,0.17215268260207894]","[-1,-1,-1]","[-0.19014379665176476,0.025038368032351717]","[1,1,1]","[0.09517330641021927,-0.09977045849226912]","[1,1,1]","[0.10243392907202654,-0.16607354218216405]","[1,1,1]","[-0.15713546780689938,-0.015500118292977894]","[1,1,1]","[-0.047083099631247315,0.04068291429902788]","[1,1,1]","[-0.07387604204712245,-0.10966850824998642]","[-1,-1,-1]","[-0.1847570798218859,-0.07142748375878748]","[1,1,1]","[0.08236017449595312,0.11201113757304958]","[1,1,1]","[0.17604323845233952,-0.02628817583009751]","[-1,-1,-1]","[0.05321939284223981,-0.17191358784186303]","[1,1,1]","[-0.08619824122575881,-0.038093111432297794]","[1,1,1]","[-0.05337799154933092,0.187527901994499]","[1,1,1]","[-0.033162088444623906,0.08376910447273735]","[1,1,1]","[-0.08924281924973763,0.06730746805576675]","[1,1,1]","[0.015969552142129844,0.041296425219507105]","[-1,-1,-1]","[0.13427358318709304,-0.14178814106950127]","[-1,-1,-1]","[0.0022419447007751368,-0.17698751678175614]","[1,1,1]","[0.014969125231365652,0.1332233571443102]","[1,1,1]","[0.14111703406487572,-0.004475223137540464]","[1,1,1]","[0.0739436590603827,-0.06257709858050033]","[-1,-1,-1]","[-0.1238272121404191,0.1511069267186844]","[-1,-1,-1]","[0.04919862379870473,0.07012795383394019]","[-1,-1,-1]","[-0.001233953433594855,-0.09269640017274981]","[-1,-1,-1]","[-0.04073404749279367,-0.15508115899356548]","[-1,-1,-1]","[-0.030650474199035292,-0.053686354995336354]","[1,1,1]","[0.09754819543006765,0.05269231912992863]","[1,1,1]","[-0.0005505912081296779,0.19615205189782378]","[1,1,1]","[0.02,0.02]",196.2891,0,9,9,152,1,,,,,,,
,,,,,,,67668ecc7d364b41006a474d,682f0ffa17108db496e2597a,2025-05-22_12h56.48.049,cuing_paradigm_dot,2024.1.5,Win32,29.94011976,682d573fa47f1360d1451895,,,,,,,,,,,196.2905,196.789,,,197.0222,197.5887,left,0.5566,,,,,,,,,0.4,,,,,,196.7892,197.0222,197.5887,"[-0.194368478953437,0.02714868131154376]","[-1,-1,-1]","[0.021037238006516298,-0.08286565681064455]","[1,1,1]","[0.0017486238345732685,-0.04453246342648372]","[-1,-1,-1]","[0.11250115454144825,0.14658379786889744]","[1,1,1]","[-0.04997174609976369,0.059454290805068415]","[1,1,1]","[-0.1318228676894611,0.03656478247282049]","[-1,-1,-1]","[0.01580429142893795,0.11409590971057951]","[-1,-1,-1]","[-0.02258063278927996,0.169060163508529]","[1,1,1]","[0.07704637099729633,0.038426421349393634]","[-1,-1,-1]","[-0.05336992982574688,-0.15236643212030723]","[1,1,1]","[-0.13985973474728253,-0.1037738440960217]","[-1,-1,-1]","[0.15818796256590117,-0.07088002882910707]","[-1,-1,-1]","[0.14066817213071187,-0.12328129318089172]","[-1,-1,-1]","[-0.11572123655932726,-0.0028545108084467403]","[1,1,1]","[0.08704863153766573,0.17763562824964307]","[-1,-1,-1]","[0.15877526039654802,0.019171210845789377]","[1,1,1]","[-0.12983069811231956,-0.051851338922586795]","[-1,-1,-1]","[0.06410571071057616,-0.15348580859259953]","[1,1,1]","[0.059488358784862645,-0.033068139928683564]","[-1,-1,-1]","[-0.043643477536213816,-0.010803997667805182]","[-1,-1,-1]","[-0.13990796490926638,0.08028345441564425]","[-1,-1,-1]","[0.08125547309252158,0.10198339759699843]","[-1,-1,-1]","[0.17442559267965552,0.07446118300934591]","[1,1,1]","[0.025190051212042153,-0.13084216513867564]","[-1,-1,-1]","[-0.02403821617686852,0.09248334380406768]","[1,1,1]","[-0.08497981223823159,0.14214916277296522]","[-1,-1,-1]","[0.19221508302670667,-0.028530493166418095]","[-1,-1,-1]","[0.00944932839497103,0.026843447495878747]","[1,1,1]","[0.09054426494508208,-0.06192184497164449]","[-1,-1,-1]","[-0.17968230774357874,-0.08251702508919179]","[-1,-1,-1]","[-0.05483238309551555,-0.05511840344195146]","[1,1,1]","[-0.07297819593248601,-0.11276859783304649]","[1,1,1]","[0.02,0.02]",198.6886,0,10,10,31,1,,,,,,,
,,,,,,,67668ecc7d364b41006a474d,682f0ffa17108db496e2597a,2025-05-22_12h56.48.049,cuing_paradigm_dot,2024.1.5,Win32,29.94011976,682d573fa47f1360d1451895,,,,,,,,,,,198.6893,199.1888,,,199.4236,200.0557,left,0.604,,,,,,,,,0.55,,,,,,199.1889,199.4235,200.0559,"[-0.11903767670142891,0.14795049627612003]","[-1,-1,-1]","[0.016739799973551354,0.07784936735820012]","[-1,-1,-1]","[-0.15279241512561503,0.03022793622671816]","[-1,-1,-1]","[-0.05787020268075237,-0.03281083639793026]","[-1,-1,-1]","[-0.19571534462482199,0.029668080183014263]","[1,1,1]","[0.05338716616662936,0.01777324000711904]","[1,1,1]","[0.12099556050895187,0.03670443367750089]","[1,1,1]","[-0.10995455695862795,0.1076719476758263]","[1,1,1]","[0.14302225059747248,-0.00706230129718912]","[-1,-1,-1]","[-0.043958581037103685,0.09021452033361828]","[-1,-1,-1]","[0.08323470887367265,0.08426489180760818]","[1,1,1]","[-0.136469864739089,-0.1329497519982268]","[1,1,1]","[-0.16648470703310148,-0.027118820193219702]","[1,1,1]","[-0.057369828271974115,-0.14709671452233125]","[-1,-1,-1]","[0.07811554741159915,-0.046249376898656096]","[1,1,1]","[0.15396521149915085,-0.09849412342277675]","[-1,-1,-1]","[-0.006856284109528662,0.12143233101255559]","[-1,-1,-1]","[0.022630242044998874,0.18976875651465122]","[1,1,1]","[-0.015917540574508844,0.16819297683536283]","[-1,-1,-1]","[0.03153111162074501,-0.09884096236583173]","[-1,-1,-1]","[-0.024326419910702172,0.044293803289335]","[1,1,1]","[-0.004937760199112295,-0.019518386617632996]","[1,1,1]","[0.16165195018415815,0.04046670970252493]","[1,1,1]","[0.09436845316095567,-0.12860557869742653]","[-1,-1,-1]","[0.004992491452621634,-0.19084893492871347]","[1,1,1]","[-0.07451632356944182,0.04727578550327584]","[1,1,1]","[-0.09934280487112755,-0.07351613198682395]","[1,1,1]","[0.16102308738665705,0.10360099778163324]","[-1,-1,-1]","[-0.008254610956788429,-0.12676212284050475]","[1,1,1]","[0.09683188507211825,0.004771091106066987]","[1,1,1]","[-0.12066995211954014,0.004486395844684282]","[1,1,1]","[0.113198782845545,-0.07883300679670571]","[-1,-1,-1]","[0.02,0.02]",201.1553,0,11,11,120,1,,,,,,,
,,,,,,,67668ecc7d364b41006a474d,682f0ffa17108db496e2597a,2025-05-22_12h56.48.049,cuing_paradigm_dot,2024.1.5,Win32,29.94011976,682d573fa47f1360d1451895,,,,,,,,,,,201.1566,201.6555,,,201.8892,202.4551,right,0.5337,,,,,,,,,0.1,,,,,,201.6556,201.8891,202.4552,"[0.09757612591082217,0.11030669162769066]","[-1,-1,-1]","[0.19250362073549057,0.03592622958227211]","[-1,-1,-1]","[-0.029406805828313818,-0.01391500295699907]","[-1,-1,-1]","[-0.009764313933780428,-0.1364474543323296]","[-1,-1,-1]","[-0.05999307994338154,0.14752478548414485]","[-1,-1,-1]","[0.08371021261968199,0.028352086059423437]","[-1,-1,-1]","[0.15264970484463875,-0.09504851688827469]","[-1,-1,-1]","[0.04290137746731029,-0.012786338427247593]","[-1,-1,-1]","[-0.04757431307365961,-0.08517167406822249]","[-1,-1,-1]","[-0.007410603931755426,-0.1772556362271495]","[-1,-1,-1]","[0.14260377088475737,0.05737228109720753]","[-1,-1,-1]","[0.18297764662100297,-0.00790310558191423]","[-1,-1,-1]","[-0.12907232283337075,0.014878401467257349]","[-1,-1,-1]","[0.05563206484550891,-0.17090897973826413]","[-1,-1,-1]","[-0.03712788171475909,0.05472328434239002]","[-1,-1,-1]","[0.023046826665663923,0.03393507292927511]","[-1,-1,-1]","[-0.13266392484079625,0.10025008537555506]","[-1,-1,-1]","[-0.09419691612520802,-0.05117373850244941]","[-1,-1,-1]","[0.018554709240704105,-0.07841895151628278]","[-1,-1,-1]","[0.06521088872733842,0.06479609296636517]","[-1,-1,-1]","[0.1254792639187611,-0.04283303464960195]","[-1,-1,-1]","[-0.051581193114579156,0.09990349934919777]","[-1,-1,-1]","[-0.02940082551513618,0.17786907088403503]","[1,1,1]","[-0.11457774749865596,0.16150908880164563]","[1,1,1]","[-0.12467710063238939,-0.09736831027510486]","[-1,-1,-1]","[-0.15241731671125688,-0.06679172370499595]","[-1,-1,-1]","[-0.06918106063589989,-0.17081861220805705]","[-1,-1,-1]","[0.10731047552172657,-0.07924041118711864]","[-1,-1,-1]","[0.0961621659760471,-0.1725276628147684]","[-1,-1,-1]","[-0.1102814235208857,-0.16409185495724088]","[-1,-1,-1]","[-0.07802153122465925,0.027628972210595723]","[1,1,1]","[0.10517340475123825,0.1530851873833433]","[-1,-1,-1]","[0.02,0.02]",203.5553,0,12,12,17,1,,,,,,,
,,,,,,,67668ecc7d364b41006a474d,682f0ffa17108db496e2597a,2025-05-22_12h56.48.049,cuing_paradigm_dot,2024.1.5,Win32,29.94011976,682d573fa47f1360d1451895,,,,,,,,,,,203.5567,204.0548,,,204.2889,204.9887,left,0.6696,,,,,,,,,0.9,,,,,,204.0549,204.2888,204.9888,"[-0.016764398371448073,0.04729762604801473]","[1,1,1]","[-0.03704211040483121,0.17364734759849995]","[1,1,1]","[-0.12135341690225747,0.0434984436590794]","[-1,-1,-1]","[-0.03261510946887926,-0.01823212414749469]","[1,1,1]","[0.05803768329178293,-0.07600350420854213]","[1,1,1]","[0.15334608716168752,0.06573853201391908]","[1,1,1]","[-0.08902735961147987,-0.13311128025858499]","[1,1,1]","[0.021908678319622624,0.0784902800176761]","[1,1,1]","[-0.038810768598289254,0.11810015633051972]","[1,1,1]","[-0.15941035717206137,-0.0103841658908022]","[1,1,1]","[0.10362365078707295,-0.12911433156337274]","[1,1,1]","[-0.05890187682054608,-0.10023335958352957]","[1,1,1]","[-0.1883807383856894,-0.048036416810667996]","[1,1,1]","[0.06676663938285042,-0.15991610716348523]","[1,1,1]","[0.10188747551301935,0.07357134736393268]","[1,1,1]","[0.04550327840876092,0.14105480853195212]","[1,1,1]","[0.14435503960665524,0.00366356255474823]","[1,1,1]","[-0.04289200960968301,-0.15978094224908512]","[1,1,1]","[0.0550113674020366,0.030277014079097483]","[-1,-1,-1]","[0.17963357871794833,-0.027172148505192437]","[1,1,1]","[-0.12208617284942093,0.15779064705114143]","[1,1,1]","[-0.021838088714987245,-0.19749601871464775]","[1,1,1]","[-0.14679751300111055,-0.06777178698189337]","[1,1,1]","[0.047915457231473106,-0.11888065430264581]","[1,1,1]","[-0.09393722430692973,-0.03101290929981585]","[1,1,1]","[0.11237740661559702,0.1385363796366355]","[1,1,1]","[0.026190331472514972,-0.03300069956955927]","[1,1,1]","[-0.16353964570357324,-0.11142469904535206]","[-1,-1,-1]","[-0.05400679076486666,-0.05364733193842896]","[1,1,1]","[-0.07460580627983965,0.08533881738783443]","[1,1,1]","[0.013001189880865193,0.19261216709567058]","[1,1,1]","[-0.11157612388044601,-0.09536204001679643]","[1,1,1]","[0.02,0.02]",206.0884,0,13,13,204,1,,,,,,,
,,,,,,,67668ecc7d364b41006a474d,682f0ffa17108db496e2597a,2025-05-22_12h56.48.049,cuing_paradigm_dot,2024.1.5,Win32,29.94011976,682d573fa47f1360d1451895,,,,,,,,,,,206.0896,206.5883,,,206.8223,207.3547,left,0.516,,,,,,,,,0.9,,,,,,206.5884,206.8222,207.3548,"[-0.0411278515652329,0.11473488996455783]","[1,1,1]","[-0.08785831980188887,0.053875989472624564]","[1,1,1]","[-0.11271676923394147,0.08563237500438553]","[1,1,1]","[0.018936161557059614,0.1635211111101417]","[1,1,1]","[0.009406805556939953,-0.13399456408838933]","[1,1,1]","[0.18421968808662964,0.030392955390892942]","[1,1,1]","[0.11280502195303645,0.07997863206678393]","[1,1,1]","[-0.061769653738146205,-0.1572216729574589]","[1,1,1]","[-0.03589938639697206,0.00422643549857253]","[1,1,1]","[0.09179802515139394,-0.025255896574863802]","[1,1,1]","[-0.00689976199583265,-0.04783182319171161]","[1,1,1]","[0.012220397306229244,-0.18172008334353057]","[1,1,1]","[-0.1032152919195853,-0.00790205842109895]","[1,1,1]","[-0.1591800024318362,-0.03313234975509058]","[1,1,1]","[-0.18958368700815592,0.04261997951519536]","[-1,-1,-1]","[-0.08986749545471612,-0.053089835146012204]","[1,1,1]","[-0.0519970373611049,-0.1068987259341649]","[1,1,1]","[-0.11867175376718096,-0.11607325692423741]","[1,1,1]","[0.07892656321945185,-0.1194894617193846]","[1,1,1]","[0.05944983241010289,-0.07711793065240026]","[1,1,1]","[0.12332798109856478,0.014462318849832408]","[-1,-1,-1]","[0.12053139722495922,0.12965751207677523]","[1,1,1]","[0.01665209900988831,-0.010644192757643297]","[1,1,1]","[0.16619211468754894,-0.019629849427528805]","[1,1,1]","[-0.03362703598506346,0.1625251710898211]","[1,1,1]","[0.13944397468770184,-0.05763486087884172]","[1,1,1]","[-0.01297402151034498,0.07137359971049206]","[1,1,1]","[-0.17333604916055112,0.09733947895367254]","[1,1,1]","[-0.07779066919615699,0.17949191896149785]","[1,1,1]","[0.027162392283896025,0.12210798527841861]","[1,1,1]","[-0.14465780814438836,0.01774221052171464]","[-1,-1,-1]","[0.045841821365097526,0.06320932285598894]","[1,1,1]","[0.02,0.02]",208.4545,0,14,14,206,1,,,,,,,
,,,,,,,67668ecc7d364b41006a474d,682f0ffa17108db496e2597a,2025-05-22_12h56.48.049,cuing_paradigm_dot,2024.1.5,Win32,29.94011976,682d573fa47f1360d1451895,,,,,,,,,,,208.4557,208.9546,,,209.1885,209.7217,right,0.5209,,,,,,,,,0.4,,,,,,208.9546,209.1884,209.7218,"[0.05212202525861043,-0.17300660628797143]","[1,1,1]","[-0.026714169116416886,-0.18648900386779374]","[-1,-1,-1]","[-0.08453817917065456,-0.10862401576585974]","[-1,-1,-1]","[0.11671546598823052,-0.07466442497025359]","[1,1,1]","[0.1564427509557125,-0.03647618714009776]","[1,1,1]","[0.039575992038779,0.05552313728904551]","[1,1,1]","[-0.18809890704536358,-0.029067735206112395]","[-1,-1,-1]","[0.0090606113053956,-0.1297048444727568]","[-1,-1,-1]","[-0.09319345919643379,-0.020734275446588738]","[1,1,1]","[0.052630063683771655,-0.09828304480998568]","[-1,-1,-1]","[-0.03382228310550393,-0.10510012700588285]","[1,1,1]","[-0.0025666162556984328,-0.008648641889533055]","[-1,-1,-1]","[0.014846399323772318,-0.07188939797962543]","[-1,-1,-1]","[0.16145204779167271,0.07954023856001345]","[-1,-1,-1]","[-0.08914355688512926,0.08453324461298752]","[-1,-1,-1]","[-0.162964957202345,0.01539070524697725]","[-1,-1,-1]","[-0.0680763142166042,0.18587375213212076]","[-1,-1,-1]","[0.1498687307053835,-0.11104295988425887]","[1,1,1]","[-0.044487369641171066,0.08522596943561621]","[-1,-1,-1]","[-0.12446844323495866,0.15185649311617241]","[1,1,1]","[0.11993154988167885,-0.01974120154690879]","[-1,-1,-1]","[0.09709362749887743,0.1659132096948058]","[-1,-1,-1]","[0.04957151268612836,-0.02264239308886137]","[-1,-1,-1]","[-0.1358345888092227,0.10472010005122014]","[1,1,1]","[0.05674209661672888,0.14753828704869582]","[-1,-1,-1]","[-0.05576486862235806,-0.06995671244390918]","[1,1,1]","[-0.13694347643967691,0.06282114629459984]","[-1,-1,-1]","[-0.10138912416242514,0.030584025469771053]","[1,1,1]","[0.009966639998639405,0.16572522687466626]","[1,1,1]","[0.01734817375492428,0.10666407779705459]","[-1,-1,-1]","[-0.08284901246804399,-0.16705420583684283]","[1,1,1]","[-0.13636635764620006,-0.09400549133596627]","[-1,-1,-1]","[0.02,0.02]",210.8211,0,15,15,54,1,,,,,,,
,,,,,,,67668ecc7d364b41006a474d,682f0ffa17108db496e2597a,2025-05-22_12h56.48.049,cuing_paradigm_dot,2024.1.5,Win32,29.94011976,682d573fa47f1360d1451895,,,,,,,,,,,210.8217,211.3216,,,211.5554,212.2208,right,0.6398,,,,,,,,,0.5,,,,,,211.3217,211.5554,212.2209,"[0.07197595523960286,0.04772073719659002]","[1,1,1]","[-0.07364159656690587,-0.007399381388664244]","[-1,-1,-1]","[0.06287489350161492,0.1177761450717788]","[1,1,1]","[-0.033038922562726815,0.1770625518726921]","[-1,-1,-1]","[0.139427802791331,0.11407329066015696]","[-1,-1,-1]","[0.1350410895535,-0.02307018764351879]","[1,1,1]","[0.0439254732853309,0.004654787909385511]","[-1,-1,-1]","[0.1440453988583159,-0.07669612559149691]","[-1,-1,-1]","[-0.06697686095943502,-0.09584896697840259]","[1,1,1]","[-0.13279430870559464,0.13963067412854127]","[1,1,1]","[-0.09749229980006544,-0.1628163359885184]","[1,1,1]","[0.0625131793002835,0.16463452140653492]","[1,1,1]","[0.16375713120615634,0.022091699782920096]","[1,1,1]","[-0.08509037494845244,0.09325826141378774]","[-1,-1,-1]","[-0.1803112792495644,0.05486526158142542]","[1,1,1]","[0.08553384625468641,-0.013628221982874278]","[-1,-1,-1]","[0.01568056869055392,-0.04425503062985871]","[1,1,1]","[-0.1619379506818245,-0.11194384215486723]","[-1,-1,-1]","[-0.1209226584119057,-0.07508986335809203]","[-1,-1,-1]","[0.08054950711625647,-0.08614470886636234]","[-1,-1,-1]","[-0.19577978233620116,-0.01813929809460831]","[-1,-1,-1]","[0.03337017314312168,-0.19051478684376458]","[-1,-1,-1]","[-0.09142354284296372,0.05203105833089536]","[-1,-1,-1]","[-0.11453779372377895,-0.11806616492272683]","[1,1,1]","[-0.17098133921420947,-0.07218238908366356]","[1,1,1]","[-0.1356613639544015,0.06878765512255425]","[1,1,1]","[-0.06543712995912887,0.1509546905691636]","[-1,-1,-1]","[0.10556676770214818,0.14042386751455582]","[1,1,1]","[-0.00540589594837874,0.09366795713911794]","[-1,-1,-1]","[-0.014107599660287967,0.03379855949392442]","[1,1,1]","[0.030900394189451036,-0.0999028048672377]","[1,1,1]","[0.08087489949878515,-0.16957904340231]","[-1,-1,-1]","[0.02,0.02]",213.3207,0,16,16,117,1,,,,,,,
,,,,,,,67668ecc7d364b41006a474d,682f0ffa17108db496e2597a,2025-05-22_12h56.48.049,cuing_paradigm_dot,2024.1.5,Win32,29.94011976,682d573fa47f1360d1451895,,,,,,,,,,,213.3219,213.8213,,,214.0553,214.5881,left,0.5047,,,,,,,,,0.9,,,,,,213.8215,214.0552,214.5883,"[-0.0018570810829079095,0.13040871278519933]","[1,1,1]","[0.05393371451469243,-0.16517053979447702]","[-1,-1,-1]","[0.05034441107348006,0.18101649827267408]","[1,1,1]","[0.15669777209015648,0.07443549224736495]","[1,1,1]","[0.08919359052374465,-0.11741205275607448]","[1,1,1]","[-0.015262789931698597,-0.052328668390908516]","[1,1,1]","[0.04428149164596635,-0.06230274937497414]","[1,1,1]","[-0.030072703068392066,-0.17832430442292654]","[1,1,1]","[-0.029511166987536294,-0.13538805928797826]","[1,1,1]","[0.08537274909911824,-0.027289937389652078]","[1,1,1]","[-0.1442603511863448,-0.001960414896354878]","[1,1,1]","[-0.0905477141001362,-0.02524746751588806]","[1,1,1]","[-0.05474527092408781,0.17152845175538903]","[1,1,1]","[-0.19348910561183374,-0.024452843801673077]","[1,1,1]","[0.101060801634187,0.06784649680797085]","[1,1,1]","[-0.14325698873137827,0.13907911116546653]","[1,1,1]","[0.1606652602101198,-0.11224624041461158]","[1,1,1]","[-0.08292139465819864,0.13395943732571636]","[1,1,1]","[-0.1292712282887281,0.06493553240543218]","[1,1,1]","[-0.0025073292290132432,0.05323499906737589]","[1,1,1]","[-0.1673562468931875,0.09779895680240264]","[-1,-1,-1]","[0.0468276013252469,0.08363666474711454]","[1,1,1]","[-0.14733378532631317,-0.07513768284836646]","[1,1,1]","[0.128720586172906,-0.018250079524948212]","[-1,-1,-1]","[-0.04701292057935677,0.05302840343778866]","[1,1,1]","[-0.169823832535471,0.05167265766013396]","[1,1,1]","[-0.048933432419741865,-0.07499321314681112]","[1,1,1]","[-0.09050794013413296,0.07655413634933791]","[1,1,1]","[0.03445916022374695,0.02613297419964683]","[1,1,1]","[-0.0012801914594510967,0.17444265328268635]","[1,1,1]","[0.08114730762385905,0.15540626047748096]","[1,1,1]","[-0.1062105102684199,0.017724520277125896]","[1,1,1]","[0.02,0.02]",215.6879,0,17,17,207,1,,,,,,,
,,,,,,,67668ecc7d364b41006a474d,682f0ffa17108db496e2597a,2025-05-22_12h56.48.049,cuing_paradigm_dot,2024.1.5,Win32,29.94011976,682d573fa47f1360d1451895,,,,,,,,,,,215.6889,216.1877,,,216.4221,216.7877,right,0.3378,,,,,,,,,0.1,,,,,,216.1878,216.422,216.7878,"[-0.12880374981755208,0.05199215782791525]","[-1,-1,-1]","[-0.0684054164310137,0.019007457006288347]","[1,1,1]","[0.0015792447022145411,0.17403777504781784]","[-1,-1,-1]","[0.0647657744680951,0.1692061952456052]","[-1,-1,-1]","[-0.16570087376925713,-0.03185964587034599]","[-1,-1,-1]","[0.04634698454063892,-0.1792719227212861]","[-1,-1,-1]","[0.09595829532685111,0.10144928789495308]","[-1,-1,-1]","[-0.1032899552025585,-0.12543669087277923]","[-1,-1,-1]","[0.10398095716093694,0.0011886195571846271]","[-1,-1,-1]","[-0.1380697012545286,0.003338611264121203]","[-1,-1,-1]","[0.15486346316898594,0.10974174684493852]","[-1,-1,-1]","[-0.17742023894262626,0.0647344968263543]","[-1,-1,-1]","[-0.03566595100315316,-0.10562030758586122]","[-1,-1,-1]","[0.081660912632561,-0.15686622292117136]","[-1,-1,-1]","[-0.01668975227218745,-0.1552282386077211]","[-1,-1,-1]","[0.024615641137388358,-0.039121432357072224]","[-1,-1,-1]","[0.11538262460587731,-0.12221640521338359]","[-1,-1,-1]","[0.04174056733544476,0.03272137530357726]","[-1,-1,-1]","[-0.06782943299475791,0.06954067243044652]","[-1,-1,-1]","[0.15913629858497705,0.007185135900808218]","[-1,-1,-1]","[0.0031859949309813317,0.0496070023778923]","[-1,-1,-1]","[-0.11217696864407996,0.13933198564334512]","[1,1,1]","[-0.11285110701872705,-0.06780114619172845]","[-1,-1,-1]","[-0.08234852172204964,0.17363422396522357]","[1,1,1]","[0.18441173733285646,0.0388243919058375]","[-1,-1,-1]","[-0.11472178459395309,0.09754205904949757]","[-1,-1,-1]","[-0.18420725978975983,-0.07009640163064028]","[-1,-1,-1]","[0.12411093452822665,0.05029160491081989]","[-1,-1,-1]","[0.05480894948496166,-0.012207927304814929]","[-1,-1,-1]","[0.1674744960059693,-0.10522270871065059]","[-1,-1,-1]","[0.07978944207098199,-0.044435754662988075]","[-1,-1,-1]","[0.006317932923941519,0.10030517669004663]","[-1,-1,-1]","[0.02,0.02]",217.8876,0,18,18,13,1,,,,,,,
,,,,,,,67668ecc7d364b41006a474d,682f0ffa17108db496e2597a,2025-05-22_12h56.48.049,cuing_paradigm_dot,2024.1.5,Win32,29.94011976,682d573fa47f1360d1451895,,,,,,,,,,,217.8889,218.3874,,,218.6218,219.2883,left,0.6356,,,,,,,,,0.55,,,,,,218.3875,218.6216,219.2884,"[-0.055777382146026,0.07040479524016738]","[1,1,1]","[-0.022271050279462367,0.143463649944944]","[-1,-1,-1]","[-0.14477854162017548,0.11023516128943936]","[1,1,1]","[0.025416808125122762,0.19813593645915176]","[-1,-1,-1]","[0.12720450977529005,-0.13672935426615684]","[-1,-1,-1]","[0.08127384616562836,0.10259233307690743]","[-1,-1,-1]","[-0.17058283444563893,0.025755666554359107]","[1,1,1]","[0.027431044839802826,-0.025389790202145924]","[1,1,1]","[-0.010044593581689978,0.07798489769562349]","[1,1,1]","[0.1483682969443492,0.11347898422158433]","[-1,-1,-1]","[-0.09531048149094279,0.01553512466933724]","[1,1,1]","[0.04723728614269169,0.015922752070344385]","[1,1,1]","[0.15081437581641174,-0.04348853547205056]","[1,1,1]","[-0.14141931986431508,-0.06826501423504464]","[1,1,1]","[-0.032791551608065975,0.19326745405339218]","[-1,-1,-1]","[0.09138787212468129,-0.0949333371167939]","[-1,-1,-1]","[0.07611015954386315,-0.1817657101673462]","[1,1,1]","[-0.025253404141207796,0.01797068446895027]","[1,1,1]","[-0.13019564267490003,0.05016583603121025]","[1,1,1]","[0.000963832073565831,-0.11249085591135123]","[-1,-1,-1]","[0.11655988323063397,0.03833396261874768]","[1,1,1]","[0.04342267852643752,-0.10964399449391173]","[1,1,1]","[0.18467450687688972,-0.016369173750799278]","[-1,-1,-1]","[-0.002405050256562927,-0.18692689095476778]","[1,1,1]","[0.10107095682577644,0.1381787305035085]","[1,1,1]","[0.06497521386754966,0.05333038854977535]","[-1,-1,-1]","[0.03327800830356436,0.13742164624872327]","[-1,-1,-1]","[-0.03910479644543802,-0.10174572267258591]","[-1,-1,-1]","[-0.05667490482537966,-0.007548777044787517]","[1,1,1]","[-0.014200874168594264,-0.03099148518474626]","[-1,-1,-1]","[-0.11408250003176885,-0.15752025734926764]","[-1,-1,-1]","[-0.10225573528612268,0.16171950243631553]","[1,1,1]","[0.02,0.02]",220.3878,0,19,19,139,1,,,,,,,
,,,,,,,67668ecc7d364b41006a474d,682f0ffa17108db496e2597a,2025-05-22_12h56.48.049,cuing_paradigm_dot,2024.1.5,Win32,29.94011976,682d573fa47f1360d1451895,,,,,,,,,,,220.3886,220.8877,,,221.1213,221.4877,left,0.338,,,,,,,,,0.55,,,,,,220.8878,221.1213,221.4879,"[-0.05119167704018126,-0.10068657484182283]","[1,1,1]","[0.002961427512614558,-0.1843630373773233]","[1,1,1]","[0.15020571021703866,0.06880437866354112]","[-1,-1,-1]","[0.015046538120989281,0.05919594087215608]","[-1,-1,-1]","[-0.10620291949880556,-0.07553459880305102]","[-1,-1,-1]","[0.0934573219880379,-0.0590640442960178]","[-1,-1,-1]","[-0.05819702460726623,0.12153650354527229]","[1,1,1]","[0.00941476816069941,0.09995446823290967]","[1,1,1]","[-0.16626725687126456,0.0931245840122141]","[-1,-1,-1]","[-0.16345448695130194,-0.11225279085917994]","[1,1,1]","[0.1205951577065229,-0.08900660031022747]","[1,1,1]","[0.08593601709894222,0.03951259038959815]","[1,1,1]","[0.14803302468132357,-0.007979146320041711]","[1,1,1]","[0.07302225498192035,-0.14460445598447338]","[1,1,1]","[-0.12648379150940894,0.12990200339168811]","[1,1,1]","[-0.004924298729297285,-0.027989821989347883]","[1,1,1]","[-0.0787967298494747,0.04259516340627104]","[1,1,1]","[-0.15856416004932566,-0.06603634924881453]","[-1,-1,-1]","[0.08634798526805505,0.11138936029450339]","[-1,-1,-1]","[0.039411845535459206,0.1471980747661137]","[-1,-1,-1]","[0.10780213862512439,0.07597849161806672]","[-1,-1,-1]","[-0.16120297004502912,-0.00951040261202345]","[1,1,1]","[0.11732796828862724,0.1478494551467387]","[1,1,1]","[-0.10266529748278944,0.07877828102388813]","[1,1,1]","[0.05011343086192615,0.019006230803574116]","[-1,-1,-1]","[0.07291761358824765,-0.09412537274660793]","[1,1,1]","[0.0018519793813367165,-0.10411137348009089]","[-1,-1,-1]","[-0.1925175676989281,-0.0443708162645006]","[1,1,1]","[-0.025414947843726225,0.020129393271255385]","[-1,-1,-1]","[0.07925465825766538,0.17895196798341506]","[-1,-1,-1]","[0.17161348423483808,-0.05542450591503399]","[-1,-1,-1]","[-0.09905293550822242,-0.1445529592865655]","[1,1,1]","[0.02,0.02]",222.5872,0,20,20,130,1,,,,,,,
,,,,,,,67668ecc7d364b41006a474d,682f0ffa17108db496e2597a,2025-05-22_12h56.48.049,cuing_paradigm_dot,2024.1.5,Win32,29.94011976,682d573fa47f1360d1451895,,,,,,,,,,,222.5884,223.0873,,,223.3215,223.9545,right,0.5992,,,,,,,,,0.4,,,,,,223.0874,223.3214,223.9545,"[-0.09701430325450747,0.06365400377765756]","[-1,-1,-1]","[-0.15591997316134454,-0.1151755511004803]","[1,1,1]","[-0.10894573807467785,0.013085750999626587]","[-1,-1,-1]","[0.00806951649547201,0.1446724797653918]","[1,1,1]","[0.13266986920640358,0.05460247679619376]","[1,1,1]","[-0.1353369124391407,0.12047678673104348]","[-1,-1,-1]","[0.11431883447726794,0.11771117045005702]","[-1,-1,-1]","[0.10766257608710193,0.16802130677534033]","[1,1,1]","[-0.01928753760941469,0.03516878686352414]","[-1,-1,-1]","[0.038630685547288816,0.026353988933168527]","[-1,-1,-1]","[0.06945746128006132,-0.08887907357167114]","[-1,-1,-1]","[-0.03158897561723408,0.1820764004802835]","[1,1,1]","[-0.03572984705326094,0.09943861787875843]","[1,1,1]","[-0.1578324521880283,0.05974185125130194]","[-1,-1,-1]","[0.08902149173590329,0.010727227769157268]","[1,1,1]","[0.020161928315895722,0.0807320791985084]","[1,1,1]","[-0.023392191329765045,-0.11028113386240986]","[-1,-1,-1]","[-0.11281987542569004,-0.13248187554194646]","[-1,-1,-1]","[-0.13098437310259645,-0.05004190357723723]","[1,1,1]","[-0.07492729591445596,-0.08070199612898682]","[1,1,1]","[0.0841554763766316,0.059010224210586555]","[-1,-1,-1]","[-0.17445616401283792,0.0032073135598207937]","[1,1,1]","[0.011026390747141481,-0.144981775530346]","[-1,-1,-1]","[0.05737235563907545,-0.1596586078085921]","[-1,-1,-1]","[0.16352535757231002,0.11164409956671385]","[-1,-1,-1]","[0.023125686568629476,-0.039330635367372066]","[-1,-1,-1]","[-0.03726134415127426,-0.03522409180509384]","[1,1,1]","[0.18063539859393615,-0.06921721081998927]","[-1,-1,-1]","[0.18925438434973357,-0.015522251418104805]","[1,1,1]","[0.03111393221984504,-0.11013542406706935]","[-1,-1,-1]","[0.12404315109432804,-0.13148349850234384]","[-1,-1,-1]","[0.13218015902115696,-0.08610034625045133]","[-1,-1,-1]","[0.02,0.02]",225.0539,0,21,21,48,1,,,,,,,
,,,,,,,67668ecc7d364b41006a474d,682f0ffa17108db496e2597a,2025-05-22_12h56.48.049,cuing_paradigm_dot,2024.1.5,Win32,29.94011976,682d573fa47f1360d1451895,,,,,,,,,,,225.0553,225.554,,,225.7879,226.1875,left,0.3697,,,,,,,,,0.6,,,,,,225.5541,225.7878,226.1876,"[-0.047589759705378494,0.17519791524090655]","[-1,-1,-1]","[-0.15180970603104668,0.08451570616439824]","[1,1,1]","[0.07336262649599633,0.1422009825914793]","[1,1,1]","[0.1457496516767764,0.08885893464767743]","[1,1,1]","[0.18367167493346828,0.02670640191934734]","[-1,-1,-1]","[-0.10459652986753405,-0.14833892322836106]","[1,1,1]","[-0.1364722856646424,0.001939065465800102]","[1,1,1]","[-0.08100964260263263,-0.007741711279198012]","[-1,-1,-1]","[-0.15703415145234637,-0.043090887119673904]","[1,1,1]","[-0.11636729756912108,0.13127449193465568]","[1,1,1]","[-0.10362733695195628,0.06244755974582143]","[-1,-1,-1]","[0.020130251056122823,-0.06513953348034167]","[1,1,1]","[0.023370876104460057,0.10251089176233996]","[1,1,1]","[0.04105993865137638,-0.171387923677932]","[-1,-1,-1]","[-0.007105446146564341,0.01591182969154223]","[1,1,1]","[0.013058720354864554,-0.11084858187184427]","[1,1,1]","[0.020136074767430366,0.051060546614378165]","[-1,-1,-1]","[0.0805300920451313,0.06608645472255711]","[1,1,1]","[-0.1322541320724821,-0.09802666054205118]","[1,1,1]","[-0.007930027532517852,-0.19156861524307942]","[-1,-1,-1]","[-0.020906333961785914,-0.05207553127590772]","[-1,-1,-1]","[0.08731576217798713,-0.0902731451482403]","[-1,-1,-1]","[0.056673564667719736,-0.01334828839103448]","[-1,-1,-1]","[-0.02506044167957106,-0.0948733546659977]","[1,1,1]","[-0.019306644715425147,0.122835139891227]","[-1,-1,-1]","[-0.07258783526447427,-0.11871204600738025]","[1,1,1]","[0.004427872364691662,0.1580361690538531]","[1,1,1]","[0.03299978703713103,0.18673993372749537]","[-1,-1,-1]","[-0.0396913730761314,-0.14911429862962192]","[1,1,1]","[0.09627549354983432,-0.042391920119375745]","[-1,-1,-1]","[0.08339458776646069,-0.14968922099668258]","[1,1,1]","[-0.062485517570113926,-0.05371115370068655]","[1,1,1]","[0.02,0.02]",227.2872,0,22,22,155,1,,,,,,,
,,,,,,,67668ecc7d364b41006a474d,682f0ffa17108db496e2597a,2025-05-22_12h56.48.049,cuing_paradigm_dot,2024.1.5,Win32,29.94011976,682d573fa47f1360d1451895,,,,,,,,,,,227.2885,227.7871,,,228.0209,228.3869,right,0.358,,,,,,,,,0.6,,,,,,227.7872,228.0208,228.3871,"[0.12257688008305734,-0.032441013256638514]","[1,1,1]","[-0.09318502993523835,0.07374525722503004]","[-1,-1,-1]","[0.04082694765719075,-0.1118729766884909]","[1,1,1]","[0.004942571190326718,-0.05826181085423966]","[1,1,1]","[-0.15661721314255386,0.09144471638876857]","[1,1,1]","[-0.13549183604086154,0.030961053462156142]","[-1,-1,-1]","[-0.05689912472848005,-0.07199938687710587]","[1,1,1]","[-0.011392970096263687,-0.16885562227381554]","[-1,-1,-1]","[0.17029015408123083,0.1012429972304511]","[-1,-1,-1]","[-0.07661498672625514,-0.1623272794138383]","[1,1,1]","[0.054817398880516094,-0.1526885394865084]","[1,1,1]","[-0.09024357893461311,0.16211252773339227]","[-1,-1,-1]","[-0.1936920304798455,0.04501146107747734]","[-1,-1,-1]","[-0.07121097902615398,0.11501585204051817]","[1,1,1]","[-0.0630061962919895,-0.004322599422016044]","[1,1,1]","[0.12825975492383804,-0.07951806987228015]","[1,1,1]","[0.00219803669791201,0.1266013189197374]","[-1,-1,-1]","[0.009184492764598562,0.19004759640905458]","[1,1,1]","[0.1503220142011086,0.06061340087753285]","[-1,-1,-1]","[-0.11982266347981214,-0.12725691066862455]","[1,1,1]","[0.061785349022175855,-0.017165223234786222]","[-1,-1,-1]","[-0.1454781887886264,-0.08862130169351795]","[1,1,1]","[0.11400849899237987,0.09941971657333928]","[1,1,1]","[0.09496709012028201,-0.14500208290349448]","[1,1,1]","[0.007857200110705098,0.020066421648687542]","[1,1,1]","[-0.03488247104992352,-0.11228515645602677]","[1,1,1]","[0.04515248483562102,0.035818415880917]","[-1,-1,-1]","[-0.12741896790356982,0.13376319724221006]","[1,1,1]","[-0.10736034890431925,-0.004766624845249611]","[-1,-1,-1]","[0.15289990800885184,-0.11825220522690937]","[1,1,1]","[0.18942535385865333,-0.0565923664322398]","[-1,-1,-1]","[-0.18860194957620074,-0.0518027739622663]","[-1,-1,-1]","[0.02,0.02]",229.4872,0,23,23,154,1,,,,,,,
,,,,,,,67668ecc7d364b41006a474d,682f0ffa17108db496e2597a,2025-05-22_12h56.48.049,cuing_paradigm_dot,2024.1.5,Win32,29.94011976,682d573fa47f1360d1451895,,,,,,,,,,,229.4884,229.9872,,,230.2214,230.7538,left,0.5154,,,,,,,,,0.6,,,,,,229.9873,230.2214,230.7539,"[0.019744905191843378,0.1754012367259417]","[-1,-1,-1]","[-0.055249242494990976,0.16633796572912887]","[-1,-1,-1]","[0.005002540103889892,-0.14121731529651088]","[1,1,1]","[-0.14326273735267542,0.0019384646015299261]","[1,1,1]","[-0.15004351921664183,0.12589696734305855]","[-1,-1,-1]","[-0.060618824556517265,0.10432111558678826]","[-1,-1,-1]","[-0.14197773163484426,-0.09220228262229943]","[-1,-1,-1]","[-0.00038520388937753747,-0.06410967731401017]","[1,1,1]","[-0.0747516426327489,-0.10696969591156118]","[-1,-1,-1]","[-0.009397212628852188,-0.02221742311642823]","[1,1,1]","[0.09090156721944254,-0.05231788617330868]","[1,1,1]","[-0.002081851717180475,-0.18690353280707922]","[1,1,1]","[0.03545596743344884,-0.0051914445510627735]","[1,1,1]","[0.07888008343152969,0.1133664017937161]","[-1,-1,-1]","[0.13108827067346648,0.15015561283319515]","[-1,-1,-1]","[0.012221636167172513,0.08614401606603664]","[1,1,1]","[-0.08800034366713835,-0.16316640548874092]","[1,1,1]","[0.12697798224555626,0.03277571974234628]","[1,1,1]","[0.0447845413860962,-0.189290616431829]","[-1,-1,-1]","[-0.1793594365000282,-0.020091015762620026]","[-1,-1,-1]","[0.18253474229727565,-0.011419875664056441]","[1,1,1]","[-0.04187118097704529,-0.16994034948664305]","[-1,-1,-1]","[0.0034501709777138784,0.022956670554736578]","[1,1,1]","[0.05060448087709028,-0.06101065962603797]","[1,1,1]","[0.1372156338022576,0.07696132611385434]","[-1,-1,-1]","[0.045730530723701916,-0.1294343049023911]","[1,1,1]","[0.09955663039915674,0.06307274542756289]","[1,1,1]","[-0.18446918839420126,0.07088337143688846]","[1,1,1]","[-0.13214305523829925,0.06263488852207172]","[1,1,1]","[0.08740943739272578,-0.1275696291430797]","[-1,-1,-1]","[-0.035352158197797606,-0.12931420343925043]","[1,1,1]","[0.13133043333448835,-0.03376058606681252]","[1,1,1]","[0.02,0.02]",231.8535,0,24,24,156,1,,,,,,,
,,,,,,,67668ecc7d364b41006a474d,682f0ffa17108db496e2597a,2025-05-22_12h56.48.049,cuing_paradigm_dot,2024.1.5,Win32,29.94011976,682d573fa47f1360d1451895,,,,,,,,,,,231.8547,232.3534,,,232.5874,233.0205,right,0.4149,,,,,,,,,0.45,,,,,,232.3534,232.5874,233.0205,"[0.029564767591766572,-0.16515417161551113]","[1,1,1]","[0.1287305244267189,0.008182350519201782]","[1,1,1]","[0.09877102278792656,-0.07022314529807615]","[-1,-1,-1]","[-0.04178940146905646,-0.10296940386990609]","[1,1,1]","[-0.09638247773115036,0.09954384170535537]","[-1,-1,-1]","[0.09635093408338676,0.06957704271349002]","[1,1,1]","[0.009386907263644849,0.09750465878310587]","[-1,-1,-1]","[0.011139818703956833,0.006686164894545238]","[-1,-1,-1]","[-0.0022919802460559598,-0.13703250760248756]","[1,1,1]","[0.12375580672484315,-0.13104832578487846]","[1,1,1]","[-0.18780117115531222,-0.00539148240536409]","[1,1,1]","[0.05389931874040232,0.02584843904448686]","[1,1,1]","[0.17067677069179968,-0.05014515914453322]","[-1,-1,-1]","[0.12277341250556176,0.1400488428646742]","[-1,-1,-1]","[-0.07987029335137755,0.1432289257643075]","[1,1,1]","[0.15249101184737193,-0.10309981762068941]","[-1,-1,-1]","[-0.0929479039202463,-0.043904292188781925]","[-1,-1,-1]","[-0.15093585018057437,0.09631429441154207]","[-1,-1,-1]","[0.0028582232082573714,0.1829579591471425]","[1,1,1]","[-0.12927873204788293,0.03928136163262766]","[-1,-1,-1]","[0.14686895082453885,0.05009405310709365]","[-1,-1,-1]","[-0.034231095992880683,-0.1916934957420442]","[1,1,1]","[-0.04445692570256678,0.18948387631829855]","[-1,-1,-1]","[0.19787237006989236,-0.010721211174615415]","[-1,-1,-1]","[0.078345987055918,0.18018996902066814]","[1,1,1]","[0.15607974740529298,0.10767658541989349]","[-1,-1,-1]","[0.011149309063045943,-0.0968387643118002]","[1,1,1]","[-0.05547044278257833,0.04327513734653885]","[-1,-1,-1]","[-0.010197401247168225,0.05537255646379107]","[1,1,1]","[0.06418431859384448,-0.10884457438319944]","[-1,-1,-1]","[-0.048111732333229046,-0.14940240892915546]","[-1,-1,-1]","[-0.1095938203130649,-0.15058084691293103]","[-1,-1,-1]","[0.02,0.02]",234.1199,0,25,25,73,1,,,,,,,
,,,,,,,67668ecc7d364b41006a474d,682f0ffa17108db496e2597a,2025-05-22_12h56.48.049,cuing_paradigm_dot,2024.1.5,Win32,29.94011976,682d573fa47f1360d1451895,,,,,,,,,,,234.1211,234.62,,,234.8542,235.32,left,0.4384,,,,,,,,,0.5,,,,,,234.62,234.8541,235.3201,"[0.08232617595360872,0.026246506746460077]","[1,1,1]","[-0.016432527139691344,0.11803529412008833]","[1,1,1]","[0.04318142115239441,0.0796271852460231]","[1,1,1]","[-0.04398226769862818,0.16040695185319662]","[1,1,1]","[-0.17310712746645146,0.09627836653758831]","[-1,-1,-1]","[-0.1746038857098196,0.05266362975181763]","[-1,-1,-1]","[0.15672091664204144,-0.0984149963796813]","[1,1,1]","[0.1797475677196882,0.022635532448010164]","[-1,-1,-1]","[0.1292360192690081,-0.14461856407462248]","[1,1,1]","[-0.11666042074134844,-0.11748185378014017]","[1,1,1]","[0.03404883024407293,0.1284822066359903]","[-1,-1,-1]","[0.17788933097567844,-0.049468415698180605]","[1,1,1]","[-0.014731455565875715,-0.09388147879441675]","[-1,-1,-1]","[-0.022270927856965196,0.05985954035545507]","[-1,-1,-1]","[0.017972645183079807,-0.059870851582948935]","[1,1,1]","[0.0753902164930319,-0.14403600686436455]","[-1,-1,-1]","[-0.12530562454434355,-0.0013810685968582534]","[-1,-1,-1]","[-0.0293094699944684,-0.1904965356900199]","[1,1,1]","[-0.1141075757544446,0.05649343839716769]","[-1,-1,-1]","[0.026072329144528138,-0.1086485775126367]","[1,1,1]","[-0.11607289025836212,-0.0437855679305331]","[1,1,1]","[0.13906071375216597,-0.02066906796162255]","[-1,-1,-1]","[0.0801844113367225,-0.01422834267680189]","[-1,-1,-1]","[-0.06719031193114391,-0.13908472644405354]","[1,1,1]","[0.012619772038483835,-0.16312481925436823]","[-1,-1,-1]","[0.060740414894312915,-0.0614474915788745]","[-1,-1,-1]","[-0.002777513624786197,0.16696032331528032]","[-1,-1,-1]","[-0.13798118095640452,0.1364051334346102]","[-1,-1,-1]","[0.047396011552300325,0.19142473379420422]","[1,1,1]","[-0.05445153791594337,0.0022077887809816847]","[1,1,1]","[-0.05905267548115919,-0.09669533550929695]","[1,1,1]","[-0.17104593507821506,-0.06863217911851235]","[-1,-1,-1]","[0.02,0.02]",236.4198,0,26,26,102,1,,,,,,,
,,,,,,,67668ecc7d364b41006a474d,682f0ffa17108db496e2597a,2025-05-22_12h56.48.049,cuing_paradigm_dot,2024.1.5,Win32,29.94011976,682d573fa47f1360d1451895,,,,,,,,,,,236.422,236.92,,,237.1538,237.6532,left,0.4894,,,,,,,,,0.9,,,,,,236.9201,237.1536,237.6533,"[0.11326446676122448,0.10266721869557831]","[1,1,1]","[-0.16395602431824913,0.10384163799316284]","[1,1,1]","[-0.13859592070270418,-0.027648917408378968]","[1,1,1]","[0.04869588424903114,0.02114607598069363]","[1,1,1]","[0.05133983367216807,0.07259984184292505]","[1,1,1]","[-0.17851174391612473,-0.012098627744007665]","[1,1,1]","[0.0510352197654334,0.14898815508748597]","[1,1,1]","[-0.023767081477607924,0.17983565877556434]","[1,1,1]","[0.07346427950040699,-0.15034783301348312]","[1,1,1]","[0.02927368554451371,-0.1971773092865078]","[1,1,1]","[-0.07229257989194156,0.1345988075064422]","[1,1,1]","[-0.04704101821014545,-0.006012397161402507]","[1,1,1]","[0.15162052966211864,0.07481372570108365]","[1,1,1]","[0.18446909598600808,0.03226849394185511]","[1,1,1]","[-0.06745217255949904,-0.1296611457621033]","[1,1,1]","[-0.04329500429681681,0.09690537049993075]","[1,1,1]","[0.028499549511736687,-0.06355363550254572]","[-1,-1,-1]","[0.004940687567501474,0.11186226536815032]","[1,1,1]","[0.015196180879364928,0.04789495193371884]","[1,1,1]","[-0.10237820985568921,0.05636423922864147]","[1,1,1]","[-0.027464791190004403,-0.13238564229428074]","[1,1,1]","[-0.0810778158541805,-0.0556307594816978]","[1,1,1]","[0.1556594768543949,-0.030258625524406772]","[1,1,1]","[0.11151234684917206,-0.09350864664789534]","[-1,-1,-1]","[0.12290066908720684,0.03542083833026128]","[1,1,1]","[0.11316554324561916,-0.03690864070487442]","[1,1,1]","[-0.11944872784238578,0.14910962059799687]","[1,1,1]","[0.01882217363583304,0.17775906884686943]","[1,1,1]","[-0.04527462193621344,-0.18597409156657965]","[1,1,1]","[0.16662433688613312,-0.07845101779205936]","[1,1,1]","[-0.1853456934653557,0.05091422906721739]","[-1,-1,-1]","[0.06973564019836778,-0.10076180092240163]","[1,1,1]","[0.02,0.02]",238.7527,0,27,27,195,1,,,,,,,
,,,,,,,67668ecc7d364b41006a474d,682f0ffa17108db496e2597a,2025-05-22_12h56.48.049,cuing_paradigm_dot,2024.1.5,Win32,29.94011976,682d573fa47f1360d1451895,,,,,,,,,,,238.7532,239.2534,,,239.487,239.9863,left,0.474,,,,,,,,,0.55,,,,,,239.2534,239.4867,239.9864,"[-0.05493942603937426,-0.12344563445614766]","[1,1,1]","[-0.0022973778199495342,0.04983316098753117]","[-1,-1,-1]","[-0.012174816532854732,-0.12569609188431943]","[1,1,1]","[0.00019345926830463311,0.0009568386317109177]","[1,1,1]","[0.11220115137098761,-0.0038161745323162543]","[-1,-1,-1]","[0.1506116658528885,0.06189144954557756]","[1,1,1]","[0.018418677224152736,-0.15692361040248273]","[-1,-1,-1]","[0.03768087052325289,0.07996456867804114]","[1,1,1]","[-0.01586379200721744,0.17978946470342508]","[1,1,1]","[0.14442916963980368,-0.06775592322580909]","[1,1,1]","[0.10871326155041153,0.06490816570310148]","[1,1,1]","[-0.04479651536187299,0.14966902162969334]","[1,1,1]","[-0.03132649415297172,-0.17105579629314083]","[1,1,1]","[-0.09012674070878376,0.025228737976870134]","[1,1,1]","[0.1553758986606771,0.020932698706845793]","[1,1,1]","[0.046230074445441645,0.016224385909052407]","[-1,-1,-1]","[-0.16095015162403364,-0.08510409640639183]","[1,1,1]","[-0.04182725246297861,-0.03907798933820256]","[-1,-1,-1]","[-0.171636524649481,0.07120173664048243]","[-1,-1,-1]","[-0.0969772618219544,0.10148372802412975]","[1,1,1]","[0.09788059460658173,-0.12395121204965773]","[-1,-1,-1]","[-0.17805581794406197,-0.032704704672942904]","[-1,-1,-1]","[-0.15026216717491547,0.11603664921629059]","[-1,-1,-1]","[0.009864444505787441,-0.053261702217584576]","[-1,-1,-1]","[0.16047708638540747,-0.11683093099243455]","[-1,-1,-1]","[0.16347695458408407,0.11167652999386106]","[1,1,1]","[-0.17776384621632585,0.01343509822956851]","[1,1,1]","[0.19307610634826144,-0.044209642627299345]","[-1,-1,-1]","[0.03507927829830626,0.16103954281301117]","[-1,-1,-1]","[0.10680372918733726,0.14604275824297544]","[1,1,1]","[-0.1297960432146036,0.006442191269798856]","[-1,-1,-1]","[-0.13960658877349008,-0.12712487987025728]","[1,1,1]","[0.02,0.02]",241.0863,0,28,28,125,1,,,,,,,
,,,,,,,67668ecc7d364b41006a474d,682f0ffa17108db496e2597a,2025-05-22_12h56.48.049,cuing_paradigm_dot,2024.1.5,Win32,29.94011976,682d573fa47f1360d1451895,,,,,,,,,,,241.0872,241.5867,,,241.82,242.3531,left,0.5035,,,,,,,,,0.9,,,,,,241.5867,241.82,242.3531,"[-0.1660454864467155,0.09047084176647895]","[1,1,1]","[0.010020076296138982,-0.0813301230095388]","[1,1,1]","[-0.11916363438965596,0.06370566704418881]","[1,1,1]","[0.16014233055261456,-0.00698386323033666]","[1,1,1]","[-0.16162067991154216,-0.00952612666135349]","[1,1,1]","[0.13948018444135188,0.05716809879883485]","[1,1,1]","[-0.0698954729974751,0.0415399847924607]","[1,1,1]","[-0.13268094974648445,-0.05081345751470813]","[-1,-1,-1]","[0.09167486088236577,0.09038929012348672]","[1,1,1]","[-0.05758889346227302,0.18493400942726382]","[-1,-1,-1]","[-0.0354857235313638,-0.009265683505528142]","[1,1,1]","[-0.12570592118825952,-0.12427983083978891]","[1,1,1]","[-0.027322565652326904,0.08965526093673148]","[1,1,1]","[-0.003498203567166818,0.12909799350291873]","[1,1,1]","[0.09220581070009996,-0.14818295524413583]","[1,1,1]","[0.05877218083683372,0.15524808238827006]","[1,1,1]","[0.007193306988167691,0.06633893772433157]","[1,1,1]","[0.11271339914658661,-0.09083177692403321]","[1,1,1]","[0.16956983009472873,-0.07102302527282574]","[1,1,1]","[0.030350448169902466,-0.1385873573289971]","[1,1,1]","[-0.12780068972273284,0.1263294051002358]","[1,1,1]","[0.0011075213862538624,-0.1778389306619013]","[1,1,1]","[0.05333872337972972,-0.0812241849840143]","[1,1,1]","[0.028154276910685914,-0.03813648117286103]","[1,1,1]","[-0.08343670560057925,0.10516568700989039]","[-1,-1,-1]","[-0.09575677343416863,0.15519700388311433]","[1,1,1]","[0.09523096682734847,0.025861565950840455]","[1,1,1]","[0.05484793046634879,-0.19204886964684245]","[1,1,1]","[-0.06894360568727925,-0.11738458417315617]","[1,1,1]","[0.04810199107130857,0.017202244622758996]","[1,1,1]","[-0.17472396204940688,-0.05754371737620395]","[1,1,1]","[0.12574800901606017,-0.03727798541695271]","[1,1,1]","[0.02,0.02]",243.4524,0,29,29,194,1,,,,,,,
,,,,,,,67668ecc7d364b41006a474d,682f0ffa17108db496e2597a,2025-05-22_12h56.48.049,cuing_paradigm_dot,2024.1.5,Win32,29.94011976,682d573fa47f1360d1451895,,,,,,,,,,,243.4529,243.9523,,,244.1867,244.7201,right,0.5205,,,,,,,,,0.4,,,,,,243.9523,244.1867,244.7202,"[-0.09083915897634222,0.1277954485450712]","[-1,-1,-1]","[0.08367190912341058,0.04627532463934911]","[-1,-1,-1]","[-0.04650800565870563,-0.13109260371075585]","[-1,-1,-1]","[-0.025082108626012452,0.007163265954673257]","[-1,-1,-1]","[0.10448539996009476,-0.09349165660340755]","[-1,-1,-1]","[-0.15896307530341836,-0.02190935559735732]","[1,1,1]","[0.14535377401584088,0.02156476037903746]","[-1,-1,-1]","[-0.09111729360000125,-0.006085475796421263]","[1,1,1]","[-0.13270451704706338,0.03516334429809991]","[1,1,1]","[-0.14603069955519057,0.08382598981099397]","[1,1,1]","[0.048096631357897324,0.14093321354243102]","[-1,-1,-1]","[0.18620993321921298,0.03687214131382825]","[1,1,1]","[0.07457935756244784,-0.15851678048988418]","[-1,-1,-1]","[-0.11018686667478514,-0.16189842531300902]","[1,1,1]","[0.08439205739730221,0.0908343160994001]","[-1,-1,-1]","[-0.08643908365562632,-0.06194147696728763]","[1,1,1]","[0.02382076832995244,0.015757823462717833]","[-1,-1,-1]","[0.11619652692023245,-0.040368464461177145]","[1,1,1]","[0.11087557082938614,0.12192684756269787]","[1,1,1]","[0.15134070582882792,-0.11952134643727455]","[-1,-1,-1]","[-0.06965625919458625,0.06360515860075532]","[-1,-1,-1]","[0.03769342279382183,0.0739769567757735]","[1,1,1]","[-0.011904762900891768,-0.16965945393733506]","[1,1,1]","[-0.028043103135545835,0.09694011561587124]","[-1,-1,-1]","[0.13587942070676395,0.07192186813469417]","[-1,-1,-1]","[0.17126186992601844,-0.08194818189669867]","[-1,-1,-1]","[-0.14385738969517883,-0.10176423596803923]","[-1,-1,-1]","[0.029715247475436954,-0.12076616945252108]","[-1,-1,-1]","[0.09668072442876191,0.16540969973083292]","[-1,-1,-1]","[0.1964300795155998,-0.0019349344418721826]","[1,1,1]","[-0.007655447334499574,-0.04804511536579804]","[-1,-1,-1]","[-0.08054967911552782,0.1721559920414814]","[1,1,1]","[0.02,0.02]",245.8196,0,30,30,55,1,,,,,,,
,,,,,,,67668ecc7d364b41006a474d,682f0ffa17108db496e2597a,2025-05-22_12h56.48.049,cuing_paradigm_dot,2024.1.5,Win32,29.94011976,682d573fa47f1360d1451895,,,,,,,,,,,245.8207,246.319,,,246.5535,247.2196,right,0.6353,,,,,,,,,0.45,,,,,,246.319,246.5534,247.2197,"[0.13888787166545288,0.018193331525746245]","[1,1,1]","[0.08055192611320346,-0.11769298631542055]","[-1,-1,-1]","[0.03212865492940175,-0.16299589206677442]","[1,1,1]","[0.008533389939576252,0.17280652975301605]","[-1,-1,-1]","[-0.0881371041741363,-0.09528032514199954]","[-1,-1,-1]","[-0.1717867328517981,0.09310265525637068]","[1,1,1]","[-0.18163845351952057,0.03936471801663424]","[-1,-1,-1]","[0.028111315354929854,0.02690966049609874]","[1,1,1]","[-0.14316318975589507,0.005644700918509937]","[-1,-1,-1]","[0.15907055806145726,-0.027298534898602657]","[-1,-1,-1]","[0.02507151683753373,0.0715685164697647]","[1,1,1]","[-0.19050850864772334,-0.027319506281177554]","[-1,-1,-1]","[-0.0699924761152451,-0.035311662866147224]","[1,1,1]","[-0.016153059031634165,-0.1666202778679907]","[-1,-1,-1]","[-0.04161772579295029,0.10085981221677012]","[-1,-1,-1]","[-0.10602479583606018,0.14514759670652722]","[1,1,1]","[0.09861150712930714,0.05379663261131298]","[-1,-1,-1]","[0.09476336311736687,-0.03812673502400401]","[-1,-1,-1]","[-0.023628867863961647,0.0365744391354124]","[1,1,1]","[0.08807665586347642,-0.169103390589795]","[1,1,1]","[-0.08833553610782283,0.07137828268551247]","[1,1,1]","[-0.11822981502014855,-0.032781542301269256]","[-1,-1,-1]","[-0.06583679227240027,0.03393242197844693]","[1,1,1]","[-0.0005325937888591559,-0.12535001965557477]","[-1,-1,-1]","[0.0410521659673467,-0.05445071980764425]","[1,1,1]","[0.11920860338419532,0.09654273101974317]","[-1,-1,-1]","[-0.05695450057501223,0.18247558063264543]","[1,1,1]","[0.12838620144181004,-0.0695512152964097]","[-1,-1,-1]","[-0.08850922829515606,-0.17910546509730826]","[-1,-1,-1]","[0.14018095434334082,0.13237925283445348]","[1,1,1]","[-0.004095714053073464,-0.05879068259129222]","[-1,-1,-1]","[0.005946082693542134,0.10749349557709381]","[-1,-1,-1]","[0.02,0.02]",248.3189,0,31,31,66,1,,,,,,,
,,,,,,,67668ecc7d364b41006a474d,682f0ffa17108db496e2597a,2025-05-22_12h56.48.049,cuing_paradigm_dot,2024.1.5,Win32,29.94011976,682d573fa47f1360d1451895,,,,,,,,,,,248.3203,248.8195,,,249.0529,249.7852,left,0.7149,,,,,,,,,0.45,,,,,,248.8197,249.0529,249.7853,"[0.038781612324369635,-0.18362820805583527]","[-1,-1,-1]","[-0.10770861078803104,0.16148953521714768]","[1,1,1]","[-0.06930541779895649,-0.13544847181355463]","[1,1,1]","[0.10024467434515354,0.16049199227487077]","[-1,-1,-1]","[0.1390586114454869,0.017139645516816814]","[1,1,1]","[-0.13277485610470674,0.1082320619000164]","[-1,-1,-1]","[-0.0450995168307718,-0.05591297151089508]","[-1,-1,-1]","[0.04178642184906074,-0.03411627927122156]","[-1,-1,-1]","[0.14762761357440973,-0.08363450903338467]","[-1,-1,-1]","[0.0033510740905056437,-0.004242872261045104]","[1,1,1]","[0.03783121399047429,0.13209577417657317]","[1,1,1]","[0.04186743148838417,-0.12759989610288153]","[-1,-1,-1]","[0.18564087340114738,-0.06723778153331096]","[1,1,1]","[-0.09807424125616072,-0.06453726735145102]","[-1,-1,-1]","[0.08668954520405132,0.01240466314781877]","[-1,-1,-1]","[-0.023240879438883658,-0.09928905027514345]","[-1,-1,-1]","[-0.1613121234823386,-0.1042519654245855]","[-1,-1,-1]","[0.19082440035829684,-0.020220347059737152]","[-1,-1,-1]","[0.09770064224304414,-0.03810431397730796]","[-1,-1,-1]","[0.014138453729145411,0.07097430875373346]","[1,1,1]","[-0.10783576489354707,-0.16212685705245283]","[1,1,1]","[-0.12044349767759549,-0.10567019399245493]","[-1,-1,-1]","[0.08727072353869268,0.10673814078033644]","[1,1,1]","[0.10755366759586044,-0.09497864960502429]","[-1,-1,-1]","[-0.10377771654187115,0.04028250377460805]","[-1,-1,-1]","[0.012249101392111557,0.19018882568465886]","[1,1,1]","[-0.0541031184025735,0.11688372369307698]","[1,1,1]","[0.0645929689443729,-0.08978662592613591]","[-1,-1,-1]","[0.13274529330401605,0.1322378189812966]","[1,1,1]","[0.124919203247944,-0.1344825291126873]","[1,1,1]","[-0.18081030763383651,0.046107744931933724]","[-1,-1,-1]","[-0.17910531780122516,-0.0004104939871088232]","[1,1,1]","[0.02,0.02]",250.8857,0,32,32,69,1,,,,,,,
,,,,,,,67668ecc7d364b41006a474d,682f0ffa17108db496e2597a,2025-05-22_12h56.48.049,cuing_paradigm_dot,2024.1.5,Win32,29.94011976,682d573fa47f1360d1451895,,,,,,,,,,,250.8869,251.3856,,,251.62,252.1855,left,0.5429,,,,,,,,,0.9,,,,,,251.3856,251.6199,252.1856,"[0.15087128031415842,0.05867984559767341]","[1,1,1]","[-0.06187747413046414,-0.06025732479936048]","[1,1,1]","[0.08814488041872856,-0.1692887631042616]","[1,1,1]","[-0.028308502785864005,0.16548785608566416]","[-1,-1,-1]","[0.04415538178726279,0.015501793107009191]","[1,1,1]","[0.03977005312425529,0.15702955104017796]","[1,1,1]","[-0.08572542163040406,-0.16110977534221393]","[1,1,1]","[-0.11973340289453346,0.09645388764423901]","[1,1,1]","[-0.10725996377879513,-0.11558367009997293]","[1,1,1]","[0.11544634067506368,0.036497321537015674]","[1,1,1]","[-0.01515553267050228,-0.11035846018997682]","[1,1,1]","[0.13913105309742915,-0.05821286965130537]","[1,1,1]","[0.07971566926477293,-0.04827680008657027]","[1,1,1]","[-0.05278991604783887,0.012157388443458345]","[1,1,1]","[0.0048653579122297725,-0.1763416539006225]","[1,1,1]","[0.07616718823982695,0.13975417213624927]","[1,1,1]","[-0.16535237551191773,0.07547518126367109]","[1,1,1]","[0.05915598231358105,0.07787138061840372]","[-1,-1,-1]","[-0.045531300801575324,0.06224376794770894]","[1,1,1]","[-0.06971889324609722,0.1480223980554751]","[1,1,1]","[-0.15334736297851748,-0.12189914208466782]","[1,1,1]","[-0.02121727002267924,-0.04229710233582364]","[1,1,1]","[0.16640386083455228,0.009468222811829333]","[-1,-1,-1]","[-0.019866936815799808,0.10773483838610988]","[1,1,1]","[0.1042342123958623,0.10809053190344807]","[1,1,1]","[0.056832163282596784,-0.08772037805308017]","[1,1,1]","[-0.15219795158569674,-0.0600184935214132]","[1,1,1]","[0.03361219639141486,-0.03816537445860597]","[1,1,1]","[-0.12037751827366516,0.14300736024986718]","[1,1,1]","[0.017656272397179977,0.06428300969669976]","[1,1,1]","[-0.11984906397413675,0.0047152192970323775]","[1,1,1]","[-0.17948993854554618,0.020072960628793678]","[1,1,1]","[0.02,0.02]",253.2856,0,33,33,193,1,,,,,,,
,,,,,,,67668ecc7d364b41006a474d,682f0ffa17108db496e2597a,2025-05-22_12h56.48.049,cuing_paradigm_dot,2024.1.5,Win32,29.94011976,682d573fa47f1360d1451895,,,,,,,,,,,253.2869,253.7858,,,254.0191,254.4857,right,0.4538,,,,,,,,,0.1,,,,,,253.7859,254.0191,254.4858,"[0.003161257631763679,-0.13153996822610564]","[-1,-1,-1]","[0.15598911986133498,0.10539794960317643]","[-1,-1,-1]","[-0.02774538632550438,0.16934175452888142]","[-1,-1,-1]","[0.04156839759766392,0.12381872975902021]","[-1,-1,-1]","[0.06355570435123176,-0.06834238842761148]","[-1,-1,-1]","[0.07834438398489674,-0.11251052596044289]","[-1,-1,-1]","[0.04761813875421869,0.050379420941495216]","[-1,-1,-1]","[0.08115924943314003,0.07907163800757087]","[-1,-1,-1]","[0.13633038431262726,-0.07631973795558142]","[-1,-1,-1]","[-0.10854718681515613,0.0455340301039639]","[-1,-1,-1]","[-0.13614047267149865,-0.07641721800514893]","[-1,-1,-1]","[-0.025213437670053563,0.05552835565599927]","[1,1,1]","[0.0001470254697361943,0.09152654354866409]","[-1,-1,-1]","[0.11987951996127315,0.008005759487875932]","[-1,-1,-1]","[-0.06589214679734504,0.07785169292221689]","[-1,-1,-1]","[-0.15281225152855926,-0.029147619785674053]","[-1,-1,-1]","[-0.08262334635145509,-0.023177171356693237]","[-1,-1,-1]","[-0.047865783687554356,0.009637822536810971]","[-1,-1,-1]","[0.05175949080757065,-0.19263397816811723]","[-1,-1,-1]","[0.18051560171652542,0.05457617457491488]","[-1,-1,-1]","[-0.08392227217802808,-0.17866409758353533]","[-1,-1,-1]","[0.024576785924870132,-0.04207134530329633]","[1,1,1]","[0.13712447916738266,-0.13738565731195082]","[-1,-1,-1]","[-0.1151318085948681,0.1042818416657914]","[-1,-1,-1]","[-0.14608110563820945,0.021532757811072976]","[-1,-1,-1]","[-0.1739196366638315,0.054512112727108965]","[-1,-1,-1]","[0.0089890474915381,0.0019750856763498443]","[-1,-1,-1]","[0.0630710758514512,-0.0161847750753904]","[-1,-1,-1]","[-0.12265907036495632,-0.13367943025141787]","[-1,-1,-1]","[0.1813323919665141,-0.026059699828811303]","[1,1,1]","[-0.08102805058603627,-0.1215348424227955]","[-1,-1,-1]","[-0.08810672786327342,-0.06554983916627122]","[-1,-1,-1]","[0.02,0.02]",255.5853,0,34,34,8,1,,,,,,,
,,,,,,,67668ecc7d364b41006a474d,682f0ffa17108db496e2597a,2025-05-22_12h56.48.049,cuing_paradigm_dot,2024.1.5,Win32,29.94011976,682d573fa47f1360d1451895,,,,,,,,,,,255.5864,256.0869,,,256.3191,256.7519,left,0.4057,,,,,,,,,0.9,,,,,,256.087,256.319,256.7519,"[0.19096900066087658,0.029153325151054912]","[1,1,1]","[-0.024063425587243937,0.05387026853015398]","[1,1,1]","[-0.09512027470732348,0.02001885416295463]","[1,1,1]","[-0.08287770627261559,-0.13411241753707692]","[1,1,1]","[-0.07574147802048806,0.11352485664819834]","[1,1,1]","[-0.04451277843760865,0.010474768478552632]","[1,1,1]","[-0.16227257397309738,-0.08552777090010687]","[1,1,1]","[0.08128266048315679,-0.03382074402141785]","[1,1,1]","[-0.04521551495836068,-0.0826134535204678]","[1,1,1]","[-0.1373579304978381,-0.00163520226003863]","[1,1,1]","[-0.030937133083496854,0.12487606258003489]","[1,1,1]","[0.030069345583462942,0.12012758193113673]","[1,1,1]","[0.0889676973552417,-0.1061744578592403]","[1,1,1]","[0.09856510065593535,0.08975406557567618]","[1,1,1]","[0.13375374134954526,-0.14689549052830128]","[1,1,1]","[-0.16762928888270254,0.09014830470318419]","[1,1,1]","[0.14118551392527598,-0.057412067531875735]","[1,1,1]","[0.05384425284120793,-0.07582931635433253]","[1,1,1]","[-0.004075334365222886,-0.08765545841512747]","[1,1,1]","[0.07762812859315915,0.054358261612309396]","[1,1,1]","[-0.025255340035802147,-0.17228208644757567]","[1,1,1]","[-0.00790876282407206,0.18495945862700658]","[1,1,1]","[0.15919892593431634,-0.09769082478177019]","[1,1,1]","[0.1854998571319487,-0.023272542411718392]","[-1,-1,-1]","[-0.07489198740854514,0.1833645703484698]","[1,1,1]","[0.03397177415584068,-0.03915048856440786]","[1,1,1]","[-0.02127332738295708,-0.03949176227501625]","[1,1,1]","[0.046553633981194574,0.182198896211062]","[-1,-1,-1]","[0.046267306823944816,0.010588528350800309]","[1,1,1]","[0.09572628742931037,0.14818521073958113]","[1,1,1]","[0.12163671613988633,-0.006716884611878886]","[-1,-1,-1]","[-0.08340573025884065,0.06268522359254118]","[1,1,1]","[0.02,0.02]",257.8519,0,35,35,186,1,,,,,,,
,,,,,,,67668ecc7d364b41006a474d,682f0ffa17108db496e2597a,2025-05-22_12h56.48.049,cuing_paradigm_dot,2024.1.5,Win32,29.94011976,682d573fa47f1360d1451895,,,,,,,,,,,257.8529,258.3514,,,258.5859,258.7189,right,0.113,,,,,,,,,0.6,,,,,,258.3515,258.5859,258.719,"[0.09583404535972262,-0.07538256966435722]","[1,1,1]","[0.1866592067363312,0.019142838614187488]","[1,1,1]","[0.03846715437040575,0.012964349841408523]","[1,1,1]","[-0.17618362427589965,0.07404027179700319]","[-1,-1,-1]","[-0.1395990558812697,-0.029540998698242688]","[-1,-1,-1]","[0.11895873066499449,-0.034953295142889716]","[1,1,1]","[-0.021214193396103528,-0.01750839653255646]","[1,1,1]","[0.0868998388193251,0.10165828918130232]","[-1,-1,-1]","[0.057931931116881795,0.13740767623152544]","[-1,-1,-1]","[0.03741520447951274,-0.16403692574050055]","[1,1,1]","[0.15645865122715416,-0.01679184774429083]","[1,1,1]","[0.08490358269108693,-0.01193104188488978]","[-1,-1,-1]","[0.08698490804020284,0.032917196312704275]","[-1,-1,-1]","[0.09587027567566123,-0.15307934901352002]","[1,1,1]","[-0.07645815660287211,-0.036531202620684405]","[-1,-1,-1]","[0.12623681768363215,-0.10149327872958452]","[1,1,1]","[-0.11084060690542044,0.06443653227389924]","[1,1,1]","[-0.16190712919468545,-0.10916481191243534]","[-1,-1,-1]","[0.01067616196568586,-0.08086762279750616]","[-1,-1,-1]","[0.025832623557055144,0.08580750176139809]","[-1,-1,-1]","[0.13414652662695242,0.10577082063911163]","[1,1,1]","[-0.022774375236674076,-0.1466622900445478]","[1,1,1]","[-0.040910505926538894,0.12249471448431598]","[-1,-1,-1]","[0.022637811490056736,-0.026330655968948465]","[1,1,1]","[-0.00043253118778205504,-0.19780308868853005]","[-1,-1,-1]","[-0.058530440429281176,0.0029347469887352246]","[1,1,1]","[-0.03246991654637853,0.05233446864428207]","[1,1,1]","[-0.06589393061512164,-0.09200873005048854]","[1,1,1]","[0.12777954111300824,0.05901594736783508]","[-1,-1,-1]","[-0.13184481861672223,0.1250230273297353]","[1,1,1]","[0.013716333899787823,0.14464665730513784]","[1,1,1]","[0.04848255985581884,0.1892497554543409]","[1,1,1]","[0.02,0.02]",259.8186,0,36,36,177,1,,,,,,,
,,,,,,,67668ecc7d364b41006a474d,682f0ffa17108db496e2597a,2025-05-22_12h56.48.049,cuing_paradigm_dot,2024.1.5,Win32,29.94011976,682d573fa47f1360d1451895,,,,,,,,,,,259.8199,260.3183,,,260.5524,261.152,right,0.5683,,,,,,,,,0.1,,,,,,260.3184,260.5523,261.1521,"[0.08442882709718819,-0.16321982708695892]","[-1,-1,-1]","[-0.08132187460074307,-0.06831903753336914]","[-1,-1,-1]","[0.19051026310999095,-0.01573283466886401]","[-1,-1,-1]","[-0.11468016206244651,0.027907787092960355]","[-1,-1,-1]","[-0.07923191101921227,-0.1799202465546154]","[-1,-1,-1]","[0.03849756735287269,0.013907918123638122]","[-1,-1,-1]","[-0.05414032997376198,0.0076487574977717725]","[-1,-1,-1]","[-0.00036568204799287794,-0.16972563219842438]","[-1,-1,-1]","[-0.012522463784478603,0.014168255553597624]","[-1,-1,-1]","[-0.10811840067391712,0.1647720914355259]","[-1,-1,-1]","[-0.01083460005056253,0.14615897357954732]","[-1,-1,-1]","[-0.13633341222716353,-0.1365717647891173]","[-1,-1,-1]","[0.14625510260104324,-0.07854029224621387]","[-1,-1,-1]","[0.08009647079982064,0.1038470555331411]","[-1,-1,-1]","[-0.13626379782682155,0.09154512353985782]","[-1,-1,-1]","[-0.1529975325616253,-0.011973466379542632]","[-1,-1,-1]","[0.05828568542591612,-0.048346509162630155]","[-1,-1,-1]","[-0.18431191851060905,0.03067972606184948]","[-1,-1,-1]","[0.0063359513095350446,-0.10446598590969977]","[1,1,1]","[-0.08680802526733203,0.07886043092010832]","[1,1,1]","[0.039127765646714774,0.1716092888122215]","[-1,-1,-1]","[0.07439263448838979,-0.11201708709214524]","[1,1,1]","[0.12982524360472805,-0.12211262130613156]","[-1,-1,-1]","[-0.055489625966585805,0.1676225226056928]","[-1,-1,-1]","[0.01221294330804134,0.056812701456172544]","[-1,-1,-1]","[0.10281507299761701,-0.01174886396841283]","[-1,-1,-1]","[0.04332612078245122,0.12875043421092972]","[-1,-1,-1]","[0.08605521089904793,0.03425529181392885]","[-1,-1,-1]","[-0.02187363486349786,0.09752543850685795]","[-1,-1,-1]","[-0.02960015215108637,-0.07836841517072249]","[-1,-1,-1]","[0.030011987044170078,-0.14043332751935553]","[-1,-1,-1]","[0.1573757507446011,0.11384419620041814]","[-1,-1,-1]","[0.02,0.02]",262.2522,0,37,37,9,1,,,,,,,
,,,,,,,67668ecc7d364b41006a474d,682f0ffa17108db496e2597a,2025-05-22_12h56.48.049,cuing_paradigm_dot,2024.1.5,Win32,29.94011976,682d573fa47f1360d1451895,,,,,,,,,,,262.2529,262.7514,,,262.9857,263.5519,right,0.5402,,,,,,,,,0.4,,,,,,262.7514,262.9857,263.552,"[0.04686588845400937,0.04331041575557997]","[1,1,1]","[0.15213050826299845,0.013822873318882994]","[-1,-1,-1]","[0.09291453190574778,-0.11301072386191781]","[-1,-1,-1]","[-0.016343690804132758,-0.14005363250490405]","[1,1,1]","[0.05784381822182744,0.08820919081370796]","[1,1,1]","[-0.06447150383950594,0.025260723933659572]","[-1,-1,-1]","[-0.16874816705803197,-0.08518273947790812]","[-1,-1,-1]","[0.16898999313657373,0.06946030805925114]","[-1,-1,-1]","[-0.1459851326020854,0.05583813485900785]","[1,1,1]","[-0.09079965016582851,0.08583510951316496]","[-1,-1,-1]","[-0.037831712205253644,-0.02909532352420002]","[-1,-1,-1]","[0.0063073189252583865,0.006012090870195477]","[-1,-1,-1]","[-0.14642514941463675,-0.05132261349613993]","[1,1,1]","[0.12703461344405353,0.08177797548475096]","[-1,-1,-1]","[-0.09819181158226935,-0.10883501645272863]","[1,1,1]","[0.13060608170539234,0.13155458334366135]","[-1,-1,-1]","[0.007400669372228782,0.13965729423633613]","[1,1,1]","[-0.060310723006285455,0.18659307674830708]","[-1,-1,-1]","[0.18295897242712555,-0.04867024235293341]","[-1,-1,-1]","[0.12520040825879405,-0.13692329513571955]","[-1,-1,-1]","[-0.1716671617355739,-0.015994125416548707]","[-1,-1,-1]","[-0.06462753760188085,0.12341835504836235]","[1,1,1]","[-0.05714269813401793,-0.1594892950234279]","[1,1,1]","[0.014906400791525673,-0.19269577604812216]","[-1,-1,-1]","[-0.11420702387378293,0.1484769943206182]","[1,1,1]","[-0.01600340957816807,0.0845265929504965]","[-1,-1,-1]","[-0.09680649573028609,-0.05249125303126924]","[1,1,1]","[0.048817819217752495,0.16945053391554968]","[-1,-1,-1]","[0.05272192524252424,-0.14969463512972747]","[1,1,1]","[-0.13910510427945863,-0.11422637716873069]","[-1,-1,-1]","[0.19566270637058072,-0.000153678867212913]","[1,1,1]","[-0.03130853230280814,-0.09721816624555556]","[-1,-1,-1]","[0.02,0.02]",264.6518,0,38,38,41,1,,,,,,,
,,,,,,,67668ecc7d364b41006a474d,682f0ffa17108db496e2597a,2025-05-22_12h56.48.049,cuing_paradigm_dot,2024.1.5,Win32,29.94011976,682d573fa47f1360d1451895,,,,,,,,,,,264.6529,265.1515,,,265.3855,266.5181,left,1.1158,,,,,,,,,0.55,,,,,,265.1515,265.3855,266.5182,"[-0.0006449781321826376,-0.17889097491208195]","[1,1,1]","[0.033402858973114784,0.015371872624370942]","[-1,-1,-1]","[-0.13138157038590675,0.09380568156129486]","[1,1,1]","[0.08991277440495687,-0.052631530390672386]","[-1,-1,-1]","[-0.1298471032809122,-0.022829600878459345]","[1,1,1]","[-0.06372280100811994,-0.12733666979828642]","[1,1,1]","[-0.04911626159240405,0.1373461850620537]","[1,1,1]","[0.15457908896613237,-0.09314293188371268]","[1,1,1]","[-0.05426540500521838,0.053004789317126245]","[-1,-1,-1]","[0.055750551643717124,-0.12937544790352218]","[-1,-1,-1]","[0.023344397426139918,-0.10500041404431208]","[1,1,1]","[0.05499281890136239,0.055662084292778705]","[-1,-1,-1]","[0.13462633880819883,-0.0580915875509478]","[-1,-1,-1]","[0.14426069335416583,0.11772921139703808]","[-1,-1,-1]","[0.06700450076756734,0.10871541546190906]","[-1,-1,-1]","[-0.14039326412591818,-0.11507343298787855]","[1,1,1]","[-0.007892399829027697,0.10466158658304572]","[-1,-1,-1]","[-0.15066370943058494,0.044088387970553505]","[1,1,1]","[0.09974883500112913,-0.15580463902962885]","[-1,-1,-1]","[-0.04725217915413015,-0.006902144949776845]","[-1,-1,-1]","[-0.027376391874891194,-0.09169303844537971]","[1,1,1]","[-0.005327042697762518,-0.039817086489792326]","[1,1,1]","[-0.08219978576739123,0.17549324804198033]","[-1,-1,-1]","[0.040859253896587455,-0.05160283638395973]","[1,1,1]","[0.1314571313594991,0.048917583526045486]","[1,1,1]","[0.17871331645014787,-0.05619151361691855]","[1,1,1]","[0.1808121101027178,0.001280296180147388]","[1,1,1]","[-0.17022421721490424,-0.0785366951813363]","[-1,-1,-1]","[0.007768545794246579,0.183350173440578]","[-1,-1,-1]","[0.12035994832307799,-0.012194367326968065]","[1,1,1]","[0.04093838379715944,-0.17417037991743137]","[1,1,1]","[0.18220264122241916,0.05114221669565122]","[1,1,1]","[0.02,0.02]",267.6178,0,39,39,132,1,,,,,,,
,,,,,,,67668ecc7d364b41006a474d,682f0ffa17108db496e2597a,2025-05-22_12h56.48.049,cuing_paradigm_dot,2024.1.5,Win32,29.94011976,682d573fa47f1360d1451895,,,,,,,,,,,267.6191,268.1178,,,268.3518,268.9182,left,0.5416,,,,,,,,,0.9,,,,,,268.1178,268.3517,268.9183,"[-0.012609067149311905,-0.022002714964855653]","[1,1,1]","[-0.10073200885914645,-0.022958345303663443]","[1,1,1]","[0.025748345343591595,0.1921755757839113]","[1,1,1]","[-0.015550541664804716,-0.07821203931771112]","[-1,-1,-1]","[-0.03027566426866877,0.09640770574021945]","[1,1,1]","[-0.07071356879385077,0.12056145025561814]","[1,1,1]","[-0.1191803026813371,-0.1464571545042074]","[1,1,1]","[-0.029720216315065644,0.14945246582862587]","[1,1,1]","[-0.182813173935332,0.05256403809285676]","[-1,-1,-1]","[0.05998804475177505,-0.16018136556079607]","[1,1,1]","[0.12900302654753776,-0.008225433072283057]","[1,1,1]","[0.17804736155644546,-0.08248653937301924]","[1,1,1]","[0.13389443077175583,0.12446101744507262]","[1,1,1]","[0.05234357323230514,-0.02302458412689709]","[1,1,1]","[0.09948468055644463,-0.11634085281294021]","[1,1,1]","[0.05632674733980775,0.10326229424659165]","[1,1,1]","[-0.05858010563048144,-0.042182447740853134]","[1,1,1]","[-0.12162630058752848,0.06408697537109762]","[1,1,1]","[-0.05488084067545653,-0.13127519225970036]","[1,1,1]","[0.08302390987250992,0.024725923818380707]","[-1,-1,-1]","[0.15602743083663936,-0.0468439717671273]","[1,1,1]","[0.14147074642102547,-0.11112034625220672]","[1,1,1]","[0.1573385858578323,0.07541423229278175]","[1,1,1]","[0.11793302882435237,0.08533749801750315]","[1,1,1]","[-0.16163047416905452,-0.07012480133121206]","[1,1,1]","[-0.012084910664547872,-0.13367195946667013]","[1,1,1]","[0.008918108584119183,0.12904241156472987]","[1,1,1]","[-0.09050277296701356,0.170258026484989]","[1,1,1]","[-0.14232005115466975,0.0013816901071534685]","[1,1,1]","[-0.03133342467530902,-0.1754684125265021]","[1,1,1]","[0.0803601887078309,-0.05176471903975845]","[1,1,1]","[0.024051285403930773,0.00531112322122944]","[1,1,1]","[0.02,0.02]",270.0176,0,40,40,190,1,,,,,,,
,,,,,,,67668ecc7d364b41006a474d,682f0ffa17108db496e2597a,2025-05-22_12h56.48.049,cuing_paradigm_dot,2024.1.5,Win32,29.94011976,682d573fa47f1360d1451895,,,,,,,,,,,270.0183,270.5179,,,270.752,271.418,right,0.6469,,,,,,,,,0.5,,,,,,270.5179,270.7519,271.4181,"[0.09718160689348607,-0.06120735161125253]","[1,1,1]","[0.1698209603656996,-0.10494515554277976]","[-1,-1,-1]","[-0.16959637039441725,0.015506341206926228]","[-1,-1,-1]","[-0.0617232208329138,0.11827339024705619]","[1,1,1]","[0.05677912548333897,0.16694348855203348]","[1,1,1]","[0.19032206785396943,-0.051169704663397444]","[1,1,1]","[-0.017895869934224543,0.022600005771265114]","[-1,-1,-1]","[0.017188422544348294,0.1260819450575876]","[1,1,1]","[-0.10199083916362661,0.013553139248199501]","[-1,-1,-1]","[0.16731217720582595,0.025297068070053268]","[-1,-1,-1]","[0.0039019252144495264,0.06401706418700683]","[1,1,1]","[-0.14256936066518064,-0.05039312378974056]","[1,1,1]","[-0.126125523787748,0.0866725767367506]","[1,1,1]","[0.11174529413770144,0.05088384086391967]","[-1,-1,-1]","[0.11422899028237556,0.10121138623801479]","[-1,-1,-1]","[-0.025342920274252938,-0.14372506201855748]","[1,1,1]","[-0.0752080408965773,0.16337331005783504]","[-1,-1,-1]","[0.09362723133932534,0.14449309786696582]","[1,1,1]","[0.12355124032684855,-0.016283212771773678]","[1,1,1]","[-0.06454450795892601,-0.09055792196366956]","[-1,-1,-1]","[0.022387623187060217,-0.1420561599082638]","[-1,-1,-1]","[-0.1260682186811524,-0.1434580274511682]","[1,1,1]","[0.08579777084447102,-0.15301226846416133]","[1,1,1]","[-0.010598928665877343,-0.08182528212331011]","[-1,-1,-1]","[0.02544148482377471,-0.031753333967253064]","[-1,-1,-1]","[-0.17985967685861062,-0.029756280442857472]","[1,1,1]","[0.0638004215525136,-0.09832829315897214]","[-1,-1,-1]","[0.15779670043183205,0.11365746874491812]","[1,1,1]","[-0.09905989582700617,-0.04560725720847234]","[-1,-1,-1]","[-0.017333900351461748,0.16580243174026948]","[1,1,1]","[-0.14226129557028638,0.13895743323530974]","[-1,-1,-1]","[-0.05892793074759187,-0.18240348792755948]","[-1,-1,-1]","[0.02,0.02]",272.5178,0,41,41,116,1,,,,,,,
,,,,,,,67668ecc7d364b41006a474d,682f0ffa17108db496e2597a,2025-05-22_12h56.48.049,cuing_paradigm_dot,2024.1.5,Win32,29.94011976,682d573fa47f1360d1451895,,,,,,,,,,,272.5191,273.0176,,,273.2518,273.8844,left,0.6093,,,,,,,,,0.9,,,,,,273.0177,273.2517,273.8845,"[-0.0024361183459566424,-0.09493401003945774]","[1,1,1]","[-0.055902798948214545,-0.04978524162268736]","[1,1,1]","[0.10177642094793352,0.04045136309154437]","[-1,-1,-1]","[0.011961366144450323,-0.18056006455597323]","[1,1,1]","[0.1109031723044953,-0.03910933453195571]","[1,1,1]","[-0.1552577953604417,0.11008094686776308]","[1,1,1]","[-0.13188940323895665,-0.10796951097640378]","[1,1,1]","[0.167234411540322,0.06725113664311641]","[1,1,1]","[0.024582818745084178,0.05281812101382017]","[-1,-1,-1]","[0.07961099211794419,-0.07707826558074786]","[1,1,1]","[-0.15254389436724283,0.028660658467865658]","[1,1,1]","[0.10552576373900435,-0.1095729344073915]","[1,1,1]","[-0.03856946583609668,-0.17858424196981987]","[1,1,1]","[-0.10260339205169054,-0.16931464497586612]","[1,1,1]","[-0.08504535640052861,0.0387525308696428]","[1,1,1]","[-0.19514887595568933,-0.031677863926971056]","[1,1,1]","[0.08122108960244309,0.08574241557372739]","[1,1,1]","[-0.10585058530765037,-0.006407165715324748]","[1,1,1]","[0.14900830976691526,-0.09865332907300281]","[1,1,1]","[0.06694160219965456,-0.01738625032404346]","[1,1,1]","[-0.16154795467740296,-0.07791541444654973]","[1,1,1]","[0.12795822000278526,0.1021473824553192]","[-1,-1,-1]","[0.03846592837183916,0.14446932720323982]","[1,1,1]","[0.01030041300490164,0.11508865638091197]","[1,1,1]","[-0.06957286079317067,0.1417028039524583]","[1,1,1]","[0.14078528979242738,-0.003429591267326046]","[1,1,1]","[0.0010668830458152795,-0.1383876886073972]","[1,1,1]","[0.18946893432229925,-0.05890810197816883]","[1,1,1]","[-0.06183146342356687,-0.1435604606879714]","[1,1,1]","[-0.06675299721563635,-0.09089512773882566]","[1,1,1]","[-0.02669230427029536,0.016141023742057333]","[1,1,1]","[-0.012455435809758487,0.18785198576284193]","[1,1,1]","[0.02,0.02]",274.9843,0,42,42,196,1,,,,,,,
,,,,,,,67668ecc7d364b41006a474d,682f0ffa17108db496e2597a,2025-05-22_12h56.48.049,cuing_paradigm_dot,2024.1.5,Win32,29.94011976,682d573fa47f1360d1451895,,,,,,,,,,,274.9855,275.4842,,,275.7183,276.4513,right,0.7048,,,,,,,,,0.5,,,,,,275.4843,275.7182,276.4514,"[-0.10884186175984054,0.016553638357627912]","[-1,-1,-1]","[0.04015345056866521,-0.08482063205298551]","[1,1,1]","[-0.0469493730978406,-0.10637949385683977]","[-1,-1,-1]","[0.07463406777884214,-0.04935805895563463]","[1,1,1]","[-0.03350400387858277,0.0338537535382542]","[1,1,1]","[0.012824101394555932,0.012217587596229153]","[-1,-1,-1]","[-0.07393582201161747,-0.1514733798884651]","[-1,-1,-1]","[-0.030885924585120614,0.16471372970435505]","[-1,-1,-1]","[0.15807407351537445,-0.07253917010890572]","[-1,-1,-1]","[0.014010713854859164,-0.1792636194627221]","[-1,-1,-1]","[0.10713854035610701,0.14568911653994432]","[1,1,1]","[-0.14723134055916315,-0.08291959525584229]","[1,1,1]","[-0.052337752911565956,0.10577585537864095]","[-1,-1,-1]","[0.08298669681245853,0.02796064510951968]","[1,1,1]","[0.12170590135865988,-0.043650996883294234]","[-1,-1,-1]","[-0.10503538859918761,0.10682903981813596]","[-1,-1,-1]","[-0.164879845186752,0.015540172943803074]","[-1,-1,-1]","[0.0669731516080872,-0.15829938413941871]","[1,1,1]","[0.12658210411493093,-0.10062579896326018]","[1,1,1]","[-0.0871822193143229,0.14743513707489597]","[1,1,1]","[-0.0005316827378813653,-0.12704564334289753]","[1,1,1]","[-0.15928760275497764,-0.0398817932758526]","[1,1,1]","[0.03057486686605983,-0.026839457516587527]","[1,1,1]","[0.1316772798848279,-0.1472866874253725]","[-1,-1,-1]","[0.15518893434624073,-0.01758758183535326]","[-1,-1,-1]","[-0.015186451359548646,-0.052463679327284796]","[1,1,1]","[-0.09085425044859471,0.060458245585145017]","[1,1,1]","[0.048426774606712505,0.17097785271337662]","[-1,-1,-1]","[0.16768845278074396,0.0871942582427064]","[-1,-1,-1]","[0.03403584690128835,0.0578723215741965]","[-1,-1,-1]","[0.055200464990404784,0.09585402546821016]","[1,1,1]","[0.1260642700031407,0.07542976713452673]","[1,1,1]","[0.02,0.02]",277.5508,0,43,43,112,1,,,,,,,
,,,,,,,67668ecc7d364b41006a474d,682f0ffa17108db496e2597a,2025-05-22_12h56.48.049,cuing_paradigm_dot,2024.1.5,Win32,29.94011976,682d573fa47f1360d1451895,,,,,,,,,,,277.5518,278.0503,,,278.2839,279.318,left,1.0029,,,,,,,,,0.45,,,,,,278.0504,278.2838,279.3181,"[-0.11990624552180386,-0.15420734090753607]","[-1,-1,-1]","[-0.15243464148132452,-0.10591674766351512]","[-1,-1,-1]","[0.0564295074214623,-0.08382889382430944]","[-1,-1,-1]","[-0.02712506068859195,-0.06806622429588566]","[1,1,1]","[0.18100254324918996,0.056937224832112616]","[1,1,1]","[-0.010643337352044134,0.02733138895439131]","[1,1,1]","[0.051832940383516476,0.18335260037237835]","[1,1,1]","[-0.00920076632303205,0.134905314158741]","[1,1,1]","[0.1685631382030905,0.0048019026374421046]","[1,1,1]","[-0.06288658008506097,0.1350001659660572]","[-1,-1,-1]","[0.052571732170889375,-0.1802487890463495]","[-1,-1,-1]","[-0.1736512570971438,0.015612795440876594]","[-1,-1,-1]","[0.14374335067850652,-0.05594006833987097]","[1,1,1]","[-0.11160986180141809,0.0016105520601336306]","[-1,-1,-1]","[0.17441278465372043,-0.09431572335655393]","[-1,-1,-1]","[0.023190215988005133,-0.019209528160823917]","[1,1,1]","[-0.1632464872700656,0.05581799326782427]","[-1,-1,-1]","[0.06323690345639718,0.12204594427980084]","[-1,-1,-1]","[0.14812341358217185,0.1331201086244931]","[1,1,1]","[-0.1026855515969207,-0.06729124349022418]","[-1,-1,-1]","[0.015689602320622262,0.06263537626297289]","[-1,-1,-1]","[-0.0195267416244465,-0.18415297872945852]","[1,1,1]","[-0.07165728835909871,-0.026666557589328593]","[-1,-1,-1]","[-0.12721858143729256,0.08413476634776076]","[-1,-1,-1]","[0.11879239615019184,-0.14298447678551335]","[-1,-1,-1]","[0.1295476569746606,-0.008108133387323848]","[1,1,1]","[0.1134698876966656,0.0912637834473666]","[1,1,1]","[0.008424773685620005,-0.10272416748434811]","[-1,-1,-1]","[-0.11291114604651703,0.1517124281862713]","[1,1,1]","[-0.04995771056350041,-0.118161706232136]","[-1,-1,-1]","[0.02979595540701042,0.14959660945198291]","[-1,-1,-1]","[-0.09268106683196371,0.05442726315315708]","[1,1,1]","[0.02,0.02]",280.4172,0,44,44,74,1,,,,,,,
