right,left,explain.started,explain.stopped,key_resp_3.keys,key_resp_3.rt,key_resp_3.duration,participant,session,date,expName,psychopyVersion,OS,frameRate,study_id,explain_2.started,explain_2.stopped,key_resp_4.keys,key_resp_4.rt,key_resp_4.duration,explain_3.started,explain_3.stopped,key_resp_5.keys,key_resp_5.rt,key_resp_5.duration,fixation.started,fixation.stopped,practice.started,practice.stopped,response.started,response.stopped,key_resp.keys,feedback.started,feedback.stopped,trials_2.thisRepN,trials_2.thisTrialN,trials_2.thisN,trials_2.thisIndex,trials_2.ran,white_ratio,key_resp.rt,key_resp.duration,explain_4.started,explain_4.stopped,key_resp_6.keys,key_resp_6.rt,key_resp_6.duration,dotDisplay.started,dotDisplay.stopped,ITI.started,polygon_1.pos,polygon_1.color,polygon_2.pos,polygon_2.color,polygon_3.pos,polygon_3.color,polygon_4.pos,polygon_4.color,polygon_5.pos,polygon_5.color,polygon_6.pos,polygon_6.color,polygon_7.pos,polygon_7.color,polygon_8.pos,polygon_8.color,polygon_9.pos,polygon_9.color,polygon_10.pos,polygon_10.color,polygon_11.pos,polygon_11.color,polygon_12.pos,polygon_12.color,polygon_13.pos,polygon_13.color,polygon_14.pos,polygon_14.color,polygon_15.pos,polygon_15.color,polygon_16.pos,polygon_16.color,polygon_17.pos,polygon_17.color,polygon_18.pos,polygon_18.color,polygon_19.pos,polygon_19.color,polygon_20.pos,polygon_20.color,polygon_21.pos,polygon_21.color,polygon_22.pos,polygon_22.color,polygon_23.pos,polygon_23.color,polygon_24.pos,polygon_24.color,polygon_25.pos,polygon_25.color,polygon_26.pos,polygon_26.color,polygon_27.pos,polygon_27.color,polygon_28.pos,polygon_28.color,polygon_29.pos,polygon_29.color,polygon_30.pos,polygon_30.color,polygon_31.pos,polygon_31.color,polygon_32.pos,polygon_32.color,dot_size,ITI.stopped,trials.thisRepN,trials.thisTrialN,trials.thisN,trials.thisIndex,trials.ran,break_2.started,break_2.stopped,trials_3.thisRepN,trials_3.thisTrialN,trials_3.thisN,trials_3.thisIndex,trials_3.ran
subject chose black,subject chose white,0.0011,83.6446,space,68.6212,,6773bcdecee988907232d78f,682f2ec75617729d340e6e0d,2025-05-22_16h13.44.804,cuing_paradigm_dot,2024.1.5,Win32,60.24096386,682d573fa47f1360d1451895,,,,,,,,,,,,,,,,,,,,,,,,,,,,,,,,,,,,,,,,,,,,,,,,,,,,,,,,,,,,,,,,,,,,,,,,,,,,,,,,,,,,,,,,,,,,,,,,,,,,,,,,,,,,,,,,,
,,,,,,,6773bcdecee988907232d78f,682f2ec75617729d340e6e0d,2025-05-22_16h13.44.804,cuing_paradigm_dot,2024.1.5,Win32,60.24096386,682d573fa47f1360d1451895,83.6451,123.0418,space,9.3795,,,,,,,,,,,,,,,,,,,,,,,,,,,,,,,,,,,,,,,,,,,,,,,,,,,,,,,,,,,,,,,,,,,,,,,,,,,,,,,,,,,,,,,,,,,,,,,,,,,,,,,,,,,,,
,,,,,,,6773bcdecee988907232d78f,682f2ec75617729d340e6e0d,2025-05-22_16h13.44.804,cuing_paradigm_dot,2024.1.5,Win32,60.24096386,682d573fa47f1360d1451895,,,,,,123.0422,136.2734,space,10.212,,,,,,,,,,,,,,,,,,,,,,,,,,,,,,,,,,,,,,,,,,,,,,,,,,,,,,,,,,,,,,,,,,,,,,,,,,,,,,,,,,,,,,,,,,,,,,,,,,,,,,,,
,,,,,,,6773bcdecee988907232d78f,682f2ec75617729d340e6e0d,2025-05-22_16h13.44.804,cuing_paradigm_dot,2024.1.5,Win32,60.24096386,682d573fa47f1360d1451895,,,,,,,,,,,136.3128,136.7897,136.7905,136.9916,136.992,138.4897,,138.4901,139.5893,0,0,0,1,1,0.2,,,,,,,,,,,,,,,,,,,,,,,,,,,,,,,,,,,,,,,,,,,,,,,,,,,,,,,,,,,,,,,,,,,,,,,,,,,,,,,,,,,,,,,,
,,,,,,,6773bcdecee988907232d78f,682f2ec75617729d340e6e0d,2025-05-22_16h13.44.804,cuing_paradigm_dot,2024.1.5,Win32,60.24096386,682d573fa47f1360d1451895,,,,,,,,,,,139.5907,140.0891,140.0893,140.3287,140.3288,140.6892,left,140.6894,141.7888,0,1,1,0,1,0.8,0.3356,,,,,,,,,,,,,,,,,,,,,,,,,,,,,,,,,,,,,,,,,,,,,,,,,,,,,,,,,,,,,,,,,,,,,,,,,,,,,,,,,,,,,,,
,,,,,,,6773bcdecee988907232d78f,682f2ec75617729d340e6e0d,2025-05-22_16h13.44.804,cuing_paradigm_dot,2024.1.5,Win32,60.24096386,682d573fa47f1360d1451895,,,,,,,,,,,,,,,,,,,,,,,,,,,,141.7897,159.8205,space,15.0102,,,,,,,,,,,,,,,,,,,,,,,,,,,,,,,,,,,,,,,,,,,,,,,,,,,,,,,,,,,,,,,,,,,,,,,,,,,,,,,,,,
,,,,,,,6773bcdecee988907232d78f,682f2ec75617729d340e6e0d,2025-05-22_16h13.44.804,cuing_paradigm_dot,2024.1.5,Win32,60.24096386,682d573fa47f1360d1451895,,,,,,,,,,,159.8417,160.3371,,,160.5885,161.6374,left,,,,,,,,0.45,1.0169,,,,,,,160.3379,160.5885,161.6385,"[-0.16289121274324142,0.0558341352377608]","[1,1,1]","[-0.09385498771995318,0.1288662904265294]","[1,1,1]","[-0.03613695264470835,-0.16235197427558856]","[-1,-1,-1]","[-0.13232774364299038,-0.03491806438846899]","[1,1,1]","[-0.11589390811364048,0.06696055056276326]","[-1,-1,-1]","[-0.0003056510671092401,0.07762284131994471]","[1,1,1]","[0.07231917488468799,0.13995531204419084]","[-1,-1,-1]","[0.007497455673995776,-0.0896409116015901]","[1,1,1]","[-0.0994581258470844,-0.14584135378611]","[-1,-1,-1]","[-0.06045976260180523,-0.05326537189037701]","[1,1,1]","[0.08491888162454012,-0.11518364293732508]","[-1,-1,-1]","[0.03348020845623775,0.007948713832468663]","[-1,-1,-1]","[0.1849685353079662,-0.02151934605482075]","[-1,-1,-1]","[0.12866074618678947,-0.06385971165366805]","[-1,-1,-1]","[0.005820326907503358,-0.15251392159891403]","[-1,-1,-1]","[0.11817936188783348,0.1358160464777563]","[1,1,1]","[-0.19317900021211123,-0.04535863931558018]","[1,1,1]","[-0.17759591735128663,0.004606615403045319]","[1,1,1]","[0.001327581213863563,0.17276037153126117]","[-1,-1,-1]","[-0.07024374187911073,0.08619705064010479]","[-1,-1,-1]","[0.1609176642106211,0.05119767009032152]","[-1,-1,-1]","[-0.05286305841018384,0.1659400203112581]","[-1,-1,-1]","[-0.08879663845453213,-0.0015070597439750645]","[1,1,1]","[0.17188230468919244,-0.09018141579946841]","[1,1,1]","[0.09519470246767325,0.05053353716595089]","[-1,-1,-1]","[-0.1463254487469853,-0.1170075465951238]","[1,1,1]","[0.048036064728944235,0.09059059470226141]","[1,1,1]","[0.14715131173349594,0.09150295819622338]","[-1,-1,-1]","[0.12714969405311397,-0.13470627899926074]","[-1,-1,-1]","[0.00852494750737718,-0.03573372073862519]","[-1,-1,-1]","[-0.025990492844540556,0.0021627656989630095]","[1,1,1]","[0.07477568128154649,-0.05870771323430939]","[-1,-1,-1]","[0.02,0.02]",162.737,0,0,0,69,1,,,,,,,
,,,,,,,6773bcdecee988907232d78f,682f2ec75617729d340e6e0d,2025-05-22_16h13.44.804,cuing_paradigm_dot,2024.1.5,Win32,60.24096386,682d573fa47f1360d1451895,,,,,,,,,,,162.7378,163.2368,,,163.4879,164.27,left,,,,,,,,0.5,0.7494,,,,,,,163.2368,163.4877,164.2701,"[-0.04948572514188585,-0.020508599328765118]","[-1,-1,-1]","[0.13569735128393398,0.0376086434263914]","[1,1,1]","[-0.18762965481032817,0.04539900381820308]","[1,1,1]","[0.0942006478642111,0.17481512943202393]","[1,1,1]","[-0.04546203783293248,0.026075229324550926]","[1,1,1]","[0.1448709059750232,-0.026719518581933666]","[1,1,1]","[-0.12735920707285422,-0.06729671820188184]","[-1,-1,-1]","[-0.10798444823747093,0.11299495717905145]","[-1,-1,-1]","[-0.17993655753739374,-0.03222208700460009]","[-1,-1,-1]","[-0.15827306771057695,0.11080788890055504]","[1,1,1]","[0.05793510880355497,0.07707953704402011]","[-1,-1,-1]","[0.04927394045503354,-0.03995280876513834]","[-1,-1,-1]","[-0.03080556751262087,-0.12250618376873373]","[1,1,1]","[-0.04411491344064017,0.1304332488427425]","[1,1,1]","[0.01773106182087976,0.18255872030223563]","[1,1,1]","[0.10702499058525389,0.1098734908861967]","[-1,-1,-1]","[0.032852042373239645,-0.09024256599717914]","[-1,-1,-1]","[-0.018688435947441094,-0.07463672972660192]","[-1,-1,-1]","[0.08622647878231858,-0.13651081970960294]","[1,1,1]","[0.02277807575800407,-0.14858807927207907]","[1,1,1]","[-0.1474875586135683,-0.12367137901621031]","[-1,-1,-1]","[0.10031621644392376,0.06941859110801107]","[-1,-1,-1]","[0.06166319361587353,0.004347465369660316]","[-1,-1,-1]","[-0.10986908001804102,-0.020544163227023574]","[-1,-1,-1]","[-0.106960647373023,0.03597589584934301]","[1,1,1]","[0.1030316030960739,-0.033978375183260925]","[1,1,1]","[-0.0761516558464538,0.16783720707177816]","[-1,-1,-1]","[-0.03228264979396315,-0.16970926687831228]","[-1,-1,-1]","[0.005557307167081463,0.06377122830174971]","[1,1,1]","[0.15308008932866726,-0.07691499129856692]","[-1,-1,-1]","[-0.10082829744494248,-0.11853763518318955]","[1,1,1]","[-0.1705520786785593,-0.08841700213629206]","[1,1,1]","[0.02,0.02]",165.3698,0,1,1,97,1,,,,,,,
,,,,,,,6773bcdecee988907232d78f,682f2ec75617729d340e6e0d,2025-05-22_16h13.44.804,cuing_paradigm_dot,2024.1.5,Win32,60.24096386,682d573fa47f1360d1451895,,,,,,,,,,,165.3702,165.8696,,,166.1205,166.7866,right,,,,,,,,0.5,0.634,,,,,,,165.8697,166.1203,166.7867,"[-0.07273137027950632,-0.16821377252956918]","[-1,-1,-1]","[0.005275125420057033,0.13559337888382147]","[1,1,1]","[0.061043788434844475,0.02225387699389328]","[-1,-1,-1]","[-0.0007803532359232854,-0.05870717806124127]","[1,1,1]","[0.08253547941229855,-0.10117391880242271]","[1,1,1]","[-0.05351710765548599,-0.051405804050422964]","[-1,-1,-1]","[0.10310766612930355,-0.047222660088162886]","[-1,-1,-1]","[0.10597582269369417,-0.14203510305233336]","[-1,-1,-1]","[-0.1675854920423986,0.08624529073578947]","[-1,-1,-1]","[-0.03581643710272151,0.14765213009812286]","[1,1,1]","[-0.0014524478466276989,-0.12519652678865417]","[-1,-1,-1]","[-0.18380450102534004,-0.047688989278343655]","[1,1,1]","[-0.0778372454173301,-0.0008543318773430513]","[1,1,1]","[0.15406233490491975,-0.10503965032641606]","[1,1,1]","[-0.03187044033117017,-0.18274049472873]","[1,1,1]","[0.11659797028542235,0.126625262644028]","[1,1,1]","[-0.03591404465165822,0.0845540470529703]","[-1,-1,-1]","[-0.13052047766042701,0.1023261390613909]","[1,1,1]","[0.1708857469595787,0.030796940293501524]","[-1,-1,-1]","[0.0710821723161642,0.12581409685447614]","[1,1,1]","[0.0353957806274997,-0.17688298905688807]","[1,1,1]","[0.12905348272529946,0.038718481236422325]","[1,1,1]","[-0.11609123962656911,-0.017976958502779288]","[-1,-1,-1]","[-0.18464629953682807,0.018367843085009637]","[1,1,1]","[0.09089020628796446,0.06848943026906422]","[-1,-1,-1]","[-0.10131407521376941,0.14195712861830093]","[1,1,1]","[-0.142040478981552,-0.08790911036263464]","[-1,-1,-1]","[0.1741494293989176,0.07316380301313621]","[-1,-1,-1]","[-0.06719344972012659,0.04504935119159467]","[1,1,1]","[0.09283591208197285,0.17131541629144617]","[-1,-1,-1]","[0.0059933194016699885,0.016276092521056374]","[-1,-1,-1]","[-0.021356580647477547,0.18541559589630532]","[-1,-1,-1]","[0.02,0.02]",167.8863,0,2,2,105,1,,,,,,,
,,,,,,,6773bcdecee988907232d78f,682f2ec75617729d340e6e0d,2025-05-22_16h13.44.804,cuing_paradigm_dot,2024.1.5,Win32,60.24096386,682d573fa47f1360d1451895,,,,,,,,,,,167.8869,168.3863,,,168.6368,169.1363,left,,,,,,,,0.5,0.4688,,,,,,,168.3864,168.6367,169.1364,"[-0.18961637725498487,-0.05357777873520899]","[-1,-1,-1]","[-0.13290846380765997,0.012164447630901803]","[-1,-1,-1]","[-0.013465951089631363,-0.1589049739456783]","[1,1,1]","[0.18430183448632775,-0.05355810592525828]","[-1,-1,-1]","[-0.12869717558949548,0.05775334309141092]","[1,1,1]","[0.1559028512300962,0.11391321032616955]","[1,1,1]","[0.04927097356799834,0.02292741553543664]","[-1,-1,-1]","[0.05044162107484476,0.07319297919527375]","[-1,-1,-1]","[-0.13009741621006538,-0.06350393774851683]","[-1,-1,-1]","[-0.07821345084946156,-0.05040685230384955]","[1,1,1]","[0.15891536355321334,0.03628692513991488]","[-1,-1,-1]","[-0.046779206493743945,-0.09130016801063336]","[-1,-1,-1]","[0.11894111180039756,0.08220692976555273]","[-1,-1,-1]","[-0.18579160349517546,0.04255466870397588]","[-1,-1,-1]","[0.025425196936411504,0.17232444859728563]","[-1,-1,-1]","[-0.14786460034260498,-0.13290478292161298]","[1,1,1]","[0.016756764337864726,-0.09610684374218656]","[-1,-1,-1]","[0.10584977413031454,0.04130414510547715]","[1,1,1]","[0.06549610013498904,-0.030790690750842238]","[1,1,1]","[0.1298590426650174,-0.10351869473797827]","[1,1,1]","[0.08342633235065297,-0.1608295668738586]","[1,1,1]","[0.08339446550738175,0.13079151471044964]","[1,1,1]","[-0.09674056347571633,-0.10480654085349234]","[-1,-1,-1]","[0.043261975152644294,0.13587653866565683]","[1,1,1]","[-0.01768059129926597,0.19628891216233188]","[1,1,1]","[-0.02625449341487814,-0.0343683641154908]","[1,1,1]","[-0.04706565054295522,0.08540875242677501]","[1,1,1]","[-0.04811880898286268,0.1386798378822094]","[-1,-1,-1]","[-0.19911587507567757,-0.009377306826113653]","[-1,-1,-1]","[-0.06281733795596874,0.1796630602932386]","[-1,-1,-1]","[0.04491598003779935,-0.18788087094265601]","[1,1,1]","[-0.03827822157824036,0.03176642245042932]","[1,1,1]","[0.02,0.02]",170.2361,0,3,3,112,1,,,,,,,
,,,,,,,6773bcdecee988907232d78f,682f2ec75617729d340e6e0d,2025-05-22_16h13.44.804,cuing_paradigm_dot,2024.1.5,Win32,60.24096386,682d573fa47f1360d1451895,,,,,,,,,,,170.237,170.736,,,170.9864,171.5027,right,,,,,,,,0.9,0.5007,,,,,,,170.736,170.9864,171.5028,"[0.1383867259544626,0.008532466991834237]","[-1,-1,-1]","[0.0076687254649127614,0.08544905478511551]","[1,1,1]","[-0.17757416444221807,-0.035701315684816715]","[1,1,1]","[-0.06356758865029372,-0.15837512712396076]","[1,1,1]","[0.027940217309464308,0.18706421376115248]","[1,1,1]","[-0.10634791948373257,-0.11654463392824123]","[1,1,1]","[0.06812749676299582,-0.135790547065658]","[1,1,1]","[0.029878832121830665,0.04071165980349376]","[-1,-1,-1]","[-0.05483929831537771,-0.05191601955613128]","[1,1,1]","[-0.1457471234336692,0.10875579289513299]","[1,1,1]","[-0.017697528139777537,0.03486057459255314]","[1,1,1]","[0.16157939524669174,-0.05806332372492092]","[1,1,1]","[0.14736573526341212,0.05962440890677239]","[1,1,1]","[-0.13438092234757348,-0.04480019105631548]","[1,1,1]","[0.06257244013413246,0.09611109338353394]","[1,1,1]","[-0.06901567384177336,0.13467450651929405]","[1,1,1]","[-0.10408059698930232,-0.007848020098688782]","[1,1,1]","[0.17060419038442756,-0.09997595766231643]","[1,1,1]","[0.027768725897313207,-0.037720052357566196]","[1,1,1]","[-0.042128434907812984,0.10044627788715088]","[1,1,1]","[0.09436777040702331,0.02591972329839641]","[1,1,1]","[0.05579823239601299,-0.0742608117259988]","[1,1,1]","[-0.07999877671050787,0.06968895376985682]","[1,1,1]","[0.11517157479710333,-0.11136352175096771]","[1,1,1]","[-0.14992408825950213,-0.12367689754680006]","[1,1,1]","[0.0764577190276103,0.18208299247183085]","[1,1,1]","[-0.036347118251449095,-0.008458388984137727]","[1,1,1]","[-0.13384088267084343,0.02824693318727008]","[1,1,1]","[-0.06220749346445106,-0.11677380787698485]","[1,1,1]","[-0.00468934953806153,-0.0968741506731541]","[1,1,1]","[0.1933160198571459,0.045789352020207015]","[-1,-1,-1]","[0.06083435136927603,-0.004123032570484074]","[1,1,1]","[0.02,0.02]",172.6026,0,4,4,180,1,,,,,,,
,,,,,,,6773bcdecee988907232d78f,682f2ec75617729d340e6e0d,2025-05-22_16h13.44.804,cuing_paradigm_dot,2024.1.5,Win32,60.24096386,682d573fa47f1360d1451895,,,,,,,,,,,172.6032,173.1025,,,173.3438,173.9526,left,,,,,,,,0.45,0.5839,,,,,,,173.1025,173.3437,173.9527,"[0.028996035361082598,-0.19238897072365227]","[-1,-1,-1]","[-0.03737979085408739,-0.1016621073199631]","[-1,-1,-1]","[0.10150650754968904,0.053147563389145135]","[-1,-1,-1]","[0.10796589312415233,-0.025924386686589945]","[1,1,1]","[-0.11276817940375183,-0.06251107877373845]","[1,1,1]","[-0.13290775993885923,0.1466964870777315]","[1,1,1]","[0.043538139995180865,0.1263941367014237]","[1,1,1]","[-0.1741448870372841,0.042632509137974235]","[-1,-1,-1]","[0.08435305494828489,-0.14022435379541293]","[-1,-1,-1]","[-0.090795477524078,-0.16931128893472647]","[1,1,1]","[0.06881440761528813,0.15874099063842045]","[1,1,1]","[0.12462866586571476,0.14904181996031918]","[-1,-1,-1]","[-0.12481509370966079,0.008257283852909681]","[-1,-1,-1]","[-0.04214249262203817,0.0010518790054722211]","[-1,-1,-1]","[0.018623129084581694,0.027738485983173716]","[1,1,1]","[0.1719100027743328,0.003830567601263589]","[-1,-1,-1]","[0.09829913570620616,0.109740518859545]","[1,1,1]","[-0.11822758778007914,0.07657025836533744]","[-1,-1,-1]","[-0.01862784078369957,-0.18964720108744063]","[1,1,1]","[-0.15990645388760102,-0.06704891474745353]","[1,1,1]","[0.16278320998269932,-0.08592098688455108]","[1,1,1]","[0.0757266289028942,-0.08336023250129064]","[-1,-1,-1]","[0.008330102625476756,0.15841731008214144]","[1,1,1]","[-0.10635500409340487,-0.12557288362632685]","[-1,-1,-1]","[-0.07677673090761301,-0.038633517975418995]","[1,1,1]","[0.17876361191644347,0.04511357395470482]","[-1,-1,-1]","[-0.04631774550939143,0.10272600743285015]","[-1,-1,-1]","[-0.18917275367642067,0.0028825534875179205]","[-1,-1,-1]","[-0.0421552921439455,0.17349382505510372]","[-1,-1,-1]","[-0.008081526383620849,0.05986537060394502]","[1,1,1]","[0.1334869811315551,0.07943984336357715]","[-1,-1,-1]","[0.12897590939056516,-0.12445240072754464]","[-1,-1,-1]","[0.02,0.02]",175.0523,0,5,5,60,1,,,,,,,
,,,,,,,6773bcdecee988907232d78f,682f2ec75617729d340e6e0d,2025-05-22_16h13.44.804,cuing_paradigm_dot,2024.1.5,Win32,60.24096386,682d573fa47f1360d1451895,,,,,,,,,,,175.0532,175.5524,,,175.8087,176.3855,right,,,,,,,,0.45,0.5513,,,,,,,175.5524,175.8087,176.3857,"[-0.15587165402218997,0.0033715745671201087]","[-1,-1,-1]","[-0.10130738936759522,-0.04709909030642933]","[-1,-1,-1]","[0.15538794643633316,0.002747391713426807]","[1,1,1]","[-0.12925783435135474,-0.1266078950616324]","[-1,-1,-1]","[0.10245040961782743,0.07645278497609918]","[-1,-1,-1]","[-0.08310433120132817,0.08028727116482999]","[1,1,1]","[-0.10386189714626458,0.0013228534743697708]","[1,1,1]","[0.01402981792395689,0.1276474565783692]","[1,1,1]","[0.07444844784031077,-0.1058627928398306]","[-1,-1,-1]","[-0.07984793991444794,0.03577570264849452]","[1,1,1]","[0.12991196652201698,0.1089802731651234]","[-1,-1,-1]","[-0.08485029207223191,-0.16928698344722262]","[-1,-1,-1]","[-0.06261002232033443,0.18144985797208615]","[1,1,1]","[-0.010370235689087508,0.0215522230813553]","[-1,-1,-1]","[-0.048637805847598525,-0.14167436519244542]","[-1,-1,-1]","[0.033654796107349824,-0.12795704679327813]","[1,1,1]","[-0.1267620182966589,0.11758007303187998]","[-1,-1,-1]","[0.1391979720612716,-0.1010991595223161]","[-1,-1,-1]","[0.1396068232612228,-0.044918652081496174]","[-1,-1,-1]","[0.08534332475003223,-0.027369459456487416]","[1,1,1]","[0.07756823796748456,0.17477986433837475]","[1,1,1]","[-0.16833121762921316,0.043277700098075404]","[1,1,1]","[0.015102072081048636,-0.013644193715640227]","[-1,-1,-1]","[-0.08882924130716019,-0.10551570701178246]","[-1,-1,-1]","[0.13131248955162653,-0.1446388918139026]","[-1,-1,-1]","[-0.15103592457535733,0.08210120870892455]","[-1,-1,-1]","[0.09957047624763743,0.032648226322158254]","[-1,-1,-1]","[-0.043096937901573464,0.05411815748992729]","[1,1,1]","[0.017890151249754748,0.1732615487921327]","[1,1,1]","[0.024100970281633508,-0.17190908173872485]","[1,1,1]","[-0.17279546403603493,-0.03344856023863354]","[1,1,1]","[-0.0016231601233869083,-0.05269268033373295]","[-1,-1,-1]","[0.02,0.02]",177.4853,0,6,6,71,1,,,,,,,
,,,,,,,6773bcdecee988907232d78f,682f2ec75617729d340e6e0d,2025-05-22_16h13.44.804,cuing_paradigm_dot,2024.1.5,Win32,60.24096386,682d573fa47f1360d1451895,,,,,,,,,,,177.4862,177.9853,,,178.2359,178.8353,left,,,,,,,,0.9,0.5671,,,,,,,177.9854,178.2359,178.8354,"[-0.022672012521046704,-0.15387845327680036]","[1,1,1]","[0.1238951231099622,-0.1207295308089593]","[1,1,1]","[0.0006294958607341127,0.03581250805890138]","[-1,-1,-1]","[-0.14888425739713362,-0.1128507245627342]","[1,1,1]","[0.09502819281889552,-0.03097691542016531]","[-1,-1,-1]","[-0.020078866654009445,-0.06940398710683178]","[1,1,1]","[-0.13237982600339013,0.002371404494114786]","[1,1,1]","[-0.17650116426312754,-0.05818191420314515]","[1,1,1]","[-0.13691688596217907,0.04503243498986362]","[1,1,1]","[0.0855312484143225,0.10108979008933382]","[1,1,1]","[0.1459600320372291,0.033483837231538256]","[-1,-1,-1]","[0.17415067701395737,0.08445605059815425]","[1,1,1]","[0.03364395482681726,0.12873595885663924]","[1,1,1]","[0.08500899869092929,0.010976500087462853]","[1,1,1]","[-0.0966187336572316,0.11967196147792739]","[1,1,1]","[-0.029336292860018053,0.08506765545217172]","[1,1,1]","[-0.06742043629676409,-0.007369699260304296]","[1,1,1]","[0.16065050584638896,-0.09981818068771099]","[1,1,1]","[0.03519191681341854,-0.1261086872442765]","[1,1,1]","[-0.1922705054730101,-0.007373695196300334]","[1,1,1]","[0.012656848010422803,-0.17407524721261566]","[1,1,1]","[0.1250263445310902,0.07482419622383225]","[1,1,1]","[0.14513718985083282,0.12238780357362411]","[1,1,1]","[-0.007198749732561246,0.13079113498374792]","[1,1,1]","[-0.013125222535586725,-0.016553559871939003]","[1,1,1]","[-0.075559684323362,-0.1504767203481397]","[1,1,1]","[-0.034494654583847394,-0.19606753139978766]","[1,1,1]","[0.08811825798132629,0.1523078391803868]","[1,1,1]","[0.06060156845895954,-0.16050413579586423]","[1,1,1]","[0.11078473098488163,-0.07786432839416604]","[1,1,1]","[0.025810417616581538,0.0807385462137698]","[1,1,1]","[-0.09668116717110103,0.023278693734734207]","[1,1,1]","[0.02,0.02]",179.9351,0,7,7,199,1,,,,,,,
,,,,,,,6773bcdecee988907232d78f,682f2ec75617729d340e6e0d,2025-05-22_16h13.44.804,cuing_paradigm_dot,2024.1.5,Win32,60.24096386,682d573fa47f1360d1451895,,,,,,,,,,,179.9357,180.4311,,,180.6856,182.1849,,,,,,,,,0.5,,,,,,,,180.4311,180.6855,182.1849,"[0.06818709126106277,0.12829160858231736]","[-1,-1,-1]","[0.12737385533956794,-0.015175037680199632]","[-1,-1,-1]","[0.09008453944421024,-0.1644495944232712]","[1,1,1]","[-0.191118938965966,0.03232217173757489]","[1,1,1]","[0.04518417580830962,-0.1922084994764588]","[1,1,1]","[-0.13302363463096595,-0.09827394721289673]","[1,1,1]","[0.04252289088397146,-0.06340251424163977]","[-1,-1,-1]","[0.06484017056593763,0.04132632013090918]","[-1,-1,-1]","[0.03156353920140064,0.08168671770083319]","[1,1,1]","[0.10122314882030364,-0.04772508926801434]","[-1,-1,-1]","[-0.011708886569079759,-0.07357515707724688]","[1,1,1]","[0.015988567529251242,-0.12230885756092956]","[-1,-1,-1]","[-0.024452779690294052,-0.11996442039616594]","[-1,-1,-1]","[-0.07256735425630048,-0.034343819393489086]","[-1,-1,-1]","[-0.1470634794208566,-0.060081263737617005]","[-1,-1,-1]","[-0.0429102221178879,0.09413224846481806]","[1,1,1]","[-0.024591143103199955,-0.17692823716463574]","[1,1,1]","[0.13091727721281565,0.059803518693967654]","[1,1,1]","[-0.09341200004557523,0.1691007985293656]","[1,1,1]","[-0.0559064649459374,0.015026017871350248]","[-1,-1,-1]","[0.013848038787749725,-0.02968482557847535]","[-1,-1,-1]","[-0.12379462531026182,0.055521906076033946]","[-1,-1,-1]","[0.025936147178639055,0.16918972262106532]","[1,1,1]","[0.13125654358006067,0.12160589412760034]","[-1,-1,-1]","[-0.18832165387202476,-0.029330457202294283]","[1,1,1]","[0.09749568460640623,0.0879706762574606]","[1,1,1]","[0.10883906469449331,-0.12864831303816296]","[1,1,1]","[0.19271888151588312,-0.03489734205979974]","[-1,-1,-1]","[-0.09870436688655414,-0.13923273647418363]","[1,1,1]","[-0.028640409012082084,0.18445150069108757]","[-1,-1,-1]","[-0.12175142845018536,0.12166580798227641]","[1,1,1]","[-0.1273208075499214,-0.008987514680147092]","[-1,-1,-1]","[0.02,0.02]",183.2849,0,8,8,95,1,,,,,,,
,,,,,,,6773bcdecee988907232d78f,682f2ec75617729d340e6e0d,2025-05-22_16h13.44.804,cuing_paradigm_dot,2024.1.5,Win32,60.24096386,682d573fa47f1360d1451895,,,,,,,,,,,183.2857,183.7849,,,184.0241,184.5515,left,,,,,,,,0.1,0.4997,,,,,,,183.7849,184.024,184.5515,"[-0.13327139354030648,0.07531610379557332]","[-1,-1,-1]","[-0.025290725002683617,0.14115833940826714]","[1,1,1]","[0.02103398980996269,-0.0625776220486487]","[-1,-1,-1]","[-0.10886813751244782,0.15852232231031357]","[-1,-1,-1]","[-0.10761379094410184,-0.10479699749010632]","[-1,-1,-1]","[0.08057842192029449,0.1567751904255929]","[-1,-1,-1]","[-0.02389591621161844,-0.08422536995826628]","[-1,-1,-1]","[0.06630751478502732,0.08565828569923924]","[-1,-1,-1]","[-0.06829624588128538,-0.07534964042787769]","[-1,-1,-1]","[-0.006244327577355785,0.04982013903954555]","[1,1,1]","[0.05715096894800569,-0.12385151874722261]","[1,1,1]","[-0.04573191756004747,-0.040976113927640376]","[-1,-1,-1]","[0.18150850171229885,0.06640056446966336]","[-1,-1,-1]","[0.0358178131156718,0.1568442273295987]","[-1,-1,-1]","[0.07431288182010021,-0.040770203719542174]","[-1,-1,-1]","[-0.06046326906564737,-0.0004503860367805545]","[-1,-1,-1]","[0.13516706886619195,-0.13105650093179486]","[-1,-1,-1]","[-0.005602835380965207,-0.158970672372509]","[-1,-1,-1]","[0.17570328814862496,-0.03125263413543767]","[-1,-1,-1]","[0.04874590431906434,0.03746677392984534]","[-1,-1,-1]","[-0.1595946305548869,0.031438789238637216]","[-1,-1,-1]","[-0.15633540417146202,-0.07073702399862798]","[-1,-1,-1]","[-0.06384716262945621,-0.18559175543231002]","[-1,-1,-1]","[-0.027200280874699372,0.19466189003087686]","[-1,-1,-1]","[-0.10595177356435226,0.04402968003740276]","[-1,-1,-1]","[-0.17674877169424377,0.06996731641031527]","[-1,-1,-1]","[-0.11791669766892333,0.11435863425272796]","[-1,-1,-1]","[0.03975919318781767,-0.17387541178110388]","[-1,-1,-1]","[0.08910305527635715,-0.08010226867167067]","[-1,-1,-1]","[0.11935501686078412,0.1158966059901517]","[-1,-1,-1]","[0.1314994628447619,0.060383360230144144]","[-1,-1,-1]","[0.1333523168139086,-0.08886116764990169]","[-1,-1,-1]","[0.02,0.02]",185.6512,0,9,9,13,1,,,,,,,
,,,,,,,6773bcdecee988907232d78f,682f2ec75617729d340e6e0d,2025-05-22_16h13.44.804,cuing_paradigm_dot,2024.1.5,Win32,60.24096386,682d573fa47f1360d1451895,,,,,,,,,,,185.6518,186.1511,,,186.4022,186.9179,right,,,,,,,,0.6,0.4834,,,,,,,186.1512,186.4022,186.918,"[0.08569497588999969,0.03739402284245633]","[-1,-1,-1]","[0.07702646681735072,0.12101824563871504]","[1,1,1]","[-0.05170292405781918,0.08178095813488237]","[1,1,1]","[0.14895316768590156,0.10304122560453284]","[-1,-1,-1]","[-0.025546208590346127,-0.16262864246817926]","[-1,-1,-1]","[0.10493572073743464,-0.16281705617734749]","[1,1,1]","[-0.04600917153212134,0.17972497043338068]","[-1,-1,-1]","[0.08580289525710726,-0.12330351741204502]","[1,1,1]","[-0.11051136247389234,-0.06462333047080172]","[-1,-1,-1]","[-0.09496428379057342,0.09824492338738716]","[-1,-1,-1]","[-0.18446525516362092,-0.03214614867405312]","[-1,-1,-1]","[0.031451115455423395,0.04671449893519625]","[1,1,1]","[-0.058031846400354636,-0.07508970697741754]","[1,1,1]","[0.1464132334682582,-0.034425705455462086]","[-1,-1,-1]","[0.047068899256107036,-0.1798367967519912]","[-1,-1,-1]","[-0.06947946260890867,-0.17050867316309476]","[-1,-1,-1]","[-0.14767915290015685,0.10758244875774421]","[1,1,1]","[0.16812044770764284,-0.09373630920023661]","[-1,-1,-1]","[-0.05371422547534321,0.037566278343495726]","[-1,-1,-1]","[-0.09613577937525351,0.1442512817174989]","[1,1,1]","[-0.022442526770892143,-0.008389618554107673]","[1,1,1]","[0.025252335714802714,0.10684096926935202]","[1,1,1]","[0.1920986531041627,0.03660414893189842]","[1,1,1]","[-0.10947346913802239,-0.01798173294001353]","[1,1,1]","[0.07973483393052828,-0.07961646789617746]","[1,1,1]","[-0.15205161955441715,0.028811273819953284]","[1,1,1]","[0.05845067809295225,-0.015499544375067058]","[1,1,1]","[-0.12668382595531766,-0.10546711019197284]","[1,1,1]","[-0.10168031989268964,0.05685821503855044]","[1,1,1]","[0.022585848153852225,-0.040974750154466756]","[1,1,1]","[-0.007883563702143718,-0.12597966525803]","[-1,-1,-1]","[0.13114526207072752,0.049469817993197746]","[1,1,1]","[0.02,0.02]",188.0178,0,10,10,165,1,,,,,,,
,,,,,,,6773bcdecee988907232d78f,682f2ec75617729d340e6e0d,2025-05-22_16h13.44.804,cuing_paradigm_dot,2024.1.5,Win32,60.24096386,682d573fa47f1360d1451895,,,,,,,,,,,188.0185,188.5174,,,188.7684,189.2844,left,,,,,,,,0.45,0.5001,,,,,,,188.5175,188.7683,189.2845,"[0.10576191532138411,-0.011183137591029025]","[-1,-1,-1]","[-0.020907314214356702,-0.18535313953908408]","[1,1,1]","[-0.0035340339474813805,0.009970071876116886]","[-1,-1,-1]","[0.006022647302846807,-0.10881623797645981]","[1,1,1]","[-0.12337070650783753,0.14813948713180403]","[1,1,1]","[0.18192716683857008,0.05595570001897012]","[1,1,1]","[0.03124574919307644,-0.04213675890872883]","[-1,-1,-1]","[0.06289831246422681,-0.15647915172278648]","[-1,-1,-1]","[0.06636265734966905,0.06570974362744895]","[-1,-1,-1]","[-0.042437072722176804,0.18131664996013538]","[-1,-1,-1]","[-0.11289302504839438,-0.08760368317196426]","[1,1,1]","[-0.10967825311499928,0.09006950555573877]","[-1,-1,-1]","[-0.031604632383299226,-0.1282860267351132]","[1,1,1]","[0.10786278622016206,-0.11432871261030489]","[-1,-1,-1]","[0.11929859584217473,0.031845739390304065]","[1,1,1]","[0.13062883489429775,0.1145669246957913]","[-1,-1,-1]","[0.0643619660069834,0.13292391947938517]","[-1,-1,-1]","[-0.149541186944866,-0.10916392780645223]","[1,1,1]","[-0.09996890900736288,-0.13708911240842248]","[1,1,1]","[-0.06597921633866916,0.12843620736910294]","[1,1,1]","[0.023633493471703727,0.15332653695618792]","[-1,-1,-1]","[0.1530800757476207,-0.11876458405627839]","[1,1,1]","[-0.08558919978723228,-0.017124247089797685]","[-1,-1,-1]","[-0.1699637206237018,0.015237393361584384]","[-1,-1,-1]","[-0.17169160133784567,-0.043480952647241757]","[-1,-1,-1]","[0.11426886029607729,-0.05667332586037596]","[-1,-1,-1]","[-0.12695027653756102,0.04098763399204406]","[1,1,1]","[0.1488145256537986,-0.019876814970244582]","[-1,-1,-1]","[-0.0066219878566938,0.06597102810968244]","[-1,-1,-1]","[-0.0641652927986927,-0.09761316158447268]","[1,1,1]","[-0.14951287358155665,0.10947027138754052]","[-1,-1,-1]","[0.026184328684490266,-0.17556663442687376]","[1,1,1]","[0.02,0.02]",190.3841,0,11,11,85,1,,,,,,,
,,,,,,,6773bcdecee988907232d78f,682f2ec75617729d340e6e0d,2025-05-22_16h13.44.804,cuing_paradigm_dot,2024.1.5,Win32,60.24096386,682d573fa47f1360d1451895,,,,,,,,,,,190.3847,190.8841,,,191.1348,191.6174,left,,,,,,,,0.55,0.4515,,,,,,,190.8841,191.1347,191.6174,"[0.16004209467826244,-0.10540779173472924]","[-1,-1,-1]","[0.1706588078380486,-0.018457465444428552]","[1,1,1]","[-0.0710767927675007,0.012370966551246861]","[1,1,1]","[-0.03926218663031645,-0.126870543554063]","[1,1,1]","[0.05489758016553134,0.02341967556114049]","[1,1,1]","[-0.16589151731250432,0.08764458134283858]","[-1,-1,-1]","[-0.02090360650344216,0.11838349456882813]","[-1,-1,-1]","[-0.12415787858099986,-0.003032983607382295]","[1,1,1]","[-0.07435251287807462,0.05299163697167163]","[-1,-1,-1]","[0.11545494804006635,0.030828836076073386]","[-1,-1,-1]","[-0.10706965264397597,-0.10441059861846812]","[1,1,1]","[0.013105478150505523,-0.10158180546252948]","[-1,-1,-1]","[-0.0490150680352969,-0.05865819682451374]","[-1,-1,-1]","[0.030025712327627442,-0.19367727446628155]","[1,1,1]","[0.018951191049999074,0.15250278323614128]","[1,1,1]","[-0.1375618634233446,0.12048664723372912]","[1,1,1]","[-0.09830688084371841,-0.056356780907416026]","[1,1,1]","[0.07139618682120231,-0.06995945651514232]","[-1,-1,-1]","[0.14468594427977835,0.10563504966062906]","[-1,-1,-1]","[-0.17575332568308893,-0.0016292920017302664]","[1,1,1]","[-0.12563597165422727,0.07159926599437147]","[1,1,1]","[0.11370882203421298,0.1436503637761185]","[-1,-1,-1]","[0.0008935772514576705,0.018177752822144438]","[1,1,1]","[-0.11016493042498389,0.1530780809616011]","[1,1,1]","[0.07765075103422481,0.11440189601740466]","[1,1,1]","[0.0649519470087732,-0.1734696832791728]","[1,1,1]","[0.05182644030393433,-0.018955642574796087]","[-1,-1,-1]","[0.021550586416784694,0.07847344675856721]","[-1,-1,-1]","[0.04124042023132889,0.18947370169605696]","[-1,-1,-1]","[-0.014668633936446298,0.17897185629075407]","[1,1,1]","[-0.1475961701735289,-0.12729264256936657]","[-1,-1,-1]","[-0.18989820042823272,0.055030356374781285]","[1,1,1]","[0.02,0.02]",192.7173,0,12,12,121,1,,,,,,,
,,,,,,,6773bcdecee988907232d78f,682f2ec75617729d340e6e0d,2025-05-22_16h13.44.804,cuing_paradigm_dot,2024.1.5,Win32,60.24096386,682d573fa47f1360d1451895,,,,,,,,,,,192.718,193.2171,,,193.4678,193.9505,left,,,,,,,,0.5,0.4502,,,,,,,193.2172,193.4677,193.9506,"[0.00838177934049117,0.09782654036936307]","[-1,-1,-1]","[-0.08096041326786199,-0.1701759006592249]","[1,1,1]","[-0.05273451436995428,-0.08887510053004556]","[-1,-1,-1]","[0.13152010163831643,-0.013687743015030717]","[1,1,1]","[0.07779340163792262,0.045316309886258115]","[-1,-1,-1]","[-0.0727292703217382,0.12923699334376004]","[-1,-1,-1]","[0.060030547141257266,-0.1660245640684418]","[1,1,1]","[0.013415035745754578,0.053236221714808914]","[-1,-1,-1]","[0.17475291557691047,-0.021658751730230803]","[1,1,1]","[-0.06927879159259182,0.17783282284686897]","[-1,-1,-1]","[-0.06615035281120316,-0.0362175177387565]","[-1,-1,-1]","[-0.1427907341504554,0.017095333566970006]","[1,1,1]","[-0.17015834658681916,-0.061589475286288414]","[-1,-1,-1]","[-0.0630531942097444,-0.13373507180011746]","[1,1,1]","[0.03711609978076427,0.14044774997816933]","[-1,-1,-1]","[0.10037594584275929,-0.12570476489189375]","[1,1,1]","[0.11075752419982487,-0.07695799777899542]","[-1,-1,-1]","[0.05153806446838077,-0.026585545600133174]","[-1,-1,-1]","[-0.0886712797316268,0.08192388085540082]","[1,1,1]","[0.10063157598366812,0.11081105727286075]","[1,1,1]","[-0.1366207267245111,-0.08518092602920704]","[1,1,1]","[-0.07793048645492825,0.018963809044622592]","[-1,-1,-1]","[0.16547841992948528,-0.09050144795363656]","[-1,-1,-1]","[0.16656819885273622,0.08558883824414279]","[1,1,1]","[0.00711274232070276,-0.017059434190752884]","[-1,-1,-1]","[-0.037105323286694365,0.00488665778856801]","[1,1,1]","[-0.12790877929122604,-0.12512280480640253]","[1,1,1]","[-0.015954773245904923,-0.05188737314300687]","[1,1,1]","[-0.0342506604430713,0.0675361365533905]","[1,1,1]","[0.1499005803358339,0.0457093652403019]","[-1,-1,-1]","[-0.032373005254209455,0.19342597227598834]","[1,1,1]","[0.0013357093425983109,-0.19106161665221133]","[-1,-1,-1]","[0.02,0.02]",195.0504,0,13,13,103,1,,,,,,,
,,,,,,,6773bcdecee988907232d78f,682f2ec75617729d340e6e0d,2025-05-22_16h13.44.804,cuing_paradigm_dot,2024.1.5,Win32,60.24096386,682d573fa47f1360d1451895,,,,,,,,,,,195.0511,195.5502,,,195.8011,196.2672,right,,,,,,,,0.6,0.4336,,,,,,,195.5503,195.801,196.2672,"[0.08169230377199195,0.08674646606622353]","[-1,-1,-1]","[0.049691425421314224,-0.020744394416306645]","[1,1,1]","[0.08470590498621285,-0.04247781208927225]","[1,1,1]","[-0.04442037022729629,0.0763259754399167]","[1,1,1]","[-0.03309896410780138,-0.10680668003826105]","[-1,-1,-1]","[-0.1256785738726196,0.057737728012440113]","[-1,-1,-1]","[0.026380268074210914,0.02876121399928633]","[1,1,1]","[0.14817958356706212,-0.11557117985662085]","[-1,-1,-1]","[0.1147745921012047,-0.14485338965645592]","[1,1,1]","[0.13258417444182813,0.13685738631378214]","[1,1,1]","[0.03154753156767705,-0.11139176072542256]","[1,1,1]","[0.00939335795482034,-0.009287712028177108]","[1,1,1]","[-0.15675888217590309,-0.0864736313654714]","[1,1,1]","[0.033408297501912446,0.11320657011692084]","[1,1,1]","[-0.09769962956180914,0.08879758794486814]","[1,1,1]","[-0.08752702414308214,0.028980581559005604]","[-1,-1,-1]","[-0.06262643708348864,-0.06836508160982332]","[1,1,1]","[-0.04606031942124064,-0.017313331524382403]","[-1,-1,-1]","[0.05387928736428163,0.17269631284257375]","[-1,-1,-1]","[-0.19615995261766506,-0.03848803564089681]","[-1,-1,-1]","[-0.12682332994633908,-0.004684913575547385]","[1,1,1]","[-0.13814674566619126,0.10332300582144725]","[1,1,1]","[0.11162533355638968,0.04056244993438243]","[1,1,1]","[-0.010824061637777004,-0.19292780552985145]","[-1,-1,-1]","[0.06401366219882786,-0.07766219843640866]","[-1,-1,-1]","[-0.04310409916640578,0.18096829890558863]","[1,1,1]","[-0.09779422022487609,-0.160126224468546]","[-1,-1,-1]","[-0.02112181915324199,0.024998169116416284]","[-1,-1,-1]","[0.1004549534294783,0.16471083781918958]","[1,1,1]","[-0.0330624433008206,0.12618904635215084]","[1,1,1]","[-0.19770409499376568,0.014009580847485398]","[-1,-1,-1]","[0.060001385323170696,-0.18785873212861517]","[1,1,1]","[0.02,0.02]",197.3668,0,14,14,168,1,,,,,,,
,,,,,,,6773bcdecee988907232d78f,682f2ec75617729d340e6e0d,2025-05-22_16h13.44.804,cuing_paradigm_dot,2024.1.5,Win32,60.24096386,682d573fa47f1360d1451895,,,,,,,,,,,197.3673,197.8666,,,198.1171,198.6002,left,,,,,,,,0.55,0.4673,,,,,,,197.8667,198.117,198.6002,"[-0.03866223474249582,0.16549216355630456]","[1,1,1]","[0.11091777684042171,0.0947144081305662]","[-1,-1,-1]","[-0.041290248449880385,-0.12167770400645851]","[1,1,1]","[0.11500463271836449,-0.040658586861193884]","[1,1,1]","[0.011228135687468558,-0.16961999599584512]","[-1,-1,-1]","[0.11197317370948746,0.15357770667339127]","[-1,-1,-1]","[-0.10912585520648208,-0.09775548746113696]","[-1,-1,-1]","[0.1862042332005025,-0.02865167647569818]","[-1,-1,-1]","[-0.15592334417056528,0.08584951306375593]","[-1,-1,-1]","[0.026136413000188333,-0.08839220431350953]","[-1,-1,-1]","[-0.008624650170638579,0.07368373711624307]","[1,1,1]","[-0.08842892157438316,0.144756199611216]","[-1,-1,-1]","[0.12204560418632618,-0.0819796538021341]","[1,1,1]","[-0.08473465840848735,-0.0553599377323236]","[-1,-1,-1]","[-0.036615295108627446,-0.025023345907257796]","[1,1,1]","[0.12921842115168547,0.003096449736066449]","[1,1,1]","[-0.1385015030696653,0.026068765699249166]","[-1,-1,-1]","[0.006427289079745019,-0.018424062519346994]","[1,1,1]","[-0.046367373128591946,0.03375554107317599]","[1,1,1]","[0.07303860128587394,-0.16666959750193477]","[1,1,1]","[-0.07243094154912842,-0.1789701041170997]","[-1,-1,-1]","[0.12704074910962385,-0.14941009603489103]","[1,1,1]","[0.018610381649736916,0.13164591472744744]","[1,1,1]","[-0.07913319321432358,0.00612895122683244]","[-1,-1,-1]","[-0.16301196314081806,-0.08166090239389355]","[-1,-1,-1]","[0.062311995227371283,0.081263938306675]","[1,1,1]","[0.08346750284356406,-0.10348178698668571]","[1,1,1]","[-0.01632981176663911,-0.06443542172236044]","[1,1,1]","[0.038038146938725426,0.026104598573250207]","[-1,-1,-1]","[0.1644409585408264,0.06092489275197349]","[1,1,1]","[0.07234614742446334,0.12824797382393924]","[1,1,1]","[-0.1386676709070651,0.14207915853202738]","[1,1,1]","[0.02,0.02]",199.6999,0,15,15,123,1,,,,,,,
,,,,,,,6773bcdecee988907232d78f,682f2ec75617729d340e6e0d,2025-05-22_16h13.44.804,cuing_paradigm_dot,2024.1.5,Win32,60.24096386,682d573fa47f1360d1451895,,,,,,,,,,,199.7004,200.1998,,,200.4551,200.8499,right,,,,,,,,0.5,0.3819,,,,,,,200.1999,200.4551,200.85,"[0.13020162518127687,0.08509870261108478]","[1,1,1]","[0.07105700651663013,-0.13776681236313565]","[-1,-1,-1]","[-0.05888838940133833,0.07696753661956472]","[1,1,1]","[-0.14781412264660518,-0.0016778800945398996]","[1,1,1]","[-0.11010332389517424,0.10372035259157585]","[1,1,1]","[0.11842441912621876,-0.15956983670331729]","[1,1,1]","[-0.17959766420314058,-0.06438427437231542]","[-1,-1,-1]","[0.0526601088728099,0.05354010374718477]","[1,1,1]","[-0.012115619038367696,0.05322101529409138]","[-1,-1,-1]","[0.0665203710290554,0.1089422739392251]","[1,1,1]","[0.03210505459972522,-0.11696557815709777]","[-1,-1,-1]","[0.11830785469001658,-0.017408064737332023]","[-1,-1,-1]","[-0.07949889471646185,-0.030978199426816812]","[-1,-1,-1]","[0.11023352363307036,-0.06694288852097512]","[-1,-1,-1]","[-0.1260412127067471,0.14091337552148783]","[-1,-1,-1]","[0.01650771636020177,-0.03395688483712186]","[1,1,1]","[0.08901240927632671,0.1599204463163399]","[1,1,1]","[-0.04108306022103737,-0.1262749973754724]","[1,1,1]","[-0.032878991244933,-0.04310534044773948]","[1,1,1]","[-0.18750073834350364,0.01846384771898598]","[1,1,1]","[0.15323028542021788,-0.042312333296294746]","[1,1,1]","[0.07862299156244595,0.021718725507471705]","[1,1,1]","[0.016972601110697864,-0.1792997315936793]","[1,1,1]","[0.18351573672673038,0.015222815867474345]","[-1,-1,-1]","[-0.06925654099158357,0.1405874063804622]","[-1,-1,-1]","[-0.11286592482186668,0.025450258616166416]","[-1,-1,-1]","[0.16114042016218236,0.052793768932038854]","[-1,-1,-1]","[-0.18610258805096394,0.061885239679816795]","[-1,-1,-1]","[-0.08560501359086295,-0.09224248062831011]","[1,1,1]","[0.11832920812813119,0.03430140591854314]","[-1,-1,-1]","[-0.04318709898123032,0.1920048544700223]","[-1,-1,-1]","[-0.056224715387521836,0.034663654630646835]","[-1,-1,-1]","[0.02,0.02]",201.9495,0,16,16,96,1,,,,,,,
,,,,,,,6773bcdecee988907232d78f,682f2ec75617729d340e6e0d,2025-05-22_16h13.44.804,cuing_paradigm_dot,2024.1.5,Win32,60.24096386,682d573fa47f1360d1451895,,,,,,,,,,,201.9499,202.4494,,,202.7004,202.8495,left,,,,,,,,0.6,0.1171,,,,,,,202.4495,202.7002,202.8495,"[-0.04830074029334221,-0.0506469334361392]","[-1,-1,-1]","[-0.08224464233975227,-0.012131595950942323]","[1,1,1]","[-0.14557592215862059,0.06449488437517517]","[1,1,1]","[-0.010342451057517747,0.008130686368652294]","[-1,-1,-1]","[0.05564983520983388,0.13391851937384605]","[-1,-1,-1]","[0.004825045826395015,0.14384933906398267]","[-1,-1,-1]","[0.07988144038274707,0.040197174255383494]","[1,1,1]","[0.0398181774565307,-0.16782279619704352]","[1,1,1]","[0.0932994815331226,0.11824287630190224]","[1,1,1]","[-0.19382482464218598,-0.008115361454803747]","[1,1,1]","[0.04219545221447906,-0.0026247118557035953]","[1,1,1]","[-0.120222674709797,0.09868897896500771]","[-1,-1,-1]","[0.1745366449148353,0.07504279898928132]","[1,1,1]","[0.004989484588517025,-0.19189911905132623]","[1,1,1]","[0.17800435368713954,0.02551571596284054]","[1,1,1]","[0.005948429483847736,-0.08225911760507122]","[-1,-1,-1]","[-0.15741067553048704,0.023106708059093754]","[1,1,1]","[0.13283795237379625,-0.017881988000146277]","[1,1,1]","[-0.03472051077695117,0.19262239092276337]","[-1,-1,-1]","[-0.03217578077952575,-0.14817583916442686]","[-1,-1,-1]","[-0.06646363176575824,0.10320799454907537]","[1,1,1]","[0.1766244325789374,-0.05463788120419272]","[1,1,1]","[-0.1467173615277032,-0.09139259459907925]","[1,1,1]","[0.005272619515430576,0.05417717745316741]","[-1,-1,-1]","[0.1305309165961983,-0.08268252617665103]","[-1,-1,-1]","[0.13732980469521502,0.03425030672195923]","[1,1,1]","[-0.059863142889366484,0.14914219514917584]","[-1,-1,-1]","[0.09626772574880241,-0.15438161394575892]","[-1,-1,-1]","[-0.10244021996237482,0.062406510939153274]","[1,1,1]","[0.04875333325040705,0.1920159713434946]","[1,1,1]","[0.1333623971694808,0.08367673162519763]","[1,1,1]","[-0.14609179067982353,-0.04517817151776626]","[-1,-1,-1]","[0.02,0.02]",203.9492,0,17,17,153,1,,,,,,,
,,,,,,,6773bcdecee988907232d78f,682f2ec75617729d340e6e0d,2025-05-22_16h13.44.804,cuing_paradigm_dot,2024.1.5,Win32,60.24096386,682d573fa47f1360d1451895,,,,,,,,,,,203.9499,204.4493,,,204.6999,204.8665,left,,,,,,,,0.5,0.134,,,,,,,204.4493,204.6999,204.8666,"[-0.04643242464811317,-0.024222643653934207]","[1,1,1]","[0.02602741385431706,0.19394729018737]","[1,1,1]","[-0.11137129578997734,-0.0009373943098638055]","[-1,-1,-1]","[0.164119333958499,-0.1083792705550626]","[1,1,1]","[-0.16998861831197865,-0.0734971801351868]","[1,1,1]","[-0.10250216319156527,-0.14478309826592667]","[1,1,1]","[0.08108188449124956,0.0011399166478403369]","[1,1,1]","[-0.17811061729680533,-0.002794218617158659]","[-1,-1,-1]","[0.09043228991515861,-0.135676058882822]","[-1,-1,-1]","[-0.0485322272751854,-0.16373338517218455]","[1,1,1]","[-0.1105456791128997,0.07344190716290541]","[-1,-1,-1]","[-0.005510571749611487,0.026194258436141763]","[-1,-1,-1]","[0.18090604026703458,0.0618834510200898]","[1,1,1]","[-0.042302592051600925,0.15685350976184073]","[-1,-1,-1]","[0.032894292506597124,-0.09093073272229145]","[1,1,1]","[0.035307124744527324,0.0880270685645093]","[1,1,1]","[0.17919522164882387,-0.04637187508896674]","[1,1,1]","[-0.022142389320238057,0.07126764682176817]","[-1,-1,-1]","[0.015129168512366408,-0.1557615178301234]","[-1,-1,-1]","[-0.09450574838168548,-0.09908164199515895]","[-1,-1,-1]","[0.04292419706865135,-0.022297146742343815]","[-1,-1,-1]","[0.16329534615452201,0.009306224389200058]","[1,1,1]","[-0.04764372444800965,-0.11896556264781644]","[-1,-1,-1]","[0.10929009933864732,-0.03379660829641507]","[1,1,1]","[-0.06896207991275166,0.08204208969895001]","[-1,-1,-1]","[-0.1636969008871933,0.038044254115206025]","[-1,-1,-1]","[0.08785817150013671,0.1322595742084185]","[1,1,1]","[0.10066045332517623,0.040513139186382746]","[-1,-1,-1]","[-0.08950406746355938,0.12240909587231308]","[-1,-1,-1]","[-0.16363560904597999,0.08744082517227243]","[1,1,1]","[0.12532975357378268,0.09472602344174846]","[1,1,1]","[0.06323144911412715,0.16386015316547053]","[-1,-1,-1]","[0.02,0.02]",205.9586,0,18,18,107,1,,,,,,,
,,,,,,,6773bcdecee988907232d78f,682f2ec75617729d340e6e0d,2025-05-22_16h13.44.804,cuing_paradigm_dot,2024.1.5,Win32,60.24096386,682d573fa47f1360d1451895,,,,,,,,,,,205.959,206.4491,,,206.7085,207.1833,left,,,,,,,,0.45,0.4503,,,,,,,206.4491,206.7024,207.1834,"[-0.0039909461883632395,0.15038639590393998]","[-1,-1,-1]","[0.03132932102047945,-0.11200509480275925]","[-1,-1,-1]","[-0.04948758361404522,0.15391431007078593]","[1,1,1]","[-0.026771584495917867,-0.02776979411012072]","[1,1,1]","[0.054756695744584534,-0.05575053106924696]","[-1,-1,-1]","[0.17816621297696408,0.021846293821818907]","[-1,-1,-1]","[-0.12413944376257643,0.042085667548395635]","[1,1,1]","[0.09274619325753246,0.07396248169629846]","[-1,-1,-1]","[-0.12700254437882016,-0.06452257956008732]","[-1,-1,-1]","[-0.028771499154633767,-0.09797390345003454]","[-1,-1,-1]","[0.05435530970009529,0.11269787403607229]","[-1,-1,-1]","[0.048804584870026056,-0.1892010611653849]","[-1,-1,-1]","[-0.07542727566185911,-0.08721193036694597]","[-1,-1,-1]","[-0.020823025235260143,-0.1890453493339963]","[-1,-1,-1]","[0.0987120404856584,-0.020417924149878124]","[1,1,1]","[-0.17499240081280623,0.08848755665815533]","[1,1,1]","[-0.03222505203698299,0.03216042936018056]","[1,1,1]","[0.11066991400646935,-0.14789351434495326]","[-1,-1,-1]","[-0.1256414563918286,0.12669965524679744]","[1,1,1]","[-0.07311997865281487,0.09239589119924553]","[1,1,1]","[0.06036016748794572,-0.00267909832981032]","[1,1,1]","[0.03102657610455155,0.19699831641399637]","[-1,-1,-1]","[0.07207762362461197,0.16335649320228723]","[-1,-1,-1]","[-0.0056574884658699845,0.06813014732613899]","[1,1,1]","[-0.058536766802966156,-0.1524931818384787]","[-1,-1,-1]","[-0.12103415739560111,-0.14284521251527046]","[-1,-1,-1]","[0.14652958517355788,-0.1296507923977012]","[1,1,1]","[-0.07474913181970114,-0.02181034023942508]","[-1,-1,-1]","[0.016239339868899066,-0.006127009647973196]","[1,1,1]","[0.1593004246524465,0.1183472407602664]","[1,1,1]","[-0.02161158294787165,0.19500764874725815]","[1,1,1]","[0.1439406721211089,-0.05151903433041501]","[-1,-1,-1]","[0.02,0.02]",208.2824,0,19,19,65,1,,,,,,,
,,,,,,,6773bcdecee988907232d78f,682f2ec75617729d340e6e0d,2025-05-22_16h13.44.804,cuing_paradigm_dot,2024.1.5,Win32,60.24096386,682d573fa47f1360d1451895,,,,,,,,,,,208.2833,208.7829,,,209.0245,209.4159,left,,,,,,,,0.9,0.3673,,,,,,,208.783,209.0245,209.4161,"[0.19003895610740257,-0.03359413805114758]","[1,1,1]","[0.042671236045607915,0.1824949890220407]","[-1,-1,-1]","[-0.057393171941052576,0.17771524732401883]","[1,1,1]","[-0.13599637108411866,0.09648189885189448]","[1,1,1]","[-0.05347371091220988,-0.028902331745430544]","[1,1,1]","[-0.05818219266815462,-0.08114830834599186]","[1,1,1]","[-0.10987045346871596,-0.10789218226178153]","[1,1,1]","[0.010534374555224841,-0.15275961249831252]","[1,1,1]","[0.07359179888269142,0.13638203352892783]","[1,1,1]","[0.06491980051265044,0.05541082322319048]","[1,1,1]","[-0.11547541917187658,0.04180065317134675]","[1,1,1]","[-0.12498676703634307,-0.056662849325205794]","[1,1,1]","[0.1125889163937383,-0.027858959721594214]","[1,1,1]","[-0.1777833632268084,0.06314546769245376]","[1,1,1]","[0.031120515107393942,-0.07671522345659629]","[1,1,1]","[0.04899409391121647,0.012857870977506581]","[1,1,1]","[0.07697389970789079,-0.18234067170810483]","[1,1,1]","[0.06564919344808523,-0.02765987305128328]","[1,1,1]","[-0.012982747326771408,-0.11463688489201883]","[1,1,1]","[-0.024207459530317648,0.094274945472295]","[1,1,1]","[-0.04441724438659259,0.1397104600320846]","[-1,-1,-1]","[0.11287774339616372,0.09812166917799271]","[1,1,1]","[-0.17818602101011397,-0.024888614458492813]","[1,1,1]","[0.06603564544176299,-0.12220354395137531]","[1,1,1]","[0.1318845434272397,0.05565276656830836]","[-1,-1,-1]","[-0.15972511845036694,0.024669300029882567]","[1,1,1]","[-0.0862393341210045,0.13366562901758672]","[1,1,1]","[-0.15729730698146147,-0.10408341457764267]","[1,1,1]","[-0.07827994874459901,-0.17293649235801734]","[1,1,1]","[0.09675337596018577,-0.09279592130893698]","[1,1,1]","[0.1253527186811772,-0.14610213455237303]","[1,1,1]","[-0.04291016152185901,0.03812239981099578]","[1,1,1]","[0.02,0.02]",210.5155,0,20,20,190,1,,,,,,,
,,,,,,,6773bcdecee988907232d78f,682f2ec75617729d340e6e0d,2025-05-22_16h13.44.804,cuing_paradigm_dot,2024.1.5,Win32,60.24096386,682d573fa47f1360d1451895,,,,,,,,,,,210.5163,211.0155,,,211.2667,211.5492,right,,,,,,,,0.6,0.2527,,,,,,,211.0155,211.2667,211.5493,"[-0.036941765473818076,-0.08547911422333618]","[1,1,1]","[-0.12996850024121162,0.05874324063838663]","[1,1,1]","[0.10250227024427226,0.09823042776957408]","[1,1,1]","[0.09881829587112989,-0.06155370344434752]","[1,1,1]","[-0.06307598383328435,0.10987708688456795]","[-1,-1,-1]","[0.057489820069487774,-0.10736317726998804]","[-1,-1,-1]","[0.12758057239575143,-0.14145204517516466]","[1,1,1]","[-0.13820820713426743,0.00403512459107539]","[1,1,1]","[-0.0935871734459112,0.082137366420958]","[-1,-1,-1]","[0.03993959100268533,0.12552896807870612]","[-1,-1,-1]","[0.04827564939834064,-0.034087485766195684]","[1,1,1]","[0.002110846888029249,0.15066433594348871]","[-1,-1,-1]","[0.060883124033720475,0.18335384628029977]","[1,1,1]","[-0.09991782559695155,-0.11889674511485308]","[1,1,1]","[-0.003745966438834744,-0.009454125019220537]","[1,1,1]","[0.10535745976239018,0.03781821603254061]","[1,1,1]","[0.15250647222489153,-0.09895070891882585]","[-1,-1,-1]","[0.15611658060483735,-0.053052191826698236]","[1,1,1]","[-0.1214053022824035,-0.06431295073388187]","[-1,-1,-1]","[-0.17521297844684378,-0.07175375149546942]","[1,1,1]","[-0.017391332155054687,0.19139343711819992]","[1,1,1]","[-0.09662030707173035,-0.16014944226719624]","[-1,-1,-1]","[0.0156235671984251,-0.1743149187512004]","[-1,-1,-1]","[0.14748409586737063,0.03706160586006704]","[-1,-1,-1]","[-0.1379407011982713,0.12107736077546516]","[-1,-1,-1]","[-0.1855356776555721,-0.03296166854184207]","[1,1,1]","[0.007161009767599634,-0.11181037898662913]","[-1,-1,-1]","[-0.04558061528867951,0.05188920084042136]","[1,1,1]","[-0.07134247024919395,0.019894544401654238]","[1,1,1]","[-0.03471853519845868,-0.17021872199742397]","[1,1,1]","[0.07900955694218308,0.14646280586242583]","[-1,-1,-1]","[-0.19721715173722731,0.031235389643881225]","[1,1,1]","[0.02,0.02]",212.6487,0,21,21,177,1,,,,,,,
,,,,,,,6773bcdecee988907232d78f,682f2ec75617729d340e6e0d,2025-05-22_16h13.44.804,cuing_paradigm_dot,2024.1.5,Win32,60.24096386,682d573fa47f1360d1451895,,,,,,,,,,,212.6498,213.1489,,,213.3898,213.6989,left,,,,,,,,0.9,0.2954,,,,,,,213.149,213.3898,213.6991,"[0.17957161416329,0.032424628915703434]","[1,1,1]","[0.031353380588096086,0.15001986680996449]","[-1,-1,-1]","[0.1352531104988087,-0.02124735864210845]","[1,1,1]","[0.03447089713362146,-0.007556212512355098]","[1,1,1]","[-0.14484197452210607,-0.016432655313403443]","[1,1,1]","[-0.001155707671276971,-0.11037402639513617]","[1,1,1]","[-0.11327385117106424,0.037928560723637865]","[1,1,1]","[-0.004634663676495094,-0.16263740010471556]","[1,1,1]","[0.07945496521919765,0.042363657750534835]","[1,1,1]","[-0.01949173982288426,-0.053155667839262837]","[1,1,1]","[0.017293676200707764,-0.19794067397069012]","[1,1,1]","[-0.08945925358377427,-0.011429765094622893]","[1,1,1]","[0.13826634718079833,-0.07884508327421408]","[1,1,1]","[0.1216435830666309,0.12021431641972036]","[1,1,1]","[0.02787504793220746,0.08884035558155882]","[1,1,1]","[0.07030307474762867,-0.11346966141847786]","[1,1,1]","[0.13794627736395224,0.03226523835531688]","[1,1,1]","[-0.18271110753485734,-0.07336730096767365]","[1,1,1]","[-0.14983087324787875,0.08748157244713875]","[1,1,1]","[-0.042684293584151774,0.09872543358798246]","[1,1,1]","[-0.08665643840767645,0.0934405262419108]","[1,1,1]","[-0.10647158882837925,-0.14809842606329213]","[1,1,1]","[-0.04372319294994744,0.17691364084559405]","[1,1,1]","[0.17382284576487286,0.09053342843123745]","[1,1,1]","[0.13452855162515698,-0.14795046942662668]","[-1,-1,-1]","[-0.10851028362138067,0.15781573743482777]","[1,1,1]","[-0.07222150210495823,-0.09647270376683488]","[1,1,1]","[0.011943733209721166,0.19173659647554514]","[-1,-1,-1]","[0.06222777011373354,0.10977517098497172]","[1,1,1]","[-0.0365806190761325,0.01963905957152848]","[1,1,1]","[-0.1312918787954371,-0.07260304514457354]","[1,1,1]","[0.034735441609134214,-0.04899455019773764]","[1,1,1]","[0.02,0.02]",214.7985,0,22,22,200,1,,,,,,,
,,,,,,,6773bcdecee988907232d78f,682f2ec75617729d340e6e0d,2025-05-22_16h13.44.804,cuing_paradigm_dot,2024.1.5,Win32,60.24096386,682d573fa47f1360d1451895,,,,,,,,,,,214.7993,215.2988,,,215.5498,215.9824,right,,,,,,,,0.6,0.4012,,,,,,,215.2988,215.5498,215.9825,"[-0.0557817621954365,-0.1293714961194741]","[-1,-1,-1]","[0.1593634668979504,-0.05770490076435041]","[1,1,1]","[-0.13911061755116233,-0.015771135515098938]","[-1,-1,-1]","[0.06524062442016554,0.14761153856508658]","[1,1,1]","[0.11451252079866044,0.0923431885065343]","[1,1,1]","[0.16639516313095365,0.06363419977492386]","[-1,-1,-1]","[-0.09154576288799983,-0.15003754139691183]","[1,1,1]","[-0.17716815560920404,0.05714755452985926]","[1,1,1]","[-0.12631564953386026,0.08609054258345025]","[1,1,1]","[-0.09247322527882737,0.051730368410817726]","[1,1,1]","[0.0030730855590608776,-0.08771115019691854]","[-1,-1,-1]","[-0.024336739938791912,0.09082612215827118]","[1,1,1]","[-0.0432712389126587,-0.18040605569365076]","[-1,-1,-1]","[0.046052194164955824,-0.05756988452256159]","[1,1,1]","[-0.18189081305530186,0.011673971367357521]","[1,1,1]","[-0.061407890989225604,0.1395858277751629]","[1,1,1]","[0.0499185533974823,-0.13792221046018716]","[1,1,1]","[-0.010412687427309327,0.028301209889432043]","[1,1,1]","[-0.12053254043390663,-0.052869029880178386]","[1,1,1]","[0.05925974935357214,0.09882041852841199]","[-1,-1,-1]","[0.10170921995817091,-0.0663329371175094]","[-1,-1,-1]","[-0.05053861306573689,-0.006779343816280693]","[-1,-1,-1]","[-0.06242631313318329,-0.045533959543947115]","[1,1,1]","[0.05454723761449299,0.04784885963874901]","[1,1,1]","[-0.12346484368770332,-0.1189495197849749]","[1,1,1]","[0.009346904731341777,-0.1553128855005446]","[1,1,1]","[-0.13034801541131533,0.14604272021828366]","[-1,-1,-1]","[0.14677600957142,0.004118667056299307]","[-1,-1,-1]","[-0.09543115724430777,0.11429397982376054]","[1,1,1]","[0.13152789827141315,-0.14980894121162824]","[-1,-1,-1]","[-0.0010847923178472485,0.13104128856671357]","[-1,-1,-1]","[0.11707088594465072,-0.10805130585303717]","[-1,-1,-1]","[0.02,0.02]",217.082,0,23,23,171,1,,,,,,,
,,,,,,,6773bcdecee988907232d78f,682f2ec75617729d340e6e0d,2025-05-22_16h13.44.804,cuing_paradigm_dot,2024.1.5,Win32,60.24096386,682d573fa47f1360d1451895,,,,,,,,,,,217.0826,217.5817,,,217.8325,218.0321,left,,,,,,,,0.55,0.1676,,,,,,,217.5818,217.8324,218.0322,"[0.053232976454845246,0.13473005722342118]","[1,1,1]","[-0.06194228619928016,0.11650412627514578]","[-1,-1,-1]","[0.07301211531024225,-0.10615021127430986]","[-1,-1,-1]","[-0.1630266662209566,0.10018029543232027]","[1,1,1]","[0.047421925127979866,0.008037778011355285]","[-1,-1,-1]","[0.13389288184855078,0.03492862123567774]","[-1,-1,-1]","[0.10388873590250382,-0.03025496001197587]","[-1,-1,-1]","[0.10125665913801149,0.09851813652808875]","[1,1,1]","[0.013991618880565809,-0.05317355795336757]","[1,1,1]","[0.017794234215190094,0.04600825844289303]","[-1,-1,-1]","[-0.01796214277568183,-0.09165533123983938]","[-1,-1,-1]","[-0.04224254655212521,0.007817730208732608]","[1,1,1]","[-0.03963568593686393,0.06967422526760884]","[-1,-1,-1]","[0.027605931671138294,-0.15880439979475058]","[1,1,1]","[-0.09265096771590178,-0.16863383713367044]","[1,1,1]","[0.018005153349170702,0.183230307267021]","[-1,-1,-1]","[0.03284513664521303,0.084336559200572]","[1,1,1]","[-0.15505360211545507,-0.04842340206105586]","[-1,-1,-1]","[-0.03666352724879528,0.15865734443372143]","[1,1,1]","[-0.04751374580155595,-0.03851352285773262]","[1,1,1]","[-0.09122968067012532,0.05455681052903348]","[1,1,1]","[-0.12403635450757984,-0.08000072345681276]","[1,1,1]","[0.16004043235252752,-0.07058868564175184]","[1,1,1]","[-0.01359902364643835,-0.1374213793320414]","[-1,-1,-1]","[-0.07445225127475105,-0.09087716585780832]","[1,1,1]","[0.0626900198369692,0.053228904697599555]","[-1,-1,-1]","[-0.11060696484389515,-0.03299620710929709]","[-1,-1,-1]","[0.09378180203207342,0.15536717901784422]","[1,1,1]","[-0.006577835238958863,-0.012759011979593903]","[1,1,1]","[0.17713033137592982,0.004847861059771934]","[1,1,1]","[0.1569893066226035,0.07124496304463372]","[-1,-1,-1]","[-0.11253686257549275,0.09851998413475807]","[1,1,1]","[0.02,0.02]",219.1314,0,24,24,136,1,,,,,,,
,,,,,,,6773bcdecee988907232d78f,682f2ec75617729d340e6e0d,2025-05-22_16h13.44.804,cuing_paradigm_dot,2024.1.5,Win32,60.24096386,682d573fa47f1360d1451895,,,,,,,,,,,219.132,219.6312,,,219.8817,220.1479,left,,,,,,,,0.1,0.2416,,,,,,,219.6313,219.8816,220.1481,"[-0.058159763944220046,0.050219437248456934]","[-1,-1,-1]","[0.1859021593528453,0.05276883891711686]","[-1,-1,-1]","[-0.08762772029183004,0.16259592569431264]","[-1,-1,-1]","[0.09604036063766529,0.017279215660078555]","[-1,-1,-1]","[-0.1385939216298689,0.11375487570221215]","[-1,-1,-1]","[-0.030760067390582256,-0.008294449325957028]","[-1,-1,-1]","[-0.048867513064928036,0.14988747325053392]","[-1,-1,-1]","[0.11859074622732223,-0.04700053508803474]","[1,1,1]","[0.02763671986179217,0.1864657483901591]","[-1,-1,-1]","[-0.0446482777710896,-0.08999472265590988]","[-1,-1,-1]","[-0.03467005573050967,-0.15331512021066288]","[-1,-1,-1]","[-0.025542672615314628,-0.05081551629532751]","[-1,-1,-1]","[0.14181673028257016,-0.09787489798900456]","[1,1,1]","[0.0636680582269649,-0.02209579738927253]","[-1,-1,-1]","[-0.11341006318569435,-0.14183538039838767]","[-1,-1,-1]","[0.15998339482414498,0.08334118008383554]","[-1,-1,-1]","[-0.08012242802762817,-0.11013160429698418]","[-1,-1,-1]","[-0.1402136557691849,0.022525163122149895]","[-1,-1,-1]","[0.05376211176252113,-0.16042712372611276]","[-1,-1,-1]","[0.031043077465920377,-0.10678889333110407]","[-1,-1,-1]","[-0.1645266553701957,-0.10884871523030064]","[-1,-1,-1]","[-0.18267729200610594,-0.003993924449340417]","[-1,-1,-1]","[-0.12533084915421175,-0.040637782971543995]","[-1,-1,-1]","[0.08119277696047941,0.13267082060679636]","[1,1,1]","[0.10200995768455244,0.08768530338700574]","[-1,-1,-1]","[0.1672970797137419,-0.016496039191840787]","[-1,-1,-1]","[-0.08830818348816757,-0.011630947675654178]","[-1,-1,-1]","[-0.010621131294017993,0.0900326983643821]","[-1,-1,-1]","[0.1117408151917093,-0.1467736324363244]","[-1,-1,-1]","[-0.09334293244313267,0.07529579227931953]","[-1,-1,-1]","[0.06359192702064022,-0.074608310688195]","[-1,-1,-1]","[0.03842073099573885,0.0329312535544993]","[-1,-1,-1]","[0.02,0.02]",221.248,0,25,25,9,1,,,,,,,
,,,,,,,6773bcdecee988907232d78f,682f2ec75617729d340e6e0d,2025-05-22_16h13.44.804,cuing_paradigm_dot,2024.1.5,Win32,60.24096386,682d573fa47f1360d1451895,,,,,,,,,,,221.2486,221.7477,,,221.9982,222.4978,left,,,,,,,,0.5,0.4846,,,,,,,221.7477,221.9982,222.4978,"[0.02874739898490576,-0.08674845999411195]","[-1,-1,-1]","[0.18058715930195027,-0.0010903784373349744]","[-1,-1,-1]","[0.019711920344668364,0.03945652348096799]","[-1,-1,-1]","[-0.05078280019411188,0.1123661565843513]","[1,1,1]","[0.0773246882434427,-0.030071808313178426]","[-1,-1,-1]","[-0.17263744613167867,0.052403689583589784]","[1,1,1]","[0.11548769719541901,-0.08926390092532589]","[1,1,1]","[0.15351655431833172,-0.05030472180192953]","[1,1,1]","[-0.07891384922091091,-0.07321094924539646]","[1,1,1]","[-0.017944185390563642,-0.12745702190408276]","[1,1,1]","[-0.09486750679728671,0.08849748365812114]","[1,1,1]","[0.020872728370598743,0.13610308267140625]","[-1,-1,-1]","[0.03341972008532023,0.09210564598893778]","[1,1,1]","[-0.044795777373652236,-0.028787338157063615]","[-1,-1,-1]","[-0.19193865638023674,-0.018798198852375835]","[-1,-1,-1]","[-0.1293498508696161,0.010939274752959686]","[1,1,1]","[-0.09848645271408726,0.1296826631340543]","[-1,-1,-1]","[0.03162286334197369,-0.005149739082261075]","[-1,-1,-1]","[0.023032388912720827,0.18064226216576854]","[-1,-1,-1]","[0.15102309827843965,0.09158876883223371]","[1,1,1]","[-0.17264949493011364,-0.08795347471787872]","[1,1,1]","[0.03137802082659689,-0.14182425344884547]","[1,1,1]","[0.09981236260823378,0.0031861828655990626]","[-1,-1,-1]","[0.06601183206910058,0.11741135681788256]","[-1,-1,-1]","[0.1371322926160078,0.0533897786293525]","[-1,-1,-1]","[-0.13309049741981777,-0.03455415020045401]","[-1,-1,-1]","[-0.16456546462712932,0.10667220284731067]","[-1,-1,-1]","[-0.06364584928823462,-0.12322169956237526]","[-1,-1,-1]","[0.07271619651199604,0.03845378721667261]","[1,1,1]","[-0.03419591084252787,0.18529350833877062]","[1,1,1]","[-0.08306231283449372,0.013593771302881275]","[1,1,1]","[0.086687860697669,0.1516594542576314]","[1,1,1]","[0.02,0.02]",223.5975,0,26,26,101,1,,,,,,,
,,,,,,,6773bcdecee988907232d78f,682f2ec75617729d340e6e0d,2025-05-22_16h13.44.804,cuing_paradigm_dot,2024.1.5,Win32,60.24096386,682d573fa47f1360d1451895,,,,,,,,,,,223.598,224.0976,,,224.3479,224.5975,right,,,,,,,,0.4,0.2172,,,,,,,224.0976,224.3479,224.5976,"[-0.10649085983395673,-0.07643427832065057]","[-1,-1,-1]","[-0.048316771082168135,0.04480786666341882]","[-1,-1,-1]","[0.10033036566229467,0.04424818507829209]","[-1,-1,-1]","[0.07197317589214614,0.015938147562498183]","[-1,-1,-1]","[-0.002491391061886214,-0.0032699948437392465]","[-1,-1,-1]","[0.051084764374178374,-0.1437870849632094]","[-1,-1,-1]","[-0.12974577335834916,0.14758712849643987]","[-1,-1,-1]","[-0.03714242864686153,-0.06457866466215109]","[1,1,1]","[-0.05634796576848579,-0.13827955539054185]","[-1,-1,-1]","[0.056661386256270346,0.1153244861893082]","[-1,-1,-1]","[0.17419407034687115,-0.04888892037438875]","[1,1,1]","[0.14265918301187705,-0.07806249366239655]","[1,1,1]","[-0.1575083031320516,-0.023657083429272124]","[1,1,1]","[-0.056127532489411276,0.17631654366683117]","[1,1,1]","[0.043704627537057276,-0.0970802351478456]","[-1,-1,-1]","[-0.18527219189394706,0.04868874470925092]","[-1,-1,-1]","[0.08881049013425278,-0.03655310226023228]","[-1,-1,-1]","[-0.060473632858823345,0.09345308439666378]","[1,1,1]","[-0.17584954155505825,0.08939777381915946]","[1,1,1]","[0.06909174732550684,0.18638269481115935]","[1,1,1]","[-0.09022253700681297,-0.02203279331391037]","[-1,-1,-1]","[-0.15834165938951872,-0.09006896480966907]","[-1,-1,-1]","[-0.14497694535293484,0.055474858511656296]","[1,1,1]","[-0.09721530418968555,0.02534485766638783]","[1,1,1]","[0.036579752651519006,-0.19284521193003237]","[1,1,1]","[0.1240627282045593,0.008362629322338362]","[-1,-1,-1]","[-0.09043286967024773,-0.11673101704404226]","[-1,-1,-1]","[0.07669399481056602,-0.18416990790765653]","[-1,-1,-1]","[0.037260368695112844,-0.03097683061888008]","[1,1,1]","[0.011374807443256748,-0.12457387754419849]","[1,1,1]","[0.130744788445548,-0.12854675447557568]","[-1,-1,-1]","[-0.09681673397693982,0.0668127996801407]","[-1,-1,-1]","[0.02,0.02]",225.6975,0,27,27,49,1,,,,,,,
,,,,,,,6773bcdecee988907232d78f,682f2ec75617729d340e6e0d,2025-05-22_16h13.44.804,cuing_paradigm_dot,2024.1.5,Win32,60.24096386,682d573fa47f1360d1451895,,,,,,,,,,,225.698,226.1974,,,226.4477,226.7306,left,,,,,,,,0.5,0.2673,,,,,,,226.1975,226.4476,226.7307,"[-0.011759332694074337,-0.12060124805287417]","[-1,-1,-1]","[-0.16122274753543053,0.05310715697773405]","[1,1,1]","[-0.14132781314662404,-0.1034555136057615]","[-1,-1,-1]","[0.12027423629072168,-0.07665976619122915]","[-1,-1,-1]","[0.12074319669424749,-0.018648403797611374]","[1,1,1]","[0.027237622733111012,0.18632035864056046]","[-1,-1,-1]","[0.07849859508042095,-0.01582285581762627]","[1,1,1]","[-0.056295665139012484,0.14619986126941922]","[1,1,1]","[-0.09114932242120741,-0.031457645475199456]","[-1,-1,-1]","[-0.03468772543464972,0.03720942071437724]","[-1,-1,-1]","[-0.14889875024599997,-0.01661977716165639]","[-1,-1,-1]","[0.058614671880291645,-0.08532966827899643]","[-1,-1,-1]","[0.038939013549652915,0.14301748758322436]","[-1,-1,-1]","[-0.02837787450366414,0.09868130335331692]","[-1,-1,-1]","[-0.08511604240927202,0.02274614962723492]","[1,1,1]","[-0.008877980516006941,-0.03970442701114219]","[1,1,1]","[0.1253573059543705,-0.14145234889183808]","[-1,-1,-1]","[0.134695336166174,0.09167956658118978]","[1,1,1]","[-0.08839800474436742,-0.09900243300197857]","[1,1,1]","[0.06895084651487284,0.05433453290561638]","[1,1,1]","[-0.02004240647300344,-0.17413590510596763]","[1,1,1]","[0.1834338117935505,0.05618151522493268]","[1,1,1]","[0.08802782413015096,-0.16832101264628188]","[1,1,1]","[-0.03664887269983371,-0.007279861250130156]","[-1,-1,-1]","[-0.09631462683080683,0.07557668352654748]","[-1,-1,-1]","[-0.04375074569559903,-0.08368391769697886]","[1,1,1]","[-0.002925304847147018,0.15906165916037482]","[1,1,1]","[0.09617887908847601,-0.1117456066979878]","[-1,-1,-1]","[-0.10144661148223891,0.1698827125857142]","[-1,-1,-1]","[0.10804962446172728,0.16681814024829342]","[1,1,1]","[0.031214563424886457,0.09644407124249593]","[1,1,1]","[-0.18869817740425623,-0.007344600514660347]","[-1,-1,-1]","[0.02,0.02]",227.8303,0,28,28,108,1,,,,,,,
,,,,,,,6773bcdecee988907232d78f,682f2ec75617729d340e6e0d,2025-05-22_16h13.44.804,cuing_paradigm_dot,2024.1.5,Win32,60.24096386,682d573fa47f1360d1451895,,,,,,,,,,,227.8307,228.3305,,,228.5815,228.7808,right,,,,,,,,0.4,0.1668,,,,,,,228.3305,228.5813,228.7809,"[0.13706231322049806,-0.002931706544468625]","[1,1,1]","[0.098427691514859,0.037955361389623805]","[1,1,1]","[-0.02654423385053892,-0.15879094471169403]","[-1,-1,-1]","[0.024347932740900878,0.17293040228514608]","[1,1,1]","[0.06572183538973925,0.1562517537516036]","[-1,-1,-1]","[-0.07604372566931526,-0.00862731279168235]","[-1,-1,-1]","[-0.1695524764983415,-0.08422765917340676]","[1,1,1]","[-0.01799092864814485,-0.09668790000605963]","[-1,-1,-1]","[0.1240732371689147,-0.12331009480912088]","[1,1,1]","[-0.05044049352330521,0.10554920040274107]","[-1,-1,-1]","[0.1915482285100235,0.04556650862334821]","[1,1,1]","[0.08895886233115799,0.12202908606853562]","[1,1,1]","[0.14106401954564615,-0.0705275341394247]","[-1,-1,-1]","[-0.1281173680822309,-0.03636473668718125]","[-1,-1,-1]","[0.009623545698987403,0.04977416728322535]","[-1,-1,-1]","[0.053571518055818904,0.08302375441953898]","[-1,-1,-1]","[0.13438426347063198,0.10667477129024211]","[1,1,1]","[0.0021607053151230012,-0.011211679596231563]","[-1,-1,-1]","[0.04180825044612381,0.011690244013695901]","[1,1,1]","[-0.03645745529076281,0.1579820919767211]","[1,1,1]","[0.1854187617660468,-0.005640979321922041]","[-1,-1,-1]","[-0.13634415965491092,0.004038542047494058]","[-1,-1,-1]","[-0.04397310103507819,0.03524665264737237]","[-1,-1,-1]","[-0.051987618243474795,-0.06844429612077854]","[-1,-1,-1]","[-0.12661964258780925,0.10165155746440392]","[1,1,1]","[-0.1573333015609975,0.05971232445168813]","[1,1,1]","[0.1415233021946088,0.056161168975922805]","[-1,-1,-1]","[0.039811662849138084,-0.06168356696243342]","[-1,-1,-1]","[-0.18730345348156988,-0.014856265517130792]","[-1,-1,-1]","[0.03374781791259451,-0.10952409419100144]","[-1,-1,-1]","[-0.08650532728384017,0.1699748565122033]","[1,1,1]","[0.11569303010846457,0.16260603226705744]","[-1,-1,-1]","[0.02,0.02]",229.8802,0,29,29,43,1,,,,,,,
,,,,,,,6773bcdecee988907232d78f,682f2ec75617729d340e6e0d,2025-05-22_16h13.44.804,cuing_paradigm_dot,2024.1.5,Win32,60.24096386,682d573fa47f1360d1451895,,,,,,,,,,,229.881,230.3771,,,230.6309,231.5469,right,,,,,,,,0.4,0.8836,,,,,,,230.3772,230.6307,231.5469,"[0.012831391452073404,0.07884088600110797]","[-1,-1,-1]","[0.1152538609075703,-0.11406414790029455]","[1,1,1]","[0.17295348953307485,0.04321372952357757]","[-1,-1,-1]","[0.08455694778586623,-0.05744767540851478]","[1,1,1]","[-0.03303580396696462,-0.04038720665195951]","[1,1,1]","[-0.1319640054513061,0.08856732753662855]","[-1,-1,-1]","[-0.08339706687288019,0.04823797433803457]","[1,1,1]","[0.12663228389718145,-0.05515969286727072]","[-1,-1,-1]","[0.04062013406549929,-0.1375917994678496]","[1,1,1]","[0.009595395234108049,-0.01878689965640849]","[-1,-1,-1]","[-0.09218800704757867,0.1736603950135386]","[1,1,1]","[0.0026332542704502098,0.18451264391874153]","[1,1,1]","[-0.12213746403111578,0.14080260387861696]","[-1,-1,-1]","[0.0007415572523848005,-0.1287268220977273]","[1,1,1]","[0.012275994281587802,-0.07439617022160427]","[1,1,1]","[0.17006438722022993,-0.07130337739799211]","[-1,-1,-1]","[0.005917362373675948,0.13293363111126813]","[-1,-1,-1]","[-0.07457893659916277,-0.06368485869766967]","[-1,-1,-1]","[0.1170090564170024,0.04475378895256913]","[-1,-1,-1]","[0.16701650776429822,0.08739979795752498]","[1,1,1]","[0.08810818107095418,0.09794953582061602]","[-1,-1,-1]","[-0.08777227058942062,-0.17598614298069779]","[-1,-1,-1]","[0.023700402473717682,0.03516168740777864]","[1,1,1]","[-0.1586699092627671,-0.05876889201178888]","[-1,-1,-1]","[-0.177296033289851,-0.013534479237482428]","[1,1,1]","[-0.08644327438614596,-0.12350083982784266]","[-1,-1,-1]","[-0.06248413294298838,-0.006324099776038238]","[-1,-1,-1]","[-0.028664677043483296,0.029923811486797756]","[-1,-1,-1]","[-0.11827639006108524,0.009531880271726974]","[-1,-1,-1]","[0.1288589837174552,0.14089448157023154]","[1,1,1]","[-0.08887590104888861,0.11795575474202348]","[-1,-1,-1]","[0.08146608546472182,0.15103232427997032]","[-1,-1,-1]","[0.02,0.02]",232.6466,0,30,30,57,1,,,,,,,
,,,,,,,6773bcdecee988907232d78f,682f2ec75617729d340e6e0d,2025-05-22_16h13.44.804,cuing_paradigm_dot,2024.1.5,Win32,60.24096386,682d573fa47f1360d1451895,,,,,,,,,,,232.6472,233.1466,,,233.3972,234.73,right,,,,,,,,0.5,1.3004,,,,,,,233.1467,233.3972,234.7301,"[0.0018804499210914826,-0.18514676727273086]","[1,1,1]","[-0.17515978713196742,-0.028493714276510047]","[-1,-1,-1]","[0.05278126229668165,-0.1310135238229726]","[1,1,1]","[-0.1840747974001622,0.05047349180136713]","[1,1,1]","[-0.09472825859068715,-0.017076063907396088]","[-1,-1,-1]","[0.03777925645766344,0.09524426924851735]","[1,1,1]","[-0.05554123053361675,-0.08402510058388729]","[-1,-1,-1]","[-0.07612369189264016,0.13270486960800298]","[1,1,1]","[-0.020908414549310927,0.058917658471677126]","[-1,-1,-1]","[0.1604059593286255,0.11832939724859962]","[1,1,1]","[0.1509532109007102,-0.005252629008093937]","[-1,-1,-1]","[0.03115656074586788,-0.03791508459928921]","[1,1,1]","[-0.11249304071583817,-0.158177721855812]","[-1,-1,-1]","[0.1727942000094295,-0.06878427469150127]","[-1,-1,-1]","[-0.1007996159697379,0.074463478892499]","[1,1,1]","[0.07423499873587505,-0.06881623564965021]","[-1,-1,-1]","[-0.12370205341638599,-0.07063461193608282]","[1,1,1]","[-0.04938223487579983,-0.18635470117870118]","[-1,-1,-1]","[0.04003793369978883,0.0443642850845916]","[-1,-1,-1]","[-0.018967570869386604,-0.02051318038941321]","[1,1,1]","[0.013002840688633405,0.1342659075665563]","[-1,-1,-1]","[0.04116750416453832,0.182452319934754]","[1,1,1]","[0.08046030755139232,0.16131080484141966]","[1,1,1]","[-0.1477446681998883,-0.11397977408410058]","[1,1,1]","[0.01777337413168524,-0.09182388287467562]","[1,1,1]","[0.11480463430138761,0.1036401367460633]","[1,1,1]","[-0.13236771282763957,0.10762996664709065]","[-1,-1,-1]","[-0.024487126026099232,0.10581606253725864]","[-1,-1,-1]","[0.06963000847349385,0.016267569842809675]","[-1,-1,-1]","[0.11682792456879601,-0.07374878292640694]","[-1,-1,-1]","[0.08918928582299387,-0.019555517032856174]","[1,1,1]","[0.10713527907751871,0.06418562270742371]","[-1,-1,-1]","[0.02,0.02]",235.83,0,31,31,106,1,,,,,,,
,,,,,,,6773bcdecee988907232d78f,682f2ec75617729d340e6e0d,2025-05-22_16h13.44.804,cuing_paradigm_dot,2024.1.5,Win32,60.24096386,682d573fa47f1360d1451895,,,,,,,,,,,235.8304,236.3295,,,236.5802,236.9797,left,,,,,,,,0.55,0.3841,,,,,,,236.3295,236.5802,236.9797,"[-0.1271928324240886,0.054024232518259406]","[1,1,1]","[-0.020559743970928697,-0.08483222803185528]","[1,1,1]","[0.07352499428000658,0.07028120136776386]","[1,1,1]","[0.1281767466841061,0.046623560724238775]","[1,1,1]","[0.15524654580403768,-0.0038230245988272005]","[-1,-1,-1]","[-0.17046125713300705,0.09778832823090852]","[1,1,1]","[-0.14118065135034083,-0.04674955629803021]","[1,1,1]","[-0.15844440047446753,0.021199585782653362]","[-1,-1,-1]","[0.08242446103533815,-0.09467596758282462]","[-1,-1,-1]","[-0.06886507581831941,-0.057490196048889906]","[-1,-1,-1]","[0.03855597829152235,-0.17942520922767938]","[1,1,1]","[0.11371433547904203,-0.019709340959412135]","[1,1,1]","[-0.19408350943982225,-0.005789779705559399]","[-1,-1,-1]","[0.034457772514527994,0.004004277613662584]","[1,1,1]","[-0.03074784635229934,0.0869576445462622]","[1,1,1]","[-0.0035802768923714964,0.1559591052379584]","[-1,-1,-1]","[0.08771082696260071,-0.168463507035352]","[-1,-1,-1]","[0.1669575669056456,-0.05282882287676247]","[1,1,1]","[-0.07944081294801696,0.1048618025011914]","[-1,-1,-1]","[-0.009068226810743017,-0.031387175373032955]","[-1,-1,-1]","[-0.08745934221822406,-0.1413731404930492]","[-1,-1,-1]","[-0.053573702406959196,-0.0031963248327547635]","[1,1,1]","[0.022128904637345907,-0.06980255316870387]","[1,1,1]","[-0.0033356510663017603,-0.16752162869591675]","[-1,-1,-1]","[0.08749262220065274,0.030967007041041595]","[1,1,1]","[0.16075779219735753,0.08742133809055698]","[-1,-1,-1]","[0.03779401409110895,0.19254316492359158]","[1,1,1]","[0.12318683078748563,0.12027127056374622]","[1,1,1]","[-0.17675170732654752,-0.08323186098630174]","[-1,-1,-1]","[0.0400082322750004,0.11173718139251816]","[1,1,1]","[0.06438144614609966,-0.1345621411443087]","[-1,-1,-1]","[-0.06512634432472086,0.048436830708288865]","[1,1,1]","[0.02,0.02]",238.0795,0,32,32,131,1,,,,,,,
,,,,,,,6773bcdecee988907232d78f,682f2ec75617729d340e6e0d,2025-05-22_16h13.44.804,cuing_paradigm_dot,2024.1.5,Win32,60.24096386,682d573fa47f1360d1451895,,,,,,,,,,,238.0801,238.5796,,,238.8302,240.3294,,,,,,,,,0.45,,,,,,,,238.5796,238.8301,240.3295,"[-0.04695865065516755,-0.12623324379087755]","[-1,-1,-1]","[0.13613868153483757,-0.11175094666785748]","[1,1,1]","[-0.08848370041682159,0.045393993125834156]","[1,1,1]","[-0.18578643058089123,0.0003035264974349342]","[-1,-1,-1]","[-0.09954911882421541,0.16241045291110667]","[-1,-1,-1]","[0.06828300473118715,-0.06600699269228708]","[-1,-1,-1]","[0.09970770041599179,0.06299957942420936]","[-1,-1,-1]","[0.18108620166571623,0.023832048372289638]","[1,1,1]","[0.06140780497069631,0.030851947789238537]","[1,1,1]","[0.01604530064138746,-0.022860292372941935]","[-1,-1,-1]","[0.14009300132011254,-0.020630973786888177]","[-1,-1,-1]","[-0.04251866393760036,0.008981392211931092]","[1,1,1]","[-0.10148629114873928,0.0998713193491148]","[-1,-1,-1]","[0.04625341059093989,-0.15189649091930715]","[-1,-1,-1]","[0.01664069736571781,-0.1227190425110519]","[1,1,1]","[-0.15797533421098417,-0.1045411976870978]","[-1,-1,-1]","[0.004407310409983139,0.14580181242959678]","[-1,-1,-1]","[-0.11925498157313111,-0.03779079511306692]","[1,1,1]","[-0.09453666141289462,-0.12577774136790912]","[-1,-1,-1]","[0.05019939731493632,0.1166566387775168]","[-1,-1,-1]","[0.1832884050419811,-0.049152687025983195]","[1,1,1]","[0.12228263324856065,-0.06444393611582036]","[1,1,1]","[0.13478272423261822,0.1365249438350413]","[-1,-1,-1]","[0.0018038041285096786,-0.08135488135607769]","[1,1,1]","[-0.07398818855936867,-0.05399790213851825]","[1,1,1]","[0.08403036844021866,0.14056924256779732]","[-1,-1,-1]","[0.09550918988860346,-0.17551693490466705]","[1,1,1]","[-0.02004240285877606,-0.1932923158265116]","[-1,-1,-1]","[0.07601877398424188,-0.025564779629049808]","[1,1,1]","[-0.08706036575562875,-0.17559731987297322]","[-1,-1,-1]","[0.06187046090286924,0.18107210497290033]","[1,1,1]","[0.011250016938007616,0.19674875876123749]","[-1,-1,-1]","[0.02,0.02]",241.4291,0,33,33,61,1,,,,,,,
,,,,,,,6773bcdecee988907232d78f,682f2ec75617729d340e6e0d,2025-05-22_16h13.44.804,cuing_paradigm_dot,2024.1.5,Win32,60.24096386,682d573fa47f1360d1451895,,,,,,,,,,,241.4297,241.929,,,242.1753,242.3762,left,,,,,,,,0.45,0.184,,,,,,,241.929,242.1753,242.3764,"[0.018701310297948748,0.042588581365847686]","[1,1,1]","[0.15991054574372787,-0.010242483727718034]","[-1,-1,-1]","[-0.06859075892639462,-0.029096647451108185]","[-1,-1,-1]","[-0.08449378168003698,-0.08013361260100264]","[-1,-1,-1]","[0.04290213824481088,0.13551753027278293]","[1,1,1]","[0.13909916814204515,-0.04954455839379129]","[1,1,1]","[-0.06130447705853378,-0.15235058904471316]","[1,1,1]","[-0.13227601967310323,-0.03214678630334312]","[-1,-1,-1]","[0.08256661140887885,-0.05583191913166136]","[-1,-1,-1]","[0.17193136930077194,0.04615747039579222]","[-1,-1,-1]","[-0.19400348618045907,0.048082116445144554]","[-1,-1,-1]","[-0.0016977386454170569,0.112485924281546]","[1,1,1]","[-0.07409052276016471,0.010586125915893616]","[-1,-1,-1]","[-0.18348338873993947,-0.011867805943150187]","[-1,-1,-1]","[0.19831997092025602,0.0073947725429542015]","[1,1,1]","[0.09001314701086725,0.05852365049564311]","[1,1,1]","[0.17984648466969247,-0.05562144292387288]","[1,1,1]","[-0.024639636256647564,0.056827022348201334]","[1,1,1]","[0.05903761050284629,-0.0014546140400529034]","[1,1,1]","[-0.00506032252504791,-0.1181321144361695]","[1,1,1]","[-0.0003474514222251612,-0.1642437901890329]","[-1,-1,-1]","[-0.1338211967496794,0.021922356259600546]","[-1,-1,-1]","[0.0524718630450481,0.1841659636007763]","[1,1,1]","[-0.0176879177397192,-0.06042606760415835]","[-1,-1,-1]","[-0.12296016692176187,-0.15650370579669695]","[-1,-1,-1]","[-0.18728092848505945,-0.06182826831251034]","[1,1,1]","[0.07672226633168919,-0.11746842131314386]","[-1,-1,-1]","[-0.06712539764375662,0.14817377897102718]","[-1,-1,-1]","[-0.12965967066006592,0.11952662693543899]","[-1,-1,-1]","[-0.07124155938820892,0.09580200201610212]","[1,1,1]","[0.10190757983974104,0.003102810232175467]","[-1,-1,-1]","[-0.14925432408958716,-0.09897967352348609]","[-1,-1,-1]","[0.02,0.02]",243.4791,0,34,34,72,1,,,,,,,
,,,,,,,6773bcdecee988907232d78f,682f2ec75617729d340e6e0d,2025-05-22_16h13.44.804,cuing_paradigm_dot,2024.1.5,Win32,60.24096386,682d573fa47f1360d1451895,,,,,,,,,,,243.4797,243.9788,,,244.2293,244.3289,right,,,,,,,,0.9,0.084,,,,,,,243.9789,244.2293,244.329,"[0.05436388192443359,0.17683624481932583]","[1,1,1]","[0.09197654199098029,-0.14746761131651365]","[1,1,1]","[-0.010076683755224719,0.014220087707352645]","[1,1,1]","[0.04636295182925613,-0.17621441637308521]","[1,1,1]","[0.0688911244240678,-0.041441566129844995]","[1,1,1]","[0.04689921224453579,-0.11225358599403286]","[1,1,1]","[-0.020162108799985638,-0.047540852172550274]","[1,1,1]","[-0.17652588195758204,0.04315367268165902]","[-1,-1,-1]","[-0.1191337595178956,0.05612953264044639]","[1,1,1]","[-0.07662164991303605,-0.06241040476890853]","[1,1,1]","[0.16144700291316447,0.005941025356181959]","[1,1,1]","[0.02849621348997169,0.05170990813205581]","[1,1,1]","[-0.036314891144902106,0.12585965796711154]","[1,1,1]","[0.10325421234474476,-0.07563815059112831]","[1,1,1]","[0.09426845889198736,0.054152603739158985]","[-1,-1,-1]","[0.1977218518983406,-0.024539074825718866]","[1,1,1]","[0.03957198343157022,0.10065158498409137]","[1,1,1]","[-0.026379336438376616,-0.15113043075750854]","[1,1,1]","[-0.15320159074879064,-0.07451920976052526]","[1,1,1]","[-0.1703032716628658,-0.012541867540372606]","[1,1,1]","[-0.08138237083961994,0.17054536853552774]","[1,1,1]","[0.12284100034611724,-0.11285610369054393]","[1,1,1]","[0.007760840911104784,0.18001871742399936]","[1,1,1]","[-0.05072481615775804,0.08424600463828626]","[1,1,1]","[-0.12441841251205782,-0.033255102655761606]","[1,1,1]","[-0.1450580164770259,0.11898191377780802]","[1,1,1]","[-0.11431776356225408,-0.10404183716679613]","[1,1,1]","[-0.03589397874330063,0.17870252199478023]","[-1,-1,-1]","[0.03618668538919276,-0.0714303604860226]","[1,1,1]","[0.14966902594647102,0.06274893913777227]","[1,1,1]","[0.08597893865886314,0.12073474261715995]","[1,1,1]","[-0.034099557731730394,-0.08524353610226841]","[1,1,1]","[0.02,0.02]",245.4289,0,35,35,182,1,,,,,,,
,,,,,,,6773bcdecee988907232d78f,682f2ec75617729d340e6e0d,2025-05-22_16h13.44.804,cuing_paradigm_dot,2024.1.5,Win32,60.24096386,682d573fa47f1360d1451895,,,,,,,,,,,245.4295,245.9287,,,246.1792,246.3121,left,,,,,,,,0.5,0.1173,,,,,,,245.9288,246.1791,246.3122,"[0.10405146423543217,-0.027644551124317854]","[-1,-1,-1]","[-0.08320863286688288,0.08961493927567422]","[1,1,1]","[0.15895905567219598,-0.07226074178007935]","[-1,-1,-1]","[-0.13040866940708076,-0.0605899650793315]","[1,1,1]","[0.11424542200986533,-0.12763865093839727]","[-1,-1,-1]","[-0.04465435547898073,-0.12843936501591402]","[1,1,1]","[-0.1914047491806764,-0.052921565738653975]","[1,1,1]","[0.022947193858736288,0.0077360499456790004]","[-1,-1,-1]","[0.14365400097126246,0.0015233919478340459]","[-1,-1,-1]","[0.09067248864358914,0.04717785708450565]","[-1,-1,-1]","[0.030232538695636822,0.06544117945277984]","[1,1,1]","[-0.14558133754750896,0.05301894393077805]","[1,1,1]","[0.05833982340932917,-0.09246598401704637]","[-1,-1,-1]","[0.03484715590875786,0.12267546657925428]","[-1,-1,-1]","[0.03639901024122145,0.17384302575153732]","[-1,-1,-1]","[-0.18003027431472682,0.0037896977237886777]","[1,1,1]","[-0.02365212878839621,0.00974795343190272]","[1,1,1]","[-0.14552267536472097,0.10316700912919982]","[1,1,1]","[-0.021361188944968475,-0.16736947619512124]","[-1,-1,-1]","[-0.0991503999892935,0.13840369953529053]","[1,1,1]","[-0.05210663352620963,0.0395854354842037]","[1,1,1]","[-0.03436567393299471,0.14702770943128504]","[-1,-1,-1]","[0.13635899366697846,0.09622064063702211]","[1,1,1]","[-0.12865872239790724,-0.10557984970947111]","[-1,-1,-1]","[-0.05441717750593615,0.18783592932521145]","[-1,-1,-1]","[-0.12380646676691211,-0.017091326917227614]","[-1,-1,-1]","[-0.005289705597962592,0.08980728100287755]","[-1,-1,-1]","[-0.05191054692660592,-0.025877912742601133]","[1,1,1]","[0.02961927448122768,-0.034209635509353666]","[1,1,1]","[-0.0220363238493052,-0.06772505344783437]","[1,1,1]","[0.075231810970781,-0.15216585525974133]","[-1,-1,-1]","[0.09936398019307423,0.11210964437091435]","[1,1,1]","[0.02,0.02]",247.412,0,36,36,118,1,,,,,,,
,,,,,,,6773bcdecee988907232d78f,682f2ec75617729d340e6e0d,2025-05-22_16h13.44.804,cuing_paradigm_dot,2024.1.5,Win32,60.24096386,682d573fa47f1360d1451895,,,,,,,,,,,247.4125,247.9119,,,248.1623,248.512,left,,,,,,,,0.45,0.336,,,,,,,247.9119,248.1622,248.512,"[-0.12812668989716575,0.07251828300107271]","[-1,-1,-1]","[-0.03739395294778205,0.05777514997831547]","[1,1,1]","[0.0037984119587230083,0.09415398817569222]","[-1,-1,-1]","[0.13170960475772883,0.06877918990880734]","[1,1,1]","[0.020883357056512394,0.14618956032166816]","[-1,-1,-1]","[0.13458778637757626,0.1283340067897177]","[-1,-1,-1]","[-0.1272765482575653,0.15146093431798516]","[-1,-1,-1]","[-0.02934296302733187,0.0025998527944160687]","[-1,-1,-1]","[-0.07631752899281388,0.15842985981207117]","[-1,-1,-1]","[0.05798818789342882,0.0771774527174681]","[-1,-1,-1]","[0.05462290548815888,-0.1717595019360034]","[1,1,1]","[-0.1722598983443319,-0.05158005855736381]","[1,1,1]","[-0.07557597576366919,-0.007456225370698013]","[-1,-1,-1]","[-0.0618422538801229,-0.16408656471623456]","[1,1,1]","[0.033409075514167975,-0.11536729536831625]","[1,1,1]","[0.10252110139878376,-0.04736427838162398]","[-1,-1,-1]","[0.007754812438505443,-0.04918104977714916]","[-1,-1,-1]","[-0.12576011655323344,-0.08027106477779676]","[1,1,1]","[-0.06369722312707926,-0.06341723067512743]","[-1,-1,-1]","[-0.15080444571593343,-0.12245324475042386]","[-1,-1,-1]","[0.01233746103106275,0.036549149493398644]","[1,1,1]","[-0.000766096694985674,-0.17417206473828367]","[-1,-1,-1]","[0.06797539035543196,0.1194682796467145]","[1,1,1]","[0.10826739919006574,-0.14720445838097582]","[-1,-1,-1]","[0.10274311120831825,0.021701144888402475]","[1,1,1]","[0.060153241958908005,0.02294813984297852]","[-1,-1,-1]","[0.17954740775567746,-0.07680448347946482]","[1,1,1]","[0.065305768751083,-0.07911830739508702]","[-1,-1,-1]","[-0.19214020849887548,-0.0002885191848366324]","[1,1,1]","[-0.14115058376571057,0.016733181700863912]","[1,1,1]","[0.09684270939741611,0.15989105879121096]","[-1,-1,-1]","[-0.016935125956173303,0.181689506154508]","[1,1,1]","[0.02,0.02]",249.6116,0,37,37,76,1,,,,,,,
,,,,,,,6773bcdecee988907232d78f,682f2ec75617729d340e6e0d,2025-05-22_16h13.44.804,cuing_paradigm_dot,2024.1.5,Win32,60.24096386,682d573fa47f1360d1451895,,,,,,,,,,,249.6122,250.1117,,,250.3621,250.7782,left,,,,,,,,0.5,0.3833,,,,,,,250.1117,250.362,250.7782,"[0.0406737931036809,0.06882836387623784]","[1,1,1]","[0.12863063602981997,0.012742391740505394]","[-1,-1,-1]","[-0.08020545927251929,0.03490368572054621]","[1,1,1]","[-0.18718266694096605,-0.016162435735634206]","[-1,-1,-1]","[0.11400792832148933,-0.05917018705770072]","[-1,-1,-1]","[0.10142550200487582,0.0989659726723585]","[1,1,1]","[-0.004425190183824148,0.026042735773296494]","[-1,-1,-1]","[0.06358129751918988,-0.041854142620981825]","[-1,-1,-1]","[-0.09574817771336443,0.12633529952632586]","[-1,-1,-1]","[-0.04573259346171182,-0.12880245733070744]","[1,1,1]","[-0.0953489381851087,-0.14529645363901306]","[1,1,1]","[-0.07667358642396334,-0.04693800127219398]","[1,1,1]","[0.17141384333687393,-0.05856007366608788]","[1,1,1]","[-0.1412642369272607,-0.05168180956906144]","[-1,-1,-1]","[-0.14512385746125198,0.0978679733674953]","[1,1,1]","[0.05129604729970821,-0.18109311234106765]","[1,1,1]","[-0.07355844790499423,0.1615475454589151]","[-1,-1,-1]","[-0.14799181909594336,0.019204605795712426]","[1,1,1]","[-0.00674066698591782,-0.04589159475124495]","[-1,-1,-1]","[0.06785830171818341,-0.1055729489325137]","[1,1,1]","[0.14322098549754916,0.05584389588334781]","[1,1,1]","[0.1627206898991039,0.09266068586850996]","[-1,-1,-1]","[-0.02535432848935476,0.11851881378208963]","[-1,-1,-1]","[0.005900903350590623,0.18223563557677602]","[1,1,1]","[0.12782396614332006,-0.14416570166533513]","[-1,-1,-1]","[0.04442447873246336,0.1673683003220831]","[-1,-1,-1]","[-0.18451375213619034,-0.06020451152206329]","[-1,-1,-1]","[0.05766721457601523,0.015553890856860129]","[1,1,1]","[-0.03996239170310928,-0.08002187938974979]","[1,1,1]","[-0.07174115485276368,0.08327473746552247]","[-1,-1,-1]","[-0.11886820064379218,0.05870615805241763]","[-1,-1,-1]","[0.19581998815296428,0.0031334348882458844]","[1,1,1]","[0.02,0.02]",251.8782,0,38,38,94,1,,,,,,,
,,,,,,,6773bcdecee988907232d78f,682f2ec75617729d340e6e0d,2025-05-22_16h13.44.804,cuing_paradigm_dot,2024.1.5,Win32,60.24096386,682d573fa47f1360d1451895,,,,,,,,,,,251.8788,252.3781,,,252.6285,253.4448,left,,,,,,,,0.5,0.8004,,,,,,,252.3781,252.6284,253.4449,"[0.13478680855735278,-0.11187814731297789]","[-1,-1,-1]","[-0.12879513041055102,-0.1470773181764324]","[1,1,1]","[-0.11289559736529388,0.09587154363407345]","[-1,-1,-1]","[-0.10099095708100692,-0.07187154546948844]","[-1,-1,-1]","[-0.036999259470447424,0.17597707181518435]","[1,1,1]","[-0.03345291090745961,-0.02190395581190338]","[-1,-1,-1]","[0.03045195074279755,0.14603415030734127]","[1,1,1]","[0.11010709304313723,0.04203608519298979]","[1,1,1]","[0.1702976405350486,0.0551097604246939]","[1,1,1]","[-0.09552973603703871,0.15837862464390032]","[-1,-1,-1]","[-0.05074057838414172,-0.08212851846701653]","[1,1,1]","[-0.05191808770039047,0.04452384966055411]","[-1,-1,-1]","[0.09139528944959936,0.1271227095543107]","[1,1,1]","[0.06853185917146462,-0.012911856204287697]","[-1,-1,-1]","[-0.1919230327130331,0.042503131978704305]","[1,1,1]","[0.002244387128276049,0.020359175689649026]","[1,1,1]","[-0.03332471498710834,-0.16942175742847826]","[1,1,1]","[0.14183867313008008,-0.019542047549428364]","[-1,-1,-1]","[-0.034161620227356214,0.09094785906565936]","[1,1,1]","[0.034251529005721426,-0.19208163319225588]","[-1,-1,-1]","[0.0451361256508569,0.050034567141504664]","[-1,-1,-1]","[0.0460206553155603,-0.14546977863511829]","[-1,-1,-1]","[-0.05577345199396127,-0.124605750141102]","[1,1,1]","[-0.16384689153463738,-0.0874241880136197]","[1,1,1]","[-0.011809791974950107,-0.09217821821714595]","[1,1,1]","[0.13867097481953936,0.12207643931603472]","[-1,-1,-1]","[-0.14540715560009804,-0.03848374952281879]","[-1,-1,-1]","[0.1865677511393832,-0.005939552082528959]","[-1,-1,-1]","[0.026881279155152753,0.08762016368836294]","[-1,-1,-1]","[0.028152324054408383,-0.042270697277555176]","[1,1,1]","[-0.13272373923231529,0.1306598033799812]","[1,1,1]","[-0.07669982247514302,0.12008367955473712]","[-1,-1,-1]","[0.02,0.02]",254.5444,0,39,39,117,1,,,,,,,
,,,,,,,6773bcdecee988907232d78f,682f2ec75617729d340e6e0d,2025-05-22_16h13.44.804,cuing_paradigm_dot,2024.1.5,Win32,60.24096386,682d573fa47f1360d1451895,,,,,,,,,,,254.5449,255.0443,,,255.2953,255.8114,left,,,,,,,,0.55,0.4839,,,,,,,255.0444,255.2953,255.8114,"[0.16531713393188868,-0.07637272150314266]","[-1,-1,-1]","[-0.1190684847210074,-0.10819806731701491]","[-1,-1,-1]","[0.020761311184474423,-0.1901596122651295]","[1,1,1]","[0.014438547372935071,0.17302264635803832]","[1,1,1]","[0.00040952130159750656,0.10033088017370632]","[1,1,1]","[-0.11903091442144181,0.09007823793809115]","[-1,-1,-1]","[-0.09959940135136688,0.1705240981508004]","[1,1,1]","[0.14074256720747969,0.018128181436365343]","[-1,-1,-1]","[0.07357366539019239,0.13362162380033094]","[1,1,1]","[0.11141713123539336,0.1503803081360446]","[1,1,1]","[-0.05059775673046715,0.16906856849700783]","[-1,-1,-1]","[0.019259875010391118,-0.1488605795097709]","[-1,-1,-1]","[0.05642490745593204,0.035404147593286035]","[-1,-1,-1]","[0.0845542661230407,0.08741291239050204]","[1,1,1]","[-0.015944610381967417,0.034684483926335156]","[-1,-1,-1]","[0.09756873003250983,0.008023525329888691]","[1,1,1]","[-0.050093594794737926,-0.03953808841445699]","[1,1,1]","[0.15290732853162461,-0.12855703857015952]","[-1,-1,-1]","[-0.09843754566211377,0.004097637653649406]","[-1,-1,-1]","[0.061497492563822004,-0.18506580458765398]","[-1,-1,-1]","[-0.009237140757060872,-0.0460240854756229]","[1,1,1]","[0.09125436307706535,-0.08025762189221576]","[1,1,1]","[-0.055824120371303916,0.09413813454410051]","[-1,-1,-1]","[-0.04053251114120939,-0.10984445149448588]","[1,1,1]","[-0.16277606658286844,-0.10657928390721393]","[1,1,1]","[-0.15795150258668095,0.0276668764096992]","[1,1,1]","[0.04387137952059996,-0.05947275970449747]","[-1,-1,-1]","[0.10507920980501226,-0.04106554895828188]","[1,1,1]","[0.005416740221403213,-0.10047685916649149]","[1,1,1]","[-0.06122116207399995,-0.15334712160173222]","[1,1,1]","[0.1380479057687484,0.11730414518935103]","[1,1,1]","[0.1673820378936507,0.08989806931780747]","[-1,-1,-1]","[0.02,0.02]",256.911,0,40,40,146,1,,,,,,,
,,,,,,,6773bcdecee988907232d78f,682f2ec75617729d340e6e0d,2025-05-22_16h13.44.804,cuing_paradigm_dot,2024.1.5,Win32,60.24096386,682d573fa47f1360d1451895,,,,,,,,,,,256.9116,257.411,,,257.6674,258.111,right,,,,,,,,0.1,0.4245,,,,,,,257.4111,257.6674,258.1111,"[-0.07650769599446984,-0.11263524060963191]","[-1,-1,-1]","[-0.14802496305056004,-0.0025115835777722233]","[-1,-1,-1]","[0.07006981136345493,0.07136972132956965]","[-1,-1,-1]","[-0.12831831665947577,-0.04111516578094259]","[-1,-1,-1]","[0.07546312248474564,-0.03623509300128134]","[-1,-1,-1]","[0.1767669931109919,-0.07974323636429823]","[-1,-1,-1]","[0.12662077537525798,0.017256620346086486]","[-1,-1,-1]","[-0.08866087339206345,-0.01377533263026726]","[-1,-1,-1]","[0.008708157070742038,0.03380102557126157]","[-1,-1,-1]","[0.17524928011984026,-0.026895260516805297]","[-1,-1,-1]","[0.1263912428494686,0.12985244057913842]","[-1,-1,-1]","[0.08176908148087078,-0.162831203863059]","[-1,-1,-1]","[-0.0500472631997966,-0.07944528294656664]","[-1,-1,-1]","[-0.15806178514996425,0.07574007761058896]","[-1,-1,-1]","[-0.08365123285685153,0.07754049062568466]","[-1,-1,-1]","[-0.0857098808547084,0.026657887021444806]","[-1,-1,-1]","[0.034756646504621354,-0.09016766517048892]","[-1,-1,-1]","[0.005101353328195536,0.18388357745862843]","[1,1,1]","[0.11449751126253833,0.06883159992890421]","[-1,-1,-1]","[-0.16140855820624314,-0.09004881130176856]","[1,1,1]","[0.02236572115379205,-0.05013402097662633]","[1,1,1]","[0.11182223779195148,-0.08048223325172789]","[-1,-1,-1]","[0.06827807870652444,0.17853344670067212]","[-1,-1,-1]","[-0.02372632272939799,-0.17907391542898268]","[-1,-1,-1]","[-0.03152426232065227,-0.023538921947254154]","[-1,-1,-1]","[0.06497885382078013,0.02784595523776878]","[-1,-1,-1]","[-0.17353874664471677,-0.04571858584589715]","[-1,-1,-1]","[0.0220213732197583,0.0883463686959821]","[-1,-1,-1]","[-0.011498635812526402,-0.12266070369372638]","[-1,-1,-1]","[-0.18851635065552097,0.003882734360968116]","[-1,-1,-1]","[-0.1499986033429741,0.11636797069724862]","[-1,-1,-1]","[-0.04987413637901326,0.16606370318729863]","[-1,-1,-1]","[0.02,0.02]",259.2108,0,41,41,20,1,,,,,,,
,,,,,,,6773bcdecee988907232d78f,682f2ec75617729d340e6e0d,2025-05-22_16h13.44.804,cuing_paradigm_dot,2024.1.5,Win32,60.24096386,682d573fa47f1360d1451895,,,,,,,,,,,259.2113,259.7107,,,259.9611,260.3917,left,,,,,,,,0.9,0.4009,,,,,,,259.7107,259.9611,260.3918,"[-0.016963386095423087,0.026440913455672083]","[-1,-1,-1]","[0.012396075612138013,0.11998612654933281]","[1,1,1]","[-0.023989855986911484,0.10103699581071043]","[1,1,1]","[-0.16585567379539187,-0.03497117147358162]","[-1,-1,-1]","[0.09569497041924503,0.16731525622405793]","[1,1,1]","[-0.006058342114657551,-0.0581602838645933]","[1,1,1]","[-0.05347599061276311,-0.13099881590558557]","[1,1,1]","[0.09889784540017893,-0.16518747123800423]","[1,1,1]","[0.0941426442939234,-0.11816581654226958]","[1,1,1]","[-0.10805673369320601,0.07007318825999295]","[1,1,1]","[-0.058476348240436786,0.13754651277242624]","[1,1,1]","[0.028401626272460966,-0.16211983429617013]","[1,1,1]","[-0.11514830366787152,-0.12330456832574582]","[1,1,1]","[-0.08959382956222257,-0.07521599389081854]","[1,1,1]","[0.05140014935194187,0.16416390096923686]","[1,1,1]","[0.15919720727481584,-0.06822888182160762]","[1,1,1]","[0.03521825541504572,-0.0674297752950011]","[1,1,1]","[-0.12410128620189985,-0.020384169533065478]","[1,1,1]","[-0.06365276427081164,0.025476409225651052]","[1,1,1]","[0.0845474918243292,0.041061089092066995]","[1,1,1]","[0.09256473729928269,-0.028198903962916962]","[1,1,1]","[-0.044439956713312065,0.18736610148159505]","[1,1,1]","[-0.020189848814290777,-0.18818925147304194]","[-1,-1,-1]","[-0.15216138080726566,0.08913878662159905]","[1,1,1]","[-0.10838734346174779,0.13885258800804784]","[1,1,1]","[0.03910617769701414,-0.02118156542187978]","[1,1,1]","[0.03750212192747412,-0.12079233811671915]","[1,1,1]","[-0.08987890659264343,-0.1721941414805065]","[1,1,1]","[0.062089525772711096,0.1069536049909637]","[1,1,1]","[0.1753608764585225,0.03285038850750702]","[1,1,1]","[-0.05319057826874438,-0.04692491812650526]","[1,1,1]","[0.026650860141601715,0.023332074704520835]","[1,1,1]","[0.02,0.02]",261.494,0,42,42,204,1,,,,,,,
,,,,,,,6773bcdecee988907232d78f,682f2ec75617729d340e6e0d,2025-05-22_16h13.44.804,cuing_paradigm_dot,2024.1.5,Win32,60.24096386,682d573fa47f1360d1451895,,,,,,,,,,,261.4947,261.9939,,,262.2442,262.5106,right,,,,,,,,0.45,0.2508,,,,,,,261.994,262.2442,262.5107,"[0.023439119013605063,0.1058222013555946]","[1,1,1]","[-0.034457264193917196,0.12101330653592623]","[-1,-1,-1]","[-0.10386959691329538,0.14759788540516464]","[1,1,1]","[0.19594004310305158,0.030578691234438297]","[-1,-1,-1]","[0.08424628344660758,-0.12248689020525126]","[1,1,1]","[-0.005766736785409234,-0.09832471351203995]","[-1,-1,-1]","[-0.08474819405632161,-0.14129389467422016]","[-1,-1,-1]","[-0.11964226060155168,0.09121630830926378]","[-1,-1,-1]","[0.05194191231002193,-0.17376947279072094]","[1,1,1]","[0.14028882538626034,0.0038497430747401707]","[-1,-1,-1]","[0.10928582846864254,0.09513798481932134]","[1,1,1]","[0.003248234182660292,0.15712496581969027]","[-1,-1,-1]","[-0.10109453977382851,0.016866744675610983]","[1,1,1]","[0.09889842410966178,0.04495334992743333]","[-1,-1,-1]","[-0.04178891884674764,0.17699979122270476]","[1,1,1]","[-0.08047625133050271,-0.08412253037669606]","[1,1,1]","[-0.16077213371470073,-0.015672910767927806]","[-1,-1,-1]","[-0.04083188708188348,-0.13439422553386932]","[-1,-1,-1]","[0.0684559728653499,0.10804558392501926]","[-1,-1,-1]","[-0.06564020760556499,0.060313921206011936]","[1,1,1]","[0.04153499878158637,0.03455225729961884]","[-1,-1,-1]","[-0.018120860697706537,-0.03328709459404918]","[-1,-1,-1]","[0.18295397887395545,-0.04068481265150537]","[1,1,1]","[-0.11965611870795302,-0.09865649825193881]","[1,1,1]","[0.10124513289137764,0.1503248995691896]","[1,1,1]","[-0.03661012406659807,-0.07158920291238091]","[-1,-1,-1]","[0.06002577206409467,0.15483867731541417]","[-1,-1,-1]","[0.1036068343312312,-0.16358456451744813]","[-1,-1,-1]","[-0.1725310549119079,0.06417590855085138]","[-1,-1,-1]","[-0.0006807342324758106,-0.1409139380193882]","[-1,-1,-1]","[0.031955685558368134,-0.11318608584598677]","[1,1,1]","[0.02804778792492979,-0.022018527223231044]","[1,1,1]","[0.02,0.02]",263.6103,0,43,43,70,1,,,,,,,
,,,,,,,6773bcdecee988907232d78f,682f2ec75617729d340e6e0d,2025-05-22_16h13.44.804,cuing_paradigm_dot,2024.1.5,Win32,60.24096386,682d573fa47f1360d1451895,,,,,,,,,,,263.6109,264.1104,,,264.361,264.6603,left,,,,,,,,0.1,0.2674,,,,,,,264.1104,264.3609,264.6604,"[-0.11757600294019747,0.0631785292413047]","[-1,-1,-1]","[-0.012576947152823573,-0.026982692608171717]","[-1,-1,-1]","[0.10125243382220932,0.10627318399517871]","[-1,-1,-1]","[-0.015989267616516104,-0.1733433829723355]","[-1,-1,-1]","[0.023167122619948705,0.03023143536902404]","[-1,-1,-1]","[0.18682363790740633,0.03251854711866929]","[1,1,1]","[-0.12312615399322592,-0.02384079357164175]","[1,1,1]","[0.1421487687659619,0.09412765422830419]","[-1,-1,-1]","[0.15591878131189227,-0.12066035225939746]","[-1,-1,-1]","[-0.020710007027868255,0.19705076250643683]","[-1,-1,-1]","[-0.10140229040704309,0.10707313093123788]","[-1,-1,-1]","[-0.12441011206162057,-0.1339656386214861]","[-1,-1,-1]","[0.11237570517241578,0.14601892854048776]","[1,1,1]","[0.009057000499798953,-0.10984533082631177]","[-1,-1,-1]","[0.10628610902753197,-0.1503019612720142]","[-1,-1,-1]","[0.12696381601896256,0.0012094756166131232]","[-1,-1,-1]","[-0.055313922175439935,0.08786610511051683]","[-1,-1,-1]","[-0.04682811287471189,0.008683227218219304]","[-1,-1,-1]","[0.09942503536546575,-0.02819490105585877]","[-1,-1,-1]","[0.048004934263486634,-0.1916959243722798]","[-1,-1,-1]","[-0.18184946412939842,0.05772793754701957]","[-1,-1,-1]","[-0.12306489522246128,0.022154511519635375]","[-1,-1,-1]","[0.0594479440678774,-0.101159646651584]","[-1,-1,-1]","[0.05714700825319611,-0.030688006770466215]","[-1,-1,-1]","[0.06631912010031184,-0.14803399155928207]","[-1,-1,-1]","[-0.16607233473813815,-0.07386312884640471]","[-1,-1,-1]","[-0.19013216241051226,-0.017459286592018695]","[-1,-1,-1]","[0.1902661323126782,-0.022808450555901087]","[-1,-1,-1]","[-0.07160857339315381,-0.08107549181065768]","[-1,-1,-1]","[0.03515040160748996,0.10555402850032862]","[-1,-1,-1]","[-0.032033066505714136,-0.12540214618097786]","[-1,-1,-1]","[0.10681624337354498,-0.08034431221886569]","[-1,-1,-1]","[0.02,0.02]",265.7601,0,44,44,0,1,,,,,,,
