right,left,explain.started,explain.stopped,key_resp_3.keys,key_resp_3.rt,key_resp_3.duration,participant,session,date,expName,psychopyVersion,OS,frameRate,study_id,explain_2.started,explain_2.stopped,key_resp_4.keys,key_resp_4.rt,key_resp_4.duration,explain_3.started,explain_3.stopped,key_resp_5.keys,key_resp_5.rt,key_resp_5.duration,fixation.started,fixation.stopped,practice.started,practice.stopped,response.started,response.stopped,key_resp.keys,key_resp.rt,key_resp.duration,feedback.started,feedback.stopped,trials_2.thisRepN,trials_2.thisTrialN,trials_2.thisN,trials_2.thisIndex,trials_2.ran,white_ratio,explain_4.started,explain_4.stopped,key_resp_6.keys,key_resp_6.rt,key_resp_6.duration,dotDisplay.started,dotDisplay.stopped,ITI.started,polygon_1.pos,polygon_1.color,polygon_2.pos,polygon_2.color,polygon_3.pos,polygon_3.color,polygon_4.pos,polygon_4.color,polygon_5.pos,polygon_5.color,polygon_6.pos,polygon_6.color,polygon_7.pos,polygon_7.color,polygon_8.pos,polygon_8.color,polygon_9.pos,polygon_9.color,polygon_10.pos,polygon_10.color,polygon_11.pos,polygon_11.color,polygon_12.pos,polygon_12.color,polygon_13.pos,polygon_13.color,polygon_14.pos,polygon_14.color,polygon_15.pos,polygon_15.color,polygon_16.pos,polygon_16.color,polygon_17.pos,polygon_17.color,polygon_18.pos,polygon_18.color,polygon_19.pos,polygon_19.color,polygon_20.pos,polygon_20.color,polygon_21.pos,polygon_21.color,polygon_22.pos,polygon_22.color,polygon_23.pos,polygon_23.color,polygon_24.pos,polygon_24.color,polygon_25.pos,polygon_25.color,polygon_26.pos,polygon_26.color,polygon_27.pos,polygon_27.color,polygon_28.pos,polygon_28.color,polygon_29.pos,polygon_29.color,polygon_30.pos,polygon_30.color,polygon_31.pos,polygon_31.color,polygon_32.pos,polygon_32.color,dot_size,ITI.stopped,trials.thisRepN,trials.thisTrialN,trials.thisN,trials.thisIndex,trials.ran,break_2.started,break_2.stopped,trials_3.thisRepN,trials_3.thisTrialN,trials_3.thisN,trials_3.thisIndex,trials_3.ran
subject chose black,subject chose white,0.0004,143.4238,space,128.3983,,67741f8144dc7b0ad820521a,682f1019fb01b037af176ce8,2025-05-22_13h57.21.722,cuing_paradigm_dot,2024.1.5,Win32,60.24096386,682d573fa47f1360d1451895,,,,,,,,,,,,,,,,,,,,,,,,,,,,,,,,,,,,,,,,,,,,,,,,,,,,,,,,,,,,,,,,,,,,,,,,,,,,,,,,,,,,,,,,,,,,,,,,,,,,,,,,,,,,,,,,,
,,,,,,,67741f8144dc7b0ad820521a,682f1019fb01b037af176ce8,2025-05-22_13h57.21.722,cuing_paradigm_dot,2024.1.5,Win32,60.24096386,682d573fa47f1360d1451895,143.4241,183.0626,space,9.6294,,,,,,,,,,,,,,,,,,,,,,,,,,,,,,,,,,,,,,,,,,,,,,,,,,,,,,,,,,,,,,,,,,,,,,,,,,,,,,,,,,,,,,,,,,,,,,,,,,,,,,,,,,,,,
,,,,,,,67741f8144dc7b0ad820521a,682f1019fb01b037af176ce8,2025-05-22_13h57.21.722,cuing_paradigm_dot,2024.1.5,Win32,60.24096386,682d573fa47f1360d1451895,,,,,,183.0632,187.7781,space,1.6979,,,,,,,,,,,,,,,,,,,,,,,,,,,,,,,,,,,,,,,,,,,,,,,,,,,,,,,,,,,,,,,,,,,,,,,,,,,,,,,,,,,,,,,,,,,,,,,,,,,,,,,,
,,,,,,,67741f8144dc7b0ad820521a,682f1019fb01b037af176ce8,2025-05-22_13h57.21.722,cuing_paradigm_dot,2024.1.5,Win32,60.24096386,682d573fa47f1360d1451895,,,,,,,,,,,187.8321,188.2942,188.2953,188.5351,188.5356,189.9463,left,1.3262,,189.947,191.0446,0,0,0,0,1,0.8,,,,,,,,,,,,,,,,,,,,,,,,,,,,,,,,,,,,,,,,,,,,,,,,,,,,,,,,,,,,,,,,,,,,,,,,,,,,,,,,,,,,,,
,,,,,,,67741f8144dc7b0ad820521a,682f1019fb01b037af176ce8,2025-05-22_13h57.21.722,cuing_paradigm_dot,2024.1.5,Win32,60.24096386,682d573fa47f1360d1451895,,,,,,,,,,,191.0469,191.5441,191.5442,191.7845,191.7847,192.3444,right,0.5357,,192.3449,193.4437,0,1,1,1,1,0.2,,,,,,,,,,,,,,,,,,,,,,,,,,,,,,,,,,,,,,,,,,,,,,,,,,,,,,,,,,,,,,,,,,,,,,,,,,,,,,,,,,,,,,
,,,,,,,67741f8144dc7b0ad820521a,682f1019fb01b037af176ce8,2025-05-22_13h57.21.722,cuing_paradigm_dot,2024.1.5,Win32,60.24096386,682d573fa47f1360d1451895,,,,,,,,,,,,,,,,,,,,,,,,,,,,193.4448,209.1791,space,12.7125,,,,,,,,,,,,,,,,,,,,,,,,,,,,,,,,,,,,,,,,,,,,,,,,,,,,,,,,,,,,,,,,,,,,,,,,,,,,,,,,,,
,,,,,,,67741f8144dc7b0ad820521a,682f1019fb01b037af176ce8,2025-05-22_13h57.21.722,cuing_paradigm_dot,2024.1.5,Win32,60.24096386,682d573fa47f1360d1451895,,,,,,,,,,,209.2134,209.6946,,,209.9443,210.5776,left,0.621,,,,,,,,,0.4,,,,,,209.6976,209.9443,210.5787,"[-0.034691083768786074,-0.192736151832583]","[-1,-1,-1]","[0.04256314143519573,-0.14871235939544547]","[1,1,1]","[-0.07678834629343406,0.09412783028761007]","[-1,-1,-1]","[0.002089494577776388,0.029364699035576865]","[-1,-1,-1]","[0.08927160426778623,-0.010545897308183705]","[1,1,1]","[-0.018230503958236877,-0.048933028781458186]","[1,1,1]","[0.023189772402976216,-0.0738559542422502]","[-1,-1,-1]","[-0.1891146215984015,0.03673846939369106]","[1,1,1]","[-0.038041420598609994,0.07199138553793027]","[1,1,1]","[0.020555593731205322,0.09634787120051017]","[1,1,1]","[-0.0642104820227969,-0.0820672662977659]","[-1,-1,-1]","[-0.13501473648701304,-0.031056319640855787]","[-1,-1,-1]","[0.10885031004304549,-0.06385605095383941]","[1,1,1]","[0.1628957813926469,-0.01737126614879772]","[-1,-1,-1]","[0.03542541639315539,0.19004820358869262]","[-1,-1,-1]","[-0.029948491335148708,-0.13590160776826962]","[-1,-1,-1]","[0.1466593163456205,0.030407126912059653]","[-1,-1,-1]","[-0.1414930908699,0.09054203144265882]","[1,1,1]","[0.08832657401282512,-0.13344066708476904]","[1,1,1]","[-0.11942108028675191,0.0427550520340866]","[1,1,1]","[0.13217575321842262,-0.12260619246732522]","[-1,-1,-1]","[-0.15016544447144187,-0.12845216572565687]","[1,1,1]","[0.08887118104097563,0.07223499052080598]","[-1,-1,-1]","[-0.05382755929754415,-0.004270202874091659]","[-1,-1,-1]","[0.07748926123233763,0.1675660108995949]","[-1,-1,-1]","[0.19052645932397858,0.02530095823359759]","[1,1,1]","[0.06239266347716789,-0.09359703781552015]","[-1,-1,-1]","[-0.08278889039989464,0.1534283061095869]","[-1,-1,-1]","[0.07916183546479504,0.029970069744612866]","[-1,-1,-1]","[0.1506002538930841,-0.05605889930722693]","[1,1,1]","[-0.09570700658363611,-0.17116201521634355]","[-1,-1,-1]","[-0.0384400834615006,0.12674687118316208]","[-1,-1,-1]","[0.02,0.02]",211.6781,0,0,0,49,1,,,,,,,
,,,,,,,67741f8144dc7b0ad820521a,682f1019fb01b037af176ce8,2025-05-22_13h57.21.722,cuing_paradigm_dot,2024.1.5,Win32,60.24096386,682d573fa47f1360d1451895,,,,,,,,,,,211.6799,212.1775,,,212.4293,212.9113,right,0.4523,,,,,,,,,0.4,,,,,,212.1777,212.4292,212.9115,"[-0.0975901497916586,0.014946582511757473]","[1,1,1]","[0.031863474528082476,-0.09435505769148698]","[1,1,1]","[-0.14009205305050965,-0.05768961047553058]","[-1,-1,-1]","[-0.040614428415562065,0.0668749021957179]","[-1,-1,-1]","[0.08148588307659432,0.019046361898345483]","[1,1,1]","[-0.1877854111563288,-0.04584463703858213]","[1,1,1]","[0.06799030756243102,0.114292684420956]","[-1,-1,-1]","[0.024678311801903767,0.0525276597098079]","[1,1,1]","[-0.05905815720035844,-0.10395660045648536]","[-1,-1,-1]","[0.07735261743778356,-0.07822453049770221]","[-1,-1,-1]","[0.13222060858814752,-0.12807780976256633]","[-1,-1,-1]","[0.025446778458787324,-0.18165767545007594]","[1,1,1]","[-0.1264922594549788,0.12239321465823477]","[-1,-1,-1]","[-0.05419995142578433,-0.034705728866701625]","[1,1,1]","[0.08323881742978578,-0.03672274524219167]","[-1,-1,-1]","[0.036865814428694584,-0.04067845475672234]","[-1,-1,-1]","[-0.11957431723505416,-0.09254996843878986]","[1,1,1]","[0.06449626548140833,-0.16503611716951083]","[-1,-1,-1]","[0.12962332383206898,-0.07493513878915259]","[-1,-1,-1]","[-0.052285654746998485,0.1715012241833133]","[-1,-1,-1]","[-0.0042545925049581506,0.1483041664238945]","[-1,-1,-1]","[-0.09871301405350001,0.07114158449908581]","[-1,-1,-1]","[0.12691344428986415,-0.008911069224306083]","[-1,-1,-1]","[0.03233009385099888,0.19158367740863996]","[-1,-1,-1]","[-0.019268100889190377,-0.17481055578839716]","[1,1,1]","[0.15632602121913675,0.09845368854812532]","[1,1,1]","[-0.17968771324181865,0.02210324079133285]","[1,1,1]","[-0.1304004866642799,0.04491891406905774]","[1,1,1]","[0.10456626649039864,0.1319301976898304]","[-1,-1,-1]","[0.04043068997231336,0.006219885149569103]","[1,1,1]","[0.1089319083009627,0.0567912985382988]","[-1,-1,-1]","[-0.017879776502754297,-0.0004471894702460869]","[-1,-1,-1]","[0.02,0.02]",214.0106,0,1,1,54,1,,,,,,,
,,,,,,,67741f8144dc7b0ad820521a,682f1019fb01b037af176ce8,2025-05-22_13h57.21.722,cuing_paradigm_dot,2024.1.5,Win32,60.24096386,682d573fa47f1360d1451895,,,,,,,,,,,214.0118,214.5169,,,214.7625,215.3621,left,0.5706,,,,,,,,,0.5,,,,,,214.517,214.7624,215.3623,"[-0.0852997097337031,0.042505760815392056]","[1,1,1]","[0.12715642449826184,0.08519965795479324]","[1,1,1]","[0.04485741021458083,-0.008730886738083561]","[-1,-1,-1]","[-0.016615379227753673,-0.013049425414592676]","[1,1,1]","[0.07334414568310613,0.13662447337192363]","[-1,-1,-1]","[0.10129428948543481,0.03526697562003634]","[-1,-1,-1]","[-0.13630532716553584,-0.11548238685851558]","[1,1,1]","[0.14195836699247022,-0.12384715940182264]","[1,1,1]","[-0.0164546879127219,-0.10921015731930964]","[-1,-1,-1]","[-0.07008043058514807,0.18568744363705017]","[-1,-1,-1]","[0.17589291415351782,-0.06885935001210634]","[1,1,1]","[-0.03618973997292415,0.09878167174524241]","[1,1,1]","[0.028135281795699903,-0.1626356195746279]","[-1,-1,-1]","[0.03379221630641618,0.07977101002073862]","[1,1,1]","[-0.19756817481955086,-0.027854804435009994]","[1,1,1]","[0.05491246555904853,-0.06796666326896283]","[-1,-1,-1]","[-0.12314560348086578,0.001082720487397394]","[1,1,1]","[-0.02719362566913254,0.04102077918648554]","[-1,-1,-1]","[0.08652615019908869,-0.14916915878260928]","[1,1,1]","[0.016054124547084287,0.1950715883367997]","[-1,-1,-1]","[-0.18827671336555094,0.041402865113644695]","[1,1,1]","[-0.0849051419557412,0.08483903039659543]","[-1,-1,-1]","[-0.1216035479874058,0.15194844073045746]","[-1,-1,-1]","[-0.07342324477863399,-0.16903938540372324]","[-1,-1,-1]","[-0.014504470358422795,0.1463267855909644]","[1,1,1]","[0.1940196471117672,-0.0057398793152688655]","[-1,-1,-1]","[-0.12989853012907177,0.09883629142797538]","[1,1,1]","[0.11908126055911258,-0.07837047563665739]","[1,1,1]","[-0.09599873346099241,-0.04190167533174477]","[-1,-1,-1]","[0.15101824901241256,0.0031541858253612376]","[-1,-1,-1]","[0.19273321330767437,0.04258786575368626]","[1,1,1]","[0.06555028280556634,0.18704808531690595]","[-1,-1,-1]","[0.02,0.02]",216.461,0,2,2,112,1,,,,,,,
,,,,,,,67741f8144dc7b0ad820521a,682f1019fb01b037af176ce8,2025-05-22_13h57.21.722,cuing_paradigm_dot,2024.1.5,Win32,60.24096386,682d573fa47f1360d1451895,,,,,,,,,,,216.4632,216.9607,,,217.2159,217.9494,right,0.717,,,,,,,,,0.45,,,,,,216.9608,217.2158,217.9494,"[-0.034605826720301755,0.02943878256864685]","[-1,-1,-1]","[-0.06335808184807795,-0.017547437587727477]","[1,1,1]","[0.08971025466938629,-0.16228260894775473]","[-1,-1,-1]","[0.12299505266940204,-0.012221744668353868]","[1,1,1]","[-0.025638845038986703,0.10516318697140596]","[-1,-1,-1]","[0.0960217360925192,0.12293128027288609]","[1,1,1]","[0.16557964826071903,-0.10246673357976444]","[-1,-1,-1]","[-0.028212202426560168,0.18520375482422857]","[1,1,1]","[-0.024587678090820048,-0.14925698093078082]","[-1,-1,-1]","[-0.0685915566182686,0.12171912228451606]","[1,1,1]","[0.07586516893134014,0.1605657413162484]","[-1,-1,-1]","[-0.1932922565979715,-0.0419589984516981]","[1,1,1]","[-0.08369541891415433,0.02991362475893655]","[-1,-1,-1]","[0.04064131780485703,-0.11815290489798512]","[1,1,1]","[-0.13276087275084994,-0.08395775857673128]","[-1,-1,-1]","[-0.1777239027915404,0.0318435385758376]","[1,1,1]","[0.1045961504088481,-0.09808279317204024]","[1,1,1]","[-0.12000851085144747,0.09968511887828155]","[1,1,1]","[0.047326200559180284,0.02598612981633337]","[1,1,1]","[-0.013113721367723636,-0.08278622501021025]","[-1,-1,-1]","[0.16643872714132663,0.054593487389044015]","[-1,-1,-1]","[0.09312410751176439,0.07103108177040184]","[-1,-1,-1]","[0.032667358267774824,0.1279478800892745]","[-1,-1,-1]","[-0.05567216683770229,-0.061919832968877125]","[1,1,1]","[0.18656699314638628,-0.023664318904136825]","[1,1,1]","[-0.1476810139469203,-0.009100070023074268]","[1,1,1]","[-0.10560554121162471,-0.025629425783299308]","[-1,-1,-1]","[0.043949778842875105,-0.06723785613393615]","[-1,-1,-1]","[0.011119488341190599,-0.036597591192138894]","[-1,-1,-1]","[0.047914926530891654,-0.18704057365612023]","[-1,-1,-1]","[-0.1124360851693792,-0.12934490993363154]","[-1,-1,-1]","[0.003115078378293006,-0.19769162395388828]","[-1,-1,-1]","[0.02,0.02]",219.044,0,3,3,63,1,,,,,,,
,,,,,,,67741f8144dc7b0ad820521a,682f1019fb01b037af176ce8,2025-05-22_13h57.21.722,cuing_paradigm_dot,2024.1.5,Win32,60.24096386,682d573fa47f1360d1451895,,,,,,,,,,,219.045,219.5443,,,219.7837,220.6278,left,0.8188,,,,,,,,,0.6,,,,,,219.5444,219.7836,220.6278,"[-0.11791795957026513,-0.12975946922891643]","[-1,-1,-1]","[0.14944720754537882,0.023934905139285645]","[1,1,1]","[-0.07255306061283386,-0.1789975910219436]","[1,1,1]","[-0.0913079404627523,-0.014637272215669518]","[-1,-1,-1]","[-0.1675010318720201,0.03954405455264007]","[-1,-1,-1]","[0.14259176236247445,-0.026280452250691286]","[1,1,1]","[0.06706422550007059,-0.14744186741297435]","[1,1,1]","[0.09937927431024564,0.12480218778142906]","[-1,-1,-1]","[-0.030594795556849883,0.15456115502391118]","[1,1,1]","[0.058661144597798816,0.16606968768204738]","[1,1,1]","[-0.19551421966881397,-0.012886295498087542]","[1,1,1]","[-0.030230729118243975,0.034624366727940815]","[-1,-1,-1]","[0.029852909533021246,-0.06343782324615067]","[-1,-1,-1]","[0.15361118111415442,-0.06674180642955542]","[1,1,1]","[-0.023295135445517194,-0.0576727085458901]","[1,1,1]","[0.17159817870796756,0.08352649580413946]","[1,1,1]","[-0.07178942384274126,0.13552893265814148]","[1,1,1]","[-0.08723261254288082,0.1752523150501257]","[-1,-1,-1]","[0.06734545904204775,-0.03984586697008413]","[-1,-1,-1]","[-0.15042683542454022,-0.025908092095218414]","[1,1,1]","[-0.17660666545508677,-0.08621445245837843]","[1,1,1]","[0.006284074486618241,0.06263610974214796]","[1,1,1]","[-0.11652077947099022,0.04213082052538281]","[-1,-1,-1]","[0.07221979930987263,0.04289680164730032]","[1,1,1]","[-0.0010361910504150548,-0.1196537544595255]","[1,1,1]","[0.011496545662803836,0.18764920780762717]","[-1,-1,-1]","[-0.03527056752540112,-0.16124726903899086]","[-1,-1,-1]","[-0.17193203971067153,0.09959416999855873]","[1,1,1]","[-0.1301412601260959,0.14785836769978053]","[-1,-1,-1]","[-0.09834498602780808,0.08781192478944183]","[-1,-1,-1]","[0.010006390539511145,0.13314865523662076]","[1,1,1]","[0.09167992051732535,0.0028658626307131074]","[1,1,1]","[0.02,0.02]",221.7276,0,4,4,150,1,,,,,,,
,,,,,,,67741f8144dc7b0ad820521a,682f1019fb01b037af176ce8,2025-05-22_13h57.21.722,cuing_paradigm_dot,2024.1.5,Win32,60.24096386,682d573fa47f1360d1451895,,,,,,,,,,,221.7291,222.2275,,,222.4785,223.2115,right,0.7026,,,,,,,,,0.1,,,,,,222.2275,222.4782,223.2119,"[-0.036798301463740385,-0.185897688548071]","[-1,-1,-1]","[-0.10800181601431001,-0.1536669483345607]","[-1,-1,-1]","[0.1373613507415794,0.09323525750932975]","[-1,-1,-1]","[-0.10090150508039997,0.07642487610813437]","[-1,-1,-1]","[-0.013544428197653212,-0.0979090396457175]","[1,1,1]","[-0.11799775737801002,0.11296499851361275]","[-1,-1,-1]","[0.03312283778477328,-0.015307994498882899]","[1,1,1]","[-0.006579999672029804,0.15243329721251264]","[-1,-1,-1]","[0.1781862838312028,-0.0353750014837593]","[-1,-1,-1]","[0.09113665845789243,-0.08090512790208693]","[-1,-1,-1]","[-0.12381321557803637,-0.1086811291281613]","[-1,-1,-1]","[-0.07437193541271264,-0.056630306671587416]","[-1,-1,-1]","[0.1984451364680675,0.01319041212731941]","[-1,-1,-1]","[0.05467299102011917,0.11102545719245412]","[-1,-1,-1]","[0.13506196585600577,0.011287779431980635]","[-1,-1,-1]","[-0.054370097919911285,-0.02040416965499561]","[-1,-1,-1]","[0.04834988535124091,-0.1697621383854956]","[-1,-1,-1]","[-0.11706580163519083,-0.0001375860723920197]","[-1,-1,-1]","[0.09715748955979507,-0.015454718944611381]","[-1,-1,-1]","[0.1090101822143151,-0.13601046305225084]","[-1,-1,-1]","[0.12604163607643185,0.13295137337478738]","[1,1,1]","[-0.08844981982831696,0.16728148395531184]","[-1,-1,-1]","[-0.0620856325966985,0.05206434636291798]","[-1,-1,-1]","[-0.031032538331175603,0.01660985955110509]","[-1,-1,-1]","[0.04261561373566474,0.059499704218059356]","[-1,-1,-1]","[-0.008102913980727322,-0.05642402034033625]","[-1,-1,-1]","[-0.07270122324390614,-0.13385370446364633]","[-1,-1,-1]","[0.008367170484972783,-0.13425923180926488]","[-1,-1,-1]","[-0.1966208106433889,0.019994696275041864]","[-1,-1,-1]","[0.17344772496876967,0.06969412241914935]","[-1,-1,-1]","[0.14527423549208018,-0.05866794224032358]","[-1,-1,-1]","[0.04168343437054966,-0.08225259322544012]","[-1,-1,-1]","[0.02,0.02]",224.3107,0,5,5,10,1,,,,,,,
,,,,,,,67741f8144dc7b0ad820521a,682f1019fb01b037af176ce8,2025-05-22_13h57.21.722,cuing_paradigm_dot,2024.1.5,Win32,60.24096386,682d573fa47f1360d1451895,,,,,,,,,,,224.3119,224.8106,,,225.0668,225.9674,left,0.8845,,,,,,,,,0.55,,,,,,224.8107,225.0667,225.9675,"[-0.16933516583290462,0.042538453668933766]","[1,1,1]","[0.10132950179888808,-0.13903155054232683]","[1,1,1]","[0.09449719182297965,-0.09930450459023629]","[-1,-1,-1]","[-0.07948355959120475,0.11949304301687853]","[-1,-1,-1]","[0.040513255854477806,0.08915374744222726]","[-1,-1,-1]","[-0.12354852056825613,0.07333201170382031]","[-1,-1,-1]","[0.12678126275608084,0.13000257646760047]","[1,1,1]","[-0.011694369263312285,0.16210999477799748]","[1,1,1]","[-0.01999588541342775,0.028221588036011387]","[1,1,1]","[0.0831582258149694,-0.006026630495391959]","[1,1,1]","[-0.13771443557464816,0.11912104234353006]","[1,1,1]","[-0.17846343602644646,-0.030704814272000332]","[-1,-1,-1]","[-0.1252883062854454,-0.07383574182031215]","[1,1,1]","[0.017084424987658282,0.01257699109358201]","[1,1,1]","[0.15590174975864074,-0.06699678304282303]","[-1,-1,-1]","[0.0466302173618777,-0.07912076231371085]","[-1,-1,-1]","[0.1910018096063284,-0.025517904466604586]","[1,1,1]","[-0.06933052734121224,-0.1757004518175285]","[1,1,1]","[0.10286603539456536,0.03738182672803096]","[1,1,1]","[-0.10991207814263008,-0.13448222036524404]","[-1,-1,-1]","[-0.10249995084992858,0.025276428816329147]","[1,1,1]","[-0.023520142522170523,0.11235984026436756]","[1,1,1]","[0.022551169958245736,-0.03534638033201813]","[-1,-1,-1]","[-0.06973853904181965,-0.006849875364077169]","[-1,-1,-1]","[-0.001925080766427574,-0.12186963138254976]","[1,1,1]","[-0.020675235309912967,-0.17589586345699976]","[-1,-1,-1]","[0.06100200481586383,0.13101652192229368]","[-1,-1,-1]","[-0.05040418251834927,-0.12863617759480206]","[-1,-1,-1]","[-0.10033510598440468,0.15477533119245387]","[1,1,1]","[0.08705534348692809,0.09237475733722225]","[1,1,1]","[0.14015996221859695,0.07222191991308312]","[1,1,1]","[-0.1674901926844194,-0.08232845596622684]","[-1,-1,-1]","[0.02,0.02]",227.061,0,6,6,138,1,,,,,,,
,,,,,,,67741f8144dc7b0ad820521a,682f1019fb01b037af176ce8,2025-05-22_13h57.21.722,cuing_paradigm_dot,2024.1.5,Win32,60.24096386,682d573fa47f1360d1451895,,,,,,,,,,,227.0631,227.561,,,227.7993,228.3278,left,0.506,,,,,,,,,0.9,,,,,,227.561,227.7993,228.3281,"[0.09483149625314842,-0.043498274097649246]","[1,1,1]","[0.055308419764354216,-0.002448677516284731]","[1,1,1]","[-0.11241182631679073,0.10977525476618866]","[1,1,1]","[-0.009617584567858004,0.09833672934677402]","[1,1,1]","[-0.033684179534607825,-0.17569512598101547]","[1,1,1]","[-0.09945377582541079,-0.06824524253036623]","[1,1,1]","[0.002284861928384725,0.0034519333471642087]","[1,1,1]","[-0.15862904541923145,0.0038425325676398297]","[1,1,1]","[0.04591138422103841,-0.09137518819446672]","[-1,-1,-1]","[-0.19369083455202,-0.04471226928276429]","[1,1,1]","[0.17511505808816688,0.07392247534312056]","[1,1,1]","[0.14206441750340187,0.09981267560491666]","[1,1,1]","[-0.1355920687492448,-0.1408969241584674]","[1,1,1]","[0.1065137942205327,0.14684248351039997]","[-1,-1,-1]","[-0.09854551707264259,-0.16317140657359225]","[1,1,1]","[0.07106641467848011,-0.1366996322913515]","[1,1,1]","[0.025856137909689828,0.18963566590174283]","[1,1,1]","[-0.15990100029957358,-0.10036815074753008]","[1,1,1]","[-0.13441415754062733,0.04761278830565641]","[1,1,1]","[-0.08031965328146541,0.016494934079797005]","[1,1,1]","[-0.06274675601377748,0.06006994578345543]","[1,1,1]","[-0.1609233602922926,0.11577274922558344]","[1,1,1]","[0.1354926684515104,-0.051357823302550114]","[1,1,1]","[0.029294296765221852,0.1081136249537411]","[1,1,1]","[-0.0019570606110179394,-0.08732068827624966]","[-1,-1,-1]","[0.10086473255657322,0.07335764936469069]","[1,1,1]","[0.005847417692014591,0.060006638132032004]","[1,1,1]","[0.001060842845356777,-0.1455266086061161]","[1,1,1]","[0.0029709142867438976,0.14196335541634478]","[1,1,1]","[0.1278943315814245,-0.14124133680431536]","[1,1,1]","[-0.05743528802733349,0.1822169761717898]","[1,1,1]","[-0.18269897756377396,0.04945564118862104]","[1,1,1]","[0.02,0.02]",229.4276,0,7,7,205,1,,,,,,,
,,,,,,,67741f8144dc7b0ad820521a,682f1019fb01b037af176ce8,2025-05-22_13h57.21.722,cuing_paradigm_dot,2024.1.5,Win32,60.24096386,682d573fa47f1360d1451895,,,,,,,,,,,229.429,229.9275,,,230.166,231.2949,left,1.1029,,,,,,,,,0.6,,,,,,229.9276,230.1659,231.2951,"[-0.15583999538442506,-0.06892321158392219]","[1,1,1]","[-0.10041351881929016,0.017011304152248496]","[-1,-1,-1]","[0.13228419968978813,0.003910549651478938]","[1,1,1]","[-0.08606204470771729,0.09284561466842366]","[-1,-1,-1]","[0.16430544868678307,0.035654776291339646]","[-1,-1,-1]","[0.0033754127876867903,-0.13392653811371447]","[-1,-1,-1]","[-0.05306070797115085,-0.11701762909878988]","[-1,-1,-1]","[-0.001819713689750416,0.07120762893922933]","[1,1,1]","[0.048343967568868496,0.16382596592797466]","[1,1,1]","[0.09328483921406855,0.040058725758199284]","[1,1,1]","[-0.009238831500367398,0.13433171790680193]","[-1,-1,-1]","[0.08603595769255931,-0.08350812505998062]","[1,1,1]","[-0.18601226283266814,0.018787172131849217]","[1,1,1]","[-0.02049122486666541,0.004904933069236424]","[1,1,1]","[-0.068559927472403,-0.03572661838514949]","[1,1,1]","[0.03502394826231872,-0.050636760884949346]","[-1,-1,-1]","[0.10778752218282525,0.1590043009950978]","[1,1,1]","[0.12610186381698837,-0.10771507547347368]","[-1,-1,-1]","[0.0851782854526667,0.11563284967812265]","[-1,-1,-1]","[-0.08852453993922624,0.14723821959979302]","[1,1,1]","[0.16109450054396496,-0.08237731454326068]","[-1,-1,-1]","[0.06036828448216581,0.01668147619011646]","[1,1,1]","[0.13069963041972787,-0.039317032507057245]","[1,1,1]","[-0.15836442423747205,-0.012040760405600419]","[1,1,1]","[0.040216992439952824,0.059876559261007836]","[1,1,1]","[-0.06997213850293885,0.044942624348886746]","[1,1,1]","[0.04229355069955191,0.12382984732305975]","[1,1,1]","[-0.14038265035010206,0.13109515449962095]","[1,1,1]","[0.06324053604354225,-0.18679941043645273]","[-1,-1,-1]","[0.13510859396580732,0.0763846329358079]","[-1,-1,-1]","[-0.1087013797112745,-0.05585616920444788]","[1,1,1]","[0.13142900916435676,0.12118494964590197]","[-1,-1,-1]","[0.02,0.02]",232.3941,0,8,8,169,1,,,,,,,
,,,,,,,67741f8144dc7b0ad820521a,682f1019fb01b037af176ce8,2025-05-22_13h57.21.722,cuing_paradigm_dot,2024.1.5,Win32,60.24096386,682d573fa47f1360d1451895,,,,,,,,,,,232.3954,232.8942,,,233.1473,233.9456,left,0.7698,,,,,,,,,0.9,,,,,,232.8943,233.1472,233.9461,"[-0.11621413725922031,0.031008044786117607]","[1,1,1]","[-0.023482220945583845,-0.09910067947206017]","[1,1,1]","[0.009199432508966576,-0.1856142981903516]","[1,1,1]","[0.06581586768985928,-0.035731642661370834]","[1,1,1]","[0.09182006990730182,0.11877132370616067]","[1,1,1]","[0.07015325893548884,-0.15804898409999488]","[1,1,1]","[-0.1246436280528592,-0.08252026108109518]","[1,1,1]","[0.12233530731616893,0.14862307225827712]","[1,1,1]","[-0.12269841195139457,0.14172139800072958]","[-1,-1,-1]","[0.15688470835814297,-0.05200245025492824]","[1,1,1]","[0.02678792592001055,0.09612431604940466]","[1,1,1]","[0.09930466732906101,0.07100433092952921]","[1,1,1]","[0.006284206286162406,0.16719143416325186]","[1,1,1]","[-0.07446945835072488,0.11870802895387048]","[1,1,1]","[0.08022283347674858,0.007712413618020299]","[1,1,1]","[-0.048622517790024015,-0.03581962885220427]","[1,1,1]","[0.05391598152365039,0.17027934936703748]","[1,1,1]","[-0.0593224878190114,0.010043225574152692]","[1,1,1]","[-0.019568626552560822,0.025382987761361435]","[1,1,1]","[-0.19720439149526492,0.009386759680270357]","[1,1,1]","[0.03617840766187042,0.038358161044412316]","[1,1,1]","[0.11192891473043104,-0.1258705591440589]","[-1,-1,-1]","[0.00887855739568672,-0.12794171768182766]","[1,1,1]","[0.14712461393275258,-0.1008185307353066]","[1,1,1]","[-0.05593183204385814,-0.15593021323039408]","[1,1,1]","[-0.16639495636247484,0.06717070368052631]","[1,1,1]","[-0.06547980885752051,-0.11382680937896612]","[1,1,1]","[0.12499691251215392,0.029809545634494245]","[1,1,1]","[-0.09200087093679313,-0.031905375821240936]","[1,1,1]","[0.11181314542092102,-0.07475197437715358]","[1,1,1]","[0.0034288426695851257,-0.0365766060826729]","[-1,-1,-1]","[0.1835981652673419,0.016723569975877782]","[1,1,1]","[0.02,0.02]",235.0442,0,9,9,181,1,,,,,,,
,,,,,,,67741f8144dc7b0ad820521a,682f1019fb01b037af176ce8,2025-05-22_13h57.21.722,cuing_paradigm_dot,2024.1.5,Win32,60.24096386,682d573fa47f1360d1451895,,,,,,,,,,,235.0456,235.5444,,,235.7945,236.2126,right,0.4035,,,,,,,,,0.1,,,,,,235.5444,235.7944,236.2128,"[-0.07787761807306996,0.0523081473624276]","[-1,-1,-1]","[-0.030760964202974233,0.09868288110922639]","[1,1,1]","[-0.08478225166930096,-0.06904424910089281]","[-1,-1,-1]","[-0.09920440773322442,0.16518743107013734]","[-1,-1,-1]","[-0.021002614871301627,-0.18013446417649928]","[-1,-1,-1]","[-0.049987001686672874,0.006601068458420945]","[-1,-1,-1]","[0.08495118761020709,0.024374280116994787]","[-1,-1,-1]","[-0.06302345628634347,-0.03141745724141826]","[1,1,1]","[0.14247846327896885,-0.06323798075515252]","[-1,-1,-1]","[0.12765676635002318,0.12306639323961914]","[1,1,1]","[0.027729605638887617,0.04286482827336074]","[-1,-1,-1]","[-0.09446118077783461,-0.12059957452395471]","[-1,-1,-1]","[-0.19547951672608713,-0.011405296818378279]","[-1,-1,-1]","[0.09534128946353336,-0.06204316298029893]","[-1,-1,-1]","[0.07652060257463081,-0.1664296121567411]","[-1,-1,-1]","[0.16394581122468638,0.04913606807786965]","[-1,-1,-1]","[-0.15677907267777869,0.042861247164931816]","[-1,-1,-1]","[-0.022957310360622773,0.17106854263880364]","[-1,-1,-1]","[0.06276977650317457,0.16297267145289318]","[-1,-1,-1]","[0.007620637777303024,0.139078332739455]","[-1,-1,-1]","[0.015824431505211733,-0.08049345477604264]","[-1,-1,-1]","[0.03209564021478281,-0.025304744639736868]","[-1,-1,-1]","[-0.16149966003749752,0.08511385544879754]","[-1,-1,-1]","[-0.1459920141503042,-0.11325889748106585]","[-1,-1,-1]","[-0.11977236757385851,-0.15606959932639314]","[-1,-1,-1]","[-0.033169696251992224,-0.0988503722986862]","[-1,-1,-1]","[0.07541706223098113,-0.1090948343169813]","[-1,-1,-1]","[0.09345538766587033,0.09839503918594399]","[-1,-1,-1]","[-0.014720678321919332,0.049883221264976796]","[-1,-1,-1]","[0.17084562373132584,-0.015337536715056107]","[-1,-1,-1]","[0.1666286360867361,0.10922402446397847]","[-1,-1,-1]","[0.01579086746004289,-0.12661499645974847]","[-1,-1,-1]","[0.02,0.02]",237.311,0,10,10,21,1,,,,,,,
,,,,,,,67741f8144dc7b0ad820521a,682f1019fb01b037af176ce8,2025-05-22_13h57.21.722,cuing_paradigm_dot,2024.1.5,Win32,60.24096386,682d573fa47f1360d1451895,,,,,,,,,,,237.312,237.8109,,,238.0618,239.0114,left,0.937,,,,,,,,,0.45,,,,,,237.8109,238.0616,239.0115,"[0.12906317490183947,0.05391080915281388]","[1,1,1]","[0.11548681528496105,0.1146653264136738]","[1,1,1]","[0.10999974559859776,0.013349611037443709]","[-1,-1,-1]","[-0.01734349631467784,0.047214483070810054]","[1,1,1]","[-0.10840145124402321,0.09357889048637306]","[1,1,1]","[-0.05206014966906951,-0.14439718959294714]","[-1,-1,-1]","[0.054999490039646354,-0.12011729801316536]","[1,1,1]","[0.07396730493145733,0.16769046220808156]","[-1,-1,-1]","[-0.03897312919244843,0.11966411401228308]","[1,1,1]","[-0.09492405395052175,-0.07630708760574613]","[1,1,1]","[-0.1336081840367795,-0.1080998009429366]","[1,1,1]","[-0.014979996072626072,-0.05723202168767592]","[-1,-1,-1]","[0.18032338186407604,-0.07487147407690775]","[-1,-1,-1]","[-0.18320908778929976,0.07010820879121228]","[-1,-1,-1]","[0.006053320396376211,0.0924945775093423]","[-1,-1,-1]","[-0.08732523580803338,0.005997198093345081]","[-1,-1,-1]","[0.07360348329585792,-0.07867953957831618]","[1,1,1]","[0.0033543027122903083,0.15499548987458334]","[-1,-1,-1]","[0.09670568602153881,-0.12902601432644054]","[-1,-1,-1]","[0.02290908156492771,-0.19834552770364197]","[-1,-1,-1]","[-0.14838241379317185,0.041612337243191085]","[-1,-1,-1]","[0.07939610088591478,-0.038622131332585456]","[1,1,1]","[-0.003396107926943093,0.007514008970599413]","[-1,-1,-1]","[0.07002606359909769,0.04260773906912058]","[-1,-1,-1]","[0.03629450128033055,0.18543735523168686]","[-1,-1,-1]","[0.19244714687305772,0.03987361075145819]","[-1,-1,-1]","[-0.025017206229145047,-0.19761787045131105]","[-1,-1,-1]","[0.1544830503352665,0.004762709680070441]","[1,1,1]","[0.09004947321205913,-0.17404392877700545]","[-1,-1,-1]","[-0.1380526277841546,-0.06402261357732868]","[1,1,1]","[-0.06215881228647362,0.04531603203643038]","[1,1,1]","[-0.014647767600695699,-0.1135827533768871]","[1,1,1]","[0.02,0.02]",240.1108,0,11,11,62,1,,,,,,,
,,,,,,,67741f8144dc7b0ad820521a,682f1019fb01b037af176ce8,2025-05-22_13h57.21.722,cuing_paradigm_dot,2024.1.5,Win32,60.24096386,682d573fa47f1360d1451895,,,,,,,,,,,240.1116,240.6108,,,240.8619,242.0779,right,1.1987,,,,,,,,,0.4,,,,,,240.6109,240.8618,242.0779,"[-0.12653159010249776,0.04014430645589054]","[-1,-1,-1]","[-0.12177089311705165,0.14116653166153104]","[-1,-1,-1]","[0.1469472716961281,-0.05196490812992916]","[-1,-1,-1]","[-0.051332698976204225,-0.09064023059508473]","[1,1,1]","[-0.18531150173556285,0.07501716651420032]","[1,1,1]","[0.01829778768040693,-0.00013828152111038358]","[1,1,1]","[-0.03302975457900044,-0.12670377432530444]","[-1,-1,-1]","[-0.045291674714434654,-0.18237264721310567]","[-1,-1,-1]","[-0.1431772328470039,-0.12111176459871627]","[1,1,1]","[0.08770155823088457,-0.12470171504657614]","[-1,-1,-1]","[0.024492831407766827,-0.18448468721566294]","[1,1,1]","[-0.08806697031534352,0.09377271048129067]","[-1,-1,-1]","[0.09600630979170764,-0.0629459306588697]","[-1,-1,-1]","[-0.1304744331291306,-0.04475308869143406]","[-1,-1,-1]","[-0.10107497110794562,-0.07964412687954261]","[-1,-1,-1]","[0.11502780930912662,-0.004920072061431418]","[-1,-1,-1]","[-0.01975348522376328,0.09396669547144948]","[-1,-1,-1]","[-0.08745104658638518,0.16965372186269936]","[-1,-1,-1]","[0.10954839811683056,0.06653265242627991]","[-1,-1,-1]","[0.08250010471758895,0.09758880455849224]","[1,1,1]","[-0.0509509467981082,0.06698735734413089]","[1,1,1]","[-0.18392138377608994,0.01069470028525366]","[-1,-1,-1]","[0.040924037760561145,-0.12334287304148332]","[1,1,1]","[-0.08927372675188565,-0.1419931409113354]","[-1,-1,-1]","[0.017841239830998057,0.15102617402469815]","[1,1,1]","[-0.07661372488332593,0.017288330600027792]","[1,1,1]","[0.18701715979662153,-0.05718247046724796]","[-1,-1,-1]","[-0.04206359146230946,0.1744854010146552]","[1,1,1]","[0.08821855012555613,-0.17256077723706958]","[-1,-1,-1]","[0.19428756694394753,-0.016100110868547977]","[1,1,1]","[0.06262293104121701,0.18978893720816098]","[-1,-1,-1]","[0.1491541112319076,0.04251510095183559]","[1,1,1]","[0.02,0.02]",243.1774,0,12,12,38,1,,,,,,,
,,,,,,,67741f8144dc7b0ad820521a,682f1019fb01b037af176ce8,2025-05-22_13h57.21.722,cuing_paradigm_dot,2024.1.5,Win32,60.24096386,682d573fa47f1360d1451895,,,,,,,,,,,243.1783,243.6774,,,243.9283,245.0777,right,1.1346,,,,,,,,,0.6,,,,,,243.6775,243.9282,245.0779,"[-0.17262238611229777,-0.004504937656924054]","[1,1,1]","[0.03432542925250433,0.09384035007835428]","[-1,-1,-1]","[0.12628083558426986,-0.015040123768031]","[1,1,1]","[-0.03171264584233477,0.1424044872376177]","[1,1,1]","[-0.0586704535053599,-0.049457496135143025]","[-1,-1,-1]","[0.033712410045407974,-0.10437459292266105]","[-1,-1,-1]","[0.06566659541846546,-0.15429229992519497]","[-1,-1,-1]","[-0.006443745156172994,-0.026835276512239898]","[1,1,1]","[-0.1622607606302087,0.06724200268437656]","[-1,-1,-1]","[0.01967219678761187,0.018904100857638675]","[1,1,1]","[-0.02004369641157969,0.03751859649933995]","[1,1,1]","[0.03673327582424297,-0.18927629458724116]","[1,1,1]","[-0.06488652871750646,-0.11220749295930499]","[1,1,1]","[0.028933298455753334,0.13734295645125771]","[-1,-1,-1]","[0.04727938673324549,-0.0535104367600017]","[-1,-1,-1]","[-0.11060437420153633,0.017743624028632478]","[1,1,1]","[-0.07495244051166818,0.08132257565726755]","[-1,-1,-1]","[0.09128265339842455,0.050331715129766696]","[-1,-1,-1]","[-0.14439932478775327,-0.10883054494536255]","[1,1,1]","[0.15440830055610524,0.04623240826158722]","[1,1,1]","[0.15763905049865232,-0.050318635337373324]","[1,1,1]","[0.10141755555642938,-0.08020921485672991]","[1,1,1]","[0.16296928557088855,0.10372797715447224]","[1,1,1]","[-0.016845416928397913,-0.14916111072410537]","[-1,-1,-1]","[0.18093023243615167,-0.008730766584423318]","[-1,-1,-1]","[-0.09572381152545842,-0.08015570608584563]","[1,1,1]","[-0.11874696096420106,0.15357842434147043]","[1,1,1]","[-0.01291057811036417,-0.10465270047381803]","[1,1,1]","[-0.056625915346070234,0.0171522010989851]","[-1,-1,-1]","[-0.12612054971947126,-0.03920492720921791]","[1,1,1]","[0.1975120767256481,0.02861262475113593]","[-1,-1,-1]","[0.1306618138957362,0.14758136197051883]","[1,1,1]","[0.02,0.02]",246.1775,0,13,13,157,1,,,,,,,
,,,,,,,67741f8144dc7b0ad820521a,682f1019fb01b037af176ce8,2025-05-22_13h57.21.722,cuing_paradigm_dot,2024.1.5,Win32,60.24096386,682d573fa47f1360d1451895,,,,,,,,,,,246.1783,246.6775,,,246.9274,248.4336,,,,,,,,,,,0.45,,,,,,246.6776,246.9274,248.4337,"[0.05303940429066087,-0.015958156020557147]","[1,1,1]","[-0.08854080068491571,-0.054988266178290904]","[-1,-1,-1]","[-0.18350778133270537,-0.05821818491460063]","[1,1,1]","[0.053515042645901685,-0.07620483970180102]","[1,1,1]","[0.05468768086050457,-0.13193813231530171]","[1,1,1]","[0.004940110834474642,0.14464001322655748]","[-1,-1,-1]","[-0.1898003165893123,-0.0063078726608179776]","[-1,-1,-1]","[0.04024899444848525,-0.19517431445740027]","[1,1,1]","[-0.08025687737052134,0.05662364010898192]","[-1,-1,-1]","[-0.1339415509149803,0.13771423508281783]","[-1,-1,-1]","[0.0360440445959714,0.09626738414080734]","[-1,-1,-1]","[-0.0013551568089631375,-0.12920824153875518]","[1,1,1]","[0.15799842728588448,0.11587164268944872]","[-1,-1,-1]","[0.11907635078655407,0.10443662032417463]","[-1,-1,-1]","[-0.12292782363908837,-0.016629158260862125]","[-1,-1,-1]","[0.16619808458975457,-0.06982398706207786]","[-1,-1,-1]","[-0.026009806049534456,0.11636778378649085]","[-1,-1,-1]","[0.01091530505410939,-0.00655398607911166]","[1,1,1]","[-0.06072202473259867,0.18630671703737564]","[-1,-1,-1]","[-0.0667161914789123,-0.18752843495086025]","[-1,-1,-1]","[-0.034772971380817495,-0.08878954705273455]","[1,1,1]","[-0.009335032636891812,0.0756172262475091]","[1,1,1]","[-0.11388331306668437,0.08106441003919855]","[1,1,1]","[0.14064134558294494,0.026523002990873124]","[1,1,1]","[0.08646737004466848,-0.16009570063273731]","[-1,-1,-1]","[0.19063600878944184,0.05747660438985532]","[1,1,1]","[0.08969697442756243,0.1480791396674425]","[1,1,1]","[0.10853054594945041,-0.0026311201859592036]","[-1,-1,-1]","[-0.09552355540361934,-0.12859879083995285]","[-1,-1,-1]","[-0.042538955768242646,-0.024256610026642603]","[-1,-1,-1]","[-0.16571975308047265,0.04123354747984237]","[-1,-1,-1]","[-0.08685838803248626,0.13201036612280137]","[1,1,1]","[0.02,0.02]",249.5276,0,14,14,89,1,,,,,,,
,,,,,,,67741f8144dc7b0ad820521a,682f1019fb01b037af176ce8,2025-05-22_13h57.21.722,cuing_paradigm_dot,2024.1.5,Win32,60.24096386,682d573fa47f1360d1451895,,,,,,,,,,,249.5285,250.0277,,,250.2784,251.2461,right,0.9546,,,,,,,,,0.45,,,,,,250.0277,250.2782,251.2463,"[-0.05345266667937642,-0.06413217932004628]","[1,1,1]","[-0.011637457004669423,-0.08487153549007848]","[1,1,1]","[0.03629720936559548,-0.184905879493476]","[-1,-1,-1]","[0.133265895901176,-0.13850081918289897]","[-1,-1,-1]","[-0.018288059579274693,0.1032292747115905]","[1,1,1]","[-0.1357426194037539,-0.030011458538675435]","[1,1,1]","[0.08936963629482617,0.13633388440397695]","[-1,-1,-1]","[0.024788218996575438,0.1322625155739241]","[1,1,1]","[0.04088245629811032,-0.09645946999027495]","[1,1,1]","[0.11307891160637235,-0.0745991525624154]","[-1,-1,-1]","[-0.04784915603223826,-0.1776966710041208]","[1,1,1]","[0.02583512086520188,-0.02361750412915722]","[-1,-1,-1]","[0.07921557242071689,0.0104438503781603]","[-1,-1,-1]","[-0.11128663892620236,0.08931351346063932]","[1,1,1]","[-0.10504958460981592,0.033414378512978536]","[-1,-1,-1]","[-0.08515172669294563,-0.13072869142514137]","[-1,-1,-1]","[-0.041731854364511545,0.16963626999365994]","[1,1,1]","[-0.026833913519133546,-0.007896919918400415]","[-1,-1,-1]","[0.01238125663700543,0.17134712433525853]","[1,1,1]","[0.08200601526623823,-0.16190684785068388]","[-1,-1,-1]","[-0.1845536017139882,-0.05433249961020411]","[1,1,1]","[-0.09664675779647443,0.1569532943477201]","[-1,-1,-1]","[0.17724464066336754,-0.011234849785484667]","[-1,-1,-1]","[0.13137004497870008,0.0873349359408861]","[1,1,1]","[-0.12771742545928713,-0.1405141989655269]","[-1,-1,-1]","[0.054226408354302806,0.04390762157746092]","[-1,-1,-1]","[-0.06219487449963162,0.05725386712111706]","[1,1,1]","[-0.17093678646608187,0.05580633206842997]","[-1,-1,-1]","[-0.03912981744303791,-0.1333001533741864]","[-1,-1,-1]","[0.006152919276454332,-0.14606415687126523]","[1,1,1]","[0.1866855166604987,0.03592018958928605]","[-1,-1,-1]","[0.0841611844129998,-0.04517247424882064]","[-1,-1,-1]","[0.02,0.02]",252.3446,0,15,15,71,1,,,,,,,
,,,,,,,67741f8144dc7b0ad820521a,682f1019fb01b037af176ce8,2025-05-22_13h57.21.722,cuing_paradigm_dot,2024.1.5,Win32,60.24096386,682d573fa47f1360d1451895,,,,,,,,,,,252.3454,252.8446,,,253.0948,253.8788,left,0.7709,,,,,,,,,0.45,,,,,,252.8447,253.0947,253.8789,"[-0.018540000163303018,-0.1591953983519577]","[1,1,1]","[0.04538362695738822,0.04139802483111988]","[1,1,1]","[0.05902940853973425,0.18874260739745574]","[1,1,1]","[0.18378660695321153,-0.035554416503076815]","[-1,-1,-1]","[-0.005941298371125348,-0.07318993865096057]","[1,1,1]","[-0.03388508832893321,-0.018474527598507335]","[-1,-1,-1]","[0.002649410378012137,0.13761617476591687]","[1,1,1]","[0.11459731372708062,-0.14857304051117198]","[-1,-1,-1]","[0.14354807770784803,0.02388835451563736]","[-1,-1,-1]","[0.05593429718666574,0.09236991439584165]","[-1,-1,-1]","[-0.17295827893194074,0.036453614323802334]","[-1,-1,-1]","[0.03423213109448894,-0.06304961420477966]","[1,1,1]","[0.03735805839367207,-0.16324575087677895]","[1,1,1]","[-0.02603523252739854,0.17582987793237945]","[-1,-1,-1]","[0.04402578195612491,-0.005468766612170034]","[1,1,1]","[-0.0676254286567305,-0.11440283439109497]","[-1,-1,-1]","[0.09495724335523995,0.0697921624868299]","[-1,-1,-1]","[0.08177220240782916,-0.03677672259467194]","[-1,-1,-1]","[0.08511087003841686,0.013246622723154265]","[-1,-1,-1]","[-0.023463918539618208,0.08769548887716498]","[1,1,1]","[-0.14433007848729656,-0.06317350162963019]","[-1,-1,-1]","[0.041868003799712124,-0.11277136762733002]","[1,1,1]","[-0.022981989288525923,-0.11351673260607897]","[-1,-1,-1]","[-0.10445660689582642,0.08289901683248872]","[-1,-1,-1]","[-0.047565633959354384,0.03520242727134088]","[1,1,1]","[-0.11388368476688811,0.13458410905351972]","[-1,-1,-1]","[0.004017385114568624,0.0477745038357556]","[1,1,1]","[0.1272277203397456,0.14411786619016614]","[1,1,1]","[-0.11912447505310914,-0.14422330934586527]","[-1,-1,-1]","[0.16239160155584276,-0.10445323386606555]","[-1,-1,-1]","[-0.1561033713763436,-0.12448218701316172]","[1,1,1]","[-0.0686542770946018,-0.18183366076947335]","[-1,-1,-1]","[0.02,0.02]",254.9778,0,16,16,67,1,,,,,,,
,,,,,,,67741f8144dc7b0ad820521a,682f1019fb01b037af176ce8,2025-05-22_13h57.21.722,cuing_paradigm_dot,2024.1.5,Win32,60.24096386,682d573fa47f1360d1451895,,,,,,,,,,,254.9786,255.478,,,255.7283,256.8286,right,1.0881,,,,,,,,,0.4,,,,,,255.478,255.7283,256.8287,"[0.13666182897429832,0.029684495798600122]","[1,1,1]","[0.06665761004803691,0.07154798177434347]","[1,1,1]","[-0.11392543020242688,0.09735432409621657]","[1,1,1]","[0.03767226031113878,-0.18069775828001966]","[-1,-1,-1]","[0.16747298877605651,0.0021804496980129106]","[1,1,1]","[-0.03140700481913997,0.1358792892389804]","[-1,-1,-1]","[0.05567577637535745,-0.1341771853222374]","[1,1,1]","[-0.17324223083055415,-0.09146430590341822]","[-1,-1,-1]","[0.0376326503845352,-0.0716046804669661]","[1,1,1]","[-0.07425782671833807,0.08577246043872051]","[-1,-1,-1]","[-0.15214269023769134,-0.1265515681848345]","[1,1,1]","[-0.08461466399339503,-0.07925872849442776]","[-1,-1,-1]","[-0.03745680474797767,-0.15674031107739403]","[-1,-1,-1]","[0.07569456562353127,-0.014182711661497255]","[-1,-1,-1]","[0.0956071292813217,-0.09201644516533959]","[-1,-1,-1]","[0.012029461480204607,-0.10851750404487313]","[-1,-1,-1]","[-0.027522284465570045,-0.0265966079332291]","[-1,-1,-1]","[-0.11407170745513592,-0.042660407471122735]","[-1,-1,-1]","[0.03121186653142778,0.11274353700015984]","[1,1,1]","[0.01885280777665088,0.18479153199653214]","[-1,-1,-1]","[-0.054593775985367174,0.009351045979591428]","[1,1,1]","[0.18309043585122892,0.059223141622481386]","[1,1,1]","[-0.12118010555233175,-0.09913492742939777]","[-1,-1,-1]","[-0.0003777305767587599,-0.19583203636600022]","[-1,-1,-1]","[-0.16812227714967726,0.05228090101539626]","[-1,-1,-1]","[0.1961983619804939,-0.037619559568538234]","[1,1,1]","[-0.17263311297292713,-0.04476205928051778]","[1,1,1]","[-0.02854791619689045,-0.06681302947704305]","[-1,-1,-1]","[0.16099285524140208,-0.06734038247159567]","[-1,-1,-1]","[-0.026443155356165364,0.04934090097188472]","[-1,-1,-1]","[0.10667333481450743,0.1116249527408316]","[-1,-1,-1]","[-0.1130777293197877,0.004605948408240205]","[1,1,1]","[0.02,0.02]",257.9275,0,17,17,57,1,,,,,,,
,,,,,,,67741f8144dc7b0ad820521a,682f1019fb01b037af176ce8,2025-05-22_13h57.21.722,cuing_paradigm_dot,2024.1.5,Win32,60.24096386,682d573fa47f1360d1451895,,,,,,,,,,,257.9282,258.4279,,,258.6827,259.5123,left,0.8024,,,,,,,,,0.9,,,,,,258.4279,258.6827,259.5126,"[0.10854105463500663,0.16108584887614497]","[1,1,1]","[0.07405722317067556,0.08780313313306337]","[1,1,1]","[0.19287897222200692,0.029187390469998326]","[1,1,1]","[0.0394870790875661,0.06288356312787018]","[1,1,1]","[0.12513328455917547,0.11906043243737147]","[1,1,1]","[-0.117846550745759,-0.08124109029461363]","[1,1,1]","[0.13425654448569982,0.0575164596510516]","[1,1,1]","[0.1619695074749865,-0.020918642386266863]","[1,1,1]","[0.02338048493237268,0.10822894433866745]","[-1,-1,-1]","[-0.04909418734338314,0.1012982344186435]","[1,1,1]","[-0.13447072745687008,0.03134621921159765]","[1,1,1]","[0.08523599667413186,-0.17300481111648247]","[1,1,1]","[0.0643968086323828,0.15471988420622299]","[1,1,1]","[-0.1392902522410296,0.11138781973930306]","[1,1,1]","[0.05515874769898896,0.024683750327672144]","[1,1,1]","[-0.03813001597933066,-0.02662924164823283]","[1,1,1]","[0.1292261805714196,-0.1478905517184688]","[1,1,1]","[0.06952200778124745,-0.03667602694259197]","[1,1,1]","[0.03457223392929345,0.19299306838091873]","[1,1,1]","[0.12813188018422367,-0.07002087719189838]","[1,1,1]","[-0.154558556839324,-0.030565951025796068]","[1,1,1]","[0.043048892901673186,-0.0812237461382493]","[1,1,1]","[-0.04144105997400553,0.17850253589673237]","[1,1,1]","[-0.188513330568739,0.016051394784416858]","[1,1,1]","[0.11113290761709779,-0.023873683104505626]","[1,1,1]","[-0.1808558421708194,0.07017409618521149]","[1,1,1]","[-0.046944875171677926,-0.17588415909898686]","[-1,-1,-1]","[0.010584371836860992,0.01493759296245479]","[1,1,1]","[-0.04982811909991379,-0.0706267897441403]","[1,1,1]","[-0.10932603148498996,-0.012025348023886145]","[1,1,1]","[-0.0888712163006951,0.04041281347455883]","[1,1,1]","[-0.09379693727212664,0.1173710447086543]","[-1,-1,-1]","[0.02,0.02]",260.6111,0,18,18,192,1,,,,,,,
,,,,,,,67741f8144dc7b0ad820521a,682f1019fb01b037af176ce8,2025-05-22_13h57.21.722,cuing_paradigm_dot,2024.1.5,Win32,60.24096386,682d573fa47f1360d1451895,,,,,,,,,,,260.6122,261.111,,,261.3494,262.1289,left,0.7535,,,,,,,,,0.6,,,,,,261.1111,261.3494,262.1295,"[0.19265443952936018,-0.02637945108203465]","[1,1,1]","[0.06044915284160982,0.0962949310920177]","[-1,-1,-1]","[0.09708982002587477,-0.10405186694049204]","[1,1,1]","[-0.09532914124971271,0.02917945648357305]","[1,1,1]","[0.052105132890353865,-0.03824511831031834]","[-1,-1,-1]","[0.07582214299086418,-0.16175992222853297]","[-1,-1,-1]","[-0.07965456125030276,0.13184149359317637]","[-1,-1,-1]","[-0.0018447882157555486,0.02040946131498384]","[1,1,1]","[0.03953623101886228,-0.1320915681727349]","[1,1,1]","[-0.04131081707458778,0.029756254688977933]","[1,1,1]","[0.05584283010713045,0.05409842869157869]","[1,1,1]","[-0.021580735797434743,-0.18383177062379594]","[1,1,1]","[-0.11923531505893553,-0.14907133184638496]","[1,1,1]","[0.1673877376074612,0.05090623257370513]","[1,1,1]","[-0.15672745530570065,-0.06590531367386422]","[-1,-1,-1]","[0.1678426754953333,-0.10476827497707918]","[1,1,1]","[-0.10111608756833064,0.08605662888746968]","[1,1,1]","[-0.1434518246259741,0.05196501407234384]","[1,1,1]","[0.04882157119869218,0.15538566344839336]","[1,1,1]","[0.12966997990919696,-0.018719979307975195]","[-1,-1,-1]","[-0.12988110614187134,-0.02117170040363322]","[-1,-1,-1]","[-0.10592841041934263,0.16577418661155624]","[1,1,1]","[0.05985856400386812,-0.08296563970636582]","[1,1,1]","[0.12527280440414584,0.07200260400918607]","[-1,-1,-1]","[-0.037289156912478194,-0.11180852257023784]","[-1,-1,-1]","[-0.038970573322353444,0.09940264008685482]","[-1,-1,-1]","[-0.18671158330697998,0.03923447726435339]","[-1,-1,-1]","[-0.09832804128226161,-0.07638932403237199]","[-1,-1,-1]","[0.13643051378936538,0.14346098634504847]","[-1,-1,-1]","[-0.18915467222995752,-0.030394435855227966]","[1,1,1]","[-0.038323745171219316,-0.03406204538552489]","[1,1,1]","[0.01940785453465927,0.1045722017707394]","[1,1,1]","[0.02,0.02]",263.2282,0,19,19,167,1,,,,,,,
,,,,,,,67741f8144dc7b0ad820521a,682f1019fb01b037af176ce8,2025-05-22_13h57.21.722,cuing_paradigm_dot,2024.1.5,Win32,60.24096386,682d573fa47f1360d1451895,,,,,,,,,,,263.2308,263.7197,,,263.9736,264.5945,right,0.6031,,,,,,,,,0.1,,,,,,263.7197,263.9735,264.5948,"[-0.1764174071378914,-0.026171245922438913]","[-1,-1,-1]","[-0.13547171079673048,0.016262059877008194]","[-1,-1,-1]","[0.11568643969516237,-0.12594389840251383]","[-1,-1,-1]","[0.0031930685222358816,-0.04793893640049788]","[-1,-1,-1]","[0.07795742673916085,0.10080147052756296]","[-1,-1,-1]","[-0.07174836977195005,-0.12146820929675349]","[1,1,1]","[0.05821380123847975,-0.11318709136369363]","[-1,-1,-1]","[-0.10340520086409181,0.0802609515840427]","[-1,-1,-1]","[0.15015938680347835,0.09873078761231792]","[-1,-1,-1]","[0.03623093098327799,0.09471414254822345]","[-1,-1,-1]","[0.03229981808784383,0.16928296874243168]","[-1,-1,-1]","[-0.0686261880435993,-0.04968145680799793]","[-1,-1,-1]","[-0.15342179240684312,0.09601609354890996]","[-1,-1,-1]","[-0.10384754045425408,0.12759922370921725]","[-1,-1,-1]","[-0.06543383732064352,0.09759543622071779]","[-1,-1,-1]","[-0.001242576129451037,0.03897818226129255]","[-1,-1,-1]","[0.19154860915346458,-0.051376668051455895]","[-1,-1,-1]","[0.0009673150684747602,-0.13240976221222092]","[1,1,1]","[0.06480046571524545,0.005945613062246079]","[-1,-1,-1]","[-0.046009991697713755,0.14217090593946]","[1,1,1]","[0.06152487479730963,-0.15459341555114148]","[-1,-1,-1]","[-0.032121401439717236,-0.07479097511931036]","[-1,-1,-1]","[0.13887373109371864,0.03461179718219555]","[-1,-1,-1]","[-0.015040427405446678,0.09022906165229334]","[-1,-1,-1]","[-0.04025395485911898,-0.18194161594874203]","[-1,-1,-1]","[0.11086955706385844,0.14457828472074033]","[-1,-1,-1]","[0.1417231981261772,-0.010859434978530065]","[-1,-1,-1]","[0.08407880185845455,-0.06957884606861216]","[-1,-1,-1]","[-0.10563912423159981,-0.15943870285513403]","[-1,-1,-1]","[0.19563007659858248,0.0320437989855496]","[-1,-1,-1]","[-0.11140429835128571,-0.059754766835674454]","[-1,-1,-1]","[0.1184940592937495,-0.04594562610096273]","[-1,-1,-1]","[0.02,0.02]",265.6943,0,20,20,19,1,,,,,,,
,,,,,,,67741f8144dc7b0ad820521a,682f1019fb01b037af176ce8,2025-05-22_13h57.21.722,cuing_paradigm_dot,2024.1.5,Win32,60.24096386,682d573fa47f1360d1451895,,,,,,,,,,,265.6955,266.1945,,,266.4342,267.1621,left,0.7084,,,,,,,,,0.9,,,,,,266.1947,266.4341,267.1625,"[0.18647463550425428,0.06970259428260267]","[1,1,1]","[0.002734929416300969,-0.18968670724055403]","[1,1,1]","[0.02038297233548452,0.18363134827366492]","[1,1,1]","[0.0689961646815916,0.06979462259628659]","[-1,-1,-1]","[-0.11441124923329374,-0.15977445620640443]","[1,1,1]","[0.14500567559206406,-0.002697132859575057]","[1,1,1]","[-0.1341832935857038,0.11413992240633095]","[1,1,1]","[-0.16335516462120958,0.042886099828513616]","[1,1,1]","[0.10699649435934126,-0.16361548015811198]","[1,1,1]","[0.011775725506547038,0.06576242214653591]","[1,1,1]","[-0.026657020185198454,-0.13595806159293528]","[1,1,1]","[0.08485573938986948,-0.039252540435010023]","[1,1,1]","[0.04016392949809702,-0.1005155233652026]","[1,1,1]","[-0.02049225760984145,-0.06964367596991156]","[1,1,1]","[0.07753812907632265,0.16434938362360915]","[-1,-1,-1]","[0.14295062372053094,0.04350776825704408]","[1,1,1]","[0.09697269406366457,0.09838539885536325]","[1,1,1]","[-0.16773138710506383,-0.022695986379009495]","[1,1,1]","[0.1469381365998978,-0.052229133485701365]","[1,1,1]","[0.15569976616951325,0.10526259024792131]","[1,1,1]","[-0.04193105466236429,0.15264409550849117]","[1,1,1]","[-0.10437386638408132,0.05027267516034419]","[1,1,1]","[-0.04447249747434536,-0.013859078867424624]","[1,1,1]","[-0.10291015541877006,0.006042947430560738]","[1,1,1]","[-0.016207637193608695,0.11483236961238587]","[1,1,1]","[-0.06551118652400749,0.0697295432063143]","[1,1,1]","[0.01217555767725806,0.0036683441382978073]","[1,1,1]","[0.0459055016794932,-0.04867341648278708]","[1,1,1]","[0.09036021565700342,-0.1237173372642492]","[1,1,1]","[0.04305240484159325,-0.187196631457082]","[1,1,1]","[-0.08522034053923787,-0.09785065937295952]","[1,1,1]","[-0.14389134042294774,-0.1293715358857637]","[-1,-1,-1]","[0.02,0.02]",268.2613,0,21,21,182,1,,,,,,,
,,,,,,,67741f8144dc7b0ad820521a,682f1019fb01b037af176ce8,2025-05-22_13h57.21.722,cuing_paradigm_dot,2024.1.5,Win32,60.24096386,682d573fa47f1360d1451895,,,,,,,,,,,268.2634,268.7612,,,269.0004,269.6784,left,0.6544,,,,,,,,,0.6,,,,,,268.7612,269.0003,269.6785,"[0.007809090262203034,-0.01820714646844657]","[-1,-1,-1]","[0.033197805367878384,0.0896009527456526]","[1,1,1]","[-0.09918113171472946,-0.010884052169089279]","[1,1,1]","[0.1338345397754095,0.06373960732589898]","[-1,-1,-1]","[0.11788232644602276,-0.08546773631223406]","[-1,-1,-1]","[-0.02237139553898631,0.161384711625874]","[1,1,1]","[-0.0371912326466503,0.05907676271046927]","[1,1,1]","[0.08161151965978351,0.15524145047264254]","[1,1,1]","[-0.1499261214702629,0.07653656366289684]","[-1,-1,-1]","[0.07224496553914447,-0.1826634546731572]","[1,1,1]","[-0.1539738054307477,0.002313877414122091]","[-1,-1,-1]","[-0.12181592552473408,-0.13988483609286084]","[-1,-1,-1]","[0.05196818265602081,-0.12029172776685702]","[1,1,1]","[0.10873278332438172,-0.14941622830069773]","[-1,-1,-1]","[-0.14377585529121503,-0.04632782555522311]","[1,1,1]","[-0.012784120054811622,-0.10412639183154668]","[-1,-1,-1]","[-0.02245450098086273,-0.1961972502265887]","[1,1,1]","[0.07835357388733363,-0.017496419787825693]","[1,1,1]","[0.01854259729417187,0.16670131629092927]","[1,1,1]","[0.17988976462445158,0.008925208497731402]","[1,1,1]","[-0.0817413718419387,-0.0908461792095676]","[-1,-1,-1]","[0.06631015602512605,0.025783000275671628]","[-1,-1,-1]","[-0.16035219863205497,-0.0971056926703521]","[-1,-1,-1]","[0.16610722360607277,-0.08170606048471261]","[1,1,1]","[0.12883955145017525,0.12489328100595266]","[-1,-1,-1]","[-0.015531311347126342,-0.05687223719660873]","[1,1,1]","[0.14011651271255796,-0.036735480378177934]","[1,1,1]","[-0.039768754847428464,-0.15928395133189127]","[1,1,1]","[-0.10550109482628896,0.10944632776403833]","[1,1,1]","[0.07997591580005863,0.09447515811507723]","[1,1,1]","[-0.06818950987542755,0.1835466043601896]","[-1,-1,-1]","[-0.05889385443200111,0.10439496353079523]","[1,1,1]","[0.02,0.02]",270.7777,0,22,22,179,1,,,,,,,
,,,,,,,67741f8144dc7b0ad820521a,682f1019fb01b037af176ce8,2025-05-22_13h57.21.722,cuing_paradigm_dot,2024.1.5,Win32,60.24096386,682d573fa47f1360d1451895,,,,,,,,,,,270.7789,271.2781,,,271.5217,272.3276,right,0.788,,,,,,,,,0.5,,,,,,271.2782,271.5217,272.3277,"[-0.02472471968700492,-0.18583956786395214]","[-1,-1,-1]","[-0.08069437503574924,-0.1817880326587604]","[-1,-1,-1]","[-0.15546071538000883,-0.12433934911697334]","[-1,-1,-1]","[-0.042008473721042154,0.16422840144486428]","[-1,-1,-1]","[-0.1837855226678465,-0.059933970417138105]","[-1,-1,-1]","[0.15182454967394698,0.12949685915421746]","[-1,-1,-1]","[0.05034554303598165,-0.05881700484794241]","[-1,-1,-1]","[0.0747027354267931,0.16221850760875994]","[-1,-1,-1]","[0.09483154932798418,-0.1130792368712475]","[1,1,1]","[-0.1433482802570929,0.006987345476126884]","[-1,-1,-1]","[-0.004673786593097139,-0.11720385960620677]","[-1,-1,-1]","[-0.11712288992596612,-0.048371021625316396]","[-1,-1,-1]","[0.026940732091994074,0.05051670408699158]","[1,1,1]","[0.06408640244364817,-0.1736216695122083]","[-1,-1,-1]","[-0.0011499241927772838,0.14368872677424918]","[1,1,1]","[-0.02254606522743257,-0.06989349840222905]","[-1,-1,-1]","[-0.1410814340582639,-0.08256632257653641]","[1,1,1]","[-0.060899378004456065,0.0043998508517198035]","[-1,-1,-1]","[0.07625723369078961,0.012712347963065291]","[1,1,1]","[0.15974867196412157,0.07141770081688112]","[-1,-1,-1]","[-0.012573524136708772,0.028028978631647498]","[1,1,1]","[0.016248232181638744,0.18592095070853978]","[1,1,1]","[0.12564586479929335,0.0956726435181701]","[1,1,1]","[0.17307966243574302,0.008117045623977267]","[1,1,1]","[0.024535107621155218,-0.1475506230957259]","[1,1,1]","[-0.07870712610255459,-0.13734570874779167]","[1,1,1]","[0.027951364729266678,-0.01733611756588034]","[1,1,1]","[0.07336986371493863,0.06697576797267622]","[1,1,1]","[-0.05582519046191992,0.11166635704056842]","[1,1,1]","[-0.10127059481279674,0.17108876995608202]","[1,1,1]","[0.1486331458558292,-0.09613771998528842]","[1,1,1]","[-0.09617816416432352,0.05898840343038285]","[-1,-1,-1]","[0.02,0.02]",273.4272,0,23,23,98,1,,,,,,,
,,,,,,,67741f8144dc7b0ad820521a,682f1019fb01b037af176ce8,2025-05-22_13h57.21.722,cuing_paradigm_dot,2024.1.5,Win32,60.24096386,682d573fa47f1360d1451895,,,,,,,,,,,273.4278,273.9271,,,274.1776,275.5282,left,1.3346,,,,,,,,,0.9,,,,,,273.9272,274.1775,275.5282,"[-0.04829270572371898,-0.02961166662010238]","[1,1,1]","[0.11200423150534858,0.006939976132369885]","[1,1,1]","[0.11856175212458533,0.10890595633434912]","[1,1,1]","[0.15789092238392763,0.07249094891146018]","[1,1,1]","[-0.12633497314288075,-0.01025993316630424]","[1,1,1]","[0.16013033952296468,-0.007064617264919443]","[1,1,1]","[-0.17549738756346406,-0.03821531823807214]","[1,1,1]","[-0.0686499861125069,-0.17599331523661732]","[-1,-1,-1]","[-0.009870581825584345,-0.10812201348430726]","[1,1,1]","[0.19043978845465892,0.024005994793854027]","[1,1,1]","[-0.09461554767432603,-0.09711976279125858]","[1,1,1]","[0.06940080954193358,0.07912730194321205]","[1,1,1]","[0.06630602091839799,-0.15468494714276323]","[1,1,1]","[0.013261787999561092,-0.06687102055669274]","[1,1,1]","[-0.12015223630041641,0.04881233390200627]","[-1,-1,-1]","[-0.16957422725367408,0.06358694718586706]","[1,1,1]","[0.061957566165205424,0.17774514812980438]","[1,1,1]","[0.059979234939450024,-0.057051218422849576]","[1,1,1]","[0.19146211492226983,-0.054960024599305074]","[1,1,1]","[-0.13751121565436525,-0.08042904969844154]","[1,1,1]","[-0.05771861256277547,0.07775672509650944]","[1,1,1]","[0.00920182046521368,-0.19938593686200673]","[1,1,1]","[-0.002027153308597233,0.01702906311511444]","[1,1,1]","[-0.08484408388818723,0.16242015683242159]","[1,1,1]","[-0.09160983932689823,-0.14141827182683467]","[1,1,1]","[-0.005360179700715062,0.1878566178908958]","[1,1,1]","[0.07840298904395551,0.037706786378743064]","[-1,-1,-1]","[-0.04188265095665709,0.11773140076035489]","[1,1,1]","[0.12945357803290913,-0.13604999198204332]","[1,1,1]","[0.06153340395975664,0.1313598528386563]","[1,1,1]","[0.1126269597915544,-0.07256515418695052]","[1,1,1]","[-0.12485697676030678,0.10753451786336746]","[1,1,1]","[0.02,0.02]",276.6278,0,24,24,203,1,,,,,,,
,,,,,,,67741f8144dc7b0ad820521a,682f1019fb01b037af176ce8,2025-05-22_13h57.21.722,cuing_paradigm_dot,2024.1.5,Win32,60.24096386,682d573fa47f1360d1451895,,,,,,,,,,,276.6287,277.1278,,,277.3787,278.1455,left,0.7548,,,,,,,,,0.9,,,,,,277.1279,277.3786,278.1459,"[-0.030605164064308913,0.07627978109809247]","[1,1,1]","[0.026654285917216008,-0.035256952283046636]","[1,1,1]","[0.13913528322363927,0.12745036460853973]","[1,1,1]","[0.0072433584958743,0.10994542763217247]","[1,1,1]","[0.04594880204514483,0.017152005842922115]","[1,1,1]","[-0.15164286136170266,0.09650354578547304]","[-1,-1,-1]","[-0.11861232144763727,-0.10353331216456914]","[1,1,1]","[-0.010954594827044174,0.15538430705512649]","[1,1,1]","[-0.1013673595496707,0.10212245387558537]","[1,1,1]","[0.09167314914915922,-0.09477981135327515]","[1,1,1]","[-0.06973955455322448,0.0016189901855013747]","[1,1,1]","[0.02939060136161649,0.05916714344536104]","[1,1,1]","[-0.07839991059161094,-0.09341183687316858]","[1,1,1]","[-0.10705956325839894,0.14286480243897648]","[1,1,1]","[0.06879893175707594,0.1624455411918534]","[1,1,1]","[-0.19473669570975263,0.025970128446328702]","[1,1,1]","[0.1492946026957184,-0.081228050384115]","[1,1,1]","[-0.017986181892705313,-0.0003855902068659814]","[1,1,1]","[0.12266597643986044,0.0468543431927938]","[1,1,1]","[0.1928549207209655,0.0284119102672685]","[1,1,1]","[-0.13168238273749133,-0.019393388406083123]","[1,1,1]","[0.0660938167188451,-0.16704599135532924]","[-1,-1,-1]","[-0.011618009630221799,-0.13389397103532705]","[1,1,1]","[0.08325808760411563,0.059532712437854074]","[1,1,1]","[0.09177178636301671,-0.012551633091281131]","[1,1,1]","[-0.1586292979404204,-0.10267462480649465]","[1,1,1]","[0.10040884259747732,0.11475535750313551]","[1,1,1]","[0.05430381006197022,-0.07042493905762472]","[1,1,1]","[0.15087685863172962,-0.0303569662702275]","[1,1,1]","[0.03578055019618819,-0.12199416137844006]","[1,1,1]","[-0.10605042234317055,-0.16688207963384172]","[1,1,1]","[0.00011513301410305824,0.19486933632181347]","[-1,-1,-1]","[0.02,0.02]",279.2445,0,25,25,206,1,,,,,,,
,,,,,,,67741f8144dc7b0ad820521a,682f1019fb01b037af176ce8,2025-05-22_13h57.21.722,cuing_paradigm_dot,2024.1.5,Win32,60.24096386,682d573fa47f1360d1451895,,,,,,,,,,,279.2452,279.7445,,,279.9952,281.1948,right,1.1912,,,,,,,,,0.5,,,,,,279.7446,279.9952,281.1951,"[0.02306443103864452,-0.1245723326066602]","[1,1,1]","[-0.06323403434818307,-0.1328373049418871]","[1,1,1]","[0.0609917076405438,0.1576114462712001]","[-1,-1,-1]","[0.029471816064151325,0.0486344514411936]","[-1,-1,-1]","[-0.06943753948776932,0.1214465819156636]","[1,1,1]","[-0.12469280466043808,0.026084951757161322]","[1,1,1]","[0.02349411582517115,-0.06659081632490191]","[-1,-1,-1]","[-0.08787537250525039,-0.08457335067478786]","[-1,-1,-1]","[-0.05014667180724737,-0.18938787243396957]","[-1,-1,-1]","[-0.14262331542674525,-0.1300280554347988]","[-1,-1,-1]","[0.15102062386134754,0.07341731049540987]","[-1,-1,-1]","[0.04028892343773775,0.0016347592434366731]","[-1,-1,-1]","[0.1326772837975887,0.027500679576358204]","[-1,-1,-1]","[0.05331657815895694,-0.1618531068954825]","[1,1,1]","[-0.022757556132887557,0.16341609982068842]","[1,1,1]","[0.012858775752834615,0.12097811575808827]","[1,1,1]","[-0.11621494095751875,0.09299284725333912]","[1,1,1]","[0.08347425584086028,-0.11720978608572644]","[1,1,1]","[0.1274331692266805,-0.04311547451103648]","[-1,-1,-1]","[0.0845545924079449,0.0884541782565961]","[1,1,1]","[-0.07141614209568532,0.03657511226609533]","[-1,-1,-1]","[-0.07549278115879085,0.18161251644030638]","[1,1,1]","[-0.05289996376857787,-0.06404099403158167]","[1,1,1]","[0.19322061668659082,-0.002120258825674894]","[-1,-1,-1]","[-0.007064074947109926,0.07417332803784946]","[-1,-1,-1]","[0.14380131448435307,-0.08645682063569764]","[1,1,1]","[0.002322807364114807,-0.17570448664957972]","[1,1,1]","[-0.1669180942735367,0.023236428104250435]","[1,1,1]","[0.06774549098459895,-0.03316166297508374]","[1,1,1]","[-0.1221758560533821,0.14532944808434153]","[-1,-1,-1]","[-0.1762381544026235,0.09051172517441627]","[-1,-1,-1]","[-0.12777349842017793,-0.018417216374540767]","[-1,-1,-1]","[0.02,0.02]",282.2945,0,26,26,109,1,,,,,,,
,,,,,,,67741f8144dc7b0ad820521a,682f1019fb01b037af176ce8,2025-05-22_13h57.21.722,cuing_paradigm_dot,2024.1.5,Win32,60.24096386,682d573fa47f1360d1451895,,,,,,,,,,,282.2953,282.7946,,,283.045,284.1122,right,1.0541,,,,,,,,,0.1,,,,,,282.7946,283.045,284.1125,"[0.18782243280310743,-0.06125149467495143]","[1,1,1]","[0.0741157065203999,-0.13499985111029705]","[-1,-1,-1]","[0.1451128068632524,-0.033441415447534706]","[-1,-1,-1]","[-0.16147955500982752,-0.08629111535512196]","[-1,-1,-1]","[0.04710608684720727,0.10448403052624959]","[-1,-1,-1]","[-0.009953622714556862,0.04857915072382953]","[1,1,1]","[-0.0636994204638521,0.09375252526713794]","[-1,-1,-1]","[-0.15623976119801655,0.10933104311177422]","[-1,-1,-1]","[-0.1643620926652957,0.004007182827696724]","[-1,-1,-1]","[0.027411870208788797,-0.024602071640952416]","[-1,-1,-1]","[-0.04070579374962826,0.15601591134909631]","[-1,-1,-1]","[-0.025420686872783232,-0.06545390085521595]","[1,1,1]","[0.08642421058175749,-0.025566692288870176]","[-1,-1,-1]","[-0.0874347026887776,-0.1603854085160303]","[-1,-1,-1]","[0.060127908458381875,0.033713898652459336]","[-1,-1,-1]","[0.05151924115688263,-0.09267424174501043]","[-1,-1,-1]","[0.15815838828639717,-0.11315596339093748]","[-1,-1,-1]","[0.13697283054471954,0.11868571275253981]","[-1,-1,-1]","[-0.09296796894411082,0.16339084898598016]","[-1,-1,-1]","[0.016947941536473755,-0.16091140976211293]","[-1,-1,-1]","[-0.010833204102632055,-0.10669054191196989]","[-1,-1,-1]","[0.1911568930597014,0.040285644977929]","[-1,-1,-1]","[-0.10113088630193279,0.03559712275466382]","[-1,-1,-1]","[0.0018086341798672458,0.1865273931856144]","[-1,-1,-1]","[-0.10084591700987969,-0.08441771711610047]","[-1,-1,-1]","[-0.013392088400370959,-0.006400003427655015]","[-1,-1,-1]","[0.10510812287698619,-0.07103116732139693]","[-1,-1,-1]","[0.08692900444449998,0.09101225880134495]","[-1,-1,-1]","[-0.1495499272546381,0.056574980217568696]","[-1,-1,-1]","[-0.060585612712877296,-0.10130629296990848]","[-1,-1,-1]","[0.08141593159978089,0.17397713833033693]","[-1,-1,-1]","[0.008085461374153662,0.08479481646331324]","[-1,-1,-1]","[0.02,0.02]",285.2116,0,27,27,5,1,,,,,,,
,,,,,,,67741f8144dc7b0ad820521a,682f1019fb01b037af176ce8,2025-05-22_13h57.21.722,cuing_paradigm_dot,2024.1.5,Win32,60.24096386,682d573fa47f1360d1451895,,,,,,,,,,,285.2127,285.7117,,,285.9682,286.4626,left,0.4713,,,,,,,,,0.9,,,,,,285.7117,285.968,286.4628,"[-0.042378625673627456,-0.052328791210974536]","[1,1,1]","[0.030537441488627724,-0.16114629655863782]","[1,1,1]","[-0.05743099395033272,-0.12446583933183825]","[1,1,1]","[0.03355257808630529,0.07388089835257887]","[1,1,1]","[0.13152385637943886,-0.14263392140578335]","[1,1,1]","[0.08434760826255559,-0.010437855010467137]","[-1,-1,-1]","[-0.08275153418423163,-0.06017786226718739]","[1,1,1]","[-0.0855569502677876,-0.15811959099211195]","[1,1,1]","[-0.1427188623764118,0.057091269983911064]","[1,1,1]","[0.1738039648238864,-0.08440928023613631]","[-1,-1,-1]","[0.0328795639959605,0.1273188376084508]","[-1,-1,-1]","[-0.1919412022528568,-0.03319822929480838]","[1,1,1]","[0.15842517587837354,0.040146596010993164]","[1,1,1]","[-0.09086872062876955,0.05695773681002532]","[1,1,1]","[0.10510271200943297,0.16894244936925218]","[1,1,1]","[-0.13151621076724065,-0.145648910075969]","[1,1,1]","[-0.014717014084451925,0.10672637249108871]","[1,1,1]","[0.009271863638868571,-0.06630504552798751]","[1,1,1]","[-0.1265015388968616,0.002655736839698111]","[1,1,1]","[0.05701235651505775,-0.04798304007136465]","[1,1,1]","[-0.04775714266836505,-0.19312406588373418]","[1,1,1]","[0.08393539517328928,-0.09739777747163508]","[1,1,1]","[-0.013067121746102292,-0.11773539571086901]","[1,1,1]","[-0.04879386799307492,0.03349876265985875]","[1,1,1]","[-0.032367654518374804,0.15740878206560732]","[1,1,1]","[0.1498162202482659,0.08543414109884445]","[1,1,1]","[-0.11613851464814166,0.10489290912318155]","[1,1,1]","[0.018054298127277758,0.02539869351795561]","[1,1,1]","[-0.07435494245106566,0.10850999853886698]","[1,1,1]","[0.020617069675155923,0.1770098114968807]","[1,1,1]","[-0.10000449817935822,-0.11674972617126704]","[1,1,1]","[-0.06993078492926096,-0.013619738297228498]","[1,1,1]","[0.02,0.02]",287.5611,0,28,28,201,1,,,,,,,
,,,,,,,67741f8144dc7b0ad820521a,682f1019fb01b037af176ce8,2025-05-22_13h57.21.722,cuing_paradigm_dot,2024.1.5,Win32,60.24096386,682d573fa47f1360d1451895,,,,,,,,,,,287.562,288.0676,,,288.3112,289.1621,left,0.8335,,,,,,,,,0.5,,,,,,288.0677,288.3111,289.1622,"[-0.04517312676881159,0.02277805839694844]","[1,1,1]","[0.09263809552155128,0.10857114665427901]","[1,1,1]","[-0.07569896803158929,-0.08066698396611527]","[1,1,1]","[0.027318589311640294,0.09050559409941249]","[1,1,1]","[-0.0841047077400645,-0.16964443774185256]","[-1,-1,-1]","[0.10281331751528283,-0.16985199669842163]","[-1,-1,-1]","[-0.022949990976572715,-0.04836241710843521]","[-1,-1,-1]","[0.0037668399951313165,-0.005184564296283316]","[-1,-1,-1]","[-0.027052169751335387,0.17816754526385484]","[-1,-1,-1]","[0.0652081664051653,-0.04783944749505682]","[1,1,1]","[-0.11683650539871779,0.14475830920699692]","[-1,-1,-1]","[0.1771098867401245,-0.06994735843108921]","[1,1,1]","[-0.1564488916376696,0.10443423996063002]","[-1,-1,-1]","[0.15507560513933405,0.11282683222686463]","[-1,-1,-1]","[0.0706467595305335,-0.0007715769758912031]","[-1,-1,-1]","[-0.09313547855746974,0.08752741534725404]","[-1,-1,-1]","[-0.09796468003872165,0.004570449885958074]","[1,1,1]","[-0.14695400693899718,0.03535639648782123]","[-1,-1,-1]","[-0.035044428388411326,-0.10739181853463088]","[1,1,1]","[0.033950505672349786,-0.10958624465493944]","[-1,-1,-1]","[0.12299705936061661,0.0732139122107488]","[1,1,1]","[0.18055022462512818,-0.021593266753594846]","[1,1,1]","[0.1745066212390771,0.036335428087457]","[1,1,1]","[-0.12030982586574525,-0.08802869204951286]","[-1,-1,-1]","[0.00015432982919912894,-0.17229310483600346]","[-1,-1,-1]","[0.09958028197061441,-0.1265439173740423]","[1,1,1]","[-0.13998356492336597,-0.026683584534796398]","[1,1,1]","[0.04839982277060706,-0.15405673167901893]","[1,1,1]","[0.12579647615654896,-0.019403310556608308]","[1,1,1]","[-0.1737543012335854,-0.05225904961758777]","[1,1,1]","[0.14130553938113002,-0.1265311202808097]","[-1,-1,-1]","[-0.07424649747534375,0.15238804220842544]","[-1,-1,-1]","[0.02,0.02]",290.2616,0,29,29,106,1,,,,,,,
,,,,,,,67741f8144dc7b0ad820521a,682f1019fb01b037af176ce8,2025-05-22_13h57.21.722,cuing_paradigm_dot,2024.1.5,Win32,60.24096386,682d573fa47f1360d1451895,,,,,,,,,,,290.2627,290.7616,,,291.0166,292.1624,right,1.1213,,,,,,,,,0.6,,,,,,290.7617,291.0166,292.1626,"[0.14072446840138952,0.09859671680100712]","[-1,-1,-1]","[0.06669179736874692,-0.1758116819557318]","[1,1,1]","[0.06959353512674087,0.08548763402387319]","[1,1,1]","[-0.17720754696655058,-0.04344995809170769]","[1,1,1]","[0.013629465979132477,-0.013752063732304622]","[-1,-1,-1]","[0.0031192568094655496,-0.13227188842653861]","[1,1,1]","[0.006699642744877401,0.10967650963706714]","[-1,-1,-1]","[0.12677168123255142,-0.09761628155220374]","[1,1,1]","[-0.0954778689620252,0.03399094121105831]","[-1,-1,-1]","[-0.09977995568740976,-0.12147271570399526]","[1,1,1]","[-0.1172014090399375,-0.08480002311542877]","[-1,-1,-1]","[0.05925296829414078,-0.12378015997936574]","[-1,-1,-1]","[-0.029203279004952672,0.023798680822697427]","[1,1,1]","[0.10369819878879755,-0.005311391770488928]","[-1,-1,-1]","[-0.14012347617506885,-0.1411303717920716]","[1,1,1]","[0.039720053742667266,-0.07688888462674677]","[1,1,1]","[0.05376858432022352,0.026735021076955138]","[-1,-1,-1]","[-0.14835654793221742,0.047443062511664795]","[1,1,1]","[-0.05164227682469694,0.1268684532988444]","[1,1,1]","[-0.034818704804922065,0.07898550699802383]","[-1,-1,-1]","[-0.15609308410117276,0.08674877462362043]","[-1,-1,-1]","[-0.050252392984937395,-0.13456102328043068]","[1,1,1]","[0.17780652139831352,0.009346166195883143]","[-1,-1,-1]","[-0.07566294536253887,-0.016925310878142887]","[1,1,1]","[-0.119350468478637,0.1539682710327662]","[1,1,1]","[-0.0630082617506089,-0.07143866245624879]","[1,1,1]","[-0.08416984628892957,-0.169221416432902]","[1,1,1]","[0.1391258869282826,0.05391619012260752]","[1,1,1]","[0.08236236167838405,0.1801770677998811]","[1,1,1]","[-0.10538275692715485,0.09754856173980525]","[-1,-1,-1]","[0.0104836963279533,0.030767092809508043]","[-1,-1,-1]","[-0.010284326991945068,0.19435013621130975]","[1,1,1]","[0.02,0.02]",293.2614,0,30,30,174,1,,,,,,,
,,,,,,,67741f8144dc7b0ad820521a,682f1019fb01b037af176ce8,2025-05-22_13h57.21.722,cuing_paradigm_dot,2024.1.5,Win32,60.24096386,682d573fa47f1360d1451895,,,,,,,,,,,293.2627,293.7611,,,294.0142,294.8451,right,0.8029,,,,,,,,,0.6,,,,,,293.7611,294.0141,294.8454,"[0.010488973474650724,0.1720140923442549]","[1,1,1]","[0.036452957150330784,-0.04332764928816996]","[1,1,1]","[-0.06160814741208392,-0.12319151628637683]","[-1,-1,-1]","[-0.1683223612522465,-0.07649837057886852]","[-1,-1,-1]","[0.13382821919035096,-0.021666116427206467]","[1,1,1]","[-0.08665050741075775,0.05085856370521945]","[1,1,1]","[0.018814707607312103,-0.13701502259756718]","[1,1,1]","[0.12456965665280786,0.1456130806071811]","[1,1,1]","[0.1107598809962783,0.05703546233126921]","[1,1,1]","[-0.10548385106381361,-0.058832768779766106]","[-1,-1,-1]","[-0.1308126916506892,-0.10583221676281568]","[1,1,1]","[0.04499362917708323,0.025076274466627437]","[-1,-1,-1]","[-0.06859949389257985,-0.07901267185485154]","[-1,-1,-1]","[-0.0953788678929855,-0.014315513893074026]","[-1,-1,-1]","[-0.022340030249325217,-0.1066336192325678]","[1,1,1]","[-0.03426746425703732,0.04385406938716632]","[1,1,1]","[-0.1677641608199552,0.10223752335613932]","[1,1,1]","[-0.060554338114632955,0.183849203025661]","[-1,-1,-1]","[0.07661535551068993,-0.008905307679076838]","[1,1,1]","[-0.0768843517709184,-0.17060270581309062]","[1,1,1]","[-0.01917690815050607,-0.030093555201274904]","[1,1,1]","[-0.15052761132293455,0.056169144883364955]","[-1,-1,-1]","[0.07016214663253906,0.15274118059252137]","[1,1,1]","[0.044823123815594654,-0.17859868893953273]","[1,1,1]","[-0.12037292216161494,-0.1460673283613328]","[-1,-1,-1]","[0.16578797652636174,-0.08038954642596653]","[-1,-1,-1]","[-0.18617762581959393,0.036303166595286804]","[1,1,1]","[-0.08021232572690304,0.10233402259323936]","[1,1,1]","[0.17003944791651193,0.04768423653761223]","[1,1,1]","[-0.02388385503406917,-0.150717126801894]","[-1,-1,-1]","[-0.0008764912961242724,0.12046622211781803]","[-1,-1,-1]","[0.0691316254720277,0.10655106121196278]","[-1,-1,-1]","[0.02,0.02]",295.9445,0,31,31,156,1,,,,,,,
,,,,,,,67741f8144dc7b0ad820521a,682f1019fb01b037af176ce8,2025-05-22_13h57.21.722,cuing_paradigm_dot,2024.1.5,Win32,60.24096386,682d573fa47f1360d1451895,,,,,,,,,,,295.9461,296.4445,,,296.6833,297.245,left,0.5361,,,,,,,,,0.55,,,,,,296.4446,296.6833,297.2451,"[0.16844202110529763,0.03470450870053921]","[1,1,1]","[-0.01752122431405831,-0.04589706441583961]","[1,1,1]","[0.12076210417566363,-0.011864980053274646]","[1,1,1]","[0.08213253398148435,0.046911893383869356]","[-1,-1,-1]","[-0.08802827681428554,0.08331626171713202]","[1,1,1]","[-0.11594683442462403,0.15342233892911575]","[1,1,1]","[0.06354979767707447,0.18697490122258748]","[-1,-1,-1]","[-0.04345467179978237,-0.10561090228212408]","[-1,-1,-1]","[0.11303797795066456,0.10878383894957369]","[-1,-1,-1]","[0.030170933261659157,0.15189043669781158]","[1,1,1]","[-0.03930610648565351,-0.18377561701303707]","[-1,-1,-1]","[0.10057725439690952,-0.1082840309763884]","[1,1,1]","[0.09601879075900727,0.15352453286681186]","[-1,-1,-1]","[-0.07145437272623936,0.17994249181466276]","[-1,-1,-1]","[0.16298767762092695,-0.05289347619584069]","[-1,-1,-1]","[-0.18113521026369664,-0.06345340119105014]","[1,1,1]","[-0.13229841054110966,-0.03462800794578076]","[1,1,1]","[0.007985544336708941,0.022796409395649187]","[1,1,1]","[0.029503289909728718,-0.0982154178434576]","[1,1,1]","[-0.04411760402032344,0.03390926775000228]","[1,1,1]","[0.03679593402865203,-0.18208859974318475]","[-1,-1,-1]","[0.0123108950692285,0.11189817364927584]","[1,1,1]","[-0.13337037104261545,0.022141205756935498]","[-1,-1,-1]","[0.07694308585951347,-0.16813316422778385]","[-1,-1,-1]","[-0.1610231028090328,-0.11153196902722029]","[-1,-1,-1]","[-0.07197423027551693,-0.0465997136799632]","[1,1,1]","[-0.1735801239327037,0.03127369701762817]","[1,1,1]","[0.04781076806630246,-0.03789251702500794]","[-1,-1,-1]","[-0.09406938064689128,-0.012602265718084378]","[1,1,1]","[-0.16035348451652637,0.08258720147916117]","[1,1,1]","[-0.027829343655761167,0.15494201491717666]","[1,1,1]","[-0.08384865988918887,-0.11796295757098116]","[-1,-1,-1]","[0.02,0.02]",298.3448,0,32,32,137,1,,,,,,,
,,,,,,,67741f8144dc7b0ad820521a,682f1019fb01b037af176ce8,2025-05-22_13h57.21.722,cuing_paradigm_dot,2024.1.5,Win32,60.24096386,682d573fa47f1360d1451895,,,,,,,,,,,298.3468,298.8449,,,299.0835,299.9284,right,0.8187,,,,,,,,,0.4,,,,,,298.845,299.0834,299.9286,"[0.13155844753947096,-0.14552298976528927]","[1,1,1]","[-0.0278129759002622,-0.11307821789105899]","[-1,-1,-1]","[0.006642002685340485,0.12221904822544782]","[1,1,1]","[-0.15677469616411266,-0.04714999921316743]","[-1,-1,-1]","[0.0002569644987901624,-0.19255742335990106]","[-1,-1,-1]","[0.009831079746211691,-0.011335504135467866]","[-1,-1,-1]","[-0.12191791164020402,-0.006575524287606589]","[-1,-1,-1]","[0.0024158700584774105,0.07537205871943407]","[1,1,1]","[0.04277327406396396,-0.13164490478559177]","[-1,-1,-1]","[-0.05432098188182268,-0.1470172605969287]","[1,1,1]","[-0.14237292192132292,0.13868900601151812]","[-1,-1,-1]","[-0.02120834937886261,0.027397654724064847]","[-1,-1,-1]","[0.09406298637732778,0.017300423760223903]","[-1,-1,-1]","[0.11639350926646379,0.12771806872330138]","[1,1,1]","[-0.04766155269359644,0.1078181561096925]","[1,1,1]","[0.12910017244021696,-0.017549676994180148]","[-1,-1,-1]","[0.07282746052741608,-0.09245254816166443]","[-1,-1,-1]","[-0.09893413728539553,0.13516335461320608]","[-1,-1,-1]","[-0.04485371930636214,-0.0678057921172208]","[-1,-1,-1]","[-0.1521883337107461,0.0707799410065166]","[-1,-1,-1]","[0.18650154919387749,-0.016909558112832245]","[1,1,1]","[0.052995177155737316,0.09235283907049033]","[1,1,1]","[0.14959190302033998,-0.07751941075788299]","[-1,-1,-1]","[-0.11795498206581347,-0.08093132258449348]","[1,1,1]","[-0.058150258636649244,0.049241242638652045]","[-1,-1,-1]","[0.08895614388310395,-0.027822836803712656]","[1,1,1]","[-0.05277163220516062,0.18772164612743344]","[-1,-1,-1]","[-0.196911078286262,0.01790965707940041]","[-1,-1,-1]","[0.0017705844666078723,-0.08275190987141647]","[1,1,1]","[-0.13716290927708724,-0.12359301011871776]","[1,1,1]","[0.047181930007210465,0.15804675379811559]","[1,1,1]","[-0.06363254953023245,-0.022230371971957298]","[-1,-1,-1]","[0.02,0.02]",301.0278,0,33,33,42,1,,,,,,,
,,,,,,,67741f8144dc7b0ad820521a,682f1019fb01b037af176ce8,2025-05-22_13h57.21.722,cuing_paradigm_dot,2024.1.5,Win32,60.24096386,682d573fa47f1360d1451895,,,,,,,,,,,301.0289,301.5277,,,301.7689,302.7144,right,0.9296,,,,,,,,,0.5,,,,,,301.5277,301.7687,302.7144,"[0.16206679228134893,0.06322405888956706]","[-1,-1,-1]","[0.1081287778062265,0.14880135484747808]","[-1,-1,-1]","[0.09673910054843736,-0.0493753875587837]","[1,1,1]","[-0.11826949096607926,-0.09004471920369772]","[1,1,1]","[0.09211848314499643,-0.09625957556663849]","[-1,-1,-1]","[0.09772358757540878,-0.13652747164951645]","[1,1,1]","[-0.14919947582257917,-0.03195279087590197]","[-1,-1,-1]","[-0.012836798726434152,0.15274414596337146]","[-1,-1,-1]","[0.06489399929129831,0.12729647006787206]","[1,1,1]","[-0.02050652962580888,0.05273273658570157]","[-1,-1,-1]","[-0.009170390797055035,-0.026506085362097354]","[-1,-1,-1]","[-0.13108012277002348,0.07985415102910783]","[-1,-1,-1]","[0.0580515197965811,0.07490333686463645]","[1,1,1]","[-0.17988877304400575,-0.0008710169338093594]","[-1,-1,-1]","[-0.011523671191462375,-0.15098695444640695]","[-1,-1,-1]","[0.03713652643078628,-0.08789797253035746]","[1,1,1]","[-0.06900312427136435,-0.06706447702276219]","[-1,-1,-1]","[0.15822985685317972,-0.01775104210684882]","[1,1,1]","[-0.1378488452633319,0.02299580590690346]","[1,1,1]","[0.10440292646612606,-0.007803539278329612]","[1,1,1]","[0.034965153929112015,0.04218937452425297]","[1,1,1]","[0.02394698037154152,0.1369305135915023]","[-1,-1,-1]","[0.11742340145693862,0.06069196676331688]","[1,1,1]","[0.14815258468687448,-0.11842802828185599]","[-1,-1,-1]","[-0.04591488841687507,-0.11803410487914327]","[-1,-1,-1]","[0.05017683063093285,0.17790923381001258]","[-1,-1,-1]","[-0.04818958597837912,0.007781151617173578]","[1,1,1]","[-0.07714857835029919,0.06481729898053644]","[1,1,1]","[-0.016531892225669354,-0.1928415758122102]","[-1,-1,-1]","[-0.11586774514835563,0.12685463025020347]","[1,1,1]","[0.057339707462316786,-0.17803627842257175]","[1,1,1]","[0.10679221774867434,0.10666494759633807]","[1,1,1]","[0.02,0.02]",303.8113,0,34,34,101,1,,,,,,,
,,,,,,,67741f8144dc7b0ad820521a,682f1019fb01b037af176ce8,2025-05-22_13h57.21.722,cuing_paradigm_dot,2024.1.5,Win32,60.24096386,682d573fa47f1360d1451895,,,,,,,,,,,303.8131,304.3114,,,304.5676,305.5953,left,1.0077,,,,,,,,,0.55,,,,,,304.3114,304.5676,305.5955,"[0.10075815949663301,-0.12086068426873935]","[1,1,1]","[0.06253154541713019,0.15447528498713375]","[1,1,1]","[-0.17736615732254868,-0.008581935617089961]","[-1,-1,-1]","[0.017067205965461213,-0.04947233772562071]","[-1,-1,-1]","[0.1290005966159979,0.1335480921574765]","[1,1,1]","[-0.13144027691945587,-0.1439628133094897]","[-1,-1,-1]","[0.026126733977938806,0.016086908707470756]","[-1,-1,-1]","[-0.10054605925061769,0.04941798657625422]","[-1,-1,-1]","[-0.015973326245627646,0.10132694235527415]","[1,1,1]","[0.1479904903234502,-0.13415613382094474]","[-1,-1,-1]","[-0.12135890765509799,-0.08494104936446889]","[-1,-1,-1]","[-0.0730330879533363,0.11460889309333387]","[1,1,1]","[-0.03681526628383239,-0.12253184024980932]","[1,1,1]","[-0.08756399909595317,-0.12279316574535339]","[-1,-1,-1]","[0.16784805184833823,0.009461963620513623]","[-1,-1,-1]","[0.10359037301264647,0.04044911002964064]","[1,1,1]","[-0.09685203916213997,0.1628666993501307]","[-1,-1,-1]","[-0.05420013615861455,-0.06389054999098952]","[1,1,1]","[0.13119659355663194,-0.08623536126956803]","[1,1,1]","[0.012387749502913895,-0.14350357189372445]","[1,1,1]","[0.10438330780817014,-0.167797098865988]","[-1,-1,-1]","[0.10511932012924419,-0.007677586595335884]","[-1,-1,-1]","[-0.028115166629510437,0.14336817537130156]","[1,1,1]","[-0.1715638578495738,-0.10059967992693608]","[1,1,1]","[0.0493135259744062,-0.16613956639339442]","[1,1,1]","[-0.17605662326283683,-0.05870944873720144]","[1,1,1]","[0.004583938576210844,0.1732279492393488]","[1,1,1]","[-0.037784213707177564,-0.1664549274349103]","[1,1,1]","[0.016143625778535807,-0.10096334607069449]","[-1,-1,-1]","[0.03674611954124758,0.09018719730380248]","[1,1,1]","[-0.12631056897786175,0.13194142416592167]","[-1,-1,-1]","[-0.07000838888818463,0.009444930378525411]","[1,1,1]","[0.02,0.02]",306.695,0,35,35,136,1,,,,,,,
,,,,,,,67741f8144dc7b0ad820521a,682f1019fb01b037af176ce8,2025-05-22_13h57.21.722,cuing_paradigm_dot,2024.1.5,Win32,60.24096386,682d573fa47f1360d1451895,,,,,,,,,,,306.6966,307.1945,,,307.4499,308.4285,left,0.9527,,,,,,,,,0.6,,,,,,307.1946,307.4499,308.4286,"[-0.020975251872892533,-0.1055246224694092]","[-1,-1,-1]","[-0.17663037699640738,-0.06804827535620671]","[-1,-1,-1]","[0.008079357694012374,-0.021251740814903424]","[-1,-1,-1]","[-0.10890324486338396,0.08415937477127981]","[1,1,1]","[-0.06439948735318855,-0.14980650385056726]","[1,1,1]","[0.11274410615445109,-0.1257133125987318]","[1,1,1]","[0.08215512921938915,0.13880566391726293]","[1,1,1]","[-0.1540411256924161,0.058517230742576844]","[-1,-1,-1]","[0.034306877602521754,0.1694123106649709]","[-1,-1,-1]","[0.12956515715618497,0.0006069971194687092]","[-1,-1,-1]","[-0.1448039486610255,-0.01686276046998236]","[1,1,1]","[0.09960133826473822,0.07312087643084869]","[-1,-1,-1]","[-0.021256310883776754,0.1665157050662552]","[-1,-1,-1]","[-0.0011294681628475388,0.06972811478116055]","[-1,-1,-1]","[-0.11980507234030287,0.15485203555104565]","[1,1,1]","[-0.02373409058398354,0.021409182214979998]","[-1,-1,-1]","[0.06065749105357082,-0.08118507908877111]","[-1,-1,-1]","[-0.08282149274227564,0.1368710063277048]","[1,1,1]","[-0.0591944052914041,-0.08227976908437558]","[1,1,1]","[-0.06745535295117173,-0.028095444449027958]","[1,1,1]","[-0.059631731578455714,0.06249993261206206]","[1,1,1]","[0.1266113885563356,-0.08726313186239916]","[1,1,1]","[0.08521212670016891,-0.049441455379152136]","[1,1,1]","[0.04503247116794413,0.1194185377764711]","[1,1,1]","[0.17180139748914824,-0.09975413429679662]","[-1,-1,-1]","[0.1751432249666332,-0.04251798778619141]","[1,1,1]","[0.0068398105330160506,-0.07540865454945658]","[1,1,1]","[-0.1044835251148786,0.033958498654048964]","[1,1,1]","[-0.19087201831066944,-0.02728504635432346]","[-1,-1,-1]","[0.06903558747658227,-0.009627986742963668]","[1,1,1]","[0.1459058919578791,0.09319638306576752]","[1,1,1]","[-0.10186762796333891,-0.08073804753988441]","[1,1,1]","[0.02,0.02]",309.5278,0,36,36,165,1,,,,,,,
,,,,,,,67741f8144dc7b0ad820521a,682f1019fb01b037af176ce8,2025-05-22_13h57.21.722,cuing_paradigm_dot,2024.1.5,Win32,60.24096386,682d573fa47f1360d1451895,,,,,,,,,,,309.5288,310.0277,,,310.269,311.23,right,0.9374,,,,,,,,,0.4,,,,,,310.0277,310.2689,311.2301,"[-0.08059711193589816,-0.1614111352411624]","[-1,-1,-1]","[0.09360039493424122,0.11895819941216906]","[1,1,1]","[0.15337327027675704,0.019971721541072417]","[-1,-1,-1]","[-0.05992028964193585,-0.019710777033117324]","[1,1,1]","[-0.11457211278376177,0.04575765709989573]","[1,1,1]","[0.026120816029960074,-0.06288599941673885]","[-1,-1,-1]","[-0.03359207552191645,-0.140589694782505]","[-1,-1,-1]","[0.04807714881978144,0.07486777828433551]","[1,1,1]","[-0.07006714795867057,0.10372060601127606]","[-1,-1,-1]","[-0.01875558132048661,0.07547697996946345]","[-1,-1,-1]","[0.08771413990193966,0.045081224920249054]","[1,1,1]","[0.06394227902480137,-0.09484334510446814]","[1,1,1]","[0.01635482717538226,0.138051008173177]","[-1,-1,-1]","[-0.021450639738002975,-0.062332294595606165]","[-1,-1,-1]","[0.17716992441278417,-0.01938566114628191]","[-1,-1,-1]","[-0.19634580294244774,-0.016145164158671482]","[1,1,1]","[-0.08754997946524934,0.010694700307335067]","[-1,-1,-1]","[-0.10732307247100001,-0.03560821648724217]","[-1,-1,-1]","[0.12407656859579967,0.14886553369172936]","[-1,-1,-1]","[0.10963016801833196,-0.03468089042993868]","[1,1,1]","[0.08356520256781508,-0.14175029478902104]","[-1,-1,-1]","[-0.16399691226822008,-0.04671451205815381]","[-1,-1,-1]","[-0.15958768668906423,0.050917205353021126]","[1,1,1]","[-0.06662738350865385,0.15049040397289454]","[1,1,1]","[0.06673994036025375,-0.18079298214173237]","[-1,-1,-1]","[0.17792875324799262,0.06384289868986406]","[1,1,1]","[-0.16654774919132612,-0.10923556833124111]","[-1,-1,-1]","[-0.061537321069042444,-0.09506838922384446]","[-1,-1,-1]","[-0.028090645256414977,0.012955131246448919]","[1,1,1]","[0.14005453450944286,-0.11233120761443813]","[-1,-1,-1]","[0.18230499314979354,-0.0783289092950324]","[1,1,1]","[0.11682559428045017,-0.07548839854914552]","[-1,-1,-1]","[0.02,0.02]",312.3276,0,37,37,46,1,,,,,,,
,,,,,,,67741f8144dc7b0ad820521a,682f1019fb01b037af176ce8,2025-05-22_13h57.21.722,cuing_paradigm_dot,2024.1.5,Win32,60.24096386,682d573fa47f1360d1451895,,,,,,,,,,,312.3282,312.8276,,,313.0831,314.0689,left,0.9689,,,,,,,,,0.9,,,,,,312.8276,313.0831,314.069,"[0.04168161484656577,-0.05805032740640372]","[1,1,1]","[-0.07804459087959972,0.09802129295929612]","[1,1,1]","[-0.0006570066221038018,-0.024532005853144828]","[1,1,1]","[-0.027878838778366777,0.03826429522544585]","[1,1,1]","[0.013069743933242556,0.1372508654176203]","[1,1,1]","[-0.027390274642842445,0.11678852705831295]","[1,1,1]","[0.01695675225479182,0.026675386968111447]","[1,1,1]","[0.17441746330075744,0.04925531878331602]","[1,1,1]","[-0.1773350954686105,0.048757114433329474]","[1,1,1]","[-0.05833175814228903,-0.14247032034923235]","[1,1,1]","[0.0973433290127547,0.14004928273670586]","[1,1,1]","[0.13462322136061872,-0.09094236101505969]","[1,1,1]","[-0.16267776544701432,-0.04385675287977634]","[1,1,1]","[0.11384516681302569,0.0962123550565227]","[1,1,1]","[-0.13315088022856833,-0.0810833721148187]","[-1,-1,-1]","[0.1257195538190235,-0.030457125810018453]","[1,1,1]","[-0.01785308451610006,-0.09680248281096661]","[-1,-1,-1]","[0.03652133131588108,0.1723551704205348]","[1,1,1]","[-0.11071490206217593,-0.0362242795531562]","[1,1,1]","[0.016103074113591763,-0.15921098457731797]","[1,1,1]","[0.18744400318905827,-0.06287965770655105]","[1,1,1]","[0.0787343743545952,0.04126495866297069]","[1,1,1]","[-0.07472732195458111,0.15870173264162873]","[-1,-1,-1]","[0.07435820870779047,-0.09594423607375105]","[1,1,1]","[0.1875934304158337,0.0016417579481323326]","[1,1,1]","[-0.03500740198684359,-0.055415153777213864]","[1,1,1]","[-0.1156322197376276,0.15652825755104338]","[1,1,1]","[-0.09761569775250047,-0.12628944397246425]","[1,1,1]","[-0.07372342140441032,0.056106658799517144]","[1,1,1]","[-0.16587776542178195,0.09188663323512496]","[1,1,1]","[0.06829274727569656,-0.16036865356053864]","[1,1,1]","[0.12926918451565766,0.05159033647117641]","[1,1,1]","[0.02,0.02]",315.1617,0,38,38,191,1,,,,,,,
,,,,,,,67741f8144dc7b0ad820521a,682f1019fb01b037af176ce8,2025-05-22_13h57.21.722,cuing_paradigm_dot,2024.1.5,Win32,60.24096386,682d573fa47f1360d1451895,,,,,,,,,,,315.1631,315.6616,,,315.9146,317.212,left,1.2739,,,,,,,,,0.55,,,,,,315.6616,315.9144,317.2125,"[0.06852864761378888,0.1696300102647436]","[-1,-1,-1]","[0.04280510377673096,-0.003182162916103891]","[1,1,1]","[0.07145775304010596,0.07301614732397242]","[1,1,1]","[-0.1007010014100825,-0.05382270026196072]","[1,1,1]","[0.09894730739643925,-0.039075941554186644]","[1,1,1]","[0.06250056190671538,-0.11528336048650428]","[1,1,1]","[-0.12548428876680393,0.04528202119131434]","[-1,-1,-1]","[-0.0400348988682697,0.1515472631878361]","[1,1,1]","[0.12506650986642429,-0.15199208155563781]","[-1,-1,-1]","[0.027565357069161564,-0.18254463693121054]","[-1,-1,-1]","[-0.024370004206350285,0.07140207903215375]","[1,1,1]","[0.09194807894002145,-0.087297984379151]","[1,1,1]","[-0.1306606470601677,-0.14889947861459552]","[-1,-1,-1]","[0.15084445210141123,0.07575991635080695]","[1,1,1]","[-0.08693075754368229,0.012931604847139792]","[-1,-1,-1]","[-0.08412982038766038,-0.13259965775788024]","[1,1,1]","[0.08266891956451733,0.0010179810708160117]","[1,1,1]","[0.0013808174428052925,0.1342476261573215]","[-1,-1,-1]","[0.01575375003511898,-0.05276461811191873]","[-1,-1,-1]","[-0.03711213788198904,-0.0871256196967244]","[-1,-1,-1]","[-0.08649976165002045,0.11695835811703668]","[1,1,1]","[0.010193413140320278,0.02596087921784944]","[1,1,1]","[-0.0387107848804959,-0.18344896672678843]","[-1,-1,-1]","[0.16045939666840642,-0.08926519736477631]","[1,1,1]","[-0.1364667873983956,-0.024430551091918124]","[-1,-1,-1]","[0.13258141733976983,0.13347150481858525]","[1,1,1]","[0.1672020503717042,0.028876975254450946]","[1,1,1]","[-0.16507674419848292,0.02022951302351377]","[-1,-1,-1]","[-0.1415077898472101,0.08771466710631323]","[-1,-1,-1]","[0.07734630123944793,0.1132520842050631]","[1,1,1]","[0.06494585701225344,-0.16130400696719027]","[1,1,1]","[-0.1320082725815493,0.1277930151831426]","[-1,-1,-1]","[0.02,0.02]",318.3113,0,39,39,134,1,,,,,,,
,,,,,,,67741f8144dc7b0ad820521a,682f1019fb01b037af176ce8,2025-05-22_13h57.21.722,cuing_paradigm_dot,2024.1.5,Win32,60.24096386,682d573fa47f1360d1451895,,,,,,,,,,,318.3126,318.8115,,,319.0525,320.0625,left,0.9872,,,,,,,,,0.55,,,,,,318.8115,319.0523,320.0627,"[-0.03450993745573495,0.099476430666281]","[1,1,1]","[0.13449057757892469,-0.13848701355358722]","[1,1,1]","[-0.0178407759265818,-0.054637000763593256]","[1,1,1]","[0.07751375493152864,0.05855976764175423]","[-1,-1,-1]","[-0.09144341584649462,0.0047370336797904625]","[1,1,1]","[-0.15810754021085732,-0.08711192662760424]","[1,1,1]","[0.15695016779365809,0.06771691648387325]","[1,1,1]","[0.07277291962395462,0.0004436015959853268]","[1,1,1]","[0.17133482883394052,-0.012863434878246897]","[1,1,1]","[0.1056533142205082,-0.06376610856508633]","[-1,-1,-1]","[-0.05225665006054369,-0.15859698031859049]","[-1,-1,-1]","[-0.18706785156333972,0.048513650541145384]","[-1,-1,-1]","[0.04832096856390858,-0.12911081198400853]","[-1,-1,-1]","[-0.0029624980730086725,-0.1299883521819138]","[1,1,1]","[-0.001959244144129786,0.006993546650078943]","[1,1,1]","[-0.1287705478568969,0.13145014908351624]","[1,1,1]","[-0.07844544557986706,0.14317824801723442]","[-1,-1,-1]","[0.042476313007859465,-0.027473011110166586]","[-1,-1,-1]","[-0.15734115232489906,0.005004800138606004]","[-1,-1,-1]","[0.1469769906869731,-0.07061566470965132]","[1,1,1]","[-0.16538538989486995,-0.04176080357461968]","[1,1,1]","[0.051414707023119996,-0.08177184050066713]","[1,1,1]","[-0.1409035223788123,0.05110952960382948]","[1,1,1]","[0.012274300826718479,0.08693104330966482]","[-1,-1,-1]","[0.16184034992221663,-0.10869041312430218]","[1,1,1]","[0.06523690486172415,0.13353660611340107]","[1,1,1]","[-0.09611738405114656,-0.11811582025460914]","[-1,-1,-1]","[-0.0684699565612066,-0.03072874518833818]","[-1,-1,-1]","[0.031316801564446176,0.035351110500670725]","[1,1,1]","[0.1171735903538856,0.13671232434577352]","[-1,-1,-1]","[-0.08816946023338683,0.05722339953602768]","[-1,-1,-1]","[-0.08191725901243913,0.1004321670238304]","[-1,-1,-1]","[0.02,0.02]",321.1614,0,40,40,131,1,,,,,,,
,,,,,,,67741f8144dc7b0ad820521a,682f1019fb01b037af176ce8,2025-05-22_13h57.21.722,cuing_paradigm_dot,2024.1.5,Win32,60.24096386,682d573fa47f1360d1451895,,,,,,,,,,,321.1626,321.6611,,,321.9012,322.6953,left,0.7686,,,,,,,,,0.55,,,,,,321.6612,321.9012,322.6956,"[-0.0032054091603232453,-0.13101326789419906]","[1,1,1]","[0.05630218664878255,-0.05741295461706699]","[-1,-1,-1]","[0.17293885670708167,-0.023901240235535446]","[1,1,1]","[-0.003926495160649445,-0.0886300490076692]","[1,1,1]","[-0.05297673798182615,0.18705252964313826]","[1,1,1]","[0.09884713785034048,0.12167541430582662]","[-1,-1,-1]","[0.10068060819739956,0.04692934289690445]","[1,1,1]","[-0.12902165400985985,-0.11872862060518839]","[-1,-1,-1]","[-0.1226702992276407,0.12219870360633119]","[-1,-1,-1]","[-0.005110361099140264,0.13046543637011895]","[1,1,1]","[-0.09288896619701122,0.031548702930833804]","[-1,-1,-1]","[-0.020861467523085327,-0.02163138694393927]","[-1,-1,-1]","[-0.09452150489019066,-0.14508602979328905]","[1,1,1]","[0.015392162865057906,0.06422471309766943]","[1,1,1]","[-0.10919054542620532,-0.01896998826096848]","[1,1,1]","[-0.17112063119764032,0.009522172693128219]","[-1,-1,-1]","[-0.07415000508567371,0.10735543006132135]","[-1,-1,-1]","[0.021751990200161525,0.02308807749318791]","[1,1,1]","[-0.09825496855277266,-0.09200889338085921]","[-1,-1,-1]","[-0.06680270945257678,-0.1861432025734412]","[1,1,1]","[-0.05485647181487514,-0.07508820456214317]","[-1,-1,-1]","[0.12966561588135206,0.07660255072844777]","[1,1,1]","[0.08147702428577139,0.17609815581183766]","[1,1,1]","[-0.13632894871661178,0.07862386957777996]","[1,1,1]","[0.16080317482115,-0.10515989816909425]","[-1,-1,-1]","[-0.18251070580633377,-0.06500634360012916]","[1,1,1]","[-0.05919121303220567,0.06682510924742843]","[1,1,1]","[0.009036108185214244,0.17932161100123892]","[-1,-1,-1]","[0.057047735172415896,0.1438387747546963]","[1,1,1]","[0.0663852708858112,0.0678169937734401]","[1,1,1]","[-0.18834895946857422,0.060907264783598404]","[-1,-1,-1]","[0.08927322571556058,-0.16327902263951435]","[-1,-1,-1]","[0.02,0.02]",323.7946,0,41,41,120,1,,,,,,,
,,,,,,,67741f8144dc7b0ad820521a,682f1019fb01b037af176ce8,2025-05-22_13h57.21.722,cuing_paradigm_dot,2024.1.5,Win32,60.24096386,682d573fa47f1360d1451895,,,,,,,,,,,323.7953,324.2947,,,324.5351,324.9852,right,0.4343,,,,,,,,,0.1,,,,,,324.295,324.535,324.9855,"[0.14857093434266808,0.13386673244674638]","[-1,-1,-1]","[-0.05759577490330013,0.13722600175775723]","[-1,-1,-1]","[0.05553896152581359,-0.07821504757291939]","[-1,-1,-1]","[-0.0668978032886668,-0.05097319488466626]","[-1,-1,-1]","[0.08525692185519926,0.10038675412364845]","[-1,-1,-1]","[-0.007960507707273828,-0.006637290429284893]","[-1,-1,-1]","[0.029713295607390222,0.0949817433227413]","[-1,-1,-1]","[-0.17744028578159335,-0.0347053219423735]","[-1,-1,-1]","[0.06377492624123544,0.15846195277343286]","[-1,-1,-1]","[-0.09627609877772716,0.06921886951287327]","[-1,-1,-1]","[-0.025465985905008693,-0.050493633680057014]","[-1,-1,-1]","[0.18842877351326484,-0.03160358219089841]","[-1,-1,-1]","[0.14662895894819455,0.05750029249801398]","[-1,-1,-1]","[0.1195071786565023,0.02629266859147008]","[-1,-1,-1]","[0.07085112389582862,0.04312747969075277]","[-1,-1,-1]","[-0.11016134282189599,-0.1058392331033916]","[-1,-1,-1]","[-0.06655896488476573,-0.1111314486551342]","[-1,-1,-1]","[0.0455899176767306,-0.02916497329380899]","[1,1,1]","[-0.12945262153774628,0.012336462892457153]","[-1,-1,-1]","[0.09233520823797114,-0.12628581900369626]","[-1,-1,-1]","[-0.013550795858836541,0.10668544849216065]","[-1,-1,-1]","[0.021407488098002022,-0.0998994014896013]","[-1,-1,-1]","[0.11929260914059711,-0.07025984445562933]","[1,1,1]","[-0.017075147490504743,0.14779921703330498]","[-1,-1,-1]","[0.03196507323430259,-0.14843776154764124]","[-1,-1,-1]","[0.15303531894664846,-0.12242662426249169]","[-1,-1,-1]","[0.05105218438364972,-0.18940823030733572]","[-1,-1,-1]","[-0.06045458691786995,0.04207902350037772]","[-1,-1,-1]","[-0.18125958199604045,0.04827605201820758]","[-1,-1,-1]","[-0.005313848198149957,0.19721889073608068]","[-1,-1,-1]","[-0.07021769955356495,-0.1858017832441741]","[-1,-1,-1]","[0.14074522762958963,-0.021322858344314344]","[1,1,1]","[0.02,0.02]",326.0782,0,42,42,6,1,,,,,,,
,,,,,,,67741f8144dc7b0ad820521a,682f1019fb01b037af176ce8,2025-05-22_13h57.21.722,cuing_paradigm_dot,2024.1.5,Win32,60.24096386,682d573fa47f1360d1451895,,,,,,,,,,,326.0798,326.5784,,,326.8169,327.3785,right,0.5359,,,,,,,,,0.45,,,,,,326.5785,326.8168,327.3787,"[-0.11963242994392438,0.04668059740356581]","[-1,-1,-1]","[0.035404723745531254,0.0883931568703966]","[-1,-1,-1]","[0.10375617248838118,-0.06693295159430274]","[-1,-1,-1]","[0.1637795687802333,0.10728734078392109]","[-1,-1,-1]","[-0.19035660636864427,0.02464384561964923]","[-1,-1,-1]","[-0.018727757344319577,-0.18035305721853245]","[1,1,1]","[-0.16617997455525757,-0.09232635141618323]","[-1,-1,-1]","[0.024927711894082955,0.0382269895829918]","[1,1,1]","[-0.17891770850293762,-0.02924544780727654]","[-1,-1,-1]","[-0.07403325400377526,0.04316222221133304]","[1,1,1]","[-0.08865425571565837,-0.007868359158096493]","[1,1,1]","[0.15940624375504225,-0.09267235091802349]","[-1,-1,-1]","[-0.05332745929366302,-0.046122829322479277]","[1,1,1]","[0.17484809612615096,0.029730966832252854]","[-1,-1,-1]","[-0.07725749122039197,0.1474647078464849]","[1,1,1]","[-0.12256420681498983,-0.11938564149449814]","[-1,-1,-1]","[0.06694243617699022,0.1543138296549046]","[-1,-1,-1]","[-0.013290107290546447,-0.12286413039777014]","[-1,-1,-1]","[0.09421662676648453,-0.12527814065647094]","[1,1,1]","[0.061172729622700546,-0.03612752849934511]","[1,1,1]","[-0.05534365971839639,0.10349089288946538]","[1,1,1]","[0.010504379035785726,-0.002735835153859743]","[-1,-1,-1]","[-0.13245576082060473,-0.06192212988084442]","[1,1,1]","[0.12094772283785202,0.15897287346605887]","[-1,-1,-1]","[-0.004171870588703559,-0.06799494372449627]","[1,1,1]","[0.16189057937635626,-0.01487749172039534]","[-1,-1,-1]","[0.11921528504305391,0.013483690392554112]","[-1,-1,-1]","[0.03485202982047331,-0.15099387573422546]","[-1,-1,-1]","[-0.011344264174096175,0.17650638550789202]","[1,1,1]","[0.11941589031004515,0.06304470458306419]","[-1,-1,-1]","[0.09321880732959287,-0.17303961936604814]","[1,1,1]","[0.07657344977780914,0.044874476990896556]","[1,1,1]","[0.02,0.02]",328.4783,0,43,43,74,1,,,,,,,
,,,,,,,67741f8144dc7b0ad820521a,682f1019fb01b037af176ce8,2025-05-22_13h57.21.722,cuing_paradigm_dot,2024.1.5,Win32,60.24096386,682d573fa47f1360d1451895,,,,,,,,,,,328.4801,328.9782,,,329.2166,329.946,left,0.7086,,,,,,,,,0.6,,,,,,328.9784,329.2165,329.9465,"[-0.11114350689385478,-0.1273597138239762]","[-1,-1,-1]","[-0.10479312245292981,0.12858792876197714]","[1,1,1]","[-0.15823602046573967,-0.0027074594226560726]","[1,1,1]","[0.11897685151736627,-0.06977498677745557]","[1,1,1]","[0.01278420663256668,0.015532157960164356]","[-1,-1,-1]","[0.152864990726791,0.0038870970128513506]","[1,1,1]","[0.05007133839300498,0.05516768182652638]","[-1,-1,-1]","[-0.0003801843738285382,-0.17222985216847803]","[-1,-1,-1]","[-0.06003591207002923,0.06012034842051572]","[-1,-1,-1]","[-0.003704871341529337,-0.126366688010292]","[-1,-1,-1]","[0.1527800810909761,0.055937821984979645]","[1,1,1]","[-0.12790147087530232,0.05098853365939165]","[-1,-1,-1]","[0.053344943396727816,0.13249370357853696]","[1,1,1]","[-0.17470815271417814,0.07195937668729552]","[-1,-1,-1]","[-0.05510441713733426,-0.0590391318059111]","[-1,-1,-1]","[0.11139913555213436,0.08673454273707527]","[1,1,1]","[0.0028211452846964996,-0.028779542758944357]","[1,1,1]","[-0.05218592306268059,0.19275383270805851]","[1,1,1]","[-0.009956044579191005,-0.0786849133857866]","[-1,-1,-1]","[0.14512426526296923,-0.13354789071008052]","[1,1,1]","[0.04454600853617965,-0.17026183108328366]","[1,1,1]","[-0.10262614979485672,-0.07248541063326285]","[1,1,1]","[0.04705800625220732,-0.1151661930067034]","[-1,-1,-1]","[0.11935095184968192,0.15019802780667835]","[1,1,1]","[0.16564626754189113,-0.0765311540266807]","[1,1,1]","[-0.16937210462577226,-0.07132964707942178]","[1,1,1]","[-0.034340748647586315,0.006780571966607729]","[1,1,1]","[0.08903956634723564,0.17862894091019663]","[1,1,1]","[0.06621869699349911,0.013594349584345109]","[1,1,1]","[-0.09651098342059311,-0.017716592282646815]","[-1,-1,-1]","[-0.025624802670022886,0.11316236306608284]","[1,1,1]","[0.10801458040781059,-0.16793300039340323]","[-1,-1,-1]","[0.02,0.02]",331.0448,0,44,44,168,1,,,,,,,
