right,left,explain.started,explain.stopped,key_resp_3.keys,key_resp_3.rt,key_resp_3.duration,participant,session,date,expName,psychopyVersion,OS,frameRate,study_id,explain_2.started,explain_2.stopped,key_resp_4.keys,key_resp_4.rt,key_resp_4.duration,explain_3.started,explain_3.stopped,key_resp_5.keys,key_resp_5.rt,key_resp_5.duration,fixation.started,fixation.stopped,practice.started,practice.stopped,response.started,response.stopped,key_resp.keys,key_resp.rt,key_resp.duration,feedback.started,feedback.stopped,trials_2.thisRepN,trials_2.thisTrialN,trials_2.thisN,trials_2.thisIndex,trials_2.ran,white_ratio,explain_4.started,explain_4.stopped,key_resp_6.keys,key_resp_6.rt,key_resp_6.duration,dotDisplay.started,dotDisplay.stopped,ITI.started,polygon_1.pos,polygon_1.color,polygon_2.pos,polygon_2.color,polygon_3.pos,polygon_3.color,polygon_4.pos,polygon_4.color,polygon_5.pos,polygon_5.color,polygon_6.pos,polygon_6.color,polygon_7.pos,polygon_7.color,polygon_8.pos,polygon_8.color,polygon_9.pos,polygon_9.color,polygon_10.pos,polygon_10.color,polygon_11.pos,polygon_11.color,polygon_12.pos,polygon_12.color,polygon_13.pos,polygon_13.color,polygon_14.pos,polygon_14.color,polygon_15.pos,polygon_15.color,polygon_16.pos,polygon_16.color,polygon_17.pos,polygon_17.color,polygon_18.pos,polygon_18.color,polygon_19.pos,polygon_19.color,polygon_20.pos,polygon_20.color,polygon_21.pos,polygon_21.color,polygon_22.pos,polygon_22.color,polygon_23.pos,polygon_23.color,polygon_24.pos,polygon_24.color,polygon_25.pos,polygon_25.color,polygon_26.pos,polygon_26.color,polygon_27.pos,polygon_27.color,polygon_28.pos,polygon_28.color,polygon_29.pos,polygon_29.color,polygon_30.pos,polygon_30.color,polygon_31.pos,polygon_31.color,polygon_32.pos,polygon_32.color,dot_size,ITI.stopped,trials.thisRepN,trials.thisTrialN,trials.thisN,trials.thisIndex,trials.ran,break_2.started,break_2.stopped,trials_3.thisRepN,trials_3.thisTrialN,trials_3.thisN,trials_3.thisIndex,trials_3.ran
subject chose black,subject chose white,0.0003,16.5751,space,1.5603,,6776648b0449a9e3e0f9e81d,682f1012ddaf00a07d3f65b2,2025-05-22_13h57.58.759,cuing_paradigm_dot,2024.1.5,Win32,59.88023952,682d573fa47f1360d1451895,,,,,,,,,,,,,,,,,,,,,,,,,,,,,,,,,,,,,,,,,,,,,,,,,,,,,,,,,,,,,,,,,,,,,,,,,,,,,,,,,,,,,,,,,,,,,,,,,,,,,,,,,,,,,,,,,
,,,,,,,6776648b0449a9e3e0f9e81d,682f1012ddaf00a07d3f65b2,2025-05-22_13h57.58.759,cuing_paradigm_dot,2024.1.5,Win32,59.88023952,682d573fa47f1360d1451895,16.5756,53.128,space,6.5299,,,,,,,,,,,,,,,,,,,,,,,,,,,,,,,,,,,,,,,,,,,,,,,,,,,,,,,,,,,,,,,,,,,,,,,,,,,,,,,,,,,,,,,,,,,,,,,,,,,,,,,,,,,,,
,,,,,,,6776648b0449a9e3e0f9e81d,682f1012ddaf00a07d3f65b2,2025-05-22_13h57.58.759,cuing_paradigm_dot,2024.1.5,Win32,59.88023952,682d573fa47f1360d1451895,,,,,,53.1285,56.8149,space,0.6784,,,,,,,,,,,,,,,,,,,,,,,,,,,,,,,,,,,,,,,,,,,,,,,,,,,,,,,,,,,,,,,,,,,,,,,,,,,,,,,,,,,,,,,,,,,,,,,,,,,,,,,,
,,,,,,,6776648b0449a9e3e0f9e81d,682f1012ddaf00a07d3f65b2,2025-05-22_13h57.58.759,cuing_paradigm_dot,2024.1.5,Win32,59.88023952,682d573fa47f1360d1451895,,,,,,,,,,,56.8322,57.332,57.3327,57.5706,57.5707,58.636,right,1.0385,,58.6363,59.7345,0,0,0,0,1,0.8,,,,,,,,,,,,,,,,,,,,,,,,,,,,,,,,,,,,,,,,,,,,,,,,,,,,,,,,,,,,,,,,,,,,,,,,,,,,,,,,,,,,,,
,,,,,,,6776648b0449a9e3e0f9e81d,682f1012ddaf00a07d3f65b2,2025-05-22_13h57.58.759,cuing_paradigm_dot,2024.1.5,Win32,59.88023952,682d573fa47f1360d1451895,,,,,,,,,,,59.7361,60.2342,60.2343,60.4752,60.4752,61.269,right,0.7692,,61.2694,62.3697,0,1,1,1,1,0.2,,,,,,,,,,,,,,,,,,,,,,,,,,,,,,,,,,,,,,,,,,,,,,,,,,,,,,,,,,,,,,,,,,,,,,,,,,,,,,,,,,,,,,
,,,,,,,6776648b0449a9e3e0f9e81d,682f1012ddaf00a07d3f65b2,2025-05-22_13h57.58.759,cuing_paradigm_dot,2024.1.5,Win32,59.88023952,682d573fa47f1360d1451895,,,,,,,,,,,,,,,,,,,,,,,,,,,,62.3709,66.4249,space,1.0413,,,,,,,,,,,,,,,,,,,,,,,,,,,,,,,,,,,,,,,,,,,,,,,,,,,,,,,,,,,,,,,,,,,,,,,,,,,,,,,,,,
,,,,,,,6776648b0449a9e3e0f9e81d,682f1012ddaf00a07d3f65b2,2025-05-22_13h57.58.759,cuing_paradigm_dot,2024.1.5,Win32,59.88023952,682d573fa47f1360d1451895,,,,,,,,,,,66.4347,66.9246,,,67.1759,68.209,left,1.0035,,,,,,,,,0.4,,,,,,66.9259,67.1758,68.2098,"[-0.13382036819825177,0.07794772585672864]","[-1,-1,-1]","[0.1479601950337912,0.10224901048254854]","[1,1,1]","[-0.02440768764903614,0.05373911847192536]","[-1,-1,-1]","[-0.005657638496689145,0.16445173857212664]","[1,1,1]","[-0.06239144747730166,-0.18060980484799433]","[-1,-1,-1]","[0.08765448969568697,-0.08014982273904067]","[1,1,1]","[0.05949095451810039,-0.14701018249509862]","[1,1,1]","[-0.153698902766059,0.03034060466263906]","[-1,-1,-1]","[-0.0896114852473191,0.09900695294031828]","[-1,-1,-1]","[0.023091484179172027,0.12959274360423426]","[-1,-1,-1]","[-0.009483051337897695,-0.19403267613106914]","[-1,-1,-1]","[0.13386200377914118,-0.08297681695135575]","[1,1,1]","[0.08285230490980174,0.12804606881962985]","[-1,-1,-1]","[0.18608381152637768,-0.028866431666376407]","[1,1,1]","[0.00935853202418796,-0.015307649590679729]","[-1,-1,-1]","[-0.0928956778354338,0.14235067251205497]","[1,1,1]","[0.01998822665101373,-0.10484675213597891]","[-1,-1,-1]","[-0.0490184835634916,-0.12389603737453926]","[-1,-1,-1]","[-0.053886153134347484,0.1266750856248717]","[1,1,1]","[-0.16880097561482973,-0.05956023983340853]","[-1,-1,-1]","[0.13838256023832057,0.06115880996694371]","[-1,-1,-1]","[-0.042827118059913315,-0.04089338306954187]","[1,1,1]","[-0.10942937077254114,-0.10982291325259942]","[-1,-1,-1]","[-0.05165231234250868,0.18132906888641148]","[-1,-1,-1]","[-0.05710234592343787,0.016092091246802036]","[1,1,1]","[0.06644137485093088,0.014317204798719535]","[-1,-1,-1]","[0.03146995721349412,0.08570236864807848]","[1,1,1]","[-0.0009931583437420442,-0.05920959374369076]","[-1,-1,-1]","[0.09067056705053528,-0.17603384192475902]","[1,1,1]","[0.10872535993942575,0.09034689682574856]","[1,1,1]","[-0.10703873489013856,0.009534651948320335]","[-1,-1,-1]","[-0.09892036073684496,-0.06248453307076583]","[-1,-1,-1]","[0.02,0.02]",69.311,0,0,0,53,1,,,,,,,
,,,,,,,6776648b0449a9e3e0f9e81d,682f1012ddaf00a07d3f65b2,2025-05-22_13h57.58.759,cuing_paradigm_dot,2024.1.5,Win32,59.88023952,682d573fa47f1360d1451895,,,,,,,,,,,69.3123,69.8108,,,70.0657,70.7477,right,0.6604,,,,,,,,,0.1,,,,,,69.811,70.0656,70.7479,"[0.018708302036139206,-0.13961892821678232]","[-1,-1,-1]","[0.1310071790771885,-0.11973624868296141]","[-1,-1,-1]","[0.08548982609750332,-0.15254355150649146]","[-1,-1,-1]","[-0.07656287522965395,0.012782368556939965]","[1,1,1]","[0.060451785324141236,0.016318707371553914]","[-1,-1,-1]","[0.14166525742341612,-0.05172864697202202]","[-1,-1,-1]","[0.1055280865459411,0.12941862108797056]","[-1,-1,-1]","[-0.12438464827650729,-0.06673383468200811]","[-1,-1,-1]","[0.12070056939767732,0.02031585378977445]","[-1,-1,-1]","[-0.05386504154618596,-0.09490101139882308]","[-1,-1,-1]","[-0.012338606352682177,0.1252931152811506]","[-1,-1,-1]","[0.13127237417154994,0.07690796709402561]","[-1,-1,-1]","[-0.12323217688635547,0.06167718622376946]","[1,1,1]","[-0.10402270413487659,0.12234906499171583]","[-1,-1,-1]","[0.06095416542449683,0.15402957720811433]","[-1,-1,-1]","[0.19403871185659205,-0.046488677885186624]","[-1,-1,-1]","[0.03697108446550457,-0.18198207839160288]","[-1,-1,-1]","[-0.08226535398522462,-0.17763227063438805]","[-1,-1,-1]","[0.09290482687895374,-0.07348104824451586]","[-1,-1,-1]","[-0.06336095383415793,0.07649631898108758]","[1,1,1]","[-0.13614567403659653,-0.021340694424166154]","[-1,-1,-1]","[-0.07730784960924428,-0.03253141891057562]","[-1,-1,-1]","[0.06899172530136101,-0.030966525141211856]","[-1,-1,-1]","[-0.1510753777478516,0.1025170891425971]","[-1,-1,-1]","[-0.18464714611701977,-0.04774657077477105]","[-1,-1,-1]","[-0.14951643310019558,-0.12318229262135935]","[-1,-1,-1]","[0.027462127707625406,0.06569028790240272]","[-1,-1,-1]","[-0.025164234508166253,-0.057516338048834825]","[-1,-1,-1]","[-0.17687253329949787,0.04437470265406459]","[-1,-1,-1]","[-0.05694440014496489,0.12342411032591091]","[-1,-1,-1]","[0.014364320064197309,-0.07600075492655467]","[-1,-1,-1]","[-0.06094464362350091,0.16989732724259798]","[-1,-1,-1]","[0.02,0.02]",71.8474,0,1,1,10,1,,,,,,,
,,,,,,,6776648b0449a9e3e0f9e81d,682f1012ddaf00a07d3f65b2,2025-05-22_13h57.58.759,cuing_paradigm_dot,2024.1.5,Win32,59.88023952,682d573fa47f1360d1451895,,,,,,,,,,,71.8489,72.347,,,72.6055,73.0995,left,0.4773,,,,,,,,,0.9,,,,,,72.3471,72.6054,73.0998,"[0.03745815323868856,-0.16607703922287204]","[1,1,1]","[0.10378768655639861,0.11875425941508555]","[1,1,1]","[-0.0447222534219343,0.11124137804384203]","[1,1,1]","[0.12133126613037427,0.0770580894547058]","[1,1,1]","[0.09546332213557968,-0.04412937013749983]","[1,1,1]","[0.08086506971714755,0.025869551890262334]","[1,1,1]","[-0.062018837703326245,-0.1337550832706644]","[1,1,1]","[-0.05432608928760345,0.17178755069163681]","[1,1,1]","[0.018136290208189753,0.06256819324488722]","[1,1,1]","[0.17538961339801673,0.03870350784796264]","[1,1,1]","[0.02026824186604761,0.1553762804929866]","[1,1,1]","[-0.028515477490768364,-0.04585683537859535]","[1,1,1]","[-0.0579827333145039,0.053948381845242095]","[1,1,1]","[0.1757196019574164,-0.02181349396175845]","[1,1,1]","[0.07005263645840894,0.1547788878657966]","[1,1,1]","[0.03543351459824472,-0.08167963403819607]","[1,1,1]","[-0.1703132020128927,0.03807844084365592]","[-1,-1,-1]","[-0.12717549216777502,-0.058311241427714954]","[1,1,1]","[-0.12874869786035853,0.03654959270193512]","[1,1,1]","[-0.1063162632521484,0.12370266391918194]","[1,1,1]","[0.08269162450919794,-0.12349117354396687]","[1,1,1]","[-0.1377524881356521,0.07851043558710463]","[1,1,1]","[0.1747079854037522,-0.08291808860480054]","[1,1,1]","[0.12173922466946775,-0.09195312955091565]","[1,1,1]","[-0.029374926899394915,-0.18121583909426228]","[1,1,1]","[-0.15218831944167155,-0.09162811455486]","[1,1,1]","[-0.004531594736239161,0.11611317104895763]","[-1,-1,-1]","[0.0397234668007427,0.1112550568482335]","[-1,-1,-1]","[0.06005395624523879,0.06933317199302257]","[1,1,1]","[-0.09250515499994627,-0.07934839936530193]","[1,1,1]","[-0.11306193555656205,-0.1541772534605064]","[1,1,1]","[0.11746074066656809,0.007968165481045283]","[1,1,1]","[0.02,0.02]",74.1985,0,2,2,182,1,,,,,,,
,,,,,,,6776648b0449a9e3e0f9e81d,682f1012ddaf00a07d3f65b2,2025-05-22_13h57.58.759,cuing_paradigm_dot,2024.1.5,Win32,59.88023952,682d573fa47f1360d1451895,,,,,,,,,,,74.1998,74.6992,,,74.9375,76.0839,right,1.1179,,,,,,,,,0.4,,,,,,74.6993,74.9375,76.0841,"[0.13621474123237257,-0.08227149286405769]","[1,1,1]","[0.06393518983296301,-0.09050920693361782]","[-1,-1,-1]","[0.025386219159651075,-0.057551624266598364]","[-1,-1,-1]","[-0.0933629299308826,-0.12482810819726414]","[1,1,1]","[0.047277281689271776,0.05247776530530311]","[-1,-1,-1]","[0.1847179110992975,-0.031047703592071686]","[1,1,1]","[-0.019148154091376886,-0.15858190743988068]","[1,1,1]","[0.15947627245073326,0.015927794670563218]","[1,1,1]","[-0.08900092629292969,0.16811981652572086]","[-1,-1,-1]","[-0.1546899747182478,-0.07064996298887201]","[1,1,1]","[-0.0858120758935472,-0.03613675005943195]","[-1,-1,-1]","[-0.02601398263805385,0.11690141663483442]","[-1,-1,-1]","[-0.12745237397695958,0.11380978916226835]","[-1,-1,-1]","[0.11243928521755263,0.0029914093524656617]","[1,1,1]","[-0.08119462397231089,0.02059660182120668]","[1,1,1]","[0.11867427713354564,0.10200156788728112]","[-1,-1,-1]","[0.07493860354474971,-0.1356740882460947]","[1,1,1]","[-0.13076458355812798,-0.03099963272900604]","[-1,-1,-1]","[-0.019016815915193365,0.02158377033577329]","[1,1,1]","[0.06715399330994772,0.1760371191402688]","[-1,-1,-1]","[-0.18915656543603437,0.05580685310268515]","[1,1,1]","[-0.015350404609274955,-0.06772013293189844]","[-1,-1,-1]","[0.004128389921372185,-0.11200905026682534]","[-1,-1,-1]","[-0.08058073235981615,0.11002008668541124]","[1,1,1]","[-0.029204820299578767,0.1607691347751213]","[-1,-1,-1]","[0.09989323556277617,0.05683077212932034]","[-1,-1,-1]","[0.16992398648103546,0.10452716584736688]","[-1,-1,-1]","[-0.05916184928594091,-0.07433772220724273]","[1,1,1]","[0.06223969745415016,-0.18935364937201327]","[-1,-1,-1]","[-0.04379352231219664,-0.022662227762335528]","[-1,-1,-1]","[0.09130002713005296,-0.05424674445047471]","[-1,-1,-1]","[0.12732499289090377,-0.14698991261385244]","[-1,-1,-1]","[0.02,0.02]",77.1846,0,3,3,52,1,,,,,,,
,,,,,,,6776648b0449a9e3e0f9e81d,682f1012ddaf00a07d3f65b2,2025-05-22_13h57.58.759,cuing_paradigm_dot,2024.1.5,Win32,59.88023952,682d573fa47f1360d1451895,,,,,,,,,,,77.1853,77.685,,,77.9361,79.0198,left,1.0584,,,,,,,,,0.5,,,,,,77.685,77.9358,79.02,"[0.16961584319432188,0.07667765216769337]","[1,1,1]","[0.18535405712032674,-0.03970445548622296]","[-1,-1,-1]","[-0.05204952566044559,-0.010068407846360327]","[1,1,1]","[0.12812101817814495,0.11308427515950648]","[1,1,1]","[0.10889252694163862,-0.12195615324787977]","[1,1,1]","[-0.1512275392160407,0.04775613979680524]","[1,1,1]","[0.017331533960904175,-0.1296419372762259]","[1,1,1]","[-0.08608633652692323,-0.1134393834788125]","[1,1,1]","[0.1234477642515502,-0.05575658255271994]","[1,1,1]","[0.02340967576899109,0.06038346873978965]","[1,1,1]","[0.002309390850110883,0.015426795574375774]","[-1,-1,-1]","[-0.08654160176884935,0.10380896210876407]","[-1,-1,-1]","[-0.03834499443626973,-0.15796497122862416]","[-1,-1,-1]","[0.08065086318842178,0.05484929482176288]","[-1,-1,-1]","[0.016462337342067375,-0.17998954725550606]","[1,1,1]","[0.01627641181391992,-0.040403734022013874]","[-1,-1,-1]","[0.08374528012162617,-0.15376184115185249]","[-1,-1,-1]","[0.0007376508210052174,0.12984622976880517]","[-1,-1,-1]","[0.15950044630368135,-0.08587138302387815]","[-1,-1,-1]","[-0.11050771923958631,-0.07234391276650695]","[1,1,1]","[0.17066157601684745,0.015977191635436986]","[1,1,1]","[-0.1546232055406102,0.12216966420395653]","[-1,-1,-1]","[0.10409780785830547,0.1693822277608107]","[-1,-1,-1]","[-0.1805258422943587,-0.03857921422331319]","[1,1,1]","[-0.06490079286157054,-0.06041703710926481]","[1,1,1]","[-0.00019045063587777545,0.1838196760670965]","[1,1,1]","[-0.07636379811669625,-0.1713761742586727]","[-1,-1,-1]","[-0.006584555519083725,-0.0948200980574208]","[-1,-1,-1]","[0.05935897866763794,-0.09260093000107734]","[1,1,1]","[-0.12662042313227234,-0.13204124988869254]","[-1,-1,-1]","[0.11095207690539469,0.0062250099426145065]","[-1,-1,-1]","[-0.05587907316304561,0.16452136520566374]","[-1,-1,-1]","[0.02,0.02]",80.1208,0,4,4,107,1,,,,,,,
,,,,,,,6776648b0449a9e3e0f9e81d,682f1012ddaf00a07d3f65b2,2025-05-22_13h57.58.759,cuing_paradigm_dot,2024.1.5,Win32,59.88023952,682d573fa47f1360d1451895,,,,,,,,,,,80.1213,80.6215,,,80.8796,81.7396,left,0.8413,,,,,,,,,0.5,,,,,,80.6215,80.8795,81.7398,"[0.1931311894681356,0.012331588001193864]","[1,1,1]","[0.04402472143435015,-0.06523111495705153]","[1,1,1]","[-0.026716864974139675,0.13494754142351387]","[1,1,1]","[-0.18601673668218446,0.03918213101777231]","[-1,-1,-1]","[-0.1003610123763713,-0.032412943119525965]","[-1,-1,-1]","[-0.15965993530458988,0.11895670245971722]","[1,1,1]","[-0.032367085763134795,-0.12227889264108716]","[1,1,1]","[-0.04952597428299302,0.03555349338853794]","[1,1,1]","[-0.0009584077848643074,-0.06420680416021089]","[1,1,1]","[0.14818729126282962,0.0033961561435902465]","[1,1,1]","[-0.1534191680106615,-0.013172759008361852]","[1,1,1]","[0.14976565273943215,0.061853218452494266]","[-1,-1,-1]","[-0.11641257639829246,0.16161024843940178]","[1,1,1]","[-0.09926182557174204,0.008801426557729846]","[-1,-1,-1]","[0.03273744722246691,0.009985084132544179]","[1,1,1]","[0.1845722563082294,-0.07407764015129298]","[1,1,1]","[0.03989725739097086,0.10618752319962609]","[-1,-1,-1]","[-0.09341034803046283,0.09720183721090278]","[1,1,1]","[0.034667694635705494,-0.12502378996800714]","[-1,-1,-1]","[0.019155648560118692,-0.1849699067183971]","[-1,-1,-1]","[0.08914548942727497,0.16616776881943296]","[-1,-1,-1]","[0.09078296288917487,-0.17408937454470608]","[-1,-1,-1]","[-0.08702307060640267,-0.10560204194838635]","[-1,-1,-1]","[0.11714671030690774,0.1050610822333684]","[-1,-1,-1]","[0.07923915695714379,0.008820695822847226]","[-1,-1,-1]","[-0.05055032265099039,-0.18772058794263752]","[-1,-1,-1]","[-0.03859657275791409,0.18778967937436575]","[-1,-1,-1]","[0.13415378299749733,-0.05350453581259269]","[1,1,1]","[-0.16192072065595928,0.07113043024511853]","[1,1,1]","[0.026086624893649706,0.05441911414792971]","[-1,-1,-1]","[-0.0014734897590611034,-0.016176024548296142]","[-1,-1,-1]","[-0.17334650422955092,-0.08916807374766833]","[1,1,1]","[0.02,0.02]",82.8408,0,5,5,118,1,,,,,,,
,,,,,,,6776648b0449a9e3e0f9e81d,682f1012ddaf00a07d3f65b2,2025-05-22_13h57.58.759,cuing_paradigm_dot,2024.1.5,Win32,59.88023952,682d573fa47f1360d1451895,,,,,,,,,,,82.842,83.3409,,,83.5984,84.4249,right,0.8216,,,,,,,,,0.45,,,,,,83.3411,83.5984,84.425,"[0.11568342908121178,0.024973554851802526]","[1,1,1]","[-0.019788419252822372,0.054711414792013545]","[-1,-1,-1]","[-0.11447644896068294,0.04555888810732436]","[-1,-1,-1]","[-0.12188513419691915,0.10633359093134186]","[1,1,1]","[-0.11966824575687009,-0.09196318426324464]","[-1,-1,-1]","[0.08912867493945198,-0.05756359008694508]","[-1,-1,-1]","[0.06557212447880427,0.14392077092001304]","[-1,-1,-1]","[-0.09083983023155257,0.14298168406788014]","[-1,-1,-1]","[0.12825638738802522,-0.11729291761843819]","[-1,-1,-1]","[0.018500996114838603,0.13917455548187263]","[1,1,1]","[0.02298682516616598,-0.08323785879653689]","[-1,-1,-1]","[0.05757189565783336,-0.17053531839938754]","[1,1,1]","[-0.07757418491500276,0.0879399230658538]","[-1,-1,-1]","[0.08227163170145281,0.08375839923824303]","[-1,-1,-1]","[-0.04695096511728826,-0.16188163564670058]","[1,1,1]","[-0.09918189385028776,-0.031131502954893725]","[1,1,1]","[0.05369669094785375,-0.028088081209701722]","[1,1,1]","[0.021445638171410104,0.051537786748331704]","[1,1,1]","[-0.17798169275320802,-0.03040336057449614]","[1,1,1]","[0.05996277912870744,0.040007082967915684]","[-1,-1,-1]","[-0.1763789372417445,0.037376027759197]","[1,1,1]","[0.17799097009501205,-0.014057440968076403]","[1,1,1]","[0.08498210072607194,-0.09890550831880117]","[1,1,1]","[-0.03164606635542854,-0.015576422956882151]","[-1,-1,-1]","[-0.02936544950454955,-0.10466936074028707]","[-1,-1,-1]","[0.10190287825059444,0.11976783898644267]","[-1,-1,-1]","[-0.11737499799275575,0.005306510021721254]","[-1,-1,-1]","[0.09811232457355158,0.17262090144660652]","[-1,-1,-1]","[-0.0591312602426563,0.016458994212430147]","[-1,-1,-1]","[0.15844168002737577,0.08780745822938485]","[-1,-1,-1]","[0.01665500525402759,-0.13180746169188812]","[1,1,1]","[-0.09690645590763577,-0.15654455712572526]","[1,1,1]","[0.02,0.02]",85.5261,0,6,6,82,1,,,,,,,
,,,,,,,6776648b0449a9e3e0f9e81d,682f1012ddaf00a07d3f65b2,2025-05-22_13h57.58.759,cuing_paradigm_dot,2024.1.5,Win32,59.88023952,682d573fa47f1360d1451895,,,,,,,,,,,85.5269,86.0266,,,86.278,87.0121,left,0.7022,,,,,,,,,0.55,,,,,,86.0266,86.2779,87.0122,"[0.10482676609256708,-0.03655094514243325]","[1,1,1]","[0.03983187672866475,-0.1653579490002526]","[-1,-1,-1]","[-0.12154811135840457,-0.07531074544362508]","[1,1,1]","[-0.05093282643700141,-0.0627094940668625]","[1,1,1]","[0.1371706144302017,-0.08344315488981909]","[1,1,1]","[0.062126169750325366,0.1558524514471018]","[-1,-1,-1]","[-0.1731205219605912,-0.042928047633968944]","[1,1,1]","[-0.16978228826242783,0.0615701225862775]","[1,1,1]","[0.06581830829191795,-0.12183809816719898]","[1,1,1]","[-0.002060381874319685,0.052320627561962846]","[-1,-1,-1]","[0.19227326358600116,0.006538176956977357]","[1,1,1]","[-0.06207008478395184,-0.11294080921750384]","[1,1,1]","[0.11607129856588846,0.02385151115497919]","[-1,-1,-1]","[-0.1030012823220432,0.02412930928401243]","[1,1,1]","[-0.15191391161652903,0.015064174528463781]","[1,1,1]","[0.006020874038424485,0.008718419071192824]","[1,1,1]","[-0.09379822106853687,-0.01921607462872567]","[-1,-1,-1]","[-0.02665461699442175,0.17574419125459986]","[-1,-1,-1]","[0.09296349716231733,0.0738793845018568]","[1,1,1]","[-0.042074751526308254,0.06189240402881972]","[-1,-1,-1]","[-0.1161634535706217,0.0963190163900673]","[1,1,1]","[-0.06824125551060525,-0.17049598180128958]","[-1,-1,-1]","[-0.006607570783259362,-0.052746554304017756]","[1,1,1]","[-0.06952708197893337,0.15453277976757515]","[-1,-1,-1]","[0.11495125199164392,-0.12895067580850061]","[1,1,1]","[0.13072612615031076,0.14003066009772536]","[1,1,1]","[-0.02873588499394866,-0.15696960049881625]","[-1,-1,-1]","[0.14921105652202687,0.07926317864557192]","[-1,-1,-1]","[0.029389143832809127,-0.09190183834976322]","[-1,-1,-1]","[-0.004880146865940498,0.11875662444992259]","[-1,-1,-1]","[0.16135286155328488,-0.0403129278079449]","[-1,-1,-1]","[-0.11691111856287477,-0.1490371817538812]","[1,1,1]","[0.02,0.02]",88.1129,0,7,7,131,1,,,,,,,
,,,,,,,6776648b0449a9e3e0f9e81d,682f1012ddaf00a07d3f65b2,2025-05-22_13h57.58.759,cuing_paradigm_dot,2024.1.5,Win32,59.88023952,682d573fa47f1360d1451895,,,,,,,,,,,88.1139,88.6132,,,88.8523,89.5134,right,0.6554,,,,,,,,,0.1,,,,,,88.6133,88.8523,89.5135,"[0.005164101497763077,-0.0890476240044976]","[1,1,1]","[0.15494276735646526,-0.039125605304189535]","[-1,-1,-1]","[0.008997939747783021,0.05567421722179888]","[-1,-1,-1]","[0.1240018789922847,-0.10793812089256491]","[-1,-1,-1]","[-0.05488267347846396,0.1759200812403099]","[-1,-1,-1]","[0.07224263547157349,-0.02812300035691244]","[-1,-1,-1]","[-0.02987888490958944,-0.01388317433288212]","[-1,-1,-1]","[-0.17570155389065437,-0.08547898170010078]","[-1,-1,-1]","[0.08753651024239564,-0.06591265012661086]","[-1,-1,-1]","[0.020214205135204784,-0.14681847581135102]","[-1,-1,-1]","[0.1707130648108899,0.1020434453586114]","[1,1,1]","[0.02622387340369504,0.14223167752253146]","[-1,-1,-1]","[0.08703937379989957,0.07652878210196518]","[-1,-1,-1]","[-0.020127831969838455,0.15047196233771842]","[-1,-1,-1]","[-0.10213735280506786,-0.1435974796793858]","[-1,-1,-1]","[-0.1331025035610827,-0.06026219338862292]","[-1,-1,-1]","[-0.13525560522507468,0.13710056848464935]","[-1,-1,-1]","[-0.08365622634140732,0.08184746045242654]","[-1,-1,-1]","[-0.11768052198747844,-0.015040413786523939]","[-1,-1,-1]","[-0.19388187816254893,-0.021585178990170553]","[-1,-1,-1]","[0.013126792061786552,-0.044769671748400755]","[-1,-1,-1]","[-0.1315115636471406,0.028033231494047357]","[-1,-1,-1]","[0.046601558700840956,-0.19238200861626314]","[-1,-1,-1]","[0.062010714997898744,0.027418397574549096]","[-1,-1,-1]","[-0.16206674734523996,0.0648165496829287]","[1,1,1]","[-0.03778999672151217,-0.15771491255617803]","[-1,-1,-1]","[0.04415252439375795,-0.11335712560402464]","[-1,-1,-1]","[0.14822353623232487,0.012759634813073517]","[-1,-1,-1]","[-0.10088986021113647,0.16673711719542447]","[-1,-1,-1]","[0.09043645961085002,-0.16878621300096586]","[-1,-1,-1]","[-0.08846966386026273,-0.0991837315356704]","[-1,-1,-1]","[0.003110280699806468,0.18939475685272805]","[-1,-1,-1]","[0.02,0.02]",90.6146,0,8,8,3,1,,,,,,,
,,,,,,,6776648b0449a9e3e0f9e81d,682f1012ddaf00a07d3f65b2,2025-05-22_13h57.58.759,cuing_paradigm_dot,2024.1.5,Win32,59.88023952,682d573fa47f1360d1451895,,,,,,,,,,,90.6154,91.115,,,91.3531,92.3997,right,1.0212,,,,,,,,,0.5,,,,,,91.1151,91.3531,92.3998,"[-0.0673918520723253,0.1843491724267762]","[-1,-1,-1]","[-0.026657978348415795,-0.10370020799853834]","[1,1,1]","[-0.16076840359192862,0.09496545621449932]","[-1,-1,-1]","[0.06461553360866377,-0.1857943102416978]","[-1,-1,-1]","[-0.11308452729615451,-0.003774202097270184]","[-1,-1,-1]","[-0.12566872936942694,0.114462537004753]","[-1,-1,-1]","[0.18981303651672382,-0.0434805924897654]","[1,1,1]","[-0.018071637662410177,0.04829256062511709]","[-1,-1,-1]","[0.07607481420169503,0.1387622635332935]","[1,1,1]","[-0.0989251553583451,-0.08436935246206297]","[-1,-1,-1]","[0.07103395547499249,-0.14429013641464666]","[-1,-1,-1]","[0.10719054600416933,0.04789773040558526]","[-1,-1,-1]","[0.05113397340519334,0.08305281282241196]","[1,1,1]","[0.006667931566675843,0.1912219057489324]","[-1,-1,-1]","[-0.15720771693509214,-0.09550786001688324]","[1,1,1]","[0.10224887465275076,-0.07151611674513982]","[1,1,1]","[0.04238696630558389,0.03820912452717629]","[1,1,1]","[0.01638993736255591,-0.10471622852235427]","[-1,-1,-1]","[-0.16291841369296195,0.004992014470360162]","[-1,-1,-1]","[0.024717879739148123,-0.03409125704423678]","[1,1,1]","[-0.04960211934344396,0.018349774764028035]","[-1,-1,-1]","[0.12518943405015304,0.14088113451360346]","[-1,-1,-1]","[0.08020818555764099,-0.006058094945928413]","[1,1,1]","[-0.009869306073177764,0.14502940415524992]","[1,1,1]","[-0.03314209441900325,-0.1964171732822825]","[-1,-1,-1]","[-0.05125309627242606,-0.03266792686290975]","[1,1,1]","[0.009070205975459164,0.0788271791855152]","[1,1,1]","[0.1610950271135299,0.10639240323187799]","[1,1,1]","[0.14309003282314567,0.01556628770300843]","[1,1,1]","[-0.08969081680648137,-0.13573585176717573]","[1,1,1]","[-0.10703680478336818,0.04858116536754973]","[-1,-1,-1]","[0.16106408932212374,-0.1119032983198384]","[1,1,1]","[0.02,0.02]",93.501,0,9,9,90,1,,,,,,,
,,,,,,,6776648b0449a9e3e0f9e81d,682f1012ddaf00a07d3f65b2,2025-05-22_13h57.58.759,cuing_paradigm_dot,2024.1.5,Win32,59.88023952,682d573fa47f1360d1451895,,,,,,,,,,,93.5022,94.0013,,,94.2392,94.9525,left,0.6859,,,,,,,,,0.9,,,,,,94.0014,94.2391,94.9526,"[-0.049295308206490716,0.05420676342903148]","[1,1,1]","[0.0705393052790938,0.07773402786499624]","[1,1,1]","[-0.027290247984203018,0.09211881476701916]","[1,1,1]","[0.17612213774640953,0.012149940036632865]","[1,1,1]","[0.008950301280750292,-0.12045863314180812]","[1,1,1]","[0.054517996296430095,0.1766761380467048]","[1,1,1]","[0.06436584244608747,-0.18659959162945117]","[1,1,1]","[-0.09655534152808462,-0.006042900461804018]","[-1,-1,-1]","[-0.14199065667959762,-0.00021159091923024463]","[1,1,1]","[-0.1388330569486974,0.13049194870080572]","[1,1,1]","[-0.17248481726309647,-0.10100611932195507]","[1,1,1]","[-0.07035506199140117,-0.15315660875361423]","[1,1,1]","[0.12482976579169971,-0.04889875296953382]","[1,1,1]","[-0.10572812209636133,-0.12368532505602277]","[1,1,1]","[-0.13554959641213288,0.046286221147148324]","[1,1,1]","[-0.1409051067652465,-0.07275253102650964]","[1,1,1]","[-0.03203385764800925,0.13492571179411364]","[1,1,1]","[0.15477503396385592,0.09287829231888772]","[1,1,1]","[0.05151129150774973,-0.0020272674714378355]","[1,1,1]","[0.011223024247120144,0.14433356654452398]","[-1,-1,-1]","[-0.013452703829921904,-0.014459723664207304]","[-1,-1,-1]","[-0.16692840605287973,0.08638244532675109]","[1,1,1]","[0.05851751119789467,-0.05206083282445535]","[1,1,1]","[-0.08223788574896171,-0.06714387436334548]","[1,1,1]","[0.1174127799212438,-0.1599565189886953]","[1,1,1]","[0.11169005465893736,0.0026174349281551205]","[1,1,1]","[-0.09896613505876035,0.16356674031398968]","[1,1,1]","[-0.16545241890413134,-0.03659220732078717]","[1,1,1]","[-0.013466788622389075,-0.05795330282548481]","[1,1,1]","[0.1281077260844643,-0.11872961297123828]","[1,1,1]","[0.08799243829418676,0.12374692880774381]","[1,1,1]","[0.13258059294081528,0.04958618240995235]","[1,1,1]","[0.02,0.02]",96.0534,0,10,10,199,1,,,,,,,
,,,,,,,6776648b0449a9e3e0f9e81d,682f1012ddaf00a07d3f65b2,2025-05-22_13h57.58.759,cuing_paradigm_dot,2024.1.5,Win32,59.88023952,682d573fa47f1360d1451895,,,,,,,,,,,96.0546,96.5539,,,96.8124,97.4048,right,0.5731,,,,,,,,,0.1,,,,,,96.554,96.8124,97.4049,"[-0.004131410043951279,0.006182506893343448]","[-1,-1,-1]","[0.16062197278497717,-0.06622496020357416]","[-1,-1,-1]","[-0.15161365450771666,-0.04405985215247836]","[-1,-1,-1]","[0.11303365520088274,-0.14584620212953098]","[-1,-1,-1]","[-0.12771387962553896,-0.010166193961039908]","[-1,-1,-1]","[0.005248472808525203,0.08196969304767561]","[-1,-1,-1]","[0.026924560585845306,-0.09585131099324849]","[-1,-1,-1]","[0.104072857086915,0.11984454288874025]","[-1,-1,-1]","[0.10039112976002161,0.07749434751893841]","[-1,-1,-1]","[-0.02722667674328652,-0.045916770686542895]","[-1,-1,-1]","[-0.10698488662421617,0.10773606625664409]","[-1,-1,-1]","[-0.03663424058228501,-0.18961981850070828]","[-1,-1,-1]","[-0.042748115281088586,-0.10358016821044787]","[-1,-1,-1]","[0.13129832094651367,-0.016575664825435838]","[-1,-1,-1]","[0.03504755200912217,-0.17425989039458073]","[-1,-1,-1]","[-0.07959946028108114,0.014394111724957701]","[-1,-1,-1]","[0.18604412601966624,-0.01069353132471647]","[-1,-1,-1]","[0.04141833753689893,0.14212750405053706]","[-1,-1,-1]","[-0.010268678013094674,0.16544690208241386]","[1,1,1]","[-0.0775364208917083,-0.07697795453832551]","[1,1,1]","[0.06592553213868071,-0.14350606991930684]","[-1,-1,-1]","[-0.19267213883454906,0.01618096767218433]","[-1,-1,-1]","[0.05127475981222209,0.08969224503726929]","[-1,-1,-1]","[0.09699134079442424,-0.040212879990039564]","[1,1,1]","[-0.11644690403310967,0.032525424256127713]","[-1,-1,-1]","[0.10489584376084284,-0.0826810088057851]","[-1,-1,-1]","[-0.07870202082536663,-0.03491072103481323]","[-1,-1,-1]","[0.07113858532909464,0.011061047959420487]","[-1,-1,-1]","[-0.062227055817034006,0.1137293023939052]","[-1,-1,-1]","[0.017254801551869467,-0.047769277430444644]","[-1,-1,-1]","[0.08690815248560485,0.17043467343348306]","[-1,-1,-1]","[-0.10721001121530632,0.14895326264483832]","[-1,-1,-1]","[0.02,0.02]",98.5058,0,11,11,0,1,,,,,,,
,,,,,,,6776648b0449a9e3e0f9e81d,682f1012ddaf00a07d3f65b2,2025-05-22_13h57.58.759,cuing_paradigm_dot,2024.1.5,Win32,59.88023952,682d573fa47f1360d1451895,,,,,,,,,,,98.5063,99.0063,,,99.2578,99.9573,right,0.6694,,,,,,,,,0.45,,,,,,99.0063,99.2577,99.9573,"[-0.13039953283805672,0.03312050693666583]","[-1,-1,-1]","[0.10842521805148199,0.15577489922888638]","[-1,-1,-1]","[0.17802824498155842,-0.046444700747774154]","[-1,-1,-1]","[-0.1820713337972585,0.0535011475343608]","[1,1,1]","[0.0362535786200635,-0.11720346273509663]","[-1,-1,-1]","[-0.17601538374818299,-0.001250048243962869]","[1,1,1]","[0.08592688783608361,-0.17672797601998583]","[1,1,1]","[-0.07199718593410911,0.025571339281292158]","[-1,-1,-1]","[0.08622733634571658,0.010490138805005487]","[1,1,1]","[0.017649925287157912,-0.17147996888679884]","[-1,-1,-1]","[-0.13562976700405677,0.09148380897022909]","[-1,-1,-1]","[-0.1545039571274287,-0.07542343637944197]","[1,1,1]","[0.12730364418124965,0.1100158159904611]","[-1,-1,-1]","[-0.09699916703459796,-0.15177066274590226]","[-1,-1,-1]","[-0.13810620335676807,-0.12123732892041489]","[1,1,1]","[-0.026702301639985316,0.11122319023442637]","[1,1,1]","[-0.014705813433924962,-0.0413909238683559]","[-1,-1,-1]","[0.16536797274394813,-0.0062704493805150995]","[1,1,1]","[-0.08886318932283653,0.11232751981330642]","[1,1,1]","[0.001270418151012272,0.15759911437881952]","[-1,-1,-1]","[0.13575454162557915,-0.11031078642423424]","[-1,-1,-1]","[0.1715993569612592,-0.0872813146064666]","[1,1,1]","[-0.07770204016676174,0.06750355403572995]","[-1,-1,-1]","[-0.043407963318912265,-0.17041740001461295]","[-1,-1,-1]","[-0.01219597663084568,-0.11321579108455582]","[1,1,1]","[-0.12717009340855776,0.14091184577487226]","[1,1,1]","[0.06258398391932413,-0.031226742236169298]","[-1,-1,-1]","[-0.06876659644464857,-0.10614441966088821]","[-1,-1,-1]","[0.05478402473500371,0.16321578894486344]","[1,1,1]","[0.061991082619177226,0.0653597988957048]","[-1,-1,-1]","[-0.07697067667028988,0.17959309999087622]","[-1,-1,-1]","[0.026052962250777387,0.09556260333543583]","[1,1,1]","[0.02,0.02]",101.0583,0,12,12,74,1,,,,,,,
,,,,,,,6776648b0449a9e3e0f9e81d,682f1012ddaf00a07d3f65b2,2025-05-22_13h57.58.759,cuing_paradigm_dot,2024.1.5,Win32,59.88023952,682d573fa47f1360d1451895,,,,,,,,,,,101.0589,101.559,,,101.8147,102.7768,left,0.9574,,,,,,,,,0.5,,,,,,101.5591,101.8147,102.7768,"[0.1548324707110801,-0.10888523572159894]","[-1,-1,-1]","[-0.1105515442531186,0.02463443618374998]","[1,1,1]","[0.01939999012547308,-0.07444640478519572]","[-1,-1,-1]","[-0.12628826952541702,-0.047866264968447536]","[1,1,1]","[0.011240987008149126,0.09413662843221227]","[-1,-1,-1]","[-0.07670391462108134,-0.14180079689531688]","[1,1,1]","[-0.1409246948317315,0.13083407163012556]","[-1,-1,-1]","[-0.0026246871256442672,0.17658863568405117]","[-1,-1,-1]","[0.028523754565169954,-0.02739230002382544]","[-1,-1,-1]","[-0.13378773263059324,-0.13358036577601048]","[1,1,1]","[-0.04114721551181262,0.13676583635103942]","[1,1,1]","[0.1810995803827681,0.016872293318936787]","[1,1,1]","[0.05158119207701423,-0.12346247768904717]","[1,1,1]","[-0.08969296730312193,0.08773659351784976]","[-1,-1,-1]","[0.14257680342313694,0.07503850797282698]","[-1,-1,-1]","[-0.02714637881525852,-0.06692346628169207]","[1,1,1]","[-0.06798804913669278,-0.0022675274217164496]","[1,1,1]","[-0.03135620264247556,-0.02665561301825198]","[-1,-1,-1]","[0.004372272718449248,-0.11648052688336777]","[-1,-1,-1]","[-0.1333880107732728,0.07576565530683944]","[1,1,1]","[0.054190519031829726,0.10359814422877625]","[-1,-1,-1]","[0.1726528089421336,-0.027287979463402088]","[1,1,1]","[0.11159541216389665,-0.050385254245575745]","[1,1,1]","[-0.15566376953867853,-0.08282046283513837]","[-1,-1,-1]","[-0.02395699826917633,0.06971385887792547]","[-1,-1,-1]","[-0.04511458288019689,-0.175319176605647]","[1,1,1]","[0.042755905632791996,-0.17700725461815808]","[1,1,1]","[0.09985621354934514,0.12197297271831781]","[-1,-1,-1]","[0.0497744817975963,0.16004019774166608]","[1,1,1]","[0.07484103833394516,0.014753819792496436]","[-1,-1,-1]","[-0.18167701726227845,-0.0496974206405813]","[1,1,1]","[0.02771680046732513,0.034696768323717916]","[-1,-1,-1]","[0.02,0.02]",103.878,0,13,13,103,1,,,,,,,
,,,,,,,6776648b0449a9e3e0f9e81d,682f1012ddaf00a07d3f65b2,2025-05-22_13h57.58.759,cuing_paradigm_dot,2024.1.5,Win32,59.88023952,682d573fa47f1360d1451895,,,,,,,,,,,103.8793,104.3787,,,104.6198,105.1297,left,0.497,,,,,,,,,0.9,,,,,,104.3788,104.6198,105.1299,"[0.07805566661228151,0.12018310856625998]","[1,1,1]","[-0.07825383531796888,0.1490046692184521]","[1,1,1]","[-0.08262246568792904,-0.06085256831474668]","[1,1,1]","[-0.02458030271541617,-0.11899696773883305]","[1,1,1]","[-0.102903483763831,-0.1059590902014319]","[1,1,1]","[0.02797037191916704,0.08775997146156213]","[1,1,1]","[-0.13906784345562165,0.004591309046454744]","[1,1,1]","[-0.008279626318508041,-0.07042656712873215]","[1,1,1]","[-0.03557200156698575,-0.021439960678108636]","[1,1,1]","[0.16826710175006993,-0.03819534611922201]","[1,1,1]","[0.15136107651117184,0.12859701660315398]","[-1,-1,-1]","[0.014453336611708698,-0.020000539347515067]","[1,1,1]","[-0.16905406320439464,-0.06955982079144206]","[1,1,1]","[0.07719817222616955,0.01974572098747184]","[1,1,1]","[-0.02148949362216182,0.057816256806109294]","[1,1,1]","[-0.11919543752308405,0.04249525555676852]","[1,1,1]","[-0.11193506214396287,-0.027684507965797255]","[1,1,1]","[-0.18124985597562143,0.019417881633044563]","[-1,-1,-1]","[-0.04738153985424803,0.10636422007160058]","[1,1,1]","[-0.05676066128274408,0.021168032972744635]","[-1,-1,-1]","[-0.00037514913116837084,-0.1514807375653513]","[1,1,1]","[0.12219149131039023,0.08148589109498242]","[1,1,1]","[0.04282468521832703,0.1424892421422772]","[1,1,1]","[0.06033651222733488,-0.06955485379529466]","[1,1,1]","[0.15866034247463798,-0.11029438122789398]","[1,1,1]","[-0.0591029810170319,-0.18596398869033348]","[1,1,1]","[0.12115554598515514,0.009528787010935073]","[1,1,1]","[-0.12081794191892005,0.09391864909970538]","[1,1,1]","[0.017692351286674488,0.18790985470548016]","[1,1,1]","[0.05863922263027447,-0.14958433656404585]","[1,1,1]","[0.06814901976968811,-0.020940955936108917]","[1,1,1]","[0.10117677143192015,-0.1626981378162243]","[1,1,1]","[0.02,0.02]",106.2309,0,14,14,191,1,,,,,,,
,,,,,,,6776648b0449a9e3e0f9e81d,682f1012ddaf00a07d3f65b2,2025-05-22_13h57.58.759,cuing_paradigm_dot,2024.1.5,Win32,59.88023952,682d573fa47f1360d1451895,,,,,,,,,,,106.2325,106.7308,,,106.9893,107.5649,right,0.5675,,,,,,,,,0.1,,,,,,106.7309,106.9893,107.565,"[-0.0821527083111606,-0.15245764879442064]","[-1,-1,-1]","[-0.050364067604094724,-0.014527524178547042]","[-1,-1,-1]","[-0.07878281706600647,-0.047787324165046656]","[-1,-1,-1]","[0.09674859502556774,-0.14586786228338225]","[-1,-1,-1]","[0.01128511485055984,0.14934461115684447]","[-1,-1,-1]","[-0.16797889718285344,0.06473569325071592]","[-1,-1,-1]","[-0.1773960832532449,-0.024194535765240114]","[-1,-1,-1]","[-0.04905178820077481,0.13038265963128734]","[-1,-1,-1]","[-0.006281590423646741,-0.15713853582951406]","[-1,-1,-1]","[0.1652049354038808,-0.07594062518233925]","[-1,-1,-1]","[-0.12192971707818732,-0.14393749794470856]","[-1,-1,-1]","[-0.022872412055833725,-0.09784350626899734]","[-1,-1,-1]","[0.10776816195585852,-0.01933579145083844]","[-1,-1,-1]","[-0.15098048928256874,-0.10555223287283584]","[-1,-1,-1]","[0.1420841785819694,-0.1299056513053515]","[1,1,1]","[-0.008182074505518673,0.059464891648293425]","[-1,-1,-1]","[-0.08067998890417656,0.0878957463032811]","[-1,-1,-1]","[0.15844960270594236,0.05021956924375849]","[-1,-1,-1]","[0.10697277585164668,0.07257824563026505]","[-1,-1,-1]","[0.15114584103932258,0.11894037141968192]","[-1,-1,-1]","[0.045806676541744536,-0.12588633113954184]","[-1,-1,-1]","[0.06229010485017155,-0.1881347329930556]","[-1,-1,-1]","[0.19952659687145755,0.003691827169533344]","[1,1,1]","[-0.10801121429652084,0.017723410510384476]","[-1,-1,-1]","[0.08207429775696166,0.13889965281491398]","[-1,-1,-1]","[0.1544371485375927,-0.009833965786828476]","[-1,-1,-1]","[-0.17674140511576686,0.025473691950241913]","[1,1,1]","[-0.11670811456451821,0.06461451798939569]","[-1,-1,-1]","[0.06880489481923421,0.08624899557494625]","[-1,-1,-1]","[-0.05146624043939514,0.030049843596292623]","[-1,-1,-1]","[0.028524632307229087,0.028369919662217608]","[-1,-1,-1]","[0.0794767570287412,-0.0543487950966688]","[-1,-1,-1]","[0.02,0.02]",108.666,0,15,15,13,1,,,,,,,
,,,,,,,6776648b0449a9e3e0f9e81d,682f1012ddaf00a07d3f65b2,2025-05-22_13h57.58.759,cuing_paradigm_dot,2024.1.5,Win32,59.88023952,682d573fa47f1360d1451895,,,,,,,,,,,108.6675,109.1671,,,109.407,110.4184,left,0.9856,,,,,,,,,0.5,,,,,,109.1673,109.4069,110.4185,"[0.010102794446046821,0.08701426256234682]","[-1,-1,-1]","[-0.08429335315794886,-0.05214886012364851]","[-1,-1,-1]","[-0.1861894398356625,-0.051176194880165525]","[1,1,1]","[0.03595308232159191,-0.13204605920213272]","[1,1,1]","[0.049804468021766406,-0.18171963788018902]","[1,1,1]","[0.13917745095593295,0.0389800859879868]","[1,1,1]","[0.11325314174346106,0.10291383339299624]","[-1,-1,-1]","[0.1249323677345511,-0.08889812837741441]","[-1,-1,-1]","[-0.12786350385529477,0.01425859692149793]","[1,1,1]","[0.1170657633541568,-0.15440932996906495]","[1,1,1]","[0.17031273195838179,-0.041442357963175795]","[1,1,1]","[0.006777439884817573,0.15084223503514665]","[-1,-1,-1]","[-0.030790669612644723,0.014926071422623255]","[1,1,1]","[-0.13305293897857415,0.09606384444387649]","[-1,-1,-1]","[-0.16996943071080173,0.028185665335125263]","[-1,-1,-1]","[-0.08879984491663302,-0.17086887196032785]","[-1,-1,-1]","[-0.017399672427711173,-0.08700110257815721]","[1,1,1]","[-0.12501177641127656,-0.040613621597884196]","[1,1,1]","[0.17415492398274263,-0.0938777327804236]","[1,1,1]","[0.09244886753892828,0.046648056464025284]","[-1,-1,-1]","[-0.04660927524701213,0.055344176405040656]","[-1,-1,-1]","[0.027721958738561477,-0.0773573349330334]","[-1,-1,-1]","[0.08855279773792869,0.14191397632434938]","[1,1,1]","[-0.10725563206631228,-0.1335120517378972]","[-1,-1,-1]","[0.17078325044283332,0.08233898175620323]","[1,1,1]","[0.05308703200299124,0.03645612224840169]","[-1,-1,-1]","[-0.037467588293985075,-0.028927408257784868]","[1,1,1]","[-0.07351236003552981,0.12469291709072156]","[-1,-1,-1]","[-0.08902726839691705,-0.001083759022624193]","[1,1,1]","[0.07677702175766635,0.0858829235959558]","[-1,-1,-1]","[-0.024764590532735574,-0.15281964060225595]","[-1,-1,-1]","[0.18139020992832142,-0.0024338586649940443]","[1,1,1]","[0.02,0.02]",111.5189,0,16,16,112,1,,,,,,,
,,,,,,,6776648b0449a9e3e0f9e81d,682f1012ddaf00a07d3f65b2,2025-05-22_13h57.58.759,cuing_paradigm_dot,2024.1.5,Win32,59.88023952,682d573fa47f1360d1451895,,,,,,,,,,,111.5197,112.0193,,,112.2699,112.9368,left,0.6514,,,,,,,,,0.9,,,,,,112.0195,112.2698,112.9369,"[0.09922453445398052,-0.11523311725970359]","[1,1,1]","[0.02382060037384522,-0.06493499989492758]","[1,1,1]","[0.15853153979968113,-0.049154317099917716]","[1,1,1]","[-0.058002539663922104,-0.007029905406450791]","[1,1,1]","[-0.08735475424798891,0.09212823234979597]","[1,1,1]","[0.10819305762624648,0.038546537590537895]","[-1,-1,-1]","[-0.042178303762526494,-0.12782539336239404]","[-1,-1,-1]","[-0.14684022357713397,-0.06979869101023195]","[1,1,1]","[-0.04711651260876192,0.12573451187601659]","[1,1,1]","[-0.17013600901119813,0.0050520392445367185]","[1,1,1]","[-0.118964933605006,0.14147718389071562]","[1,1,1]","[-0.08173362700494032,-0.14552365234699483]","[1,1,1]","[0.13270657723408966,-0.013062513111987781]","[1,1,1]","[0.057501613250156194,-0.18188413419302243]","[1,1,1]","[-0.09802318795604603,0.006290716201818884]","[1,1,1]","[0.15955928238046085,-0.1068749435413675]","[1,1,1]","[0.1569847048216478,0.05003678369555903]","[1,1,1]","[0.0027043308759848094,0.04519653953640708]","[1,1,1]","[0.003180707530286342,-0.11496276235722849]","[1,1,1]","[0.14766822446469724,0.1330376538875367]","[1,1,1]","[-0.05054673816747544,0.06475021162245365]","[1,1,1]","[-0.14717913998074925,-0.13117394943764976]","[1,1,1]","[0.1676652081561968,0.08865064666414588]","[1,1,1]","[0.022217657006766613,0.15868277927266283]","[1,1,1]","[0.002123803934474016,-0.19241166594518658]","[1,1,1]","[0.08514630342530664,0.0824704776551101]","[1,1,1]","[-0.02089582159301943,0.18878132235030268]","[1,1,1]","[-0.16402565657866125,0.0986185811993627]","[1,1,1]","[-0.09867756565512718,-0.06651394388312966]","[1,1,1]","[-0.13949570369094244,0.06405362253417507]","[1,1,1]","[0.10213352273535299,0.16833682187955834]","[1,1,1]","[0.052402977032083,0.13227106471877065]","[-1,-1,-1]","[0.02,0.02]",114.0388,0,17,17,184,1,,,,,,,
,,,,,,,6776648b0449a9e3e0f9e81d,682f1012ddaf00a07d3f65b2,2025-05-22_13h57.58.759,cuing_paradigm_dot,2024.1.5,Win32,59.88023952,682d573fa47f1360d1451895,,,,,,,,,,,114.0403,114.5387,,,114.7783,115.356,left,0.5699,,,,,,,,,0.9,,,,,,114.5389,114.7782,115.356,"[0.08905328194271502,0.16668822450973125]","[1,1,1]","[-0.013131484835217866,-0.17681573014217208]","[-1,-1,-1]","[-0.10199089455499606,-0.08443501389281094]","[-1,-1,-1]","[0.11399350314665714,0.10040977439518128]","[1,1,1]","[-0.08446254910950797,0.0384775418465165]","[1,1,1]","[0.09482516788092986,-0.03651693251446995]","[1,1,1]","[-0.060530611166419196,-0.06045614359110244]","[1,1,1]","[0.033260921937290557,0.11837521117765602]","[1,1,1]","[-0.13810466706030497,0.12488137714670239]","[1,1,1]","[-0.017957276064631916,0.05562314800331934]","[1,1,1]","[0.00812933034091242,0.02240145149998485]","[1,1,1]","[0.0008119174872089806,-0.12637201788867428]","[1,1,1]","[0.06435331452319094,0.08727996999694268]","[1,1,1]","[0.18849119152719987,0.06271887038988322]","[1,1,1]","[0.04941151106428934,-0.1926830314401719]","[1,1,1]","[0.057018087692719696,-0.1267484662284376]","[1,1,1]","[-0.06729601609371735,0.1467535029903089]","[1,1,1]","[-0.09051548402634922,-0.14628532330464805]","[1,1,1]","[-0.10501947130641714,0.16370144625243688]","[1,1,1]","[-0.17214702756201497,0.06420613956551845]","[1,1,1]","[-0.008855736517459117,0.1745963148010501]","[1,1,1]","[0.1331807128864238,0.02147668834572921]","[1,1,1]","[0.15806768356659687,-0.018386783011316892]","[1,1,1]","[0.01671448745452075,-0.06513578408946383]","[-1,-1,-1]","[-0.15780249872617907,-0.09956580332987539]","[1,1,1]","[-0.138018436804915,-0.024763918275493808]","[1,1,1]","[0.15188428395820966,-0.07021194961340448]","[1,1,1]","[0.106148902608398,-0.1639859775802043]","[1,1,1]","[-0.12014294189333584,0.0651256313543235]","[1,1,1]","[0.026629503254006016,0.06327727794500082]","[1,1,1]","[-0.0662616425905783,0.09218550684553874]","[1,1,1]","[-0.06379747734423405,-0.013592388204046707]","[1,1,1]","[0.02,0.02]",116.4572,0,18,18,186,1,,,,,,,
,,,,,,,6776648b0449a9e3e0f9e81d,682f1012ddaf00a07d3f65b2,2025-05-22_13h57.58.759,cuing_paradigm_dot,2024.1.5,Win32,59.88023952,682d573fa47f1360d1451895,,,,,,,,,,,116.4588,116.9575,,,117.1997,117.709,right,0.4895,,,,,,,,,0.1,,,,,,116.9576,117.1997,117.7091,"[-0.10883437214819679,0.024990418088836043]","[-1,-1,-1]","[-0.03745294913539215,0.12862618053756364]","[-1,-1,-1]","[-0.17426361324056366,-0.016833922604750032]","[-1,-1,-1]","[-0.1698859978838622,0.08335632669999886]","[-1,-1,-1]","[-0.00040057401793943835,0.17265132792947696]","[-1,-1,-1]","[-0.08530629032466594,0.08604380101617592]","[1,1,1]","[-0.11144965659468413,0.12858553996826158]","[-1,-1,-1]","[0.11756115111752108,-0.008294677749504124]","[1,1,1]","[0.05339760919230041,0.16174972432999732]","[1,1,1]","[-0.005572016742234204,0.09622034157978829]","[-1,-1,-1]","[0.036425159694124624,0.07552364118811866]","[-1,-1,-1]","[-0.04437032813844427,-0.07096581006885759]","[-1,-1,-1]","[0.015375694902592742,-0.0028815453898878734]","[-1,-1,-1]","[0.13241766508910602,0.1101830009096364]","[-1,-1,-1]","[0.019736199917152062,-0.11345761463947002]","[-1,-1,-1]","[0.09878479753684306,-0.13054189522030207]","[-1,-1,-1]","[0.07972765522254305,0.06666765714552766]","[-1,-1,-1]","[0.19494021232118122,0.03845036660537981]","[-1,-1,-1]","[-0.1079877782027959,-0.12850014862265954]","[-1,-1,-1]","[0.05348401209399228,-0.04529602234511374]","[-1,-1,-1]","[-0.04523964114766571,0.04484585937682651]","[-1,-1,-1]","[-0.10444851897001102,-0.030928305736566374]","[-1,-1,-1]","[-0.06333373818705805,-0.12333610760374947]","[-1,-1,-1]","[0.009717315227682755,-0.16943370385637765]","[-1,-1,-1]","[0.17461812123167175,-0.055007786399446056]","[-1,-1,-1]","[-0.1394329751734963,0.051097527931326756]","[-1,-1,-1]","[-0.049402194480900795,-0.01823066516421462]","[-1,-1,-1]","[-0.11962332516597304,-0.07166540457261465]","[-1,-1,-1]","[-0.04895202506498733,-0.1910720882219605]","[-1,-1,-1]","[0.05934193992662569,0.10887463146189615]","[-1,-1,-1]","[-0.18188911953409026,-0.07131518587038688]","[-1,-1,-1]","[0.1395741753937678,-0.1061535886426635]","[-1,-1,-1]","[0.02,0.02]",118.8093,0,19,19,23,1,,,,,,,
,,,,,,,6776648b0449a9e3e0f9e81d,682f1012ddaf00a07d3f65b2,2025-05-22_13h57.58.759,cuing_paradigm_dot,2024.1.5,Win32,59.88023952,682d573fa47f1360d1451895,,,,,,,,,,,118.8103,119.3099,,,119.5497,120.3277,left,0.7524,,,,,,,,,0.6,,,,,,119.31,119.5497,120.3279,"[-0.07258168002569748,0.09525527756661531]","[-1,-1,-1]","[-0.12207283588369051,-0.0746305045638724]","[1,1,1]","[-0.017584909762788908,-0.15448551330071575]","[-1,-1,-1]","[0.07417862143941882,0.0982359050975105]","[1,1,1]","[-0.002209944053172772,0.028300103378897525]","[-1,-1,-1]","[-0.12461822607542868,-0.1166002000552733]","[1,1,1]","[-0.14793707914346355,-0.03614211340780397]","[1,1,1]","[0.16927697176700102,-0.0725448594343512]","[1,1,1]","[0.03597568842601577,-0.08414569584340735]","[1,1,1]","[-0.03500559766593374,-0.08374393603624186]","[1,1,1]","[0.040742091175920044,0.007059856202627476]","[-1,-1,-1]","[-0.10572385931546477,0.04900376062965541]","[-1,-1,-1]","[-0.029618209376941127,0.13178167444355848]","[1,1,1]","[0.0015195600189788145,0.09508581047467889]","[1,1,1]","[-0.11720215861418949,0.14059533158821538]","[1,1,1]","[0.08242843668020974,0.014339095330273707]","[-1,-1,-1]","[0.08107409518435267,-0.0886413390165674]","[1,1,1]","[-0.025146092604758325,0.179157636264452]","[-1,-1,-1]","[-0.06742120623466087,-0.15285543726279688]","[-1,-1,-1]","[-0.15358001564914595,0.09632571689397859]","[1,1,1]","[-0.09733698434417376,0.005413029853000637]","[-1,-1,-1]","[-0.000830165308948073,-0.024915409445120877]","[-1,-1,-1]","[0.14310023643618228,0.13279646904189432]","[1,1,1]","[0.15153554026202742,0.07076310560323615]","[-1,-1,-1]","[0.06648952635773447,-0.02605323207572226]","[1,1,1]","[-0.04584605034698803,-0.0053754924320813975]","[1,1,1]","[0.043162919991262476,-0.14593922831117848]","[1,1,1]","[0.13573897191922327,-0.03928743214872481]","[1,1,1]","[0.18239981050471638,-0.011629808558271277]","[1,1,1]","[-0.06500806869144772,0.04135821608504644]","[1,1,1]","[-0.14953269206773057,0.055339032380539825]","[-1,-1,-1]","[0.1132919298700545,-0.16414570016710323]","[-1,-1,-1]","[0.02,0.02]",121.4288,0,20,20,157,1,,,,,,,
,,,,,,,6776648b0449a9e3e0f9e81d,682f1012ddaf00a07d3f65b2,2025-05-22_13h57.58.759,cuing_paradigm_dot,2024.1.5,Win32,59.88023952,682d573fa47f1360d1451895,,,,,,,,,,,121.4298,121.9291,,,122.1801,123.147,right,0.9455,,,,,,,,,0.5,,,,,,121.9291,122.1799,123.1471,"[-0.028859421745801684,0.14346661834043253]","[-1,-1,-1]","[-0.04101970037724278,0.034422873175039496]","[1,1,1]","[-0.02615120847426801,-0.14821750846213586]","[-1,-1,-1]","[-0.1356922418550891,-0.04375260298668245]","[-1,-1,-1]","[-0.0766255128564822,-0.008079491595758312]","[-1,-1,-1]","[0.06506386120662523,0.11547673380516564]","[1,1,1]","[0.014185427761184113,0.01178774500331299]","[-1,-1,-1]","[-0.11222912705659448,-0.1654227822881719]","[1,1,1]","[0.08628087236488437,-0.10372491393489316]","[-1,-1,-1]","[0.08217162134676055,-0.03005804721940999]","[-1,-1,-1]","[-0.05382447400213504,-0.07772425984184984]","[-1,-1,-1]","[0.09546920407627718,0.06341847133220936]","[1,1,1]","[-0.06797454893987201,0.1607406998022767]","[1,1,1]","[-0.10047283718007378,-0.0719273604024294]","[1,1,1]","[-0.016735995166444622,0.1016496691330754]","[1,1,1]","[0.04477429484290997,0.04313943127526831]","[-1,-1,-1]","[0.09654849633364218,-0.14707448264635714]","[1,1,1]","[-0.12532886935330498,0.075351367610649]","[1,1,1]","[0.13821789297381978,-0.10127526927235009]","[-1,-1,-1]","[0.14769176378905727,-0.01320405649963917]","[-1,-1,-1]","[-0.1425214282415369,0.11375877020056667]","[-1,-1,-1]","[0.06649512319190734,-0.06864930717091497]","[1,1,1]","[0.015204736061449195,-0.09506517295886663]","[1,1,1]","[-0.09624029996951101,-0.11822137779339922]","[-1,-1,-1]","[-0.09247447991133145,0.09974428054479967]","[-1,-1,-1]","[0.14504571366288263,0.10376601641820228]","[1,1,1]","[0.18935413211829774,0.054965196299402885]","[-1,-1,-1]","[0.005271715904301681,0.1859642902529365]","[1,1,1]","[0.18745187929001733,-0.06631457099536786]","[-1,-1,-1]","[0.02533924932431576,-0.18127507402564094]","[1,1,1]","[0.04142470722984329,0.1645850946812599]","[1,1,1]","[-0.17206446846144624,0.07027319539436186]","[1,1,1]","[0.02,0.02]",124.2481,0,21,21,108,1,,,,,,,
,,,,,,,6776648b0449a9e3e0f9e81d,682f1012ddaf00a07d3f65b2,2025-05-22_13h57.58.759,cuing_paradigm_dot,2024.1.5,Win32,59.88023952,682d573fa47f1360d1451895,,,,,,,,,,,124.2486,124.749,,,125.0054,125.7997,left,0.7691,,,,,,,,,0.55,,,,,,124.7491,125.0054,125.7997,"[-0.10414335938436806,-0.03724901783823846]","[-1,-1,-1]","[-0.13131930632604866,0.14539829919256092]","[1,1,1]","[0.1281746657703767,-0.08269338729248714]","[1,1,1]","[-0.03214928706681019,0.0668147061942962]","[1,1,1]","[-0.03959555903805716,-0.1781199130699855]","[1,1,1]","[-0.040057316036102096,0.11171953122308671]","[-1,-1,-1]","[-0.027308769244957887,-0.06351700081062299]","[1,1,1]","[0.1294950758122174,-0.004331679036105133]","[1,1,1]","[-0.16387927725417398,-0.10075337353746171]","[1,1,1]","[0.16661602494461908,-0.026383110833956978]","[-1,-1,-1]","[0.14981464740243958,-0.1274873684028416]","[-1,-1,-1]","[-0.18662211114218522,0.03527657563201707]","[1,1,1]","[-0.03422481079171315,0.017476654718284808]","[1,1,1]","[0.06609315108611803,-0.10771675200629965]","[-1,-1,-1]","[0.09050458605324317,0.10982187140090856]","[-1,-1,-1]","[0.10594484211273361,0.14987267231533696]","[1,1,1]","[-0.06349482264811673,0.18119826280434964]","[1,1,1]","[-0.11433289904250628,0.002374899590372263]","[1,1,1]","[0.1459257768552419,0.037489022273023545]","[-1,-1,-1]","[0.054869050778396065,0.16013314311383683]","[1,1,1]","[0.04076228257409337,-0.008662568025971465]","[-1,-1,-1]","[-0.05539791959535214,-0.03216306101395285]","[1,1,1]","[-0.1747032172059576,-0.04562783080706268]","[-1,-1,-1]","[0.07994757404173393,-0.051633642624610315]","[-1,-1,-1]","[-0.11183169663317542,0.09110004421007677]","[-1,-1,-1]","[0.1498010445738912,0.10609161023058558]","[1,1,1]","[-0.17118293981412439,0.08961075771485127]","[-1,-1,-1]","[0.018196174188753217,-0.15871526670461603]","[1,1,1]","[0.09556546015971806,-0.15568294279111092]","[1,1,1]","[-0.010443919590908885,-0.11697485101001531]","[-1,-1,-1]","[-0.1188403656552786,-0.08040029202494606]","[-1,-1,-1]","[0.0035390671690633275,0.13105165525868456]","[1,1,1]","[0.02,0.02]",126.9008,0,22,22,133,1,,,,,,,
,,,,,,,6776648b0449a9e3e0f9e81d,682f1012ddaf00a07d3f65b2,2025-05-22_13h57.58.759,cuing_paradigm_dot,2024.1.5,Win32,59.88023952,682d573fa47f1360d1451895,,,,,,,,,,,126.9019,127.4013,,,127.6519,128.5024,right,0.8344,,,,,,,,,0.45,,,,,,127.4013,127.6517,128.5024,"[-0.0100941942258578,-0.043548341208215095]","[-1,-1,-1]","[0.03655106180772998,-0.16573121131603763]","[1,1,1]","[-0.10377268916635647,-0.11272156267617596]","[-1,-1,-1]","[-0.0979705420457845,0.1274620855542479]","[-1,-1,-1]","[-0.16572591976260354,-0.052616705800227266]","[1,1,1]","[0.1250918653901419,-0.02369990668816678]","[-1,-1,-1]","[-0.1118569180144303,0.057825145487556184]","[1,1,1]","[0.10044186288187301,-0.14666892259804548]","[1,1,1]","[0.03174139480390589,-0.003483353115108976]","[1,1,1]","[0.062224256858422006,0.07688324460812061]","[-1,-1,-1]","[-0.1678871673695352,0.014690837476714735]","[-1,-1,-1]","[-0.056949342733206176,-0.025548598791983523]","[1,1,1]","[-0.018408820270646203,0.13751134445826113]","[-1,-1,-1]","[-0.06382390302600657,-0.14202495550067318]","[1,1,1]","[-0.01410290118655504,-0.17081536842034217]","[1,1,1]","[0.09041805427769978,0.1730411910977128]","[1,1,1]","[-0.016939499711939882,-0.10547793325268183]","[-1,-1,-1]","[-0.07055721211550119,0.09001433324973254]","[-1,-1,-1]","[0.05169948104990994,0.1423125143540085]","[1,1,1]","[-0.11296012058135231,0.01151846164171309]","[-1,-1,-1]","[-0.006029588297789922,0.09265223185314374]","[1,1,1]","[0.14336650816443317,-0.07835391249608475]","[1,1,1]","[0.10481440099663175,0.08127753381100156]","[-1,-1,-1]","[-0.17133057868241036,0.07758623753057076]","[-1,-1,-1]","[0.17691936171137235,0.026812815902755985]","[-1,-1,-1]","[0.06204920799726207,-0.03406758558310103]","[-1,-1,-1]","[-0.06202666632470057,0.0211819410187321]","[-1,-1,-1]","[0.1472739809082627,0.06863450560884814]","[1,1,1]","[0.1455938215914106,0.13240275401235652]","[-1,-1,-1]","[0.06668427679195164,0.029895827533678018]","[1,1,1]","[-0.1403555276939564,0.1149850245473116]","[-1,-1,-1]","[-0.006816062570324596,0.18086598335453577]","[-1,-1,-1]","[0.02,0.02]",129.6034,0,23,23,76,1,,,,,,,
,,,,,,,6776648b0449a9e3e0f9e81d,682f1012ddaf00a07d3f65b2,2025-05-22_13h57.58.759,cuing_paradigm_dot,2024.1.5,Win32,59.88023952,682d573fa47f1360d1451895,,,,,,,,,,,129.6043,130.1044,,,130.3442,130.9218,left,0.5655,,,,,,,,,0.9,,,,,,130.1046,130.3442,130.9221,"[0.12640019521257462,0.09655869712037099]","[1,1,1]","[0.1342492311783361,-0.06256292416508834]","[1,1,1]","[-0.16777659814287954,0.07488516324362973]","[1,1,1]","[-0.03582355271122361,-0.1752675234235938]","[1,1,1]","[-0.10617320872923967,0.11021352288015393]","[1,1,1]","[-0.036870348138719956,-0.0531787930388398]","[-1,-1,-1]","[0.013772236906021466,-0.11996632601283809]","[1,1,1]","[-0.09460332910737752,-0.15623677660903237]","[1,1,1]","[-0.05905539529207943,-0.12502164529640022]","[1,1,1]","[-0.13211820255708978,0.04418072905359877]","[1,1,1]","[0.07197420007451509,0.07320935782440814]","[1,1,1]","[0.143622841200473,0.016553139368696415]","[1,1,1]","[0.07711787932810818,-0.08681485346154466]","[-1,-1,-1]","[-0.029949454046844612,0.07699102024540763]","[1,1,1]","[0.1897916608775598,-0.006055318113397922]","[1,1,1]","[0.04309253667056567,0.1890882082122744]","[1,1,1]","[-0.0852504120941215,0.18072860846214198]","[1,1,1]","[-0.0868372056219426,0.04475564831942251]","[1,1,1]","[0.12516554525330414,0.1535443409135827]","[1,1,1]","[-0.08606495954833142,-0.04586274943929015]","[1,1,1]","[0.09676460034122437,-0.047528349582336045]","[1,1,1]","[0.17580861377782553,-0.05718847770404145]","[1,1,1]","[0.08787279762077851,0.1728306737468189]","[-1,-1,-1]","[-0.04219508274612551,0.01621291415899124]","[1,1,1]","[0.15846689865718377,-0.09866320294478456]","[1,1,1]","[-0.1465859759525466,-0.11435648837537477]","[1,1,1]","[0.17664991146496256,0.08099221594834065]","[1,1,1]","[0.0645634567867123,-0.12700594884753105]","[1,1,1]","[-0.10634884275296372,-0.08990824521192352]","[1,1,1]","[0.021878460701505807,0.05157761937009675]","[1,1,1]","[0.05046415984320192,0.1250859154624009]","[1,1,1]","[0.10976332636222284,-0.11154932094365325]","[1,1,1]","[0.02,0.02]",132.0233,0,24,24,201,1,,,,,,,
,,,,,,,6776648b0449a9e3e0f9e81d,682f1012ddaf00a07d3f65b2,2025-05-22_13h57.58.759,cuing_paradigm_dot,2024.1.5,Win32,59.88023952,682d573fa47f1360d1451895,,,,,,,,,,,132.0251,132.5232,,,132.7773,133.4079,right,0.6041,,,,,,,,,0.1,,,,,,132.5232,132.7773,133.4081,"[-0.0419828764084288,-0.11650432167334929]","[-1,-1,-1]","[-0.028301607284653956,-0.17643062072539856]","[-1,-1,-1]","[-0.10142768538297654,-0.13609942522475607]","[1,1,1]","[0.03163657779376772,-0.1295347444589017]","[-1,-1,-1]","[0.05518203015865622,0.17166611596386672]","[-1,-1,-1]","[-0.17031293025107697,-0.05811959999494728]","[-1,-1,-1]","[0.011161151111448346,-0.02275451192481596]","[-1,-1,-1]","[0.055698579622378785,-0.06599853458419948]","[-1,-1,-1]","[-0.1849504645531869,0.05218776737363615]","[-1,-1,-1]","[-0.09713964611988125,-0.005329142425396948]","[-1,-1,-1]","[0.14381405391447474,-0.059872969513302]","[-1,-1,-1]","[-0.13263644910043496,-0.02903738650907138]","[-1,-1,-1]","[-0.03307849668188459,-0.00917346748141306]","[-1,-1,-1]","[0.16573450063388287,-0.004505864078608625]","[-1,-1,-1]","[0.06728932009668966,0.046287979300994965]","[-1,-1,-1]","[-0.10018467162182502,0.0849908890962679]","[-1,-1,-1]","[-0.1528417236718735,0.023757003136915974]","[-1,-1,-1]","[-0.017181401395248024,0.07678428549015426]","[-1,-1,-1]","[0.1372868865280852,0.10093308475389107]","[1,1,1]","[-0.15187902311465148,0.09542894922086537]","[-1,-1,-1]","[0.16197646089817005,-0.0976532178325685]","[-1,-1,-1]","[-0.075519332671377,0.14813493765466668]","[-1,-1,-1]","[-0.0970519738208098,-0.06638850054023988]","[-1,-1,-1]","[0.02478037983765973,0.11027839432145845]","[-1,-1,-1]","[0.0549637527451106,-0.0031649746132380386]","[-1,-1,-1]","[0.11604543910523928,0.1501516221608872]","[-1,-1,-1]","[-0.068264847575694,0.05802931896995772]","[-1,-1,-1]","[-0.02459822756487344,-0.061763002326853264]","[1,1,1]","[-0.039909889108549,0.18816158288864643]","[-1,-1,-1]","[0.11864221479123115,0.03082436892253955]","[-1,-1,-1]","[0.09158426972487187,-0.14629078526971234]","[-1,-1,-1]","[-0.14427718828636799,-0.0977684597798279]","[-1,-1,-1]","[0.02,0.02]",134.5084,0,25,25,18,1,,,,,,,
,,,,,,,6776648b0449a9e3e0f9e81d,682f1012ddaf00a07d3f65b2,2025-05-22_13h57.58.759,cuing_paradigm_dot,2024.1.5,Win32,59.88023952,682d573fa47f1360d1451895,,,,,,,,,,,134.5093,135.0093,,,135.2599,136.3769,right,1.0938,,,,,,,,,0.5,,,,,,135.0095,135.2597,136.3769,"[-0.024389139391506196,-0.18258917816117737]","[-1,-1,-1]","[0.06416112088336624,-0.10772261410866812]","[1,1,1]","[0.04981811906702521,-0.016998080944026384]","[-1,-1,-1]","[-0.18907322097784293,0.023736381822663445]","[-1,-1,-1]","[-0.07515729055452408,0.021741140124534594]","[1,1,1]","[-0.14727529803126319,0.023660964469939146]","[1,1,1]","[0.10919608752600343,0.05772861971438678]","[-1,-1,-1]","[-0.08559225134804982,0.1320127455497022]","[1,1,1]","[-0.022529538463082366,0.019693725679652285]","[-1,-1,-1]","[-0.08665364569757955,0.17478045856525282]","[-1,-1,-1]","[-0.027187816585594084,0.1772485915551602]","[-1,-1,-1]","[-0.10385127404806806,-0.06993152800529542]","[-1,-1,-1]","[-0.0852535970867235,-0.11574880490214054]","[-1,-1,-1]","[0.06526111668756786,0.14808004506527833]","[1,1,1]","[0.12797458012042148,0.11455854852987203]","[1,1,1]","[-0.0026531385002999666,0.07160811560730512]","[1,1,1]","[-0.10949543377838925,0.09520906723474265]","[-1,-1,-1]","[-0.015049014213281772,-0.08749746536204296]","[-1,-1,-1]","[-0.03763910073510276,-0.044465181058072165]","[-1,-1,-1]","[-0.15854208812414333,-0.11556883877565231]","[1,1,1]","[-0.04596719801410981,0.08236849458980136]","[-1,-1,-1]","[0.02914452527463423,0.044905296833486125]","[1,1,1]","[0.13552810278748811,0.012161512564248949]","[1,1,1]","[-0.13694980140782842,-0.018466654285046357]","[1,1,1]","[0.02515501391255327,-0.16104496353501824]","[1,1,1]","[-0.1559067361409818,0.07539626204501107]","[-1,-1,-1]","[0.06873663859921804,0.06553320764296086]","[-1,-1,-1]","[-0.026339794002020175,-0.12803179127025086]","[1,1,1]","[0.02301889170520568,0.14585637139340515]","[1,1,1]","[0.06869221416115442,-0.05320187164875066]","[1,1,1]","[0.174703151340303,-0.01605593413338316]","[-1,-1,-1]","[0.11077045623974728,0.16104772177596002]","[1,1,1]","[0.02,0.02]",137.478,0,26,26,95,1,,,,,,,
,,,,,,,6776648b0449a9e3e0f9e81d,682f1012ddaf00a07d3f65b2,2025-05-22_13h57.58.759,cuing_paradigm_dot,2024.1.5,Win32,59.88023952,682d573fa47f1360d1451895,,,,,,,,,,,137.4786,137.9784,,,138.219,139.0634,right,0.8311,,,,,,,,,0.4,,,,,,137.9784,138.2189,139.0635,"[0.04336584957545484,-0.17836910888098942]","[-1,-1,-1]","[-0.0420281981953888,-0.1482547320272224]","[-1,-1,-1]","[-0.03775558467766302,0.046319210266899974]","[-1,-1,-1]","[0.11783871208769219,0.09633252103327727]","[1,1,1]","[0.09648259137157562,0.13082067720229573]","[-1,-1,-1]","[-0.08604505189694855,-0.040298322917039095]","[1,1,1]","[-0.04408314961154938,-0.19206238331257958]","[-1,-1,-1]","[-0.14493913754508697,0.03034913656274158]","[1,1,1]","[0.04855921327480479,0.17862947567655443]","[-1,-1,-1]","[0.1745449895092466,0.07151971816915503]","[-1,-1,-1]","[-0.010857245008836553,0.15776890454027698]","[-1,-1,-1]","[-0.07948940359095479,0.07954392349517275]","[1,1,1]","[0.10378909168758393,0.0051957065526704255]","[1,1,1]","[0.07446835923003006,-0.12271931901546924]","[-1,-1,-1]","[-0.1292999923890381,0.0806036339647025]","[-1,-1,-1]","[0.021082816461709373,-0.04391754361277714]","[-1,-1,-1]","[-0.12878146742652208,0.13018644370905072]","[-1,-1,-1]","[-0.1450526946452434,-0.041922880900070576]","[1,1,1]","[0.06443627625780014,-0.010294152259242458]","[-1,-1,-1]","[-0.0330676262250249,-0.02678364608950249]","[1,1,1]","[0.07025867196224254,0.09408689688051339]","[1,1,1]","[-0.0770574192677032,0.007366034717527941]","[-1,-1,-1]","[0.15712230038079644,-0.0124053415959352]","[1,1,1]","[0.0025721634711449687,0.06657661011149063]","[-1,-1,-1]","[-0.13520767550511012,-0.11660688839489018]","[-1,-1,-1]","[-0.007387960738519269,0.11226077740791393]","[1,1,1]","[-0.1895457852464298,-0.055049901645583245]","[1,1,1]","[0.048177631017872556,0.13728444957085115]","[-1,-1,-1]","[0.05521075008125532,0.03837821434634058]","[1,1,1]","[0.11640161941242974,-0.1603101302776495]","[1,1,1]","[-0.003190827022008551,-0.00010745265829371671]","[-1,-1,-1]","[0.07834959829837192,-0.049780626491259666]","[-1,-1,-1]","[0.02,0.02]",140.1643,0,27,27,43,1,,,,,,,
,,,,,,,6776648b0449a9e3e0f9e81d,682f1012ddaf00a07d3f65b2,2025-05-22_13h57.58.759,cuing_paradigm_dot,2024.1.5,Win32,59.88023952,682d573fa47f1360d1451895,,,,,,,,,,,140.1658,140.6645,,,140.9064,142.1161,right,1.1861,,,,,,,,,0.55,,,,,,140.6646,140.9064,142.1162,"[-0.11213719064713742,-0.06502506280819896]","[1,1,1]","[0.09513827440727635,0.0021775607543887397]","[1,1,1]","[0.02997790795809851,-0.0029210790681028546]","[-1,-1,-1]","[-0.005911948637716398,-0.08455771109890049]","[-1,-1,-1]","[-0.019040799175783475,-0.16762982589535777]","[1,1,1]","[-0.12611200711251372,0.026390676043251553]","[-1,-1,-1]","[-0.008805810708281325,-0.04255287862231358]","[-1,-1,-1]","[0.15972255144852546,-0.1000984424996726]","[1,1,1]","[-0.06086244065913037,0.1453758814216535]","[1,1,1]","[-0.06133686021769742,0.02940078532318006]","[-1,-1,-1]","[0.07337909297882168,-0.14235168305727616]","[1,1,1]","[0.015820568945903495,0.07448571118996031]","[1,1,1]","[-0.061649920285706865,0.09274123480482678]","[-1,-1,-1]","[-0.020691112555286325,0.11401534670178898]","[1,1,1]","[-0.059377885878260664,-0.12930697406460306]","[1,1,1]","[0.056082346062353614,0.040859437578367006]","[1,1,1]","[-0.19062430454231452,-0.04953518678382504]","[-1,-1,-1]","[0.04725096802576879,0.16521518795863724]","[-1,-1,-1]","[-0.17974823431243672,0.013644675060585226]","[-1,-1,-1]","[0.1689316637575864,0.07438628704396175]","[1,1,1]","[0.020284250294941006,-0.12385659805533654]","[-1,-1,-1]","[0.05467208041660315,0.10461191424822214]","[-1,-1,-1]","[-0.1127682637527495,0.16473110348076717]","[1,1,1]","[-0.14138207873510034,0.10366917844752041]","[-1,-1,-1]","[0.12056100075261754,0.14917618412474515]","[1,1,1]","[0.07883999282670738,0.14030083879212152]","[1,1,1]","[-0.15435451387412893,-0.08270706735187541]","[1,1,1]","[0.1115289286491701,-0.08391176814284937]","[-1,-1,-1]","[-0.05066715431126094,-0.023095853729446576]","[1,1,1]","[0.12977655463055768,0.05054721877324624]","[1,1,1]","[0.054646006978823256,-0.06397627661842485]","[-1,-1,-1]","[-0.09916172418303051,0.11784618296901786]","[1,1,1]","[0.02,0.02]",143.2259,0,28,28,121,1,,,,,,,
,,,,,,,6776648b0449a9e3e0f9e81d,682f1012ddaf00a07d3f65b2,2025-05-22_13h57.58.759,cuing_paradigm_dot,2024.1.5,Win32,59.88023952,682d573fa47f1360d1451895,,,,,,,,,,,143.2264,143.7177,,,143.9768,144.5852,right,0.5938,,,,,,,,,0.1,,,,,,143.7179,143.9768,144.5852,"[0.06380022879227477,-0.18279152130862353]","[-1,-1,-1]","[-0.1378515835796872,-0.12151299807881552]","[1,1,1]","[-0.11389426328833165,-0.06004564730983645]","[-1,-1,-1]","[-0.03188489942527446,0.06726725809109577]","[-1,-1,-1]","[0.1373823727978549,-0.08901601389044207]","[-1,-1,-1]","[0.03868127207564451,0.056958920271361894]","[-1,-1,-1]","[-0.03108407133199934,-0.13465411188616894]","[-1,-1,-1]","[0.0433714455811898,-0.11021064949442295]","[-1,-1,-1]","[-0.09600402665591348,0.12557119736702954]","[-1,-1,-1]","[0.051917385322288116,-0.03819192235212597]","[-1,-1,-1]","[0.04123375108768464,0.18635362033651162]","[-1,-1,-1]","[-0.09224376738650791,-0.15874444314816324]","[-1,-1,-1]","[0.17614784013567603,-0.02440219229631076]","[-1,-1,-1]","[-0.014711816662668173,-0.19504307751689998]","[1,1,1]","[0.09596164909058229,-0.13541053993817787]","[-1,-1,-1]","[0.011646568598090991,-0.058649273508026366]","[-1,-1,-1]","[-0.09334783195112255,-0.019912791818311605]","[-1,-1,-1]","[0.12705409472531584,0.022592100780459503]","[-1,-1,-1]","[-0.06005277974723909,-0.18468662671582323]","[-1,-1,-1]","[-0.07527945553227713,0.05518529416087242]","[-1,-1,-1]","[-0.05752136749925255,-0.08890772281423448]","[-1,-1,-1]","[0.018889557719032033,0.15296767919347842]","[1,1,1]","[-0.04527761336687109,0.02686009438151657]","[-1,-1,-1]","[-0.12389542281062502,0.01936799227989355]","[-1,-1,-1]","[-0.13347271764829535,0.08009173889333032]","[-1,-1,-1]","[-0.18860952939066125,-0.028427195069125492]","[-1,-1,-1]","[-0.04086000172591397,0.11653045080200798]","[-1,-1,-1]","[0.07564931666829003,0.08933971507003627]","[-1,-1,-1]","[0.15483475757089316,0.053913066670729023]","[-1,-1,-1]","[0.15399731833063102,0.12460852349288631]","[-1,-1,-1]","[-0.18805533335473018,0.020053496057768582]","[-1,-1,-1]","[0.09630014577184932,-0.06616506174280908]","[-1,-1,-1]","[0.02,0.02]",145.6862,0,29,29,15,1,,,,,,,
,,,,,,,6776648b0449a9e3e0f9e81d,682f1012ddaf00a07d3f65b2,2025-05-22_13h57.58.759,cuing_paradigm_dot,2024.1.5,Win32,59.88023952,682d573fa47f1360d1451895,,,,,,,,,,,145.6872,146.1867,,,146.4376,147.071,right,0.6049,,,,,,,,,0.1,,,,,,146.1867,146.4374,147.071,"[-0.12105381960453585,0.06895397948257971]","[1,1,1]","[-0.0894658244712637,-0.07325773770072382]","[-1,-1,-1]","[-0.0657159217918456,0.06827483606330421]","[-1,-1,-1]","[-0.03882829968552629,-0.01873092487454707]","[-1,-1,-1]","[0.06979567643023764,-0.0948673669258839]","[-1,-1,-1]","[-0.12358728378421979,-0.0511161873481091]","[1,1,1]","[-0.024104234414698337,0.1592487787684104]","[-1,-1,-1]","[0.049688538664427316,0.019944770352959943]","[-1,-1,-1]","[-0.1323164790538104,0.008476982672652462]","[-1,-1,-1]","[0.1840104277997168,0.06890409293273717]","[-1,-1,-1]","[0.08957190280983449,0.11233930904020555]","[-1,-1,-1]","[-0.09799762651831305,-0.11417377615989156]","[-1,-1,-1]","[-0.11780031712978539,0.15530866972336924]","[-1,-1,-1]","[-0.07547074648150535,0.00464063100519048]","[-1,-1,-1]","[0.11898374433476328,-0.061519647929787105]","[1,1,1]","[-0.01331890073618036,-0.09931597017304579]","[-1,-1,-1]","[0.12499460953711027,0.08820235641356414]","[-1,-1,-1]","[0.08426431961852114,0.04418820887762376]","[-1,-1,-1]","[0.06013570377084518,-0.13930600302998125]","[-1,-1,-1]","[0.11012004230305095,-0.01725486403238094]","[-1,-1,-1]","[0.027916704695066387,-0.08271141923996095]","[-1,-1,-1]","[0.041807732489240135,-0.19476471810924154]","[-1,-1,-1]","[0.04931965036471418,-0.03936661804347685]","[-1,-1,-1]","[0.17844751616647844,0.012483559325411087]","[-1,-1,-1]","[0.11679388459111467,-0.12889275180071974]","[-1,-1,-1]","[-0.04786858573254335,-0.13462041246088277]","[-1,-1,-1]","[0.045990119786425365,0.17390523153698126]","[-1,-1,-1]","[-0.0343186509417233,-0.18758488445192228]","[-1,-1,-1]","[-0.028881048810827082,0.03868829217785708]","[-1,-1,-1]","[0.1542932707601605,-0.0848469244393162]","[-1,-1,-1]","[-0.04517625930749652,-0.06605050287304144]","[-1,-1,-1]","[0.0031895492661176347,0.07288112159276944]","[-1,-1,-1]","[0.02,0.02]",148.1724,0,30,30,9,1,,,,,,,
,,,,,,,6776648b0449a9e3e0f9e81d,682f1012ddaf00a07d3f65b2,2025-05-22_13h57.58.759,cuing_paradigm_dot,2024.1.5,Win32,59.88023952,682d573fa47f1360d1451895,,,,,,,,,,,148.1736,148.6726,,,148.9302,150.0326,left,1.0857,,,,,,,,,0.5,,,,,,148.6726,148.9302,150.0327,"[-0.02803952768911412,-0.181227356801035]","[-1,-1,-1]","[-0.12924531288367058,-0.15228610436603318]","[-1,-1,-1]","[0.16799843221660146,-0.10402910390758441]","[1,1,1]","[-0.14890498666673588,-0.04745849464489891]","[1,1,1]","[0.16970541366070863,-0.03792070763108211]","[1,1,1]","[-0.16850296567694434,0.043122227883201636]","[-1,-1,-1]","[0.1114952254767174,-0.10590323069921141]","[1,1,1]","[0.0701260771095927,0.1825135199228222]","[1,1,1]","[-0.09731719375114863,-0.0808188892718704]","[-1,-1,-1]","[0.0004909824823233791,0.055360688097948516]","[-1,-1,-1]","[0.06642800392227738,0.13560172051913733]","[1,1,1]","[0.060184444952007796,-0.13723511994560786]","[-1,-1,-1]","[0.09795853029867033,-0.025042371108377193]","[-1,-1,-1]","[-0.10434138923474312,0.020884704226807625]","[-1,-1,-1]","[-0.06499377073805855,0.11247975660135232]","[-1,-1,-1]","[0.0625344229834044,-0.09319153033642931]","[-1,-1,-1]","[-0.1345504416987731,-0.10369099731830242]","[1,1,1]","[0.11972890726256713,0.03235300880090109]","[-1,-1,-1]","[0.0757461550710788,0.0939781356775228]","[-1,-1,-1]","[0.043811492951365785,0.01433238905066137]","[1,1,1]","[-0.07976710374657106,0.17674832975625288]","[1,1,1]","[-0.03088604191802979,0.1349828672683806]","[-1,-1,-1]","[-0.0046063138912802015,-0.030135364347049515]","[-1,-1,-1]","[0.008821869467342893,0.1910044432583486]","[1,1,1]","[0.013611304714437158,-0.14225189364953006]","[1,1,1]","[-0.08521876443102293,-0.04119921130502384]","[1,1,1]","[-0.05884744529084633,-0.1421436168400727]","[-1,-1,-1]","[0.04746834009501867,-0.04937978181886275]","[1,1,1]","[-0.14600519998908915,-0.006760916885194127]","[1,1,1]","[-0.045859472032557434,-0.07617060302776497]","[1,1,1]","[-0.05307263472450378,0.05884211491949422]","[1,1,1]","[0.12615538708659926,0.13129962531480482]","[-1,-1,-1]","[0.02,0.02]",151.1251,0,31,31,101,1,,,,,,,
,,,,,,,6776648b0449a9e3e0f9e81d,682f1012ddaf00a07d3f65b2,2025-05-22_13h57.58.759,cuing_paradigm_dot,2024.1.5,Win32,59.88023952,682d573fa47f1360d1451895,,,,,,,,,,,151.1262,151.6255,,,151.8823,152.7601,left,0.8659,,,,,,,,,0.55,,,,,,151.6255,151.8823,152.7603,"[-0.018547440249986728,-0.12408278297540214]","[1,1,1]","[0.1677660493069799,-0.014960111979458662]","[1,1,1]","[0.08100148327388336,-0.04139828403998068]","[-1,-1,-1]","[0.11999812478418002,0.150940722187749]","[1,1,1]","[0.002493653371508999,0.022565960718918678]","[1,1,1]","[0.07827260843396759,0.09228458772306021]","[-1,-1,-1]","[0.11141952570183535,-0.14529535521454104]","[-1,-1,-1]","[-0.019453333533439875,-0.04230962105529259]","[1,1,1]","[-0.060555346928674515,-0.1376215664178678]","[-1,-1,-1]","[-0.06954913823250686,0.18470379270288503]","[-1,-1,-1]","[-0.01598725741684499,-0.19261237513488955]","[-1,-1,-1]","[0.16717757772810293,-0.09589607278675136]","[-1,-1,-1]","[0.033515641719213875,-0.007169022663558351]","[1,1,1]","[0.07910276375422091,-0.08914490776681135]","[-1,-1,-1]","[0.1342212260465136,0.030219985104360022]","[1,1,1]","[0.012104584815926734,0.19865636388823685]","[1,1,1]","[0.1506746881289759,0.09909010301804286]","[-1,-1,-1]","[-0.13969946986431986,0.028002931301303456]","[-1,-1,-1]","[-0.05433930761457753,-0.09333546878590622]","[1,1,1]","[0.0149718934111746,0.158186951052409]","[-1,-1,-1]","[0.02249461819467207,-0.14298261287290887]","[1,1,1]","[-0.07939582011142653,0.04776567301805401]","[1,1,1]","[-0.08191271667337026,0.1397338497544753]","[1,1,1]","[-0.10201235119560266,-0.01412554886532958]","[-1,-1,-1]","[-0.18397891093771812,0.051417889119240244]","[1,1,1]","[0.014324143215534081,0.0754482268564089]","[1,1,1]","[-0.10972599436581976,-0.14983097697940534]","[1,1,1]","[-0.04828670223510506,-0.0034390872347226115]","[-1,-1,-1]","[-0.15719656740494364,-0.09670539733648925]","[-1,-1,-1]","[-0.15953166330187205,-0.02600418287133905]","[1,1,1]","[0.08243962035967589,-0.00025019349230220454]","[1,1,1]","[0.1289827729724955,-0.04754709932076511]","[1,1,1]","[0.02,0.02]",153.8611,0,32,32,137,1,,,,,,,
,,,,,,,6776648b0449a9e3e0f9e81d,682f1012ddaf00a07d3f65b2,2025-05-22_13h57.58.759,cuing_paradigm_dot,2024.1.5,Win32,59.88023952,682d573fa47f1360d1451895,,,,,,,,,,,153.8624,154.3615,,,154.619,155.58,left,0.953,,,,,,,,,0.5,,,,,,154.3615,154.619,155.5801,"[0.019977203428414962,-0.19296705379364537]","[-1,-1,-1]","[0.05381186225112038,0.02145465387656835]","[-1,-1,-1]","[0.03602758285965702,0.16439380637897014]","[-1,-1,-1]","[-0.02540596083360288,-0.1735475195455482]","[1,1,1]","[-0.19681489235097102,0.0028046226031061667]","[1,1,1]","[0.1242826564092393,0.08837425689578837]","[1,1,1]","[-0.17753263597105987,0.06944157601177597]","[1,1,1]","[-0.03452207550868636,-0.0766547025236233]","[1,1,1]","[0.17883182015898483,-0.07879217760015339]","[1,1,1]","[0.18261468944180323,-0.026919233033261426]","[1,1,1]","[-0.07822417696700702,0.16380988158442314]","[1,1,1]","[0.0982371255772316,-0.12106527043742019]","[-1,-1,-1]","[0.14805650422732156,0.1243835068177427]","[-1,-1,-1]","[0.062355321782436274,-0.1790001815281747]","[1,1,1]","[-0.07629168452290927,0.05421128292465781]","[-1,-1,-1]","[-0.11427198603556749,0.10650016232615267]","[-1,-1,-1]","[0.12455052915822638,0.03311368697521559]","[1,1,1]","[0.00449176679152121,0.04537093088768455]","[-1,-1,-1]","[-0.13058785831404365,-0.02762458508217072]","[1,1,1]","[0.10213143600588666,-0.06387156105583952]","[-1,-1,-1]","[0.1401767406015511,-0.12684511512490282]","[-1,-1,-1]","[-0.06944400878175915,-0.12522142976489842]","[-1,-1,-1]","[0.04688558557389499,-0.09811380479584991]","[1,1,1]","[-0.09346321892025172,-0.16314665327946]","[-1,-1,-1]","[0.04215671679976636,0.08551973469906257]","[-1,-1,-1]","[-0.005401955733900378,0.1393418123862579]","[-1,-1,-1]","[0.16391285106417183,0.05127355686316606]","[-1,-1,-1]","[-0.11329210351799805,-0.10054874819605868]","[1,1,1]","[0.042815583353692455,-0.023669188300106864]","[-1,-1,-1]","[-0.03679954217405548,0.010961437788701999]","[1,1,1]","[0.1332015220372588,-0.017185317876492676]","[1,1,1]","[-0.1254415940010003,0.01310122437621278]","[1,1,1]","[0.02,0.02]",156.6809,0,33,33,109,1,,,,,,,
,,,,,,,6776648b0449a9e3e0f9e81d,682f1012ddaf00a07d3f65b2,2025-05-22_13h57.58.759,cuing_paradigm_dot,2024.1.5,Win32,59.88023952,682d573fa47f1360d1451895,,,,,,,,,,,156.6818,157.181,,,157.4317,158.5327,right,1.069,,,,,,,,,0.45,,,,,,157.181,157.4316,158.5327,"[0.024580799585750664,-0.1446726056423858]","[1,1,1]","[0.0755756599787054,-0.009907471093709014]","[-1,-1,-1]","[-0.058841090908723324,-0.11714049791487076]","[1,1,1]","[0.041229235875816714,-0.03998015601461755]","[-1,-1,-1]","[0.13538078905702686,0.05933182227581791]","[-1,-1,-1]","[0.08709163535485907,-0.1020336545109329]","[1,1,1]","[0.074954089599239,0.15876783302366732]","[1,1,1]","[0.1774244437268442,-0.01714715408068409]","[-1,-1,-1]","[-0.11320141183394959,-0.07672964467863833]","[-1,-1,-1]","[-0.0036041620190262894,0.19244319144895494]","[-1,-1,-1]","[0.09566635745772016,0.07561667101954787]","[-1,-1,-1]","[-0.05992971395485568,0.0906035591918305]","[1,1,1]","[-0.14405445798359146,-0.03245725840868903]","[1,1,1]","[0.14077534784286197,-0.0679042467453861]","[-1,-1,-1]","[0.0251034443731777,0.032563530692717765]","[-1,-1,-1]","[-0.17292212860637435,0.021271685340912092]","[1,1,1]","[0.1359061924497582,-0.13410993023518053]","[-1,-1,-1]","[-0.12306563923871641,-0.13621845162447993]","[1,1,1]","[0.13337179173467092,-0.014815412806677758]","[-1,-1,-1]","[-0.17582118739166872,-0.08685269447119802]","[-1,-1,-1]","[0.03677438811473725,0.09820984366727734]","[-1,-1,-1]","[0.13344592751553755,0.13934549395017465]","[1,1,1]","[0.0639097254012545,-0.16012909726062935]","[-1,-1,-1]","[-0.02701223776318911,-0.05158840541946163]","[1,1,1]","[0.11488328622117368,0.024318260375532832]","[-1,-1,-1]","[-0.024541259620497153,-0.009428103501694955]","[1,1,1]","[-0.007346486290335721,0.08178695259659786]","[1,1,1]","[0.17116172705140106,0.0836884264285696]","[-1,-1,-1]","[-0.01830733716859234,0.1324696293324814]","[-1,-1,-1]","[-0.08044855036028031,-0.030487349854038653]","[1,1,1]","[-0.018622236360858427,-0.16561554908805176]","[-1,-1,-1]","[-0.1841441074054868,-0.032042471283633675]","[1,1,1]","[0.02,0.02]",159.6337,0,34,34,73,1,,,,,,,
,,,,,,,6776648b0449a9e3e0f9e81d,682f1012ddaf00a07d3f65b2,2025-05-22_13h57.58.759,cuing_paradigm_dot,2024.1.5,Win32,59.88023952,682d573fa47f1360d1451895,,,,,,,,,,,159.6348,160.134,,,160.3843,161.5529,left,1.1545,,,,,,,,,0.6,,,,,,160.1341,160.3843,161.5531,"[0.016622982632800116,0.15651527682116484]","[-1,-1,-1]","[-0.058425041618758035,-0.06725679600677839]","[-1,-1,-1]","[-0.039208708016775326,-0.16899846978036825]","[-1,-1,-1]","[0.0201009950532896,-0.025654894796632625]","[1,1,1]","[0.0728895505983356,0.10432303809493698]","[1,1,1]","[0.1718691568987054,0.004988700844173131]","[1,1,1]","[-0.03381808458915267,0.18835331157043692]","[1,1,1]","[-0.09991263224499376,-0.1014711481878131]","[1,1,1]","[0.14052122042048965,0.04990397074424931]","[-1,-1,-1]","[0.07254427636144446,0.015086754319698904]","[1,1,1]","[-0.1653819384976454,0.04720407817047351]","[1,1,1]","[0.13751774685300322,-0.10244086870574876]","[1,1,1]","[-0.07108148593819767,0.09215287891191239]","[-1,-1,-1]","[-0.1125086146729174,-0.03878323220078773]","[1,1,1]","[0.05854497275895347,-0.10664813201753894]","[1,1,1]","[-0.07027892067491184,0.1599150384629943]","[-1,-1,-1]","[0.024439472762634584,0.05235598925002532]","[1,1,1]","[-0.12255100047976486,0.10560513306050372]","[1,1,1]","[0.04680715382770612,-0.06451168732852784]","[-1,-1,-1]","[0.009548298218795182,-0.16307786236689392]","[-1,-1,-1]","[-0.025144872307937226,-0.011969015008485512]","[1,1,1]","[-0.01229281352392714,0.09398457866178198]","[-1,-1,-1]","[-0.03555022311482215,0.13854142074469797]","[1,1,1]","[0.11661322734114453,-0.02938477037546586]","[1,1,1]","[-0.016418369348052627,-0.0849344735404192]","[-1,-1,-1]","[0.053689695050017645,-0.17782155033314753]","[1,1,1]","[0.14271674642773255,0.09721862803786534]","[1,1,1]","[0.08729644177314468,0.17447347836457894]","[1,1,1]","[-0.0979864672336769,0.038023836941399186]","[-1,-1,-1]","[0.18403401957984278,-0.06130584844099581]","[-1,-1,-1]","[-0.17302836508671066,-0.055076775467758965]","[-1,-1,-1]","[0.0056029783040777255,0.19655515026203682]","[1,1,1]","[0.02,0.02]",162.6531,0,35,35,163,1,,,,,,,
,,,,,,,6776648b0449a9e3e0f9e81d,682f1012ddaf00a07d3f65b2,2025-05-22_13h57.58.759,cuing_paradigm_dot,2024.1.5,Win32,59.88023952,682d573fa47f1360d1451895,,,,,,,,,,,162.6539,163.1539,,,163.4103,163.9884,left,0.5649,,,,,,,,,0.9,,,,,,163.154,163.4102,163.9886,"[0.05162250048416608,0.060205202019137316]","[-1,-1,-1]","[0.07135778043535446,-0.16679546189326971]","[1,1,1]","[-0.0907756630054878,-0.09803872426183789]","[1,1,1]","[-0.03314502726280947,0.04908672519395296]","[1,1,1]","[0.1311099551983374,-0.02757208165986548]","[1,1,1]","[-0.00760865421739359,0.13323226481049552]","[1,1,1]","[0.07043535775704236,0.10455920082285135]","[1,1,1]","[-0.03801508519222123,0.16277084828991367]","[1,1,1]","[0.08176991188485432,-0.05876282218501839]","[1,1,1]","[0.05219161668826825,-0.12199743929074532]","[1,1,1]","[-0.1329180258694061,0.004127697048354009]","[1,1,1]","[-0.15641622870613717,-0.10526689584111347]","[1,1,1]","[0.031468957007878794,-0.18622465320098827]","[1,1,1]","[0.18603418402681368,-0.04220109803593237]","[1,1,1]","[0.026010188959482136,-0.009507217259220081]","[1,1,1]","[-0.03114930857438405,-0.15185995610091857]","[1,1,1]","[-0.03334774286203824,-0.0040330800539235935]","[1,1,1]","[0.15148176854322967,0.09764453111437692]","[1,1,1]","[0.12232337507217635,-0.08249843982456533]","[-1,-1,-1]","[-0.14497924116236793,0.09060482380253902]","[1,1,1]","[0.03695322666742047,0.1685851065484289]","[1,1,1]","[0.011343651149586001,-0.11396345825289693]","[1,1,1]","[-0.08600987526218108,0.1447310973935161]","[1,1,1]","[-0.12901827891036036,0.132110437454176]","[1,1,1]","[-0.03974902399305673,-0.11126516628521836]","[1,1,1]","[0.11860788477394156,0.12067164033622023]","[1,1,1]","[0.13717353796024187,-0.12634967946462283]","[-1,-1,-1]","[0.08788802654544624,-0.01905342176412731]","[1,1,1]","[-0.09922606015118697,0.08754558257112022]","[1,1,1]","[-0.1206875252625601,0.04898374389386798]","[1,1,1]","[-0.09351793735139491,-0.16865389716629683]","[1,1,1]","[-0.0547673295683017,-0.04328204533088484]","[1,1,1]","[0.02,0.02]",165.089,0,36,36,181,1,,,,,,,
,,,,,,,6776648b0449a9e3e0f9e81d,682f1012ddaf00a07d3f65b2,2025-05-22_13h57.58.759,cuing_paradigm_dot,2024.1.5,Win32,59.88023952,682d573fa47f1360d1451895,,,,,,,,,,,165.0903,165.5894,,,165.8299,167.1997,right,1.3526,,,,,,,,,0.55,,,,,,165.5895,165.8299,167.1997,"[0.016427058314588752,0.16151113538835524]","[-1,-1,-1]","[-0.11702713307068346,-0.10186394190342386]","[-1,-1,-1]","[0.09926598828845239,0.1728860927862897]","[1,1,1]","[0.023512299759101705,-0.16921406192266597]","[-1,-1,-1]","[0.004559306269291476,0.08333368710427941]","[1,1,1]","[0.099103581588825,0.027553677409976416]","[1,1,1]","[-0.04988615659602356,0.14982213906538355]","[-1,-1,-1]","[-0.12709771429453048,0.06429252639640018]","[1,1,1]","[-0.09039417588822915,0.08630157213921838]","[1,1,1]","[0.05880119324522072,0.0078109538955178645]","[-1,-1,-1]","[0.06944538539977015,-0.06992895131852098]","[1,1,1]","[-0.03378045192520599,0.10659848797157447]","[-1,-1,-1]","[0.0025883668556993555,0.032400548748017906]","[-1,-1,-1]","[-0.005107903770520583,-0.021640458739568956]","[1,1,1]","[0.05661221058072321,-0.1103570438476767]","[1,1,1]","[0.11277303824945036,0.1252117237368842]","[1,1,1]","[-0.0871028446945236,-0.05355020419707893]","[1,1,1]","[0.06596996188681334,0.1503961164086825]","[-1,-1,-1]","[0.027276245282929577,-0.06681089259463781]","[-1,-1,-1]","[0.06625188759389608,-0.15260840601026585]","[-1,-1,-1]","[-0.04195994069537694,-0.05950223402060351]","[-1,-1,-1]","[-0.127660122467016,-0.027817323788595423]","[1,1,1]","[0.05206417037310689,0.06252278282752373]","[1,1,1]","[0.06642790964061167,0.10826222817671104]","[1,1,1]","[-0.09395834995827683,0.15272759732538646]","[1,1,1]","[-0.10940331419578724,-0.15088972845600626]","[-1,-1,-1]","[-0.03221369837801313,-0.15061292646388522]","[1,1,1]","[0.13826942751882224,-0.13610530680535318]","[1,1,1]","[-0.16220243615103286,0.015714517886086313]","[-1,-1,-1]","[-0.08957044055734763,0.009209482412926661]","[1,1,1]","[-0.17655185506810978,-0.052414543919227154]","[-1,-1,-1]","[0.13153842222709466,-0.06332680393174428]","[1,1,1]","[0.02,0.02]",168.2922,0,37,37,120,1,,,,,,,
,,,,,,,6776648b0449a9e3e0f9e81d,682f1012ddaf00a07d3f65b2,2025-05-22_13h57.58.759,cuing_paradigm_dot,2024.1.5,Win32,59.88023952,682d573fa47f1360d1451895,,,,,,,,,,,168.2936,168.7927,,,169.0436,169.6267,left,0.5579,,,,,,,,,0.9,,,,,,168.7928,169.0434,169.6267,"[-0.03226611256334737,-0.1155875389282967]","[-1,-1,-1]","[0.010801234981866198,0.04669823057398435]","[1,1,1]","[0.015312173950337373,0.00037720346399120743]","[1,1,1]","[-0.14830431202768649,0.0537256762641896]","[1,1,1]","[-0.13562059403869672,-0.058407342900632014]","[-1,-1,-1]","[-0.17130027880649293,-0.001894605813650682]","[1,1,1]","[-0.10167922424604314,0.000806333662991008]","[-1,-1,-1]","[-0.08004282723577323,-0.17731847511725438]","[1,1,1]","[-0.15153747907512802,0.10768714923002062]","[1,1,1]","[0.019776785959742593,-0.16371299226322092]","[1,1,1]","[0.17059197347860972,-0.09642359910052178]","[1,1,1]","[0.16646709044727065,0.08640287625881853]","[1,1,1]","[0.07199165790440579,-0.16265549971725043]","[1,1,1]","[0.1436938613803631,0.04519479431058277]","[1,1,1]","[-0.1679526378662234,-0.09445857697922277]","[1,1,1]","[-0.04591694264169275,0.16759286955860686]","[1,1,1]","[-0.10735544005174207,0.09531621206254169]","[1,1,1]","[0.047253509806605164,0.1907459716616494]","[1,1,1]","[-0.006760630986590361,0.194954501551876]","[1,1,1]","[0.04422671098393946,0.13409196115441238]","[1,1,1]","[-0.09145423976498347,-0.07274612779501365]","[1,1,1]","[0.058951219156401106,-0.10005435997764518]","[1,1,1]","[-0.026760557337483115,0.09911546380609737]","[1,1,1]","[-0.056540774756071596,-0.005614155033320954]","[1,1,1]","[0.10959234981034538,0.09287505248406908]","[1,1,1]","[-0.048618302642466894,-0.06755972853318888]","[1,1,1]","[0.06446881177472585,0.0912255128484709]","[1,1,1]","[-0.12724944850915068,-0.1046988679671439]","[1,1,1]","[0.04550949395974762,-0.0439327143905201]","[1,1,1]","[0.11477685001235644,-0.13483965369125553]","[1,1,1]","[-0.19434304532644658,-0.04254235565479305]","[1,1,1]","[-0.007889979481664347,-0.05024650409291243]","[1,1,1]","[0.02,0.02]",170.7277,0,38,38,193,1,,,,,,,
,,,,,,,6776648b0449a9e3e0f9e81d,682f1012ddaf00a07d3f65b2,2025-05-22_13h57.58.759,cuing_paradigm_dot,2024.1.5,Win32,59.88023952,682d573fa47f1360d1451895,,,,,,,,,,,170.7285,171.2284,,,171.485,171.9457,left,0.4556,,,,,,,,,0.9,,,,,,171.2284,171.4849,171.9457,"[0.17825526785809645,0.028295576028541995]","[1,1,1]","[-0.06226366544339742,0.16798667297515943]","[-1,-1,-1]","[0.015349514697556313,0.14561661175393317]","[1,1,1]","[0.1359044262546282,0.045124565626296326]","[1,1,1]","[-0.03996979989666949,-0.17521870998482122]","[1,1,1]","[-0.11906155765420379,0.03208479249575942]","[1,1,1]","[0.07694546964439174,-0.15103063511542222]","[1,1,1]","[-0.020564630766490823,0.026563960432026332]","[1,1,1]","[0.024166953057151854,-0.19668505999787653]","[1,1,1]","[-0.1327010190394205,0.11575549838271992]","[1,1,1]","[0.0864079961723853,0.027502694292800077]","[1,1,1]","[0.004862544282519137,-0.06621986626647322]","[1,1,1]","[0.0776054318501208,0.06703385680592687]","[1,1,1]","[0.024428972261172372,0.19512943368326835]","[1,1,1]","[0.12945655970028158,-0.010245420355754669]","[1,1,1]","[-0.17501630228490722,-0.09381624478227465]","[1,1,1]","[0.08286985263936368,0.13815158475622635]","[-1,-1,-1]","[0.11896596544339907,-0.07049437026873913]","[1,1,1]","[-0.16545615524337737,0.019993375781385412]","[1,1,1]","[-0.08836694255577257,0.12205642122773773]","[1,1,1]","[-0.05438361933607711,-0.022376049492876488]","[1,1,1]","[-0.12149157962759001,-0.14082305304850773]","[1,1,1]","[-0.014975161628533552,0.18781913919112317]","[1,1,1]","[0.018179474276131233,-0.022335137279031973]","[1,1,1]","[0.17897890368586242,-0.08867537670869925]","[1,1,1]","[-0.017468709181767617,-0.11295509364029485]","[-1,-1,-1]","[-0.026667658064906508,0.13717908185313304]","[1,1,1]","[0.026250243111921118,0.03092980470281566]","[1,1,1]","[0.1183476355557541,0.10722073423821732]","[1,1,1]","[-0.10386798586049222,-0.08634592142665705]","[1,1,1]","[0.06359010919523947,-0.029976650965195844]","[1,1,1]","[-0.14819378106910994,0.07014722760476232]","[1,1,1]","[0.02,0.02]",173.0474,0,39,39,180,1,,,,,,,
,,,,,,,6776648b0449a9e3e0f9e81d,682f1012ddaf00a07d3f65b2,2025-05-22_13h57.58.759,cuing_paradigm_dot,2024.1.5,Win32,59.88023952,682d573fa47f1360d1451895,,,,,,,,,,,173.0487,173.5474,,,173.8039,174.482,left,0.6649,,,,,,,,,0.6,,,,,,173.5475,173.8039,174.4822,"[-0.08731819572286365,0.12868925190072134]","[-1,-1,-1]","[0.09756506347270202,-0.12891811716663865]","[1,1,1]","[-0.05447494287966222,-0.06988617857823161]","[-1,-1,-1]","[0.15552498536726928,0.09263925844310793]","[1,1,1]","[0.17902440097604358,-0.00906037492724921]","[1,1,1]","[-0.008652028107214306,-0.16155707076841574]","[1,1,1]","[-0.12853477754644793,0.0342183065936203]","[1,1,1]","[-0.04578105789797513,-0.13043205615607972]","[1,1,1]","[-0.013224337997940308,-0.08656102799091124]","[-1,-1,-1]","[-0.058414638777557315,0.16005490891594754]","[1,1,1]","[0.07132352396813878,0.1812957882956077]","[1,1,1]","[-0.018799731787709814,0.07156431854001266]","[-1,-1,-1]","[0.07755051653902022,-0.1822959584009456]","[1,1,1]","[-0.13774076678726765,0.1048168484852623]","[1,1,1]","[-0.013176994289135916,0.006933711103370099]","[-1,-1,-1]","[-0.07972488526688885,0.04559984912533494]","[-1,-1,-1]","[0.06781634708874931,-0.06381446953430188]","[1,1,1]","[0.05633421699525126,-0.0038070012745663913]","[-1,-1,-1]","[0.033373687647983964,0.03168846760061956]","[-1,-1,-1]","[0.0011477379839976876,-0.03739272253960155]","[1,1,1]","[0.039089496116683026,0.09614707585626629]","[1,1,1]","[0.0977743254748337,0.12029850137412437]","[-1,-1,-1]","[0.1559564377132921,-0.0527686741699307]","[1,1,1]","[-0.15167630883545327,-0.032626925184257485]","[1,1,1]","[-0.1606497970927074,0.00787404857831109]","[-1,-1,-1]","[0.1122355590687513,0.009370026629573558]","[1,1,1]","[-0.09636042672432182,-0.1265779169135463]","[-1,-1,-1]","[0.03057367538035024,-0.17784593524874107]","[1,1,1]","[0.10322402236745097,-0.044038272422021414]","[-1,-1,-1]","[0.14543423172610265,-0.13448243915328228]","[1,1,1]","[-0.09018358047691072,-0.03118663140638622]","[1,1,1]","[0.010661631948101323,-0.12584776245392562]","[-1,-1,-1]","[0.02,0.02]",175.5832,0,40,40,158,1,,,,,,,
,,,,,,,6776648b0449a9e3e0f9e81d,682f1012ddaf00a07d3f65b2,2025-05-22_13h57.58.759,cuing_paradigm_dot,2024.1.5,Win32,59.88023952,682d573fa47f1360d1451895,,,,,,,,,,,175.5848,176.0841,,,176.341,176.9846,right,0.6179,,,,,,,,,0.1,,,,,,176.0845,176.341,176.9848,"[-0.013492122542770494,-0.10116212650127872]","[-1,-1,-1]","[0.021850212010382803,0.02463719296188315]","[1,1,1]","[0.13048078274285532,-0.0772373654452738]","[-1,-1,-1]","[-0.07214807075950781,0.052251091056432754]","[-1,-1,-1]","[-0.0755199305764352,0.012025238328448483]","[-1,-1,-1]","[0.14872504463138905,-0.12734298283278198]","[-1,-1,-1]","[0.03818078606838872,0.18258891655258563]","[-1,-1,-1]","[-0.029384383781230088,0.0040829248567843725]","[-1,-1,-1]","[0.11502689352991231,0.09277151227735105]","[-1,-1,-1]","[0.046403857059445955,0.06924600207780651]","[-1,-1,-1]","[0.13859814317535135,0.1264717107183985]","[-1,-1,-1]","[-0.06063357111990557,-0.09445734099836717]","[-1,-1,-1]","[-0.02364471263168076,0.06784660010777391]","[-1,-1,-1]","[-0.1307994461015613,0.08960468987484808]","[-1,-1,-1]","[0.0813408347754888,0.13073991115544784]","[-1,-1,-1]","[-0.06234162804939325,-0.18772382369667207]","[1,1,1]","[-0.11428917560142783,-0.15794046872294024]","[-1,-1,-1]","[0.17550457514818607,0.04938742844499844]","[-1,-1,-1]","[-0.12606283532988397,-0.009174399574397968]","[-1,-1,-1]","[0.14488612772985401,-0.004997672914457632]","[-1,-1,-1]","[-0.16820418844720883,0.04580523770633125]","[-1,-1,-1]","[-0.02153379075284994,-0.05687576702886733]","[-1,-1,-1]","[-0.12408926597827558,-0.05241764920594839]","[-1,-1,-1]","[0.06172499511615981,-0.03846596658723035]","[-1,-1,-1]","[0.05959423437813213,-0.08093568308493822]","[-1,-1,-1]","[-0.001879758259601994,-0.19052298883351765]","[-1,-1,-1]","[-0.08142034025441314,-0.03663800834453144]","[-1,-1,-1]","[-0.044749836008073265,-0.1429908121563368]","[1,1,1]","[-0.02975576204693107,0.17141203958730145]","[-1,-1,-1]","[-0.17279176833379273,-0.05753122954009499]","[-1,-1,-1]","[0.16596006704214217,-0.03927240599221499]","[-1,-1,-1]","[0.1675728257741467,0.09262037417747004]","[-1,-1,-1]","[0.02,0.02]",178.0858,0,41,41,16,1,,,,,,,
,,,,,,,6776648b0449a9e3e0f9e81d,682f1012ddaf00a07d3f65b2,2025-05-22_13h57.58.759,cuing_paradigm_dot,2024.1.5,Win32,59.88023952,682d573fa47f1360d1451895,,,,,,,,,,,178.0872,178.5862,,,178.8278,179.7369,right,0.8927,,,,,,,,,0.55,,,,,,178.5864,178.8278,179.7371,"[0.1547224145147764,0.0861681671553776]","[1,1,1]","[-0.1370061498149695,-0.09910173958055257]","[-1,-1,-1]","[0.11251877494756864,-0.07459513333158264]","[-1,-1,-1]","[-0.1144564554280362,0.056956456871183586]","[-1,-1,-1]","[0.11179402779561355,0.07871720349139465]","[1,1,1]","[-0.14546557824228756,-0.01676733917670587]","[-1,-1,-1]","[-0.03971266691870359,0.016423394755000268]","[1,1,1]","[0.06332736313183725,0.09463423055205063]","[1,1,1]","[0.07454544654157944,-0.06016417595173523]","[1,1,1]","[0.14780664233090374,0.02128176691055635]","[1,1,1]","[0.19277012967774812,-0.027977614648752206]","[-1,-1,-1]","[-0.049117554943131095,-0.1057757233784172]","[1,1,1]","[0.1411710268205574,-0.04402877246584623]","[1,1,1]","[-0.0086518336090509,0.117480855529829]","[-1,-1,-1]","[-0.08906122263620433,0.10809982539190105]","[1,1,1]","[-0.07285160256416158,0.16383598602198132]","[-1,-1,-1]","[0.1639106853428937,-0.08493415952752505]","[1,1,1]","[-0.1931032328934491,-0.02662242125889106]","[-1,-1,-1]","[-0.01042380235812558,0.05412820230680651]","[-1,-1,-1]","[0.0015499072745112743,-0.03244841071301747]","[1,1,1]","[-0.015544752095968393,0.16982266711270652]","[1,1,1]","[-0.009245589838056793,-0.13008723290980373]","[-1,-1,-1]","[0.12583827260140515,-0.1166571134416191]","[-1,-1,-1]","[0.18698235146123368,0.03654137203199275]","[1,1,1]","[-0.11391822729552666,0.15131468884084995]","[1,1,1]","[-0.17371352383817834,0.05539502594082492]","[1,1,1]","[0.01330977587259723,-0.18192704066499513]","[1,1,1]","[0.03732944799454767,0.1834782446672336]","[1,1,1]","[-0.07376630610981605,-0.04436622427358487]","[-1,-1,-1]","[-0.06589693580978742,0.05178454758497692]","[1,1,1]","[-0.0887190010623466,-0.17507117842205044]","[-1,-1,-1]","[0.05983230687618472,0.13450147016199923]","[-1,-1,-1]","[0.02,0.02]",180.8379,0,42,42,128,1,,,,,,,
,,,,,,,6776648b0449a9e3e0f9e81d,682f1012ddaf00a07d3f65b2,2025-05-22_13h57.58.759,cuing_paradigm_dot,2024.1.5,Win32,59.88023952,682d573fa47f1360d1451895,,,,,,,,,,,180.8385,181.3383,,,181.5956,182.2227,right,0.6064,,,,,,,,,0.1,,,,,,181.3384,181.5955,182.2228,"[0.03325952411086867,0.030246284649916168]","[-1,-1,-1]","[-0.07790445752342984,0.16666221920266205]","[-1,-1,-1]","[0.16567440633635816,0.0412412716840792]","[-1,-1,-1]","[0.07936244415934787,0.13454978548364283]","[-1,-1,-1]","[-0.10432152215169994,-0.13856470570109267]","[-1,-1,-1]","[-0.005294033692460005,0.01909550024607178]","[-1,-1,-1]","[-0.1647841536091652,0.0960989677027077]","[-1,-1,-1]","[-0.06398576296854963,-0.1503998961686653]","[-1,-1,-1]","[-0.025579817199775205,-0.060586388967704234]","[-1,-1,-1]","[-0.12617923922072063,-0.07461824253615208]","[-1,-1,-1]","[0.11605118357268186,-0.13774299417487587]","[-1,-1,-1]","[0.09488547513881518,-0.045222502095571056]","[-1,-1,-1]","[-0.015075867044395674,-0.11268177406535143]","[-1,-1,-1]","[-0.07095150294779885,0.047548775979728876]","[-1,-1,-1]","[0.14550221771033614,-0.0052345271117295086]","[1,1,1]","[0.03711052164480431,-0.02051593177701822]","[-1,-1,-1]","[-0.0803192524495116,-0.03712478059926174]","[-1,-1,-1]","[0.03155531890915183,-0.07902545434531766]","[1,1,1]","[0.07296287895598122,0.0009824250545991465]","[1,1,1]","[0.032145912160987056,0.17970897696767038]","[-1,-1,-1]","[-0.1821642379088482,-0.013041581979645224]","[-1,-1,-1]","[0.0684850682932694,-0.14768204630499568]","[-1,-1,-1]","[-0.028866312835445353,0.10312710382210181]","[-1,-1,-1]","[0.06819394980065481,0.06450883591393079]","[-1,-1,-1]","[-0.18359698856422002,0.05075178978784144]","[-1,-1,-1]","[-0.03165591631536701,-0.013545484905031534]","[-1,-1,-1]","[-0.12187153174772743,0.07021522404429768]","[-1,-1,-1]","[-0.006421259240584505,-0.1901358467333067]","[-1,-1,-1]","[-0.07408109400447596,-0.11025202059531128]","[-1,-1,-1]","[0.11500330482010035,0.06165350082037431]","[-1,-1,-1]","[0.1425683396794947,-0.05748111911353578]","[-1,-1,-1]","[0.028375459710470917,-0.1679940038303845]","[-1,-1,-1]","[0.02,0.02]",183.3239,0,43,43,7,1,,,,,,,
,,,,,,,6776648b0449a9e3e0f9e81d,682f1012ddaf00a07d3f65b2,2025-05-22_13h57.58.759,cuing_paradigm_dot,2024.1.5,Win32,59.88023952,682d573fa47f1360d1451895,,,,,,,,,,,183.3247,183.8245,,,184.0655,184.992,right,0.9017,,,,,,,,,0.45,,,,,,183.8247,184.0654,184.992,"[0.040006593986581275,0.0020858916956753414]","[1,1,1]","[0.17092405494601043,-0.06548521401292576]","[-1,-1,-1]","[-0.038137143666723716,0.13199283264225958]","[-1,-1,-1]","[0.16428782741890485,0.05763418744239178]","[1,1,1]","[0.12107065916462338,-0.011218813406986123]","[1,1,1]","[-0.05756014639465769,-0.010187309909153843]","[-1,-1,-1]","[-0.1226335297882354,0.1285507362745765]","[-1,-1,-1]","[0.10149990478755175,-0.13247288548178346]","[1,1,1]","[0.08193158435980326,-0.02458284696020193]","[-1,-1,-1]","[-0.005479118865586114,0.0949386037178168]","[1,1,1]","[0.13249402573074953,0.14194877743906878]","[1,1,1]","[-0.03624055445670304,0.17623941510562688]","[-1,-1,-1]","[-0.031558572885124404,-0.10842312026640626]","[1,1,1]","[0.07753100575892359,-0.07649669355309843]","[-1,-1,-1]","[0.10004149998869785,0.03866267860831527]","[1,1,1]","[-0.09540139925696985,0.03127692403871733]","[-1,-1,-1]","[-0.08447831731283134,-0.04832845838646565]","[1,1,1]","[0.04212702639465031,0.16373798234424378]","[1,1,1]","[-0.17248585208348885,-0.03855016386969678]","[-1,-1,-1]","[-0.1709329239672062,0.011489419444336891]","[1,1,1]","[0.03634576278168757,-0.04615689234879959]","[-1,-1,-1]","[-0.13339832991427814,-0.012754506643727036]","[-1,-1,-1]","[0.13361583843602312,-0.08370526916384052]","[1,1,1]","[-0.08077169073529503,0.10335295834401634]","[-1,-1,-1]","[-0.014788488638800496,-0.15563743214449993]","[1,1,1]","[-0.13652853700350737,-0.08030819098013847]","[-1,-1,-1]","[-0.07143627855917574,-0.17163824293522334]","[-1,-1,-1]","[0.017613431702213894,0.035258092943748195]","[1,1,1]","[0.12018854526417434,0.09506067167973373]","[-1,-1,-1]","[-0.034768010915051814,-0.19666254180616233]","[-1,-1,-1]","[0.037988331524927914,-0.13149196782954342]","[-1,-1,-1]","[-0.13534072728896668,0.0768101158666808]","[-1,-1,-1]","[0.02,0.02]",186.0934,0,44,44,80,1,,,,,,,
