right,left,explain.started,explain.stopped,key_resp_3.keys,key_resp_3.rt,key_resp_3.duration,participant,session,date,expName,psychopyVersion,OS,frameRate,study_id,explain_2.started,explain_2.stopped,key_resp_4.keys,key_resp_4.rt,key_resp_4.duration,explain_3.started,explain_3.stopped,key_resp_5.keys,key_resp_5.rt,key_resp_5.duration,fixation.started,fixation.stopped,practice.started,practice.stopped,response.started,response.stopped,key_resp.keys,key_resp.rt,key_resp.duration,feedback.started,feedback.stopped,trials_2.thisRepN,trials_2.thisTrialN,trials_2.thisN,trials_2.thisIndex,trials_2.ran,white_ratio,explain_4.started,explain_4.stopped,key_resp_6.keys,key_resp_6.rt,key_resp_6.duration,dotDisplay.started,dotDisplay.stopped,ITI.started,polygon_1.pos,polygon_1.color,polygon_2.pos,polygon_2.color,polygon_3.pos,polygon_3.color,polygon_4.pos,polygon_4.color,polygon_5.pos,polygon_5.color,polygon_6.pos,polygon_6.color,polygon_7.pos,polygon_7.color,polygon_8.pos,polygon_8.color,polygon_9.pos,polygon_9.color,polygon_10.pos,polygon_10.color,polygon_11.pos,polygon_11.color,polygon_12.pos,polygon_12.color,polygon_13.pos,polygon_13.color,polygon_14.pos,polygon_14.color,polygon_15.pos,polygon_15.color,polygon_16.pos,polygon_16.color,polygon_17.pos,polygon_17.color,polygon_18.pos,polygon_18.color,polygon_19.pos,polygon_19.color,polygon_20.pos,polygon_20.color,polygon_21.pos,polygon_21.color,polygon_22.pos,polygon_22.color,polygon_23.pos,polygon_23.color,polygon_24.pos,polygon_24.color,polygon_25.pos,polygon_25.color,polygon_26.pos,polygon_26.color,polygon_27.pos,polygon_27.color,polygon_28.pos,polygon_28.color,polygon_29.pos,polygon_29.color,polygon_30.pos,polygon_30.color,polygon_31.pos,polygon_31.color,polygon_32.pos,polygon_32.color,dot_size,ITI.stopped,trials.thisRepN,trials.thisTrialN,trials.thisN,trials.thisIndex,trials.ran,break_2.started,break_2.stopped,trials_3.thisRepN,trials_3.thisTrialN,trials_3.thisN,trials_3.thisIndex,trials_3.ran
subject chose black,subject chose white,0.0002,82.4028,space,67.3677,,677e4656af6e5525f72fc926,682f0ff2efe88415bdb38bf8,2025-05-22_12h57.56.779,cuing_paradigm_dot,2024.1.5,Win32,60.24096386,682d573fa47f1360d1451895,,,,,,,,,,,,,,,,,,,,,,,,,,,,,,,,,,,,,,,,,,,,,,,,,,,,,,,,,,,,,,,,,,,,,,,,,,,,,,,,,,,,,,,,,,,,,,,,,,,,,,,,,,,,,,,,,
,,,,,,,677e4656af6e5525f72fc926,682f0ff2efe88415bdb38bf8,2025-05-22_12h57.56.779,cuing_paradigm_dot,2024.1.5,Win32,60.24096386,682d573fa47f1360d1451895,82.4045,115.7334,space,3.3162,,,,,,,,,,,,,,,,,,,,,,,,,,,,,,,,,,,,,,,,,,,,,,,,,,,,,,,,,,,,,,,,,,,,,,,,,,,,,,,,,,,,,,,,,,,,,,,,,,,,,,,,,,,,,
,,,,,,,677e4656af6e5525f72fc926,682f0ff2efe88415bdb38bf8,2025-05-22_12h57.56.779,cuing_paradigm_dot,2024.1.5,Win32,60.24096386,682d573fa47f1360d1451895,,,,,,115.7349,119.4589,space,0.7127,,,,,,,,,,,,,,,,,,,,,,,,,,,,,,,,,,,,,,,,,,,,,,,,,,,,,,,,,,,,,,,,,,,,,,,,,,,,,,,,,,,,,,,,,,,,,,,,,,,,,,,,
,,,,,,,677e4656af6e5525f72fc926,682f0ff2efe88415bdb38bf8,2025-05-22_12h57.56.779,cuing_paradigm_dot,2024.1.5,Win32,60.24096386,682d573fa47f1360d1451895,,,,,,,,,,,119.5501,119.9703,119.9718,120.2054,120.2061,121.384,left,1.1194,,121.3855,122.4805,0,0,0,0,1,0.8,,,,,,,,,,,,,,,,,,,,,,,,,,,,,,,,,,,,,,,,,,,,,,,,,,,,,,,,,,,,,,,,,,,,,,,,,,,,,,,,,,,,,,
,,,,,,,677e4656af6e5525f72fc926,682f0ff2efe88415bdb38bf8,2025-05-22_12h57.56.779,cuing_paradigm_dot,2024.1.5,Win32,60.24096386,682d573fa47f1360d1451895,,,,,,,,,,,122.4836,122.9783,122.9786,123.23,123.2304,123.5815,right,0.3445,,123.5817,124.6741,0,1,1,1,1,0.2,,,,,,,,,,,,,,,,,,,,,,,,,,,,,,,,,,,,,,,,,,,,,,,,,,,,,,,,,,,,,,,,,,,,,,,,,,,,,,,,,,,,,,
,,,,,,,677e4656af6e5525f72fc926,682f0ff2efe88415bdb38bf8,2025-05-22_12h57.56.779,cuing_paradigm_dot,2024.1.5,Win32,60.24096386,682d573fa47f1360d1451895,,,,,,,,,,,,,,,,,,,,,,,,,,,,124.6761,128.3323,space,0.6409,,,,,,,,,,,,,,,,,,,,,,,,,,,,,,,,,,,,,,,,,,,,,,,,,,,,,,,,,,,,,,,,,,,,,,,,,,,,,,,,,,
,,,,,,,677e4656af6e5525f72fc926,682f0ff2efe88415bdb38bf8,2025-05-22_12h57.56.779,cuing_paradigm_dot,2024.1.5,Win32,60.24096386,682d573fa47f1360d1451895,,,,,,,,,,,128.3772,128.8461,,,129.0997,129.4625,right,0.3507,,,,,,,,,0.45,,,,,,128.8478,129.0996,129.4646,"[-0.13763403318589695,0.03785493190485914]","[-1,-1,-1]","[-0.08172956848384431,0.06342731667339002]","[1,1,1]","[0.042978192266537985,0.16672433776537698]","[1,1,1]","[-0.05346386641341927,-0.1539123587852631]","[1,1,1]","[0.041210658438385506,-0.18792156879886954]","[-1,-1,-1]","[0.07345264929729681,0.08768304456958577]","[-1,-1,-1]","[-0.060386490158397844,-0.08078447059408997]","[1,1,1]","[-0.005678639401205611,-0.1312184953021097]","[1,1,1]","[0.030681219832305182,0.1227288289129404]","[-1,-1,-1]","[0.18807054336345824,-0.05339484501652434]","[-1,-1,-1]","[-0.11082286404189422,-0.012410876655406087]","[1,1,1]","[-0.12417567189586783,-0.11148704494273518]","[-1,-1,-1]","[0.19363817097502947,0.027381650893475922]","[1,1,1]","[0.09586861038790472,0.15518338021067196]","[-1,-1,-1]","[0.06837128732673058,-0.11464810436775535]","[1,1,1]","[-0.028234277205237454,0.08650072003761453]","[-1,-1,-1]","[-0.11962855056968982,0.15235031313971173]","[-1,-1,-1]","[-0.14000081137941323,-0.07131148811636652]","[-1,-1,-1]","[0.01299705888530235,-0.06128380053632397]","[1,1,1]","[-0.11415802477531391,0.08753779428279897]","[-1,-1,-1]","[-0.08819784194673624,-0.129586411516056]","[1,1,1]","[0.07188111967912154,-0.06748396063354273]","[-1,-1,-1]","[0.13888043300506914,0.1013731817299284]","[1,1,1]","[0.15066391347968844,-0.08925155089696002]","[1,1,1]","[0.06915610669793695,0.013292554421471134]","[-1,-1,-1]","[0.027968741509886937,0.028026855724894374]","[1,1,1]","[0.09448356918846647,-0.17357922916044036]","[-1,-1,-1]","[-0.07818402513169297,0.022285336512159408]","[-1,-1,-1]","[-0.07775643731808728,0.1447224690724173]","[1,1,1]","[-0.18533536272634357,-0.07009604691662455]","[-1,-1,-1]","[0.14909461090332893,0.03816027779731252]","[-1,-1,-1]","[0.1299561641216565,-0.04006416271296415]","[-1,-1,-1]","[0.02,0.02]",130.5631,0,0,0,83,1,,,,,,,
,,,,,,,677e4656af6e5525f72fc926,682f0ff2efe88415bdb38bf8,2025-05-22_12h57.56.779,cuing_paradigm_dot,2024.1.5,Win32,60.24096386,682d573fa47f1360d1451895,,,,,,,,,,,130.5668,131.0571,,,131.3122,131.6226,right,0.3015,,,,,,,,,0.5,,,,,,131.0572,131.3122,131.6228,"[-0.05478769214134961,0.060761786855382895]","[1,1,1]","[-0.17230550647684997,-0.09904085902061029]","[1,1,1]","[0.18905831871019563,-0.04401335677302772]","[-1,-1,-1]","[0.09632089146595825,-0.09212188420706097]","[1,1,1]","[0.11775630378786225,-0.15710254339652244]","[-1,-1,-1]","[-0.05864277585663083,0.15130355820201946]","[-1,-1,-1]","[-0.13665862127665407,0.004705282555453617]","[1,1,1]","[0.14894647831249974,0.05727023950146945]","[-1,-1,-1]","[0.1353893424147223,-0.11265972941295395]","[1,1,1]","[0.05929857684792503,-0.02557505517759165]","[-1,-1,-1]","[-0.1384002129703057,0.10219134075487454]","[-1,-1,-1]","[0.057651310398817816,0.01493549017854167]","[-1,-1,-1]","[-0.1202737510702485,-0.1271393223817904]","[-1,-1,-1]","[-0.04951757899491165,-0.06188747072125021]","[1,1,1]","[-0.052241686605991336,-0.1290272965878508]","[-1,-1,-1]","[0.0025179705629014464,-0.1474590724422109]","[-1,-1,-1]","[-0.14246697715780962,0.04614164862628405]","[1,1,1]","[-0.028115710260637403,0.11539416019985148]","[-1,-1,-1]","[0.1348599783805032,0.12799085216040076]","[1,1,1]","[0.1447811070105898,-0.053361734770119795]","[-1,-1,-1]","[0.03554306302194865,-0.0868552726321499]","[-1,-1,-1]","[-0.10876962398888826,-0.0496639191544888]","[1,1,1]","[-0.004542094969724901,-0.061593546581978735]","[-1,-1,-1]","[0.02757026289791061,0.14046040644209934]","[1,1,1]","[0.09182441674416016,0.14453910137669634]","[1,1,1]","[0.024767391393219214,0.07291104976554479]","[1,1,1]","[0.10517187076033624,0.06583370468329705]","[1,1,1]","[-0.18515537359203837,0.0314815068249836]","[1,1,1]","[-0.0878745584569668,-0.0052801628696844734]","[1,1,1]","[0.00116528775725803,-0.005722987288675044]","[-1,-1,-1]","[0.11485619497041119,-0.02405471910969378]","[-1,-1,-1]","[-0.021215226277192755,-0.10007428567633216]","[1,1,1]","[0.02,0.02]",132.7191,0,1,1,97,1,,,,,,,
,,,,,,,677e4656af6e5525f72fc926,682f0ff2efe88415bdb38bf8,2025-05-22_12h57.56.779,cuing_paradigm_dot,2024.1.5,Win32,60.24096386,682d573fa47f1360d1451895,,,,,,,,,,,132.7207,133.2179,,,133.4696,134.0524,left,0.5758,,,,,,,,,0.45,,,,,,133.218,133.4692,134.0529,"[-0.1502876467239181,0.0413159408184708]","[-1,-1,-1]","[-0.05949104680869615,-0.14548729050096015]","[1,1,1]","[-0.05544443867785775,-0.054639589122232296]","[-1,-1,-1]","[0.018852609266669883,-0.12250967213469828]","[1,1,1]","[-0.004662493725507004,0.08461345097638993]","[-1,-1,-1]","[-0.02915885670225301,-0.08842247179279658]","[-1,-1,-1]","[-0.007761455814001827,-0.16446591466484992]","[1,1,1]","[-0.07685449280502411,-0.007808125090151589]","[1,1,1]","[0.15796786413800157,0.0284193392224381]","[1,1,1]","[-0.1768917658227226,0.08428323582909605]","[1,1,1]","[0.12083565744081202,-0.03733705386150259]","[1,1,1]","[0.07668544953534816,0.11812191581762066]","[-1,-1,-1]","[-0.18789245469688517,-0.006457960212580905]","[-1,-1,-1]","[0.03280475953821254,-0.022438224430450283]","[-1,-1,-1]","[0.04887665366145159,0.166327294778401]","[-1,-1,-1]","[-0.06679025615629453,0.09805667682131171]","[1,1,1]","[-0.12548083105237712,-0.054622593834868755]","[1,1,1]","[-0.07604580800472333,0.14524253310454935]","[-1,-1,-1]","[0.058515172265197445,-0.19025801338223186]","[-1,-1,-1]","[0.018965301737624726,0.025118617473352915]","[1,1,1]","[-0.10995687196064419,0.07921658186615686]","[1,1,1]","[0.000692654926840586,0.1583882799212012]","[-1,-1,-1]","[-0.08581055931503134,0.034345573110937076]","[1,1,1]","[0.05082879852894922,-0.09133843095570514]","[-1,-1,-1]","[-0.0523098880408693,0.18993329968172395]","[-1,-1,-1]","[0.08554126541785968,0.0508170250734714]","[1,1,1]","[0.012954065364980633,-0.06767447348668516]","[1,1,1]","[-0.1207494955510061,0.1417745657435747]","[-1,-1,-1]","[0.18474997915259783,-0.012125704769225011]","[-1,-1,-1]","[-0.07019527214796654,-0.09228482231752926]","[-1,-1,-1]","[0.15050734171493516,-0.06695565758673198]","[-1,-1,-1]","[0.12656695241267416,-0.13475674990593978]","[-1,-1,-1]","[0.02,0.02]",135.1461,0,2,2,64,1,,,,,,,
,,,,,,,677e4656af6e5525f72fc926,682f0ff2efe88415bdb38bf8,2025-05-22_12h57.56.779,cuing_paradigm_dot,2024.1.5,Win32,60.24096386,682d573fa47f1360d1451895,,,,,,,,,,,135.1477,135.6449,,,135.8981,136.2439,left,0.3341,,,,,,,,,0.4,,,,,,135.6449,135.8977,136.2441,"[-0.1632968992926871,-0.10008074479412926]","[-1,-1,-1]","[0.15935204060973476,-0.06955416496192912]","[1,1,1]","[0.027864743295732037,0.010077083950952914]","[1,1,1]","[0.16274636233508105,0.0795489343181515]","[1,1,1]","[-0.056273382337040746,-0.18688397525968117]","[1,1,1]","[-0.050398170688357426,0.14881283113202817]","[-1,-1,-1]","[0.1892391199980834,-0.006690925844385324]","[-1,-1,-1]","[0.0950930076912497,0.05203122760621492]","[-1,-1,-1]","[-0.10200110603941842,-0.02307662463699341]","[1,1,1]","[-0.11384362886602041,-0.15322141417426755]","[-1,-1,-1]","[0.03736447472762427,-0.15630819669092352]","[-1,-1,-1]","[-0.14159584218586052,0.12933720103502366]","[-1,-1,-1]","[-0.01665393342924518,-0.11360011247063645]","[1,1,1]","[0.15013773917035686,-0.11484904923417237]","[1,1,1]","[-0.07804895859587799,-0.05625859268629556]","[-1,-1,-1]","[0.0777757942558969,-0.11485442130490663]","[-1,-1,-1]","[-0.07391876815994204,0.03009175852247421]","[-1,-1,-1]","[0.05308703641043408,0.07757908595383638]","[1,1,1]","[-0.09104760653910161,0.09688725668958785]","[-1,-1,-1]","[-0.17267064580013483,0.10045283611670038]","[-1,-1,-1]","[-0.16512182202451475,-0.036781347712091315]","[1,1,1]","[-0.009124361909128803,0.03288019347237418]","[1,1,1]","[-0.1833319895492171,0.041098497936225914]","[-1,-1,-1]","[-0.13676507448796796,0.06571489773442758]","[-1,-1,-1]","[0.06547500512471548,-0.04955826165091541]","[-1,-1,-1]","[0.011345648260352944,-0.19548609995431734]","[-1,-1,-1]","[0.0984376380962565,0.1268506051311397]","[1,1,1]","[-0.0019296946334865332,0.16995811762438248]","[-1,-1,-1]","[-0.1157323850823725,-0.11219787584780903]","[1,1,1]","[0.15032450718839407,-0.029152179518727978]","[1,1,1]","[-0.006652114738680871,0.08501234191079875]","[-1,-1,-1]","[0.05857598762245051,-0.19037562290765986]","[-1,-1,-1]","[0.02,0.02]",137.3406,0,3,3,30,1,,,,,,,
,,,,,,,677e4656af6e5525f72fc926,682f0ff2efe88415bdb38bf8,2025-05-22_12h57.56.779,cuing_paradigm_dot,2024.1.5,Win32,60.24096386,682d573fa47f1360d1451895,,,,,,,,,,,137.3425,137.839,,,138.0897,138.3396,right,0.2352,,,,,,,,,0.5,,,,,,137.8392,138.0896,138.3398,"[-0.08766823587647145,0.003801528560764354]","[-1,-1,-1]","[0.12362958126326307,0.029495235986295366]","[-1,-1,-1]","[0.17337632511312193,0.02752382556031844]","[-1,-1,-1]","[0.13348844326966022,-0.040246029885476174]","[1,1,1]","[-0.043818080864757226,0.035662141701839255]","[-1,-1,-1]","[0.01953683370892602,-0.14570630318910854]","[-1,-1,-1]","[0.1486121614318537,0.12773745568263495]","[1,1,1]","[0.09345704950450978,-0.010129712779325463]","[1,1,1]","[-0.16468401885113443,-0.06135024702262478]","[1,1,1]","[-0.0402580629750551,-0.15390841956424864]","[-1,-1,-1]","[-0.0710355449644446,-0.12815232356749096]","[1,1,1]","[-0.1294194346795197,0.04640089038393772]","[1,1,1]","[0.12794957473660376,-0.13012514245190474]","[-1,-1,-1]","[-0.017601290486636022,-0.1928358016495716]","[1,1,1]","[-0.007887083316916928,0.10403442618228849]","[1,1,1]","[-0.00008807179159228601,-0.02634605492517264]","[1,1,1]","[-0.09960707440892594,0.12258046245039096]","[-1,-1,-1]","[0.03295454211161439,0.19065201461467915]","[-1,-1,-1]","[0.08233454139348576,0.06399115102332704]","[-1,-1,-1]","[0.025838523208571784,0.07507787498196106]","[-1,-1,-1]","[-0.15700218620651746,0.0875165352266889]","[-1,-1,-1]","[-0.19606680987475342,-0.017945269658278574]","[-1,-1,-1]","[-0.028860468973993993,0.14452529152247143]","[-1,-1,-1]","[-0.16068821532510064,0.003303523687044483]","[1,1,1]","[-0.10773144677464386,-0.1636949971430418]","[-1,-1,-1]","[-0.15409195632449008,-0.11135051147357818]","[1,1,1]","[0.03734889224861876,0.02873992103965327]","[1,1,1]","[0.028293713274522823,-0.0830082694303375]","[1,1,1]","[-0.03835410762195182,-0.10423002344158142]","[1,1,1]","[0.17247991636483379,0.06980519437740515]","[-1,-1,-1]","[-0.053580273951431716,0.09212515658096604]","[1,1,1]","[-0.11235787752718916,-0.04884404811208794]","[1,1,1]","[0.02,0.02]",139.4348,0,4,4,111,1,,,,,,,
,,,,,,,677e4656af6e5525f72fc926,682f0ff2efe88415bdb38bf8,2025-05-22_12h57.56.779,cuing_paradigm_dot,2024.1.5,Win32,60.24096386,682d573fa47f1360d1451895,,,,,,,,,,,139.4363,139.9336,,,140.1853,140.599,left,0.4,,,,,,,,,0.6,,,,,,139.9337,140.1851,140.5992,"[-0.08722551552298652,0.06904810258572561]","[1,1,1]","[0.16661347766764997,0.07514108606861164]","[1,1,1]","[0.08570683480013179,-0.07470309647901793]","[-1,-1,-1]","[0.03237254029618066,0.17430940128962555]","[1,1,1]","[-0.027540180989286824,0.10420685649352492]","[1,1,1]","[-0.08217624122183838,0.0004856369737753292]","[-1,-1,-1]","[0.18573795245965607,0.021830101214646166]","[1,1,1]","[-0.104560117155446,0.1411883123748292]","[-1,-1,-1]","[0.1417017933690468,-0.11000763736063428]","[1,1,1]","[-0.12462745453033476,-0.01919462030396569]","[-1,-1,-1]","[-0.04632278921866171,-0.027520019003849906]","[1,1,1]","[-0.14856046700087616,0.05073207444763697]","[1,1,1]","[-0.09921343981766038,-0.1340206948886093]","[-1,-1,-1]","[-0.13783630548732975,-0.06907612535568984]","[1,1,1]","[0.014482598643379932,-0.11127879233517901]","[-1,-1,-1]","[-0.0347834665131046,0.19054086890239055]","[1,1,1]","[-0.027446692092083717,-0.0934775199331844]","[-1,-1,-1]","[0.10541823139138502,-0.009642548712096638]","[1,1,1]","[0.05530530447841531,0.010556520876382935]","[-1,-1,-1]","[0.10479520365515618,-0.13892826112442191]","[1,1,1]","[0.010400403328974761,-0.0366036754343486]","[1,1,1]","[-0.05159230010944661,-0.15907792129766746]","[-1,-1,-1]","[-0.1759420942568801,-0.004512971424347214]","[-1,-1,-1]","[-0.16066276205392377,0.09096044524622017]","[1,1,1]","[0.12602771139906918,0.0598926988707103]","[1,1,1]","[-0.006539511303320081,0.003163858856331201]","[1,1,1]","[0.0274624911346932,-0.17918113644653727]","[-1,-1,-1]","[-0.15269816631219796,-0.12747284330559236]","[-1,-1,-1]","[0.03736285784977708,0.08330094473038396]","[-1,-1,-1]","[-0.18153872165671395,-0.05931054405100754]","[1,1,1]","[-0.01930242788976735,0.1467908204271996]","[1,1,1]","[0.1508087804181272,0.11333105033826929]","[1,1,1]","[0.02,0.02]",141.6958,0,5,5,171,1,,,,,,,
,,,,,,,677e4656af6e5525f72fc926,682f0ff2efe88415bdb38bf8,2025-05-22_12h57.56.779,cuing_paradigm_dot,2024.1.5,Win32,60.24096386,682d573fa47f1360d1451895,,,,,,,,,,,141.6983,142.1942,,,142.4471,143.014,left,0.5592,,,,,,,,,0.4,,,,,,142.1943,142.4469,143.0143,"[0.02976533059363937,-0.031390196849782726]","[1,1,1]","[0.08102331629278858,-0.005941125295316285]","[-1,-1,-1]","[0.12760944666725,-0.07475269264526488]","[1,1,1]","[-0.07830931070681604,-0.14211524264020245]","[1,1,1]","[-0.17070112011715474,-0.05339235928929744]","[-1,-1,-1]","[0.03750891372269786,0.17696235987329167]","[1,1,1]","[0.17900559313737327,0.08863369822494532]","[1,1,1]","[-0.04927259511717982,-0.02281196688178098]","[-1,-1,-1]","[0.09012505247276074,-0.16421149498786453]","[-1,-1,-1]","[-0.17147329968774677,0.08195706158851106]","[-1,-1,-1]","[0.07389007706030436,-0.07165768447064802]","[1,1,1]","[-0.04200396197919111,0.029493585269676718]","[-1,-1,-1]","[0.16181966130335113,-0.03622375835493206]","[1,1,1]","[-0.053902979517920835,0.08721371846273665]","[-1,-1,-1]","[-0.08495524286806394,0.11610117608669902]","[-1,-1,-1]","[-0.033663222181750205,-0.1965766734994091]","[-1,-1,-1]","[0.10190232062646436,-0.11400688149712765]","[-1,-1,-1]","[-0.1504760777906951,0.11993065991418013]","[1,1,1]","[0.030017414833320957,0.02963900482339699]","[-1,-1,-1]","[0.028275753948521772,-0.10519294540108172]","[-1,-1,-1]","[0.021868174358316075,0.0925089604089231]","[1,1,1]","[-0.11971196047309605,0.0120064681263109]","[-1,-1,-1]","[0.08979239154258808,0.16357500001153763]","[-1,-1,-1]","[0.022327637929063296,0.13327251760783032]","[1,1,1]","[0.1561373028224329,0.05247326373334153]","[-1,-1,-1]","[-0.011684955974433291,0.05949548110636247]","[1,1,1]","[-0.12247045783095507,0.07068183651922356]","[-1,-1,-1]","[0.12660300534289926,-0.011504167433844165]","[-1,-1,-1]","[-0.09425319716340394,-0.08737332505791097]","[1,1,1]","[0.125458315577446,0.09818176306416927]","[-1,-1,-1]","[-0.09200785615189222,0.1699423710402948]","[-1,-1,-1]","[-0.04027983000194675,-0.10749277279055823]","[1,1,1]","[0.02,0.02]",144.1066,0,6,6,53,1,,,,,,,
,,,,,,,677e4656af6e5525f72fc926,682f0ff2efe88415bdb38bf8,2025-05-22_12h57.56.779,cuing_paradigm_dot,2024.1.5,Win32,60.24096386,682d573fa47f1360d1451895,,,,,,,,,,,144.1088,144.6046,,,144.8568,145.1882,right,0.3188,,,,,,,,,0.1,,,,,,144.6047,144.8566,145.1884,"[0.061498448506719094,0.08302941076112576]","[1,1,1]","[0.09697995771664103,-0.06463881942159949]","[-1,-1,-1]","[0.00047738240880774795,0.031654180047533974]","[-1,-1,-1]","[-0.09014605080789137,-0.11235284536562831]","[-1,-1,-1]","[0.14353872543891405,0.03822571314195436]","[-1,-1,-1]","[0.08691587359152167,-0.17838322794793057]","[-1,-1,-1]","[-0.028646880657561127,-0.07676289209631532]","[-1,-1,-1]","[-0.13690448016628967,-0.040476210003790696]","[1,1,1]","[0.1178192072877533,-0.014740879894084914]","[-1,-1,-1]","[-0.05542079613686634,0.17658840646858112]","[-1,-1,-1]","[-0.05258966173360105,-0.15080244504937013]","[1,1,1]","[0.06203571741889945,0.024531430236951632]","[-1,-1,-1]","[-0.06876458564223663,-0.06087946851330346]","[-1,-1,-1]","[0.006837053886297006,0.10996778225466518]","[-1,-1,-1]","[0.1408521254942145,-0.06908866358553663]","[-1,-1,-1]","[-0.12818309911917883,0.13339973763623703]","[-1,-1,-1]","[0.14731796020855484,0.08311037439707276]","[-1,-1,-1]","[-0.14421374381700383,0.016876808681781194]","[-1,-1,-1]","[-0.0012057840489904496,0.1740779922539238]","[-1,-1,-1]","[-0.06637394819165084,0.05056708866821101]","[-1,-1,-1]","[0.053625553112360544,-0.058421107661774614]","[-1,-1,-1]","[-0.07180002643303297,0.1317527887458565]","[-1,-1,-1]","[0.18913303197264833,0.029237381445704418]","[-1,-1,-1]","[0.09351646034210699,-0.13672476325470145]","[-1,-1,-1]","[0.07393880224731827,0.181047855766846]","[-1,-1,-1]","[-0.17322175211520532,-0.07449902703955075]","[-1,-1,-1]","[-0.03465526946583976,-0.02971393236060436]","[-1,-1,-1]","[0.03597239115380622,-0.09518693622660696]","[-1,-1,-1]","[-0.1923609210343981,-0.0010047775656071433]","[-1,-1,-1]","[-0.07104473554925357,0.007543247917867172]","[-1,-1,-1]","[-0.1058989449458477,0.08128366265916116]","[-1,-1,-1]","[0.021415902053651906,-0.16690892257654488]","[-1,-1,-1]","[0.02,0.02]",146.2847,0,7,7,12,1,,,,,,,
,,,,,,,677e4656af6e5525f72fc926,682f0ff2efe88415bdb38bf8,2025-05-22_12h57.56.779,cuing_paradigm_dot,2024.1.5,Win32,60.24096386,682d573fa47f1360d1451895,,,,,,,,,,,146.2864,146.7828,,,147.0326,147.4505,left,0.4034,,,,,,,,,0.5,,,,,,146.7829,147.0324,147.4518,"[-0.07346264480848798,0.09140436552327942]","[-1,-1,-1]","[-0.03727252613376197,-0.18080521107761294]","[1,1,1]","[0.09724791049957916,-0.16862585289966517]","[1,1,1]","[-0.04550149773668025,-0.07530122066695932]","[-1,-1,-1]","[-0.12202407530596544,0.09260472304529879]","[-1,-1,-1]","[0.08880457903587448,-0.07201251089241185]","[1,1,1]","[0.14145010450625148,-0.0963266080963943]","[-1,-1,-1]","[0.04965246149491045,-0.1047535729999993]","[-1,-1,-1]","[-0.105441854537157,0.012726853622120608]","[-1,-1,-1]","[-0.005367457022143112,0.07152329573877925]","[1,1,1]","[-0.15074026225043027,0.0482200765753327]","[-1,-1,-1]","[0.06898338217072174,0.01674438184962668]","[-1,-1,-1]","[-0.012777992805382898,-0.1277262837089393]","[1,1,1]","[0.04632943379540991,-0.1830675750020904]","[-1,-1,-1]","[0.12377692350866429,0.1114736648952921]","[1,1,1]","[-0.1557485310323252,-0.10227488103138738]","[1,1,1]","[0.11706189007318542,-0.004607361749883896]","[1,1,1]","[-0.02486697216090167,0.14614400722049467]","[-1,-1,-1]","[-0.10892539222374396,-0.03503655900498957]","[1,1,1]","[0.0316042877755474,0.048934344821765646]","[1,1,1]","[-0.003270741720136574,0.19954005302386846]","[1,1,1]","[-0.002339681636555952,-0.06369763566916313]","[-1,-1,-1]","[0.11082558378924177,0.05022465185138164]","[-1,-1,-1]","[-0.008574082989162075,-0.013615472738705621]","[-1,-1,-1]","[-0.03955530713015727,0.01682035782796719]","[-1,-1,-1]","[0.07819949271183331,0.17286036743734132]","[-1,-1,-1]","[-0.08122119615369981,-0.14267719857124767]","[-1,-1,-1]","[0.04387522217771734,0.13750695544882108]","[1,1,1]","[-0.19949409518919048,-0.013266248490943816]","[1,1,1]","[0.1992757569246856,0.005948542941449108]","[1,1,1]","[0.17593655433930136,0.04888055868518279]","[1,1,1]","[-0.06649226261968447,0.1391158534549602]","[1,1,1]","[0.02,0.02]",148.544,0,8,8,114,1,,,,,,,
,,,,,,,677e4656af6e5525f72fc926,682f0ff2efe88415bdb38bf8,2025-05-22_12h57.56.779,cuing_paradigm_dot,2024.1.5,Win32,60.24096386,682d573fa47f1360d1451895,,,,,,,,,,,148.5453,149.0428,,,149.2958,149.6417,right,0.3367,,,,,,,,,0.1,,,,,,149.0428,149.2956,149.6419,"[0.07619805004550965,0.08108013269703697]","[-1,-1,-1]","[0.14524093981555816,0.06145373474556959]","[-1,-1,-1]","[-0.10284530067603927,-0.02473041388575678]","[1,1,1]","[0.06988253320194517,-0.16684253204276844]","[-1,-1,-1]","[-0.06668746883097261,-0.0031794535943880683]","[-1,-1,-1]","[0.06658688143363413,-0.07590318844285535]","[-1,-1,-1]","[-0.03032618942455235,-0.0218221656520081]","[-1,-1,-1]","[-0.12551406580771612,0.06013050835496808]","[-1,-1,-1]","[-0.1708104816243892,0.031241369480698375]","[-1,-1,-1]","[-0.10005905873086114,0.14184220925304777]","[-1,-1,-1]","[0.0338623944957924,-0.10511028135680532]","[-1,-1,-1]","[-0.10461687465337327,0.0163103216953782]","[-1,-1,-1]","[-0.0781165557353692,-0.05975405463460051]","[-1,-1,-1]","[-0.0030033689788411806,-0.1582977290757388]","[-1,-1,-1]","[-0.17102876017756935,-0.09002804232573443]","[-1,-1,-1]","[0.1262070040709051,-0.08630096175282921]","[-1,-1,-1]","[0.09346010149679194,-0.0013320042017634388]","[-1,-1,-1]","[0.0030601254434691654,0.10110508399681285]","[-1,-1,-1]","[-0.11653173306019103,-0.16116971912322423]","[-1,-1,-1]","[0.03985920975977453,-0.009829064394581708]","[-1,-1,-1]","[0.10254628492844192,-0.1376631383185763]","[-1,-1,-1]","[-0.062212242850804934,0.18261263678801243]","[-1,-1,-1]","[-0.11378565624791659,-0.1086340009584773]","[-1,-1,-1]","[0.17256395807164177,-0.06770978501268825]","[-1,-1,-1]","[0.03702834662126429,0.15527220610445555]","[-1,-1,-1]","[-0.06148846492406717,0.10344648688470191]","[1,1,1]","[-0.00666542892087957,0.022836836012136492]","[-1,-1,-1]","[-0.07800347786874957,-0.12872219332998583]","[1,1,1]","[-0.05406634923659823,-0.1753226506834428]","[-1,-1,-1]","[0.15767217016215282,-0.017574962169624644]","[-1,-1,-1]","[-0.18566149149600344,-0.052329619614062385]","[-1,-1,-1]","[0.19003473761325404,0.014407900949394732]","[-1,-1,-1]","[0.02,0.02]",150.7382,0,9,9,13,1,,,,,,,
,,,,,,,677e4656af6e5525f72fc926,682f0ff2efe88415bdb38bf8,2025-05-22_12h57.56.779,cuing_paradigm_dot,2024.1.5,Win32,60.24096386,682d573fa47f1360d1451895,,,,,,,,,,,150.7399,151.237,,,151.4906,151.8868,right,0.3838,,,,,,,,,0.9,,,,,,151.237,151.4905,151.8872,"[0.003769477107015648,-0.08245544728387703]","[1,1,1]","[0.06305318481508751,0.10555104661369956]","[1,1,1]","[0.1010873791101405,0.06429012579884964]","[1,1,1]","[-0.13000075478449744,-0.12124908312543732]","[1,1,1]","[0.17576436478943222,-0.014908407525059]","[1,1,1]","[0.10877814557151096,0.0023615327943443732]","[1,1,1]","[0.1813836435362559,0.02670162324332869]","[1,1,1]","[-0.12227738353776725,-0.07846536289966038]","[1,1,1]","[-0.010602894318422979,-0.14941119268946892]","[1,1,1]","[0.08084522474675543,-0.10835085565127443]","[1,1,1]","[-0.05212217512573625,-0.01696000420604768]","[1,1,1]","[-0.000009968257252933394,0.10600681125861011]","[1,1,1]","[-0.08047128547172214,0.060186874838532994]","[-1,-1,-1]","[0.02031521483658193,0.05363555871151552]","[1,1,1]","[0.1053696637680472,0.1594845265010213]","[1,1,1]","[0.1214665663934091,-0.036843724956649886]","[1,1,1]","[0.16577829390270238,-0.055340790686483544]","[1,1,1]","[0.0006559540759385087,0.17592612481858524]","[1,1,1]","[-0.010481312537751726,-0.02222305534554712]","[-1,-1,-1]","[-0.13826074290833362,-0.04132480086385223]","[-1,-1,-1]","[-0.10897758815493695,0.027480850270628934]","[1,1,1]","[-0.06830488541975635,0.15071662260247842]","[1,1,1]","[-0.01842881323727957,0.06705846822383475]","[1,1,1]","[-0.05655626070595175,-0.073397385036904]","[1,1,1]","[0.04225607969867762,0.1494386429467753]","[1,1,1]","[0.07599022967572788,-0.04563803261043899]","[1,1,1]","[-0.17266507983180693,-0.07936293335331887]","[1,1,1]","[0.16421803265634666,0.10198070491036532]","[1,1,1]","[0.018370740497625413,-0.1915360284117658]","[1,1,1]","[0.03201538982192449,-0.13528222525456457]","[1,1,1]","[-0.07505487757659152,0.1043143657393979]","[1,1,1]","[-0.06850446405493757,-0.13129073082765708]","[1,1,1]","[0.02,0.02]",152.983,0,10,10,185,1,,,,,,,
,,,,,,,677e4656af6e5525f72fc926,682f0ff2efe88415bdb38bf8,2025-05-22_12h57.56.779,cuing_paradigm_dot,2024.1.5,Win32,60.24096386,682d573fa47f1360d1451895,,,,,,,,,,,152.9847,153.4832,,,153.7318,154.3119,left,0.567,,,,,,,,,0.6,,,,,,153.4832,153.7317,154.312,"[-0.014857455627511234,-0.09086257113626603]","[1,1,1]","[-0.061501450536231086,0.14645975458567395]","[1,1,1]","[-0.12266778990299938,0.09090492649802902]","[1,1,1]","[-0.021779980902867046,0.058311921247906684]","[-1,-1,-1]","[0.12015906358520483,0.11182392976949836]","[1,1,1]","[-0.0636392953820585,-0.016671856512772292]","[1,1,1]","[0.08258944971567382,-0.08945024169115802]","[-1,-1,-1]","[0.0986221488608174,0.04668115070156688]","[-1,-1,-1]","[0.16737925022703407,0.03008392170895614]","[1,1,1]","[-0.194089966085867,0.04754437399108599]","[-1,-1,-1]","[-0.060839680615238284,0.07344132642315727]","[1,1,1]","[0.005816186505892113,-0.19812701544879602]","[1,1,1]","[-0.09829967490881301,-0.11147524122680706]","[-1,-1,-1]","[-0.033397532299485035,-0.05224262072979488]","[1,1,1]","[0.06434487401666819,0.11703846027397555]","[-1,-1,-1]","[-0.11610189459288163,-0.06920293196689882]","[1,1,1]","[0.15999699917668095,-0.1063139624504437]","[1,1,1]","[0.07060769365668859,-0.1376460321541247]","[1,1,1]","[0.042125389782808755,-0.17197505084551068]","[-1,-1,-1]","[-0.0005785928844585589,0.10004988974333992]","[-1,-1,-1]","[0.024201486772317315,-0.04582066011151101]","[-1,-1,-1]","[0.03940572134313386,0.07646686686588014]","[1,1,1]","[0.11689721441100491,-0.000747912213059093]","[1,1,1]","[0.11923378890442175,0.15759870186180058]","[-1,-1,-1]","[0.0970002845030173,-0.046295317562351605]","[1,1,1]","[-0.07582564014564361,-0.15676671693954716]","[1,1,1]","[0.19061002589769022,-0.054488983393505074]","[-1,-1,-1]","[-0.10091996160219223,0.15592957587410963]","[1,1,1]","[0.0034867697898250316,0.16559372051217072]","[-1,-1,-1]","[0.04871063867001279,0.19015953753776868]","[1,1,1]","[-0.1350510245715407,0.03849226495856143]","[1,1,1]","[0.13539617439676654,0.06893986004593057]","[-1,-1,-1]","[0.02,0.02]",155.4096,0,11,11,159,1,,,,,,,
,,,,,,,677e4656af6e5525f72fc926,682f0ff2efe88415bdb38bf8,2025-05-22_12h57.56.779,cuing_paradigm_dot,2024.1.5,Win32,60.24096386,682d573fa47f1360d1451895,,,,,,,,,,,155.4114,155.9089,,,156.1585,156.9885,left,0.8167,,,,,,,,,0.45,,,,,,155.909,156.1584,156.9886,"[-0.0370196907312219,0.17214804691353258]","[1,1,1]","[0.09787754319982085,-0.03181041693742901]","[-1,-1,-1]","[0.003311679865711391,0.17529205013499052]","[-1,-1,-1]","[0.007953760491168452,-0.03894947495322493]","[1,1,1]","[-0.05412287995320413,0.13212068540075686]","[1,1,1]","[-0.09372823643086271,-0.04775930815905328]","[1,1,1]","[0.048814621736924385,0.020510401908409037]","[1,1,1]","[0.18102524885138246,0.059794563904337926]","[-1,-1,-1]","[0.13334047700925242,0.1277203848123152]","[1,1,1]","[-0.04860719380165349,-0.010443793211643689]","[1,1,1]","[0.147116417280893,0.0333025449532145]","[-1,-1,-1]","[0.016819114628690585,-0.11719144427503442]","[1,1,1]","[-0.14485370189186408,0.01623959290887042]","[-1,-1,-1]","[-0.05481715998007474,-0.1661567975724748]","[-1,-1,-1]","[-0.09867297062699433,0.007634895885280896]","[-1,-1,-1]","[-0.12349913046773736,0.09527160800975917]","[-1,-1,-1]","[0.025068019764716083,-0.1864340036375524]","[-1,-1,-1]","[0.031201921111397333,0.0677077519908071]","[-1,-1,-1]","[0.09266867927223325,0.041918617547297185]","[1,1,1]","[0.055764914150522274,-0.03447219398119018]","[-1,-1,-1]","[-0.18584563183540834,0.06059448700714759]","[-1,-1,-1]","[0.1659874015568431,-0.09673726554638645]","[1,1,1]","[-0.027382660990233967,-0.1272388660656937]","[-1,-1,-1]","[-0.13794521891006714,0.13848885982396966]","[-1,-1,-1]","[-0.10176184474848667,-0.13650590248121952]","[-1,-1,-1]","[0.07232250741838048,0.11759374955870337]","[-1,-1,-1]","[-0.16967975732533605,-0.10187829314993718]","[-1,-1,-1]","[0.07931807369801003,-0.08591812533849695]","[1,1,1]","[0.08452859908577846,-0.13822488269824657]","[1,1,1]","[0.004439675872435851,0.11072024024744478]","[1,1,1]","[-0.04968233215422521,0.06774230593287846]","[1,1,1]","[0.05405893879941705,0.15857617007762811]","[-1,-1,-1]","[0.02,0.02]",158.0854,0,12,12,81,1,,,,,,,
,,,,,,,677e4656af6e5525f72fc926,682f0ff2efe88415bdb38bf8,2025-05-22_12h57.56.779,cuing_paradigm_dot,2024.1.5,Win32,60.24096386,682d573fa47f1360d1451895,,,,,,,,,,,158.0869,158.5841,,,158.8352,159.1997,right,0.3534,,,,,,,,,0.9,,,,,,158.5842,158.835,159.1998,"[0.11222481768704462,0.06351771364275746]","[1,1,1]","[0.08547666099883086,0.113551677302953]","[-1,-1,-1]","[-0.01552120219603314,-0.055431630108525726]","[1,1,1]","[0.03685219560433991,0.15739768780284794]","[1,1,1]","[-0.08202514760790024,0.1582351811582736]","[1,1,1]","[-0.02433882344010515,0.1626840628972553]","[1,1,1]","[0.11513475972687029,-0.14746516782293626]","[1,1,1]","[0.10114352036515468,-0.05082874001952537]","[1,1,1]","[0.08852964323647718,0.022858774656836032]","[1,1,1]","[-0.018093283849480196,0.01223871244692108]","[1,1,1]","[0.002174856747355337,0.10858030624004532]","[1,1,1]","[0.06857273941795165,0.06347089565771435]","[1,1,1]","[0.0610792654985965,-0.05517514031067201]","[1,1,1]","[-0.16168839191592738,0.02581805289314598]","[1,1,1]","[0.18023579397808356,-0.07468989609337794]","[1,1,1]","[0.043313607847604324,0.008020221004421325]","[1,1,1]","[-0.08592349270002375,0.0033927578670686514]","[1,1,1]","[-0.16214542321414632,0.11670600873995365]","[1,1,1]","[0.16842928868586343,0.08225727703208927]","[1,1,1]","[-0.01246256253856879,-0.1167155276973994]","[1,1,1]","[-0.1812199069813284,-0.05177156258674012]","[1,1,1]","[-0.09233934876316138,-0.14194904403768444]","[1,1,1]","[-0.06404571025797641,0.11101865317843486]","[-1,-1,-1]","[-0.13008547358952186,-0.12401126201596101]","[1,1,1]","[0.006123234079833544,0.06339841486159664]","[1,1,1]","[-0.00838028058881692,-0.15706045341020686]","[1,1,1]","[-0.03725485234286814,0.06511706979756554]","[1,1,1]","[0.165726495697612,0.009888840689143492]","[1,1,1]","[0.06532797903037676,-0.16124632513284815]","[1,1,1]","[0.10718207266238115,-0.10350707271389019]","[1,1,1]","[-0.12983074304932987,-0.01793688015335008]","[-1,-1,-1]","[-0.16301517704641189,0.0678461614875531]","[1,1,1]","[0.02,0.02]",160.2962,0,13,13,207,1,,,,,,,
,,,,,,,677e4656af6e5525f72fc926,682f0ff2efe88415bdb38bf8,2025-05-22_12h57.56.779,cuing_paradigm_dot,2024.1.5,Win32,60.24096386,682d573fa47f1360d1451895,,,,,,,,,,,160.2977,160.795,,,161.046,161.3274,right,0.2689,,,,,,,,,0.1,,,,,,160.7951,161.046,161.3276,"[-0.040818488802033814,-0.02902880689218106]","[-1,-1,-1]","[0.02658746310997625,-0.1137129482469594]","[-1,-1,-1]","[-0.1313267921238712,-0.04910338567392818]","[-1,-1,-1]","[0.07268971838206781,0.039547386489611196]","[-1,-1,-1]","[-0.12196098363989188,0.02697244511154283]","[-1,-1,-1]","[0.04540916791428237,0.10346814706499322]","[-1,-1,-1]","[-0.086064608737479,-0.12511962752172884]","[-1,-1,-1]","[-0.0666566273260874,0.015160531896459904]","[-1,-1,-1]","[-0.16371899336895285,-0.008201333488520035]","[-1,-1,-1]","[0.09465672269561366,-0.09253469866093025]","[-1,-1,-1]","[0.1512573319931102,0.10376380661196556]","[-1,-1,-1]","[0.0881614307758729,-0.045449797521593394]","[1,1,1]","[0.14529425444567304,-0.0034418127882866853]","[-1,-1,-1]","[-0.13592498892674346,0.07786158768709779]","[-1,-1,-1]","[0.19360608734070361,-0.028769799439815336]","[-1,-1,-1]","[0.023116964946078143,0.0498315148798585]","[-1,-1,-1]","[-0.05039167383747729,0.16057726146203802]","[-1,-1,-1]","[0.10085331826054714,0.002207924736498802]","[-1,-1,-1]","[-0.18561221276764206,0.048721094551106174]","[-1,-1,-1]","[0.14519173299735116,-0.1326810519475874]","[-1,-1,-1]","[0.04424330233736526,0.15687136223335607]","[-1,-1,-1]","[-0.12361862264515375,-0.141102701815515]","[-1,-1,-1]","[0.1457057967063131,0.03960292344294276]","[-1,-1,-1]","[-0.04136029700322873,-0.1855258946248887]","[-1,-1,-1]","[0.03073686639511871,-0.1702973728335602]","[1,1,1]","[-0.024258686681940523,-0.14770794130370424]","[-1,-1,-1]","[-0.060569681560065335,-0.07487562389837177]","[-1,-1,-1]","[-0.07716122354738289,0.056363135096920265]","[-1,-1,-1]","[-0.010720277463511061,0.01254018285790069]","[-1,-1,-1]","[-0.043738753012514814,0.11624446495482031]","[-1,-1,-1]","[0.04827695360867455,-0.029216558917253662]","[-1,-1,-1]","[-0.1404008594659546,-0.09398034900607063]","[1,1,1]","[0.02,0.02]",162.423,0,14,14,27,1,,,,,,,
,,,,,,,677e4656af6e5525f72fc926,682f0ff2efe88415bdb38bf8,2025-05-22_12h57.56.779,cuing_paradigm_dot,2024.1.5,Win32,60.24096386,682d573fa47f1360d1451895,,,,,,,,,,,162.4236,162.9216,,,163.1729,163.8373,left,0.6502,,,,,,,,,0.6,,,,,,162.9217,163.1728,163.8374,"[-0.016419225757913356,0.0035579527784389965]","[-1,-1,-1]","[0.08258376612276042,0.1681043561808298]","[1,1,1]","[0.003356471087635775,-0.14145437315268825]","[1,1,1]","[-0.12134749120578285,0.13657926520395344]","[-1,-1,-1]","[0.08736204954867974,-0.008215188678158881]","[-1,-1,-1]","[-0.05208958072520709,-0.07567535894922495]","[-1,-1,-1]","[-0.021533604118346004,0.16754547285548851]","[1,1,1]","[0.09752773296051957,0.1221669740618909]","[1,1,1]","[0.04435788162265965,0.11603788054602618]","[1,1,1]","[0.13385489543373247,-0.08237148871991401]","[1,1,1]","[0.01676445652571352,0.032748617462091366]","[1,1,1]","[0.050435031226494426,-0.10813703571868769]","[-1,-1,-1]","[0.17308491779896532,-0.04578588126442924]","[1,1,1]","[0.07820295824516597,-0.1717724032353589]","[-1,-1,-1]","[0.14337723372492503,0.09035902876444148]","[1,1,1]","[-0.10504368693540732,0.02882526245652429]","[1,1,1]","[-0.00860024406804239,-0.18358017612467178]","[1,1,1]","[0.11517476666494854,-0.11878109731427157]","[-1,-1,-1]","[-0.002964246832067411,-0.05764599635665854]","[1,1,1]","[-0.17683303949545215,0.007569550146820812]","[1,1,1]","[0.08864731286058083,-0.05580380071184482]","[-1,-1,-1]","[-0.07395056251005899,-0.02867579083247828]","[1,1,1]","[-0.05994104821707323,0.13727721550403138]","[1,1,1]","[-0.029735819793654486,0.08678739060902257]","[-1,-1,-1]","[-0.1315460951042599,-0.06106390613392439]","[1,1,1]","[-0.13659175915084204,0.07974553252774694]","[-1,-1,-1]","[0.13225473210214087,0.14653478546841672]","[-1,-1,-1]","[-0.060041538356726765,-0.16043635314536797]","[-1,-1,-1]","[-0.11667743016721374,-0.14637701268827172]","[1,1,1]","[-0.08581024315177056,0.07341323992094587]","[-1,-1,-1]","[-0.15332143937050804,-0.10845665745000332]","[1,1,1]","[0.0721070409309883,0.036958905066650664]","[1,1,1]","[0.02,0.02]",164.9339,0,15,15,158,1,,,,,,,
,,,,,,,677e4656af6e5525f72fc926,682f0ff2efe88415bdb38bf8,2025-05-22_12h57.56.779,cuing_paradigm_dot,2024.1.5,Win32,60.24096386,682d573fa47f1360d1451895,,,,,,,,,,,164.9359,165.4326,,,165.6834,166.3816,left,0.6845,,,,,,,,,0.5,,,,,,165.4328,165.6833,166.382,"[-0.07171044684324795,0.07647685894231028]","[-1,-1,-1]","[0.012642322720447944,0.07278191305832583]","[1,1,1]","[-0.08840138268694374,0.1224061448031794]","[-1,-1,-1]","[0.0835453368980993,0.10001214903868076]","[-1,-1,-1]","[0.14753797975304742,-0.04320853546362907]","[1,1,1]","[0.031129322072712018,-0.1308046826360667]","[1,1,1]","[-0.1103577461255797,0.16023289876858196]","[1,1,1]","[0.13125139225172358,0.0667821082548865]","[-1,-1,-1]","[-0.03885275300793026,0.12948501027742298]","[-1,-1,-1]","[-0.018720054387351078,-0.12559334002384842]","[1,1,1]","[-0.18885495728688767,-0.02198574578414206]","[-1,-1,-1]","[0.000041230922312872604,-0.19623728917188613]","[-1,-1,-1]","[0.06015584728622994,-0.048778954591895914]","[-1,-1,-1]","[0.054188133295929135,0.0567564259813936]","[1,1,1]","[0.06011718634333655,0.1542710367169368]","[1,1,1]","[-0.09477601348298056,-0.06480713831138446]","[-1,-1,-1]","[-0.041469997398197754,-0.03832910710293103]","[1,1,1]","[-0.13646384449453927,-0.13994853660323253]","[1,1,1]","[-0.0746553682881077,-0.14052200107628887]","[1,1,1]","[0.1308585384557206,-0.09387495198527608]","[-1,-1,-1]","[-0.11080550066805005,-0.02554737297339054]","[1,1,1]","[0.07826647595685876,-0.11718266922299525]","[1,1,1]","[0.12680580621741172,-0.15236527945835368]","[1,1,1]","[0.02020285849183128,0.18002051036639943]","[1,1,1]","[-0.0036042712750902774,0.03163818135512293]","[1,1,1]","[-0.16406445065627548,0.07039297002058044]","[-1,-1,-1]","[-0.04561264475497037,0.012947537978385578]","[-1,-1,-1]","[-0.09358249654826822,0.028170256727416295]","[-1,-1,-1]","[0.09604249714761691,0.041148653376044425]","[-1,-1,-1]","[0.12092935682153111,0.1308712469519176]","[-1,-1,-1]","[-0.1495414830360245,0.006241995117982584]","[1,1,1]","[0.19351924189648867,-0.026060023755188254]","[-1,-1,-1]","[0.02,0.02]",167.4773,0,16,16,93,1,,,,,,,
,,,,,,,677e4656af6e5525f72fc926,682f0ff2efe88415bdb38bf8,2025-05-22_12h57.56.779,cuing_paradigm_dot,2024.1.5,Win32,60.24096386,682d573fa47f1360d1451895,,,,,,,,,,,167.4787,167.9762,,,168.2278,169.6433,right,1.4003,,,,,,,,,0.5,,,,,,167.9763,168.2276,169.6434,"[0.045380756507763735,0.03306788563661453]","[1,1,1]","[0.15597646424256245,-0.052461878077216056]","[-1,-1,-1]","[0.06085194262360175,0.16753394068222258]","[-1,-1,-1]","[-0.07917305330524609,0.15886632839807488]","[1,1,1]","[-0.027790983199613,0.008460222705106895]","[1,1,1]","[0.14696841447649195,-0.13011785556250224]","[-1,-1,-1]","[0.02275174615161532,-0.1225343344946692]","[1,1,1]","[-0.012301896810173565,0.15891460305192542]","[1,1,1]","[0.08358607892811652,0.09995487636711273]","[1,1,1]","[0.06376427219997875,-0.09571916133574447]","[-1,-1,-1]","[0.02339492779789918,0.07912784967845984]","[-1,-1,-1]","[0.07349978652555146,-0.1738703455788248]","[1,1,1]","[-0.06753819507984092,-0.046052122360101]","[-1,-1,-1]","[0.0869857422814676,0.05683314696391466]","[-1,-1,-1]","[-0.03956144363760809,-0.09446878608462397]","[-1,-1,-1]","[0.1162821061773914,-0.09089501899286685]","[1,1,1]","[0.12270651388565285,-0.008768331130846397]","[-1,-1,-1]","[0.08892286119388022,-0.13273513219625285]","[-1,-1,-1]","[-0.14487846079648178,-0.02813602679582139]","[1,1,1]","[0.18416725864244132,0.0013771213881504428]","[1,1,1]","[0.07340241504327764,-0.04943665457424099]","[1,1,1]","[-0.14059454374058683,-0.09869976164521997]","[-1,-1,-1]","[-0.11348490331036111,0.09256400284908091]","[1,1,1]","[0.11669255408681707,0.1264536858975723]","[-1,-1,-1]","[-0.05882581778394894,0.045584323769719784]","[1,1,1]","[-0.17021622394657834,0.009141705488352482]","[-1,-1,-1]","[0.030678867915936485,0.1402741001251285]","[1,1,1]","[0.024886306570288775,-0.0592986776098589]","[-1,-1,-1]","[0.13406775180219052,0.048704643127008576]","[1,1,1]","[-0.0794263881070312,-0.14631841765525713]","[-1,-1,-1]","[0.08441817666486734,0.00819448468893839]","[-1,-1,-1]","[-0.09255394630407622,0.0017023865162682974]","[1,1,1]","[0.02,0.02]",170.7353,0,17,17,100,1,,,,,,,
,,,,,,,677e4656af6e5525f72fc926,682f0ff2efe88415bdb38bf8,2025-05-22_12h57.56.779,cuing_paradigm_dot,2024.1.5,Win32,60.24096386,682d573fa47f1360d1451895,,,,,,,,,,,170.7367,171.2339,,,171.4852,172.0822,left,0.5831,,,,,,,,,0.4,,,,,,171.234,171.485,172.0823,"[-0.15124257885747655,0.02977934986910887]","[-1,-1,-1]","[0.08220659189863117,-0.07816690055507232]","[-1,-1,-1]","[0.08203079004479569,-0.12653832799426049]","[1,1,1]","[0.03503351372001383,0.10398404546149592]","[-1,-1,-1]","[0.07953355372677977,0.06699512929244074]","[-1,-1,-1]","[-0.12380108027420444,0.06381927018016553]","[-1,-1,-1]","[-0.18963624844534663,-0.047638808262638464]","[-1,-1,-1]","[0.17699404646138234,0.08964888956266397]","[-1,-1,-1]","[0.12453523304754793,-0.08181601563133559]","[1,1,1]","[-0.14210226764552125,-0.02370196136191986]","[-1,-1,-1]","[0.1303303646815286,0.06233415779151667]","[1,1,1]","[0.0202809704902045,-0.16221560975103716]","[1,1,1]","[0.12129677489038314,-0.025075197423872455]","[1,1,1]","[0.04859135672647093,0.023957928761042736]","[-1,-1,-1]","[-0.10626987353995995,-0.05456619408643845]","[-1,-1,-1]","[0.07325443685382702,0.1733883409253545]","[1,1,1]","[-0.057339570421022196,-0.042733207079693004]","[-1,-1,-1]","[0.02547635303543047,-0.017826632530300097]","[1,1,1]","[-0.15363507481684374,-0.11294129554709967]","[-1,-1,-1]","[-0.018346515554880618,0.10691758281962821]","[-1,-1,-1]","[0.14705750525947098,0.009157719332564469]","[-1,-1,-1]","[-0.01429662181167059,-0.06361481286911708]","[-1,-1,-1]","[0.001486696110925313,0.19811272685445752]","[-1,-1,-1]","[0.18856774434721632,0.01588322094822578]","[1,1,1]","[-0.06895446296548657,0.10853299133322761]","[1,1,1]","[-0.11032063031471354,-0.12084103847146106]","[1,1,1]","[0.18015236776268556,-0.025436931688535107]","[-1,-1,-1]","[0.10072763904051554,0.10148791458636926]","[1,1,1]","[0.030456020961347734,-0.1084432404522198]","[1,1,1]","[-0.050485297970598204,0.063300171006978]","[1,1,1]","[-0.06203765853404053,0.004517781115480032]","[-1,-1,-1]","[0.17776448468822395,-0.08958265853941362]","[-1,-1,-1]","[0.02,0.02]",173.1788,0,18,18,55,1,,,,,,,
,,,,,,,677e4656af6e5525f72fc926,682f0ff2efe88415bdb38bf8,2025-05-22_12h57.56.779,cuing_paradigm_dot,2024.1.5,Win32,60.24096386,682d573fa47f1360d1451895,,,,,,,,,,,173.181,173.6774,,,173.929,174.4767,right,0.54,,,,,,,,,0.45,,,,,,173.6775,173.9289,174.4767,"[-0.15237319229685437,0.09782313562302335]","[1,1,1]","[-0.09323536088574198,0.023333674379093908]","[-1,-1,-1]","[0.006374729535268146,-0.04044301551389372]","[1,1,1]","[-0.012647400344000737,0.038145324879713574]","[1,1,1]","[0.01936440616301915,0.1529056584843907]","[-1,-1,-1]","[0.17224653893794276,0.08673101822553059]","[1,1,1]","[-0.058635785601713,-0.020473774257673338]","[-1,-1,-1]","[0.14121134297805352,-0.13633311568188858]","[-1,-1,-1]","[-0.001577642803633015,-0.08862599723425212]","[1,1,1]","[0.06792059449165684,-0.07465570056819652]","[1,1,1]","[-0.11441809956618708,-0.13291221021150185]","[-1,-1,-1]","[-0.09883144000453513,0.07720773776975036]","[-1,-1,-1]","[0.03988716627506571,-0.12367591467960413]","[-1,-1,-1]","[-0.12662980709147148,-0.0829465487694093]","[-1,-1,-1]","[-0.04793154788258499,0.16825674654958153]","[1,1,1]","[-0.011000957319937228,0.09795361845799554]","[1,1,1]","[0.10805272638319499,0.017891845473692915]","[1,1,1]","[0.091977310505826,0.08448569043606312]","[-1,-1,-1]","[0.06496799371485655,-0.17253263031162028]","[-1,-1,-1]","[0.06053310124410815,0.038626717099102]","[-1,-1,-1]","[0.18337770376570373,0.01665142749659131]","[1,1,1]","[0.10286195217443404,-0.12424480789462328]","[-1,-1,-1]","[0.01980058341059435,0.0716083636651265]","[1,1,1]","[-0.05621573151831291,-0.06300110956495326]","[-1,-1,-1]","[0.14509217576263586,0.12273571105440656]","[-1,-1,-1]","[0.10662679393212571,-0.05819637584113953]","[-1,-1,-1]","[0.0437357002250642,-0.0030767418336174563]","[-1,-1,-1]","[0.0014469101935325461,-0.18575100429310507]","[1,1,1]","[-0.1940614720057062,-0.03866903231167478]","[-1,-1,-1]","[-0.19869644106243006,0.006857616455318024]","[1,1,1]","[-0.11992288699717203,-0.006896690665895054]","[1,1,1]","[-0.05174439108243649,0.053958769199552205]","[-1,-1,-1]","[0.02,0.02]",175.5724,0,19,19,63,1,,,,,,,
,,,,,,,677e4656af6e5525f72fc926,682f0ff2efe88415bdb38bf8,2025-05-22_12h57.56.779,cuing_paradigm_dot,2024.1.5,Win32,60.24096386,682d573fa47f1360d1451895,,,,,,,,,,,175.5739,176.0709,,,176.3235,176.8867,right,0.5514,,,,,,,,,0.45,,,,,,176.0709,176.3232,176.8871,"[-0.1812903746652768,-0.08259136826102846]","[1,1,1]","[-0.007324303273065186,0.024584770349889148]","[1,1,1]","[-0.0425083064451683,-0.1518855422050271]","[-1,-1,-1]","[-0.10266248520686387,0.15502871408533186]","[1,1,1]","[0.07825634475578175,0.025048790867503907]","[-1,-1,-1]","[0.091330637599122,-0.1272530336900974]","[1,1,1]","[0.17276645959747167,-0.007857340419239207]","[1,1,1]","[0.10906589298569543,-0.02913659728607076]","[-1,-1,-1]","[-0.12168193579992305,-0.13924810041297056]","[-1,-1,-1]","[-0.08565015986826817,-0.0023603426370108938]","[1,1,1]","[-0.03842324978172595,-0.09980929525930805]","[-1,-1,-1]","[0.0507242111543032,-0.0770725186646934]","[-1,-1,-1]","[-0.0281720944730989,0.17911273736405633]","[-1,-1,-1]","[-0.05825542858758496,0.09758237827205635]","[1,1,1]","[-0.10502826627107989,0.07929636056923282]","[-1,-1,-1]","[0.005617888226794906,-0.04252956321222039]","[-1,-1,-1]","[0.12318532255301785,0.15215264058488323]","[1,1,1]","[0.04613101677568468,0.12893023690491007]","[-1,-1,-1]","[0.12957762994418762,0.0897045794130405]","[-1,-1,-1]","[-0.196441020499607,-0.003025735827022405]","[1,1,1]","[-0.12174465398288119,-0.06345235875247614]","[-1,-1,-1]","[-0.01051761516619069,0.06792604981829214]","[1,1,1]","[-0.18179828199807668,0.07714437559750907]","[1,1,1]","[0.1253537144016951,-0.08378809556282682]","[-1,-1,-1]","[0.0660953535992534,0.18344112563417092]","[-1,-1,-1]","[-0.13797887762379313,0.13154505537242847]","[-1,-1,-1]","[0.0169488052373747,0.10083091341068888]","[-1,-1,-1]","[0.17724969090451964,-0.06543315499192856]","[1,1,1]","[0.010450118585928541,-0.1831187257816523]","[-1,-1,-1]","[-0.048268592469369924,-0.02778099201395255]","[1,1,1]","[0.15817656770370273,0.05353110900967991]","[-1,-1,-1]","[0.04008064918829937,0.060676597887827144]","[1,1,1]","[0.02,0.02]",177.9834,0,20,20,86,1,,,,,,,
,,,,,,,677e4656af6e5525f72fc926,682f0ff2efe88415bdb38bf8,2025-05-22_12h57.56.779,cuing_paradigm_dot,2024.1.5,Win32,60.24096386,682d573fa47f1360d1451895,,,,,,,,,,,177.9848,178.4819,,,178.7335,179.1801,left,0.4379,,,,,,,,,0.6,,,,,,178.482,178.7334,179.1802,"[-0.09980141118232316,-0.07859446960173587]","[1,1,1]","[0.042531502582389545,-0.15226843187901934]","[1,1,1]","[0.002452845035686518,0.1833377143538629]","[-1,-1,-1]","[0.016275314130069024,-0.11972325916382245]","[1,1,1]","[0.019111241203930457,-0.056333660750940415]","[-1,-1,-1]","[0.033610761609046365,-0.0018179594448419294]","[-1,-1,-1]","[0.1589589620134087,0.01623398606996396]","[1,1,1]","[0.08043397668911872,0.12813935715435443]","[-1,-1,-1]","[-0.10912116343242945,-0.14557466052695162]","[1,1,1]","[-0.056997431321152016,-0.08803628104216514]","[1,1,1]","[-0.1590710129768921,-0.09027723905529803]","[-1,-1,-1]","[0.1534896579633011,-0.03518870023252134]","[1,1,1]","[0.10245500361103824,-0.14649631934873486]","[1,1,1]","[0.007219250238661808,0.036355249470198005]","[1,1,1]","[0.09335490253256738,-0.09989765190657285]","[1,1,1]","[0.015010844553274484,-0.1958206061921133]","[-1,-1,-1]","[-0.15137195435159687,0.09597403877940877]","[1,1,1]","[0.038707884179066586,0.09970417108468184]","[-1,-1,-1]","[-0.12810861752321387,0.00796673777414007]","[1,1,1]","[-0.037220522927623755,-0.18397328690693726]","[1,1,1]","[-0.055725261740408844,0.08723336752529769]","[1,1,1]","[-0.07704808083309332,-0.025481641931791144]","[1,1,1]","[-0.009677212079766288,0.10396811131734848]","[-1,-1,-1]","[0.1015268351616766,0.035078127051245786]","[1,1,1]","[0.14104753180208682,0.08677306280541124]","[-1,-1,-1]","[-0.19032466429073452,-0.048493424762101466]","[1,1,1]","[-0.10536795957999406,0.14821311015029548]","[-1,-1,-1]","[-0.053925605979255345,-0.14601037502472486]","[1,1,1]","[0.1358645009868242,-0.09947670100647561]","[1,1,1]","[0.04723073126841767,0.16227301446985418]","[-1,-1,-1]","[0.09205990568111105,-0.052942661131719096]","[-1,-1,-1]","[-0.05506365851251415,0.17440188896157335]","[-1,-1,-1]","[0.02,0.02]",180.2768,0,21,21,172,1,,,,,,,
,,,,,,,677e4656af6e5525f72fc926,682f0ff2efe88415bdb38bf8,2025-05-22_12h57.56.779,cuing_paradigm_dot,2024.1.5,Win32,60.24096386,682d573fa47f1360d1451895,,,,,,,,,,,180.2787,180.7767,,,181.0285,181.6932,left,0.6569,,,,,,,,,0.55,,,,,,180.7768,181.0284,181.6934,"[-0.1676016432388322,0.05818471308742857]","[1,1,1]","[-0.0763455539618253,0.1306651390825949]","[-1,-1,-1]","[-0.057409715038231376,0.1814936212625989]","[-1,-1,-1]","[-0.18082285317303673,-0.054642818185120554]","[-1,-1,-1]","[0.12532958332374441,-0.1127942339289204]","[1,1,1]","[-0.030041756998582407,-0.11919436802376672]","[-1,-1,-1]","[0.0562403319069814,-0.006065637979116876]","[1,1,1]","[0.0763016164754588,0.07483958056342355]","[-1,-1,-1]","[0.01194023796691887,-0.12867333453995541]","[1,1,1]","[-0.009603790206375607,0.15663704182562396]","[-1,-1,-1]","[0.08201114136822303,-0.12632848676884154]","[1,1,1]","[-0.12455183395570898,0.13178853431646514]","[1,1,1]","[-0.04464765487684957,-0.1749125035211213]","[-1,-1,-1]","[0.05055403059026375,-0.06885091349091094]","[-1,-1,-1]","[-0.012447940936380778,-0.06358382387436015]","[1,1,1]","[-0.09795357712266885,-0.14946355519996865]","[1,1,1]","[-0.13274487041488742,-0.07982346782003683]","[1,1,1]","[0.15263239384783372,-0.03621536856779699]","[-1,-1,-1]","[-0.1530767420165125,-0.0025230817768082596]","[-1,-1,-1]","[0.16753365717530724,0.054985047719995565]","[1,1,1]","[-0.06192567956901489,0.047310306696804874]","[1,1,1]","[0.09429667340362533,-0.058926557383597526]","[1,1,1]","[-0.06662902276233557,-0.06373898996108959]","[1,1,1]","[0.04485797206324824,0.0440421426804569]","[1,1,1]","[0.09112302321002116,0.15678916603790866]","[1,1,1]","[0.1622979324744638,-0.08076862059511028]","[-1,-1,-1]","[0.03642451496651058,-0.19602691104544057]","[1,1,1]","[-0.014822197084189425,0.061577374470087175]","[1,1,1]","[0.1269950293999612,0.08607303343489707]","[-1,-1,-1]","[-0.02668006558829494,0.018803652671038035]","[1,1,1]","[-0.11430796299227948,-0.03975750979155084]","[-1,-1,-1]","[0.1514447239993652,0.007907317786749364]","[-1,-1,-1]","[0.02,0.02]",182.7868,0,22,22,130,1,,,,,,,
,,,,,,,677e4656af6e5525f72fc926,682f0ff2efe88415bdb38bf8,2025-05-22_12h57.56.779,cuing_paradigm_dot,2024.1.5,Win32,60.24096386,682d573fa47f1360d1451895,,,,,,,,,,,182.7901,183.2859,,,183.5379,184.3511,right,0.8052,,,,,,,,,0.55,,,,,,183.2861,183.5379,184.3517,"[-0.032378978198566395,0.1915956814576878]","[1,1,1]","[0.13147694779697303,-0.04643990891688342]","[1,1,1]","[0.06850041823126747,-0.045274257049491576]","[1,1,1]","[-0.12307817657336996,0.04744832720904488]","[-1,-1,-1]","[0.02118557850446347,0.07740550057466665]","[-1,-1,-1]","[-0.032060733851708684,-0.1667625423918585]","[-1,-1,-1]","[-0.07213080046739598,-0.16043424790574706]","[1,1,1]","[-0.10107880466386589,0.15995675123209113]","[1,1,1]","[0.12721234593159633,0.08628638608932288]","[1,1,1]","[0.03150675686760985,-0.09704642639565651]","[1,1,1]","[0.03788541028345929,0.16032116855459697]","[-1,-1,-1]","[-0.1593686891174577,-0.06731964189331599]","[-1,-1,-1]","[0.15638726460572624,-0.08587819686672622]","[-1,-1,-1]","[-0.17847614561514266,0.05791861380042588]","[1,1,1]","[0.08614034196268837,-0.17426712476957987]","[-1,-1,-1]","[-0.08012990257999425,0.0021268712182989343]","[1,1,1]","[0.07595639657677106,0.0816968439674657]","[1,1,1]","[0.013425462109959277,-0.18707462198261982]","[1,1,1]","[0.07690741338970748,-0.1130709368163705]","[-1,-1,-1]","[-0.04450292878396071,0.1522352701740662]","[1,1,1]","[0.12699727007993825,0.011436540758980188]","[-1,-1,-1]","[0.17516067254281306,0.05887760273673817]","[1,1,1]","[-0.08187416281816753,-0.04396846722666608]","[-1,-1,-1]","[-0.04323922793328946,-0.06518948840752725]","[1,1,1]","[-0.04971764225931555,-0.11561507448704374]","[-1,-1,-1]","[-0.17027249727265806,-0.004790972426013548]","[-1,-1,-1]","[-0.029299540371634403,0.006459576388201468]","[1,1,1]","[-0.11532779235101197,0.10890276462549796]","[1,1,1]","[-0.10745044925012731,-0.0990849947951195]","[-1,-1,-1]","[-0.12068187769338735,-0.027724401937439424]","[1,1,1]","[-0.07364718273983155,0.04987578715671841]","[-1,-1,-1]","[0.08437452159627075,0.013176070909005742]","[1,1,1]","[0.02,0.02]",185.4487,0,23,23,131,1,,,,,,,
,,,,,,,677e4656af6e5525f72fc926,682f0ff2efe88415bdb38bf8,2025-05-22_12h57.56.779,cuing_paradigm_dot,2024.1.5,Win32,60.24096386,682d573fa47f1360d1451895,,,,,,,,,,,185.4499,185.9461,,,186.1971,187.1918,right,0.9827,,,,,,,,,0.45,,,,,,185.9463,186.1967,187.1919,"[0.17013463678332783,-0.06938941319965292]","[1,1,1]","[-0.10684801205519132,0.036368620652515005]","[1,1,1]","[-0.07658805177875234,-0.16192589007167962]","[-1,-1,-1]","[0.09908603823524754,-0.05999060728729582]","[-1,-1,-1]","[0.029122246807963808,0.13007809273294]","[1,1,1]","[0.0775061844093631,0.044438932436052646]","[-1,-1,-1]","[0.02074688477549239,-0.0374127190897746]","[-1,-1,-1]","[-0.05406040688331281,0.1646294115909118]","[-1,-1,-1]","[0.057476171403049586,-0.17417365257698245]","[1,1,1]","[0.000723877036942422,-0.13509956970389136]","[-1,-1,-1]","[-0.02399841000013907,-0.18127902142030192]","[1,1,1]","[-0.060600496768910925,0.051778257646066604]","[-1,-1,-1]","[-0.13339662116401202,0.11164105573801254]","[-1,-1,-1]","[0.15849452669182645,0.005429013605813875]","[1,1,1]","[0.08397619821599474,0.09219926635526794]","[-1,-1,-1]","[-0.08937259877025294,-0.03504241725507879]","[1,1,1]","[0.10268884317204416,-0.11359258888121027]","[-1,-1,-1]","[-0.007939538795497088,-0.00796344970801777]","[1,1,1]","[0.18576023811993625,0.06528822556985182]","[-1,-1,-1]","[-0.0765202253859715,-0.08459404132916236]","[1,1,1]","[0.011342955411357861,0.09225540364817195]","[1,1,1]","[-0.1873248834599662,-0.007296938515673075]","[-1,-1,-1]","[-0.039627590597519274,-0.14087908046768705]","[1,1,1]","[-0.02007529339405572,0.03817655834975094]","[1,1,1]","[0.19357742200560887,-0.032789619808306136]","[-1,-1,-1]","[-0.14950600250303162,-0.06190107450558426]","[-1,-1,-1]","[0.12385825808726068,-0.016002205169113264]","[-1,-1,-1]","[-0.051789248484416135,0.11032987731009532]","[1,1,1]","[-0.15723616590848816,0.07016288534130143]","[-1,-1,-1]","[0.09449775881107773,0.16890525469751147]","[1,1,1]","[-0.1524155213678905,0.019086707989982462]","[-1,-1,-1]","[-0.10137203073870601,0.16168753513493822]","[-1,-1,-1]","[0.02,0.02]",188.2891,0,24,24,75,1,,,,,,,
,,,,,,,677e4656af6e5525f72fc926,682f0ff2efe88415bdb38bf8,2025-05-22_12h57.56.779,cuing_paradigm_dot,2024.1.5,Win32,60.24096386,682d573fa47f1360d1451895,,,,,,,,,,,188.2914,188.7898,,,189.0383,189.8373,left,0.7851,,,,,,,,,0.55,,,,,,188.7899,189.0381,189.8374,"[-0.12851745443922413,0.0528473606633253]","[1,1,1]","[-0.03808102156255428,-0.16530538310453868]","[1,1,1]","[0.13454671594183976,0.08030557679152645]","[1,1,1]","[0.08523536513534846,0.10412686448042272]","[-1,-1,-1]","[-0.16679571836352486,-0.039222927381160295]","[-1,-1,-1]","[0.12754145755878576,0.0044778413567498855]","[-1,-1,-1]","[0.050797220236928335,0.1887147894226797]","[-1,-1,-1]","[0.17171029680312389,0.03316897862487255]","[1,1,1]","[-0.06358260772683183,0.006743643821893104]","[1,1,1]","[0.0581332579818832,-0.03237750756859287]","[1,1,1]","[0.13059583306927217,-0.1455724923957817]","[1,1,1]","[0.09744766687856105,-0.08374599033284769]","[-1,-1,-1]","[0.007874023914309521,-0.025642452326843177]","[-1,-1,-1]","[-0.04483392518334116,-0.05663530444775923]","[-1,-1,-1]","[-0.08663797896928574,-0.12240055942141317]","[1,1,1]","[-0.17687958768869733,-0.08940477933532755]","[1,1,1]","[0.023644628375956375,0.025552489272779606]","[1,1,1]","[0.017592291373456543,-0.19539983247731127]","[1,1,1]","[-0.1199414048557193,0.0020899393855229637]","[1,1,1]","[0.02115057669039619,-0.08728156363996803]","[1,1,1]","[0.19740527230199978,-0.02821767613991132]","[-1,-1,-1]","[0.07601083505562525,0.016503578423547115]","[-1,-1,-1]","[0.13115838999941568,-0.04988326298167897]","[1,1,1]","[-0.08725499982072273,0.07955089166342812]","[-1,-1,-1]","[0.002214678411718288,0.1561093885247634]","[1,1,1]","[0.07518982045212401,-0.15157099110937278]","[-1,-1,-1]","[0.18284533173656684,0.07298803248392341]","[1,1,1]","[-0.02627141067448296,0.11268175501368848]","[-1,-1,-1]","[0.01512373567824351,-0.1311133780410771]","[1,1,1]","[-0.12534313695438995,-0.07708435876231867]","[-1,-1,-1]","[-0.1055945359524426,0.14815567132462312]","[1,1,1]","[-0.03841520801730977,0.06724681719723195]","[-1,-1,-1]","[0.02,0.02]",190.9326,0,25,25,136,1,,,,,,,
,,,,,,,677e4656af6e5525f72fc926,682f0ff2efe88415bdb38bf8,2025-05-22_12h57.56.779,cuing_paradigm_dot,2024.1.5,Win32,60.24096386,682d573fa47f1360d1451895,,,,,,,,,,,190.9335,191.4311,,,191.6808,192.3968,left,0.7079,,,,,,,,,0.5,,,,,,191.4312,191.6807,192.3969,"[-0.0343571447233578,-0.11205160644680073]","[-1,-1,-1]","[0.08513616270091172,0.07911750758695055]","[-1,-1,-1]","[-0.10940969936337572,0.0051973513972756]","[1,1,1]","[-0.13956431578936038,0.09036470768498801]","[-1,-1,-1]","[0.1438360690257436,0.027108132655915676]","[1,1,1]","[-0.09120662061495999,-0.044847878975482064]","[1,1,1]","[0.13651279394581484,-0.03377253451128024]","[1,1,1]","[0.010618226318201736,0.16792131857646456]","[-1,-1,-1]","[-0.11746889990531977,-0.07997635678060669]","[1,1,1]","[-0.08012356601978347,0.1614858159503748]","[-1,-1,-1]","[0.1289322372285199,-0.1521080218382147]","[-1,-1,-1]","[-0.0392850779232585,0.11537279790852491]","[-1,-1,-1]","[0.0010548912370690457,-0.030245050478280647]","[1,1,1]","[0.027729205357111274,0.007624645635932629]","[1,1,1]","[-0.18883995553624736,-0.061514873445224015]","[-1,-1,-1]","[0.058177864704880546,-0.14813868282567874]","[1,1,1]","[0.127427646010116,0.08510195803906048]","[1,1,1]","[-0.17708968056428576,0.03398832590557123]","[-1,-1,-1]","[0.104262600533043,0.14124840669720884]","[-1,-1,-1]","[-0.03856336383652893,0.06335021781052481]","[-1,-1,-1]","[0.0716957018167782,-0.052430892102175976]","[-1,-1,-1]","[0.060655051948160184,0.16931219571440415]","[-1,-1,-1]","[-0.10646111721115939,-0.13393449832773063]","[1,1,1]","[-0.01367217049634828,-0.07370133083835798]","[1,1,1]","[-0.16432459424295828,-0.10595728362298823]","[1,1,1]","[-0.028828831835985395,-0.1612441182523518]","[1,1,1]","[-0.09751510808858714,0.05297117370439452]","[-1,-1,-1]","[0.171130948568783,-0.062271168715101355]","[1,1,1]","[0.06645005095425847,0.11739680150155841]","[1,1,1]","[-0.05011960877177754,-0.013697430926364941]","[1,1,1]","[0.07461893923483463,-0.09561119068228081]","[-1,-1,-1]","[0.03084123235849541,-0.19401129079240456]","[-1,-1,-1]","[0.02,0.02]",193.4917,0,26,26,95,1,,,,,,,
,,,,,,,677e4656af6e5525f72fc926,682f0ff2efe88415bdb38bf8,2025-05-22_12h57.56.779,cuing_paradigm_dot,2024.1.5,Win32,60.24096386,682d573fa47f1360d1451895,,,,,,,,,,,193.4935,193.9904,,,194.2412,194.8719,right,0.6176,,,,,,,,,0.4,,,,,,193.9905,194.2411,194.872,"[0.1581865726492918,0.05786080599012966]","[1,1,1]","[-0.12945590241547902,-0.07618726197632969]","[1,1,1]","[0.08854478193615326,-0.026663520175556173]","[-1,-1,-1]","[0.07732020109613512,0.10487986861978488]","[-1,-1,-1]","[-0.09284682531426117,-0.1669024001875732]","[1,1,1]","[-0.025785308075390576,0.0047513500534108405]","[1,1,1]","[0.021893371765521332,-0.040535932684313616]","[1,1,1]","[-0.12810519271110654,0.14389774452051118]","[1,1,1]","[0.12405652482354937,0.10442522247431983]","[1,1,1]","[-0.1228181563990598,-0.12760678306451007]","[1,1,1]","[0.07061057316321888,-0.10198734259752758]","[-1,-1,-1]","[-0.0018566148078823957,-0.13100339242788447]","[-1,-1,-1]","[0.05413032353433574,0.05169577875228384]","[-1,-1,-1]","[-0.08190227262033764,0.03299005408849845]","[1,1,1]","[-0.014411100490858298,0.13124815911382556]","[-1,-1,-1]","[-0.15593389339196348,-0.032620598937885215]","[1,1,1]","[-0.10900181408440827,-0.01050499700488645]","[-1,-1,-1]","[0.12557897721613848,-0.10862438027655856]","[-1,-1,-1]","[-0.19002760322353876,0.033632792635631646]","[-1,-1,-1]","[0.06698360297430768,-0.16480690612894244]","[-1,-1,-1]","[-0.04257011490093092,-0.18997101465760802]","[-1,-1,-1]","[-0.07795721609136487,0.08807663024558646]","[-1,-1,-1]","[0.18580229551763944,-0.0033169472750461683]","[-1,-1,-1]","[-0.13325347526839976,0.044806170684091755]","[-1,-1,-1]","[0.008236072498115449,0.17890597992090382]","[1,1,1]","[-0.020526973064725496,-0.05386890617824559]","[1,1,1]","[-0.0690721481183459,-0.06832768556166288]","[-1,-1,-1]","[-0.16590177315889187,0.10905816144364379]","[-1,-1,-1]","[0.11559767589507226,0.056755725397941506]","[1,1,1]","[0.05927400239469837,0.15486107328865473]","[-1,-1,-1]","[-0.010086504611945662,0.08393120271421624]","[-1,-1,-1]","[-0.03530854763387766,0.19548286465521955]","[-1,-1,-1]","[0.02,0.02]",195.9685,0,27,27,58,1,,,,,,,
,,,,,,,677e4656af6e5525f72fc926,682f0ff2efe88415bdb38bf8,2025-05-22_12h57.56.779,cuing_paradigm_dot,2024.1.5,Win32,60.24096386,682d573fa47f1360d1451895,,,,,,,,,,,195.9706,196.4673,,,196.7181,197.3815,left,0.65,,,,,,,,,0.9,,,,,,196.4674,196.718,197.3817,"[0.09571480933030267,0.12779922845483077]","[1,1,1]","[0.06847757145452575,-0.07848433916807347]","[1,1,1]","[0.038804588096463484,-0.14096015398822062]","[1,1,1]","[-0.03374694352766043,-0.062185945286798654]","[1,1,1]","[-0.11869455879694857,0.04088962175348788]","[1,1,1]","[-0.03102445164964414,-0.1900636458836379]","[1,1,1]","[0.15614953465766768,-0.030403806677075502]","[1,1,1]","[-0.1382988201528808,-0.015511160114178262]","[1,1,1]","[-0.10914757002535107,-0.04548969201655519]","[1,1,1]","[0.14559993695136492,0.07546933582541197]","[1,1,1]","[0.0035828079777931103,0.17078066799559596]","[1,1,1]","[-0.07328691104736168,0.037443586247484055]","[1,1,1]","[0.07208771239808007,0.07695702764180776]","[-1,-1,-1]","[0.10664037171027661,0.05667035858719037]","[1,1,1]","[-0.09177748137272868,-0.10402989496298717]","[-1,-1,-1]","[0.014287480695401407,-0.057840356249925014]","[1,1,1]","[-0.15234831093259552,-0.09410831981904151]","[1,1,1]","[0.0025290064274460784,-0.163282595187876]","[1,1,1]","[-0.07408187553516529,0.11633504169527314]","[1,1,1]","[-0.051707673746468244,0.16410846614994282]","[1,1,1]","[0.04711909990967639,-0.1932645295669069]","[1,1,1]","[0.13227975643661136,-0.11562176720647649]","[1,1,1]","[0.015152739377162586,0.050461506565786275]","[-1,-1,-1]","[0.08394763988903096,-0.1165797083015271]","[1,1,1]","[0.030693669338539294,-0.0038094616887083418]","[1,1,1]","[0.06342528252991755,0.0346737504120212]","[1,1,1]","[0.013903353416827965,-0.10636745003621906]","[1,1,1]","[-0.1750066230839171,0.03526612264025234]","[1,1,1]","[-0.0319264445486177,0.015801167361352182]","[1,1,1]","[0.022896301724426513,0.09352588833598183]","[1,1,1]","[-0.088445400061004,-0.15608438469631894]","[1,1,1]","[-0.031091043492535088,0.11116661769945173]","[1,1,1]","[0.02,0.02]",198.4784,0,28,28,200,1,,,,,,,
,,,,,,,677e4656af6e5525f72fc926,682f0ff2efe88415bdb38bf8,2025-05-22_12h57.56.779,cuing_paradigm_dot,2024.1.5,Win32,60.24096386,682d573fa47f1360d1451895,,,,,,,,,,,198.4799,198.9773,,,199.228,199.9918,left,0.7509,,,,,,,,,0.55,,,,,,198.9774,199.2279,199.9919,"[-0.11717876239113498,-0.05796300015547506]","[1,1,1]","[0.18209484698700845,0.04608643942646527]","[1,1,1]","[0.10193454696590493,-0.17042334155265262]","[1,1,1]","[0.0016475486737820386,0.006202306463893868]","[1,1,1]","[0.0886020695718253,0.1642106915503551]","[-1,-1,-1]","[0.055211850169544094,-0.0268273940613836]","[1,1,1]","[0.03785160605493842,0.15643182630538677]","[-1,-1,-1]","[-0.06609024628228197,-0.11214795972395471]","[1,1,1]","[0.045348048528622835,0.05469390330178644]","[1,1,1]","[-0.17586164671447024,-0.03633645631657227]","[-1,-1,-1]","[-0.01253351021715484,0.15154671985541573]","[-1,-1,-1]","[-0.0649035698919184,0.1483029023790045]","[-1,-1,-1]","[-0.12685349667444717,-0.13584604744460185]","[1,1,1]","[0.1117295336599557,0.12900661276417882]","[1,1,1]","[0.011658191907726505,-0.16860423470775712]","[1,1,1]","[-0.14324695481271804,-0.012841896001651882]","[-1,-1,-1]","[0.03653575185165558,-0.1271415537550649]","[1,1,1]","[-0.058645966362800346,0.10268419914997978]","[-1,-1,-1]","[0.09339677926662428,-0.001700273217980903]","[-1,-1,-1]","[0.14227043792082203,-0.020642890053878274]","[-1,-1,-1]","[-0.1449745821888911,0.08339981327429011]","[1,1,1]","[-0.08656262692432899,-0.15539590163401137]","[-1,-1,-1]","[0.006038875437842257,-0.0574248875719777]","[1,1,1]","[0.09088739712673502,-0.07388258901769232]","[-1,-1,-1]","[0.19037138792274702,-0.003169627835722678]","[1,1,1]","[-0.014450514749866736,-0.13340793634482653]","[1,1,1]","[-0.07616275622714568,0.05435532674304343]","[1,1,1]","[-0.1537930831874426,-0.10011022114783784]","[-1,-1,-1]","[0.07711385404992656,-0.12646237055736206]","[-1,-1,-1]","[-0.09912704622209982,0.09265544793007943]","[1,1,1]","[-0.07073044776470777,-0.06298471080881125]","[1,1,1]","[0.03611304243920237,0.10133553530810227]","[-1,-1,-1]","[0.02,0.02]",201.0883,0,29,29,147,1,,,,,,,
,,,,,,,677e4656af6e5525f72fc926,682f0ff2efe88415bdb38bf8,2025-05-22_12h57.56.779,cuing_paradigm_dot,2024.1.5,Win32,60.24096386,682d573fa47f1360d1451895,,,,,,,,,,,201.0902,201.5872,,,201.8377,202.6511,right,0.7995,,,,,,,,,0.6,,,,,,201.5873,201.8376,202.6514,"[-0.0340147609851443,0.012912693464134926]","[-1,-1,-1]","[-0.12657636202709555,0.1310165651284307]","[1,1,1]","[-0.03812546877858666,-0.12686362842027274]","[1,1,1]","[-0.16556949936050916,0.024714879788594452]","[1,1,1]","[0.12382449024296527,0.00863538434875367]","[-1,-1,-1]","[-0.1584791019710547,0.07667459087935315]","[1,1,1]","[0.09581407368270746,0.04987671577035836]","[1,1,1]","[0.18518121032605409,0.051824891837902114]","[1,1,1]","[-0.13287349954269914,-0.12609732734853646]","[-1,-1,-1]","[-0.07720209350206737,-0.041317229968010474]","[-1,-1,-1]","[-0.09335388386256657,0.02497801321461057]","[1,1,1]","[0.0960659405787181,-0.06761585661814774]","[-1,-1,-1]","[0.004103018547107235,-0.002534591360271784]","[-1,-1,-1]","[0.0830272392977975,0.15456070720733828]","[1,1,1]","[0.12127870629172376,0.11251451886235626]","[1,1,1]","[0.042797504627475925,-0.06142541139130372]","[1,1,1]","[0.027975195296700135,0.13480690004997117]","[-1,-1,-1]","[0.03658639886627152,-0.1914328719668695]","[-1,-1,-1]","[-0.18139485161380894,-0.07558175762870076]","[-1,-1,-1]","[-0.06629681346852798,0.09898650284548123]","[1,1,1]","[-0.011950300701491024,0.08354018260149239]","[1,1,1]","[-0.0812443249546536,-0.1512940886857721]","[1,1,1]","[-0.04579916650965246,0.13985442118557617]","[1,1,1]","[-0.0013313674407790985,0.1633494632803043]","[1,1,1]","[-0.11778452579645206,-0.019415989989136243]","[1,1,1]","[0.05583807348661209,0.02209197780422636]","[1,1,1]","[0.1526534961154852,-0.10055735578845805]","[1,1,1]","[0.15206153522122762,-0.05135885585343657]","[-1,-1,-1]","[0.05545180680717155,-0.10977959793436282]","[-1,-1,-1]","[0.01352900614412647,-0.09616945705419527]","[-1,-1,-1]","[-0.03248256116641489,-0.1963302340349452]","[1,1,1]","[-0.04696216625014502,0.06196983928484904]","[-1,-1,-1]","[0.02,0.02]",203.7481,0,30,30,177,1,,,,,,,
,,,,,,,677e4656af6e5525f72fc926,682f0ff2efe88415bdb38bf8,2025-05-22_12h57.56.779,cuing_paradigm_dot,2024.1.5,Win32,60.24096386,682d573fa47f1360d1451895,,,,,,,,,,,203.7495,204.2467,,,204.4971,204.9797,left,0.4725,,,,,,,,,0.9,,,,,,204.2467,204.4971,204.9798,"[-0.16616913552397436,-0.10532010979350374]","[1,1,1]","[0.011657983873417111,-0.06687069726410573]","[1,1,1]","[0.13553107100419504,-0.02170255870654694]","[1,1,1]","[0.019800740095765292,0.10204678317584778]","[1,1,1]","[0.05431256909421615,-0.05817796280479223]","[-1,-1,-1]","[-0.03631120215934471,0.004398213446435836]","[1,1,1]","[-0.06599249791923886,-0.15918734590271258]","[1,1,1]","[-0.02504817984048169,0.07585362497493046]","[1,1,1]","[-0.12611921671479323,-0.0795552080083116]","[1,1,1]","[-0.11935483447695673,0.09817983599980905]","[1,1,1]","[0.1594357941622787,0.07601701916543853]","[1,1,1]","[-0.15789232681427154,0.04522376383728585]","[1,1,1]","[0.12227961977653413,-0.12140366164212754]","[1,1,1]","[0.18850274147452292,-0.02229855360902816]","[1,1,1]","[0.013733226075913898,0.03710445919508014]","[1,1,1]","[0.07626643478736167,0.015229025206482462]","[1,1,1]","[-0.05774177720477726,-0.0586093977584826]","[1,1,1]","[-0.08017809992005225,-0.09214463238590691]","[-1,-1,-1]","[0.06689400212885581,0.18411950065676483]","[-1,-1,-1]","[0.08973468988114695,0.10433527734937321]","[1,1,1]","[-0.10895165544188425,0.16458630559050075]","[1,1,1]","[-0.10097987663705141,0.00009207397052179993]","[1,1,1]","[-0.05317893226509504,0.16347841399549629]","[1,1,1]","[-0.0030614555012274717,-0.10886101349092484]","[1,1,1]","[0.044518299781116245,-0.16320511063616933]","[1,1,1]","[-0.19096189718395382,-0.0569126549894505]","[1,1,1]","[-0.0821248888019059,0.05544535071813826]","[1,1,1]","[0.05812092641230949,0.13385335231530485]","[1,1,1]","[0.006145082063620962,-0.17730564812640065]","[1,1,1]","[-0.009891384614879335,0.19772177875978847]","[1,1,1]","[0.006326797582233728,-0.02052816723177781]","[1,1,1]","[0.16966625170242627,-0.09274322670092909]","[1,1,1]","[0.02,0.02]",206.0753,0,31,31,198,1,,,,,,,
,,,,,,,677e4656af6e5525f72fc926,682f0ff2efe88415bdb38bf8,2025-05-22_12h57.56.779,cuing_paradigm_dot,2024.1.5,Win32,60.24096386,682d573fa47f1360d1451895,,,,,,,,,,,206.0767,206.5738,,,206.8246,207.2559,right,0.4173,,,,,,,,,0.4,,,,,,206.5739,206.8245,207.256,"[0.10938820205705661,0.017910687212525343]","[-1,-1,-1]","[-0.15227439753851996,-0.017172278328389107]","[1,1,1]","[0.09295263360293358,-0.0932148951956642]","[-1,-1,-1]","[-0.1432955136480581,0.06610647465575198]","[1,1,1]","[-0.07757568958520769,0.03155576959302555]","[-1,-1,-1]","[0.13802989459195542,-0.10167720669202522]","[-1,-1,-1]","[-0.054272502226733924,-0.13024830874059196]","[1,1,1]","[0.04747111020942798,-0.08880288385053381]","[1,1,1]","[0.0008490897408057281,0.08561022839740327]","[1,1,1]","[-0.034555632089307925,0.05426555192520527]","[-1,-1,-1]","[-0.07651322066182331,-0.06404167130149835]","[-1,-1,-1]","[0.1067687579364805,0.12109990072043017]","[-1,-1,-1]","[-0.011929995727496142,-0.05759913890346196]","[-1,-1,-1]","[-0.1132625348619728,-0.04601833280002946]","[-1,-1,-1]","[-0.11268471027199924,0.11452883201288774]","[1,1,1]","[-0.06312597288847731,0.17743888410138806]","[1,1,1]","[0.044536916158686615,-0.15014708551975026]","[-1,-1,-1]","[0.16870121398475502,0.10329820818179287]","[-1,-1,-1]","[0.08725162632845086,-0.030021220401124968]","[-1,-1,-1]","[0.08781771428362452,-0.1694482089453496]","[-1,-1,-1]","[0.13377346357897715,0.06029603199032117]","[-1,-1,-1]","[0.05127977929926155,0.11888880510067558]","[1,1,1]","[-0.18695538177128326,0.00724167804798038]","[1,1,1]","[-0.08356561903547438,-0.16644777408637998]","[-1,-1,-1]","[0.07029396207507417,0.17322094962726814]","[1,1,1]","[-0.18407708986236762,-0.0754841494511675]","[-1,-1,-1]","[-0.01926366419468186,0.009334600739115493]","[1,1,1]","[-0.1910554504425655,0.05587548667920037]","[1,1,1]","[0.01115894084725351,-0.19482700070667228]","[-1,-1,-1]","[0.1654814576691633,-0.010826173604970893]","[-1,-1,-1]","[-0.004842268807229529,0.1475362821596705]","[-1,-1,-1]","[-0.02194419481491522,-0.1645723490995682]","[1,1,1]","[0.02,0.02]",208.3521,0,32,32,34,1,,,,,,,
,,,,,,,677e4656af6e5525f72fc926,682f0ff2efe88415bdb38bf8,2025-05-22_12h57.56.779,cuing_paradigm_dot,2024.1.5,Win32,60.24096386,682d573fa47f1360d1451895,,,,,,,,,,,208.3535,208.8513,,,209.1018,210.1311,left,1.0166,,,,,,,,,0.4,,,,,,208.8513,209.1017,210.1311,"[-0.16696931615868907,-0.031153759555591357]","[1,1,1]","[0.1136211994845896,0.008133939919863033]","[1,1,1]","[-0.013131374979113018,0.039637343286921686]","[1,1,1]","[-0.11634523641074547,-0.031176692557297374]","[-1,-1,-1]","[0.16180782651105083,-0.02334349922124651]","[-1,-1,-1]","[0.06641094028523382,-0.1127631520702958]","[-1,-1,-1]","[-0.11067315013103722,0.1646725885213433]","[-1,-1,-1]","[0.10313410170102731,0.11033115424852688]","[-1,-1,-1]","[0.1823284917415267,0.04593642224118202]","[-1,-1,-1]","[0.040797693453153434,0.18532290019084635]","[-1,-1,-1]","[-0.008650081179667646,0.16844319878500394]","[-1,-1,-1]","[0.14205932245880348,-0.10107082545872352]","[1,1,1]","[-0.059292146130269036,0.006630033531940631]","[1,1,1]","[-0.12043931258443179,-0.15592384599069176]","[-1,-1,-1]","[-0.16050715003527696,0.01185471666835667]","[-1,-1,-1]","[-0.022841175417803183,-0.062147991883202934]","[-1,-1,-1]","[-0.04968894783042353,-0.1002807626488725]","[-1,-1,-1]","[0.12219226009177356,0.047684898314480875]","[1,1,1]","[-0.16399733034906733,-0.09128381905827254]","[-1,-1,-1]","[-0.004429301752731715,-0.15212681964923486]","[1,1,1]","[0.03965255123891129,0.12628719197220795]","[1,1,1]","[0.10079361101062187,0.16791157760308667]","[-1,-1,-1]","[-0.07353890484343396,-0.1838648895776511]","[-1,-1,-1]","[0.15133471915588198,0.11882052644583707]","[-1,-1,-1]","[-0.07856140227545914,0.08401303303603948]","[1,1,1]","[-0.0181571905579423,-0.021203597417735625]","[-1,-1,-1]","[-0.0278827346481948,0.11362264108357727]","[1,1,1]","[-0.08840751995222866,-0.08689807883255087]","[-1,-1,-1]","[0.10674317591440484,-0.050249178534491956]","[1,1,1]","[0.179397723357477,-0.08094629393179967]","[1,1,1]","[0.08101098640676627,0.04318352703305186]","[-1,-1,-1]","[-0.1260341350152704,0.10634502432618088]","[1,1,1]","[0.02,0.02]",211.2281,0,33,33,51,1,,,,,,,
,,,,,,,677e4656af6e5525f72fc926,682f0ff2efe88415bdb38bf8,2025-05-22_12h57.56.779,cuing_paradigm_dot,2024.1.5,Win32,60.24096386,682d573fa47f1360d1451895,,,,,,,,,,,211.2296,211.7268,,,211.9798,212.6421,right,0.6522,,,,,,,,,0.4,,,,,,211.7269,211.9797,212.6424,"[-0.0588484738296318,-0.04826551099071163]","[-1,-1,-1]","[-0.01885962810077567,-0.009791728708665928]","[1,1,1]","[-0.16987700074831033,0.01114906388747578]","[-1,-1,-1]","[-0.15968294483503495,-0.08781846743772655]","[-1,-1,-1]","[0.009120500338237884,-0.06200101027860829]","[-1,-1,-1]","[-0.049022985580207096,0.05430290294970854]","[-1,-1,-1]","[-0.19293756092555037,-0.050528996346131554]","[-1,-1,-1]","[-0.0766827604820181,0.16943371684910244]","[1,1,1]","[-0.07786925519710865,-0.1304543064011826]","[1,1,1]","[0.17777322409616425,0.07080049290063777]","[1,1,1]","[0.030432705822205235,-0.17368987666814173]","[-1,-1,-1]","[0.04749197466646508,0.051148111281100764]","[1,1,1]","[0.08425724340992813,-0.026797476552121734]","[-1,-1,-1]","[0.13385373895759373,0.09489173484814671]","[1,1,1]","[-0.10274944789084031,0.008199297921506784]","[1,1,1]","[-0.1249891089849243,-0.13461657942252764]","[-1,-1,-1]","[-0.11633130957556596,0.11015344837599048]","[-1,-1,-1]","[0.13280996853099183,-0.0013857652304545155]","[1,1,1]","[0.08499479929242584,-0.16759662681267654]","[-1,-1,-1]","[0.05238526717335781,0.1476126344213524]","[-1,-1,-1]","[-0.08757202859891561,-0.1775367661153557]","[1,1,1]","[0.08184878105844,-0.07414043002368409]","[-1,-1,-1]","[-0.1493061363134304,0.05887431493818457]","[1,1,1]","[-0.10939874631100699,0.06613482789388904]","[1,1,1]","[0.0009372896815024021,0.1944503518273284]","[-1,-1,-1]","[-0.03217621475604018,-0.14169938658443]","[-1,-1,-1]","[0.15672395240073425,-0.08861089797916931]","[-1,-1,-1]","[-0.0020423035487865822,0.13864323430526948]","[1,1,1]","[0.1095661249771709,-0.11597266846506467]","[1,1,1]","[-0.14796242496997516,-0.02536520580547839]","[-1,-1,-1]","[-0.0632374147690708,0.10570767914241085]","[-1,-1,-1]","[0.10062936471669273,0.023002235387138133]","[-1,-1,-1]","[0.02,0.02]",213.7393,0,34,34,52,1,,,,,,,
,,,,,,,677e4656af6e5525f72fc926,682f0ff2efe88415bdb38bf8,2025-05-22_12h57.56.779,cuing_paradigm_dot,2024.1.5,Win32,60.24096386,682d573fa47f1360d1451895,,,,,,,,,,,213.7418,214.2374,,,214.4903,214.8201,right,0.3175,,,,,,,,,0.1,,,,,,214.2375,214.4902,214.8204,"[-0.04591211992212206,0.06874064227230291]","[-1,-1,-1]","[0.14336697333278695,0.044648135666787485]","[-1,-1,-1]","[0.05415664462084848,0.10434190365722723]","[-1,-1,-1]","[-0.12360442981646097,-0.11470817572710676]","[-1,-1,-1]","[0.08741262229811388,0.13680929073482284]","[-1,-1,-1]","[-0.1676717171227197,-0.0005394176486856425]","[-1,-1,-1]","[-0.11945156096276059,0.09827187665453095]","[-1,-1,-1]","[-0.1973720975702402,-0.03040561072257694]","[-1,-1,-1]","[-0.10008772454754976,0.00506427586137213]","[-1,-1,-1]","[-0.16984659748728262,-0.09264458803184004]","[-1,-1,-1]","[-0.08027148064639988,-0.04332016241494392]","[-1,-1,-1]","[-0.08607887352949603,0.14950341280593243]","[-1,-1,-1]","[0.1495644009368687,-0.10946209130553193]","[-1,-1,-1]","[0.08641138409597114,0.032830289205958076]","[-1,-1,-1]","[-0.007266316599419113,-0.029043814551360146]","[-1,-1,-1]","[-0.007629521497542467,-0.17345978207624352]","[-1,-1,-1]","[0.06607339681869058,-0.07678827452749025]","[-1,-1,-1]","[-0.041058228325333644,0.13008742878886895]","[1,1,1]","[-0.03125520721465849,-0.11979313686569829]","[-1,-1,-1]","[0.007069131336053213,0.11259751544408692]","[-1,-1,-1]","[0.07741711172339413,-0.15597142637348743]","[-1,-1,-1]","[0.11838646854027231,-0.056158403947650835]","[-1,-1,-1]","[-0.06881645497752756,-0.14302278188852754]","[-1,-1,-1]","[-0.05160058450467142,0.19013137696630064]","[1,1,1]","[0.18520447136804696,0.058791136796895974]","[-1,-1,-1]","[-0.05226089738130713,0.025294237695869408]","[-1,-1,-1]","[0.12271250666671134,-0.006541891599090415]","[-1,-1,-1]","[0.1938564954633676,0.013959994709387916]","[-1,-1,-1]","[0.007075890942621844,0.051167020579053306]","[-1,-1,-1]","[0.045967563762345905,0.16748109217408172]","[-1,-1,-1]","[-0.06881837774464761,-0.18416195606302085]","[-1,-1,-1]","[-0.176608783546433,0.06442908256937173]","[1,1,1]","[0.02,0.02]",215.9165,0,35,35,6,1,,,,,,,
,,,,,,,677e4656af6e5525f72fc926,682f0ff2efe88415bdb38bf8,2025-05-22_12h57.56.779,cuing_paradigm_dot,2024.1.5,Win32,60.24096386,682d573fa47f1360d1451895,,,,,,,,,,,215.918,216.4151,,,216.6662,217.4124,left,0.7357,,,,,,,,,0.55,,,,,,216.4152,216.666,217.4127,"[-0.09734470186385091,0.13306797876307055]","[1,1,1]","[-0.14177171129935232,-0.02808675573893007]","[-1,-1,-1]","[-0.04198427473326078,0.07275887207042041]","[-1,-1,-1]","[0.11215530339828639,-0.07039200221432121]","[1,1,1]","[-0.03024853914248401,0.01807629693241327]","[-1,-1,-1]","[0.040020238833977796,0.060454459200975245]","[-1,-1,-1]","[0.12001714660782138,0.1090029830730203]","[-1,-1,-1]","[-0.15171812047327693,0.039383939737662424]","[-1,-1,-1]","[0.0876061829920641,0.14757602722389035]","[1,1,1]","[-0.06934904716746462,0.16366225762105757]","[1,1,1]","[0.15538287625620129,-0.03990033975704002]","[-1,-1,-1]","[-0.09458302243041077,-0.11129960721817624]","[1,1,1]","[-0.10966721740682703,0.003823052017021234]","[-1,-1,-1]","[-0.03919423512277739,0.11725356010843019]","[1,1,1]","[0.019918277934461513,0.1954703940972609]","[1,1,1]","[0.0871880314373943,0.010220573719464335]","[1,1,1]","[0.021256509939853348,0.13739796674335866]","[1,1,1]","[0.04438123022109689,-0.05980903378987544]","[1,1,1]","[-0.005396077838801361,-0.05623721842031754]","[1,1,1]","[0.13396303803618229,-0.14147387597850503]","[1,1,1]","[-0.04676168472190237,-0.04566557674760477]","[-1,-1,-1]","[0.15685270714239274,0.07241353384115853]","[-1,-1,-1]","[0.05175059640090622,0.10520959457068547]","[-1,-1,-1]","[0.06531726816273827,-0.09811319286584372]","[1,1,1]","[-0.0230955449685786,0.17110193278492541]","[-1,-1,-1]","[-0.16266785695286634,-0.10899413017095985]","[1,1,1]","[-0.18551659357652597,-0.018307112762187706]","[1,1,1]","[-0.104136715161129,-0.04771476132549111]","[1,1,1]","[-0.0025532403204701435,0.10030636034100329]","[-1,-1,-1]","[0.03063249035721723,-0.17621102681095954]","[1,1,1]","[0.05963626927848564,0.18701014720138212]","[-1,-1,-1]","[-0.12305991563490297,0.08973427142427283]","[1,1,1]","[0.02,0.02]",218.5104,0,36,36,125,1,,,,,,,
,,,,,,,677e4656af6e5525f72fc926,682f0ff2efe88415bdb38bf8,2025-05-22_12h57.56.779,cuing_paradigm_dot,2024.1.5,Win32,60.24096386,682d573fa47f1360d1451895,,,,,,,,,,,218.5121,219.0097,,,219.2581,219.6067,left,0.3346,,,,,,,,,0.1,,,,,,219.0098,219.258,219.6068,"[-0.15273806680345545,-0.11815980265257224]","[-1,-1,-1]","[0.19560799129523448,-0.004688795619919345]","[-1,-1,-1]","[-0.035440095646065664,-0.09783798858294072]","[-1,-1,-1]","[0.047391842983553444,-0.020295512189330612]","[-1,-1,-1]","[-0.15558982427471843,-0.022219131170604794]","[-1,-1,-1]","[-0.08147433296317594,-0.03092291456878276]","[-1,-1,-1]","[0.13369338402365266,-0.03442149931711777]","[-1,-1,-1]","[-0.040219638821341566,0.18847529774259944]","[-1,-1,-1]","[-0.10648500484195035,0.06245501956182373]","[-1,-1,-1]","[0.01259396890814306,0.1180517205563816]","[-1,-1,-1]","[0.17333062216109216,0.04101632805442996]","[1,1,1]","[0.05799031225411376,-0.09922976240543502]","[1,1,1]","[-0.12190214161574002,0.15335465743027804]","[-1,-1,-1]","[-0.06278298853903458,0.11402555053463577]","[-1,-1,-1]","[0.051272492042932286,0.13031113063771976]","[-1,-1,-1]","[0.011468102809593704,0.17379090143300246]","[-1,-1,-1]","[0.07293097092233976,0.05548353630138824]","[-1,-1,-1]","[-0.047499115792101664,-0.00227726016947921]","[-1,-1,-1]","[0.007520979630660889,-0.043985872342447566]","[-1,-1,-1]","[0.10757387872387858,0.13436703459627203]","[-1,-1,-1]","[-0.047438737301860164,-0.0549781484897007]","[-1,-1,-1]","[-0.007808274469115644,0.003008938649033231]","[-1,-1,-1]","[-0.16137980319929798,0.10599231197236741]","[-1,-1,-1]","[0.11315446141891233,-0.15534760210510695]","[1,1,1]","[-0.01000720441293352,-0.13998267535985162]","[-1,-1,-1]","[0.011147180088060038,0.06388165408735409]","[-1,-1,-1]","[0.14882353584428645,-0.10321061899954387]","[-1,-1,-1]","[-0.1290009437662849,-0.07432924601325401]","[-1,-1,-1]","[0.10308564931474032,0.007292353049188214]","[-1,-1,-1]","[-0.07962679171467124,-0.1419629900017905]","[-1,-1,-1]","[0.08576214686653316,0.09745861783590284]","[-1,-1,-1]","[0.14486253343652686,0.0861400652519052]","[-1,-1,-1]","[0.02,0.02]",220.7032,0,37,37,21,1,,,,,,,
,,,,,,,677e4656af6e5525f72fc926,682f0ff2efe88415bdb38bf8,2025-05-22_12h57.56.779,cuing_paradigm_dot,2024.1.5,Win32,60.24096386,682d573fa47f1360d1451895,,,,,,,,,,,220.7048,221.2015,,,221.4505,222.1193,right,0.6608,,,,,,,,,0.45,,,,,,221.2016,221.4505,222.1202,"[-0.0616169573177072,0.1797136762906617]","[-1,-1,-1]","[0.0009540425618841133,0.03351941725307934]","[-1,-1,-1]","[0.1329021960990987,0.03625046762363857]","[-1,-1,-1]","[0.1632947451053695,-0.11359299072655993]","[-1,-1,-1]","[-0.08321128840134573,-0.07877604720094336]","[-1,-1,-1]","[-0.05598066318543071,-0.13471717214459275]","[-1,-1,-1]","[-0.0872058422207657,0.10262257103880092]","[1,1,1]","[-0.050358478186910985,-0.016134048150942628]","[1,1,1]","[0.010322476032611771,0.08369789550916551]","[1,1,1]","[0.19200164420349292,0.027480560225105886]","[1,1,1]","[-0.04498578579348827,-0.18125836230313377]","[-1,-1,-1]","[0.08845154485510184,0.15330570842745428]","[-1,-1,-1]","[0.02712828551313258,0.12029934174553122]","[1,1,1]","[0.11443546512572436,-0.030261051036589284]","[1,1,1]","[-0.1796778443216071,0.06893822138291306]","[-1,-1,-1]","[-0.021217756430102413,0.17168548934786626]","[-1,-1,-1]","[0.10127663740806322,-0.0862722002732567]","[-1,-1,-1]","[-0.15829269127609835,-0.060203012096798764]","[-1,-1,-1]","[0.1385796525294033,0.10198421459491408]","[1,1,1]","[-0.10015302598465337,0.0016276795961086157]","[1,1,1]","[0.08848438452662387,0.1123320803406288]","[-1,-1,-1]","[-0.18917185376593526,0.02351662327389632]","[1,1,1]","[-0.03648032401121941,-0.0813071913881364]","[-1,-1,-1]","[-0.13950866971359308,0.010564223918638154]","[-1,-1,-1]","[0.023390966320519707,-0.0826179800439906]","[1,1,1]","[0.05178104110569845,-0.04486038715969911]","[-1,-1,-1]","[0.08939871155590082,0.059813608953674435]","[1,1,1]","[0.17451297064973964,0.06468663584082958]","[1,1,1]","[-0.12184226237042252,0.07426364581676209]","[1,1,1]","[-0.12501323753053611,-0.0346611261246371]","[-1,-1,-1]","[-0.04680923957139103,0.1197205590515143]","[1,1,1]","[-0.03012540122705672,0.06736464063806202]","[-1,-1,-1]","[0.02,0.02]",223.2132,0,38,38,73,1,,,,,,,
,,,,,,,677e4656af6e5525f72fc926,682f0ff2efe88415bdb38bf8,2025-05-22_12h57.56.779,cuing_paradigm_dot,2024.1.5,Win32,60.24096386,682d573fa47f1360d1451895,,,,,,,,,,,223.216,223.7116,,,223.9625,224.4267,right,0.4541,,,,,,,,,0.1,,,,,,223.7117,223.9624,224.4268,"[-0.09491424903237392,0.020594620084287942]","[-1,-1,-1]","[0.19937225469981656,-0.0029702271766206593]","[-1,-1,-1]","[0.1220987229920262,0.05701835889155383]","[-1,-1,-1]","[0.010323393998913155,-0.17559447508375617]","[-1,-1,-1]","[-0.18902932969380598,0.025358213546997365]","[-1,-1,-1]","[0.17904676066171554,-0.06968502615193409]","[-1,-1,-1]","[-0.13438847624134317,0.10037784925363162]","[-1,-1,-1]","[0.05482455451432853,-0.07719599219139622]","[-1,-1,-1]","[0.0036392828021084987,0.14037742134723602]","[-1,-1,-1]","[-0.14199309414618,-0.015575599834411142]","[-1,-1,-1]","[-0.10728698277791622,-0.0768751432983471]","[-1,-1,-1]","[-0.026933303871232103,-0.14390226660328317]","[-1,-1,-1]","[0.057781120184237,-0.1623398263895612]","[-1,-1,-1]","[0.04101265421656582,-0.016711982287800936]","[-1,-1,-1]","[-0.014174121196505704,0.04741630650535309]","[-1,-1,-1]","[-0.059241123293804224,-0.053497431145560694]","[-1,-1,-1]","[0.06367081986336212,0.024422197289621753]","[-1,-1,-1]","[-0.09319020012328,0.09867002867421366]","[1,1,1]","[-0.005125620938266036,0.002302216242077665]","[-1,-1,-1]","[-0.038426216074518044,0.1697743255172021]","[-1,-1,-1]","[0.09897621391661916,-0.08708330923864897]","[-1,-1,-1]","[0.08446370223376277,-0.043480996078359035]","[-1,-1,-1]","[0.06818042423073589,0.15329208264494631]","[-1,-1,-1]","[-0.10055573036366543,-0.1558641550724318]","[-1,-1,-1]","[0.1611400691606336,0.06871113378243508]","[-1,-1,-1]","[-0.13878995067609534,0.024308901769049825]","[-1,-1,-1]","[-0.07083499915961092,0.06408523971670184]","[-1,-1,-1]","[0.11017518451444717,0.1662159439151106]","[1,1,1]","[0.0321014429957338,0.19302702624719856]","[-1,-1,-1]","[0.15118643733011858,0.023254387913428452]","[-1,-1,-1]","[0.14250817850205916,-0.04497067668370024]","[-1,-1,-1]","[-0.08922915991109043,0.16474312833507068]","[1,1,1]","[0.02,0.02]",225.5246,0,39,39,5,1,,,,,,,
,,,,,,,677e4656af6e5525f72fc926,682f0ff2efe88415bdb38bf8,2025-05-22_12h57.56.779,cuing_paradigm_dot,2024.1.5,Win32,60.24096386,682d573fa47f1360d1451895,,,,,,,,,,,225.5258,226.0226,,,226.274,226.9035,left,0.6156,,,,,,,,,0.5,,,,,,226.0227,226.2739,226.9038,"[0.08804113585028923,-0.1761524009249994]","[1,1,1]","[0.015138178182300836,-0.018526512314327212]","[1,1,1]","[-0.03455168733461955,-0.0034787179798932357]","[-1,-1,-1]","[0.15033719910461663,-0.05501461078928959]","[1,1,1]","[0.005342432020511746,0.10453823263041805]","[1,1,1]","[-0.09835822836413081,-0.04737042077560826]","[-1,-1,-1]","[0.10793468858991061,0.1298935125544564]","[-1,-1,-1]","[0.08840473501586532,0.07808642286659555]","[-1,-1,-1]","[0.12317460628744153,0.016513664480987202]","[-1,-1,-1]","[0.0708937046072515,-0.13067795942358734]","[1,1,1]","[-0.02881465682774878,-0.07117321907554383]","[1,1,1]","[0.06500524071922642,0.1194280431566285]","[-1,-1,-1]","[0.17981335331791512,0.04126528851225445]","[-1,-1,-1]","[-0.03219825741261441,0.13494984467558932]","[-1,-1,-1]","[-0.1692728354948846,0.028091794233115672]","[-1,-1,-1]","[-0.11475695650250825,-0.11272892723483058]","[-1,-1,-1]","[-0.0420356553349395,0.06989899427698738]","[-1,-1,-1]","[-0.09199106657005593,0.16282064476633135]","[-1,-1,-1]","[0.1033216399250323,-0.028801997986991925]","[1,1,1]","[-0.0002599797341215626,-0.10722742722881849]","[1,1,1]","[-0.14027227923270633,0.08929254350112537]","[-1,-1,-1]","[0.04810067343849487,-0.07803508988487953]","[1,1,1]","[-0.11777492865560285,-0.1538045027505619]","[1,1,1]","[0.13964213610627565,-0.11792554299798842]","[1,1,1]","[0.000687409185319284,0.02290763705896506]","[1,1,1]","[0.18336426055943106,-0.02972563452252568]","[1,1,1]","[-0.1430398342525352,-0.032307199380279907]","[-1,-1,-1]","[0.012614014090665126,0.0648994717471583]","[-1,-1,-1]","[-0.11334193018291538,0.028125704446642245]","[1,1,1]","[0.02331725128138499,-0.15339485399166372]","[1,1,1]","[-0.03382764100392551,-0.1764065959730161]","[-1,-1,-1]","[-0.19725503208696074,-0.013853249446846396]","[1,1,1]","[0.02,0.02]",228.0007,0,40,40,106,1,,,,,,,
,,,,,,,677e4656af6e5525f72fc926,682f0ff2efe88415bdb38bf8,2025-05-22_12h57.56.779,cuing_paradigm_dot,2024.1.5,Win32,60.24096386,682d573fa47f1360d1451895,,,,,,,,,,,228.0039,228.4991,,,228.7515,229.6298,left,0.8655,,,,,,,,,0.6,,,,,,228.4992,228.7513,229.63,"[0.09783047405389006,0.09618265663990848]","[-1,-1,-1]","[-0.013576469410812813,0.07065662392015619]","[1,1,1]","[-0.14606203509995075,-0.1159217094804592]","[1,1,1]","[0.003992258591121555,-0.19431683759656307]","[1,1,1]","[-0.10812634401573588,-0.04203518933197558]","[1,1,1]","[0.009434742542358876,-0.013388201781674323]","[-1,-1,-1]","[-0.13791481221466748,0.02719079084068775]","[1,1,1]","[-0.01640280727101173,-0.07869772591230516]","[1,1,1]","[0.09244093832482067,0.023972537405682844]","[1,1,1]","[0.06193775645863673,-0.15909402875852427]","[-1,-1,-1]","[0.04927967925640383,0.11080670368966036]","[1,1,1]","[-0.12104493850690524,0.08783833191717243]","[-1,-1,-1]","[-0.06265677787421663,0.007874191275015048]","[-1,-1,-1]","[0.030172488743022523,0.06605162280344545]","[-1,-1,-1]","[0.08287427867093294,-0.02322048174861329]","[-1,-1,-1]","[-0.06691853946164082,-0.04136732186603844]","[1,1,1]","[0.019019062927037814,-0.14299177865696036]","[1,1,1]","[-0.07263443014743416,-0.15666422812047628]","[1,1,1]","[0.14449492796697283,0.0869030409110605]","[-1,-1,-1]","[0.14284811337322423,-0.021475065302293928]","[1,1,1]","[0.0915691350601842,0.16869165683217727]","[1,1,1]","[-0.029254645239335797,0.16151143179321661]","[1,1,1]","[0.12843048278302885,0.14207709914180483]","[-1,-1,-1]","[0.051517307104129675,-0.04935153515873682]","[1,1,1]","[-0.0925817924389785,-0.12145100759587789]","[-1,-1,-1]","[-0.10713415636463396,0.15720817910785143]","[1,1,1]","[-0.1410278619797744,0.1337172207443787]","[-1,-1,-1]","[-0.05146735493427149,-0.11890972752033584]","[1,1,1]","[-0.05137309092076841,0.1280823896126243]","[1,1,1]","[0.013657444561489528,0.19215854435817176]","[-1,-1,-1]","[-0.0861255034106068,0.04447370273064433]","[1,1,1]","[0.11046622058583767,-0.1359404068815677]","[-1,-1,-1]","[0.02,0.02]",230.7268,0,41,41,175,1,,,,,,,
,,,,,,,677e4656af6e5525f72fc926,682f0ff2efe88415bdb38bf8,2025-05-22_12h57.56.779,cuing_paradigm_dot,2024.1.5,Win32,60.24096386,682d573fa47f1360d1451895,,,,,,,,,,,230.7303,231.2247,,,231.4755,231.8576,right,0.3682,,,,,,,,,0.5,,,,,,231.2248,231.4753,231.8577,"[-0.09801230489465797,0.16679545011645946]","[1,1,1]","[-0.1052950462965899,-0.14168853838073578]","[1,1,1]","[-0.1504121370893189,0.09477207282065585]","[1,1,1]","[-0.049608589696402194,-0.06499666783911905]","[-1,-1,-1]","[-0.09123872505447414,0.12537470668446293]","[1,1,1]","[-0.13811565807634277,0.04464945585338139]","[-1,-1,-1]","[0.13237449281298597,0.14516131388188425]","[-1,-1,-1]","[-0.17622121026413035,-0.06744679735077434]","[1,1,1]","[0.022929469207903598,-0.15415243965292091]","[-1,-1,-1]","[-0.00466633474090782,0.02619171483584201]","[-1,-1,-1]","[0.058873379114856704,-0.13020202767193487]","[-1,-1,-1]","[0.1655285003733172,-0.07192154593394558]","[-1,-1,-1]","[0.09165545588872355,-0.1673840320247927]","[1,1,1]","[-0.03136150840638342,-0.12453450625882591]","[1,1,1]","[-0.016498919895756897,0.12054140232693486]","[1,1,1]","[0.003166303916139583,0.17332620004199265]","[1,1,1]","[-0.053655393293536295,0.06520629906097138]","[1,1,1]","[0.01787338681280476,-0.09155327043434956]","[-1,-1,-1]","[-0.05593111868178599,0.0191412388936493]","[-1,-1,-1]","[-0.11770140005362333,-0.07901076951021184]","[-1,-1,-1]","[0.09673585575116458,0.17312219859796715]","[1,1,1]","[-0.05601659772509078,-0.022137403880784907]","[-1,-1,-1]","[-0.16979592138669494,0.014650980826251752]","[1,1,1]","[0.14654696722621638,-0.01964114815195789]","[-1,-1,-1]","[0.09324374817088227,-0.011561272859962095]","[-1,-1,-1]","[-0.022165412737397704,-0.18097750663299264]","[-1,-1,-1]","[0.0537224532049943,0.10317623370373318]","[1,1,1]","[0.05176849031068083,0.04556978957255168]","[-1,-1,-1]","[0.13282580624948237,-0.10314070723284499]","[-1,-1,-1]","[-0.1361709439727927,-0.042265123059503945]","[1,1,1]","[0.10355915163048687,0.09286446745249066]","[1,1,1]","[0.1602329434126961,0.10210376434496778]","[1,1,1]","[0.02,0.02]",232.9545,0,42,42,91,1,,,,,,,
,,,,,,,677e4656af6e5525f72fc926,682f0ff2efe88415bdb38bf8,2025-05-22_12h57.56.779,cuing_paradigm_dot,2024.1.5,Win32,60.24096386,682d573fa47f1360d1451895,,,,,,,,,,,232.9566,233.4529,,,233.7053,234.4037,left,0.6908,,,,,,,,,0.5,,,,,,233.4529,233.7051,234.4037,"[-0.11284933442262102,-0.10564812327549661]","[1,1,1]","[-0.14747379286084392,0.029356584333212178]","[1,1,1]","[-0.06510073466299149,0.08128169860383475]","[1,1,1]","[-0.12389554547923778,-0.04565588200039673]","[-1,-1,-1]","[-0.01913122397356708,-0.011696010689691018]","[-1,-1,-1]","[-0.1884981158375865,0.029318752837621784]","[1,1,1]","[-0.11089557303459004,-0.15934954756200584]","[1,1,1]","[0.08049976142802628,-0.029326827464698516]","[-1,-1,-1]","[-0.16157841679178517,-0.09863012609150647]","[1,1,1]","[0.16018270739691923,-0.10615463949807177]","[-1,-1,-1]","[-0.19047912037739081,-0.04735095484817673]","[1,1,1]","[-0.05343116095954806,-0.12991260883210484]","[1,1,1]","[0.03981336885458783,0.0709069341687336]","[-1,-1,-1]","[0.027259232846631645,-0.04815947876551405]","[-1,-1,-1]","[-0.024875678201388186,0.18337582367495084]","[-1,-1,-1]","[0.11354774210354596,0.024697079254085964]","[1,1,1]","[0.0576095500979541,-0.1129220215768635]","[1,1,1]","[-0.05312859574267272,-0.06268795349275838]","[1,1,1]","[0.14224426398140644,0.13188458519418808]","[-1,-1,-1]","[0.17095316379866418,0.01611016060205559]","[1,1,1]","[0.11900832603448709,-0.04165522528115475]","[1,1,1]","[0.0859169298737302,-0.1501476218147269]","[-1,-1,-1]","[0.019829036302470383,0.1413143613544445]","[1,1,1]","[0.07247921900881014,0.16743084659147978]","[1,1,1]","[0.10764960807624552,0.1108874304180673]","[-1,-1,-1]","[0.050997329457008314,0.021059650993674493]","[-1,-1,-1]","[-0.07278647055132544,0.13945067301437955]","[-1,-1,-1]","[-0.012676043811844,-0.056176895603094176]","[-1,-1,-1]","[-0.13302425875710266,0.08112908962575563]","[-1,-1,-1]","[-0.1135149398747132,0.11843631772549147]","[-1,-1,-1]","[-0.10951361979325926,0.04249591676174638]","[-1,-1,-1]","[0.004576075259354207,-0.19966620730179677]","[1,1,1]","[0.02,0.02]",235.4972,0,43,43,92,1,,,,,,,
,,,,,,,677e4656af6e5525f72fc926,682f0ff2efe88415bdb38bf8,2025-05-22_12h57.56.779,cuing_paradigm_dot,2024.1.5,Win32,60.24096386,682d573fa47f1360d1451895,,,,,,,,,,,235.4987,235.9959,,,236.2467,237.4451,right,1.1905,,,,,,,,,0.45,,,,,,235.9959,236.2466,237.4451,"[0.1326598716371367,-0.023490399619798194]","[1,1,1]","[0.08212924028060438,0.11384409947219817]","[1,1,1]","[0.1107930088478091,-0.09692572704251963]","[1,1,1]","[-0.05162949184165035,0.018173604522857746]","[-1,-1,-1]","[-0.10446780006751685,0.15837919908382586]","[-1,-1,-1]","[-0.1476724161461588,0.10848482346027215]","[1,1,1]","[0.05863648173432203,0.07849023498317582]","[1,1,1]","[0.06934933574014501,-0.040347960116759916]","[1,1,1]","[0.029133334211048523,0.1697378908371862]","[-1,-1,-1]","[0.13937679075700485,0.0558700323147522]","[1,1,1]","[-0.08888918778737262,-0.12869492994845685]","[-1,-1,-1]","[0.0551660855547471,0.02449922025702769]","[1,1,1]","[-0.10260400629471679,-0.0779646619717882]","[-1,-1,-1]","[-0.006704761164299205,-0.18933648783945844]","[1,1,1]","[0.1738632161147938,-0.03587266170121959]","[-1,-1,-1]","[-0.14844343338661378,0.06396517767761087]","[-1,-1,-1]","[-0.0315414521875699,-0.14220041361087687]","[-1,-1,-1]","[0.11239627840294629,0.01462943579266348]","[-1,-1,-1]","[-0.10572432226553789,0.04541592611127815]","[1,1,1]","[-0.0012849792783610492,0.08818780496543324]","[-1,-1,-1]","[-0.04949439559303278,0.09081960081048585]","[-1,-1,-1]","[0.18560800859877452,0.060038878418198945]","[-1,-1,-1]","[0.06635398683327667,-0.1381264557254591]","[-1,-1,-1]","[-0.14966220404406197,-0.11808217699319684]","[1,1,1]","[-0.01736164523366329,-0.02109229686864023]","[-1,-1,-1]","[-0.03206891829958728,0.13995206480439756]","[-1,-1,-1]","[-0.1849124495896914,-0.005560964263417998]","[1,1,1]","[0.004165425913883203,0.04627963431570156]","[-1,-1,-1]","[0.17805134954207474,-0.07733503133842466]","[-1,-1,-1]","[-0.022516916462636323,0.19234678559594456]","[1,1,1]","[-0.06765486796837959,-0.16859549347925115]","[-1,-1,-1]","[-0.11755123263271064,-0.03948408371408895]","[1,1,1]","[0.02,0.02]",238.5393,0,44,44,65,1,,,,,,,
