right,left,explain.started,explain.stopped,key_resp_3.keys,key_resp_3.rt,key_resp_3.duration,participant,session,date,expName,psychopyVersion,OS,frameRate,study_id,explain_2.started,explain_2.stopped,key_resp_4.keys,key_resp_4.rt,key_resp_4.duration,explain_3.started,explain_3.stopped,key_resp_5.keys,key_resp_5.rt,key_resp_5.duration,fixation.started,fixation.stopped,practice.started,practice.stopped,response.started,response.stopped,key_resp.keys,key_resp.rt,key_resp.duration,feedback.started,feedback.stopped,trials_2.thisRepN,trials_2.thisTrialN,trials_2.thisN,trials_2.thisIndex,trials_2.ran,white_ratio,explain_4.started,explain_4.stopped,key_resp_6.keys,key_resp_6.rt,key_resp_6.duration,dotDisplay.started,dotDisplay.stopped,ITI.started,polygon_1.pos,polygon_1.color,polygon_2.pos,polygon_2.color,polygon_3.pos,polygon_3.color,polygon_4.pos,polygon_4.color,polygon_5.pos,polygon_5.color,polygon_6.pos,polygon_6.color,polygon_7.pos,polygon_7.color,polygon_8.pos,polygon_8.color,polygon_9.pos,polygon_9.color,polygon_10.pos,polygon_10.color,polygon_11.pos,polygon_11.color,polygon_12.pos,polygon_12.color,polygon_13.pos,polygon_13.color,polygon_14.pos,polygon_14.color,polygon_15.pos,polygon_15.color,polygon_16.pos,polygon_16.color,polygon_17.pos,polygon_17.color,polygon_18.pos,polygon_18.color,polygon_19.pos,polygon_19.color,polygon_20.pos,polygon_20.color,polygon_21.pos,polygon_21.color,polygon_22.pos,polygon_22.color,polygon_23.pos,polygon_23.color,polygon_24.pos,polygon_24.color,polygon_25.pos,polygon_25.color,polygon_26.pos,polygon_26.color,polygon_27.pos,polygon_27.color,polygon_28.pos,polygon_28.color,polygon_29.pos,polygon_29.color,polygon_30.pos,polygon_30.color,polygon_31.pos,polygon_31.color,polygon_32.pos,polygon_32.color,dot_size,ITI.stopped,trials.thisRepN,trials.thisTrialN,trials.thisN,trials.thisIndex,trials.ran,break_2.started,break_2.stopped,trials_3.thisRepN,trials_3.thisTrialN,trials_3.thisN,trials_3.thisIndex,trials_3.ran
subject chose black,subject chose white,0.0005,26.4522,space,11.4148,,678faf96006731477a11673e,682f0fb8c7a887b5c4e2f757,2025-05-22_13h54.51.303,cuing_paradigm_dot,2024.1.5,Win32,59.88023952,682d573fa47f1360d1451895,,,,,,,,,,,,,,,,,,,,,,,,,,,,,,,,,,,,,,,,,,,,,,,,,,,,,,,,,,,,,,,,,,,,,,,,,,,,,,,,,,,,,,,,,,,,,,,,,,,,,,,,,,,,,,,,,
,,,,,,,678faf96006731477a11673e,682f0fb8c7a887b5c4e2f757,2025-05-22_13h54.51.303,cuing_paradigm_dot,2024.1.5,Win32,59.88023952,682d573fa47f1360d1451895,26.4527,58.3407,space,1.85,,,,,,,,,,,,,,,,,,,,,,,,,,,,,,,,,,,,,,,,,,,,,,,,,,,,,,,,,,,,,,,,,,,,,,,,,,,,,,,,,,,,,,,,,,,,,,,,,,,,,,,,,,,,,
,,,,,,,678faf96006731477a11673e,682f0fb8c7a887b5c4e2f757,2025-05-22_13h54.51.303,cuing_paradigm_dot,2024.1.5,Win32,59.88023952,682d573fa47f1360d1451895,,,,,,58.3409,63.1824,space,1.8152,,,,,,,,,,,,,,,,,,,,,,,,,,,,,,,,,,,,,,,,,,,,,,,,,,,,,,,,,,,,,,,,,,,,,,,,,,,,,,,,,,,,,,,,,,,,,,,,,,,,,,,,
,,,,,,,678faf96006731477a11673e,682f0fb8c7a887b5c4e2f757,2025-05-22_13h54.51.303,cuing_paradigm_dot,2024.1.5,Win32,59.88023952,682d573fa47f1360d1451895,,,,,,,,,,,63.2634,63.6994,63.6998,63.9634,63.9638,64.9654,left,0.9689,,64.9656,66.0656,0,0,0,0,1,0.8,,,,,,,,,,,,,,,,,,,,,,,,,,,,,,,,,,,,,,,,,,,,,,,,,,,,,,,,,,,,,,,,,,,,,,,,,,,,,,,,,,,,,,
,,,,,,,678faf96006731477a11673e,682f0fb8c7a887b5c4e2f757,2025-05-22_13h54.51.303,cuing_paradigm_dot,2024.1.5,Win32,59.88023952,682d573fa47f1360d1451895,,,,,,,,,,,66.0671,66.5616,66.5617,66.7981,66.7982,67.2835,right,0.4053,,67.2837,68.3636,0,1,1,1,1,0.2,,,,,,,,,,,,,,,,,,,,,,,,,,,,,,,,,,,,,,,,,,,,,,,,,,,,,,,,,,,,,,,,,,,,,,,,,,,,,,,,,,,,,,
,,,,,,,678faf96006731477a11673e,682f0fb8c7a887b5c4e2f757,2025-05-22_13h54.51.303,cuing_paradigm_dot,2024.1.5,Win32,59.88023952,682d573fa47f1360d1451895,,,,,,,,,,,,,,,,,,,,,,,,,,,,68.3641,76.0287,space,4.6594,,,,,,,,,,,,,,,,,,,,,,,,,,,,,,,,,,,,,,,,,,,,,,,,,,,,,,,,,,,,,,,,,,,,,,,,,,,,,,,,,,
,,,,,,,678faf96006731477a11673e,682f0fb8c7a887b5c4e2f757,2025-05-22_13h54.51.303,cuing_paradigm_dot,2024.1.5,Win32,59.88023952,682d573fa47f1360d1451895,,,,,,,,,,,76.1456,76.5433,,,76.7838,77.4099,left,0.6173,,,,,,,,,0.6,,,,,,76.5438,76.7836,77.4105,"[0.025663561768355242,-0.13795260057951486]","[1,1,1]","[-0.10138419970180143,-0.005800325466583704]","[-1,-1,-1]","[-0.13641856432814345,0.06230595976072695]","[-1,-1,-1]","[-0.049503966479467754,-0.17923946366370658]","[-1,-1,-1]","[-0.07736481691393228,-0.09225168598641363]","[-1,-1,-1]","[0.0989878713479163,0.07889877194292137]","[1,1,1]","[-0.16062900006585226,-0.07566236256617077]","[-1,-1,-1]","[0.1139136507862558,0.039891060805944054]","[-1,-1,-1]","[0.06015302640745314,-0.18628435777796032]","[-1,-1,-1]","[-0.15472671167910493,0.006059500437969316]","[1,1,1]","[0.05334009435464614,0.06657306236469598]","[1,1,1]","[-0.0006025610933873079,-0.19856379054882597]","[1,1,1]","[-0.1337764772324504,-0.11717624315522791]","[1,1,1]","[-0.011285354893705031,-0.11179620927233598]","[-1,-1,-1]","[0.046184518850210105,0.10742704985885056]","[-1,-1,-1]","[-0.02582386058094731,0.05651467797256821]","[1,1,1]","[0.11264482246199578,-0.15993951528750963]","[-1,-1,-1]","[0.07699610528310677,-0.06763228675741835]","[1,1,1]","[-0.032133425345297784,0.1386193442496323]","[1,1,1]","[-0.06753221324890198,0.09497168252823245]","[-1,-1,-1]","[-0.1959014913678961,0.010009896480606824]","[1,1,1]","[-0.10440973572048759,0.036853751863545704]","[1,1,1]","[0.16709552633965574,-0.08977992156742565]","[1,1,1]","[0.0720324512472142,-0.024196134401797662]","[1,1,1]","[0.03194579144018428,0.17293784083394723]","[1,1,1]","[0.17581169891162204,0.0831304763050991]","[1,1,1]","[0.15497433832285323,0.015724181824663473]","[-1,-1,-1]","[-0.0015030738533810238,-0.0705722570952825]","[1,1,1]","[-0.11652973399051149,0.1570537814178339]","[1,1,1]","[0.13229867108877097,0.1311659686911527]","[1,1,1]","[0.1443205431611588,-0.13126835546066584]","[-1,-1,-1]","[-0.018921425489945586,0.19811082346159709]","[1,1,1]","[0.02,0.02]",78.5313,0,0,0,153,1,,,,,,,
,,,,,,,678faf96006731477a11673e,682f0fb8c7a887b5c4e2f757,2025-05-22_13h54.51.303,cuing_paradigm_dot,2024.1.5,Win32,59.88023952,682d573fa47f1360d1451895,,,,,,,,,,,78.5325,79.0089,,,79.2453,79.6297,right,0.3534,,,,,,,,,0.1,,,,,,79.0089,79.2453,79.6298,"[0.10636012900537357,-0.12995851311615297]","[-1,-1,-1]","[-0.025296335175597557,0.17976046232700502]","[-1,-1,-1]","[0.13660797555963794,-0.09881663649615116]","[1,1,1]","[-0.06362574671980178,0.078468316857862]","[-1,-1,-1]","[0.12050870064992662,0.06732290053437896]","[-1,-1,-1]","[-0.013031379928120045,-0.05356947438978707]","[-1,-1,-1]","[0.08393116745081527,0.15217441740243182]","[-1,-1,-1]","[-0.015301373985014976,-0.18749749478825659]","[-1,-1,-1]","[-0.02346810364579186,0.06511897164108188]","[1,1,1]","[0.07789808844424795,0.014870567189213858]","[-1,-1,-1]","[0.16868231191851119,0.020485888131651957]","[-1,-1,-1]","[0.030754662984384108,0.04376682557793807]","[-1,-1,-1]","[-0.17279014163263962,0.03128124431751425]","[-1,-1,-1]","[-0.16355756984091352,-0.01750503684011987]","[-1,-1,-1]","[0.13542372887944615,-0.04324542290673752]","[-1,-1,-1]","[-0.07332807608252348,-0.0007118517522841605]","[-1,-1,-1]","[-0.030970332545856658,-0.1491715933151424]","[-1,-1,-1]","[-0.17716898507268838,-0.05950204122641464]","[-1,-1,-1]","[-0.05083758978410964,-0.10990705430337727]","[-1,-1,-1]","[-0.12144838415157705,0.13773181352717048]","[-1,-1,-1]","[-0.024985065006726245,-0.00598781537111843]","[-1,-1,-1]","[-0.11048862095178907,-0.13266580138800088]","[-1,-1,-1]","[-0.09543356444393504,0.16997997781227256]","[-1,-1,-1]","[0.15581897001447825,0.11006835558786007]","[1,1,1]","[0.1883383825769628,-0.03362808252434911]","[-1,-1,-1]","[0.07031114388181425,0.05529901077434994]","[-1,-1,-1]","[-0.1691946851870905,0.08825361686262373]","[-1,-1,-1]","[0.12460653937466602,0.022056836689325024]","[-1,-1,-1]","[-0.07595607782921404,-0.15740390922792616]","[-1,-1,-1]","[0.11245352547622818,0.11722706146731575]","[-1,-1,-1]","[-0.08523540805951982,-0.08231733825890918]","[-1,-1,-1]","[0.09632408403982061,-0.028503378437783403]","[-1,-1,-1]","[0.02,0.02]",80.731,0,1,1,7,1,,,,,,,
,,,,,,,678faf96006731477a11673e,682f0fb8c7a887b5c4e2f757,2025-05-22_13h54.51.303,cuing_paradigm_dot,2024.1.5,Win32,59.88023952,682d573fa47f1360d1451895,,,,,,,,,,,80.732,81.2164,,,81.4888,82.0665,right,0.5546,,,,,,,,,0.5,,,,,,81.2164,81.4852,82.0665,"[0.013816293221461383,-0.12991192924670406]","[1,1,1]","[-0.03922204441445983,-0.04764170832220049]","[1,1,1]","[0.09548017186721655,0.009345605622647545]","[-1,-1,-1]","[0.02426235288357902,0.0529764613879236]","[-1,-1,-1]","[0.08076760886772066,-0.14467815544675208]","[-1,-1,-1]","[0.041830615698355715,-0.06498216755444786]","[1,1,1]","[0.10953138973415773,0.06827314139392901]","[1,1,1]","[-0.09594221645800345,0.03738108261902467]","[-1,-1,-1]","[-0.15003707132579747,0.05661561184741733]","[-1,-1,-1]","[-0.025064540631073422,0.05064891887605013]","[-1,-1,-1]","[0.13615628284401105,-0.11192989578589432]","[-1,-1,-1]","[-0.08188003681099393,-0.1323075630777316]","[-1,-1,-1]","[0.021414749130654942,0.14011738127570728]","[-1,-1,-1]","[-0.05633675684843646,0.13986353779917587]","[1,1,1]","[-0.1587376080005155,-0.017009606384808397]","[-1,-1,-1]","[-0.18030767001484269,-0.06354297784460018]","[1,1,1]","[-0.03619990380420596,-0.1444096760232593]","[-1,-1,-1]","[-0.0175847652318458,-0.09973723563111159]","[1,1,1]","[0.1525339737070016,-0.016728664023129714]","[-1,-1,-1]","[0.001760102336081911,-0.03970424470507699]","[-1,-1,-1]","[-0.07374064940463132,0.10001444244464404]","[1,1,1]","[0.1441506511277358,0.09095323155362303]","[1,1,1]","[-0.10748358238054251,-0.007585996867503917]","[-1,-1,-1]","[0.09258737965837663,-0.04011953738575784]","[1,1,1]","[0.19501543026731494,-0.027749052366530236]","[1,1,1]","[-0.11973131128382372,-0.09460852416283953]","[-1,-1,-1]","[-0.10020287530040113,0.14237424131976248]","[1,1,1]","[0.03888451000451702,-0.1728062100556027]","[1,1,1]","[0.07485575645513427,0.1268741549217577]","[1,1,1]","[-0.046660761932860555,-0.005649373166274084]","[1,1,1]","[-0.13650893212174572,-0.14227136415077374]","[-1,-1,-1]","[-0.00343028313984409,-0.19380886088283503]","[1,1,1]","[0.02,0.02]",83.1428,0,2,2,96,1,,,,,,,
,,,,,,,678faf96006731477a11673e,682f0fb8c7a887b5c4e2f757,2025-05-22_13h54.51.303,cuing_paradigm_dot,2024.1.5,Win32,59.88023952,682d573fa47f1360d1451895,,,,,,,,,,,83.1439,83.6422,,,83.8724,84.2546,right,0.362,,,,,,,,,0.45,,,,,,83.6423,83.8721,84.2547,"[-0.008849488546097406,0.027963389785095414]","[-1,-1,-1]","[0.09078953237943832,0.1462214479051076]","[-1,-1,-1]","[-0.18482381704383036,-0.05068759768805323]","[-1,-1,-1]","[-0.047474841972614756,0.0694002600099281]","[1,1,1]","[-0.0584364469438815,-0.048045287598770116]","[-1,-1,-1]","[0.0007553326610609322,0.11784736962917966]","[-1,-1,-1]","[-0.1209371713678303,0.08412748635223315]","[-1,-1,-1]","[0.05442002610893554,0.1641243885539188]","[-1,-1,-1]","[-0.14043337274605308,0.0008758787867089289]","[1,1,1]","[-0.002523966768874027,-0.019384955528699982]","[-1,-1,-1]","[-0.1029735387447384,-0.12682307946630067]","[-1,-1,-1]","[0.11218516115768333,-0.04993499365159988]","[1,1,1]","[0.05920542511913772,0.07241833964641176]","[1,1,1]","[0.10040053673116077,0.10320626075914428]","[-1,-1,-1]","[0.045262805579798025,-0.03652195858701085]","[-1,-1,-1]","[-0.031309052048434566,0.14780018075080326]","[-1,-1,-1]","[-0.07432461023825641,-0.007063319059006388]","[1,1,1]","[0.06080685479351725,-0.15227045522514562]","[-1,-1,-1]","[-0.08478093376285603,0.1282862811710304]","[-1,-1,-1]","[-0.03483746500783007,-0.1681120515353432]","[1,1,1]","[-0.0002415024236723558,-0.06365842497083701]","[1,1,1]","[0.12482179499307937,0.009334776558069392]","[1,1,1]","[-0.16274114588434552,0.11546220762562763]","[1,1,1]","[0.10955187831648605,-0.11220726778104187]","[1,1,1]","[0.16497820147503903,-0.027567281300393886]","[1,1,1]","[-0.15732300876772676,0.045395123334449915]","[-1,-1,-1]","[0.0820344746400812,-0.011885613398069815]","[1,1,1]","[-0.14835468462699147,-0.07368082022755038]","[-1,-1,-1]","[0.028401769786189877,-0.10758801819882237]","[1,1,1]","[0.03289211056302511,-0.18893232141164668]","[1,1,1]","[0.14040797629381535,0.05861654131636049]","[-1,-1,-1]","[-0.08204429003980607,0.036156441663128404]","[-1,-1,-1]","[0.02,0.02]",85.3548,0,3,3,77,1,,,,,,,
,,,,,,,678faf96006731477a11673e,682f0fb8c7a887b5c4e2f757,2025-05-22_13h54.51.303,cuing_paradigm_dot,2024.1.5,Win32,59.88023952,682d573fa47f1360d1451895,,,,,,,,,,,85.3559,85.8575,,,86.092,86.5055,left,0.3972,,,,,,,,,0.9,,,,,,85.8576,86.0919,86.5056,"[0.13219767048253395,0.13765201335024077]","[1,1,1]","[0.14242816055005167,0.06856789257324838]","[1,1,1]","[0.17122405886103093,-0.05072482831751464]","[1,1,1]","[0.0745443857366924,0.1250600975842107]","[1,1,1]","[-0.06732559787659743,-0.045603893405652754]","[1,1,1]","[-0.03818688435874015,0.03637261615348443]","[1,1,1]","[0.013463182644815554,0.0031651996929907165]","[1,1,1]","[-0.13722282907026243,-0.013024003674808693]","[1,1,1]","[-0.004754747239641923,0.18141793983426818]","[1,1,1]","[-0.06321879838002446,-0.09791335643038077]","[-1,-1,-1]","[-0.09786481946544875,-0.07678295533408347]","[1,1,1]","[-0.147206901706102,0.11213705253641745]","[-1,-1,-1]","[0.041821636201992,-0.02787923177679087]","[1,1,1]","[0.1493242119601273,-0.015150815466135626]","[1,1,1]","[-0.10631223256035578,-0.12618875962123088]","[1,1,1]","[-0.03887572797593286,-0.15980276980590866]","[1,1,1]","[0.17427252841081056,0.026641594376440307]","[1,1,1]","[0.06444691156444902,-0.11287004516608162]","[1,1,1]","[0.010201894857347732,0.10849197130479547]","[-1,-1,-1]","[-0.12734503225363888,0.06312098073604656]","[1,1,1]","[0.08308954758630047,-0.1738208701325762]","[1,1,1]","[-0.10730499028101319,0.1647536953230828]","[1,1,1]","[0.057242855027471395,0.07486676387112347]","[1,1,1]","[-0.08386230449232335,0.11030363010634921]","[1,1,1]","[0.09583248067053554,-0.04429899668639976]","[1,1,1]","[0.010429902526332958,-0.12790495892440162]","[1,1,1]","[0.03173656158150255,0.15724907077476577]","[1,1,1]","[-0.19324790933658165,-0.0019092534089199197]","[1,1,1]","[-0.07884010304133798,0.01895425760302537]","[1,1,1]","[-0.024199599227514794,-0.07139596717219554]","[1,1,1]","[-0.055841298443595346,0.17786192360778127]","[1,1,1]","[-0.0866693040492537,-0.1641377151699726]","[1,1,1]","[0.02,0.02]",87.5907,0,4,4,203,1,,,,,,,
,,,,,,,678faf96006731477a11673e,682f0fb8c7a887b5c4e2f757,2025-05-22_13h54.51.303,cuing_paradigm_dot,2024.1.5,Win32,59.88023952,682d573fa47f1360d1451895,,,,,,,,,,,87.5919,88.0733,,,88.3028,88.5905,right,0.276,,,,,,,,,0.4,,,,,,88.0734,88.3027,88.5906,"[-0.002349805282269281,-0.13683925643775627]","[-1,-1,-1]","[-0.10837941070484441,0.10180647104909693]","[-1,-1,-1]","[0.15150163790185836,0.027313189530268258]","[-1,-1,-1]","[0.16277215502457187,0.10948786722068499]","[1,1,1]","[0.12651569710406774,0.08045513192636425]","[-1,-1,-1]","[-0.10609173356999106,0.056099014128941596]","[-1,-1,-1]","[0.003980911352785514,-0.08478622884727342]","[-1,-1,-1]","[-0.11282493954140087,0.16122185306358858]","[1,1,1]","[0.11101048470669503,-0.13711101425044336]","[-1,-1,-1]","[-0.11741956489807533,-0.13028526144041533]","[-1,-1,-1]","[-0.05745256376901865,-0.16975238421586974]","[1,1,1]","[-0.1004777469397756,-0.07464781029707152]","[-1,-1,-1]","[-0.16664019412710285,0.10590200597154381]","[-1,-1,-1]","[-0.04892930015160006,0.05819007655119355]","[-1,-1,-1]","[0.014879553221940478,-0.004171474435490684]","[-1,-1,-1]","[-0.1382019637554062,-0.04799836254956207]","[1,1,1]","[-0.03650900392143501,0.12922405856992328]","[1,1,1]","[0.041854589785246366,-0.1101514858568791]","[1,1,1]","[0.1714390011111635,-0.08441634735369204]","[1,1,1]","[0.04790733582287686,-0.0673069141788348]","[1,1,1]","[0.07274159933966208,0.175711297953478]","[1,1,1]","[0.08515901074992016,0.09302615839740468]","[-1,-1,-1]","[0.052753375015036144,0.12173340444066419]","[-1,-1,-1]","[0.018823587965778238,0.1841478560885231]","[-1,-1,-1]","[-0.05033918170956427,-0.024406314481675403]","[-1,-1,-1]","[-0.08943487337784789,0.012751478816276763]","[1,1,1]","[0.09718340895434366,0.03367793026678813]","[-1,-1,-1]","[-0.15551858185304165,-0.10740733396329044]","[-1,-1,-1]","[-0.14270743366745192,0.023077903643244004]","[1,1,1]","[0.011385927100048335,0.12114991393960516]","[1,1,1]","[0.08245963158499184,-0.04655073044523581]","[1,1,1]","[0.11870475741454276,0.1584253504617875]","[-1,-1,-1]","[0.02,0.02]",89.6731,0,5,5,36,1,,,,,,,
,,,,,,,678faf96006731477a11673e,682f0fb8c7a887b5c4e2f757,2025-05-22_13h54.51.303,cuing_paradigm_dot,2024.1.5,Win32,59.88023952,682d573fa47f1360d1451895,,,,,,,,,,,89.6738,90.1588,,,90.4021,90.7606,right,0.3307,,,,,,,,,0.55,,,,,,90.1589,90.4021,90.7607,"[0.058088822149006715,-0.09783400063858644]","[-1,-1,-1]","[0.10332854075511916,-0.12038509720365352]","[1,1,1]","[0.10166203688650804,0.106863645745001]","[1,1,1]","[-0.1432172602828203,0.010484112135042273]","[-1,-1,-1]","[0.11208977285730849,0.15544038812926103]","[1,1,1]","[-0.09687970288390066,-0.1615257414404822]","[1,1,1]","[-0.10370200624499123,0.11329150655867502]","[-1,-1,-1]","[0.12200308528137735,0.03732427244832113]","[1,1,1]","[0.1397471495974476,-0.09670064549907749]","[1,1,1]","[-0.14325588013745252,0.10467562058508253]","[1,1,1]","[-0.09789927291650401,0.021243806861224932]","[1,1,1]","[-0.07960117204420647,-0.017151010689270333]","[-1,-1,-1]","[0.11117745024772024,-0.1600061257423165]","[-1,-1,-1]","[0.038513305466524886,0.025006128445845394]","[-1,-1,-1]","[-0.16253689918443295,-0.11537739098293619]","[1,1,1]","[0.18921228356800446,0.006051353464236419]","[-1,-1,-1]","[-0.06387102527321231,-0.11504659694380265]","[1,1,1]","[-0.017687684847891107,0.14301696923497406]","[-1,-1,-1]","[0.14929584071948895,-0.05159545606697169]","[-1,-1,-1]","[-0.00008012480237395658,-0.18082984817599423]","[1,1,1]","[0.013909159802195986,-0.11138834610197147]","[1,1,1]","[0.028460505696187022,0.1192773166993481]","[-1,-1,-1]","[-0.03224313628270523,0.07400892349012525]","[1,1,1]","[0.0806227141204889,-0.03736827940907705]","[1,1,1]","[0.00008602723379969104,0.049953717782637325]","[-1,-1,-1]","[-0.11528856391374227,-0.08080827773882734]","[1,1,1]","[-0.19438156704578877,0.04222143347046332]","[1,1,1]","[-0.018378407090821773,-0.05260645147126055]","[-1,-1,-1]","[-0.060193385940805484,0.13991656288298499]","[1,1,1]","[-0.1558223346943343,-0.054358288027027316]","[-1,-1,-1]","[0.16410633795850643,0.05189563423042823]","[-1,-1,-1]","[0.0541991645933142,0.07093720721560622]","[1,1,1]","[0.02,0.02]",91.8589,0,6,6,137,1,,,,,,,
,,,,,,,678faf96006731477a11673e,682f0fb8c7a887b5c4e2f757,2025-05-22_13h54.51.303,cuing_paradigm_dot,2024.1.5,Win32,59.88023952,682d573fa47f1360d1451895,,,,,,,,,,,91.8598,92.3537,,,92.5721,92.8683,right,0.2779,,,,,,,,,0.1,,,,,,92.3537,92.5721,92.8685,"[-0.12413167908690231,-0.1224909298795012]","[-1,-1,-1]","[-0.06616766708941332,0.0009226293481926867]","[-1,-1,-1]","[0.06405105878856096,0.13864691464591586]","[-1,-1,-1]","[-0.11749860115565156,0.0638732065735196]","[-1,-1,-1]","[0.012477062581274127,-0.08216696926324453]","[-1,-1,-1]","[0.008974485439236976,0.11069646931183603]","[-1,-1,-1]","[0.13852918679516799,0.0825578267778287]","[-1,-1,-1]","[0.12510510622318993,0.1505194945273974]","[-1,-1,-1]","[0.10521486583986307,0.030823692457676004]","[-1,-1,-1]","[0.06775782781103686,-0.13247901724760663]","[-1,-1,-1]","[-0.06348322254353271,0.17145915757389377]","[-1,-1,-1]","[-0.16645200267520996,-0.09781771100490691]","[-1,-1,-1]","[-0.11971639440762244,0.13362082586377835]","[1,1,1]","[0.13127404683732566,-0.008866732089698801]","[-1,-1,-1]","[-0.1674181190386831,-0.0002688302724820802]","[-1,-1,-1]","[0.02336600130678541,0.16244006020460522]","[-1,-1,-1]","[0.02605974144707026,-0.13880621120237932]","[-1,-1,-1]","[-0.07599447827861759,-0.08680973095472189]","[-1,-1,-1]","[0.17996118821424636,0.008029230179945735]","[-1,-1,-1]","[0.1538129388162101,-0.10332866029785143]","[-1,-1,-1]","[-0.04349072850798425,0.06327858548286515]","[-1,-1,-1]","[0.044524841878856865,0.07965111119582041]","[1,1,1]","[-0.01524013774261371,0.1793016698880763]","[-1,-1,-1]","[-0.07261908568182755,0.10023728220440604]","[-1,-1,-1]","[-0.1533165767630689,0.1088960916545374]","[-1,-1,-1]","[0.08654694889380478,-0.05224217650662365]","[-1,-1,-1]","[-0.03818216751544649,0.14013214739930846]","[-1,-1,-1]","[0.07795131434539387,-0.0032756065510578234]","[-1,-1,-1]","[0.09440909934108087,-0.0918462553709322]","[-1,-1,-1]","[0.09343494574149552,0.07363797964102886]","[-1,-1,-1]","[-0.10082493974838425,0.025716427240054174]","[-1,-1,-1]","[-0.048660928213869734,-0.13655974010330343]","[1,1,1]","[0.02,0.02]",93.9541,0,7,7,15,1,,,,,,,
,,,,,,,678faf96006731477a11673e,682f0fb8c7a887b5c4e2f757,2025-05-22_13h54.51.303,cuing_paradigm_dot,2024.1.5,Win32,59.88023952,682d573fa47f1360d1451895,,,,,,,,,,,93.957,94.4553,,,94.7083,94.9894,left,0.2622,,,,,,,,,0.5,,,,,,94.4554,94.7082,94.9895,"[-0.04153767113634218,-0.14730626438364663]","[-1,-1,-1]","[0.057785196454726816,0.021927485331863433]","[-1,-1,-1]","[0.11263637716107018,-0.12072174500453939]","[-1,-1,-1]","[-0.016994196123458937,0.05463337315648816]","[-1,-1,-1]","[-0.05741698981627859,0.09205288462621049]","[-1,-1,-1]","[-0.020680018370363356,0.1467302808861029]","[-1,-1,-1]","[-0.13052912667151256,-0.06652217023486462]","[1,1,1]","[0.12789017460615837,-0.011308595686543505]","[1,1,1]","[0.13270078501191238,0.09982151982464658]","[1,1,1]","[-0.14610958654582176,0.014559411179336255]","[-1,-1,-1]","[0.03842810663038073,-0.07991659858010769]","[1,1,1]","[-0.10989071557237706,-0.1609840361876855]","[1,1,1]","[0.11720428628370058,-0.05832261831744495]","[-1,-1,-1]","[0.17366954844454782,-0.09691325926747317]","[-1,-1,-1]","[-0.047980690676787584,0.028262153330982073]","[-1,-1,-1]","[-0.09354758496427544,-0.01816681274178644]","[1,1,1]","[0.0014738672811883916,-0.19509689173356132]","[-1,-1,-1]","[-0.06361418279489696,-0.08512756028328328]","[1,1,1]","[0.0009542496166752445,-0.041457070418488715]","[1,1,1]","[0.10128355053920948,0.04236722788663716]","[1,1,1]","[0.031468296085709085,0.18690386390730743]","[1,1,1]","[0.09300145048091724,0.12462570032694828]","[-1,-1,-1]","[-0.16617243176660046,0.09908094176349108]","[-1,-1,-1]","[0.1812283137981155,0.06886251788444259]","[1,1,1]","[0.07070105106667773,0.0855859485665533]","[-1,-1,-1]","[-0.014745266718043767,0.004431012199463839]","[1,1,1]","[-0.05164148196419824,-0.19116840074955102]","[-1,-1,-1]","[0.05084486886594694,-0.01764176483047665]","[1,1,1]","[-0.18926124607425132,-0.041182643321466345]","[1,1,1]","[0.024692757028629657,-0.14166735945621586]","[1,1,1]","[-0.06397110171975798,0.17839242758816085]","[-1,-1,-1]","[-0.1320919409002692,-0.12313797385149865]","[1,1,1]","[0.02,0.02]",96.087,0,8,8,111,1,,,,,,,
,,,,,,,678faf96006731477a11673e,682f0fb8c7a887b5c4e2f757,2025-05-22_13h54.51.303,cuing_paradigm_dot,2024.1.5,Win32,59.88023952,682d573fa47f1360d1451895,,,,,,,,,,,96.088,96.5865,,,96.818,97.1274,right,0.2974,,,,,,,,,0.4,,,,,,96.5866,96.818,97.1274,"[0.04216596183356775,-0.12692547139666727]","[-1,-1,-1]","[-0.09900640301354736,-0.11774180422036064]","[-1,-1,-1]","[0.13723349083314043,-0.003268995545068145]","[-1,-1,-1]","[0.002918992530506628,0.024827051500274994]","[-1,-1,-1]","[-0.15659992236932738,-0.06973016391768348]","[-1,-1,-1]","[0.06924677062389839,0.031177779610088458]","[1,1,1]","[-0.15939249230289368,0.05800360175262182]","[1,1,1]","[-0.1506057862907618,-0.11243543749780505]","[1,1,1]","[0.09391927294909937,-0.11352441104358632]","[-1,-1,-1]","[0.17772461636508144,-0.03590717237756291]","[-1,-1,-1]","[-0.15210731929655888,0.1037688902629834]","[1,1,1]","[-0.0967513171236468,0.02888672103265404]","[-1,-1,-1]","[-0.07796796351189185,-0.02043959603397523]","[1,1,1]","[0.025739500800213838,0.1819383481775568]","[-1,-1,-1]","[0.08395711668948638,0.14794825816214208]","[-1,-1,-1]","[0.1868039896049622,0.03855431897907934]","[-1,-1,-1]","[-0.025325292879256604,0.14916122698799752]","[1,1,1]","[0.15937581991218217,-0.08891729457274236]","[1,1,1]","[-0.07693806579157557,-0.06548161082949706]","[-1,-1,-1]","[-0.030874148543428008,-0.15011616072684056]","[1,1,1]","[0.14095690463729274,0.10249258707485724]","[1,1,1]","[0.005287857220502542,-0.05201765368072929]","[1,1,1]","[-0.10675566074431174,0.11306289912726061]","[1,1,1]","[0.10982728365335227,-0.15985346343775175]","[-1,-1,-1]","[-0.026502286559825103,0.0645995957224999]","[-1,-1,-1]","[0.06598998324049034,0.07404830751040915]","[-1,-1,-1]","[-0.189179472258685,-0.03757319906998913]","[1,1,1]","[0.021083600738919007,0.07371696295050559]","[-1,-1,-1]","[0.027693005314760738,-0.1742948817173402]","[-1,-1,-1]","[-0.04693798442858542,0.19139696189186223]","[1,1,1]","[0.19820540112731444,-0.00004594286336500784]","[-1,-1,-1]","[-0.03878534981302321,0.02218946534108617]","[-1,-1,-1]","[0.02,0.02]",98.2354,0,9,9,42,1,,,,,,,
,,,,,,,678faf96006731477a11673e,682f0fb8c7a887b5c4e2f757,2025-05-22_13h54.51.303,cuing_paradigm_dot,2024.1.5,Win32,59.88023952,682d573fa47f1360d1451895,,,,,,,,,,,98.2362,98.725,,,98.9443,99.1774,right,0.2149,,,,,,,,,0.1,,,,,,98.725,98.9443,99.1774,"[0.015563058613293207,-0.1016065174165632]","[-1,-1,-1]","[-0.14705039839816555,0.13127048512673967]","[1,1,1]","[0.07899941758409838,0.10955885721412435]","[-1,-1,-1]","[-0.14275355873022072,-0.02462672573547786]","[-1,-1,-1]","[-0.19668070052083553,-0.006879533973734691]","[-1,-1,-1]","[0.13411837007591565,-0.011200307297072967]","[-1,-1,-1]","[-0.09376994470742753,-0.09993583586911474]","[-1,-1,-1]","[-0.07580675765288872,0.17467108602568496]","[-1,-1,-1]","[-0.08503593439995302,-0.18018780351280042]","[1,1,1]","[-0.15390824321275318,-0.07881247406726585]","[-1,-1,-1]","[0.0438802854955325,0.16284848469736463]","[-1,-1,-1]","[0.12458850202288257,-0.15052465711859594]","[-1,-1,-1]","[0.049538141560534536,-0.025878886042501145]","[1,1,1]","[0.05785079097564844,0.03897506563211645]","[-1,-1,-1]","[-0.009799154684747912,-0.15553304155085698]","[-1,-1,-1]","[0.14044058074880564,0.06234596532844242]","[-1,-1,-1]","[0.1734690094642596,-0.058644954499110724]","[-1,-1,-1]","[-0.004500703085696825,-0.02258406021281622]","[-1,-1,-1]","[-0.004088290413898975,0.06050190619379697]","[-1,-1,-1]","[0.03225374118048526,-0.15691830407796228]","[-1,-1,-1]","[-0.08440015837303616,0.0730952532308308]","[-1,-1,-1]","[0.10769168623039854,-0.06629105314325438]","[-1,-1,-1]","[-0.10362742297650449,-0.1391051137087043]","[-1,-1,-1]","[-0.037647922504786574,-0.09223291246561936]","[-1,-1,-1]","[0.17921451783412845,0.08389906126741599]","[-1,-1,-1]","[0.09256901599646909,-0.0006526379733603455]","[-1,-1,-1]","[-0.16333958434966794,0.06433925115760523]","[-1,-1,-1]","[0.0029897438960015815,0.14088037382358565]","[-1,-1,-1]","[0.0357580050009449,0.09258540482386336]","[-1,-1,-1]","[0.08347755411132103,-0.1174722773347303]","[-1,-1,-1]","[-0.05956199378042074,0.03317195267710211]","[-1,-1,-1]","[0.13135284771347513,0.14314462664291544]","[-1,-1,-1]","[0.02,0.02]",100.2549,0,10,10,6,1,,,,,,,
,,,,,,,678faf96006731477a11673e,682f0fb8c7a887b5c4e2f757,2025-05-22_13h54.51.303,cuing_paradigm_dot,2024.1.5,Win32,59.88023952,682d573fa47f1360d1451895,,,,,,,,,,,100.2557,100.7671,,,100.994,101.2139,right,0.207,,,,,,,,,0.1,,,,,,100.7672,100.9939,101.214,"[-0.06991164401154137,0.10175343701153239]","[-1,-1,-1]","[0.13725895715032574,0.09311303738789878]","[-1,-1,-1]","[0.0513282584463303,0.13653687564269698]","[-1,-1,-1]","[0.13448298535599598,0.13498251825332738]","[-1,-1,-1]","[-0.11826950622734762,-0.05963117358238756]","[-1,-1,-1]","[-0.1522937273119377,0.12279209426525764]","[-1,-1,-1]","[0.07141853341982594,-0.15180030875810652]","[1,1,1]","[0.1156403295224923,0.034008902504893815]","[-1,-1,-1]","[0.04957168660064972,-0.10231244287332844]","[-1,-1,-1]","[0.029675568159027364,-0.04193225117757869]","[-1,-1,-1]","[-0.19125261020082598,-0.04635997077425892]","[-1,-1,-1]","[0.1760514020214879,0.05530847657686477]","[1,1,1]","[0.04348120991402989,0.18713950015634395]","[1,1,1]","[0.10675010534588769,-0.10375021912332094]","[-1,-1,-1]","[-0.02003522750105805,0.11369420732843834]","[-1,-1,-1]","[0.005512457678990316,-0.18595894618904965]","[-1,-1,-1]","[-0.05164764684637354,-0.05882393920186902]","[-1,-1,-1]","[-0.14248609021284966,-0.024718034649822966]","[-1,-1,-1]","[-0.1930356393529869,0.01890300546305503]","[-1,-1,-1]","[-0.06365645286501102,0.055020195267194504]","[-1,-1,-1]","[-0.06289466216791846,0.14425142693168172]","[-1,-1,-1]","[-0.09544123108676807,-0.1334051330077644]","[-1,-1,-1]","[-0.03607154455308101,-0.1752100843633633]","[-1,-1,-1]","[0.010203503891561131,0.14518366569097876]","[-1,-1,-1]","[-0.1349537117373239,0.07798568494263136]","[-1,-1,-1]","[0.07382263660137858,0.01237049187947278]","[-1,-1,-1]","[0.06894712456513756,0.06913374621119743]","[-1,-1,-1]","[0.110280518588863,-0.04154796994086818]","[-1,-1,-1]","[0.015895721128179236,-0.14723408994016757]","[-1,-1,-1]","[0.18538595415026332,-0.04290105610058455]","[-1,-1,-1]","[-0.00830417024329842,0.00208109436248793]","[-1,-1,-1]","[0.13022002181804365,-0.14793502393700114]","[-1,-1,-1]","[0.02,0.02]",102.3197,0,11,11,1,1,,,,,,,
,,,,,,,678faf96006731477a11673e,682f0fb8c7a887b5c4e2f757,2025-05-22_13h54.51.303,cuing_paradigm_dot,2024.1.5,Win32,59.88023952,682d573fa47f1360d1451895,,,,,,,,,,,102.3201,102.8231,,,103.0674,103.2326,right,0.1506,,,,,,,,,0.6,,,,,,102.8231,103.0673,103.2327,"[-0.1021356053862464,-0.12159599920985428]","[-1,-1,-1]","[-0.09944025421784539,-0.024279216485398793]","[1,1,1]","[0.10989559806419211,0.06221953587469818]","[1,1,1]","[0.005110260483271844,-0.1967092252973719]","[-1,-1,-1]","[-0.03289524160401917,0.1410750332982466]","[-1,-1,-1]","[0.11065219417627538,-0.005892303063050522]","[1,1,1]","[-0.12214532095998286,0.04179005873270157]","[1,1,1]","[0.15476816179209352,-0.0783990582788804]","[1,1,1]","[0.03689575226524504,0.1648137363318668]","[-1,-1,-1]","[-0.17843981287854993,0.06516188440360678]","[1,1,1]","[0.19486772083419693,-0.04390464000014681]","[-1,-1,-1]","[-0.0576008503742144,-0.022462723177859266]","[-1,-1,-1]","[0.16523720340247974,-0.007212653462378606]","[1,1,1]","[0.029952548302201894,0.056363107436336705]","[1,1,1]","[-0.1656914436192181,-0.0015486819297522616]","[1,1,1]","[0.07460661782750445,-0.17449225018258824]","[-1,-1,-1]","[0.011768875754894425,0.13135648907619185]","[1,1,1]","[0.06875716872857564,0.021732376310418626]","[1,1,1]","[-0.16370921040461375,-0.05313295354506685]","[1,1,1]","[0.14581184240352157,0.13367485662462192]","[-1,-1,-1]","[-0.03917437475662318,-0.1950905173805396]","[1,1,1]","[-0.1537134916165524,-0.10335916229406511]","[-1,-1,-1]","[-0.06345352651746024,0.0760980551358505]","[1,1,1]","[-0.058029258858102756,-0.13179390336347416]","[1,1,1]","[0.0028498715735737943,0.1941148139335935]","[-1,-1,-1]","[-0.002861087354384698,-0.021653031035876943]","[1,1,1]","[-0.08350049395678656,0.1532529775271183]","[-1,-1,-1]","[0.06374296159510932,-0.03642742030635648]","[-1,-1,-1]","[-0.14052784589407225,0.13599248663486543]","[1,1,1]","[-0.006463912057087659,-0.06590893230464723]","[1,1,1]","[0.0058603572617329375,-0.12169329205731395]","[-1,-1,-1]","[0.09973098669985146,0.1009346717273137]","[1,1,1]","[0.02,0.02]",104.3229,0,12,12,171,1,,,,,,,
,,,,,,,678faf96006731477a11673e,682f0fb8c7a887b5c4e2f757,2025-05-22_13h54.51.303,cuing_paradigm_dot,2024.1.5,Win32,59.88023952,682d573fa47f1360d1451895,,,,,,,,,,,104.3238,104.8057,,,105.052,105.4017,left,0.3374,,,,,,,,,0.45,,,,,,104.8057,105.052,105.4018,"[0.0020701564173795186,0.014823481514609391]","[1,1,1]","[0.09803427412391554,0.004362507477876334]","[-1,-1,-1]","[0.05146595570858732,-0.19113646850173266]","[-1,-1,-1]","[0.17584226107968348,-0.026980618799761553]","[-1,-1,-1]","[0.09052268794832788,0.1691486096667349]","[-1,-1,-1]","[0.15004466060186708,-0.06070819397582545]","[1,1,1]","[-0.03724920229671668,0.13228117993861654]","[-1,-1,-1]","[-0.10146943729351864,-0.021542332564282014]","[-1,-1,-1]","[0.0663055545255461,-0.14381009745079645]","[1,1,1]","[-0.13059809880565312,-0.10049608807353302]","[-1,-1,-1]","[-0.19572872693386045,0.01682752267918601]","[-1,-1,-1]","[0.0066045679492761425,-0.1988764181540446]","[-1,-1,-1]","[-0.15001831482491876,-0.05017926838640548]","[1,1,1]","[0.16834093587321555,0.1075587715356106]","[1,1,1]","[0.011478193925288,-0.05183179519075825]","[1,1,1]","[-0.15766930883877,0.09709517570231167]","[-1,-1,-1]","[0.12572217406018923,-0.11838144875263039]","[-1,-1,-1]","[0.008497187395776908,-0.15360778371754533]","[1,1,1]","[-0.07916648109037507,0.07893994441720345]","[1,1,1]","[0.0691614520236054,0.08410230665008647]","[-1,-1,-1]","[0.058290508836496925,-0.04059414985912823]","[1,1,1]","[0.12316463192542754,0.06399898362249086]","[1,1,1]","[-0.11207755618161722,0.027643034498853965]","[-1,-1,-1]","[0.01668038646376158,0.1547005235129074]","[1,1,1]","[-0.0624582073641203,0.005216960784236363]","[-1,-1,-1]","[-0.036115149872067244,-0.1100203945343655]","[1,1,1]","[-0.020247470548458053,0.06126718121358173]","[-1,-1,-1]","[0.16058611600216538,0.04794787081577462]","[1,1,1]","[-0.09952173411525318,0.13633225243517738]","[1,1,1]","[0.13407411032608657,0.14633293070138145]","[-1,-1,-1]","[-0.1609789630223449,0.05604843956118736]","[-1,-1,-1]","[-0.07680606828853741,-0.16820114355024363]","[-1,-1,-1]","[0.02,0.02]",106.4977,0,13,13,78,1,,,,,,,
,,,,,,,678faf96006731477a11673e,682f0fb8c7a887b5c4e2f757,2025-05-22_13h54.51.303,cuing_paradigm_dot,2024.1.5,Win32,59.88023952,682d573fa47f1360d1451895,,,,,,,,,,,106.4991,106.982,,,107.2158,107.3867,right,0.1561,,,,,,,,,0.1,,,,,,106.982,107.2157,107.3868,"[0.0249354363408102,-0.09009944894234413]","[1,1,1]","[0.1039180945910483,-0.03598175374189319]","[-1,-1,-1]","[-0.0024083584916198934,-0.1786457956077516]","[-1,-1,-1]","[-0.15807370744024649,-0.015232158371483916]","[-1,-1,-1]","[-0.05460512120979933,-0.16010593622486138]","[-1,-1,-1]","[-0.03472437968127137,0.1064363843413539]","[-1,-1,-1]","[0.029477078288574977,0.1433535853468284]","[-1,-1,-1]","[0.09482622918098453,-0.07991168009843869]","[-1,-1,-1]","[-0.022952988406105556,-0.0545315871621933]","[1,1,1]","[-0.14466238677142812,0.1309028770448646]","[-1,-1,-1]","[0.19088151065490963,-0.047200184851304304]","[-1,-1,-1]","[0.14269540808317707,0.008244268114031778]","[-1,-1,-1]","[-0.055807308343478204,0.16910269716739632]","[-1,-1,-1]","[-0.09165019233161364,0.059165119596072006]","[-1,-1,-1]","[-0.12898635491980834,-0.0891235034741064]","[-1,-1,-1]","[0.04437334961656546,-0.1400228474950218]","[-1,-1,-1]","[-0.08586529057882387,-0.037709362274708676]","[-1,-1,-1]","[-0.14296564725804115,0.02194716759300042]","[-1,-1,-1]","[0.09045315706983709,0.1470066368254111]","[-1,-1,-1]","[-0.19249555367049173,0.05082917069768801]","[-1,-1,-1]","[0.07118638867480005,-0.009165255140850682]","[-1,-1,-1]","[-0.03062738510138963,-0.10585070436305137]","[-1,-1,-1]","[0.14202663424719586,-0.07490583599701443]","[-1,-1,-1]","[0.022607847258599316,0.06403591431917556]","[-1,-1,-1]","[0.11250282402988819,0.10492741018704427]","[-1,-1,-1]","[-0.13052809327359638,0.07569079955769265]","[-1,-1,-1]","[-0.024979960930728067,0.06155095758551325]","[-1,-1,-1]","[0.152668390818767,0.04906916026521244]","[-1,-1,-1]","[-0.19819205688719216,0.0019935823104000015]","[-1,-1,-1]","[-0.05295425805163829,0.028520126565891334]","[1,1,1]","[0.13557542029953176,-0.12508482159920198]","[-1,-1,-1]","[0.04077494990548,0.18633313983395275]","[-1,-1,-1]","[0.02,0.02]",108.4652,0,14,14,21,1,,,,,,,
,,,,,,,678faf96006731477a11673e,682f0fb8c7a887b5c4e2f757,2025-05-22_13h54.51.303,cuing_paradigm_dot,2024.1.5,Win32,59.88023952,682d573fa47f1360d1451895,,,,,,,,,,,108.4662,108.9387,,,109.1649,109.4341,left,0.2536,,,,,,,,,0.9,,,,,,108.9388,109.1649,109.4341,"[-0.035315696039950877,0.12079415182611777]","[1,1,1]","[0.13723929878641591,0.01543542761619332]","[1,1,1]","[0.15466412802617235,-0.08922452334049782]","[1,1,1]","[0.16075318542408512,0.07250302059243281]","[1,1,1]","[0.07699490338796816,0.07429551166835534]","[1,1,1]","[0.11542225642325472,-0.05682154780955747]","[1,1,1]","[-0.15224287555774868,0.04173365919467156]","[1,1,1]","[0.011341106767089104,-0.049897817279064206]","[1,1,1]","[-0.08298186366878471,0.1391367302479164]","[1,1,1]","[-0.11499689900997835,-0.09759931058472149]","[1,1,1]","[0.08647623709219586,-0.028323165525162612]","[1,1,1]","[-0.04986706594673852,-0.14808425602418346]","[1,1,1]","[0.0770712236355647,0.11475593371311991]","[1,1,1]","[-0.15627939867936066,-0.12058948770693519]","[1,1,1]","[-0.0992837936310816,-0.05093983041426182]","[-1,-1,-1]","[-0.005656640517897728,0.0812283878584565]","[-1,-1,-1]","[-0.06074472333687249,0.0745271844542549]","[1,1,1]","[0.12320461720692222,0.053742497983590626]","[1,1,1]","[0.08062005525073926,-0.12154206512520377]","[1,1,1]","[0.130616190613254,-0.12451952476480606]","[1,1,1]","[-0.025270239393901456,0.1758465969035273]","[1,1,1]","[0.037125097507171176,0.10018291799854309]","[1,1,1]","[-0.041203881928014996,-0.024743434254292495]","[-1,-1,-1]","[-0.12042414493528877,0.11922444518153852]","[1,1,1]","[0.1381393917887379,0.11510523676292603]","[1,1,1]","[0.05368182569437982,-0.15683362942687942]","[1,1,1]","[0.07783096242780677,0.021975322931212647]","[1,1,1]","[-0.16951224448466132,-0.0825178468230118]","[1,1,1]","[0.05300771894633433,0.1502927819755711]","[1,1,1]","[-0.1880411942338317,-0.02257853764102039]","[1,1,1]","[0.02497640154953235,0.18846006463154621]","[1,1,1]","[0.014825590175010473,-0.18065622105974316]","[1,1,1]","[0.02,0.02]",110.5228,0,15,15,187,1,,,,,,,
,,,,,,,678faf96006731477a11673e,682f0fb8c7a887b5c4e2f757,2025-05-22_13h54.51.303,cuing_paradigm_dot,2024.1.5,Win32,59.88023952,682d573fa47f1360d1451895,,,,,,,,,,,110.5237,111.0173,,,111.2727,111.5469,right,0.2555,,,,,,,,,0.45,,,,,,111.0174,111.2726,111.547,"[-0.13667685287880169,-0.02051519341912338]","[1,1,1]","[-0.02835304747150126,0.14795918327844815]","[-1,-1,-1]","[0.11032587799314121,0.021506800707083648]","[-1,-1,-1]","[-0.11684241741461396,0.12814215898745693]","[-1,-1,-1]","[-0.128503051493066,0.0669494961126559]","[1,1,1]","[-0.06065962685748196,-0.033264314399924666]","[-1,-1,-1]","[0.04644793945445517,-0.08537567563778443]","[1,1,1]","[-0.10646857117382014,-0.12055611739306017]","[1,1,1]","[0.1486565544301614,-0.08149747497912911]","[-1,-1,-1]","[-0.091164835919943,-0.17644338551144942]","[-1,-1,-1]","[-0.10150321582937272,0.017237607374021188]","[-1,-1,-1]","[0.17940207513204434,-0.006244275581954331]","[-1,-1,-1]","[0.14289501794797638,0.11246422350935345]","[1,1,1]","[-0.17743055790997497,-0.02511104461903979]","[-1,-1,-1]","[0.04563963160793333,-0.04053973430410958]","[-1,-1,-1]","[-0.05969651100166217,0.10574501727456284]","[1,1,1]","[0.10033783487106786,0.12354367367657453]","[-1,-1,-1]","[-0.019293059009650355,-0.18844872430589252]","[-1,-1,-1]","[0.040869589652344045,0.17088640320153767]","[1,1,1]","[0.024354032406562844,0.12050145216462507]","[-1,-1,-1]","[-0.017305394228944407,0.06036927773075645]","[1,1,1]","[-0.0404211209943993,-0.10035139825076364]","[-1,-1,-1]","[0.1829642685952507,-0.059040778333924446]","[1,1,1]","[-0.09604165375697601,-0.061835397748829075]","[-1,-1,-1]","[-0.16965227311826098,-0.09056601082516871]","[-1,-1,-1]","[0.1007599356039926,0.07341230211538147]","[1,1,1]","[0.03946150239988593,0.0822276837306442]","[1,1,1]","[0.022054477405993634,-0.12688578412827378]","[1,1,1]","[0.09258981590538864,0.17318441866980216]","[-1,-1,-1]","[0.12371643860665864,-0.1535841249358829]","[1,1,1]","[-0.14500583965492372,0.025215160550694688]","[-1,-1,-1]","[-0.18938709524669856,0.04550784794401017]","[1,1,1]","[0.02,0.02]",112.6655,0,16,16,69,1,,,,,,,
,,,,,,,678faf96006731477a11673e,682f0fb8c7a887b5c4e2f757,2025-05-22_13h54.51.303,cuing_paradigm_dot,2024.1.5,Win32,59.88023952,682d573fa47f1360d1451895,,,,,,,,,,,112.6659,113.1829,,,113.437,113.6352,right,0.1846,,,,,,,,,0.45,,,,,,113.1829,113.4369,113.6354,"[0.14085093643187624,-0.06865452624964426]","[-1,-1,-1]","[-0.10138048545623189,-0.17212973208439483]","[1,1,1]","[-0.014185924085331965,-0.14631997111060305]","[1,1,1]","[0.03718217901705314,-0.0001372928334705847]","[-1,-1,-1]","[0.07966410355762232,-0.014736670504339092]","[-1,-1,-1]","[-0.07542408734645728,0.12561864366842532]","[1,1,1]","[-0.05700964480348253,0.054291855130781844]","[-1,-1,-1]","[0.17903115861619726,0.07261270537249621]","[1,1,1]","[-0.13164658687968717,0.06729621890297602]","[1,1,1]","[-0.09965552290174888,-0.06483596460755495]","[1,1,1]","[-0.14043732683972285,-0.036270739007066885]","[-1,-1,-1]","[-0.038201406633497144,-0.0245789995961848]","[-1,-1,-1]","[-0.007210357103803815,0.10352608123075963]","[-1,-1,-1]","[0.09628259567255319,0.03998814385321637]","[1,1,1]","[-0.1312218268228535,0.11826845902716367]","[-1,-1,-1]","[-0.090507411680851,0.17530924990198912]","[1,1,1]","[-0.03286444008679791,0.1491573094842028]","[1,1,1]","[0.0040269311051047895,0.18833997725155047]","[1,1,1]","[0.042956345942965435,-0.11546957048839858]","[1,1,1]","[0.04812917645591619,0.11514144236007004]","[1,1,1]","[0.008629538125532075,-0.07861010057069259]","[1,1,1]","[-0.1538611940573257,0.02345019183491358]","[1,1,1]","[0.1294294672874437,0.08446710388237641]","[-1,-1,-1]","[0.16357941566314482,0.033547635409600915]","[-1,-1,-1]","[0.003994660290426761,-0.18407413327433383]","[-1,-1,-1]","[-0.095780122025493,-0.11139645496019607]","[-1,-1,-1]","[-0.010670234375322288,0.027538302899281837]","[-1,-1,-1]","[-0.05583887118574879,-0.1361662619901588]","[-1,-1,-1]","[0.035965694308351726,-0.15963541874406686]","[-1,-1,-1]","[0.055185759383011526,0.17911768278175091]","[-1,-1,-1]","[0.12438857000920835,-0.14305294929420195]","[-1,-1,-1]","[-0.19135678731013417,0.044165314945852185]","[-1,-1,-1]","[0.02,0.02]",114.7203,0,17,17,73,1,,,,,,,
,,,,,,,678faf96006731477a11673e,682f0fb8c7a887b5c4e2f757,2025-05-22_13h54.51.303,cuing_paradigm_dot,2024.1.5,Win32,59.88023952,682d573fa47f1360d1451895,,,,,,,,,,,114.7213,115.2277,,,115.4659,115.7117,right,0.2331,,,,,,,,,0.9,,,,,,115.2277,115.4659,115.7117,"[-0.09441370689487409,0.028053063726046518]","[1,1,1]","[-0.09093014306929555,-0.0926350697450821]","[1,1,1]","[-0.14107993740537442,-0.03041475679715411]","[1,1,1]","[-0.05785676411930693,0.09971144543107725]","[1,1,1]","[-0.04045782128862801,0.053049184521654046]","[-1,-1,-1]","[0.024272336085797635,0.15812645774318773]","[1,1,1]","[-0.0477058911891354,0.16679039378713598]","[1,1,1]","[0.1606949562594393,0.013778194405320833]","[1,1,1]","[0.15644377652065294,-0.03075586566172772]","[1,1,1]","[-0.039639152559386805,-0.19210683556425912]","[1,1,1]","[0.05737364343752198,0.04438616329289989]","[1,1,1]","[0.15938437276198825,-0.0835386118582065]","[1,1,1]","[0.11422598813448992,-0.1401626838754109]","[1,1,1]","[0.06981855890722541,-0.04570948368389507]","[1,1,1]","[-0.09807191747919349,0.1428038440418927]","[1,1,1]","[-0.10348807799188217,0.08877656236099878]","[1,1,1]","[-0.10329735749190007,-0.05345785205663477]","[1,1,1]","[0.13139902852497604,0.08304131150390488]","[1,1,1]","[0.06378620772377758,0.1410500774234403]","[1,1,1]","[0.046283957995790215,-0.09288750230910692]","[-1,-1,-1]","[-0.14987338983141188,0.12081153804332673]","[1,1,1]","[-0.1670670899913819,0.048204212929060644]","[1,1,1]","[-0.14155827683473304,-0.07764481072192156]","[-1,-1,-1]","[-0.01471495420918773,0.19082530070405326]","[1,1,1]","[0.10409670782830702,-0.025035988897943864]","[1,1,1]","[-0.131037010163163,-0.1429018697958312]","[1,1,1]","[-0.013588954468554005,-0.09379795711332035]","[1,1,1]","[0.11949849448429135,-0.0751392923720674]","[1,1,1]","[0.01136496174747419,-0.017484460553184585]","[1,1,1]","[0.017309295836658162,0.07401443920543696]","[1,1,1]","[-0.03332448792176786,-0.0015512349132434863]","[1,1,1]","[0.18870029482943745,0.05775051682575413]","[1,1,1]","[0.02,0.02]",116.7972,0,18,18,183,1,,,,,,,
,,,,,,,678faf96006731477a11673e,682f0fb8c7a887b5c4e2f757,2025-05-22_13h54.51.303,cuing_paradigm_dot,2024.1.5,Win32,59.88023952,682d573fa47f1360d1451895,,,,,,,,,,,116.7984,117.2983,,,117.5352,117.8439,left,0.2905,,,,,,,,,0.6,,,,,,117.2984,117.5352,117.8439,"[0.0508712493295434,-0.14457104155056377]","[-1,-1,-1]","[-0.03935914225703913,0.19139715736021642]","[1,1,1]","[0.08321726495802574,-0.08233474315967199]","[1,1,1]","[0.11916262751350311,-0.04732724291178741]","[1,1,1]","[0.10814416162305994,0.16703527975032417]","[-1,-1,-1]","[0.12295756779061426,0.10598772942080041]","[1,1,1]","[-0.01871942829117439,-0.08526861876380186]","[1,1,1]","[0.024162066853582118,0.08011993914376661]","[1,1,1]","[0.1489965235387228,-0.10344759270173923]","[-1,-1,-1]","[0.16489793592148583,-0.00449088848943698]","[1,1,1]","[0.05860373200050705,-0.026997754470230728]","[1,1,1]","[-0.09503229455072897,0.12948301100369047]","[-1,-1,-1]","[0.027672534358047386,-0.07808502108677721]","[1,1,1]","[-0.14707084233907294,-0.09910603448761182]","[1,1,1]","[-0.015635291722313052,0.055027013635959146]","[1,1,1]","[-0.06299816095465705,-0.15410086996682226]","[-1,-1,-1]","[-0.07449997225085876,-0.10617824815940943]","[1,1,1]","[0.05923697722824318,0.14827927723835652]","[1,1,1]","[0.03394176779791818,0.02069193822613264]","[-1,-1,-1]","[0.14020104968404654,0.05185254861907569]","[1,1,1]","[-0.008545850372072908,-0.1267315984656989]","[1,1,1]","[0.08692596375531679,0.08568768639981847]","[-1,-1,-1]","[-0.14967099063879064,0.004729710101528638]","[1,1,1]","[-0.054489407447332196,0.02981847286205835]","[-1,-1,-1]","[0.08131644663076246,0.02530731952893394]","[-1,-1,-1]","[-0.0399652099232525,0.13854368899081615]","[-1,-1,-1]","[0.10936006592640189,-0.13297114355899775]","[1,1,1]","[0.010505504697706659,-0.16771028576350788]","[-1,-1,-1]","[-0.12435624423376745,0.10055236691313245]","[1,1,1]","[-0.1580962085513467,0.045534385729546004]","[-1,-1,-1]","[0.16534194436881944,0.10801545362477818]","[-1,-1,-1]","[-0.16876541089378042,-0.046929274864826065]","[1,1,1]","[0.02,0.02]",118.9464,0,19,19,178,1,,,,,,,
,,,,,,,678faf96006731477a11673e,682f0fb8c7a887b5c4e2f757,2025-05-22_13h54.51.303,cuing_paradigm_dot,2024.1.5,Win32,59.88023952,682d573fa47f1360d1451895,,,,,,,,,,,118.9475,119.4424,,,119.6786,119.9446,right,0.2524,,,,,,,,,0.6,,,,,,119.4424,119.6786,119.9449,"[-0.10741484466318366,0.07393892212243351]","[1,1,1]","[-0.009495072695497968,0.17935979538204042]","[1,1,1]","[-0.05803056651121462,-0.017670136494114926]","[1,1,1]","[0.06928591932428878,-0.16160386952225553]","[1,1,1]","[-0.10522241711157693,-0.0377701430321623]","[-1,-1,-1]","[-0.08085146886590124,-0.17549676345280002]","[-1,-1,-1]","[-0.12006434343748891,0.03172847089078956]","[-1,-1,-1]","[0.07240207453535875,0.08639886727792075]","[-1,-1,-1]","[0.041191995806176246,-0.11936575040717334]","[1,1,1]","[0.17086558329993698,-0.053785051001175886]","[-1,-1,-1]","[0.15605141845114848,0.08259011243326786]","[1,1,1]","[-0.008063562945465579,0.1026406140047839]","[-1,-1,-1]","[-0.04087376082373823,0.02276517114073629]","[1,1,1]","[0.053575040038521836,-0.019327948652763317]","[-1,-1,-1]","[-0.12207809582150957,0.13399139826783382]","[1,1,1]","[0.1031032645460695,0.1578225259554299]","[-1,-1,-1]","[0.015316351939887238,0.04049300427509368]","[-1,-1,-1]","[0.1482654587776189,-0.010301359955916939]","[-1,-1,-1]","[0.00838563115675834,-0.051347952842667216]","[1,1,1]","[-0.05698981668826306,-0.13079468152062185]","[1,1,1]","[0.10522011015409843,-0.14338372501666724]","[1,1,1]","[0.127149395608245,0.0345203718245852]","[-1,-1,-1]","[0.10024365259672922,-0.017549162844341697]","[1,1,1]","[0.11362624146847575,-0.07539716457575929]","[1,1,1]","[-0.018702948424062997,0.06279852325628905]","[1,1,1]","[-0.18722065658013035,0.008319255855350115]","[1,1,1]","[-0.16558519320122006,0.10814082401320742]","[1,1,1]","[-0.18847641261018397,-0.05298227481822641]","[1,1,1]","[-0.1654696059725035,-0.08978371356223896]","[-1,-1,-1]","[-0.12422514932388573,-0.14514345701463552]","[-1,-1,-1]","[0.01709535629359115,-0.0015944547094005504]","[1,1,1]","[-0.002754810268652585,-0.10743033602933807]","[1,1,1]","[0.02,0.02]",121.0302,0,20,20,150,1,,,,,,,
,,,,,,,678faf96006731477a11673e,682f0fb8c7a887b5c4e2f757,2025-05-22_13h54.51.303,cuing_paradigm_dot,2024.1.5,Win32,59.88023952,682d573fa47f1360d1451895,,,,,,,,,,,121.0311,121.5105,,,121.7513,122.1257,right,0.3623,,,,,,,,,0.4,,,,,,121.5106,121.7512,122.1258,"[-0.11380130548954477,-0.09359147015766672]","[1,1,1]","[0.18539128429401147,-0.006901680998376095]","[1,1,1]","[-0.003989297696882487,-0.19480055346342826]","[-1,-1,-1]","[-0.05088835866682346,0.15378777729790577]","[-1,-1,-1]","[0.011755739231429325,0.04741438733713508]","[1,1,1]","[-0.04504584601503324,-0.14141088108113495]","[-1,-1,-1]","[0.10738364009993982,-0.0480704797651263]","[-1,-1,-1]","[0.03254024979834445,-0.07033412612995958]","[1,1,1]","[0.03268695020621917,-0.026000283671807716]","[1,1,1]","[0.0568031748315055,0.012876703609961692]","[-1,-1,-1]","[0.17275311258230638,-0.07334662147849513]","[-1,-1,-1]","[-0.12025830266084901,0.046777941143574635]","[-1,-1,-1]","[0.11762394256281772,-0.09765133265529696]","[1,1,1]","[0.15445763006560392,0.12340627493947995]","[1,1,1]","[-0.09627048153459337,0.12720637700732593]","[-1,-1,-1]","[-0.16401592414071842,-0.06174381268680647]","[1,1,1]","[0.020509957051716782,0.08770814466872144]","[-1,-1,-1]","[-0.16772305108466445,0.00872481803625682]","[1,1,1]","[-0.15003846412970281,-0.13111043416980933]","[-1,-1,-1]","[0.022506688580593383,0.17652719883345305]","[-1,-1,-1]","[0.12114251557720308,0.06808272973783448]","[-1,-1,-1]","[-0.01160386154329114,-0.07173226283811025]","[1,1,1]","[-0.039931371405324205,0.06927101665336202]","[1,1,1]","[-0.06356485372260992,0.007616443303445635]","[-1,-1,-1]","[0.14038799821414055,-0.010035879348969346]","[-1,-1,-1]","[0.03464499798160708,0.13430977104918612]","[1,1,1]","[0.13983724235110553,-0.1428454101765214]","[1,1,1]","[-0.01628966857028132,-0.023433012760836675]","[-1,-1,-1]","[0.021288966207312354,-0.1399251554488063]","[-1,-1,-1]","[-0.04676029893468864,-0.09446252077983028]","[-1,-1,-1]","[-0.11276754772496357,-0.003799338782948765]","[-1,-1,-1]","[-0.0207410638795629,0.19730065395718996]","[-1,-1,-1]","[0.02,0.02]",123.2129,0,21,21,44,1,,,,,,,
,,,,,,,678faf96006731477a11673e,682f0fb8c7a887b5c4e2f757,2025-05-22_13h54.51.303,cuing_paradigm_dot,2024.1.5,Win32,59.88023952,682d573fa47f1360d1451895,,,,,,,,,,,123.214,123.7244,,,123.9596,124.258,right,0.2831,,,,,,,,,0.45,,,,,,123.7244,123.9595,124.258,"[-0.012329794689238857,-0.09931637141274377]","[1,1,1]","[-0.047727143480849346,-0.12563113961615519]","[1,1,1]","[0.04971389501743114,-0.060318677012517835]","[1,1,1]","[-0.11432559677055386,-0.13537852450121293]","[-1,-1,-1]","[0.07271954465348807,0.08430137098089145]","[-1,-1,-1]","[-0.06175404870911577,0.07288688392602294]","[1,1,1]","[-0.16034938916092756,-0.11898794745537528]","[1,1,1]","[0.052498233107717944,0.034488965721488296]","[-1,-1,-1]","[0.0930096894124124,-0.07825473159003499]","[-1,-1,-1]","[-0.0467149836833289,-0.06099620928566504]","[-1,-1,-1]","[0.027331654201841468,-0.10630436841692338]","[-1,-1,-1]","[0.1927316857594991,-0.028237164657975183]","[-1,-1,-1]","[0.00099144026295299,-0.16739603927959393]","[-1,-1,-1]","[0.09118837985293489,-0.02317604917135905]","[-1,-1,-1]","[0.13658940482897067,-0.005512301740916978]","[-1,-1,-1]","[-0.040207572088208965,0.16760974051626185]","[-1,-1,-1]","[0.04471444590347725,0.14739977081019154]","[1,1,1]","[-0.15267952091645345,0.07692568596694938]","[1,1,1]","[0.13915757717291988,-0.08314778312768988]","[1,1,1]","[0.0025129699278401488,0.16872773503014793]","[-1,-1,-1]","[0.175206625765338,0.046500395219457716]","[1,1,1]","[-0.15889912207737494,0.1176058313301954]","[-1,-1,-1]","[0.10080504547910438,-0.14685065211940285]","[1,1,1]","[0.012755906450852606,0.1041548259402868]","[1,1,1]","[-0.17297219720046994,-0.00026663010454136706]","[1,1,1]","[-0.040529483109746724,0.033584219821221284]","[-1,-1,-1]","[-0.12827730017584021,-0.05763447274681332]","[-1,-1,-1]","[-0.08287216998898317,0.17235971855928423]","[1,1,1]","[-0.04084401050144261,0.11042413653686649]","[1,1,1]","[-0.186934381222402,-0.06760166143955222]","[-1,-1,-1]","[0.05752861806208005,-0.18507878442882392]","[-1,-1,-1]","[0.0028972219700821875,-0.012108707557354884]","[-1,-1,-1]","[0.02,0.02]",125.3464,0,22,22,83,1,,,,,,,
,,,,,,,678faf96006731477a11673e,682f0fb8c7a887b5c4e2f757,2025-05-22_13h54.51.303,cuing_paradigm_dot,2024.1.5,Win32,59.88023952,682d573fa47f1360d1451895,,,,,,,,,,,125.3468,125.8294,,,126.0837,126.4607,left,0.3668,,,,,,,,,0.6,,,,,,125.8295,126.0837,126.4607,"[0.043252089749414524,-0.11592897169264359]","[-1,-1,-1]","[0.18570068485215765,-0.010375117464443258]","[1,1,1]","[0.038382235248101776,0.14120903084836323]","[-1,-1,-1]","[0.004035793229763805,-0.01810581896938974]","[-1,-1,-1]","[0.1321859769909678,-0.12767036713879332]","[-1,-1,-1]","[-0.08101862037192446,-0.040572495875178735]","[-1,-1,-1]","[-0.1309408621256773,0.0932550010730093]","[1,1,1]","[-0.1529761814450204,-0.0751703673482623]","[1,1,1]","[-0.1036471605723776,0.011919633563898255]","[-1,-1,-1]","[-0.17769968496712252,0.08333505050009905]","[1,1,1]","[0.0214881946941042,-0.19625383648199035]","[1,1,1]","[0.07571380932275709,-0.04464058789445964]","[1,1,1]","[0.050806471713378556,-0.15587383201422678]","[-1,-1,-1]","[-0.027109515124134426,-0.19371430425172384]","[-1,-1,-1]","[0.05956030742816057,0.09608238795206583]","[-1,-1,-1]","[0.11574432236124928,-0.004972766566021489]","[1,1,1]","[0.04081378378481313,0.04642675753212658]","[1,1,1]","[-0.06437485742247671,-0.14433720576007295]","[1,1,1]","[-0.013532625195566021,0.12994127919652992]","[1,1,1]","[-0.16519334059767327,0.0003750842399439744]","[1,1,1]","[-0.030586144609668027,-0.100127234009021]","[1,1,1]","[0.11175834924854701,0.11502928223167844]","[1,1,1]","[-0.14530623646956997,0.13244984031555376]","[1,1,1]","[-0.0654910762543975,0.13493923998985685]","[1,1,1]","[-0.062342427404791075,0.1824670618036512]","[1,1,1]","[-0.029401424911569975,0.020659116378673]","[-1,-1,-1]","[-0.039172995383828395,0.09687638558647599]","[-1,-1,-1]","[0.13439021949353316,-0.07768702625033495]","[-1,-1,-1]","[0.15244969638962855,0.08440059865767281]","[1,1,1]","[0.143457036516203,0.030857186279728107]","[1,1,1]","[-0.12292420919107619,-0.03127649597162858]","[1,1,1]","[-0.09025711100423758,-0.10285838962125733]","[-1,-1,-1]","[0.02,0.02]",127.5553,0,23,23,167,1,,,,,,,
,,,,,,,678faf96006731477a11673e,682f0fb8c7a887b5c4e2f757,2025-05-22_13h54.51.303,cuing_paradigm_dot,2024.1.5,Win32,59.88023952,682d573fa47f1360d1451895,,,,,,,,,,,127.5563,128.0596,,,128.2995,128.623,right,0.3105,,,,,,,,,0.5,,,,,,128.0596,128.2995,128.6231,"[0.10141882491152007,-0.15310754759180323]","[-1,-1,-1]","[0.0914774357090826,-0.07600050626622491]","[-1,-1,-1]","[0.06295969909118539,0.013957771523005778]","[-1,-1,-1]","[0.17608040460199575,0.07952874464208524]","[-1,-1,-1]","[-0.014635300240647417,0.01581875086146234]","[-1,-1,-1]","[0.06087319503705951,-0.15880508071975166]","[-1,-1,-1]","[0.035171094996118306,0.05709382064537282]","[1,1,1]","[-0.15649228302681067,-0.0013966772948950218]","[1,1,1]","[0.02899818623831541,0.14602963506593736]","[1,1,1]","[-0.03656473864376969,-0.13542478013528794]","[1,1,1]","[0.16142424913542794,-0.06664882666066187]","[1,1,1]","[-0.05286775627613166,0.17952414228227048]","[1,1,1]","[-0.018361740818206265,0.15336632462353644]","[-1,-1,-1]","[0.011056676205481099,-0.18449990292547938]","[1,1,1]","[0.14438936945620212,0.010221841318266726]","[-1,-1,-1]","[-0.08330161450213378,-0.07190085813953873]","[-1,-1,-1]","[0.028645424646628746,0.10217262969060649]","[-1,-1,-1]","[0.028038035550154064,-0.06005297714283005]","[1,1,1]","[-0.13021780887565895,-0.10349971935836959]","[-1,-1,-1]","[0.07647233964762644,0.15603392972087207]","[1,1,1]","[0.15699498365735093,-0.1144136457215422]","[-1,-1,-1]","[-0.12324016906640127,0.1537343759800013]","[-1,-1,-1]","[-0.0793312405585825,0.07937681510787521]","[1,1,1]","[-0.042455907941273185,0.10961405820953302]","[-1,-1,-1]","[-0.07400222612005662,-0.016991018817786606]","[1,1,1]","[-0.16430444961220933,-0.07312255694036039]","[1,1,1]","[0.13786075209530652,0.1429063498496891]","[-1,-1,-1]","[-0.1734790450087425,0.07898484162173272]","[1,1,1]","[-0.07933108188899282,0.13233588555087375]","[-1,-1,-1]","[-0.12804061283240464,0.07952409794546442]","[1,1,1]","[-0.19791098745131594,-0.02779725286778606]","[1,1,1]","[0.13551865277663824,0.08354943147611195]","[1,1,1]","[0.02,0.02]",129.7507,0,24,24,112,1,,,,,,,
,,,,,,,678faf96006731477a11673e,682f0fb8c7a887b5c4e2f757,2025-05-22_13h54.51.303,cuing_paradigm_dot,2024.1.5,Win32,59.88023952,682d573fa47f1360d1451895,,,,,,,,,,,129.7515,130.2568,,,130.5065,130.7445,right,0.2158,,,,,,,,,0.1,,,,,,130.2569,130.5064,130.7445,"[0.1879081886015341,0.05647044482646999]","[-1,-1,-1]","[-0.0786177878540866,-0.039393144155795534]","[-1,-1,-1]","[0.051893547922882276,-0.18861536573416995]","[-1,-1,-1]","[0.07572414608896333,0.1575585972613096]","[-1,-1,-1]","[-0.120448307055027,-0.03528915589976993]","[-1,-1,-1]","[-0.1005577921668213,-0.09151789310470484]","[-1,-1,-1]","[0.0715831552261446,0.0008977928447463388]","[-1,-1,-1]","[0.008061442525946934,0.13417866751384672]","[-1,-1,-1]","[-0.0656216344627927,0.003506096411765805]","[-1,-1,-1]","[-0.04893244728918813,-0.11834548020358979]","[-1,-1,-1]","[0.13272230599247323,-0.06695914684707087]","[1,1,1]","[-0.1905461210406533,0.048590484538606184]","[-1,-1,-1]","[-0.0344150030497118,0.03564302322220795]","[1,1,1]","[-0.09557675171287297,-0.15042414449350586]","[-1,-1,-1]","[0.042539798129510725,-0.06676015280377767]","[-1,-1,-1]","[-0.04278484781430614,0.165931583958606]","[-1,-1,-1]","[0.05130610023797431,0.10078976539024112]","[-1,-1,-1]","[-0.04173999052113723,0.08411097231308373]","[-1,-1,-1]","[-0.16743567533145015,0.10330140463037682]","[1,1,1]","[0.0033657814740278374,0.008597872428882724]","[-1,-1,-1]","[-0.10401455404622456,0.1522309560754442]","[-1,-1,-1]","[-0.17372334841427606,-0.004010582840175811]","[-1,-1,-1]","[0.14419298106780432,0.00853274884178111]","[-1,-1,-1]","[-0.11683891837153841,0.013004455668031874]","[-1,-1,-1]","[0.0026369788055091675,-0.16548887756870917]","[-1,-1,-1]","[0.11883744606568544,-0.1393074577807754]","[-1,-1,-1]","[0.17657036531013157,-0.049895293249157584]","[-1,-1,-1]","[0.02358159808531828,0.1934034995810513]","[-1,-1,-1]","[0.06114075540495014,-0.1384010044151473]","[-1,-1,-1]","[0.11070750981276958,0.1332191547658577]","[-1,-1,-1]","[0.1931864425446682,-0.0028797176141021506]","[-1,-1,-1]","[-0.023308018064927934,-0.02641098295472199]","[-1,-1,-1]","[0.02,0.02]",131.8416,0,25,25,19,1,,,,,,,
,,,,,,,678faf96006731477a11673e,682f0fb8c7a887b5c4e2f757,2025-05-22_13h54.51.303,cuing_paradigm_dot,2024.1.5,Win32,59.88023952,682d573fa47f1360d1451895,,,,,,,,,,,131.8429,132.324,,,132.5406,132.9954,left,0.4224,,,,,,,,,0.55,,,,,,132.3241,132.5406,132.9955,"[0.1467587588874758,0.1044715313212745]","[1,1,1]","[0.15849559041922742,-0.10979608823094077]","[1,1,1]","[0.04799410810049227,-0.0021303940826325235]","[-1,-1,-1]","[0.1383044558436195,-0.008049832163282767]","[1,1,1]","[0.04565226674657211,0.058799038745525736]","[-1,-1,-1]","[0.05915286698021247,0.16959809933219977]","[-1,-1,-1]","[-0.017194245308589335,0.08487553491304708]","[-1,-1,-1]","[0.021194720821963452,-0.06801944697990063]","[1,1,1]","[-0.01774476868401476,-0.0883359599704546]","[-1,-1,-1]","[-0.05051292336127557,0.04376827199236586]","[-1,-1,-1]","[-0.1616779959783922,-0.013322263943243266]","[1,1,1]","[0.08329873097544065,-0.042696286417675255]","[-1,-1,-1]","[-0.1399171531037116,-0.12209000663831636]","[1,1,1]","[-0.0988744742992144,0.09489297084598856]","[1,1,1]","[0.1288326662804368,0.06773251058647797]","[-1,-1,-1]","[-0.16868143150118872,0.07945790627673029]","[-1,-1,-1]","[0.08140455654258041,-0.1510322647967988]","[1,1,1]","[0.1855884396628291,0.050023665823592925]","[-1,-1,-1]","[-0.08088501191072434,-0.08654717553889382]","[1,1,1]","[-0.0919336711466722,0.13885138825508078]","[-1,-1,-1]","[-0.047993840579229216,-0.02014503645206037]","[1,1,1]","[0.08184803892711144,-0.09352535121294127]","[1,1,1]","[0.13314100747278337,-0.06519495931831884]","[1,1,1]","[-0.1725484984851076,-0.05600895866898485]","[1,1,1]","[0.10029757349400334,0.14818025268290014]","[-1,-1,-1]","[0.0680136021470733,0.11603717973809033]","[-1,-1,-1]","[-0.02738054005644516,0.12493372869038526]","[-1,-1,-1]","[-0.0968775395424053,-0.13419911549001834]","[1,1,1]","[-0.026753997395598476,0.1730240500555978]","[1,1,1]","[0.01848803992593091,-0.1305937095341218]","[1,1,1]","[-0.05728288479601511,0.08644514483027532]","[1,1,1]","[-0.11644943632192786,0.011081301839863812]","[1,1,1]","[0.02,0.02]",134.0973,0,26,26,133,1,,,,,,,
,,,,,,,678faf96006731477a11673e,682f0fb8c7a887b5c4e2f757,2025-05-22_13h54.51.303,cuing_paradigm_dot,2024.1.5,Win32,59.88023952,682d573fa47f1360d1451895,,,,,,,,,,,134.0983,134.5739,,,134.8211,135.189,right,0.3518,,,,,,,,,0.1,,,,,,134.5739,134.8211,135.1891,"[0.06756141209610439,0.027167141567699227]","[1,1,1]","[-0.13798079793230647,0.025286975067041514]","[-1,-1,-1]","[0.040806673952896694,-0.09990353180972635]","[-1,-1,-1]","[-0.025265709765516953,-0.13106840033814152]","[-1,-1,-1]","[-0.05331716893893376,-0.053517640173079715]","[-1,-1,-1]","[0.17220752757499028,0.07227586462477585]","[1,1,1]","[-0.13945666742736884,0.10629390412160464]","[-1,-1,-1]","[-0.14288746704367422,-0.029064093540385576]","[-1,-1,-1]","[0.18996994392772013,-0.005617702941572239]","[1,1,1]","[-0.11637675004552785,-0.12531897413885498]","[-1,-1,-1]","[0.000062573554121579,0.07762051515623729]","[-1,-1,-1]","[-0.04239521992371908,0.16716856169024188]","[-1,-1,-1]","[0.0338514832888874,0.12204081907859292]","[-1,-1,-1]","[0.12747972977075453,0.06687852769415205]","[-1,-1,-1]","[0.038638111245981,0.16262368974105598]","[-1,-1,-1]","[0.0035946807314126204,-0.17683197543932766]","[-1,-1,-1]","[0.13756895780368364,0.11711418974058568]","[-1,-1,-1]","[0.06281663947357283,-0.14514848859288298]","[-1,-1,-1]","[0.14037329758706996,-0.1325590941852574]","[-1,-1,-1]","[0.08784068710344946,0.08576083871581054]","[-1,-1,-1]","[0.16870981032009819,-0.10184815927768612]","[-1,-1,-1]","[-0.171149273722888,0.0718530632351734]","[-1,-1,-1]","[-0.08286019823140282,-0.09758050954625234]","[-1,-1,-1]","[0.09389258955306803,0.12778385253779495]","[-1,-1,-1]","[0.09391371560937248,-0.08662386683135154]","[-1,-1,-1]","[-0.17229792171288114,-0.06006046511587992]","[-1,-1,-1]","[-0.07722443322484747,0.00731951284557089]","[-1,-1,-1]","[-0.08973749292500437,0.1156277334751271]","[-1,-1,-1]","[0.1485532525196904,-0.013291618732786921]","[-1,-1,-1]","[0.03817763138030098,-0.012582848211240748]","[-1,-1,-1]","[0.18188442546296554,-0.05029217475145627]","[-1,-1,-1]","[-0.10442961427974454,-0.05274402403022547]","[-1,-1,-1]","[0.02,0.02]",136.2759,0,27,27,18,1,,,,,,,
,,,,,,,678faf96006731477a11673e,682f0fb8c7a887b5c4e2f757,2025-05-22_13h54.51.303,cuing_paradigm_dot,2024.1.5,Win32,59.88023952,682d573fa47f1360d1451895,,,,,,,,,,,136.2771,136.7135,,,136.9766,137.3954,left,0.4062,,,,,,,,,0.45,,,,,,136.7136,136.9766,137.3954,"[-0.15181804368194032,-0.12383460463195428]","[-1,-1,-1]","[0.016259259970142728,0.03232394934437458]","[1,1,1]","[0.02399096349894521,0.12700277542478278]","[-1,-1,-1]","[-0.09052954629600064,0.06331934707872176]","[-1,-1,-1]","[-0.09327913391087987,-0.09918390300570466]","[1,1,1]","[0.07817147943830485,0.08336180906517107]","[1,1,1]","[-0.12533029599008078,0.021646580295134613]","[-1,-1,-1]","[-0.0373815969377915,-0.041901383734316795]","[1,1,1]","[0.15988575599597538,0.06871421561240237]","[-1,-1,-1]","[0.11237435867605199,0.13014137576576873]","[1,1,1]","[0.08614819023038837,0.04050144318351947]","[-1,-1,-1]","[-0.044472348203541144,0.020840582791571104]","[-1,-1,-1]","[0.13684903327520104,-0.10462713838067499]","[-1,-1,-1]","[0.03320962993673923,-0.11501146204220523]","[1,1,1]","[0.08776662020944716,-0.11354683709747619]","[1,1,1]","[-0.16817329796442707,0.08798257246457424]","[-1,-1,-1]","[0.11582823700850894,-0.0503096505492577]","[1,1,1]","[-0.029100255151528035,0.1741278505492918]","[-1,-1,-1]","[0.0669869306459844,-0.1516487697219443]","[1,1,1]","[-0.11429583626184915,0.1586210708714694]","[1,1,1]","[0.03659577411509467,-0.04710370567545025]","[-1,-1,-1]","[0.03159846894499855,0.19426525662395674]","[-1,-1,-1]","[-0.04322936900089228,-0.11416277158243825]","[-1,-1,-1]","[0.07331231627779475,-0.07063451753527823]","[1,1,1]","[-0.0022744777677782485,-0.17498785124459518]","[-1,-1,-1]","[0.17900237811972314,0.0021971360053771043]","[-1,-1,-1]","[-0.010008032261942992,0.10079803028274979]","[1,1,1]","[-0.05108574991701644,-0.19202516629622046]","[-1,-1,-1]","[-0.13967050158044858,-0.039523529101236105]","[-1,-1,-1]","[-0.06989184971000888,0.12616724020112138]","[1,1,1]","[-0.07671473523765562,-0.13682237918747459]","[-1,-1,-1]","[-0.025626189817306674,0.061671559475432895]","[1,1,1]","[0.02,0.02]",138.4786,0,28,28,67,1,,,,,,,
,,,,,,,678faf96006731477a11673e,682f0fb8c7a887b5c4e2f757,2025-05-22_13h54.51.303,cuing_paradigm_dot,2024.1.5,Win32,59.88023952,682d573fa47f1360d1451895,,,,,,,,,,,138.4796,138.9564,,,139.1861,139.8041,left,0.6076,,,,,,,,,0.5,,,,,,138.9565,139.186,139.8042,"[0.04140543181341979,-0.08888349366558662]","[-1,-1,-1]","[0.13491381873003574,0.014767803640228757]","[1,1,1]","[0.024379219396841505,0.1042548679681741]","[-1,-1,-1]","[-0.04621836522535737,0.09986118551263312]","[1,1,1]","[-0.045554000645657226,-0.014288216416855598]","[-1,-1,-1]","[-0.19410033601268556,-0.02790319045214104]","[-1,-1,-1]","[-0.17177375877820408,0.06104859007861056]","[-1,-1,-1]","[-0.03150139115172228,0.06072470622213923]","[1,1,1]","[-0.0009500290758394443,0.013893130125022453]","[1,1,1]","[-0.10104282670142624,-0.11843071150996505]","[-1,-1,-1]","[-0.14738497155168506,-0.010921347781017185]","[1,1,1]","[-0.17919349142952443,0.015321305701743143]","[1,1,1]","[0.040871755998807546,-0.03127983994674187]","[-1,-1,-1]","[0.05181840356505075,0.04032486680430641]","[1,1,1]","[-0.007307513339378883,-0.07805358294057249]","[1,1,1]","[0.07953153827573196,-0.13141137722384014]","[-1,-1,-1]","[0.0959001478548521,0.13829307537398405]","[1,1,1]","[0.18351576275773082,0.007796417297099544]","[-1,-1,-1]","[0.08194511552394644,-0.0010358201365858026]","[-1,-1,-1]","[-0.006715592494224298,-0.17858625353790544]","[-1,-1,-1]","[0.07237882253916833,0.08286826211355115]","[1,1,1]","[0.18474678648360363,0.05027975792600504]","[1,1,1]","[0.12691154864596496,-0.04434830770292871]","[-1,-1,-1]","[0.030888678667223144,0.186704064285826]","[1,1,1]","[-0.15771843975227204,-0.0741686811577196]","[1,1,1]","[0.09934391278769504,-0.08202117625284136]","[-1,-1,-1]","[-0.01481892051604476,0.1977629792940137]","[1,1,1]","[0.1449148121873127,0.13391327585956347]","[-1,-1,-1]","[-0.07080908142063067,-0.08019728366481321]","[-1,-1,-1]","[-0.007127055603160482,-0.1349422125547945]","[1,1,1]","[-0.11957448607486716,0.1519083924157169]","[-1,-1,-1]","[0.0320177748047598,-0.15330683222287703]","[1,1,1]","[0.02,0.02]",140.9408,0,29,29,100,1,,,,,,,
,,,,,,,678faf96006731477a11673e,682f0fb8c7a887b5c4e2f757,2025-05-22_13h54.51.303,cuing_paradigm_dot,2024.1.5,Win32,59.88023952,682d573fa47f1360d1451895,,,,,,,,,,,140.9414,141.4431,,,141.6623,142.03,right,0.3387,,,,,,,,,0.5,,,,,,141.4432,141.6622,142.0301,"[-0.07717206322587834,-0.05809456932590051]","[-1,-1,-1]","[-0.07190865135840939,-0.167890418589413]","[-1,-1,-1]","[-0.19073653371924656,0.05855485157539072]","[-1,-1,-1]","[-0.0005419554129728908,-0.03512958422502634]","[1,1,1]","[0.05073851543495935,0.11031486467606931]","[1,1,1]","[0.12495768430076415,0.08931666697810137]","[1,1,1]","[0.015816015426272045,0.01772253196396821]","[1,1,1]","[0.03092571904911967,0.0574018001581213]","[1,1,1]","[-0.057694367493663065,0.18818240745227682]","[-1,-1,-1]","[-0.19489791532732778,-0.030188820983990908]","[1,1,1]","[-0.1527941727112196,0.018971273396153465]","[1,1,1]","[-0.12491577140113173,-0.10382566826195311]","[1,1,1]","[0.03281888190721529,-0.09443380089609954]","[-1,-1,-1]","[0.013440599921339818,0.18878029992681597]","[-1,-1,-1]","[-0.019494759628018315,-0.12221111756142612]","[-1,-1,-1]","[0.07404738344563876,0.07737071694795052]","[1,1,1]","[0.11303216918906105,-0.08390404855998838]","[1,1,1]","[-0.07191464467761192,0.11941513552961008]","[1,1,1]","[0.16313872012363273,-0.110560908722817]","[1,1,1]","[0.1173736948095153,0.009189197340539705]","[-1,-1,-1]","[-0.09449363079951316,0.16086091248406661]","[-1,-1,-1]","[-0.14583258821575004,0.10056199351110316]","[1,1,1]","[0.16861170229053812,0.05413830105010988]","[1,1,1]","[-0.13911078369920057,-0.050179384870230485]","[-1,-1,-1]","[0.08516406798247396,-0.16861346389955945]","[-1,-1,-1]","[-0.043543703619862976,0.14832104286966355]","[-1,-1,-1]","[-0.10263551132719004,-0.011616398388922165]","[1,1,1]","[0.15795049047206464,-0.02476258990648226]","[-1,-1,-1]","[0.07315572504393113,-0.11110360153424195]","[-1,-1,-1]","[0.05678102046339169,-0.04667415762105013]","[-1,-1,-1]","[-0.0045634608604701605,-0.16720286534340212]","[1,1,1]","[-0.1030353551619973,0.07691868044077438]","[-1,-1,-1]","[0.02,0.02]",143.1513,0,30,30,114,1,,,,,,,
,,,,,,,678faf96006731477a11673e,682f0fb8c7a887b5c4e2f757,2025-05-22_13h54.51.303,cuing_paradigm_dot,2024.1.5,Win32,59.88023952,682d573fa47f1360d1451895,,,,,,,,,,,143.1523,143.6286,,,143.8901,144.1896,left,0.2893,,,,,,,,,0.5,,,,,,143.6286,143.89,144.1896,"[0.16096271193015133,-0.02737392939483652]","[1,1,1]","[0.12558922500026498,0.028282407910996326]","[1,1,1]","[-0.04617507621137935,-0.1506938513489243]","[1,1,1]","[0.09723097846268422,0.1329339528249539]","[-1,-1,-1]","[0.15576141711885383,0.061049292447385294]","[1,1,1]","[0.12385678362598876,-0.05206251460309563]","[1,1,1]","[-0.01969451642262779,0.09612549450092972]","[-1,-1,-1]","[-0.07831310507865911,-0.10695887860184161]","[-1,-1,-1]","[-0.027889207896653508,-0.010928173207755803]","[-1,-1,-1]","[-0.023505327103248465,-0.19766858201036952]","[1,1,1]","[0.08857312367246742,-0.17785004136696803]","[-1,-1,-1]","[-0.16043880742768313,-0.03577660062929547]","[-1,-1,-1]","[-0.1584830964209597,0.11898066536430717]","[-1,-1,-1]","[-0.18428934102669037,0.04976006150571696]","[1,1,1]","[-0.07451311794946514,-0.030733182261497932]","[1,1,1]","[-0.13177726788603586,-0.09444864017154164]","[-1,-1,-1]","[0.04618058386596965,0.021559791039790884]","[1,1,1]","[0.006792456694084357,-0.1142841322047273]","[1,1,1]","[-0.05947842833633229,0.014683224364334594]","[-1,-1,-1]","[0.17662723710358955,-0.09372016392613722]","[-1,-1,-1]","[0.10484666368548226,0.08429087723496312]","[-1,-1,-1]","[-0.13711570854576105,0.05550564486716917]","[1,1,1]","[0.012293520885282993,-0.04063841216537485]","[1,1,1]","[-0.10965553017387127,0.11146782878978191]","[-1,-1,-1]","[0.11862870243129454,-0.10203269809516624]","[1,1,1]","[0.1476346989515324,0.13263424938904708]","[1,1,1]","[0.10033918192022794,-0.018387741142929504]","[-1,-1,-1]","[0.009573657971863278,0.16951487348143127]","[1,1,1]","[0.054002702329256316,0.18606881346992102]","[1,1,1]","[0.03211729579568849,0.08375303124093907]","[-1,-1,-1]","[-0.11651401346010402,-0.05397486911756237]","[-1,-1,-1]","[-0.14021173883180665,-0.13374904184505482]","[-1,-1,-1]","[0.02,0.02]",145.2881,0,31,31,91,1,,,,,,,
,,,,,,,678faf96006731477a11673e,682f0fb8c7a887b5c4e2f757,2025-05-22_13h54.51.303,cuing_paradigm_dot,2024.1.5,Win32,59.88023952,682d573fa47f1360d1451895,,,,,,,,,,,145.2891,145.7761,,,146.0191,146.5087,left,0.4725,,,,,,,,,0.4,,,,,,145.7762,146.019,146.5087,"[-0.0742959251777764,0.1821181638046506]","[-1,-1,-1]","[-0.05378835878088969,-0.12006420791135165]","[-1,-1,-1]","[0.1325554140614163,0.10820347199485585]","[-1,-1,-1]","[0.07461908085439359,0.1819865236923889]","[-1,-1,-1]","[-0.13502225137048005,0.12366849318360044]","[-1,-1,-1]","[-0.12107718119999357,-0.006793039895787003]","[-1,-1,-1]","[-0.02980325077247257,0.05586815199915395]","[-1,-1,-1]","[-0.1713905125012461,-0.09314122592984633]","[-1,-1,-1]","[0.16485210025062913,0.038260907406862874]","[1,1,1]","[-0.016015885645699217,0.12323332908912502]","[-1,-1,-1]","[0.11157274570113582,0.042800826105452563]","[1,1,1]","[0.07380968882658982,0.12619646066033058]","[-1,-1,-1]","[0.021883974595358294,-0.15792843074881877]","[-1,-1,-1]","[-0.07219197126014804,-0.007580041494624588]","[1,1,1]","[-0.11206365071628777,-0.07396451917660804]","[-1,-1,-1]","[-0.17630984225331475,-0.019513606863256757]","[1,1,1]","[0.18921995900426772,-0.06312993571073366]","[1,1,1]","[0.08200014361366872,-0.03349504739934744]","[-1,-1,-1]","[-0.1188924031903011,0.04921262307172216]","[-1,-1,-1]","[-0.016798095038423156,-0.031064232609706144]","[-1,-1,-1]","[0.019213741775281297,-0.052693084179450865]","[1,1,1]","[0.11449386586094992,-0.15631650271814104]","[-1,-1,-1]","[0.013693556810684905,0.0936718112169476]","[1,1,1]","[-0.1486859080326649,0.08344136347672144]","[1,1,1]","[0.160762145394748,-0.022157513593199372]","[1,1,1]","[-0.08976164173974174,0.11767642901917345]","[-1,-1,-1]","[-0.047933590597612756,-0.18845818993163763]","[-1,-1,-1]","[0.04578497251408437,-0.12327411381591347]","[1,1,1]","[0.003881428919807444,0.16140700018417142]","[1,1,1]","[-0.07100967393323525,0.03733708937130563]","[1,1,1]","[0.09514083463524511,0.08079909711839249]","[-1,-1,-1]","[0.10826665582957722,-0.08658296181447392]","[1,1,1]","[0.02,0.02]",147.5867,0,32,32,51,1,,,,,,,
,,,,,,,678faf96006731477a11673e,682f0fb8c7a887b5c4e2f757,2025-05-22_13h54.51.303,cuing_paradigm_dot,2024.1.5,Win32,59.88023952,682d573fa47f1360d1451895,,,,,,,,,,,147.5876,148.058,,,148.2931,148.7371,right,0.4255,,,,,,,,,0.4,,,,,,148.0581,148.293,148.7374,"[-0.03770951764026623,-0.0040482017649491366]","[-1,-1,-1]","[-0.0033575879060563332,0.05179605051290263]","[1,1,1]","[-0.08913778412619672,-0.11262813001979066]","[-1,-1,-1]","[0.04560390459934357,-0.07574323482233139]","[-1,-1,-1]","[-0.15226194243434488,-0.009948326414066264]","[-1,-1,-1]","[0.08394764709947547,0.122095487355786]","[-1,-1,-1]","[0.10849739204777019,-0.16542500275717176]","[-1,-1,-1]","[0.13515674849365292,0.006299575098514941]","[1,1,1]","[0.029100287750564263,0.1708665464747427]","[-1,-1,-1]","[0.0736782083276037,-0.024177898238133315]","[-1,-1,-1]","[-0.08562397596257193,0.092619063254681]","[-1,-1,-1]","[0.15384590615867152,0.096230755969413]","[1,1,1]","[-0.052129193842382245,0.037376052728186025]","[-1,-1,-1]","[0.09464233176272416,-0.06719708990960716]","[1,1,1]","[-0.07907834127308001,-0.053604933616081124]","[1,1,1]","[-0.17753788023268194,-0.042113569415889035]","[-1,-1,-1]","[-0.19411805155949807,0.014713186524924845]","[-1,-1,-1]","[-0.035217456433304185,0.10070891548191499]","[1,1,1]","[-0.015835056421441278,0.19214256640456528]","[1,1,1]","[0.13210014288665192,-0.12464897680505506]","[1,1,1]","[0.01636027995423611,-0.03481353689512579]","[-1,-1,-1]","[-0.13600805021283688,0.1293033814747837]","[-1,-1,-1]","[-0.011053681728413927,-0.16322774569943393]","[-1,-1,-1]","[0.02778667064216655,-0.14191405656449996]","[1,1,1]","[0.10539019347547973,0.06702941757085887]","[-1,-1,-1]","[-0.06435021290073743,-0.1773573338833869]","[1,1,1]","[0.059901736453605255,-0.11588982583316924]","[-1,-1,-1]","[-0.10656807325922323,0.0031493037973741467]","[1,1,1]","[-0.12865400305465785,-0.1339367704133469]","[1,1,1]","[0.04737901775663079,0.07767970795437189]","[1,1,1]","[-0.045188996422083724,-0.12753933818134625]","[-1,-1,-1]","[0.02736545954995284,-0.19265371154029215]","[-1,-1,-1]","[0.02,0.02]",149.8211,0,33,33,31,1,,,,,,,
,,,,,,,678faf96006731477a11673e,682f0fb8c7a887b5c4e2f757,2025-05-22_13h54.51.303,cuing_paradigm_dot,2024.1.5,Win32,59.88023952,682d573fa47f1360d1451895,,,,,,,,,,,149.822,150.3101,,,150.5599,150.9075,right,0.325,,,,,,,,,0.55,,,,,,150.3102,150.5599,150.9075,"[0.09600213361904582,0.12539407750391948]","[1,1,1]","[-0.1486958397574235,0.009309203091093015]","[1,1,1]","[0.16374973780510715,-0.008959102905641185]","[1,1,1]","[0.05068030902875715,-0.008728928365181486]","[1,1,1]","[-0.13177916425179584,0.06205703498767022]","[1,1,1]","[-0.024239120848239745,-0.17004549029939142]","[1,1,1]","[-0.062028373659944326,-0.04528996882964502]","[1,1,1]","[-0.02574192766686437,0.17408495996733975]","[-1,-1,-1]","[0.011441204469778418,-0.145242982917835]","[1,1,1]","[0.11931270438023278,0.0837865748830793]","[1,1,1]","[0.09981320013184686,-0.028160419192916748]","[1,1,1]","[-0.11847320468093701,-0.10409197876018653]","[1,1,1]","[-0.1755604495551689,-0.0831134122729657]","[1,1,1]","[-0.008680299469937989,-0.07850394569870882]","[-1,-1,-1]","[0.08396468836404554,-0.07268124005955869]","[1,1,1]","[-0.10731843750645718,0.11299438521432278]","[-1,-1,-1]","[0.06546796327985223,0.0512307421888483]","[1,1,1]","[-0.13186505828269066,-0.03268041374854653]","[-1,-1,-1]","[-0.007209745099465792,0.06300904349963929]","[1,1,1]","[0.059747477242289265,0.16315921380949136]","[-1,-1,-1]","[0.1587323793654829,0.11141832456028958]","[-1,-1,-1]","[0.1822778577210804,0.052393235278314076]","[-1,-1,-1]","[-0.05982695808910282,0.026564711442055824]","[1,1,1]","[0.033740414377671106,0.09419897111738368]","[-1,-1,-1]","[-0.18254967798705443,-0.03674506210436878]","[-1,-1,-1]","[0.07657058866289848,-0.13920916750724854]","[-1,-1,-1]","[0.04600191512749928,-0.17458097607876832]","[1,1,1]","[0.1700860397541984,-0.07905061218623498]","[1,1,1]","[0.004626836240836979,0.14770314092150894]","[-1,-1,-1]","[0.10986268601433354,0.04418134242231242]","[-1,-1,-1]","[-0.1571582674024311,0.11999711446101675]","[-1,-1,-1]","[0.11633171693955763,-0.12360513168050251]","[-1,-1,-1]","[0.02,0.02]",151.9857,0,34,34,127,1,,,,,,,
,,,,,,,678faf96006731477a11673e,682f0fb8c7a887b5c4e2f757,2025-05-22_13h54.51.303,cuing_paradigm_dot,2024.1.5,Win32,59.88023952,682d573fa47f1360d1451895,,,,,,,,,,,151.9868,152.4854,,,152.7248,153.015,right,0.2717,,,,,,,,,0.55,,,,,,152.4855,152.7248,153.015,"[0.12947605111541788,0.09480724064815467]","[1,1,1]","[-0.04396170360709493,0.17966521055041404]","[-1,-1,-1]","[-0.022937858306782435,0.051919974353115385]","[1,1,1]","[-0.04966468520142209,-0.01481929288416897]","[1,1,1]","[-0.14928888269123186,0.08625998640656031]","[1,1,1]","[0.1626687398464895,0.06190425123194433]","[-1,-1,-1]","[0.11712397057582338,-0.059146859660023324]","[-1,-1,-1]","[-0.030848489070447883,-0.17404355048117956]","[1,1,1]","[-0.1542763987463587,0.009379316001255248]","[1,1,1]","[0.016406703217719226,-0.027204651810046318]","[-1,-1,-1]","[-0.1868545466010785,0.050658258471300004]","[-1,-1,-1]","[-0.0796363886003916,0.1513485403964773]","[-1,-1,-1]","[0.15295483184991882,-0.037432004076961206]","[1,1,1]","[-0.114384279930485,-0.09744261032658737]","[-1,-1,-1]","[-0.06940378118556917,0.11066498741440156]","[1,1,1]","[0.045025866822079014,0.00857418899210563]","[1,1,1]","[-0.010220362218680385,-0.08219982910091128]","[1,1,1]","[0.07511341571060495,-0.13079450778758014]","[1,1,1]","[0.11970870380708325,-0.12426871430247817]","[1,1,1]","[0.014075212200122453,0.17574056119121512]","[-1,-1,-1]","[-0.1007471747183158,0.05593795584865621]","[-1,-1,-1]","[0.08853107496576015,0.1596836929607283]","[1,1,1]","[0.03591093726581133,-0.09540628230677686]","[1,1,1]","[-0.0855966257690983,-0.06626154582866238]","[1,1,1]","[0.03113270574399602,0.11286403305919421]","[1,1,1]","[-0.1575950687185916,-0.11036615027628847]","[1,1,1]","[0.15830218054134368,-0.09835333829208258]","[-1,-1,-1]","[0.10083968725094371,-0.010321251853667777]","[-1,-1,-1]","[-0.08856917042371806,-0.15714138301949634]","[-1,-1,-1]","[0.15008729833818635,0.014304546061976718]","[-1,-1,-1]","[-0.16015727317584985,-0.05895399270077377]","[1,1,1]","[0.06457790875404637,0.053148455944711834]","[-1,-1,-1]","[0.02,0.02]",154.1173,0,35,35,130,1,,,,,,,
,,,,,,,678faf96006731477a11673e,682f0fb8c7a887b5c4e2f757,2025-05-22_13h54.51.303,cuing_paradigm_dot,2024.1.5,Win32,59.88023952,682d573fa47f1360d1451895,,,,,,,,,,,154.1183,154.6149,,,154.8513,155.109,right,0.2432,,,,,,,,,0.4,,,,,,154.615,154.8512,155.1091,"[-0.10014375156722305,0.0721850851018867]","[1,1,1]","[-0.14176434146472452,-0.12865047353827433]","[-1,-1,-1]","[-0.005304181643413305,-0.007657537187748199]","[-1,-1,-1]","[0.021879188222264975,-0.1145036815903113]","[1,1,1]","[-0.0725132889081362,-0.004163315196609609]","[-1,-1,-1]","[0.13394668148426664,0.04701735725085913]","[-1,-1,-1]","[0.10909662955188337,0.132358182231009]","[1,1,1]","[0.1345651544095008,-0.05251338216507298]","[-1,-1,-1]","[-0.18070123694035403,0.030842173266576352]","[-1,-1,-1]","[0.10940762251004206,-0.11489149430677835]","[1,1,1]","[-0.16930725959655915,-0.09622281011598925]","[1,1,1]","[-0.04153519063691424,0.18343420645077435]","[-1,-1,-1]","[-0.040721431493035525,0.05054631068070638]","[-1,-1,-1]","[-0.08624458271874465,-0.14541393482868722]","[1,1,1]","[0.06904866743537583,-0.16799376941383692]","[-1,-1,-1]","[-0.15332358203285426,-0.001396161757463621]","[-1,-1,-1]","[0.004296216849524873,0.06962251040992119]","[1,1,1]","[0.05000427884033622,0.18429717379874083]","[1,1,1]","[0.08296965666287603,-0.01450115939693548]","[1,1,1]","[0.06183351925100834,0.134383480596505]","[-1,-1,-1]","[-0.041715327545101925,0.11788656601578863]","[-1,-1,-1]","[-0.10705168025929931,-0.02646453917026843]","[1,1,1]","[0.07024913476812099,0.07321981989991078]","[-1,-1,-1]","[-0.06517937598112349,-0.04943761887603687]","[1,1,1]","[0.013728264770415242,-0.165561764312583]","[-1,-1,-1]","[0.18630301561735624,-0.02727161374632752]","[1,1,1]","[0.18564606064040562,0.017383910508438346]","[-1,-1,-1]","[-0.03186026403738365,-0.0847024273922882]","[1,1,1]","[0.044438950069884096,-0.06139889739800609]","[-1,-1,-1]","[0.1474225549346762,0.10815002672854057]","[-1,-1,-1]","[-0.007079381307837572,0.14559327023243107]","[-1,-1,-1]","[0.0003168650097428576,0.18498843557222144]","[-1,-1,-1]","[0.02,0.02]",156.1882,0,36,36,45,1,,,,,,,
,,,,,,,678faf96006731477a11673e,682f0fb8c7a887b5c4e2f757,2025-05-22_13h54.51.303,cuing_paradigm_dot,2024.1.5,Win32,59.88023952,682d573fa47f1360d1451895,,,,,,,,,,,156.1891,156.6849,,,156.9147,157.4391,left,0.5039,,,,,,,,,0.6,,,,,,156.6849,156.9146,157.4392,"[-0.03497227242983648,0.06443270442470861]","[-1,-1,-1]","[0.01716480478694745,0.08867681572390033]","[1,1,1]","[-0.1816782172911654,0.03403768989745029]","[-1,-1,-1]","[-0.12785297331388162,0.13553274212655272]","[1,1,1]","[-0.0935938066902257,-0.0374822478729594]","[-1,-1,-1]","[0.0492712743835172,-0.04096402933487967]","[1,1,1]","[-0.04430668063375034,-0.031153246475554872]","[-1,-1,-1]","[-0.04817457633358874,0.013006922570774156]","[1,1,1]","[-0.029743366154361253,-0.1482484053836815]","[1,1,1]","[-0.00498223962415933,-0.019457190284706095]","[-1,-1,-1]","[-0.17353952680118537,-0.03733684506707709]","[1,1,1]","[-0.05351432141096564,0.16758886325721775]","[-1,-1,-1]","[0.060903082172603804,-0.12400824353902924]","[-1,-1,-1]","[0.17496516307838486,0.09000088726551185]","[1,1,1]","[-0.09602486352202488,-0.12882951845890694]","[1,1,1]","[0.1819270080800691,0.039569405146577266]","[-1,-1,-1]","[-0.022092093817989256,-0.0650182954980988]","[1,1,1]","[-0.05247585122965789,0.1070749921952659]","[1,1,1]","[-0.100609644396586,-0.0813336485117406]","[1,1,1]","[0.039325351178867755,0.13914820425383986]","[1,1,1]","[0.11984953182951544,0.1267270449982687]","[-1,-1,-1]","[0.16396943388706425,-0.044394002103061596]","[-1,-1,-1]","[0.10310071663743593,0.16370765860677874]","[1,1,1]","[-0.08401458715530799,0.04791034717723933]","[1,1,1]","[-0.04299037407182593,-0.1940423736328626]","[1,1,1]","[0.0854979121902605,0.04167821713904699]","[-1,-1,-1]","[-0.12821284191183585,0.001189680724309401]","[-1,-1,-1]","[0.12214696105996328,-0.11174136010449445]","[1,1,1]","[0.08523081605869581,0.0012355447189161645]","[1,1,1]","[0.018481146308820303,0.022601128115209156]","[-1,-1,-1]","[0.049668317675644856,-0.1836189961819697]","[1,1,1]","[-0.03377532545556854,-0.10534537353314412]","[1,1,1]","[0.02,0.02]",158.5344,0,37,37,166,1,,,,,,,
,,,,,,,678faf96006731477a11673e,682f0fb8c7a887b5c4e2f757,2025-05-22_13h54.51.303,cuing_paradigm_dot,2024.1.5,Win32,59.88023952,682d573fa47f1360d1451895,,,,,,,,,,,158.5356,159.0238,,,159.267,159.899,left,0.6189,,,,,,,,,0.5,,,,,,159.0238,159.267,159.8991,"[0.004397311722383962,0.08078698330855356]","[-1,-1,-1]","[-0.13669701496074563,-0.09205271035925756]","[1,1,1]","[0.14111499875164896,0.13115440140377174]","[1,1,1]","[-0.09198086501083802,0.16995264260748327]","[1,1,1]","[-0.03564686831549755,-0.05874994251817397]","[-1,-1,-1]","[0.08349080565405409,0.09144187358076104]","[1,1,1]","[0.11038012496136022,-0.012951244082948319]","[-1,-1,-1]","[0.13733605356242326,0.05056880906588892]","[-1,-1,-1]","[-0.036132006840922756,0.09032279153629456]","[-1,-1,-1]","[0.00117611549131638,0.008380141343576971]","[1,1,1]","[-0.09306297408970733,-0.10775214906685252]","[-1,-1,-1]","[0.1343634223203349,-0.11257049485571893]","[1,1,1]","[-0.11582027063180003,-0.1483672091685941]","[1,1,1]","[-0.08395198232768385,0.110547674489981]","[-1,-1,-1]","[-0.15349525461067828,-0.019324049423081455]","[1,1,1]","[0.03470568354754258,-0.10343736790323234]","[1,1,1]","[-0.11243573595915245,-0.04993826123860068]","[-1,-1,-1]","[-0.13233841650961264,0.131769842989026]","[-1,-1,-1]","[0.11219083026304176,-0.1592414876921245]","[-1,-1,-1]","[0.06925115152822138,-0.12901304162460184]","[-1,-1,-1]","[0.049032753743412136,0.14402329061838928]","[1,1,1]","[0.07397652586678875,-0.07090766552545467]","[-1,-1,-1]","[-0.19052368265359265,-0.04148315666985163]","[-1,-1,-1]","[-0.0503673345854314,0.1370894995456777]","[1,1,1]","[0.1668532411389038,-0.07406682767957794]","[1,1,1]","[-0.04854371545261611,-0.10465118070749407]","[-1,-1,-1]","[-0.034627766767392335,-0.19005498636175203]","[-1,-1,-1]","[0.04625256917825393,0.0033893814810439455]","[-1,-1,-1]","[-0.11420882008842875,0.012591677373330673]","[1,1,1]","[0.012019743468095855,-0.18787640974106223]","[1,1,1]","[-0.16470518051599578,0.03262506639316268]","[1,1,1]","[0.1251763696935182,-0.06226435836744716]","[1,1,1]","[0.02,0.02]",161.0173,0,38,38,113,1,,,,,,,
,,,,,,,678faf96006731477a11673e,682f0fb8c7a887b5c4e2f757,2025-05-22_13h54.51.303,cuing_paradigm_dot,2024.1.5,Win32,59.88023952,682d573fa47f1360d1451895,,,,,,,,,,,161.0178,161.5223,,,161.7496,162.0868,right,0.3259,,,,,,,,,0.1,,,,,,161.5224,161.7496,162.0869,"[0.03777886015626346,0.04932860375675601]","[-1,-1,-1]","[-0.08863170542274755,0.02748466750451415]","[-1,-1,-1]","[0.15083413657379266,-0.13061203953872763]","[-1,-1,-1]","[-0.011093238109368436,0.041249308361919174]","[-1,-1,-1]","[0.1605709109080747,-0.03571758258138208]","[-1,-1,-1]","[0.0836938477232112,-0.1793376525336456]","[-1,-1,-1]","[-0.032758853587543,-0.12696591354842776]","[-1,-1,-1]","[-0.11367324070264521,-0.06649647027946311]","[-1,-1,-1]","[0.09180535840686414,-0.08409592369020262]","[-1,-1,-1]","[0.06236650822354388,-0.13996569469861178]","[-1,-1,-1]","[0.1495440486307508,0.11397287744155994]","[-1,-1,-1]","[-0.0012287145888837617,-0.09440109855913574]","[-1,-1,-1]","[-0.09535565430392105,-0.151089269206829]","[1,1,1]","[-0.04575982253447947,-0.03261571955735244]","[-1,-1,-1]","[0.04348141350948902,-0.18743833156711753]","[-1,-1,-1]","[0.04192680942828734,0.11539100485202092]","[-1,-1,-1]","[-0.0816856347768294,0.10626320393159927]","[-1,-1,-1]","[-0.015550194387929074,-0.004083023498347367]","[-1,-1,-1]","[-0.16411182254292356,0.024564318674649702]","[-1,-1,-1]","[0.1123703315492461,-0.1467961700404566]","[-1,-1,-1]","[-0.07949001468982685,0.1812702641006026]","[-1,-1,-1]","[-0.15560177316761095,0.12222060687822113]","[-1,-1,-1]","[-0.014856524466798828,0.13450526381847866]","[1,1,1]","[0.02756539021044119,0.004632983516880156]","[-1,-1,-1]","[0.12127943803809742,0.06603523549730647]","[-1,-1,-1]","[-0.05973083301052332,0.1409444215472636]","[-1,-1,-1]","[0.08665376396048445,0.03207162441033326]","[-1,-1,-1]","[0.09816280327419555,0.10426577037745498]","[-1,-1,-1]","[-0.06770117771195179,0.06202158710154403]","[-1,-1,-1]","[0.03315121686985534,0.15705378385665408]","[1,1,1]","[0.1903291869709181,0.040837904156921546]","[-1,-1,-1]","[0.09319603854565005,-0.030810799872817363]","[-1,-1,-1]","[0.02,0.02]",163.1916,0,39,39,27,1,,,,,,,
,,,,,,,678faf96006731477a11673e,682f0fb8c7a887b5c4e2f757,2025-05-22_13h54.51.303,cuing_paradigm_dot,2024.1.5,Win32,59.88023952,682d573fa47f1360d1451895,,,,,,,,,,,163.1925,163.6938,,,163.9125,164.3636,right,0.4407,,,,,,,,,0.45,,,,,,163.6939,163.9125,164.3637,"[-0.14501119497583287,0.007679465455689794]","[-1,-1,-1]","[0.09914411456393389,-0.11011529861698796]","[-1,-1,-1]","[0.18500109646722698,0.03483365044936494]","[-1,-1,-1]","[-0.12922766925494458,0.06663282371312876]","[1,1,1]","[0.05931895612843808,0.11887460735842272]","[-1,-1,-1]","[0.11818976192616881,0.07659591549928707]","[1,1,1]","[-0.050634130294351785,-0.1741393417544911]","[-1,-1,-1]","[0.11542028622449707,0.00916470058012435]","[1,1,1]","[-0.004753877615418027,0.14851839401725214]","[1,1,1]","[0.0361796246062529,0.02680871704170031]","[-1,-1,-1]","[0.084056412507997,0.17535971387878363]","[-1,-1,-1]","[-0.15575929403307157,-0.12050516694967109]","[-1,-1,-1]","[0.029027260535982646,-0.1541135627093709]","[1,1,1]","[0.13362959004491543,-0.06238116713896308]","[-1,-1,-1]","[-0.022567820350769173,-0.10051600919821067]","[1,1,1]","[-0.11066928807617372,-0.041385038484680475]","[-1,-1,-1]","[0.1505936103823132,-0.10708838754920155]","[-1,-1,-1]","[0.08067217108723815,-0.023711142290545457]","[-1,-1,-1]","[0.09710078195412263,-0.1742865888795559]","[1,1,1]","[-0.05953669864318626,0.12657763981356612]","[-1,-1,-1]","[-0.1589845970916798,0.10643674207629879]","[1,1,1]","[0.04912616034553847,-0.11558542794811556]","[1,1,1]","[-0.02328341351946826,0.19143749468912055]","[-1,-1,-1]","[-0.10572717422821905,0.15649890573575534]","[-1,-1,-1]","[0.17794953160345195,-0.0222874487043213]","[-1,-1,-1]","[-0.15250922127949834,-0.04587038899701431]","[1,1,1]","[-0.02427230129782701,-0.011946490460021383]","[1,1,1]","[-0.08644591833361802,-0.07609560729079423]","[1,1,1]","[-0.08465776889760539,-0.0023382681475451416]","[-1,-1,-1]","[-0.06157478669649167,-0.0377358897139479]","[1,1,1]","[-0.03428019653888553,0.08957028210215404]","[-1,-1,-1]","[0.157960353278593,0.11338238893327764]","[1,1,1]","[0.02,0.02]",165.4458,0,40,40,88,1,,,,,,,
,,,,,,,678faf96006731477a11673e,682f0fb8c7a887b5c4e2f757,2025-05-22_13h54.51.303,cuing_paradigm_dot,2024.1.5,Win32,59.88023952,682d573fa47f1360d1451895,,,,,,,,,,,165.4494,165.9279,,,166.1615,166.4318,right,0.2535,,,,,,,,,0.45,,,,,,165.928,166.1614,166.4319,"[0.03802629696461079,-0.11642415294053432]","[-1,-1,-1]","[0.10320095030682423,0.024393797493519876]","[1,1,1]","[0.022759743468627743,0.07270934775187494]","[1,1,1]","[-0.12453052570552554,0.04968535355076051]","[1,1,1]","[0.1501183470933135,-0.05876196375179102]","[-1,-1,-1]","[-0.10337255644874091,0.12773247819898179]","[-1,-1,-1]","[0.07109225521051904,0.13388807481673945]","[-1,-1,-1]","[-0.050042296123238135,0.01549526414999393]","[-1,-1,-1]","[0.10740423513351108,-0.06404063762031337]","[-1,-1,-1]","[-0.04812307917848358,-0.14634262660517916]","[-1,-1,-1]","[0.03913022939710965,0.1805215912373562]","[-1,-1,-1]","[-0.021266019371082346,0.15895904989445167]","[1,1,1]","[-0.08871004915386406,-0.1645467827203246]","[-1,-1,-1]","[-0.08467125129061989,-0.07815955516806034]","[-1,-1,-1]","[0.1060153443575653,-0.15129518665869024]","[1,1,1]","[-0.059847658377456696,0.11675732078179697]","[1,1,1]","[-0.053609882473911824,0.059977164955329634]","[1,1,1]","[0.04833747033356761,-0.013404519059238791]","[-1,-1,-1]","[0.14795911185730143,-0.09928030478069284]","[-1,-1,-1]","[-0.1569729255170384,-0.08756731035293386]","[1,1,1]","[-0.011104848957747918,-0.10111704239666103]","[-1,-1,-1]","[0.18855028634560733,-0.00610115361890402]","[1,1,1]","[0.008326517549068262,-0.19624844437347366]","[1,1,1]","[0.06876437922360924,0.08050615528584115]","[-1,-1,-1]","[0.0006798418581259553,-0.014256361590806097]","[-1,-1,-1]","[-0.1650695097770013,-0.026830777877450494]","[-1,-1,-1]","[0.12200833103226408,0.10626047612376681]","[1,1,1]","[0.04320576926205511,-0.17120778251910293]","[-1,-1,-1]","[0.04016273844275795,0.03663693522560843]","[1,1,1]","[-0.12050069709463755,0.005295614949699318]","[1,1,1]","[0.026778536975347336,0.1338870387752353]","[-1,-1,-1]","[0.16415814935455733,0.11164179400060854]","[1,1,1]","[0.02,0.02]",167.53,0,41,41,71,1,,,,,,,
,,,,,,,678faf96006731477a11673e,682f0fb8c7a887b5c4e2f757,2025-05-22_13h54.51.303,cuing_paradigm_dot,2024.1.5,Win32,59.88023952,682d573fa47f1360d1451895,,,,,,,,,,,167.538,168.0211,,,168.2787,168.579,right,0.2858,,,,,,,,,0.6,,,,,,168.0211,168.2786,168.579,"[-0.06492630348651829,-0.04882864301236441]","[1,1,1]","[0.15895855372695775,-0.04963862004852545]","[-1,-1,-1]","[-0.0007659033741070202,0.14549078312910893]","[1,1,1]","[-0.1157988485036099,0.06930564697836739]","[1,1,1]","[0.023698384247632962,0.03193913388564525]","[1,1,1]","[-0.08481249190835966,-0.09692746961819942]","[-1,-1,-1]","[-0.08257284932959028,0.02786002651860951]","[1,1,1]","[0.1117702459560789,-0.04033631853476345]","[-1,-1,-1]","[0.1010901993007811,0.09904223125915378]","[-1,-1,-1]","[-0.158481479575245,-0.045274846414330355]","[1,1,1]","[-0.04278917938083641,0.09318358103846498]","[-1,-1,-1]","[-0.18244701160506752,0.07011675847264778]","[1,1,1]","[-0.09498233457117601,0.14260025301027485]","[-1,-1,-1]","[-0.1463215604599241,0.012056800575031563]","[1,1,1]","[-0.014404737936726008,-0.14073935633189044]","[-1,-1,-1]","[0.07487493445086249,-0.1322725264867142]","[1,1,1]","[0.17553782462214415,-0.0059722438581865855]","[1,1,1]","[-0.12689421558712266,-0.09684481434514994]","[-1,-1,-1]","[0.17639270357965148,0.08340846766193286]","[-1,-1,-1]","[0.1412414836382035,0.0313214962838467]","[-1,-1,-1]","[0.03798142870417396,0.13067909977672923]","[-1,-1,-1]","[-0.09068326270354912,-0.16014498450800266]","[-1,-1,-1]","[0.04486882045178171,-0.0677141275732121]","[1,1,1]","[0.1019464235909697,0.1495927325276071]","[1,1,1]","[0.010698411002659405,-0.10632568084624176]","[1,1,1]","[0.03667745920317131,-0.15567580775340922]","[1,1,1]","[0.031306303922711824,0.08538100432417371]","[1,1,1]","[0.12707666923596878,-0.08350857796126807]","[-1,-1,-1]","[-0.07950597995112417,0.1801275720843164]","[1,1,1]","[-0.10903538691158397,-0.051846638369127805]","[1,1,1]","[0.08371474764144507,0.03936040665006121]","[1,1,1]","[0.026551534419482787,-0.018790681080675223]","[1,1,1]","[0.02,0.02]",169.66,0,42,42,165,1,,,,,,,
,,,,,,,678faf96006731477a11673e,682f0fb8c7a887b5c4e2f757,2025-05-22_13h54.51.303,cuing_paradigm_dot,2024.1.5,Win32,59.88023952,682d573fa47f1360d1451895,,,,,,,,,,,169.6611,170.165,,,170.3955,170.8095,right,0.4001,,,,,,,,,0.4,,,,,,170.165,170.3955,170.8096,"[-0.09546394942901992,0.1563011437213598]","[1,1,1]","[0.03404981978260258,0.07952897795651664]","[-1,-1,-1]","[0.09913614159371309,0.1587774439817896]","[1,1,1]","[-0.042229866006382684,0.1840629542107734]","[-1,-1,-1]","[-0.005802508626652134,-0.14053071829865163]","[-1,-1,-1]","[-0.10446796542892929,-0.01844436735903695]","[-1,-1,-1]","[0.036833229324883934,-0.06596537214265288]","[-1,-1,-1]","[-0.007298319678161256,-0.08041259201873012]","[-1,-1,-1]","[0.05881196496405909,0.13395725834623393]","[-1,-1,-1]","[-0.01971341742217687,0.12465908259447138]","[-1,-1,-1]","[-0.14372503727157082,-0.010665252806443582]","[-1,-1,-1]","[0.15301320374864846,-0.026580547755781243]","[-1,-1,-1]","[0.1911286626856677,-0.05310389340014963]","[1,1,1]","[0.04807840907358702,-0.1754548044315774]","[1,1,1]","[0.10745999788568546,-0.039298091665176046]","[-1,-1,-1]","[0.1758199249272993,0.044049718624058674]","[1,1,1]","[0.13822716716944228,0.11092984975822304]","[1,1,1]","[-0.007952487558274842,0.06299584564035812]","[-1,-1,-1]","[0.10791889625165282,0.051716588539805854]","[-1,-1,-1]","[-0.1161417816062271,0.07542346937180856]","[1,1,1]","[0.018112200520049363,0.1828467617590242]","[1,1,1]","[0.01867250620467136,0.03129773089492857]","[1,1,1]","[0.040056799333193324,-0.12675359929147736]","[-1,-1,-1]","[-0.06558585215737887,0.10000162432438722]","[1,1,1]","[-0.06626687653492648,-0.12855537587688304]","[1,1,1]","[-0.17294737751771902,0.07123698444303882]","[-1,-1,-1]","[-0.14234581768078278,0.03945878105945362]","[1,1,1]","[0.1370477397327499,-0.12154551468662335]","[-1,-1,-1]","[-0.19403390440425056,0.03693322478530846]","[-1,-1,-1]","[-0.10588363646644905,-0.09959780585273406]","[-1,-1,-1]","[0.014537170741317834,-0.02283086975319569]","[-1,-1,-1]","[-0.05267791255216105,0.010537324881621388]","[1,1,1]","[0.02,0.02]",171.8929,0,43,43,49,1,,,,,,,
,,,,,,,678faf96006731477a11673e,682f0fb8c7a887b5c4e2f757,2025-05-22_13h54.51.303,cuing_paradigm_dot,2024.1.5,Win32,59.88023952,682d573fa47f1360d1451895,,,,,,,,,,,171.8939,172.3995,,,172.6415,172.964,left,0.3069,,,,,,,,,0.9,,,,,,172.3995,172.6414,172.964,"[-0.06815381814324006,0.05936559670612047]","[1,1,1]","[-0.1374679992914511,0.09166807290908716]","[1,1,1]","[0.18140170762743368,0.0583243839243353]","[-1,-1,-1]","[0.09531602301496067,-0.03907048323569347]","[1,1,1]","[-0.04212743360143669,0.17958213723372857]","[1,1,1]","[-0.07796985254040743,-0.1829451153661123]","[1,1,1]","[-0.07225443609523913,-0.10812189408658439]","[1,1,1]","[-0.13523110081879092,-0.12476455850097157]","[1,1,1]","[0.0213224330554479,-0.03625132951391971]","[1,1,1]","[-0.12663611052671303,0.04086222691493408]","[1,1,1]","[-0.11874982479771759,-0.06822981207210964]","[-1,-1,-1]","[0.19484977772087422,0.0009198128857097378]","[1,1,1]","[0.003273037120317257,0.05915995403604955]","[1,1,1]","[-0.17113375549992793,0.06784146521869368]","[1,1,1]","[0.06879461246177805,-0.10880260345000835]","[1,1,1]","[0.07050032214474437,0.13194750506129402]","[-1,-1,-1]","[-0.06808503952488729,0.010072972014487837]","[1,1,1]","[-0.025502877628682603,-0.19772443252586466]","[1,1,1]","[0.1551479331991398,-0.10108280375394955]","[1,1,1]","[-0.16083799166621035,0.0035842559288669033]","[1,1,1]","[-0.04472040512099167,0.13064495920444166]","[1,1,1]","[0.05203197913910021,0.06565106247460285]","[1,1,1]","[-0.018144642180190032,-0.10614897205878919]","[1,1,1]","[0.11223485713384579,-0.0025276804810736805]","[1,1,1]","[0.04879093132820761,0.16750646808372216]","[1,1,1]","[-0.08644079388546304,0.1387823496143259]","[1,1,1]","[-0.04163452364107079,-0.02573409731320185]","[1,1,1]","[0.017152903280351402,0.10641954916069148]","[1,1,1]","[0.01498473245617475,0.1984366058024995]","[1,1,1]","[0.1484445428084594,-0.05704900955368306]","[1,1,1]","[0.037297919271076854,-0.08118038321729128]","[1,1,1]","[0.15184153462668698,0.11149682831140174]","[1,1,1]","[0.02,0.02]",174.03,0,44,44,194,1,,,,,,,
