right,left,explain.started,explain.stopped,key_resp_3.keys,key_resp_3.rt,key_resp_3.duration,participant,session,date,expName,psychopyVersion,OS,frameRate,study_id,explain_2.started,explain_2.stopped,key_resp_4.keys,key_resp_4.rt,key_resp_4.duration,explain_3.started,explain_3.stopped,key_resp_5.keys,key_resp_5.rt,key_resp_5.duration,fixation.started,fixation.stopped,practice.started,practice.stopped,response.started,response.stopped,key_resp.keys,key_resp.rt,key_resp.duration,feedback.started,feedback.stopped,trials_2.thisRepN,trials_2.thisTrialN,trials_2.thisN,trials_2.thisIndex,trials_2.ran,white_ratio,explain_4.started,explain_4.stopped,key_resp_6.keys,key_resp_6.rt,key_resp_6.duration,dotDisplay.started,dotDisplay.stopped,ITI.started,polygon_1.pos,polygon_1.color,polygon_2.pos,polygon_2.color,polygon_3.pos,polygon_3.color,polygon_4.pos,polygon_4.color,polygon_5.pos,polygon_5.color,polygon_6.pos,polygon_6.color,polygon_7.pos,polygon_7.color,polygon_8.pos,polygon_8.color,polygon_9.pos,polygon_9.color,polygon_10.pos,polygon_10.color,polygon_11.pos,polygon_11.color,polygon_12.pos,polygon_12.color,polygon_13.pos,polygon_13.color,polygon_14.pos,polygon_14.color,polygon_15.pos,polygon_15.color,polygon_16.pos,polygon_16.color,polygon_17.pos,polygon_17.color,polygon_18.pos,polygon_18.color,polygon_19.pos,polygon_19.color,polygon_20.pos,polygon_20.color,polygon_21.pos,polygon_21.color,polygon_22.pos,polygon_22.color,polygon_23.pos,polygon_23.color,polygon_24.pos,polygon_24.color,polygon_25.pos,polygon_25.color,polygon_26.pos,polygon_26.color,polygon_27.pos,polygon_27.color,polygon_28.pos,polygon_28.color,polygon_29.pos,polygon_29.color,polygon_30.pos,polygon_30.color,polygon_31.pos,polygon_31.color,polygon_32.pos,polygon_32.color,dot_size,ITI.stopped,trials.thisRepN,trials.thisTrialN,trials.thisN,trials.thisIndex,trials.ran,break_2.started,break_2.stopped,trials_3.thisRepN,trials_3.thisTrialN,trials_3.thisN,trials_3.thisIndex,trials_3.ran
subject chose black,subject chose white,0.0008,16.9452,space,1.9337,,67ab1e1f5b205c29bc9f1c64,682f0fb7ee085ef72bd8dd4d,2025-05-22_14h11.39.785,cuing_paradigm_dot,2024.1.5,Win32,60.24096386,682d573fa47f1360d1451895,,,,,,,,,,,,,,,,,,,,,,,,,,,,,,,,,,,,,,,,,,,,,,,,,,,,,,,,,,,,,,,,,,,,,,,,,,,,,,,,,,,,,,,,,,,,,,,,,,,,,,,,,,,,,,,,,
,,,,,,,67ab1e1f5b205c29bc9f1c64,682f0fb7ee085ef72bd8dd4d,2025-05-22_14h11.39.785,cuing_paradigm_dot,2024.1.5,Win32,60.24096386,682d573fa47f1360d1451895,16.9454,59.8496,space,12.8894,,,,,,,,,,,,,,,,,,,,,,,,,,,,,,,,,,,,,,,,,,,,,,,,,,,,,,,,,,,,,,,,,,,,,,,,,,,,,,,,,,,,,,,,,,,,,,,,,,,,,,,,,,,,,
,,,,,,,67ab1e1f5b205c29bc9f1c64,682f0fb7ee085ef72bd8dd4d,2025-05-22_14h11.39.785,cuing_paradigm_dot,2024.1.5,Win32,60.24096386,682d573fa47f1360d1451895,,,,,,59.8497,63.8909,space,1.0295,,,,,,,,,,,,,,,,,,,,,,,,,,,,,,,,,,,,,,,,,,,,,,,,,,,,,,,,,,,,,,,,,,,,,,,,,,,,,,,,,,,,,,,,,,,,,,,,,,,,,,,,
,,,,,,,67ab1e1f5b205c29bc9f1c64,682f0fb7ee085ef72bd8dd4d,2025-05-22_14h11.39.785,cuing_paradigm_dot,2024.1.5,Win32,60.24096386,682d573fa47f1360d1451895,,,,,,,,,,,63.9193,64.4072,64.4076,64.6162,64.6165,64.8242,left,0.1726,,64.8244,65.9235,0,0,0,0,1,0.8,,,,,,,,,,,,,,,,,,,,,,,,,,,,,,,,,,,,,,,,,,,,,,,,,,,,,,,,,,,,,,,,,,,,,,,,,,,,,,,,,,,,,,
,,,,,,,67ab1e1f5b205c29bc9f1c64,682f0fb7ee085ef72bd8dd4d,2025-05-22_14h11.39.785,cuing_paradigm_dot,2024.1.5,Win32,60.24096386,682d573fa47f1360d1451895,,,,,,,,,,,65.9243,66.4231,66.4232,66.6703,66.6704,67.4232,left,0.7337,,67.4233,68.5115,0,1,1,1,1,0.2,,,,,,,,,,,,,,,,,,,,,,,,,,,,,,,,,,,,,,,,,,,,,,,,,,,,,,,,,,,,,,,,,,,,,,,,,,,,,,,,,,,,,,
,,,,,,,67ab1e1f5b205c29bc9f1c64,682f0fb7ee085ef72bd8dd4d,2025-05-22_14h11.39.785,cuing_paradigm_dot,2024.1.5,Win32,60.24096386,682d573fa47f1360d1451895,,,,,,,,,,,,,,,,,,,,,,,,,,,,68.5122,107.0305,space,35.5011,,,,,,,,,,,,,,,,,,,,,,,,,,,,,,,,,,,,,,,,,,,,,,,,,,,,,,,,,,,,,,,,,,,,,,,,,,,,,,,,,,
,,,,,,,67ab1e1f5b205c29bc9f1c64,682f0fb7ee085ef72bd8dd4d,2025-05-22_14h11.39.785,cuing_paradigm_dot,2024.1.5,Win32,60.24096386,682d573fa47f1360d1451895,,,,,,,,,,,107.0522,107.5466,,,107.7964,108.5967,left,0.7809,,,,,,,,,0.6,,,,,,107.5471,107.7962,108.5973,"[-0.11664347966883874,0.03128299307417007]","[-1,-1,-1]","[0.12767536725539455,-0.1053739260771669]","[1,1,1]","[-0.0562954413326362,-0.10116100049976211]","[1,1,1]","[0.13480247784429542,-0.02880521225947475]","[-1,-1,-1]","[-0.1350993887573342,-0.09883379288663992]","[1,1,1]","[-0.02855466527521636,0.13790298837692594]","[1,1,1]","[-0.16299393269930224,-0.05532160586179256]","[-1,-1,-1]","[-0.006733985750620661,-0.08742820476426015]","[1,1,1]","[0.16097563421224487,0.09945602198860751]","[1,1,1]","[0.01645526117948253,0.028208645983260672]","[-1,-1,-1]","[0.09846683117974342,0.12918163722509213]","[-1,-1,-1]","[-0.08012339061739067,0.10566097603486638]","[1,1,1]","[-0.1605084113678962,0.10496630806880006]","[-1,-1,-1]","[0.11405666030933696,-0.16422132487412056]","[1,1,1]","[0.007030055146378392,0.11105164904901921]","[1,1,1]","[0.028974932376200548,-0.13935543876983356]","[1,1,1]","[-0.04294243400916518,0.06611433204045684]","[1,1,1]","[0.06608492530422756,-0.036296968681986695]","[1,1,1]","[-0.10193842200793113,-0.12202814378694687]","[-1,-1,-1]","[0.16746631032827572,-0.09258174387532903]","[1,1,1]","[0.06755978933956998,-0.15594503708733162]","[1,1,1]","[0.17815533739488304,-0.015965514450149813]","[-1,-1,-1]","[0.08110924557937714,0.08162723599662103]","[-1,-1,-1]","[-0.17869567159260963,0.036777945173408044]","[1,1,1]","[-0.010527461361254337,-0.1798590493210803]","[-1,-1,-1]","[-0.09703118801692732,-0.011429367911173409]","[-1,-1,-1]","[0.17001439856646883,0.043510668525337956]","[1,1,1]","[0.05174461141183265,0.18353019205815202]","[-1,-1,-1]","[0.03968706755645414,-0.09514545433610855]","[1,1,1]","[-0.05875521040122021,0.018596168444526294]","[1,1,1]","[0.09342145100271072,0.04298078822550872]","[-1,-1,-1]","[0.05645499931202972,0.02442287510065144]","[1,1,1]","[0.02,0.02]",109.6965,0,0,0,178,1,,,,,,,
,,,,,,,67ab1e1f5b205c29bc9f1c64,682f0fb7ee085ef72bd8dd4d,2025-05-22_14h11.39.785,cuing_paradigm_dot,2024.1.5,Win32,60.24096386,682d573fa47f1360d1451895,,,,,,,,,,,109.697,110.196,,,110.443,110.8463,left,0.3841,,,,,,,,,0.55,,,,,,110.1961,110.4429,110.8463,"[0.04911688256710141,-0.08799447462146053]","[-1,-1,-1]","[0.11226038069121934,-0.017869545239610624]","[-1,-1,-1]","[-0.009991533998275341,0.12363735891851241]","[1,1,1]","[-0.11255730420214738,0.05435847330811347]","[-1,-1,-1]","[0.09077056939915877,-0.11487923404924497]","[-1,-1,-1]","[-0.1597150630240803,0.002404598143705136]","[-1,-1,-1]","[0.1747987922819354,-0.0032043637096672594]","[1,1,1]","[-0.02826658591915619,0.1967594392666543]","[1,1,1]","[0.05814703467181697,0.1086607246548775]","[-1,-1,-1]","[0.1339509830230497,0.07751907745516705]","[1,1,1]","[0.04029543298947819,-0.01814606774627822]","[1,1,1]","[0.1881291423487437,-0.04248789179910653]","[-1,-1,-1]","[0.07279488178359408,0.06068086243024716]","[1,1,1]","[0.0488510140629756,-0.1579042480433888]","[1,1,1]","[-0.03744458498069399,-0.07637690437899039]","[1,1,1]","[-0.07896407420607783,0.1417230528700356]","[-1,-1,-1]","[-0.1071739595265013,0.008661701449952357]","[1,1,1]","[-0.0810214682625275,0.08867834198982559]","[-1,-1,-1]","[-0.1511613159066395,0.11148185693745752]","[1,1,1]","[-0.026300086512630518,0.06409446081730644]","[-1,-1,-1]","[-0.022230368977821036,-0.16591652212244876]","[-1,-1,-1]","[-0.042768682235061015,-0.01574742648237948]","[1,1,1]","[0.15318788396759586,-0.0856391222336709]","[1,1,1]","[0.07410035623979236,0.1496578852648097]","[1,1,1]","[-0.1097901200563615,-0.10350475958762861]","[1,1,1]","[0.018724316940747682,0.026612280022003613]","[1,1,1]","[0.01753986054797417,-0.13133077638675805]","[1,1,1]","[0.12384008113579219,0.13560165154871023]","[-1,-1,-1]","[-0.09269768578902376,-0.058122957414109534]","[-1,-1,-1]","[0.1231412544265405,-0.0588781768344682]","[-1,-1,-1]","[0.1203603602176482,-0.15799433553463685]","[1,1,1]","[0.013545408127097133,0.08679235696483377]","[1,1,1]","[0.02,0.02]",111.9432,0,1,1,140,1,,,,,,,
,,,,,,,67ab1e1f5b205c29bc9f1c64,682f0fb7ee085ef72bd8dd4d,2025-05-22_14h11.39.785,cuing_paradigm_dot,2024.1.5,Win32,60.24096386,682d573fa47f1360d1451895,,,,,,,,,,,111.944,112.4455,,,112.6846,113.1158,left,0.4059,,,,,,,,,0.45,,,,,,112.4456,112.6844,113.1159,"[0.0804605156584658,0.025332515585504586]","[1,1,1]","[-0.04268423272525055,0.08029490207195272]","[1,1,1]","[0.1522967676655545,0.024389009864283974]","[-1,-1,-1]","[-0.022887196571121537,0.14325476697755987]","[1,1,1]","[0.07887762255627355,-0.09395074079109009]","[1,1,1]","[0.13036204710915794,-0.08849501404397121]","[-1,-1,-1]","[0.06666385190887762,0.06524557445366425]","[1,1,1]","[-0.06002949629939368,-0.01460719904013739]","[-1,-1,-1]","[0.07493967124152617,-0.02145213879790201]","[-1,-1,-1]","[-0.06683805256728563,-0.0992046802957349]","[-1,-1,-1]","[-0.015423500973997412,-0.12190280777340115]","[-1,-1,-1]","[-0.09061693831766628,-0.0528379890145815]","[-1,-1,-1]","[-0.1765630261549912,0.007416448646543317]","[-1,-1,-1]","[0.05341037726351927,0.15031256190375067]","[-1,-1,-1]","[-0.13708996506142868,-0.025777279409192323]","[-1,-1,-1]","[0.157350648457132,0.10233559213265071]","[-1,-1,-1]","[-0.12057165608629285,-0.15855254050871018]","[1,1,1]","[-0.13162457329198107,0.11181003339764596]","[1,1,1]","[0.02642615641612766,0.18121404063583899]","[-1,-1,-1]","[0.0726590792931985,-0.13560894351288527]","[1,1,1]","[0.010538324042204271,0.043296045904727756]","[-1,-1,-1]","[-0.08409207946986513,0.09738923359233878]","[-1,-1,-1]","[-0.1753721031390625,-0.060925932780420904]","[-1,-1,-1]","[0.12910181203301252,0.13753297906249035]","[1,1,1]","[0.18705311784675535,-0.03407080234318742]","[1,1,1]","[0.036523500878718834,0.1135623217430023]","[-1,-1,-1]","[0.0397878986469959,-0.07454158551621401]","[1,1,1]","[-0.1618977013143766,0.07185786749124717]","[1,1,1]","[-0.06560241992171442,0.17615017844845773]","[1,1,1]","[-0.021134197470031642,0.0020470504629696556]","[-1,-1,-1]","[-0.04523580193769056,-0.1805102879576788]","[1,1,1]","[-0.10617391637200696,0.1516502302337994]","[-1,-1,-1]","[0.02,0.02]",114.2144,0,2,2,77,1,,,,,,,
,,,,,,,67ab1e1f5b205c29bc9f1c64,682f0fb7ee085ef72bd8dd4d,2025-05-22_14h11.39.785,cuing_paradigm_dot,2024.1.5,Win32,60.24096386,682d573fa47f1360d1451895,,,,,,,,,,,114.2153,114.7129,,,114.9464,115.6788,right,0.7126,,,,,,,,,0.55,,,,,,114.713,114.9462,115.6789,"[-0.15262195009480206,-0.01729488829545923]","[-1,-1,-1]","[0.04185313725569179,-0.11168715067300818]","[-1,-1,-1]","[0.13587190312612135,-0.12814798813580236]","[1,1,1]","[-0.019073458181576804,0.07863955221592958]","[1,1,1]","[0.13302466150410486,0.13248912134809618]","[-1,-1,-1]","[-0.10098850082003413,-0.1622418986552869]","[1,1,1]","[0.021041902633422357,-0.015353695794509431]","[1,1,1]","[-0.1847130452752157,0.057610533603875955]","[1,1,1]","[0.0753563550237885,-0.01658707088165372]","[1,1,1]","[-0.005623861625008389,0.1818992191751824]","[1,1,1]","[-0.08935869156795129,0.08674673799179809]","[1,1,1]","[0.008948472601745812,0.1269754415044319]","[-1,-1,-1]","[-0.08189736653670969,-0.10173170593940249]","[1,1,1]","[0.13924780697300254,-0.031178787966540153]","[1,1,1]","[-0.00279084413721906,0.038357409195563054]","[1,1,1]","[0.1340120834159946,0.06506452639342827]","[-1,-1,-1]","[0.06561563474899998,0.12085352105063561]","[1,1,1]","[0.0460219245801581,-0.19098910406888897]","[-1,-1,-1]","[-0.05236279191088214,-0.14903931438104195]","[-1,-1,-1]","[0.07162147986839666,-0.07486134580445333]","[-1,-1,-1]","[-0.03944111519288313,-0.08038687737046883]","[1,1,1]","[-0.02692742960092695,-0.031725427816635]","[1,1,1]","[-0.14060375249355292,-0.06328808391214244]","[-1,-1,-1]","[0.19547611524168362,0.0231821447145562]","[-1,-1,-1]","[-0.15762844355185424,0.10430158247109611]","[-1,-1,-1]","[0.05829585785136915,0.17428813591016448]","[-1,-1,-1]","[-0.13747701687197308,0.1422579641661467]","[1,1,1]","[-0.08423591059465675,-0.014121678608650027]","[1,1,1]","[-0.12747040218603234,0.05962996523907679]","[1,1,1]","[0.00015773947757509414,-0.10602468088184908]","[-1,-1,-1]","[0.022518856635207505,-0.1543592383696912]","[-1,-1,-1]","[0.029166659166092374,0.07345227939045913]","[1,1,1]","[0.02,0.02]",116.7598,0,3,3,135,1,,,,,,,
,,,,,,,67ab1e1f5b205c29bc9f1c64,682f0fb7ee085ef72bd8dd4d,2025-05-22_14h11.39.785,cuing_paradigm_dot,2024.1.5,Win32,60.24096386,682d573fa47f1360d1451895,,,,,,,,,,,116.7604,117.2618,,,117.5066,118.217,left,0.6915,,,,,,,,,0.45,,,,,,117.2622,117.5066,118.2171,"[-0.06733128950644839,-0.15134522560588273]","[-1,-1,-1]","[-0.16683419461438365,0.039556060307902305]","[1,1,1]","[0.011184086349810073,-0.168432976609322]","[-1,-1,-1]","[-0.11249879534280684,-0.05798133382606244]","[-1,-1,-1]","[0.00011162163541296113,-0.02996458554339203]","[-1,-1,-1]","[-0.06401671062096288,0.019327521164066767]","[1,1,1]","[0.04838631017980969,-0.10567578092428909]","[-1,-1,-1]","[0.01572474021485759,0.1879262992521107]","[-1,-1,-1]","[-0.12180995833305937,0.1292735100219761]","[1,1,1]","[0.04606028094425156,0.0605984676143777]","[1,1,1]","[0.12266776501323168,-0.08268555676163483]","[1,1,1]","[0.07591783310215364,0.11211223223311054]","[1,1,1]","[-0.12089826115946745,0.03705145227641379]","[1,1,1]","[0.09414579144462573,-0.0002943577104725591]","[-1,-1,-1]","[0.11736789967096718,0.06102358597243612]","[-1,-1,-1]","[-0.10573685772424085,0.09245129891384542]","[1,1,1]","[-0.16804688494407755,-0.09175735422600978]","[-1,-1,-1]","[-0.17230715321591336,0.08791237132446951]","[1,1,1]","[0.12219525669303247,-0.14809679763903758]","[1,1,1]","[-0.006067229327792985,0.026261464374894097]","[1,1,1]","[0.0765162392616702,0.1686676770242063]","[-1,-1,-1]","[0.06646022516120347,-0.1654736055981284]","[-1,-1,-1]","[-0.044838657619611165,0.17639376292262554]","[-1,-1,-1]","[-0.07877792685494306,-0.09361675479699917]","[-1,-1,-1]","[0.055309992913702415,-0.017483895211095044]","[1,1,1]","[0.006950491923329965,0.08677313573265796]","[-1,-1,-1]","[-0.030152235296994706,-0.11753526904552271]","[-1,-1,-1]","[0.03369560707424035,0.12619629992618955]","[-1,-1,-1]","[0.1807084198630601,-0.05300454756709205]","[1,1,1]","[-0.041749436090868244,0.1096802935604691]","[-1,-1,-1]","[-0.11204520327320995,-0.16480958055604084]","[1,1,1]","[-0.06725314940294512,-0.03620725402354664]","[-1,-1,-1]","[0.02,0.02]",119.3246,0,4,4,62,1,,,,,,,
,,,,,,,67ab1e1f5b205c29bc9f1c64,682f0fb7ee085ef72bd8dd4d,2025-05-22_14h11.39.785,cuing_paradigm_dot,2024.1.5,Win32,60.24096386,682d573fa47f1360d1451895,,,,,,,,,,,119.3252,119.8273,,,120.0676,120.3775,left,0.284,,,,,,,,,0.6,,,,,,119.8273,120.0674,120.3775,"[-0.03528197958352837,0.09827242266378575]","[1,1,1]","[-0.06259980668251465,0.005013682069284526]","[-1,-1,-1]","[-0.1084344136495765,-0.11402029088594301]","[-1,-1,-1]","[0.09238405162286471,0.09052553481445108]","[1,1,1]","[0.03315284662914157,0.05582594923964482]","[-1,-1,-1]","[-0.16324816981276258,0.03486012033844318]","[1,1,1]","[0.1290603918213061,-0.01226017394411723]","[1,1,1]","[0.1917029033334392,0.04703951504477578]","[1,1,1]","[0.09047870141576649,-0.1499045055713869]","[-1,-1,-1]","[-0.03965180040394332,-0.09170504915486359]","[1,1,1]","[-0.1755272971158442,-0.023165686154595518]","[-1,-1,-1]","[-0.14225190724590953,0.10580901567132278]","[1,1,1]","[-0.11367614964330196,-0.011471012042324119]","[-1,-1,-1]","[-0.1464797928999948,-0.098568502109725]","[1,1,1]","[0.057021695733731496,-0.0052061317012524954]","[-1,-1,-1]","[0.0979902345160851,-0.03865623005200142]","[-1,-1,-1]","[0.16307704527082023,-0.05815256565468386]","[-1,-1,-1]","[-0.07250747213372108,-0.14525172972406067]","[1,1,1]","[0.08780031746779919,0.13213298465443005]","[1,1,1]","[-0.07118691512384956,0.12345192217462812]","[-1,-1,-1]","[0.013991383874695592,0.0004884751600673008]","[1,1,1]","[0.023930532351018764,-0.09569219041087579]","[1,1,1]","[0.09159194819281107,0.02991804570736]","[1,1,1]","[0.0375804527336905,0.1783245913385865]","[-1,-1,-1]","[0.03399702822611792,-0.18676446495028934]","[-1,-1,-1]","[0.1315662100886207,0.04488912870875961]","[1,1,1]","[-0.010920352630214835,0.1705089367115646]","[1,1,1]","[-0.014178463473532464,-0.055342727934605346]","[1,1,1]","[-0.0033209157090566483,-0.12683455734249788]","[1,1,1]","[0.07501833407287359,-0.106757843029633]","[-1,-1,-1]","[0.14588198845603584,0.11731983654244793]","[1,1,1]","[-0.07673392251705986,0.05153105539915025]","[1,1,1]","[0.02,0.02]",121.4767,0,5,5,167,1,,,,,,,
,,,,,,,67ab1e1f5b205c29bc9f1c64,682f0fb7ee085ef72bd8dd4d,2025-05-22_14h11.39.785,cuing_paradigm_dot,2024.1.5,Win32,60.24096386,682d573fa47f1360d1451895,,,,,,,,,,,121.4771,121.9765,,,122.216,122.6356,left,0.3946,,,,,,,,,0.6,,,,,,121.9765,122.2159,122.6357,"[0.060660564543879844,0.036572036839248756]","[-1,-1,-1]","[-0.05104040998628521,-0.08495672944771077]","[1,1,1]","[-0.09522735952246111,0.1587360214662443]","[1,1,1]","[0.02725832988299903,0.1659240665717294]","[-1,-1,-1]","[-0.012915554374505355,0.020197810213541795]","[1,1,1]","[-0.040668689430963925,-0.03839599066496318]","[1,1,1]","[-0.08502105916621516,-0.019113266934306025]","[1,1,1]","[-0.12078849614311962,-0.09977182503882835]","[-1,-1,-1]","[0.11274423801415437,0.096000755905839]","[-1,-1,-1]","[-0.10437099824785068,0.05138686725550657]","[-1,-1,-1]","[0.09581280985162255,0.001148537204545568]","[1,1,1]","[0.07332025181822338,-0.15671902913273475]","[-1,-1,-1]","[-0.101789966217588,-0.14717297601874016]","[-1,-1,-1]","[0.005611961567524642,0.05602295559704799]","[1,1,1]","[-0.006253414978758209,-0.14206502025227963]","[1,1,1]","[0.1386377258456642,-0.03641277751052372]","[1,1,1]","[-0.01689238844715202,0.09204255964219826]","[-1,-1,-1]","[0.02292392163741489,-0.04172932869947799]","[-1,-1,-1]","[0.16994898857950516,0.06665330986254732]","[-1,-1,-1]","[0.0666256613731518,0.11124535150102051]","[1,1,1]","[0.12571365777776383,-0.07536458310565931]","[1,1,1]","[0.14596662024556012,-0.1190004781428287]","[-1,-1,-1]","[-0.042996663386658286,0.14700004981004494]","[1,1,1]","[-0.052234505464668575,-0.17490259151292673]","[1,1,1]","[0.1875475927251184,-0.02893314325052616]","[1,1,1]","[0.04674100337295275,-0.008725022993904697]","[1,1,1]","[-0.1722893262096082,-0.059146704116362754]","[1,1,1]","[0.1197936197290702,-0.15444334586190003]","[-1,-1,-1]","[-0.053871462708794476,-0.12782391069914317]","[1,1,1]","[-0.14664956413739186,-0.01908933710881548]","[1,1,1]","[-0.027469112579691046,0.1870843295721466]","[-1,-1,-1]","[-0.13860244135574512,0.10431614378453545]","[1,1,1]","[0.02,0.02]",123.7311,0,6,6,154,1,,,,,,,
,,,,,,,67ab1e1f5b205c29bc9f1c64,682f0fb7ee085ef72bd8dd4d,2025-05-22_14h11.39.785,cuing_paradigm_dot,2024.1.5,Win32,60.24096386,682d573fa47f1360d1451895,,,,,,,,,,,123.7319,124.2262,,,124.4737,124.7613,left,0.271,,,,,,,,,0.9,,,,,,124.2263,124.4736,124.7614,"[0.061918865205595405,-0.13007406407224412]","[1,1,1]","[-0.02171079289591943,-0.08757754943878245]","[1,1,1]","[0.15260947343379233,0.04664919731777283]","[1,1,1]","[0.08310283927033221,0.14796858344323663]","[1,1,1]","[0.16624913878023084,-0.08903513636036461]","[1,1,1]","[-0.11623219257700024,0.036620847860185796]","[1,1,1]","[0.09539271171987646,-0.16777570824245114]","[1,1,1]","[-0.005490309590085768,-0.02969320531142157]","[1,1,1]","[-0.13234586754556538,0.09515251032893009]","[-1,-1,-1]","[-0.08805183900992718,-0.06509358362391572]","[1,1,1]","[-0.1912619861420487,0.0019444997646067223]","[-1,-1,-1]","[-0.055489729879559746,0.032512530802904095]","[1,1,1]","[-0.07757840634356905,0.11109936464963044]","[1,1,1]","[0.12243275435733718,-0.09505166756970061]","[1,1,1]","[-0.1088964401219836,-0.013193933293436532]","[1,1,1]","[0.04454193484875585,-0.00029441303896305754]","[1,1,1]","[-0.14621588126339832,-0.10859107970455627]","[1,1,1]","[0.11350812675741201,-0.050827317613980925]","[1,1,1]","[0.04358718174107096,0.11041914668669092]","[1,1,1]","[-0.16741336428676867,0.06766969283646039]","[1,1,1]","[-0.046368533477351766,0.07883685476027635]","[-1,-1,-1]","[0.13346265470248483,0.0895551099753177]","[1,1,1]","[0.00800181163223848,-0.1216843709936358]","[1,1,1]","[0.080460702763555,0.04053967703886369]","[1,1,1]","[-0.08674403667259148,-0.1369268008262004]","[1,1,1]","[0.025932172718565235,-0.18493012656153668]","[1,1,1]","[0.18060343509006446,0.017778750438617312]","[1,1,1]","[-0.025440784121987976,0.1909341079540732]","[1,1,1]","[-0.04074420996267103,-0.16261456601669083]","[1,1,1]","[0.09913655968094617,-0.012610008601778893]","[1,1,1]","[0.04845110837684839,0.17874001632176922]","[1,1,1]","[-0.007507191158611835,0.1348457935030889]","[1,1,1]","[0.02,0.02]",125.8502,0,7,7,200,1,,,,,,,
,,,,,,,67ab1e1f5b205c29bc9f1c64,682f0fb7ee085ef72bd8dd4d,2025-05-22_14h11.39.785,cuing_paradigm_dot,2024.1.5,Win32,60.24096386,682d573fa47f1360d1451895,,,,,,,,,,,125.8509,126.3422,,,126.5902,127.0283,left,0.421,,,,,,,,,0.1,,,,,,126.3423,126.5901,127.0283,"[-0.0006113893642031335,0.0445505253957585]","[-1,-1,-1]","[0.039279677952629925,0.07732106963834816]","[-1,-1,-1]","[-0.12482927252634188,0.13919602207985088]","[-1,-1,-1]","[-0.08025312484983829,0.15179972733291455]","[-1,-1,-1]","[0.1008137620394586,-0.06621503272414885]","[-1,-1,-1]","[0.16185168631994357,0.08983167127991915]","[-1,-1,-1]","[0.09157148094817914,-0.12364950980614228]","[-1,-1,-1]","[-0.12352377275739246,-0.03557885087928501]","[-1,-1,-1]","[0.056750449683385655,-0.177825094666496]","[-1,-1,-1]","[-0.14256983829667463,0.06485124937855381]","[-1,-1,-1]","[-0.10657521759417245,0.01478246412077397]","[1,1,1]","[-0.03944725084826691,-0.1500517257394218]","[-1,-1,-1]","[0.16866935639489,0.04058756550930506]","[-1,-1,-1]","[-0.0009313731473744281,-0.19408615607457336]","[-1,-1,-1]","[0.182210836405145,-0.05868797587263832]","[-1,-1,-1]","[-0.09319524460132828,-0.06851191921610232]","[-1,-1,-1]","[-0.07579960708962781,-0.023835834531377113]","[-1,-1,-1]","[0.08532384853035638,0.14009230711738507]","[-1,-1,-1]","[-0.19556649979879379,-0.0036121258686327945]","[1,1,1]","[-0.03390294110920717,0.10148081726770168]","[-1,-1,-1]","[0.12151483082853932,0.017841364732894428]","[-1,-1,-1]","[0.05955751469093133,0.007517315936413586]","[-1,-1,-1]","[0.061571597091375975,-0.09281850596023954]","[-1,-1,-1]","[-0.15107382584925577,-0.10673449323162096]","[1,1,1]","[0.0887894102260167,0.04338865624077044]","[-1,-1,-1]","[0.05572154883878912,-0.040207819001289426]","[-1,-1,-1]","[-0.04689604447951499,0.030612825890018076]","[-1,-1,-1]","[0.043747330455910435,0.18493070221894706]","[-1,-1,-1]","[0.022442719804511523,0.11740056257820808]","[-1,-1,-1]","[-0.0834736316357663,-0.11247699619410549]","[-1,-1,-1]","[0.11933060757578308,-0.15475986130104996]","[-1,-1,-1]","[0.14292994979322865,-0.0663423143960218]","[-1,-1,-1]","[0.02,0.02]",128.1251,0,8,8,21,1,,,,,,,
,,,,,,,67ab1e1f5b205c29bc9f1c64,682f0fb7ee085ef72bd8dd4d,2025-05-22_14h11.39.785,cuing_paradigm_dot,2024.1.5,Win32,60.24096386,682d573fa47f1360d1451895,,,,,,,,,,,128.1259,128.6146,,,128.8571,129.1701,left,0.2979,,,,,,,,,0.9,,,,,,128.6147,128.857,129.1702,"[0.14544488278833193,0.03839673989115079]","[1,1,1]","[0.08755675144935712,-0.02841605674098493]","[1,1,1]","[0.16894138123263996,-0.0015533502431827105]","[-1,-1,-1]","[0.01566566128244119,-0.09006153179960748]","[1,1,1]","[0.11144436562133449,-0.07467038155488145]","[1,1,1]","[0.01565169156705919,-0.14276527125628666]","[1,1,1]","[0.07439230589157599,0.14766109219320558]","[1,1,1]","[-0.030287307283193052,0.08362339347816714]","[1,1,1]","[0.0025921316944672794,0.1539316195052507]","[1,1,1]","[0.161994926042446,0.0980767886538357]","[1,1,1]","[-0.0032889510808554287,0.022828533796864784]","[1,1,1]","[-0.08457524459384952,0.0735317874159534]","[-1,-1,-1]","[0.014831976624023191,0.11105205793703335]","[1,1,1]","[0.010142677992254188,-0.1877012991937566]","[1,1,1]","[-0.07675033377602163,-0.16170033981813006]","[1,1,1]","[0.170931546052672,-0.08798437762419796]","[1,1,1]","[0.06198301806225792,0.01088389418175429]","[1,1,1]","[-0.07108276786254034,0.16351503539073425]","[1,1,1]","[-0.1217757157797676,-0.15086859259769053]","[1,1,1]","[-0.14252534516259363,-0.0196575406624741]","[1,1,1]","[-0.14982597086625066,-0.11886225416162322]","[1,1,1]","[-0.14888453076602826,0.07755914102879827]","[1,1,1]","[-0.04916650709470781,-0.08277143394756634]","[1,1,1]","[-0.07894906663253613,0.12402900601429638]","[1,1,1]","[-0.04898090560782884,-0.019678419354763256]","[1,1,1]","[0.0360497412300692,0.06747146020695682]","[1,1,1]","[-0.16146409640287074,-0.057893741496715875]","[1,1,1]","[-0.1707358675442803,0.038493583729728297]","[1,1,1]","[0.05418747725141975,-0.18554644658164482]","[1,1,1]","[0.06083139814852579,0.10375160310539694]","[1,1,1]","[0.11794245380023068,0.12609842381181932]","[-1,-1,-1]","[0.043242052508829155,0.19117365797958624]","[1,1,1]","[0.02,0.02]",130.2579,0,9,9,195,1,,,,,,,
,,,,,,,67ab1e1f5b205c29bc9f1c64,682f0fb7ee085ef72bd8dd4d,2025-05-22_14h11.39.785,cuing_paradigm_dot,2024.1.5,Win32,60.24096386,682d573fa47f1360d1451895,,,,,,,,,,,130.2583,130.7578,,,131.0052,131.6413,left,0.6171,,,,,,,,,0.4,,,,,,130.7579,131.0052,131.6414,"[-0.14307934682950485,0.13825698764117358]","[-1,-1,-1]","[0.08193686422658569,-0.036804442530476704]","[-1,-1,-1]","[0.01368469125580329,-0.18489975658922045]","[-1,-1,-1]","[0.12335886462296067,0.024412051146374323]","[1,1,1]","[0.16537760267335366,-0.012797668983513793]","[-1,-1,-1]","[-0.1441203741498448,-0.008386223471868567]","[1,1,1]","[-0.043025776280908014,0.035498594186364155]","[-1,-1,-1]","[0.18685885390423843,0.03628492625189316]","[-1,-1,-1]","[-0.018489439158949187,0.10986713492563442]","[1,1,1]","[0.0008972402984749395,0.015817495298347764]","[-1,-1,-1]","[0.08982427126682391,0.09307151920506936]","[1,1,1]","[-0.033588650553969084,-0.13591283707821464]","[-1,-1,-1]","[0.1358950080373606,-0.10916705156208394]","[-1,-1,-1]","[-0.0858000531045968,0.054324648773728126]","[-1,-1,-1]","[-0.06140631321773058,0.135529849922653]","[-1,-1,-1]","[-0.08648974300568583,-0.05043421018746726]","[-1,-1,-1]","[0.04547455524799792,0.06481729182963304]","[-1,-1,-1]","[-0.09327439550522368,0.10093312164018275]","[-1,-1,-1]","[0.10321272725890249,0.14396191249358442]","[-1,-1,-1]","[0.17337640794941808,-0.07223861329974263]","[-1,-1,-1]","[0.09831763341717473,-0.16237377118964522]","[1,1,1]","[-0.17610328277222662,0.015681567344781717]","[1,1,1]","[0.015878722411721502,0.17265980101602157]","[1,1,1]","[-0.13497229561427654,-0.07060747057163902]","[1,1,1]","[0.1371407652252651,0.07678206842914971]","[1,1,1]","[-0.0866004361790192,-0.12640527554787404]","[1,1,1]","[-0.13405310087014363,0.0321276472772364]","[-1,-1,-1]","[-0.035476692776997304,-0.063333881317326]","[-1,-1,-1]","[0.032493771042635754,-0.1495785274639794]","[1,1,1]","[0.043745322729763655,0.12068244839537504]","[1,1,1]","[0.007413680155405672,-0.1154222232316633]","[1,1,1]","[0.03434747241957341,-0.06398566899219184]","[-1,-1,-1]","[0.02,0.02]",132.7383,0,10,10,54,1,,,,,,,
,,,,,,,67ab1e1f5b205c29bc9f1c64,682f0fb7ee085ef72bd8dd4d,2025-05-22_14h11.39.785,cuing_paradigm_dot,2024.1.5,Win32,60.24096386,682d573fa47f1360d1451895,,,,,,,,,,,132.739,133.2484,,,133.4884,133.7157,right,0.2113,,,,,,,,,0.6,,,,,,133.2485,133.4882,133.7157,"[-0.08307049195602209,0.11273167920376864]","[1,1,1]","[-0.06360173424815002,-0.0034529330394693835]","[-1,-1,-1]","[0.019076103301300606,-0.14508284916302913]","[-1,-1,-1]","[0.11782821120107294,0.07583549737392406]","[1,1,1]","[-0.00673863675008471,0.11060416457360417]","[-1,-1,-1]","[-0.02105825871418904,0.002057507893482565]","[-1,-1,-1]","[0.06957758064778921,-0.01646163366301247]","[1,1,1]","[0.08598750995160417,0.028663912878287085]","[1,1,1]","[0.12384279261814418,-0.07123577592256501]","[-1,-1,-1]","[0.16364052304232674,-0.017926373292817765]","[-1,-1,-1]","[0.10014233837624324,0.14232614046105665]","[1,1,1]","[-0.10244443026408186,0.06269823275462924]","[1,1,1]","[-0.005397667251897812,0.1704369263561519]","[1,1,1]","[-0.15144549365997337,-0.0127598683361155]","[1,1,1]","[0.1571362555329889,0.03134546707813563]","[-1,-1,-1]","[-0.07561583131050385,0.18104828021342081]","[-1,-1,-1]","[0.024621043939769202,-0.18760254706838006]","[1,1,1]","[-0.06055563653849982,-0.08569535502075892]","[1,1,1]","[-0.00010777871969805709,-0.041112169890867946]","[-1,-1,-1]","[0.08478749549883276,-0.11068747237418151]","[1,1,1]","[-0.11713213334696132,0.14845720240779178]","[1,1,1]","[-0.184712265730709,0.06072070776909729]","[1,1,1]","[0.14157855497916133,-0.13729009160630173]","[1,1,1]","[0.04109119703146802,-0.0985661719087075]","[1,1,1]","[0.018615976302631253,0.027139770932887303]","[-1,-1,-1]","[-0.12121132551197032,-0.09381838512404876]","[-1,-1,-1]","[0.1644857364924911,0.07641917216242573]","[-1,-1,-1]","[-0.06070972677283821,-0.04353818911431005]","[-1,-1,-1]","[0.08238003185546731,-0.15572094127640493]","[1,1,1]","[0.07308070881616867,0.06678805053671318]","[1,1,1]","[-0.18006496203501923,-0.07630536326450814]","[1,1,1]","[-0.15290817634497583,0.0301955774969563]","[1,1,1]","[0.02,0.02]",134.8206,0,11,11,157,1,,,,,,,
,,,,,,,67ab1e1f5b205c29bc9f1c64,682f0fb7ee085ef72bd8dd4d,2025-05-22_14h11.39.785,cuing_paradigm_dot,2024.1.5,Win32,60.24096386,682d573fa47f1360d1451895,,,,,,,,,,,134.8215,135.3207,,,135.5642,135.9719,left,0.3842,,,,,,,,,0.9,,,,,,135.3207,135.5641,135.972,"[0.014859579710801348,0.16680120394956252]","[1,1,1]","[0.026620909211884123,0.09274643022209689]","[-1,-1,-1]","[-0.0706368579520479,0.031839860932738745]","[1,1,1]","[0.038556509089647625,-0.03729732528531153]","[1,1,1]","[0.13242510147933573,-0.14824742804711533]","[1,1,1]","[0.03864637105660661,-0.1861652718577099]","[1,1,1]","[-0.04479319505097085,0.19006584480958472]","[1,1,1]","[0.010208437172004122,-0.07672617722386511]","[1,1,1]","[0.07021393064750468,-0.07960235114291216]","[1,1,1]","[-0.04519949155457822,-0.07392479276151508]","[1,1,1]","[-0.12906831058824292,0.12432561148092178]","[1,1,1]","[-0.12494890604262542,-0.05836978747982564]","[1,1,1]","[-0.008830396228333754,-0.19874789197244347]","[1,1,1]","[0.10999670529323924,-0.04616968047991458]","[1,1,1]","[-0.07924095643850652,-0.04710823379632114]","[1,1,1]","[-0.08990238863119707,0.08796087220323202]","[1,1,1]","[0.07145473919477673,0.10801094275069839]","[1,1,1]","[0.13897302701268582,0.1330419143517007]","[-1,-1,-1]","[-0.03258982663833542,-0.14963252123363682]","[1,1,1]","[-0.0763040764012541,0.12858808666426538]","[1,1,1]","[-0.012194547322008706,0.0554165505478911]","[1,1,1]","[-0.032429385586932605,0.14635106464795475]","[1,1,1]","[0.04035364589707942,0.04276952805993843]","[1,1,1]","[-0.1838118546652294,0.013407910174457222]","[1,1,1]","[0.17101403269425405,0.02822516228971032]","[1,1,1]","[0.18077477521873964,-0.08251409963656363]","[1,1,1]","[0.09820514788538014,0.0022694786116405764]","[1,1,1]","[0.12178212139775227,0.09261516921288848]","[1,1,1]","[0.11065370189189855,-0.11090479783641281]","[1,1,1]","[-0.07412972285447253,-0.16004389459667237]","[1,1,1]","[-0.01285726348622629,0.11070040845625452]","[-1,-1,-1]","[0.0955480822744757,0.05202756666342868]","[1,1,1]","[0.02,0.02]",137.0701,0,12,12,191,1,,,,,,,
,,,,,,,67ab1e1f5b205c29bc9f1c64,682f0fb7ee085ef72bd8dd4d,2025-05-22_14h11.39.785,cuing_paradigm_dot,2024.1.5,Win32,60.24096386,682d573fa47f1360d1451895,,,,,,,,,,,137.0706,137.546,,,137.7903,138.7903,left,0.9829,,,,,,,,,0.5,,,,,,137.5461,137.7902,138.7905,"[0.055592318900775775,-0.08434716555225791]","[1,1,1]","[0.12692160511354353,-0.04225684534875907]","[1,1,1]","[0.0741593458833897,-0.028148992109580186]","[-1,-1,-1]","[-0.07678308981764727,-0.05276876985484463]","[-1,-1,-1]","[0.1098399498406059,-0.10391695336294206]","[-1,-1,-1]","[0.1279793348557105,0.07004297118546146]","[-1,-1,-1]","[0.09174966403784851,0.04555175445476875]","[-1,-1,-1]","[-0.07852426365442663,-0.10814572432234844]","[1,1,1]","[0.05242468794046831,0.1383673278427037]","[-1,-1,-1]","[-0.02619730594432931,0.12163237007262963]","[-1,-1,-1]","[-0.09900930741296898,-0.15501504423909848]","[1,1,1]","[-0.07455106603144206,0.15438957073432524]","[-1,-1,-1]","[0.09752515298695362,-0.15894520906347168]","[-1,-1,-1]","[-0.13412411384636166,0.08569261774479552]","[1,1,1]","[-0.06975489841682492,0.08318024488909155]","[1,1,1]","[-0.18009322960323537,-0.05480634834596976]","[1,1,1]","[-0.0818277806736537,0.006184901822446524]","[1,1,1]","[-0.0007085126579149684,-0.0791080831381564]","[1,1,1]","[-0.06672621238863086,-0.183145960034281]","[-1,-1,-1]","[-0.13198595599435833,-0.0016216355701123145]","[1,1,1]","[0.05141617599540624,0.06882818640748672]","[1,1,1]","[-0.10768610870591766,-0.07847129125760692]","[-1,-1,-1]","[0.0028164090992634848,-0.13241642133993203]","[1,1,1]","[0.16006910640165137,0.0319877264373339]","[-1,-1,-1]","[0.02614503200921691,0.10805836029595926]","[-1,-1,-1]","[0.03906065321381042,-0.16446013178490784]","[-1,-1,-1]","[-0.14284283208201684,-0.1142786684864085]","[-1,-1,-1]","[0.04157637671789462,-0.0008303859428199498]","[-1,-1,-1]","[0.0013143459129166856,-0.17958726749394058]","[1,1,1]","[-0.013368227233227769,0.17729666873745809]","[1,1,1]","[-0.0247000958141933,0.07710887633815694]","[1,1,1]","[0.029619679432802318,0.18182361300471456]","[1,1,1]","[0.02,0.02]",139.8889,0,13,13,91,1,,,,,,,
,,,,,,,67ab1e1f5b205c29bc9f1c64,682f0fb7ee085ef72bd8dd4d,2025-05-22_14h11.39.785,cuing_paradigm_dot,2024.1.5,Win32,60.24096386,682d573fa47f1360d1451895,,,,,,,,,,,139.8893,140.3888,,,140.6368,140.9891,left,0.3347,,,,,,,,,0.55,,,,,,140.3888,140.6368,140.9891,"[0.02006678509479514,0.020159771838689434]","[-1,-1,-1]","[-0.06721233270116854,0.09539802388863969]","[-1,-1,-1]","[0.01747776535338787,-0.0596165974945792]","[-1,-1,-1]","[0.08197696141396658,-0.04012804416444748]","[1,1,1]","[0.08645772922514977,-0.14403489300405264]","[-1,-1,-1]","[0.03991820926434163,-0.13304990484431836]","[1,1,1]","[-0.03970195129493724,0.1680608386393332]","[1,1,1]","[-0.14110836748895073,-0.05814268160388412]","[-1,-1,-1]","[0.07771964034332748,-0.08067526373669746]","[-1,-1,-1]","[0.09893864694273392,0.1544877811724582]","[1,1,1]","[-0.009679501464808567,-0.02045113942122149]","[-1,-1,-1]","[0.11668396784439312,0.019645414958689777]","[-1,-1,-1]","[-0.1105288611608297,0.08151042958185832]","[1,1,1]","[0.004566362657793085,0.11690438975474678]","[1,1,1]","[-0.0002519769170012509,-0.10215200510094655]","[1,1,1]","[-0.17879062677336274,-0.017248512283725363]","[-1,-1,-1]","[0.15852312085890005,-0.04802694458856396]","[-1,-1,-1]","[-0.011782818257749253,0.05090809133262528]","[1,1,1]","[0.17768045457871073,0.03068198205837958]","[1,1,1]","[-0.1780050261316259,-0.07734640553847706]","[-1,-1,-1]","[0.1504912491354335,-0.12213358197488643]","[1,1,1]","[0.021443868876775105,0.16635528550144682]","[1,1,1]","[-0.10716557451072249,-0.11389555678171252]","[1,1,1]","[0.07785165127548076,0.10524446572938088]","[1,1,1]","[-0.14287140996207104,0.04836132817772948]","[1,1,1]","[-0.08455757787006235,0.00013177241291727928]","[-1,-1,-1]","[0.07281828995361964,0.008920550409886508]","[1,1,1]","[0.10038566651497127,0.06581778630779687]","[1,1,1]","[-0.001705396182134213,-0.16235300075390924]","[1,1,1]","[0.04543463549157061,0.07306398100139264]","[1,1,1]","[-0.1270725232308452,0.15426653565586243]","[-1,-1,-1]","[-0.06520981132156622,0.0521113381745403]","[-1,-1,-1]","[0.02,0.02]",142.0884,0,14,14,123,1,,,,,,,
,,,,,,,67ab1e1f5b205c29bc9f1c64,682f0fb7ee085ef72bd8dd4d,2025-05-22_14h11.39.785,cuing_paradigm_dot,2024.1.5,Win32,60.24096386,682d573fa47f1360d1451895,,,,,,,,,,,142.0888,142.5883,,,142.8356,143.6368,left,0.7839,,,,,,,,,0.45,,,,,,142.5883,142.8355,143.6368,"[-0.19645965384171477,0.005306570964326669]","[-1,-1,-1]","[0.013647764505402449,0.006333619960635503]","[1,1,1]","[0.0033831030358628033,-0.15147081314579494]","[-1,-1,-1]","[-0.12458998155383506,-0.0671010491086746]","[-1,-1,-1]","[0.17880853128399143,-0.08942635096892738]","[1,1,1]","[-0.06104777521305935,0.05927521834175477]","[-1,-1,-1]","[0.018936596315746186,-0.08373112671865827]","[1,1,1]","[-0.08274982240527429,-0.03376059356696982]","[-1,-1,-1]","[0.03611796420257485,0.10219390453560205]","[-1,-1,-1]","[-0.04535046730830762,-0.05295263313143726]","[-1,-1,-1]","[-0.10979254933199938,0.03372876495493413]","[1,1,1]","[-0.14901340020460935,0.08246919393129355]","[1,1,1]","[0.18984901228532602,0.045334809564626675]","[-1,-1,-1]","[0.16337675973846494,0.07552008949553733]","[-1,-1,-1]","[0.1501277249576891,-0.05312528302939018]","[-1,-1,-1]","[0.13843349244580777,0.028908467947525447]","[1,1,1]","[0.05195008359076423,0.17838636036159375]","[-1,-1,-1]","[0.020063160907248502,0.0644650809969876]","[-1,-1,-1]","[-0.14210645822244922,-0.12927693161986947]","[1,1,1]","[-0.03260366872572402,0.15929851960181202]","[1,1,1]","[0.12258527369564928,-0.13183812436341266]","[1,1,1]","[-0.015101611864138277,0.10472525298595217]","[-1,-1,-1]","[0.05471125868512295,-0.0546401204373252]","[-1,-1,-1]","[0.061342818297340576,0.07050339840900532]","[-1,-1,-1]","[-0.08399866552032088,-0.14747412080075567]","[-1,-1,-1]","[0.07197339279460799,-0.1494916747923238]","[1,1,1]","[-0.07539646161661144,-0.07978619071720039]","[1,1,1]","[0.12763923073811353,0.10490465749967248]","[-1,-1,-1]","[-0.16536482468572833,-0.03896102651157687]","[1,1,1]","[-0.08422359005022742,0.1009288751211243]","[1,1,1]","[0.07889007461375719,0.14761404578695517]","[-1,-1,-1]","[0.17537779184325228,-0.0065119341517923075]","[1,1,1]","[0.02,0.02]",144.7515,0,15,15,88,1,,,,,,,
,,,,,,,67ab1e1f5b205c29bc9f1c64,682f0fb7ee085ef72bd8dd4d,2025-05-22_14h11.39.785,cuing_paradigm_dot,2024.1.5,Win32,60.24096386,682d573fa47f1360d1451895,,,,,,,,,,,144.752,145.2421,,,145.4858,146.2766,left,0.7742,,,,,,,,,0.45,,,,,,145.2422,145.4858,146.2766,"[-0.14372858014196682,0.007951770094875164]","[-1,-1,-1]","[-0.008677276381341989,-0.15588901572930436]","[-1,-1,-1]","[0.09012805296353281,0.091458529288804]","[-1,-1,-1]","[-0.028976458061697307,0.17820052006064402]","[-1,-1,-1]","[0.10464387389487065,0.02230701762427239]","[-1,-1,-1]","[0.049144101811951835,-0.044427971360691196]","[1,1,1]","[0.1860302392970115,-0.07333849340488909]","[1,1,1]","[0.08792713161374578,0.16119631778340734]","[-1,-1,-1]","[-0.04578116311880658,-0.08790414796732286]","[1,1,1]","[-0.06416877829223039,0.09385003891187094]","[1,1,1]","[-0.050068159123567144,-0.14407542041294355]","[-1,-1,-1]","[-0.048327517728266496,0.01706346924177657]","[1,1,1]","[-0.11399308953698412,-0.14590697685898218]","[1,1,1]","[-0.10618014429940406,-0.050336520005434246]","[-1,-1,-1]","[0.05547549398773468,0.04609509524263199]","[1,1,1]","[-0.06551133127409178,-0.1813401843952374]","[-1,-1,-1]","[0.14109333942739555,-0.10625551602713475]","[1,1,1]","[0.06514271755686901,-0.16353086521839402]","[-1,-1,-1]","[-0.0613474531576236,0.1387474409786769]","[-1,-1,-1]","[0.056507322910929705,-0.11236929099681421]","[-1,-1,-1]","[0.031453257987213476,0.16881835783456767]","[-1,-1,-1]","[-0.13431225090451818,0.10341201616303178]","[1,1,1]","[-0.15972192736565705,-0.06652051108534972]","[-1,-1,-1]","[0.11339599530497813,-0.14163996760528438]","[-1,-1,-1]","[-0.00010666346303386435,0.13448311812502697]","[-1,-1,-1]","[-0.10771584307483022,0.05745844626041722]","[1,1,1]","[0.15695733311884047,0.023987294446894476]","[1,1,1]","[0.0009990078746593598,-0.07926492263180618]","[1,1,1]","[0.1976541926673219,0.008586396545973103]","[1,1,1]","[-0.09267840719554513,-0.09400539223417055]","[-1,-1,-1]","[0.16779342223616403,0.08975498218126564]","[1,1,1]","[0.019052313455912726,-0.017380922550727863]","[-1,-1,-1]","[0.02,0.02]",147.3705,0,16,16,78,1,,,,,,,
,,,,,,,67ab1e1f5b205c29bc9f1c64,682f0fb7ee085ef72bd8dd4d,2025-05-22_14h11.39.785,cuing_paradigm_dot,2024.1.5,Win32,60.24096386,682d573fa47f1360d1451895,,,,,,,,,,,147.3714,147.8856,,,148.1343,148.3718,left,0.2202,,,,,,,,,0.4,,,,,,147.8856,148.1343,148.3719,"[-0.11869630205858518,0.12326690969767895]","[1,1,1]","[0.11587304433454844,0.11227893389310156]","[-1,-1,-1]","[-0.10143676030557096,-0.04386928984978996]","[-1,-1,-1]","[0.05645444315071915,0.13985535887237813]","[1,1,1]","[-0.16917332792111367,-0.018401769862443112]","[1,1,1]","[0.03211790400716007,-0.08501710713139196]","[-1,-1,-1]","[-0.02505242956196348,-0.10001757952179793]","[-1,-1,-1]","[0.00511492255836133,-0.18653523973850555]","[1,1,1]","[-0.06619865402469319,-0.16578515310058087]","[1,1,1]","[-0.03570550902485435,-0.02948613158892027]","[-1,-1,-1]","[0.039391609884921706,0.004530185551262112]","[-1,-1,-1]","[-0.06119883118141922,0.005825899065489384]","[1,1,1]","[0.15296436226088053,-0.0304932005129425]","[1,1,1]","[-0.04510216280169872,0.10877370377941274]","[-1,-1,-1]","[0.1289837598886424,0.034154250529452826]","[-1,-1,-1]","[-0.07342570323652221,0.18469485579819972]","[1,1,1]","[0.07215591535341517,0.18517463856250999]","[1,1,1]","[0.19724846403498092,-0.030328439037680933]","[-1,-1,-1]","[0.07991369321354234,0.06736877568547303]","[-1,-1,-1]","[-0.11621628365220746,0.007822598329020616]","[-1,-1,-1]","[0.07519740872018263,-0.12392706188245783]","[1,1,1]","[0.09420496589850524,-0.04692454593015928]","[-1,-1,-1]","[-0.10356275943642984,0.07145147771910595]","[-1,-1,-1]","[0.17567155319504454,0.06511168493502176]","[-1,-1,-1]","[0.017128722837323817,-0.04280160698584886]","[1,1,1]","[-0.09927458326897581,-0.10921341434371319]","[-1,-1,-1]","[-0.026108435638751235,0.05082289190749931]","[1,1,1]","[-0.10693754352675926,-0.16383150486551998]","[-1,-1,-1]","[-0.13664339136223114,-0.12915181668892622]","[1,1,1]","[-0.15705579328377123,0.09386322899447297]","[-1,-1,-1]","[-0.17665307102538086,0.037576153822031076]","[-1,-1,-1]","[0.03225289901251944,0.10228573233659723]","[-1,-1,-1]","[0.02,0.02]",149.4854,0,17,17,51,1,,,,,,,
,,,,,,,67ab1e1f5b205c29bc9f1c64,682f0fb7ee085ef72bd8dd4d,2025-05-22_14h11.39.785,cuing_paradigm_dot,2024.1.5,Win32,60.24096386,682d573fa47f1360d1451895,,,,,,,,,,,149.4871,149.9757,,,150.2183,150.5438,left,0.3096,,,,,,,,,0.45,,,,,,149.9759,150.2183,150.5438,"[0.02122187396556066,-0.016178738887119265]","[-1,-1,-1]","[-0.1628705994803822,0.08089408039221975]","[1,1,1]","[0.01737516219143668,-0.10055537380781931]","[-1,-1,-1]","[0.05728503009966805,0.045933048932267496]","[-1,-1,-1]","[-0.054586305382594354,0.04048191146885914]","[-1,-1,-1]","[-0.05917373629564404,-0.1905456975513395]","[1,1,1]","[0.17457405101964027,0.05940179014866609]","[1,1,1]","[0.016022225731124357,0.026688979160071555]","[-1,-1,-1]","[-0.0381459371112688,0.13126918347840155]","[1,1,1]","[-0.010017530776930015,-0.05428928117417041]","[1,1,1]","[0.1211268427179498,0.031950670702362065]","[-1,-1,-1]","[-0.09939496295857989,0.11442725638315761]","[1,1,1]","[-0.15937051431410906,-0.1005479113708872]","[-1,-1,-1]","[-0.13263749750568893,-0.05446580509122315]","[-1,-1,-1]","[0.04835719839767999,0.1110446440250502]","[1,1,1]","[0.13729773658574473,0.09464915868417248]","[1,1,1]","[0.007776683049954178,-0.16716361470732385]","[-1,-1,-1]","[-0.07159068985027703,0.1605750552576362]","[1,1,1]","[0.09429530023339985,0.0919761882649741]","[1,1,1]","[-0.11928236004238328,0.022381982846818083]","[-1,-1,-1]","[0.11486149245344712,-0.10881446491370896]","[-1,-1,-1]","[-0.1513759411800092,-0.008471433965482415]","[-1,-1,-1]","[-0.09791842720040783,-0.026252518011195672]","[-1,-1,-1]","[-0.00972082593888162,0.08690863250323798]","[-1,-1,-1]","[0.08306184151188403,0.16950970178621994]","[-1,-1,-1]","[-0.03118735953184169,-0.1516323051675383]","[1,1,1]","[0.03523326152882977,0.19248574580185557]","[1,1,1]","[-0.041521312769163383,-0.01624700826379559]","[-1,-1,-1]","[0.16848959283046278,-0.08632540485042897]","[1,1,1]","[0.13233676006081213,0.14947733223868254]","[-1,-1,-1]","[-0.1004509809366069,-0.08273782861565424]","[-1,-1,-1]","[0.12159311760143734,-0.04076772439786989]","[1,1,1]","[0.02,0.02]",151.6362,0,18,18,69,1,,,,,,,
,,,,,,,67ab1e1f5b205c29bc9f1c64,682f0fb7ee085ef72bd8dd4d,2025-05-22_14h11.39.785,cuing_paradigm_dot,2024.1.5,Win32,60.24096386,682d573fa47f1360d1451895,,,,,,,,,,,151.6369,152.1361,,,152.3865,152.8363,left,0.4337,,,,,,,,,0.5,,,,,,152.1361,152.3864,152.8364,"[0.014314802366506235,0.16081936851605183]","[1,1,1]","[-0.13747435271435765,-0.11113704534576756]","[1,1,1]","[-0.13698470067966984,0.07000203605750148]","[1,1,1]","[0.12151623768408336,-0.07749605677558863]","[1,1,1]","[-0.0492804450063965,-0.10207114737853311]","[1,1,1]","[0.10701208451191628,-0.13263492297513146]","[-1,-1,-1]","[0.08385627678291438,0.09316951127761201]","[-1,-1,-1]","[-0.02044328391719751,-0.0023925202164886278]","[1,1,1]","[-0.01625760303497038,0.19551184512579292]","[-1,-1,-1]","[-0.05333713985075691,-0.1497161992469733]","[-1,-1,-1]","[0.06030804005042757,-0.012375275192392936]","[1,1,1]","[0.05038497428585282,-0.19037681452220911]","[-1,-1,-1]","[0.05957894933030106,-0.12110143747051572]","[-1,-1,-1]","[-0.18121393053684845,0.026932084656829714]","[1,1,1]","[0.1189894471255118,0.15144707137770355]","[-1,-1,-1]","[0.048669395598943226,-0.06792971392005724]","[-1,-1,-1]","[-0.05106494761792825,0.15695897726615074]","[-1,-1,-1]","[-0.12862301427435427,0.12409178038813078]","[1,1,1]","[-0.08332830262358051,-0.03989597224432249]","[-1,-1,-1]","[0.0033858868568192855,-0.18575915528744547]","[1,1,1]","[0.16614240636055783,0.09061443829244367]","[1,1,1]","[0.02751626443736236,0.11724058545084866]","[-1,-1,-1]","[-0.10512443135758712,0.02496075610715525]","[1,1,1]","[-0.12037459896002939,-0.018139486783883937]","[-1,-1,-1]","[0.17011499088008789,0.03580930980212864]","[-1,-1,-1]","[-0.17186909880179557,-0.04326977530592272]","[-1,-1,-1]","[0.18929970229737453,-0.01842197111635561]","[1,1,1]","[0.12341686298442556,0.0306819343619365]","[-1,-1,-1]","[-0.012893670737431936,-0.13448188404543476]","[1,1,1]","[-0.09926032876026822,-0.15516992009862177]","[-1,-1,-1]","[-0.07987199371691403,0.05812666056206399]","[1,1,1]","[0.045765740905230196,0.03664023651365308]","[1,1,1]","[0.02,0.02]",153.9362,0,19,19,103,1,,,,,,,
,,,,,,,67ab1e1f5b205c29bc9f1c64,682f0fb7ee085ef72bd8dd4d,2025-05-22_14h11.39.785,cuing_paradigm_dot,2024.1.5,Win32,60.24096386,682d573fa47f1360d1451895,,,,,,,,,,,153.937,154.4264,,,154.6695,154.7262,left,0.0262,,,,,,,,,0.4,,,,,,154.4264,154.6695,154.7262,"[-0.05474070346128683,-0.17825786061604706]","[1,1,1]","[-0.15687404352551637,-0.11730084059838819]","[-1,-1,-1]","[0.04256692018871215,-0.051572002370149445]","[1,1,1]","[0.06472276138057519,-0.1243028511974382]","[-1,-1,-1]","[-0.0035116495058230292,-0.021165348619180995]","[1,1,1]","[-0.019173392125006513,0.15213108801461467]","[-1,-1,-1]","[-0.1857160552417428,-0.06172067623732715]","[-1,-1,-1]","[0.1357245996800891,-0.07555104861004239]","[-1,-1,-1]","[-0.031303303020325315,0.06157442188523187]","[1,1,1]","[0.0716680919687726,0.04866272107670346]","[-1,-1,-1]","[0.15438701280410266,-0.02801317538725875]","[1,1,1]","[-0.034944817948439254,-0.07721084531614592]","[-1,-1,-1]","[-0.143826192629348,-0.07843003954790835]","[-1,-1,-1]","[-0.11595535355084498,0.09437656238846388]","[1,1,1]","[-0.09382341304968489,-0.1577083642607737]","[-1,-1,-1]","[0.07887274538767095,-0.007456605196846707]","[-1,-1,-1]","[-0.016693847718512463,-0.12575847747247412]","[1,1,1]","[-0.1633168886315087,0.0072731848133864305]","[1,1,1]","[0.07524568217406749,0.13750882254201904]","[-1,-1,-1]","[-0.1600671206444525,0.10560054714880364]","[1,1,1]","[-0.10381689922993989,0.1638229740562685]","[-1,-1,-1]","[0.023259024666831326,-0.1415984837296607]","[1,1,1]","[0.10616040529905325,-0.13184628148295352]","[-1,-1,-1]","[0.032918068993981406,0.03331804200831416]","[-1,-1,-1]","[-0.11384979977540512,-0.011029938111519477]","[-1,-1,-1]","[-0.10491978051303999,-0.06000716339519386]","[-1,-1,-1]","[0.11586101522814993,0.1300971381097115]","[1,1,1]","[0.0977055664725682,0.08605359705454063]","[-1,-1,-1]","[-0.11673801521383796,0.03993380642888463]","[1,1,1]","[-0.18428296930671403,0.049070214398469765]","[-1,-1,-1]","[0.12816704449282695,0.03135936533829458]","[1,1,1]","[-0.05923582974687901,0.16725627128533935]","[-1,-1,-1]","[0.02,0.02]",155.8274,0,20,20,57,1,,,,,,,
,,,,,,,67ab1e1f5b205c29bc9f1c64,682f0fb7ee085ef72bd8dd4d,2025-05-22_14h11.39.785,cuing_paradigm_dot,2024.1.5,Win32,60.24096386,682d573fa47f1360d1451895,,,,,,,,,,,155.8279,156.319,,,156.5667,157.017,right,0.4347,,,,,,,,,0.55,,,,,,156.319,156.5666,157.017,"[-0.1491675080908697,-0.10680713496263589]","[1,1,1]","[0.047205540952842184,0.17930812371572738]","[1,1,1]","[0.006487811096412054,0.019579487686692758]","[-1,-1,-1]","[0.11755597516823792,-0.0475031948647695]","[-1,-1,-1]","[0.003925994679081961,-0.03458300939809085]","[1,1,1]","[-0.09056829544995086,-0.07707179850439838]","[1,1,1]","[-0.044995757663265336,0.14822390254444937]","[-1,-1,-1]","[0.17208811744720284,0.025753029177086616]","[1,1,1]","[0.08402843543022569,-0.11476458278017518]","[1,1,1]","[-0.12278265819904839,0.0702233975247468]","[1,1,1]","[0.018603698390645195,-0.19515230485626037]","[1,1,1]","[0.11698342451806039,-0.14895559465114175]","[1,1,1]","[-0.06758170423029414,-0.03359090602894483]","[-1,-1,-1]","[0.03694338298841702,-0.1268050650704754]","[1,1,1]","[-0.09856172722982724,0.15362346328664167]","[-1,-1,-1]","[0.1870555980136282,0.06805615211111575]","[1,1,1]","[-0.04778792827965277,0.08352847609963467]","[-1,-1,-1]","[0.04623188468597015,-0.03786230970699027]","[-1,-1,-1]","[0.07350747089944208,0.07929014213876784]","[1,1,1]","[0.0355450321766647,0.10239831765602005]","[1,1,1]","[-0.18119706114734807,0.024577099371060306]","[-1,-1,-1]","[0.1291146887874644,-0.08887170957770564]","[-1,-1,-1]","[-0.08033887095745182,-0.17200405717170428]","[-1,-1,-1]","[-0.17183250607243003,0.07252208453602814]","[1,1,1]","[0.01017932449286768,0.14437230309697777]","[-1,-1,-1]","[0.054783532832392096,0.019323478087598184]","[1,1,1]","[0.12372628128643512,0.12047582021715113]","[-1,-1,-1]","[-0.15564298990378442,0.12367891497383646]","[1,1,1]","[0.10154708154088986,0.029116192793594592]","[1,1,1]","[-0.14560192318006715,-0.033459816680351584]","[-1,-1,-1]","[-0.06406451056277188,-0.13426466978364723]","[1,1,1]","[-0.047535332977592534,0.017926570295125895]","[-1,-1,-1]","[0.02,0.02]",158.1079,0,21,21,137,1,,,,,,,
,,,,,,,67ab1e1f5b205c29bc9f1c64,682f0fb7ee085ef72bd8dd4d,2025-05-22_14h11.39.785,cuing_paradigm_dot,2024.1.5,Win32,60.24096386,682d573fa47f1360d1451895,,,,,,,,,,,158.1088,158.6012,,,158.8519,159.2252,left,0.358,,,,,,,,,0.9,,,,,,158.6013,158.8519,159.2252,"[0.0929565010628403,-0.06076391861797609]","[1,1,1]","[-0.1368378115330493,-0.11485884129266383]","[1,1,1]","[0.1043501039978719,0.05360998681472156]","[1,1,1]","[-0.057064382361569584,0.1338384164966842]","[1,1,1]","[-0.08291990908704781,0.08610530417578294]","[1,1,1]","[0.11603332048562594,-0.10164501017676969]","[1,1,1]","[-0.16469529560686352,0.0019730762409924363]","[1,1,1]","[-0.0006116893393283455,0.16634517579839203]","[-1,-1,-1]","[0.1859447529142896,0.03171295827310498]","[1,1,1]","[0.13483959849888832,-0.006548463404118445]","[1,1,1]","[0.05496411509553733,0.15605151293472072]","[1,1,1]","[0.13498228275608484,0.0842232608651577]","[1,1,1]","[0.0656724237363773,-0.1708871448581066]","[-1,-1,-1]","[0.044913620231002316,0.06950980618604599]","[1,1,1]","[-0.1811838213499889,-0.05012501248252585]","[1,1,1]","[-0.08605133944623188,-0.008343822106518248]","[1,1,1]","[0.019643223513659012,-0.04866955815121529]","[1,1,1]","[-0.030871400373772014,-0.11710639356442751]","[1,1,1]","[-0.02139490897147748,-0.026478124403888924]","[1,1,1]","[0.06879090437284228,-0.010222741829860204]","[1,1,1]","[-0.12828506857593436,0.060802518520042696]","[1,1,1]","[0.0554295469021924,-0.10924575361674423]","[1,1,1]","[-0.04250707711048977,0.18467577353497103]","[1,1,1]","[0.019241215245984634,0.0012087422194743981]","[1,1,1]","[-0.07950344287998433,-0.17073018182601796]","[1,1,1]","[0.12436070370920367,0.14896505578515548]","[1,1,1]","[-0.03729268011451875,0.023823122937347667]","[1,1,1]","[-0.17042848522790888,0.101366932645943]","[1,1,1]","[-0.11560757192668751,0.12258462590612546]","[1,1,1]","[0.1026285595052701,-0.14750301005137292]","[1,1,1]","[-0.016245498449670385,0.07000068535340752]","[1,1,1]","[0.01739049248349664,-0.1484068180897312]","[-1,-1,-1]","[0.02,0.02]",160.3175,0,22,22,206,1,,,,,,,
,,,,,,,67ab1e1f5b205c29bc9f1c64,682f0fb7ee085ef72bd8dd4d,2025-05-22_14h11.39.785,cuing_paradigm_dot,2024.1.5,Win32,60.24096386,682d573fa47f1360d1451895,,,,,,,,,,,160.318,160.8173,,,161.079,161.4342,left,0.334,,,,,,,,,0.1,,,,,,160.8174,161.079,161.4342,"[0.041999300227640264,-0.17385984966274798]","[-1,-1,-1]","[-0.028922924094048456,0.01831540201428236]","[-1,-1,-1]","[-0.01233397087133203,-0.05705792236007328]","[-1,-1,-1]","[-0.038002269841907944,0.06103435883810167]","[-1,-1,-1]","[-0.18589808860354198,-0.03690856281114911]","[-1,-1,-1]","[0.1104204156810124,0.017504901299737422]","[-1,-1,-1]","[-0.05151741810867674,0.1735631018942623]","[-1,-1,-1]","[0.014976660659652854,0.18551390131998036]","[-1,-1,-1]","[-0.1778189123535442,0.014784789443198354]","[-1,-1,-1]","[-0.03671424521798147,-0.12325970885510673]","[-1,-1,-1]","[-0.13308965125431133,0.0419800720820119]","[-1,-1,-1]","[-0.1383751729665139,-0.10803561065639496]","[1,1,1]","[0.016765640711836678,0.06750742488076354]","[-1,-1,-1]","[0.1811740191637229,-0.06708272669879181]","[-1,-1,-1]","[0.15705461287029782,0.09837729145221583]","[-1,-1,-1]","[-0.09573370813759371,-0.08797952323481482]","[-1,-1,-1]","[0.10012823523784757,-0.03569124137241999]","[-1,-1,-1]","[-0.07307668926661214,0.02928581843198478]","[-1,-1,-1]","[0.1794605587005641,0.01974474096741757]","[-1,-1,-1]","[0.011029730109725262,0.1397653379938028]","[-1,-1,-1]","[0.068894620448704,0.032038499099638316]","[1,1,1]","[-0.09960129875240234,-0.13621044641965074]","[-1,-1,-1]","[-0.10472662714318293,0.1636141458864567]","[-1,-1,-1]","[-0.1028361136064686,0.09490963653180459]","[-1,-1,-1]","[0.0845245965513098,-0.13436556071879172]","[-1,-1,-1]","[-0.13170830849367912,-0.06402126966820107]","[-1,-1,-1]","[-0.036031891339006916,-0.1861468037377798]","[-1,-1,-1]","[0.07893465115529391,-0.0849819861919403]","[1,1,1]","[-0.055288658663860984,-0.03879611254793626]","[-1,-1,-1]","[0.051809050638966216,0.09812863294230866]","[-1,-1,-1]","[0.13834677321301478,0.13465632800363997]","[-1,-1,-1]","[0.0027272388016560158,-0.1455515638258073]","[-1,-1,-1]","[0.02,0.02]",162.5337,0,23,23,5,1,,,,,,,
,,,,,,,67ab1e1f5b205c29bc9f1c64,682f0fb7ee085ef72bd8dd4d,2025-05-22_14h11.39.785,cuing_paradigm_dot,2024.1.5,Win32,60.24096386,682d573fa47f1360d1451895,,,,,,,,,,,162.5344,163.0334,,,163.2808,163.6169,right,0.3258,,,,,,,,,0.4,,,,,,163.0335,163.2807,163.617,"[0.12376192246786122,-0.06933129702502062]","[-1,-1,-1]","[0.08921824903401157,0.04169459653085006]","[-1,-1,-1]","[-0.008082720721098526,-0.15815314044096443]","[-1,-1,-1]","[-0.023290583989368632,0.026887392316659105]","[-1,-1,-1]","[-0.07808843864939374,-0.03678824103995964]","[1,1,1]","[-0.06890843716225456,-0.13891420874690338]","[-1,-1,-1]","[-0.0351925226328713,-0.10423267317589933]","[1,1,1]","[-0.0462980127955416,-0.1942610150280674]","[1,1,1]","[0.1207403879739917,0.1190224625295529]","[-1,-1,-1]","[-0.16650556175577938,0.060263273987106895]","[1,1,1]","[0.03133590464902811,0.09981805177367163]","[-1,-1,-1]","[-0.12324558292341263,-0.05667266925268727]","[1,1,1]","[-0.05099610071080662,0.14527388299092525]","[1,1,1]","[0.015323287814452566,0.042462157060457396]","[1,1,1]","[0.06755058101466883,-0.13757767371237226]","[-1,-1,-1]","[-0.13196557300459041,-0.12153357343988178]","[1,1,1]","[-0.19108745733391544,0.01938243774036483]","[1,1,1]","[0.1706334683078975,-0.05550340968909892]","[-1,-1,-1]","[0.18109156157705106,0.0028647887544948976]","[1,1,1]","[-0.06133565184292407,0.06940419199182966]","[1,1,1]","[0.06042534499084291,0.16571266956787672]","[1,1,1]","[0.006628596686282425,-0.034010346840142425]","[-1,-1,-1]","[0.05306358669442616,-0.0390431624334553]","[1,1,1]","[-0.13916582442177916,0.013746451881782678]","[-1,-1,-1]","[-0.08334737386174358,0.10651391826655232]","[-1,-1,-1]","[0.02176028935791334,-0.09170390379940203]","[-1,-1,-1]","[0.017030301811466655,0.13979034568237145]","[-1,-1,-1]","[0.08508357965007864,0.08367760805643845]","[-1,-1,-1]","[-0.17811388272469508,-0.0855137586320646]","[-1,-1,-1]","[0.12338789717646503,-0.15101637126204176]","[-1,-1,-1]","[-0.1074441096052106,0.16313220651466262]","[-1,-1,-1]","[-0.02049813459522338,0.0673973176390266]","[-1,-1,-1]","[0.02,0.02]",164.7163,0,24,24,33,1,,,,,,,
,,,,,,,67ab1e1f5b205c29bc9f1c64,682f0fb7ee085ef72bd8dd4d,2025-05-22_14h11.39.785,cuing_paradigm_dot,2024.1.5,Win32,60.24096386,682d573fa47f1360d1451895,,,,,,,,,,,164.7169,165.2173,,,165.464,165.7319,left,0.2508,,,,,,,,,0.6,,,,,,165.2173,165.4639,165.7319,"[-0.03561223572790125,-0.0408284530252305]","[1,1,1]","[0.007532917282501519,0.06642141436034987]","[-1,-1,-1]","[0.11977283726570337,0.10603731498589221]","[1,1,1]","[-0.12524556105502022,-0.1236646011232279]","[1,1,1]","[-0.10304165077459407,-0.04650282255026649]","[-1,-1,-1]","[-0.030617710722939052,0.15802602022450385]","[1,1,1]","[-0.12736637744514925,0.03639473602665598]","[-1,-1,-1]","[0.1531849227351812,0.07416980458179331]","[1,1,1]","[0.010214275329681126,-0.1055872950970624]","[1,1,1]","[0.04987343059178058,-0.03179924259120518]","[-1,-1,-1]","[-0.11353469346178509,0.1280279344337445]","[-1,-1,-1]","[0.1281749975410471,-0.03933409109182875]","[1,1,1]","[0.0356656911556675,0.17838788124059238]","[-1,-1,-1]","[0.09305903492896944,-0.05882029730694972]","[1,1,1]","[0.16493643622166002,-0.10160839670553347]","[1,1,1]","[-0.05234441911834755,0.0718775700155716]","[1,1,1]","[0.059813857946577315,-0.1605843270231831]","[1,1,1]","[-0.059183720502121985,0.006685215831197481]","[1,1,1]","[-0.07978976812724385,-0.14956309773602428]","[-1,-1,-1]","[-0.07603505364157614,0.14631663790251492]","[-1,-1,-1]","[-0.14453400620634674,-0.06852278496060502]","[1,1,1]","[-0.02111207951333121,-0.13194099435540232]","[1,1,1]","[0.11732671703624988,0.14953106953037407]","[1,1,1]","[0.00040015355887027817,-0.17897802283201147]","[1,1,1]","[0.027770184782041577,0.10792695099744551]","[1,1,1]","[0.09610309280878984,-0.13320802944049412]","[-1,-1,-1]","[-0.18125013751168706,0.040953918951834395]","[1,1,1]","[0.1464680568766127,0.02438601116036587]","[1,1,1]","[-0.06053946718567306,-0.0885779913391115]","[-1,-1,-1]","[0.06509874254997429,0.02499445241049444]","[-1,-1,-1]","[-0.19396319289207334,-0.023416107289786724]","[-1,-1,-1]","[0.17486752932162875,-0.06268732733059092]","[-1,-1,-1]","[0.02,0.02]",166.8344,0,25,25,166,1,,,,,,,
,,,,,,,67ab1e1f5b205c29bc9f1c64,682f0fb7ee085ef72bd8dd4d,2025-05-22_14h11.39.785,cuing_paradigm_dot,2024.1.5,Win32,60.24096386,682d573fa47f1360d1451895,,,,,,,,,,,166.8352,167.3344,,,167.5778,168.0638,right,0.4671,,,,,,,,,0.1,,,,,,167.3344,167.5777,168.0638,"[-0.16033263810211285,-0.11274253154503003]","[-1,-1,-1]","[-0.05781113691174178,-0.13956743869224525]","[-1,-1,-1]","[0.14658701924119408,-0.03997476074618]","[-1,-1,-1]","[0.18614174423573154,0.06242137724177509]","[-1,-1,-1]","[-0.05939806118475617,0.03960695010730628]","[-1,-1,-1]","[0.055891366215934636,0.0027252833685100708]","[-1,-1,-1]","[0.046592811216505374,0.18808243756142226]","[1,1,1]","[0.1212639446461938,-0.1589192609606111]","[-1,-1,-1]","[0.10429842501348008,0.12279574886489439]","[-1,-1,-1]","[0.12656765176870832,0.0014530128025018875]","[-1,-1,-1]","[-0.07517850701501844,0.15198903333050667]","[-1,-1,-1]","[-0.06062321707827955,-0.08866753773222127]","[-1,-1,-1]","[-0.15630632258989632,0.029857707784657364]","[-1,-1,-1]","[-0.11449085450830493,-0.1404959111536649]","[-1,-1,-1]","[0.01403696394066494,-0.0729302415589666]","[-1,-1,-1]","[-0.10502786094513573,0.06632999413252418]","[-1,-1,-1]","[-0.1431582881876908,0.11897469155703692]","[-1,-1,-1]","[-0.047036549092333714,0.10066122044662967]","[-1,-1,-1]","[0.03297901823873515,-0.19221906196183275]","[-1,-1,-1]","[0.018129963702957004,0.11526591223175929]","[-1,-1,-1]","[0.08162885776313183,0.08537822576749882]","[1,1,1]","[0.018470276354937094,0.046201258048509615]","[-1,-1,-1]","[0.07646077932526066,-0.09331003786577154]","[1,1,1]","[-0.025900565964951588,0.005617870915602234]","[-1,-1,-1]","[-0.021220518378267366,0.1462575561160141]","[-1,-1,-1]","[0.05375675984800008,-0.0567905806810777]","[-1,-1,-1]","[0.010629322983343806,-0.023445518988631182]","[-1,-1,-1]","[-0.010838051170812707,-0.1536714301906305]","[-1,-1,-1]","[0.0981641391153898,-0.039362293606476265]","[-1,-1,-1]","[0.034763034992985144,-0.13357850051950965]","[-1,-1,-1]","[-0.10032667742504355,-0.09977094190018909]","[-1,-1,-1]","[-0.09003715527138177,-0.019721715136255168]","[-1,-1,-1]","[0.02,0.02]",169.1734,0,26,26,19,1,,,,,,,
,,,,,,,67ab1e1f5b205c29bc9f1c64,682f0fb7ee085ef72bd8dd4d,2025-05-22_14h11.39.785,cuing_paradigm_dot,2024.1.5,Win32,60.24096386,682d573fa47f1360d1451895,,,,,,,,,,,169.1742,169.6798,,,169.9165,170.5471,right,0.6151,,,,,,,,,0.1,,,,,,169.6798,169.9165,170.5472,"[-0.07526943591110054,-0.07772777997923724]","[1,1,1]","[-0.120377580760724,0.0164207269054193]","[-1,-1,-1]","[0.08729671527208599,0.16854804883442698]","[-1,-1,-1]","[0.09006031214911969,-0.05946158719418164]","[-1,-1,-1]","[-0.16196660903651433,-0.009511322575262809]","[-1,-1,-1]","[0.18706819421835288,0.026194119821721325]","[-1,-1,-1]","[0.0414575495032649,-0.07237706285131239]","[-1,-1,-1]","[0.16175187367559712,-0.0066712036912327495]","[-1,-1,-1]","[0.054589959502321594,0.09574550214504779]","[-1,-1,-1]","[0.05745512728713219,-0.11497160275358115]","[-1,-1,-1]","[0.022173475755979395,0.05423437556609312]","[-1,-1,-1]","[-0.11598668164706008,0.06489695205278344]","[-1,-1,-1]","[0.1028662756048566,-0.1107863414139449]","[-1,-1,-1]","[-0.07604596888146717,0.12258493107575966]","[-1,-1,-1]","[0.0017893333237276891,-0.18783066408883106]","[-1,-1,-1]","[0.02090218034950529,0.14983146692549884]","[-1,-1,-1]","[-0.1334637223893386,0.13479030898054825]","[-1,-1,-1]","[0.06076862327348381,-0.0012314497325276322]","[-1,-1,-1]","[-0.18685337743628633,0.04718254846872834]","[-1,-1,-1]","[-0.007675840785855064,-0.0822183099035612]","[-1,-1,-1]","[0.006216600536107718,0.09303645786152773]","[1,1,1]","[-0.12324939764397144,-0.12720825933490093]","[-1,-1,-1]","[-0.06685067166949882,-0.14707374798617745]","[1,1,1]","[0.025346497305706428,-0.15318233017730834]","[-1,-1,-1]","[-0.027875836194443223,0.15222722310467493]","[-1,-1,-1]","[0.0909326351376604,0.12421013103268787]","[-1,-1,-1]","[0.14607343428647676,0.08858590099687995]","[-1,-1,-1]","[-0.0365337543007483,0.06629981653484092]","[-1,-1,-1]","[-0.010915967956931796,-0.010411302291925559]","[-1,-1,-1]","[-0.02778441164368872,-0.13365191361601927]","[-1,-1,-1]","[-0.16209086876138257,0.07861828021126825]","[-1,-1,-1]","[-0.0200993774845622,0.1920073956797763]","[-1,-1,-1]","[0.02,0.02]",171.6468,0,27,27,26,1,,,,,,,
,,,,,,,67ab1e1f5b205c29bc9f1c64,682f0fb7ee085ef72bd8dd4d,2025-05-22_14h11.39.785,cuing_paradigm_dot,2024.1.5,Win32,60.24096386,682d573fa47f1360d1451895,,,,,,,,,,,171.6475,172.1487,,,172.3971,173.1121,left,0.6833,,,,,,,,,0.55,,,,,,172.1487,172.3971,173.1122,"[0.07690495728131597,-0.14543282071719768]","[-1,-1,-1]","[-0.001952063128698471,-0.12646682260112127]","[1,1,1]","[-0.015261588489377458,0.1530524297995181]","[1,1,1]","[-0.13758917244111576,0.12314088446527365]","[1,1,1]","[0.09125765413588899,0.16093754013299516]","[1,1,1]","[0.03666653775506966,0.11167948018927586]","[1,1,1]","[-0.08162892197644538,0.08897505163156297]","[1,1,1]","[0.030182578726541946,0.01034902413081034]","[1,1,1]","[-0.0690755034632637,-0.15905425631506911]","[-1,-1,-1]","[-0.0976212002064282,-0.12265699503696531]","[1,1,1]","[0.06360215811842344,0.06995404432723291]","[-1,-1,-1]","[-0.06829966008161444,0.03647559916250394]","[-1,-1,-1]","[0.12727879770430955,-0.1501991559925802]","[1,1,1]","[0.16711733446534804,0.04514797616809195]","[-1,-1,-1]","[0.008269095868244189,-0.1867955540690756]","[-1,-1,-1]","[-0.1731722005375696,0.0522255612684283]","[-1,-1,-1]","[-0.10097881588324045,-0.036672389782912936]","[1,1,1]","[0.163517158549839,-0.08815961335007112]","[-1,-1,-1]","[0.13426387177487692,-0.010630851877414645]","[1,1,1]","[0.12101667401776905,-0.07165435214111646]","[1,1,1]","[-0.06218915875447483,0.16190637110148284]","[1,1,1]","[-0.006188071646778163,-0.013918002174189164]","[1,1,1]","[-0.13615366433313256,0.0753014075769402]","[-1,-1,-1]","[-0.025813087538060324,-0.08304129199424878]","[-1,-1,-1]","[-0.0162888807520573,0.060703631663843044]","[-1,-1,-1]","[0.12667908582037365,0.04936783926011196]","[1,1,1]","[-0.1446380433823941,0.00509873273404246]","[-1,-1,-1]","[0.14555154678053173,0.1127383814251003]","[-1,-1,-1]","[0.08669051645056619,0.03680535352763747]","[1,1,1]","[0.021130399288266544,-0.09292286005845793]","[-1,-1,-1]","[0.03316714234744931,0.1581707566664369]","[1,1,1]","[0.07569704398147574,-0.03197103136982682]","[1,1,1]","[0.02,0.02]",174.2118,0,28,28,124,1,,,,,,,
,,,,,,,67ab1e1f5b205c29bc9f1c64,682f0fb7ee085ef72bd8dd4d,2025-05-22_14h11.39.785,cuing_paradigm_dot,2024.1.5,Win32,60.24096386,682d573fa47f1360d1451895,,,,,,,,,,,174.2124,174.7111,,,174.9515,175.7615,left,0.7833,,,,,,,,,0.5,,,,,,174.7112,174.9515,175.7616,"[-0.01136954021403512,-0.052628441383289544]","[-1,-1,-1]","[-0.08651960310111594,-0.1431383178134629]","[1,1,1]","[-0.15523245016151077,0.12069188400835053]","[1,1,1]","[-0.012243569386143835,-0.1595472988547718]","[-1,-1,-1]","[0.07853800587572482,0.12578101169299383]","[-1,-1,-1]","[0.14263452469108245,0.028003742931394508]","[1,1,1]","[0.07306925093350292,-0.1187555678510586]","[1,1,1]","[-0.1521012431387941,0.02926815503508753]","[1,1,1]","[-0.10694819135821095,-0.0031975401940956484]","[-1,-1,-1]","[0.028743204071534106,0.08278111835122264]","[1,1,1]","[-0.05989728600374539,0.13403853927735063]","[1,1,1]","[-0.04530651295033094,0.17779449897672803]","[-1,-1,-1]","[0.09152678777991152,-0.01339534439597762]","[-1,-1,-1]","[0.18951593340905928,0.03984899362646742]","[1,1,1]","[-0.03143910506356325,-0.11524710891556673]","[1,1,1]","[0.076024715883661,0.16785430886652256]","[-1,-1,-1]","[0.03567474297487677,-0.1429632403827169]","[-1,-1,-1]","[-0.18582589994985813,-0.06379971597218553]","[1,1,1]","[-0.027173437352103025,0.021970047343543363]","[-1,-1,-1]","[0.1392132040284228,0.0705141046551763]","[-1,-1,-1]","[-0.16144116594802516,0.08056307032194895]","[1,1,1]","[0.044683932763752224,0.03215766199238353]","[1,1,1]","[-0.10674102516619922,0.1345114945144216]","[1,1,1]","[0.16407785219646914,-0.04292788484504216]","[-1,-1,-1]","[-0.12459251884286292,-0.04488965641160017]","[-1,-1,-1]","[-0.08034626040560651,0.09768275917171226]","[1,1,1]","[-0.14109636565099784,-0.09558976794441641]","[-1,-1,-1]","[0.09200995222502474,0.04783625842935589]","[-1,-1,-1]","[0.0036309781392243525,0.11586520344501645]","[-1,-1,-1]","[0.1432814897989451,-0.07834236636500566]","[1,1,1]","[-0.0808527438526084,-0.050638369951156864]","[1,1,1]","[-0.12102546775288724,0.08309753483783618]","[-1,-1,-1]","[0.02,0.02]",176.8636,0,29,29,111,1,,,,,,,
,,,,,,,67ab1e1f5b205c29bc9f1c64,682f0fb7ee085ef72bd8dd4d,2025-05-22_14h11.39.785,cuing_paradigm_dot,2024.1.5,Win32,60.24096386,682d573fa47f1360d1451895,,,,,,,,,,,176.8644,177.3609,,,177.6112,178.1948,right,0.5669,,,,,,,,,0.4,,,,,,177.3609,177.6111,178.1949,"[0.013599549125232443,0.058780664669692645]","[-1,-1,-1]","[0.17410995021665585,0.007047065454023576]","[-1,-1,-1]","[-0.04225651227104912,-0.14967441504764006]","[1,1,1]","[-0.05918371602151338,-0.014707599818645547]","[-1,-1,-1]","[-0.11616321918552422,0.11316679630981476]","[1,1,1]","[-0.10880972245742904,0.0179196072444747]","[-1,-1,-1]","[0.11949047538381904,-0.07750585085076513]","[-1,-1,-1]","[0.06640996214560545,-0.16102778704888152]","[-1,-1,-1]","[0.12747628750880938,0.07262670296087767]","[1,1,1]","[-0.15365861970721173,-0.0436142399167555]","[-1,-1,-1]","[-0.06589513590043045,0.16721559198605052]","[-1,-1,-1]","[0.12344727441182761,0.13934421144257836]","[-1,-1,-1]","[-0.1312264466984792,-0.1378412450124693]","[-1,-1,-1]","[0.0451240189319366,-0.10270589112992148]","[-1,-1,-1]","[0.1788259246716339,-0.05784258491193378]","[1,1,1]","[-0.18839997556853677,0.05022503729246426]","[-1,-1,-1]","[0.07513666247857619,-0.06723935389876713]","[1,1,1]","[0.017482816665986722,-0.060161180990025064]","[1,1,1]","[0.08931559282736923,0.02974663453003919]","[-1,-1,-1]","[-0.03207621795784296,0.1120496074040672]","[1,1,1]","[-0.05714731399566551,-0.06361590964668447]","[-1,-1,-1]","[0.16267012645641807,-0.11005294011302293]","[1,1,1]","[-0.10880456674010022,-0.053276644438051024]","[1,1,1]","[0.015356670647690052,0.17115849144522366]","[-1,-1,-1]","[0.0820413177156273,0.07666680287595219]","[-1,-1,-1]","[-0.1611251466891802,0.08279112583499856]","[1,1,1]","[-0.06096510035285077,0.04121597768434326]","[-1,-1,-1]","[0.03556635716045434,0.005648784629619621]","[-1,-1,-1]","[-0.029752407282603206,0.19398066851407797]","[1,1,1]","[-0.08540378424284742,0.07362001566701042]","[1,1,1]","[-0.11041134894714565,0.1596716213434418]","[-1,-1,-1]","[0.05204939924732402,0.1532858251330023]","[1,1,1]","[0.02,0.02]",179.2963,0,30,30,52,1,,,,,,,
,,,,,,,67ab1e1f5b205c29bc9f1c64,682f0fb7ee085ef72bd8dd4d,2025-05-22_14h11.39.785,cuing_paradigm_dot,2024.1.5,Win32,60.24096386,682d573fa47f1360d1451895,,,,,,,,,,,179.297,179.7962,,,180.0446,180.7628,left,0.7007,,,,,,,,,0.6,,,,,,179.7963,180.0445,180.7628,"[0.048676711059181206,0.08162727439506554]","[1,1,1]","[-0.12293139438429508,-0.04188892992998735]","[1,1,1]","[0.014126380347837733,-0.15514032555276874]","[-1,-1,-1]","[0.1200544037223624,-0.08279634963601946]","[1,1,1]","[-0.005522595812591605,-0.05339227072012124]","[1,1,1]","[-0.11381587319227446,0.07797684928901381]","[-1,-1,-1]","[0.05993376720414391,0.12982056511844986]","[-1,-1,-1]","[0.11625354730509906,0.08187481870646132]","[-1,-1,-1]","[-0.08850776891919356,0.11631424717938235]","[1,1,1]","[0.1843092171073285,0.07517496785320243]","[-1,-1,-1]","[0.05777162055125929,-0.013947897496378725]","[1,1,1]","[-0.023378733281893334,-0.11315774516925792]","[1,1,1]","[0.027001641865953784,0.034873833158618237]","[1,1,1]","[-0.03289705631923674,0.1451526569710035]","[-1,-1,-1]","[-0.04445208912938425,-0.002094512274615606]","[-1,-1,-1]","[-0.06790125688882308,-0.16922307282739832]","[1,1,1]","[-0.19468025037417838,0.0076671121635295235]","[-1,-1,-1]","[-0.14827168210493918,-0.12391770660361814]","[-1,-1,-1]","[0.03907196494086238,0.1659580174935534]","[-1,-1,-1]","[0.11879960256416772,0.13476006953611377]","[1,1,1]","[-0.1535309604729888,-0.011189324064531927]","[-1,-1,-1]","[0.1165127750413574,-0.15120932835881576]","[1,1,1]","[-0.14445959860161192,0.13375102231653657]","[1,1,1]","[-0.05297230898073526,-0.06281295811804796]","[1,1,1]","[0.1878766680768688,-0.059001401841577414]","[-1,-1,-1]","[-0.14700777109952448,-0.07900305582509297]","[1,1,1]","[0.07476376172439195,-0.07385547558335792]","[1,1,1]","[-0.09626288603772397,0.009783833812103888]","[1,1,1]","[0.09775794281737145,0.017178499052138307]","[1,1,1]","[-0.0175171072608517,-0.18913790649058232]","[-1,-1,-1]","[0.001510683664757443,0.1177548250985245]","[1,1,1]","[0.14686065275207164,0.04989724953569793]","[1,1,1]","[0.02,0.02]",181.8622,0,31,31,163,1,,,,,,,
,,,,,,,67ab1e1f5b205c29bc9f1c64,682f0fb7ee085ef72bd8dd4d,2025-05-22_14h11.39.785,cuing_paradigm_dot,2024.1.5,Win32,60.24096386,682d573fa47f1360d1451895,,,,,,,,,,,181.8626,182.3622,,,182.607,183.1455,right,0.5172,,,,,,,,,0.5,,,,,,182.3622,182.607,183.1455,"[0.04455020724893187,-0.04255360316345035]","[1,1,1]","[-0.0919010564980038,-0.16141700241077772]","[1,1,1]","[0.10785005969566887,-0.1573263082793967]","[1,1,1]","[0.1569006603930259,0.045948959474895246]","[-1,-1,-1]","[-0.016889811157908965,0.14273665445910946]","[-1,-1,-1]","[-0.010186019253289954,0.021760999326057164]","[-1,-1,-1]","[-0.04709626954435513,0.05510771902582497]","[-1,-1,-1]","[-0.08047046464974213,-0.03879900352480624]","[1,1,1]","[-0.06989073802564306,0.15372965879987643]","[-1,-1,-1]","[0.10636424830499845,-0.014638917257535279]","[-1,-1,-1]","[-0.15901710850614081,0.018800680131272073]","[1,1,1]","[0.11334245799856267,0.02761579358658904]","[1,1,1]","[-0.10694090182607194,0.03533390669235976]","[1,1,1]","[-0.006390539653629211,-0.1717982467853077]","[-1,-1,-1]","[-0.015740047026027472,0.19780600420588662]","[1,1,1]","[0.12215733203415827,0.1067353121391279]","[1,1,1]","[0.009707336450745898,-0.07430508106364006]","[-1,-1,-1]","[-0.029450011657331396,-0.04014204268589811]","[-1,-1,-1]","[-0.011155368843721394,0.08135129446111526]","[-1,-1,-1]","[0.03350820911863439,0.011831970944920736]","[1,1,1]","[0.17932752983744274,-0.06294460987762625]","[-1,-1,-1]","[0.12068218279520476,-0.0961932490504171]","[-1,-1,-1]","[-0.13096757441509904,-0.09002893971125563]","[-1,-1,-1]","[0.04913253570594786,0.10888133691566985]","[1,1,1]","[-0.1189073597283894,-0.13036853685938601]","[1,1,1]","[-0.05761791904023178,-0.11165781208242043]","[-1,-1,-1]","[-0.09054146084358969,0.09956703153871191]","[1,1,1]","[-0.05008824265531794,0.004411067688992703]","[1,1,1]","[0.16822517759028988,-0.10472805017665945]","[1,1,1]","[0.08369038212734572,0.07416155905239787]","[-1,-1,-1]","[0.08231222567755182,-0.12408171783685717]","[1,1,1]","[0.05593332290123391,0.1585621290294079]","[-1,-1,-1]","[0.02,0.02]",184.2449,0,32,32,96,1,,,,,,,
,,,,,,,67ab1e1f5b205c29bc9f1c64,682f0fb7ee085ef72bd8dd4d,2025-05-22_14h11.39.785,cuing_paradigm_dot,2024.1.5,Win32,60.24096386,682d573fa47f1360d1451895,,,,,,,,,,,184.2454,184.7449,,,184.9841,185.6617,left,0.6506,,,,,,,,,0.6,,,,,,184.7449,184.9841,185.6617,"[0.06973755164303468,0.17242039800228376]","[1,1,1]","[-0.06645667889720355,0.15563626465660238]","[1,1,1]","[0.18100583057786496,0.03396057903176742]","[1,1,1]","[0.03802001311720284,-0.1886954711713173]","[-1,-1,-1]","[-0.05899846477312067,-0.13259942445281178]","[-1,-1,-1]","[0.0027382607644868663,0.12040207730162199]","[1,1,1]","[0.0913708967030898,-0.10475164077435076]","[1,1,1]","[0.13050200492832692,0.14798814029874102]","[1,1,1]","[-0.17331613952404207,0.04713952053964919]","[-1,-1,-1]","[0.12258710399667884,0.03156466429632698]","[-1,-1,-1]","[-0.03373007307621235,-0.03796525647493712]","[1,1,1]","[0.0736319797083787,0.12782397292353112]","[1,1,1]","[0.06756281841224873,0.062478035172363965]","[1,1,1]","[-0.13108665350176166,0.031578760200085904]","[1,1,1]","[-0.10882545810603961,0.12215976551242615]","[-1,-1,-1]","[0.1423236484509714,-0.08881662220237804]","[1,1,1]","[-0.02249184768288076,0.057375655952858505]","[-1,-1,-1]","[-0.1354551842572003,-0.08697549483423654]","[1,1,1]","[0.15464386832037258,-0.04352731370854392]","[1,1,1]","[-0.05754056447244141,0.013859749726246226]","[1,1,1]","[0.15874635739644402,0.07804177929914204]","[1,1,1]","[0.027294916149868283,0.06783889453509319]","[1,1,1]","[-0.09406592736514846,-0.0921471522444634]","[-1,-1,-1]","[-0.08930647962924643,-0.05240721729532207]","[1,1,1]","[0.1033095271141332,-0.1581090417696461]","[-1,-1,-1]","[0.013066019741326521,-0.13872611775432492]","[1,1,1]","[0.19618867365533532,-0.020358501459743394]","[-1,-1,-1]","[0.11292344104161654,-0.06008259814904698]","[-1,-1,-1]","[-0.07381886616044428,-0.18217085217160106]","[-1,-1,-1]","[-0.09966077589018209,0.0766549922257009]","[1,1,1]","[0.07399864018051705,-0.04112058445892272]","[-1,-1,-1]","[-0.15059493519101871,-0.02514562137544369]","[-1,-1,-1]","[0.02,0.02]",186.7626,0,33,33,171,1,,,,,,,
,,,,,,,67ab1e1f5b205c29bc9f1c64,682f0fb7ee085ef72bd8dd4d,2025-05-22_14h11.39.785,cuing_paradigm_dot,2024.1.5,Win32,60.24096386,682d573fa47f1360d1451895,,,,,,,,,,,186.7635,187.252,,,187.4916,187.9432,left,0.4341,,,,,,,,,0.6,,,,,,187.252,187.4916,187.9432,"[0.04403770960564297,0.007437790944238246]","[1,1,1]","[0.03163717487368579,-0.07178717386751893]","[1,1,1]","[-0.1623257040676163,0.06063483604341807]","[1,1,1]","[0.11806961749557615,-0.02767421245865722]","[1,1,1]","[-0.11361799827716709,-0.08804763726512052]","[1,1,1]","[0.1557266739818559,-0.06697883742732753]","[-1,-1,-1]","[0.006040046494392235,0.09609336607386339]","[-1,-1,-1]","[-0.11104923816866429,0.16079361262891828]","[1,1,1]","[-0.1982707858437649,0.0068583098081055945]","[1,1,1]","[-0.04442883962549286,-0.050186818980059375]","[1,1,1]","[-0.13364266743616593,-0.0000374688518333641]","[1,1,1]","[0.01428155327278219,-0.17961735042219532]","[1,1,1]","[0.0016213322267758668,-0.03639532006062044]","[1,1,1]","[-0.16371902797219937,-0.11285977809088402]","[-1,-1,-1]","[0.09667019557943514,0.08000297870191513]","[-1,-1,-1]","[-0.08354119291003022,-0.02411085627153073]","[1,1,1]","[0.0944980618368407,0.1259522196231804]","[-1,-1,-1]","[0.12054399946981302,0.01427328247586935]","[-1,-1,-1]","[0.0885053597216759,-0.05722215795388653]","[-1,-1,-1]","[0.1424647790552818,0.10498709165989671]","[1,1,1]","[-0.16226462364486688,-0.060414400423807454]","[1,1,1]","[-0.0032498908886331905,0.17946262359289736]","[-1,-1,-1]","[-0.038331647734590066,-0.1940404390277979]","[-1,-1,-1]","[-0.13435378234836637,-0.14699895649923742]","[1,1,1]","[0.0626572947143844,-0.17403209436242476]","[1,1,1]","[0.11882600167589366,-0.12244314213681673]","[1,1,1]","[-0.022508531796692544,-0.10929419261962918]","[-1,-1,-1]","[-0.020446396169741782,0.03035613334353054]","[1,1,1]","[0.05484462134852382,0.1621596585801526]","[-1,-1,-1]","[0.17904719050959425,-0.024384077350767468]","[-1,-1,-1]","[0.06477518644445161,-0.10286089794628821]","[-1,-1,-1]","[-0.10059933873822448,0.0882002109717651]","[1,1,1]","[0.02,0.02]",189.0355,0,34,34,150,1,,,,,,,
,,,,,,,67ab1e1f5b205c29bc9f1c64,682f0fb7ee085ef72bd8dd4d,2025-05-22_14h11.39.785,cuing_paradigm_dot,2024.1.5,Win32,60.24096386,682d573fa47f1360d1451895,,,,,,,,,,,189.0362,189.5414,,,189.791,190.4952,left,0.6868,,,,,,,,,0.5,,,,,,189.5414,189.791,190.4953,"[-0.020850822942088603,-0.03777182231332204]","[-1,-1,-1]","[-0.08242531912016514,0.062460422482659726]","[1,1,1]","[-0.07747195110491707,-0.167478733089732]","[1,1,1]","[-0.03881683673126629,0.07660324060295444]","[-1,-1,-1]","[0.018991175295312364,-0.14386143059535933]","[-1,-1,-1]","[-0.10084400130530856,-0.0852389937272573]","[-1,-1,-1]","[-0.16395657796823776,-0.03733975576196629]","[1,1,1]","[-0.03645471767575498,0.14613773055924606]","[-1,-1,-1]","[-0.07278369007559021,-0.021896998593897012]","[-1,-1,-1]","[0.12139375693048358,-0.11490560496561586]","[-1,-1,-1]","[0.08681980715518595,-0.015625082669925714]","[1,1,1]","[0.15323628845575515,0.029667833185911353]","[1,1,1]","[0.09298085155474503,0.143539354912818]","[1,1,1]","[0.02949042374360835,-0.1002628128212097]","[-1,-1,-1]","[-0.16524291266379562,0.06610590819380217]","[1,1,1]","[0.028026326760958915,0.08535385855263128]","[-1,-1,-1]","[0.11190858147410992,0.09674267064496041]","[1,1,1]","[0.030048982360198123,-0.18407018454904522]","[-1,-1,-1]","[0.05397682543779581,-0.04985322767862627]","[-1,-1,-1]","[-0.09326102965400791,0.014664296762240491]","[1,1,1]","[-0.1266114646050417,-0.013804649726003357]","[1,1,1]","[0.048533321720104716,0.1474690973826023]","[1,1,1]","[-0.12904751193421785,0.10877144742560838]","[-1,-1,-1]","[-0.02501267117061581,0.19252260477415767]","[1,1,1]","[0.16287588399144717,-0.031506661523572205]","[1,1,1]","[0.038245623078020076,0.02560797858099697]","[-1,-1,-1]","[-0.13808230198458643,-0.11598700930971986]","[-1,-1,-1]","[0.15364080391058474,0.08841917554716858]","[1,1,1]","[0.19332758843748535,0.04725111473552602]","[-1,-1,-1]","[0.10183280896612971,0.04691921204274086]","[-1,-1,-1]","[-0.033995640513601245,-0.1276902329727306]","[1,1,1]","[-0.00335432741030516,0.012335118139428657]","[1,1,1]","[0.02,0.02]",191.5796,0,35,35,92,1,,,,,,,
,,,,,,,67ab1e1f5b205c29bc9f1c64,682f0fb7ee085ef72bd8dd4d,2025-05-22_14h11.39.785,cuing_paradigm_dot,2024.1.5,Win32,60.24096386,682d573fa47f1360d1451895,,,,,,,,,,,191.5802,192.084,,,192.3237,192.5498,left,0.2087,,,,,,,,,0.55,,,,,,192.084,192.3236,192.5498,"[-0.09509263536688208,-0.05750211594534317]","[1,1,1]","[-0.07695328321468342,0.022263572373544756]","[1,1,1]","[0.06112887554724956,-0.03983599671229135]","[1,1,1]","[-0.14729705694169862,-0.08673001477861393]","[1,1,1]","[0.02137608399633191,0.06407100600194256]","[1,1,1]","[0.0995649852404195,0.04795257684078038]","[-1,-1,-1]","[-0.015566911111351774,-0.12404766837078608]","[1,1,1]","[-0.09458036100957368,-0.16288394348813434]","[1,1,1]","[-0.15944773039708773,0.11807280663565047]","[1,1,1]","[0.17185108725645243,-0.052181576443052324]","[-1,-1,-1]","[-0.007455456448449031,0.14408569856094391]","[-1,-1,-1]","[0.10662837647665811,-0.116346390851197]","[1,1,1]","[-0.14042826925169233,-0.04566545145197134]","[-1,-1,-1]","[-0.12778989636819843,0.07395880891553817]","[-1,-1,-1]","[-0.04463211461159929,-0.06196289863417212]","[1,1,1]","[-0.06285814694611866,0.15944320735494186]","[-1,-1,-1]","[0.037366672816030004,-0.07885316902196705]","[-1,-1,-1]","[0.0395396839038182,-0.1684294224120065]","[1,1,1]","[0.11241317146881788,-0.008982837127133438]","[-1,-1,-1]","[-0.03145901030032378,0.04882979313035578]","[-1,-1,-1]","[0.1718057637004389,0.0666187671065897]","[1,1,1]","[0.14610126996298603,0.11169425719749758]","[-1,-1,-1]","[-0.1269539438858776,0.14877439655181485]","[1,1,1]","[-0.18482883584219253,0.0009806195645947393]","[1,1,1]","[0.05017327026399107,0.16314273080138553]","[-1,-1,-1]","[-0.0971786331652412,0.10108265259992284]","[1,1,1]","[-0.0012362130576597477,0.19737528094238851]","[-1,-1,-1]","[0.030815049204831215,0.10413097596608237]","[-1,-1,-1]","[0.010502112095169758,-0.0051895932361043185]","[1,1,1]","[0.05963108016174209,-0.11430991771676655]","[1,1,1]","[-0.018740033234679532,-0.1759372247058372]","[-1,-1,-1]","[0.08422257645729464,-0.07542946468185598]","[1,1,1]","[0.02,0.02]",193.6429,0,36,36,144,1,,,,,,,
,,,,,,,67ab1e1f5b205c29bc9f1c64,682f0fb7ee085ef72bd8dd4d,2025-05-22_14h11.39.785,cuing_paradigm_dot,2024.1.5,Win32,60.24096386,682d573fa47f1360d1451895,,,,,,,,,,,193.6434,194.1427,,,194.3891,194.5928,left,0.1835,,,,,,,,,0.5,,,,,,194.1428,194.3891,194.5929,"[0.10310373140876843,0.1029102982098001]","[-1,-1,-1]","[-0.1058580510190962,0.03551316416680469]","[1,1,1]","[0.05296333595088545,-0.13853194802957988]","[-1,-1,-1]","[-0.04780107356995212,-0.041766469434377784]","[1,1,1]","[0.0981789664029965,-0.08112846128062956]","[-1,-1,-1]","[-0.01479573321877827,0.0554652266960268]","[1,1,1]","[0.049505149866996036,0.08163959982928781]","[1,1,1]","[0.16239064017765134,0.031369166252511606]","[1,1,1]","[0.044020131434131214,0.026845107574904527]","[-1,-1,-1]","[-0.06277278298703642,0.07829028630385236]","[1,1,1]","[0.15083885080562803,-0.10760673571901429]","[-1,-1,-1]","[0.11557865180079561,0.015142491219227552]","[-1,-1,-1]","[0.16810898954392808,0.08194616153184664]","[1,1,1]","[0.049461407819123795,-0.09194252442003606]","[1,1,1]","[0.01650319891093515,0.19919573874703797]","[1,1,1]","[-0.026081074550992237,-0.1355390078031516]","[-1,-1,-1]","[0.002550861720139998,-0.1658982502197873]","[-1,-1,-1]","[0.0920122254616777,-0.12416259967668292]","[-1,-1,-1]","[0.019957782180451054,-0.008718720065388359]","[1,1,1]","[-0.020416963266475845,0.18058892415358635]","[-1,-1,-1]","[-0.1889534586614947,0.0463067737710262]","[1,1,1]","[0.08666086388921611,-0.1790629845993765]","[1,1,1]","[-0.03727643881622811,0.12429927002402634]","[-1,-1,-1]","[-0.1845846626999268,0.00303424938574519]","[-1,-1,-1]","[-0.08554646362645629,-0.09788224045131672]","[-1,-1,-1]","[0.12175112277307949,-0.04564571844559773]","[1,1,1]","[-0.1928084609444779,-0.03917877577969299]","[1,1,1]","[0.04123105308311554,-0.18538673318569526]","[1,1,1]","[-0.046762769006280014,-0.17326209318727528]","[-1,-1,-1]","[-0.11463633472496546,0.14473153744867612]","[-1,-1,-1]","[0.059194276840515946,0.13467913775493937]","[1,1,1]","[0.11840039886004691,0.14491935838684306]","[-1,-1,-1]","[0.02,0.02]",195.6807,0,37,37,101,1,,,,,,,
,,,,,,,67ab1e1f5b205c29bc9f1c64,682f0fb7ee085ef72bd8dd4d,2025-05-22_14h11.39.785,cuing_paradigm_dot,2024.1.5,Win32,60.24096386,682d573fa47f1360d1451895,,,,,,,,,,,195.681,196.1758,,,196.4364,196.7922,left,0.3339,,,,,,,,,0.55,,,,,,196.1758,196.4364,196.7922,"[-0.08071014843731454,0.05912539935678284]","[1,1,1]","[0.11104295279371326,-0.0692649348323972]","[-1,-1,-1]","[0.12129008887889868,-0.14773092233422921]","[1,1,1]","[-0.10222644938969108,0.10216456582664032]","[1,1,1]","[-0.14359129747680355,-0.1382704821793345]","[1,1,1]","[0.1461504417161174,-0.0432794847753999]","[1,1,1]","[0.12980361125214882,0.019215759137112747]","[-1,-1,-1]","[0.16517871816325394,-0.08580053925881097]","[1,1,1]","[-0.027881910344012887,-0.14155317931044809]","[-1,-1,-1]","[-0.06692357895341862,-0.04546944084950266]","[1,1,1]","[0.07861937813389322,0.017905554427492996]","[1,1,1]","[-0.06675671531455234,-0.005300960946924255]","[-1,-1,-1]","[-0.15115095367496828,-0.026194592346069596]","[-1,-1,-1]","[-0.14541262889547416,0.10705247794388308]","[-1,-1,-1]","[0.004187842160209938,0.1074734619491974]","[-1,-1,-1]","[0.002452447077949544,0.01370499042664091]","[-1,-1,-1]","[0.05868412841558399,0.10338157261614421]","[1,1,1]","[0.006281568271463593,-0.09088175818902909]","[1,1,1]","[0.06040317274890649,-0.021424732274944732]","[1,1,1]","[-0.1072191150992874,0.16836862234409763]","[-1,-1,-1]","[-0.15497057114887824,-0.09743352079966756]","[-1,-1,-1]","[-0.03702368534617071,-0.19515531929136812]","[1,1,1]","[-0.11887618261061784,0.024399998427405974]","[1,1,1]","[-0.15131282395986712,0.05158106321938998]","[1,1,1]","[-0.10076305813229497,-0.09563679990817155]","[1,1,1]","[-0.0761398161078037,-0.1540272871344604]","[-1,-1,-1]","[0.17739155929058945,-0.017146096003378013]","[1,1,1]","[-0.011317566758310192,0.17232921826921113]","[-1,-1,-1]","[0.04772538599146653,-0.17653938397705252]","[-1,-1,-1]","[0.07216582616826982,0.14648982031225946]","[-1,-1,-1]","[0.0671108677812721,-0.0968142207600196]","[1,1,1]","[0.11020589719629927,0.10825398596127954]","[1,1,1]","[0.02,0.02]",197.9047,0,38,38,138,1,,,,,,,
,,,,,,,67ab1e1f5b205c29bc9f1c64,682f0fb7ee085ef72bd8dd4d,2025-05-22_14h11.39.785,cuing_paradigm_dot,2024.1.5,Win32,60.24096386,682d573fa47f1360d1451895,,,,,,,,,,,197.9055,198.3946,,,198.6423,199.1307,right,0.4739,,,,,,,,,0.4,,,,,,198.3947,198.6422,199.1308,"[0.08058986084800528,0.041196231254273456]","[-1,-1,-1]","[-0.12882294443189526,0.12436053854183847]","[1,1,1]","[0.027580545936998564,0.1679279019684176]","[-1,-1,-1]","[0.0579517552477263,-0.15094220139579678]","[-1,-1,-1]","[-0.11967991871715634,0.064849337586708]","[-1,-1,-1]","[-0.021014153986745755,-0.008338895558514439]","[1,1,1]","[-0.11225030969790634,-0.058847137238144984]","[1,1,1]","[-0.15741859489275425,-0.07437393125629813]","[1,1,1]","[-0.17492815250975263,0.04483204388473986]","[-1,-1,-1]","[-0.0027752689421092812,0.13587671709610769]","[1,1,1]","[0.16835675976051476,-0.0709030633193893]","[1,1,1]","[0.006937123330228498,-0.19527625975865007]","[1,1,1]","[0.14350988491280295,-0.10508155548177425]","[-1,-1,-1]","[0.18431901182488472,0.01943016258801926]","[-1,-1,-1]","[0.019609169459563765,0.08826605287208726]","[1,1,1]","[-0.037890594920902486,-0.10434915303613117]","[1,1,1]","[0.08756606748983692,-0.0811914978523187]","[-1,-1,-1]","[0.06005286130772114,-0.016912968298349148]","[-1,-1,-1]","[0.116771185107961,-0.017103380459871618]","[-1,-1,-1]","[-0.1975996544652504,-0.027802358786833882]","[1,1,1]","[-0.03313070500515463,-0.16666467813005204]","[-1,-1,-1]","[0.07366605888222733,0.11444911398685914]","[-1,-1,-1]","[-0.07134273181248472,0.11207812379721624]","[-1,-1,-1]","[-0.10460610400036202,-0.12581072772170995]","[-1,-1,-1]","[-0.040852219756769795,0.03250438642880339]","[-1,-1,-1]","[0.10675637449397708,0.09085355669046054]","[-1,-1,-1]","[-0.06017729630851599,0.18136227626079185]","[-1,-1,-1]","[0.18786016711536963,-0.023648278925349812]","[1,1,1]","[-0.06555022847895749,0.0009365294652109283]","[1,1,1]","[0.036823044867599575,0.039985150129865935]","[-1,-1,-1]","[0.12297754193357978,0.047140095679231414]","[1,1,1]","[-0.08566876800287426,-0.1761051885360171]","[-1,-1,-1]","[0.02,0.02]",200.2262,0,39,39,38,1,,,,,,,
,,,,,,,67ab1e1f5b205c29bc9f1c64,682f0fb7ee085ef72bd8dd4d,2025-05-22_14h11.39.785,cuing_paradigm_dot,2024.1.5,Win32,60.24096386,682d573fa47f1360d1451895,,,,,,,,,,,200.227,200.7384,,,200.9919,201.5224,right,0.5159,,,,,,,,,0.4,,,,,,200.7385,200.9918,201.5224,"[-0.09752279658752476,0.15656879110712243]","[1,1,1]","[0.0036781683244268767,-0.10544798609689109]","[-1,-1,-1]","[-0.15927606039961661,0.08759629720172682]","[-1,-1,-1]","[0.02858966185446003,-0.18026658364013234]","[1,1,1]","[-0.06865361284196504,0.06771545976606494]","[1,1,1]","[0.06301691208222197,0.09045471795161837]","[1,1,1]","[-0.02384867441241844,0.12427868789273246]","[-1,-1,-1]","[0.03261205067889436,0.028308981619148355]","[1,1,1]","[-0.17787780230772646,-0.06608498524851655]","[-1,-1,-1]","[0.09487434014387058,-0.1692576597306654]","[-1,-1,-1]","[-0.06684418436032863,-0.09613630313496314]","[1,1,1]","[-0.007065528452577954,0.06833815221478684]","[-1,-1,-1]","[0.17448552163959266,-0.03130320344354787]","[-1,-1,-1]","[-0.11942762954698995,-0.030566256383707816]","[-1,-1,-1]","[0.06869431192069198,-0.06802832006860653]","[1,1,1]","[-0.14064824139488288,0.04551432770374975]","[-1,-1,-1]","[0.12134825485196975,0.08191021996814217]","[-1,-1,-1]","[0.006753618511623298,-0.06515311671703757]","[1,1,1]","[0.1433705635354647,0.01684696517872093]","[1,1,1]","[-0.18868072554054321,0.014270848344670762]","[-1,-1,-1]","[-0.06504692685217678,-0.05167239919939158]","[-1,-1,-1]","[0.05249290158077551,-0.023784601291748527]","[-1,-1,-1]","[0.027490636601105258,0.11038794708464922]","[-1,-1,-1]","[-0.0113975168050268,-0.1762671838572575]","[-1,-1,-1]","[-0.05026571102558693,0.005142903649354452]","[1,1,1]","[0.05165852280320703,0.1726815343135826]","[1,1,1]","[-0.009698518003567707,-0.009503194747171383]","[-1,-1,-1]","[0.15493108449063245,-0.09213641861228856]","[-1,-1,-1]","[-0.15269273455768217,0.12716704015269067]","[1,1,1]","[0.1315136739214065,0.12261854395017531]","[1,1,1]","[-0.10084047809619945,-0.07225125042851971]","[-1,-1,-1]","[0.1084127103139197,-0.11701874675504093]","[-1,-1,-1]","[0.02,0.02]",202.6182,0,40,40,36,1,,,,,,,
,,,,,,,67ab1e1f5b205c29bc9f1c64,682f0fb7ee085ef72bd8dd4d,2025-05-22_14h11.39.785,cuing_paradigm_dot,2024.1.5,Win32,60.24096386,682d573fa47f1360d1451895,,,,,,,,,,,202.6187,203.1139,,,203.3529,203.791,right,0.4171,,,,,,,,,0.4,,,,,,203.114,203.3528,203.7911,"[-0.012844723951004021,0.07470288873622166]","[1,1,1]","[-0.14297540671773687,-0.08242696670552017]","[1,1,1]","[-0.014080745861242352,0.1807432024619532]","[1,1,1]","[0.06945553120464001,-0.12019647604743063]","[-1,-1,-1]","[0.008115253404152522,-0.08767239994185218]","[-1,-1,-1]","[-0.07001601774658495,0.11464596309759648]","[-1,-1,-1]","[-0.03468005573694995,-0.11446670003039434]","[1,1,1]","[0.1089848451603461,0.03381261868785957]","[1,1,1]","[0.12917740777747747,0.147906612929454]","[1,1,1]","[0.13968081867177012,0.0006167945265159798]","[-1,-1,-1]","[0.16379574599509128,0.03810179779940464]","[1,1,1]","[0.11104432301525974,-0.15549929707237647]","[1,1,1]","[0.03913216636166021,-0.1889305793066079]","[-1,-1,-1]","[-0.09469546508293365,-0.12476244415771733]","[1,1,1]","[0.02806355409328755,0.08550087430356945]","[-1,-1,-1]","[-0.08747588518789239,-0.1645698153632534]","[1,1,1]","[0.09833959230687393,0.07417539537217388]","[-1,-1,-1]","[0.022763839580897095,0.13382344478620434]","[-1,-1,-1]","[0.1544764648252471,0.09051054639252626]","[-1,-1,-1]","[-0.10757910895771662,-0.016087441428882892]","[-1,-1,-1]","[-0.03386742488336769,0.01245259277580805]","[-1,-1,-1]","[0.10246250774610921,-0.08202618046735385]","[-1,-1,-1]","[-0.1587474933413091,0.03338053745115713]","[1,1,1]","[0.009942647457483765,0.04152797580303965]","[1,1,1]","[-0.04633769647440152,-0.16939648977812094]","[-1,-1,-1]","[0.19519113948763128,-0.008231929816033106]","[-1,-1,-1]","[0.1526192932296652,-0.12923205567472013]","[-1,-1,-1]","[0.08196531216085841,-0.04294026027009046]","[-1,-1,-1]","[-0.12484419583272396,0.11018220852858933]","[-1,-1,-1]","[-0.09296117356933707,0.059260967378140544]","[-1,-1,-1]","[-0.08583409756520308,0.17480975736611135]","[1,1,1]","[-0.056016990314734005,-0.04359611840923257]","[-1,-1,-1]","[0.02,0.02]",204.8902,0,41,41,31,1,,,,,,,
,,,,,,,67ab1e1f5b205c29bc9f1c64,682f0fb7ee085ef72bd8dd4d,2025-05-22_14h11.39.785,cuing_paradigm_dot,2024.1.5,Win32,60.24096386,682d573fa47f1360d1451895,,,,,,,,,,,204.8906,205.39,,,205.6376,206.2234,left,0.5673,,,,,,,,,0.55,,,,,,205.39,205.6376,206.2235,"[0.04612846802623424,-0.13497787156972627]","[1,1,1]","[0.06753822104550497,0.12421675207124079]","[1,1,1]","[-0.016195252788875857,0.10036608163583688]","[1,1,1]","[-0.18604278612350145,0.026531474123616564]","[-1,-1,-1]","[0.12074769165066616,0.08664986318225605]","[1,1,1]","[-0.0966057483356718,-0.08186431233482515]","[-1,-1,-1]","[-0.06984915137394435,0.173185943834401]","[-1,-1,-1]","[-0.19002224034155477,-0.03082298699458984]","[-1,-1,-1]","[-0.1281843473587523,0.05276230952269698]","[-1,-1,-1]","[0.17104259566253546,-0.09425245756145555]","[-1,-1,-1]","[0.055509700477959306,-0.02246316242011828]","[-1,-1,-1]","[0.14561383110215642,-0.02071258664113023]","[-1,-1,-1]","[-0.01959627340028873,-0.10718837092192261]","[1,1,1]","[0.0054171376647928395,0.06403490177182253]","[-1,-1,-1]","[-0.09617178402593765,-0.12898339115729948]","[-1,-1,-1]","[0.18012228393462096,-0.049612408781105025]","[-1,-1,-1]","[0.08137831806878203,0.06241300462316239]","[1,1,1]","[-0.021274645336539708,0.02082850677060823]","[1,1,1]","[-0.14268069068969458,-0.12889071651684855]","[-1,-1,-1]","[-0.15666063786685927,-0.06327019497157095]","[1,1,1]","[-0.00384586508308934,-0.1518685544794689]","[1,1,1]","[0.0025524382619970558,-0.0506965702574205]","[1,1,1]","[-0.06484917590952709,0.06309453604765594]","[1,1,1]","[0.06834943786406456,-0.07123604463945643]","[1,1,1]","[0.01877631727419811,0.16429025290145588]","[1,1,1]","[0.127852138133533,-0.1353732117740008]","[1,1,1]","[0.043957301468853745,0.04470166661230674]","[-1,-1,-1]","[0.13256515804414531,0.04806247428428987]","[1,1,1]","[0.054443583698188774,-0.19070416566792853]","[-1,-1,-1]","[0.0599198158400089,0.16466889862956752]","[1,1,1]","[-0.11305526488666948,-0.03749798718743873]","[1,1,1]","[-0.11336714002468441,0.13448285138576938]","[1,1,1]","[0.02,0.02]",207.3227,0,42,42,148,1,,,,,,,
,,,,,,,67ab1e1f5b205c29bc9f1c64,682f0fb7ee085ef72bd8dd4d,2025-05-22_14h11.39.785,cuing_paradigm_dot,2024.1.5,Win32,60.24096386,682d573fa47f1360d1451895,,,,,,,,,,,207.3232,207.8227,,,208.0716,208.5309,left,0.4435,,,,,,,,,0.4,,,,,,207.8228,208.0715,208.5309,"[-0.17102753371298457,-0.08683348453519808]","[-1,-1,-1]","[-0.03211943746781064,0.07187868045538026]","[-1,-1,-1]","[0.10251482213088395,-0.08262493561213669]","[-1,-1,-1]","[0.09078877678649798,0.09913652256235995]","[-1,-1,-1]","[0.09103271795637888,0.049422964092516695]","[1,1,1]","[-0.1870110243936632,0.033040457453088846]","[-1,-1,-1]","[-0.14232859900284464,0.09004920798800017]","[-1,-1,-1]","[0.15427127190741038,-0.009398641668712718]","[1,1,1]","[-0.0879239081537033,0.17269026339666899]","[-1,-1,-1]","[0.19345274608567362,0.0024743889145596785]","[1,1,1]","[0.09415764126279423,0.15607250474152914]","[-1,-1,-1]","[0.02920393543365461,0.08875859988505756]","[1,1,1]","[-0.1600865628436773,-0.029213410776627275]","[-1,-1,-1]","[-0.061383625756545636,-0.12908460368323887]","[1,1,1]","[0.12106590642501647,-0.12870097020858612]","[1,1,1]","[-0.06456118614208087,0.021561284553447205]","[-1,-1,-1]","[-0.11171402770560684,-0.1298429748428285]","[-1,-1,-1]","[-0.04213669504226815,0.19343855607947277]","[1,1,1]","[0.12989841316405645,-0.047480322355055914]","[1,1,1]","[0.05637185837758919,0.0008811996366947853]","[-1,-1,-1]","[0.035051649847059003,0.03897304934554804]","[-1,-1,-1]","[-0.12729694115405976,0.02275726253303764]","[-1,-1,-1]","[-0.0677223342378263,0.09749704833256287]","[-1,-1,-1]","[0.020463253632929668,-0.10378497643688632]","[1,1,1]","[-0.005298440971739445,0.1312809154317507]","[-1,-1,-1]","[0.01417741221105547,-0.02594716487913238]","[1,1,1]","[0.02573256510192482,-0.15565781037187196]","[-1,-1,-1]","[0.045211538814093975,0.18733333143552824]","[1,1,1]","[-0.05456159115963659,-0.08555414881173357]","[-1,-1,-1]","[-0.08322056229686918,-0.048398627631747036]","[1,1,1]","[0.15721949202911809,-0.10403936520772565]","[1,1,1]","[0.14252530652473636,0.03776548795775195]","[-1,-1,-1]","[0.02,0.02]",209.6244,0,43,43,55,1,,,,,,,
,,,,,,,67ab1e1f5b205c29bc9f1c64,682f0fb7ee085ef72bd8dd4d,2025-05-22_14h11.39.785,cuing_paradigm_dot,2024.1.5,Win32,60.24096386,682d573fa47f1360d1451895,,,,,,,,,,,209.6251,210.1199,,,210.3604,210.6064,right,0.2177,,,,,,,,,0.5,,,,,,210.1199,210.3604,210.6064,"[-0.002515791746361571,0.030698573368242277]","[-1,-1,-1]","[0.10684899902179452,-0.053731521030417985]","[-1,-1,-1]","[-0.06722869062146788,-0.02238655964673829]","[-1,-1,-1]","[-0.061048960908009244,0.14908274266065782]","[1,1,1]","[-0.125308371009287,0.13796902774984796]","[-1,-1,-1]","[0.138892623524199,-0.028785314532600872]","[-1,-1,-1]","[0.011884301161942156,-0.018122930733111775]","[1,1,1]","[0.03340000963001136,-0.06280131881874039]","[1,1,1]","[-0.13043134885197405,-0.0708113936095965]","[-1,-1,-1]","[-0.07498213575787556,0.06845756209563672]","[1,1,1]","[0.10318309896466502,0.0369558733043368]","[-1,-1,-1]","[-0.06107972276333095,-0.18225990610392456]","[1,1,1]","[-0.04307329718398661,0.10015622309456042]","[1,1,1]","[0.13206379010568506,-0.12091716257480319]","[-1,-1,-1]","[0.05790911894884042,-0.1900498668537888]","[-1,-1,-1]","[0.035968436081442234,0.06651424424287795]","[1,1,1]","[-0.017607704924404596,-0.096954143579392]","[-1,-1,-1]","[0.042283300611009336,0.016972315774491268]","[-1,-1,-1]","[0.0685398884306972,-0.12426629088145226]","[-1,-1,-1]","[-0.16440125027803046,0.0029769574187590514]","[1,1,1]","[0.018989659074550625,0.18747127811761505]","[1,1,1]","[0.01508523350866614,-0.17756031128378805]","[-1,-1,-1]","[0.1577815185356744,0.05396504309099893]","[1,1,1]","[-0.17322593164085182,0.08193649982693593]","[-1,-1,-1]","[-0.17110295281208057,-0.07823040657584358]","[1,1,1]","[-0.07040584445558509,-0.09830783655240738]","[-1,-1,-1]","[0.16636444707617898,0.006065936752093856]","[1,1,1]","[0.09206381790245788,-0.16707652904341966]","[1,1,1]","[0.09572767772122415,0.166828577717209]","[1,1,1]","[-0.029605562141253403,-0.04594208683298722]","[1,1,1]","[-0.028888261478101286,0.19236195932340616]","[1,1,1]","[-0.112099541932667,-0.009357243487658741]","[-1,-1,-1]","[0.02,0.02]",211.7192,0,44,44,90,1,,,,,,,
