right,left,explain.started,explain.stopped,key_resp_3.keys,key_resp_3.rt,key_resp_3.duration,participant,session,date,expName,psychopyVersion,OS,frameRate,study_id,explain_2.started,explain_2.stopped,key_resp_4.keys,key_resp_4.rt,key_resp_4.duration,explain_3.started,explain_3.stopped,key_resp_5.keys,key_resp_5.rt,key_resp_5.duration,fixation.started,fixation.stopped,practice.started,practice.stopped,response.started,response.stopped,key_resp.keys,key_resp.rt,key_resp.duration,feedback.started,feedback.stopped,trials_2.thisRepN,trials_2.thisTrialN,trials_2.thisN,trials_2.thisIndex,trials_2.ran,white_ratio,explain_4.started,explain_4.stopped,key_resp_6.keys,key_resp_6.rt,key_resp_6.duration,dotDisplay.started,dotDisplay.stopped,ITI.started,polygon_1.pos,polygon_1.color,polygon_2.pos,polygon_2.color,polygon_3.pos,polygon_3.color,polygon_4.pos,polygon_4.color,polygon_5.pos,polygon_5.color,polygon_6.pos,polygon_6.color,polygon_7.pos,polygon_7.color,polygon_8.pos,polygon_8.color,polygon_9.pos,polygon_9.color,polygon_10.pos,polygon_10.color,polygon_11.pos,polygon_11.color,polygon_12.pos,polygon_12.color,polygon_13.pos,polygon_13.color,polygon_14.pos,polygon_14.color,polygon_15.pos,polygon_15.color,polygon_16.pos,polygon_16.color,polygon_17.pos,polygon_17.color,polygon_18.pos,polygon_18.color,polygon_19.pos,polygon_19.color,polygon_20.pos,polygon_20.color,polygon_21.pos,polygon_21.color,polygon_22.pos,polygon_22.color,polygon_23.pos,polygon_23.color,polygon_24.pos,polygon_24.color,polygon_25.pos,polygon_25.color,polygon_26.pos,polygon_26.color,polygon_27.pos,polygon_27.color,polygon_28.pos,polygon_28.color,polygon_29.pos,polygon_29.color,polygon_30.pos,polygon_30.color,polygon_31.pos,polygon_31.color,polygon_32.pos,polygon_32.color,dot_size,ITI.stopped,trials.thisRepN,trials.thisTrialN,trials.thisN,trials.thisIndex,trials.ran,break_2.started,break_2.stopped,trials_3.thisRepN,trials_3.thisTrialN,trials_3.thisN,trials_3.thisIndex,trials_3.ran
subject chose black,subject chose white,0.0004,35.5987,space,20.415,0.166,67ab650c320eccf6141d4010,682f101bf0e4b38dc4acff71,2025-05-22_13h41.08.651,cuing_paradigm_dot,2024.1.5,Win32,60.24096386,682d573fa47f1360d1451895,,,,,,,,,,,,,,,,,,,,,,,,,,,,,,,,,,,,,,,,,,,,,,,,,,,,,,,,,,,,,,,,,,,,,,,,,,,,,,,,,,,,,,,,,,,,,,,,,,,,,,,,,,,,,,,,,
,,,,,,,67ab650c320eccf6141d4010,682f101bf0e4b38dc4acff71,2025-05-22_13h41.08.651,cuing_paradigm_dot,2024.1.5,Win32,60.24096386,682d573fa47f1360d1451895,35.5991,143.5402,space,77.9299,,,,,,,,,,,,,,,,,,,,,,,,,,,,,,,,,,,,,,,,,,,,,,,,,,,,,,,,,,,,,,,,,,,,,,,,,,,,,,,,,,,,,,,,,,,,,,,,,,,,,,,,,,,,,
,,,,,,,67ab650c320eccf6141d4010,682f101bf0e4b38dc4acff71,2025-05-22_13h41.08.651,cuing_paradigm_dot,2024.1.5,Win32,60.24096386,682d573fa47f1360d1451895,,,,,,143.5406,154.077,space,7.534,,,,,,,,,,,,,,,,,,,,,,,,,,,,,,,,,,,,,,,,,,,,,,,,,,,,,,,,,,,,,,,,,,,,,,,,,,,,,,,,,,,,,,,,,,,,,,,,,,,,,,,,
,,,,,,,67ab650c320eccf6141d4010,682f101bf0e4b38dc4acff71,2025-05-22_13h41.08.651,cuing_paradigm_dot,2024.1.5,Win32,60.24096386,682d573fa47f1360d1451895,,,,,,,,,,,154.1981,154.5842,154.5849,154.8428,154.8433,155.583,right,0.6935,,155.5834,156.6868,0,0,0,1,1,0.2,,,,,,,,,,,,,,,,,,,,,,,,,,,,,,,,,,,,,,,,,,,,,,,,,,,,,,,,,,,,,,,,,,,,,,,,,,,,,,,,,,,,,,
,,,,,,,67ab650c320eccf6141d4010,682f101bf0e4b38dc4acff71,2025-05-22_13h41.08.651,cuing_paradigm_dot,2024.1.5,Win32,60.24096386,682d573fa47f1360d1451895,,,,,,,,,,,156.6879,157.1845,157.1891,157.4422,157.4423,157.6087,right,0.1507,,157.6088,158.7013,0,1,1,0,1,0.8,,,,,,,,,,,,,,,,,,,,,,,,,,,,,,,,,,,,,,,,,,,,,,,,,,,,,,,,,,,,,,,,,,,,,,,,,,,,,,,,,,,,,,
,,,,,,,67ab650c320eccf6141d4010,682f101bf0e4b38dc4acff71,2025-05-22_13h41.08.651,cuing_paradigm_dot,2024.1.5,Win32,60.24096386,682d573fa47f1360d1451895,,,,,,,,,,,,,,,,,,,,,,,,,,,,158.703,163.6197,space,1.9018,,,,,,,,,,,,,,,,,,,,,,,,,,,,,,,,,,,,,,,,,,,,,,,,,,,,,,,,,,,,,,,,,,,,,,,,,,,,,,,,,,
,,,,,,,67ab650c320eccf6141d4010,682f101bf0e4b38dc4acff71,2025-05-22_13h41.08.651,cuing_paradigm_dot,2024.1.5,Win32,60.24096386,682d573fa47f1360d1451895,,,,,,,,,,,163.7136,164.1363,,,164.3849,164.4841,left,0.0842,,,,,,,,,0.9,,,,,,164.1376,164.3848,164.4853,"[-0.1005076644617749,0.0627189385691574]","[1,1,1]","[-0.1410044601691278,-0.08497872857956802]","[1,1,1]","[0.030138156704660576,0.06760759159062071]","[1,1,1]","[-0.13861004051118953,0.006863677609644696]","[1,1,1]","[-0.12515113068418865,0.13752117807042832]","[1,1,1]","[0.015204645588773772,-0.03891686178359286]","[1,1,1]","[0.022124682649099486,0.15860243078425565]","[1,1,1]","[0.1904717277930405,-0.05728682332273777]","[1,1,1]","[-0.18113719870168726,0.07410410856463795]","[1,1,1]","[0.06616649153539853,-0.15500577423328382]","[1,1,1]","[-0.05259249442601175,-0.055154137154315636]","[1,1,1]","[0.015533705781660969,-0.18092307363765026]","[1,1,1]","[-0.09812662221982815,-0.0016433161029020752]","[1,1,1]","[-0.19067863221675752,0.006047053833776623]","[1,1,1]","[0.15398242232683756,-0.11005100472460694]","[1,1,1]","[0.10203950295494785,-0.05268086872236938]","[1,1,1]","[-0.1377812111711768,-0.03778853502887487]","[-1,-1,-1]","[-0.05293751618045794,0.07451997276496768]","[1,1,1]","[0.17778091362637566,0.06559130425422258]","[1,1,1]","[0.019178767757276574,0.01099572196792311]","[1,1,1]","[0.12273173634943407,0.03393114259372736]","[1,1,1]","[-0.08031853177960695,0.10460104649102642]","[1,1,1]","[-0.090979694748411,-0.13535000186131732]","[1,1,1]","[-0.02646831651590645,0.14810123123049201]","[1,1,1]","[-0.1870014987316506,-0.05881508659981196]","[1,1,1]","[0.05259743392575387,-0.09813430836172284]","[1,1,1]","[0.07420843811342062,-0.007834960766275587]","[1,1,1]","[0.1935423952497723,-0.016581595358434332]","[1,1,1]","[0.09881308298522325,0.09731315275699502]","[-1,-1,-1]","[-0.1589567869571366,0.1119933710231071]","[-1,-1,-1]","[-0.012083816885755319,-0.14094053825725714]","[1,1,1]","[0.1391837481111337,0.128452848231449]","[1,1,1]","[0.02,0.02]",165.5733,0,0,0,188,1,,,,,,,
,,,,,,,67ab650c320eccf6141d4010,682f101bf0e4b38dc4acff71,2025-05-22_13h41.08.651,cuing_paradigm_dot,2024.1.5,Win32,60.24096386,682d573fa47f1360d1451895,,,,,,,,,,,165.5745,166.0667,,,166.3204,166.4855,left,0.1573,,,,,,,,,0.1,,,,,,166.0668,166.3203,166.4859,"[0.06322664945191186,-0.03488623258096304]","[-1,-1,-1]","[-0.07417642263302768,0.022253755451989526]","[-1,-1,-1]","[-0.135027673965972,-0.10951925101452166]","[-1,-1,-1]","[-0.09412439410493453,0.17429958859379655]","[-1,-1,-1]","[0.004234507168134409,0.12408318059414097]","[-1,-1,-1]","[-0.01678968862487422,-0.09240466087654381]","[-1,-1,-1]","[0.10818753016645162,0.0654450847859343]","[-1,-1,-1]","[0.04155213856685662,-0.14590622840879722]","[-1,-1,-1]","[0.06340446870672034,0.0709161142272323]","[-1,-1,-1]","[-0.031364995763598004,0.09773500976761369]","[-1,-1,-1]","[-0.016387760497802068,-0.1878908290820285]","[-1,-1,-1]","[0.1330045865475329,0.1145533323333663]","[-1,-1,-1]","[-0.12150150004210393,0.0845043734189112]","[-1,-1,-1]","[-0.1805640929353704,-0.007240994143012093]","[-1,-1,-1]","[0.11364421928646054,-0.08013052546527695]","[-1,-1,-1]","[-0.11239344134809832,0.13757843932068842]","[-1,-1,-1]","[-0.19048154201831913,0.0562012415983535]","[1,1,1]","[0.0051832062382327826,-0.02656651324772686]","[-1,-1,-1]","[0.09833065434374977,-0.004634584902501887]","[-1,-1,-1]","[0.11623360243645686,-0.15553228845241704]","[-1,-1,-1]","[-0.04128298611535141,0.04761407533312502]","[-1,-1,-1]","[0.001340927612425466,0.01959882942221721]","[-1,-1,-1]","[-0.03814705655533929,-0.12975957463670815]","[1,1,1]","[0.06428072670785062,-0.08947476983805712]","[-1,-1,-1]","[0.05917564525894951,0.15736686261599586]","[-1,-1,-1]","[-0.17369401480079838,-0.09715235018811152]","[-1,-1,-1]","[0.15341062488556984,-0.014700184813603669]","[-1,-1,-1]","[0.1724267151807628,-0.05406952650753227]","[-1,-1,-1]","[-0.11727548459264804,-0.14556657044884744]","[-1,-1,-1]","[-0.0376687120030142,-0.04815865006514298]","[-1,-1,-1]","[0.17362444851056447,0.023478309234317155]","[1,1,1]","[-0.1415313432900109,0.03585814918312702]","[-1,-1,-1]","[0.02,0.02]",167.5827,0,1,1,13,1,,,,,,,
,,,,,,,67ab650c320eccf6141d4010,682f101bf0e4b38dc4acff71,2025-05-22_13h41.08.651,cuing_paradigm_dot,2024.1.5,Win32,60.24096386,682d573fa47f1360d1451895,,,,,,,,,,,167.584,168.0836,,,168.3251,168.3905,right,0.0502,,,,,,,,,0.5,,,,,,168.0837,168.325,168.3906,"[0.1113345066143029,0.12799124922373342]","[1,1,1]","[0.048721060692808085,-0.10083136833788615]","[-1,-1,-1]","[0.09735400949958505,-0.16896846979278768]","[-1,-1,-1]","[-0.12086659930263288,0.14423686006591646]","[-1,-1,-1]","[-0.03768945992120686,-0.003936797121548889]","[-1,-1,-1]","[0.17632189990603475,-0.015475655782336808]","[-1,-1,-1]","[-0.0780847647456351,0.10812940679714352]","[-1,-1,-1]","[-0.10906754080452907,-0.11608467551720043]","[1,1,1]","[-0.11851833820810267,0.053712874737470856]","[1,1,1]","[0.15690662012128914,0.09253910484484851]","[-1,-1,-1]","[0.16115245412327456,-0.08891810863642827]","[1,1,1]","[-0.15689816869660822,-0.031461312077710316]","[1,1,1]","[-0.15094625403426462,0.01874051055721679]","[-1,-1,-1]","[0.01118129442685655,-0.027859091329714796]","[-1,-1,-1]","[-0.06520303071346968,0.03728542263968031]","[1,1,1]","[-0.03127632097888885,-0.05326950142727213]","[1,1,1]","[-0.020632956929629232,0.12479620729297364]","[-1,-1,-1]","[-0.10214678173874024,0.016402083459505473]","[1,1,1]","[-0.05236151887055194,0.16938403767012056]","[-1,-1,-1]","[0.11554358947705685,0.06670285747363255]","[1,1,1]","[0.06823019185240889,0.026137959219102884]","[1,1,1]","[0.07417795821974871,-0.04777744561927765]","[-1,-1,-1]","[0.0276796678328146,0.17858641967964722]","[1,1,1]","[0.15615577417844087,0.03874084141648596]","[-1,-1,-1]","[-0.030339249483527408,-0.11687549957463506]","[-1,-1,-1]","[-0.0019382843098369464,0.0817551934587994]","[1,1,1]","[0.016655389353596655,-0.16396734436890545]","[1,1,1]","[0.058488718594000975,0.09983989377870547]","[1,1,1]","[0.11341283269025526,-0.013778333982301936]","[-1,-1,-1]","[-0.0986695515871368,-0.04985248045923416]","[1,1,1]","[0.02015976370525082,-0.067049392981829]","[1,1,1]","[-0.042086301899477256,-0.1761187665726689]","[-1,-1,-1]","[0.02,0.02]",169.4905,0,2,2,100,1,,,,,,,
,,,,,,,67ab650c320eccf6141d4010,682f101bf0e4b38dc4acff71,2025-05-22_13h41.08.651,cuing_paradigm_dot,2024.1.5,Win32,60.24096386,682d573fa47f1360d1451895,,,,,,,,,,,169.4914,169.9898,,,170.2357,170.2688,left,0.017,,,,,,,,,0.1,,,,,,169.9899,170.2357,170.2689,"[-0.03215778166783603,0.03419182382940657]","[-1,-1,-1]","[0.17835353824419986,0.02864011721171774]","[-1,-1,-1]","[-0.09604546595712343,0.08925437479029825]","[-1,-1,-1]","[-0.0009435239483311622,0.00784610774323558]","[-1,-1,-1]","[0.052139742404852696,0.12660891531721877]","[-1,-1,-1]","[0.10451390251107655,0.1520948018936805]","[-1,-1,-1]","[-0.09355129214735074,-0.10469068226680829]","[1,1,1]","[-0.0064294163420046966,-0.06979289798732159]","[-1,-1,-1]","[0.1240895954001571,-0.09892707326732772]","[-1,-1,-1]","[-0.022441001928548577,0.10681667907678832]","[-1,-1,-1]","[-0.11325033239862689,-0.01198584507231465]","[-1,-1,-1]","[0.12177190750819052,-0.04892247847107266]","[-1,-1,-1]","[-0.006001600496089572,0.16926198063841597]","[-1,-1,-1]","[-0.12606966425790364,-0.12990280089992207]","[-1,-1,-1]","[0.010518990268236744,-0.17886779393609284]","[1,1,1]","[-0.05851101444173107,0.07350362026852723]","[-1,-1,-1]","[0.04083772784727472,-0.033241534197031956]","[-1,-1,-1]","[0.11596083088231358,0.036403871686138206]","[-1,-1,-1]","[-0.18010910301329808,-0.0004179698850998836]","[-1,-1,-1]","[0.09955788595834573,0.09999485417847924]","[-1,-1,-1]","[-0.0903044477349985,-0.0512424608658542]","[-1,-1,-1]","[-0.08797145331519483,0.02186191852952763]","[-1,-1,-1]","[-0.17627551524544333,0.06750358835464251]","[-1,-1,-1]","[0.03310108123458946,0.19555294466856946]","[1,1,1]","[0.15373816159565723,-0.02089840472150685]","[-1,-1,-1]","[0.07187035852306659,-0.12867852226359808]","[-1,-1,-1]","[-0.05950714536276423,-0.019615852888218866]","[-1,-1,-1]","[-0.1370554394308675,0.12397710576893232]","[-1,-1,-1]","[0.06147410473290647,0.024228919502447526]","[-1,-1,-1]","[0.08939615980646186,-0.17785959798659165]","[-1,-1,-1]","[0.036540437041071766,-0.10465845655260293]","[-1,-1,-1]","[-0.08511339502584728,0.17847788798942937]","[-1,-1,-1]","[0.02,0.02]",171.3569,0,3,3,10,1,,,,,,,
,,,,,,,67ab650c320eccf6141d4010,682f101bf0e4b38dc4acff71,2025-05-22_13h41.08.651,cuing_paradigm_dot,2024.1.5,Win32,60.24096386,682d573fa47f1360d1451895,,,,,,,,,,,171.3578,171.856,,,172.1028,172.2188,left,0.1036,,,,,,,,,0.55,,,,,,171.856,172.1027,172.2189,"[-0.002268983322356658,-0.06933161723955435]","[-1,-1,-1]","[0.1735831189443076,0.09856239464413198]","[1,1,1]","[-0.03429095068621114,-0.0329194414266079]","[1,1,1]","[0.020154178344891253,0.12794553832250746]","[-1,-1,-1]","[-0.1942062002109943,-0.0009035069723168449]","[-1,-1,-1]","[0.10282391681483842,-0.14780485091837842]","[-1,-1,-1]","[-0.08394425451900644,0.020771435102675654]","[-1,-1,-1]","[0.07905274901657969,-0.0401576484826469]","[1,1,1]","[0.11548912293362182,0.0865185619315527]","[-1,-1,-1]","[-0.04595511064691223,0.1275161459531239]","[1,1,1]","[0.12300352435481293,-0.05634226845459412]","[1,1,1]","[-0.1597946217664163,0.0674154307422874]","[1,1,1]","[0.08214879373449185,0.0025932849943435415]","[-1,-1,-1]","[0.07322087063587074,0.0899202567070896]","[-1,-1,-1]","[-0.10281898511986569,-0.07699958405179938]","[1,1,1]","[-0.12349175066588812,0.12149010238138049]","[1,1,1]","[-0.020459868882891783,0.00842781038514073]","[1,1,1]","[0.03145738221164361,-0.19188377498857592]","[1,1,1]","[0.13243124721844515,0.01215530187859364]","[1,1,1]","[-0.063791961438401,0.17802856973196657]","[1,1,1]","[0.16868275527047888,-0.0198265086282878]","[1,1,1]","[-0.10100708391877805,-0.13201820640437628]","[-1,-1,-1]","[-0.03490527214940383,-0.17851411886293592]","[1,1,1]","[-0.16523510545931983,-0.067888618100963]","[-1,-1,-1]","[0.19025603462812535,0.04606209132000047]","[-1,-1,-1]","[0.02745322107211199,-0.12732511112512165]","[-1,-1,-1]","[0.14739658607841988,-0.12230577972713992]","[1,1,1]","[-0.13085998790166944,0.008538008957954793]","[-1,-1,-1]","[0.02668749661609749,0.1740845572278122]","[1,1,1]","[0.13384795110567962,0.14378047536456173]","[-1,-1,-1]","[0.07620498452218137,0.04272385550489794]","[1,1,1]","[-0.08068656142950299,0.07339454307546758]","[1,1,1]","[0.02,0.02]",173.3175,0,4,4,147,1,,,,,,,
,,,,,,,67ab650c320eccf6141d4010,682f101bf0e4b38dc4acff71,2025-05-22_13h41.08.651,cuing_paradigm_dot,2024.1.5,Win32,60.24096386,682d573fa47f1360d1451895,,,,,,,,,,,173.3187,173.8187,,,174.077,174.1747,left,0.084,,,,,,,,,0.45,,,,,,173.8187,174.0769,174.1748,"[0.056867362743206494,-0.014567337298213487]","[-1,-1,-1]","[-0.08560784576069916,0.17198575135586733]","[-1,-1,-1]","[-0.08043257322539785,-0.05598962681200371]","[1,1,1]","[0.11935469765757754,0.02507502744899108]","[1,1,1]","[-0.14505641427277682,0.040940340659186544]","[-1,-1,-1]","[-0.04422088302864811,-0.023639038102517516]","[1,1,1]","[-0.13910099786669264,-0.10652628915756944]","[1,1,1]","[-0.028680896833780698,-0.1442646499658488]","[-1,-1,-1]","[0.14440676849281422,-0.12337410661788532]","[1,1,1]","[0.1931755864102181,-0.020851932192073784]","[1,1,1]","[-0.17782087489778267,-0.012043011508093142]","[1,1,1]","[-0.048821648767519994,0.022638877785792922]","[-1,-1,-1]","[-0.10741821663004153,0.1260492378777351]","[-1,-1,-1]","[0.16251685473499927,0.028262546299256876]","[-1,-1,-1]","[-0.002919438439523345,0.13895669355860746]","[-1,-1,-1]","[0.02178685523688431,-0.16603384312084515]","[1,1,1]","[0.09734904703409476,0.10471503504802704]","[-1,-1,-1]","[0.15284954710781382,0.07115804976846965]","[-1,-1,-1]","[-0.052787932899280084,-0.08496318771646827]","[1,1,1]","[-0.12406554954589087,0.00044505613511528673]","[1,1,1]","[0.03946302345133853,0.08740602784566857]","[-1,-1,-1]","[0.08419133463433306,-0.14962442425872827]","[-1,-1,-1]","[-0.11531992604554106,-0.14089105283775225]","[-1,-1,-1]","[-0.032046679643050836,0.1885250207997702]","[1,1,1]","[0.08611844975435738,-0.09528194077046657]","[1,1,1]","[0.06480353249270304,0.13729028315816708]","[1,1,1]","[-0.16658979404501467,0.09641082927282547]","[-1,-1,-1]","[-0.05691830041131246,0.06780055933912435]","[-1,-1,-1]","[0.003870510664552489,-0.06577427160345266]","[-1,-1,-1]","[-0.020196763613727384,0.09582755012766256]","[1,1,1]","[0.03940576860911287,0.18869819113221967]","[-1,-1,-1]","[-0.00032664896533891966,-0.10723123239040477]","[-1,-1,-1]","[0.02,0.02]",175.2732,0,5,5,69,1,,,,,,,
,,,,,,,67ab650c320eccf6141d4010,682f101bf0e4b38dc4acff71,2025-05-22_13h41.08.651,cuing_paradigm_dot,2024.1.5,Win32,60.24096386,682d573fa47f1360d1451895,,,,,,,,,,,175.274,175.7726,,,176.0165,176.0662,right,0.0394,,,,,,,,,0.4,,,,,,175.7726,176.0164,176.0663,"[0.1081534255610078,-0.14287097548352884]","[1,1,1]","[-0.16406949113735825,-0.06128241850217328]","[-1,-1,-1]","[0.0605664762925536,0.11298351821313243]","[-1,-1,-1]","[-0.09952832955577243,-0.0921629236504509]","[1,1,1]","[-0.06461102092036489,0.011805145142605894]","[-1,-1,-1]","[0.10751558351602072,-0.02464134544650018]","[-1,-1,-1]","[-0.04418755982856718,-0.19151624221233987]","[-1,-1,-1]","[-0.02933083371986757,-0.027985780805916682]","[1,1,1]","[-0.1916496790397723,-0.030900302685105286]","[1,1,1]","[0.17513198467838992,-0.09534014609552267]","[-1,-1,-1]","[0.04714422723150715,-0.11299846983907565]","[1,1,1]","[0.019180377613668004,0.07924242260011809]","[-1,-1,-1]","[-0.0009923864875885484,-0.057753698197113235]","[-1,-1,-1]","[-0.025892770303982782,0.17066566621402848]","[1,1,1]","[-0.18511306941289354,0.043156392046486955]","[1,1,1]","[0.15486669152842428,0.044609017951471756]","[-1,-1,-1]","[0.031246546812702735,-0.173591760637507]","[-1,-1,-1]","[-0.028400109977597152,0.07039206994364777]","[1,1,1]","[0.10851484521812002,0.1468177908787621]","[-1,-1,-1]","[-0.03822512305530531,0.12841646594771133]","[-1,-1,-1]","[0.09125923649212854,0.03527180789371552]","[1,1,1]","[-0.00040148714040984224,-0.10764992013712184]","[-1,-1,-1]","[-0.12298467531262075,-0.015374627517165809]","[1,1,1]","[0.07571504344010808,0.1699957140723681]","[-1,-1,-1]","[0.012251730392615217,0.03980343929533744]","[1,1,1]","[0.037759909959575295,-0.0011138621632990954]","[1,1,1]","[-0.10768331660645969,0.15454004621381248]","[-1,-1,-1]","[-0.05950391998483659,-0.1318387399803045]","[1,1,1]","[-0.122845639903082,-0.14876141899369788]","[-1,-1,-1]","[-0.09307977291474764,0.09502664278626921]","[-1,-1,-1]","[0.017242054631889363,0.150757404190855]","[-1,-1,-1]","[-0.13536823966901892,0.04080652936085046]","[-1,-1,-1]","[0.02,0.02]",177.1566,0,6,6,51,1,,,,,,,
,,,,,,,67ab650c320eccf6141d4010,682f101bf0e4b38dc4acff71,2025-05-22_13h41.08.651,cuing_paradigm_dot,2024.1.5,Win32,60.24096386,682d573fa47f1360d1451895,,,,,,,,,,,177.1578,177.6501,,,177.9018,178.0194,right,0.1086,,,,,,,,,0.6,,,,,,177.6502,177.9017,178.0195,"[0.07919899990100246,0.15186340410509885]","[-1,-1,-1]","[-0.09097166246809862,0.16067452518925784]","[-1,-1,-1]","[-0.031868512894854546,0.16824169615940096]","[1,1,1]","[-0.06667326000184777,0.07748809040087963]","[1,1,1]","[-0.012515278394901673,-0.1524094669985217]","[1,1,1]","[-0.04154809893050727,-0.1847798971697304]","[1,1,1]","[0.16500809658658264,0.11181583076276232]","[1,1,1]","[-0.16634852296579664,0.036911529442174476]","[-1,-1,-1]","[0.08620921166121125,-0.14685919154585797]","[-1,-1,-1]","[0.1692649946622937,-0.0942543765457582]","[1,1,1]","[0.026065636929251547,0.004193514023055879]","[-1,-1,-1]","[0.18147252170635492,0.06941408982092918]","[1,1,1]","[-0.1233477053145327,0.05066683422867369]","[1,1,1]","[-0.12554780642592978,-0.08133555380310825]","[1,1,1]","[-0.0784813545482706,-0.1243920603028682]","[-1,-1,-1]","[-0.023166907942625815,0.06996747212249749]","[-1,-1,-1]","[-0.09751651330501865,-0.01615092865610485]","[-1,-1,-1]","[0.1321217067133355,-0.14981204429972186]","[1,1,1]","[-0.042679935186184195,-0.05700612487496784]","[1,1,1]","[0.11944016774872232,-0.07395540295330025]","[-1,-1,-1]","[0.1902390984590578,0.00026244617651403055]","[1,1,1]","[0.10529237820034343,-0.03434297446029224]","[-1,-1,-1]","[-0.19403541410122477,-0.02019452723664682]","[-1,-1,-1]","[-0.049380972909402944,-0.00885952798414688]","[1,1,1]","[0.09929510330538797,0.04387849063762608]","[1,1,1]","[0.043094054654974095,0.18061320132593742]","[1,1,1]","[0.025770310373698955,-0.10542784246753566]","[-1,-1,-1]","[-0.15079698119419505,-0.11650622871765506]","[1,1,1]","[0.1354302500448506,0.012176638930742709]","[1,1,1]","[0.0322718858714936,-0.18331921507183851]","[1,1,1]","[-0.16815132472281918,-0.06364498159936587]","[-1,-1,-1]","[-0.1403290048397107,0.10894122607947643]","[1,1,1]","[0.02,0.02]",179.117,0,7,7,178,1,,,,,,,
,,,,,,,67ab650c320eccf6141d4010,682f101bf0e4b38dc4acff71,2025-05-22_13h41.08.651,cuing_paradigm_dot,2024.1.5,Win32,60.24096386,682d573fa47f1360d1451895,,,,,,,,,,,179.1187,179.6163,,,179.8684,180.0199,right,0.1191,,,,,,,,,0.4,,,,,,179.6165,179.8684,180.02,"[-0.03746360483087493,0.08027705386636785]","[1,1,1]","[0.1801891756514883,-0.06837295091052846]","[1,1,1]","[-0.1418111358321995,-0.010846973583281001]","[-1,-1,-1]","[0.05817982193231155,-0.07959681066895406]","[-1,-1,-1]","[0.06148050525060203,0.024856484903020663]","[1,1,1]","[-0.13316159732552593,-0.09641286752480291]","[-1,-1,-1]","[0.01931908114338242,-0.0473171889510532]","[-1,-1,-1]","[-0.07141290672970953,0.13316494688611594]","[-1,-1,-1]","[-0.17816488891898855,0.07858709557625998]","[1,1,1]","[-0.07778766769710012,-0.08651979003310586]","[-1,-1,-1]","[0.03421879938485043,-0.12057004899951589]","[-1,-1,-1]","[-0.11137472562807807,-0.040857448703915666]","[-1,-1,-1]","[-0.00438253257230902,-0.18687655919886428]","[-1,-1,-1]","[0.021693814719556597,0.06187728603917173]","[1,1,1]","[-0.015253993778867124,0.1202352577934789]","[1,1,1]","[-0.047220254191742736,0.01774970258064343]","[-1,-1,-1]","[0.16981433011706876,0.050877219157318895]","[-1,-1,-1]","[0.05684131420349713,0.149304816728817]","[-1,-1,-1]","[-0.032241308774455864,-0.09492153473022187]","[1,1,1]","[0.16299478040027857,0.007743048198329778]","[1,1,1]","[-0.06823791342843227,-0.180366278600999]","[-1,-1,-1]","[-0.056824626261316166,-0.13816356823488965]","[-1,-1,-1]","[0.12336344640784222,0.032308592804382356]","[-1,-1,-1]","[0.1208015931528767,0.14875916652862467]","[1,1,1]","[0.08854186412318225,-0.10796110923533085]","[1,1,1]","[-0.016826265899872312,0.17441005789260264]","[-1,-1,-1]","[0.12620741444784292,-0.0583874118308243]","[-1,-1,-1]","[-0.1133886243950039,0.16041050486958253]","[1,1,1]","[-0.18310146794274657,-0.04159606344690511]","[1,1,1]","[0.07231208309954482,-0.16886783485455117]","[-1,-1,-1]","[0.16394852053879283,0.11049532645091827]","[-1,-1,-1]","[0.02932507604471984,-0.16074700496063826]","[1,1,1]","[0.02,0.02]",181.1184,0,8,8,32,1,,,,,,,
,,,,,,,67ab650c320eccf6141d4010,682f101bf0e4b38dc4acff71,2025-05-22_13h41.08.651,cuing_paradigm_dot,2024.1.5,Win32,60.24096386,682d573fa47f1360d1451895,,,,,,,,,,,181.1193,181.6219,,,181.8738,182.019,right,0.1296,,,,,,,,,0.55,,,,,,181.6219,181.8737,182.0193,"[0.06702679850709194,-0.06993706406753605]","[1,1,1]","[0.1990631165536808,-0.0063849277507121455]","[-1,-1,-1]","[-0.055591922671966165,-0.15873248993604935]","[-1,-1,-1]","[-0.14392330480658877,0.12252897194473973]","[-1,-1,-1]","[0.07532825227742253,-0.148978789383643]","[1,1,1]","[-0.14098995271001846,0.06064395129505715]","[1,1,1]","[0.027863787854163626,-0.17499583467027352]","[-1,-1,-1]","[-0.0474532335614093,0.003019734273471752]","[-1,-1,-1]","[-0.1973262658662194,0.02393299613899229]","[1,1,1]","[0.060285945766690316,0.13431262917632755]","[1,1,1]","[0.043249686969649925,0.08305645118572748]","[-1,-1,-1]","[-0.11949753302276413,-0.07295525061489509]","[1,1,1]","[-0.048055493786193434,0.11099534991791761]","[-1,-1,-1]","[0.002848917345745246,-0.011867934018147367]","[1,1,1]","[0.06947656456424367,0.04476844545496298]","[1,1,1]","[-0.06878454926057873,0.14969222051229267]","[1,1,1]","[-0.16199117223100956,0.0036036550238375217]","[-1,-1,-1]","[0.1465671001935629,-0.09372994745034094]","[-1,-1,-1]","[0.1883526624513803,-0.05246654936892827]","[1,1,1]","[0.05060134742757435,0.17524610413779715]","[1,1,1]","[-0.09905886250154047,0.07246582660556526]","[1,1,1]","[0.1317532120919796,-0.13287129716848978]","[-1,-1,-1]","[-0.014569984958770144,0.17188122992713664]","[-1,-1,-1]","[-0.10087731630476408,-0.1662452067993894]","[1,1,1]","[0.08455381276210186,-0.011990956535519988]","[1,1,1]","[-0.13470132325312162,-0.11379622451771776]","[1,1,1]","[0.17386695251910597,0.06149578540813012]","[-1,-1,-1]","[-0.06932557161470715,-0.07779762342097818]","[-1,-1,-1]","[-0.0373044755138246,-0.11417832540925596]","[1,1,1]","[0.12296820352303219,0.044670631969980126]","[-1,-1,-1]","[-0.1906248958972652,-0.024645785720006846]","[1,1,1]","[0.03711067391617642,-0.040108833500482034]","[1,1,1]","[0.02,0.02]",183.1174,0,9,9,138,1,,,,,,,
,,,,,,,67ab650c320eccf6141d4010,682f101bf0e4b38dc4acff71,2025-05-22_13h41.08.651,cuing_paradigm_dot,2024.1.5,Win32,60.24096386,682d573fa47f1360d1451895,,,,,,,,,,,183.1179,183.6228,,,183.8656,184.0492,left,0.1676,,,,,,,,,0.6,,,,,,183.6229,183.8655,184.0493,"[-0.02470564268249568,-0.17568998397260582]","[-1,-1,-1]","[-0.15368695837241764,-0.02166645908395905]","[1,1,1]","[0.11266266316941172,0.07116455812219251]","[1,1,1]","[0.039955942624560335,-0.029030432487642886]","[-1,-1,-1]","[-0.032409239819979854,0.08818060905341621]","[1,1,1]","[0.06692730240161635,0.10882318891262062]","[1,1,1]","[-0.1908839264793003,-0.043685836524555155]","[1,1,1]","[0.1134351067558645,-0.12924221764383695]","[-1,-1,-1]","[0.013354387528086101,0.15316577955815236]","[-1,-1,-1]","[0.1591164252973991,-0.06837300820335976]","[-1,-1,-1]","[-0.06566709261905392,-0.07397276997710896]","[1,1,1]","[0.00558465692408299,0.0225744738204548]","[-1,-1,-1]","[0.14084486524696682,-0.014536747032061856]","[1,1,1]","[0.15335368809725472,0.05846749732328171]","[1,1,1]","[-0.10507401994758842,-0.165628847020941]","[-1,-1,-1]","[0.04137207718415196,-0.11784110279960225]","[1,1,1]","[-0.004870654135598775,-0.023493803379933568]","[-1,-1,-1]","[-0.09209688190960258,0.1677996614932886]","[1,1,1]","[0.13487721089764032,0.12122678164443954]","[1,1,1]","[0.18855220880304321,-0.034705998944508404]","[1,1,1]","[-0.16879700185876856,0.019011178304436976]","[-1,-1,-1]","[-0.09600535905195248,0.1073458952762085]","[-1,-1,-1]","[-0.170501301034203,-0.08264779762614004]","[1,1,1]","[-0.160607429104149,0.09533195215957674]","[1,1,1]","[-0.12636576204269218,0.1401319871172783]","[1,1,1]","[0.0691506802987022,0.15308894077241358]","[-1,-1,-1]","[-0.02705422274509974,0.12841345539359184]","[-1,-1,-1]","[0.10445714756976626,-0.052572251315991456]","[1,1,1]","[-0.08969801061190186,0.06699618880304355]","[-1,-1,-1]","[0.1156549349466926,0.019804306539571843]","[1,1,1]","[0.08191002442314946,-0.16337413195051076]","[1,1,1]","[-0.015780054921357232,-0.08168751105387032]","[1,1,1]","[0.02,0.02]",185.1484,0,10,10,168,1,,,,,,,
,,,,,,,67ab650c320eccf6141d4010,682f101bf0e4b38dc4acff71,2025-05-22_13h41.08.651,cuing_paradigm_dot,2024.1.5,Win32,60.24096386,682d573fa47f1360d1451895,,,,,,,,,,,185.1495,185.6392,,,185.8851,187.3829,,,,,,,,,,,0.45,,,,,,185.6393,185.885,187.3829,"[-0.08291523845494174,-0.08109957130247492]","[-1,-1,-1]","[-0.13152190173168757,0.07093657906035818]","[-1,-1,-1]","[0.009275094156581011,-0.051967565341403135]","[1,1,1]","[-0.02149113269242946,-0.0033899035840977646]","[1,1,1]","[-0.0337033701716163,-0.1656615754150292]","[-1,-1,-1]","[-0.09365405647892242,0.039720144054850984]","[-1,-1,-1]","[-0.12849581761970139,-0.005774891190322376]","[-1,-1,-1]","[0.09561387061937794,-0.014529120074234375]","[-1,-1,-1]","[0.12878846486749249,-0.12520912704273818]","[1,1,1]","[-0.1758023104949049,0.043281300243095004]","[1,1,1]","[0.06751636241379151,0.11097543880859184]","[-1,-1,-1]","[0.03032912243104963,-0.12758768428532463]","[-1,-1,-1]","[-0.07694714798977363,-0.164328040416351]","[1,1,1]","[0.04516207347405332,0.005497717602998596]","[1,1,1]","[0.13456379197663662,-0.07772052055995549]","[1,1,1]","[0.008572205203680534,-0.18106583012034738]","[1,1,1]","[0.080267617760872,-0.06107240885879765]","[-1,-1,-1]","[-0.09650508431821221,0.13672925714408143]","[1,1,1]","[0.17336299602408944,-0.09936291194475347]","[-1,-1,-1]","[0.1597509337576398,-0.007116232297417382]","[-1,-1,-1]","[-0.06341587585271362,0.09173010214146582]","[1,1,1]","[-0.11701651696630767,-0.15681583809753347]","[1,1,1]","[-0.12740942435037722,-0.07909406535168381]","[-1,-1,-1]","[-0.0222442188893566,0.08774138233119125]","[-1,-1,-1]","[0.16607709618918223,0.09866450965243712]","[-1,-1,-1]","[-0.007138048483670316,0.16351997967626478]","[1,1,1]","[-0.14473230157241349,0.12521262576541445]","[1,1,1]","[0.08732963226191229,0.03473723086507974]","[-1,-1,-1]","[0.03015031161423108,0.13606805604715333]","[-1,-1,-1]","[-0.04226850056331112,-0.07861996815757298]","[-1,-1,-1]","[0.047568409372106685,0.0635936447221753]","[-1,-1,-1]","[0.01467050411898104,0.1983627465582945]","[1,1,1]","[0.02,0.02]",188.4824,0,11,11,61,1,,,,,,,
,,,,,,,67ab650c320eccf6141d4010,682f101bf0e4b38dc4acff71,2025-05-22_13h41.08.651,cuing_paradigm_dot,2024.1.5,Win32,60.24096386,682d573fa47f1360d1451895,,,,,,,,,,,188.4843,188.9664,,,189.2068,189.2285,right,0.0146,,,,,,,,,0.4,,,,,,188.9665,189.2068,189.2285,"[0.07134141670460879,-0.06054463412957956]","[-1,-1,-1]","[-0.041965694602213804,0.10584532031848985]","[1,1,1]","[0.014148210136585548,-0.07859447952385193]","[-1,-1,-1]","[0.13053367696722393,-0.13256868025103033]","[-1,-1,-1]","[0.08678909435519817,0.05142251290073377]","[-1,-1,-1]","[0.06875228406761182,0.1776753709680199]","[1,1,1]","[-0.15450018012590905,0.0993790212891336]","[-1,-1,-1]","[0.13008994376962038,0.1454729803242423]","[-1,-1,-1]","[-0.043418378529104074,-0.09766774382630432]","[1,1,1]","[-0.15907729491753664,-0.11100855123246528]","[1,1,1]","[0.025736108752025248,0.0707153647824189]","[1,1,1]","[0.03860352575993445,-0.037051615583046656]","[-1,-1,-1]","[-0.03714272129928753,0.021084899362250973]","[-1,-1,-1]","[0.11792379658798821,-0.05362950577087644]","[-1,-1,-1]","[0.12316823059333754,0.09506292766895219]","[1,1,1]","[0.18425115894803756,0.06271360767421394]","[1,1,1]","[0.05240936923833235,-0.12231678266300837]","[1,1,1]","[0.16460656416517838,0.01604260657110644]","[1,1,1]","[-0.17578288625863253,0.006156443036319438]","[-1,-1,-1]","[-0.08735305123299965,0.10680273166121439]","[-1,-1,-1]","[0.07181432322850696,-0.010173709309723764]","[-1,-1,-1]","[-0.108420041401253,-0.11847847919140947]","[-1,-1,-1]","[0.07313434275399062,-0.18001536209869617]","[-1,-1,-1]","[-0.01495637879771221,0.07022755022328982]","[1,1,1]","[0.0148723329394117,0.02545757744264495]","[1,1,1]","[-0.017973713870050378,-0.16528238306320514]","[1,1,1]","[-0.06872307983439313,-0.035843051601148444]","[-1,-1,-1]","[-0.1283349761303786,0.013942255290027138]","[-1,-1,-1]","[0.024029842716133887,-0.1542967030603829]","[-1,-1,-1]","[0.1796209869829203,-0.05700661302752274]","[-1,-1,-1]","[-0.0661303926464411,-0.1687533229777108]","[1,1,1]","[0.013300409596497167,0.13033290808684336]","[-1,-1,-1]","[0.02,0.02]",190.3333,0,12,12,57,1,,,,,,,
,,,,,,,67ab650c320eccf6141d4010,682f101bf0e4b38dc4acff71,2025-05-22_13h41.08.651,cuing_paradigm_dot,2024.1.5,Win32,60.24096386,682d573fa47f1360d1451895,,,,,,,,,,,190.3343,190.8227,,,191.069,191.1144,left,0.037,,,,,,,,,0.4,,,,,,190.8228,191.069,191.1145,"[-0.02809604140829218,-0.03453349484076603]","[-1,-1,-1]","[-0.1387377782236029,0.12015149018029338]","[1,1,1]","[-0.02186602955150861,0.1464250776931554]","[-1,-1,-1]","[0.10035740789513191,-0.14695515885468052]","[1,1,1]","[0.12565896426639053,0.0801563559441977]","[1,1,1]","[-0.12407368816803076,0.02476346353852877]","[-1,-1,-1]","[-0.17573506662885174,0.04656631701030668]","[1,1,1]","[0.11790735413069808,-0.05175845085097399]","[-1,-1,-1]","[-0.04670810300867545,-0.07689427332784558]","[1,1,1]","[0.05438370136081734,0.03139381697172029]","[-1,-1,-1]","[-0.10997384060675403,-0.07529060497304975]","[-1,-1,-1]","[0.16851028078547414,-0.03291622830781936]","[1,1,1]","[0.0068857392128008,-0.0968632941831842]","[-1,-1,-1]","[-0.05200129980292741,0.17574651154722556]","[-1,-1,-1]","[0.08877350138570105,-0.014429305409789648]","[-1,-1,-1]","[0.18514101179377823,0.029417691308195826]","[1,1,1]","[-0.012839559994352705,0.009436452299823728]","[-1,-1,-1]","[0.07203583447657762,0.09819038956252138]","[-1,-1,-1]","[-0.022417735742970537,-0.14360922850751193]","[1,1,1]","[-0.07923641249026753,-0.014673038814032972]","[-1,-1,-1]","[-0.1622660568573396,0.0020483612552967233]","[-1,-1,-1]","[0.12416524400354523,0.14334287523229766]","[1,1,1]","[0.015627534634431377,0.07445955325728859]","[1,1,1]","[0.09056642689053608,0.05243108484967257]","[-1,-1,-1]","[0.1436605631352415,-0.11363567334872152]","[-1,-1,-1]","[0.08576172168750755,0.17038522441457657]","[1,1,1]","[-0.07983701264469055,0.1469420837840798]","[1,1,1]","[0.018969019541756102,-0.17563104787792222]","[1,1,1]","[-0.02677577148274028,0.08694542735676547]","[-1,-1,-1]","[-0.0868342175565528,-0.1639417465096103]","[-1,-1,-1]","[0.12309615902422222,0.01976375724249118]","[-1,-1,-1]","[0.16355260148659742,0.10674271985465104]","[-1,-1,-1]","[0.02,0.02]",192.2156,0,13,13,39,1,,,,,,,
,,,,,,,67ab650c320eccf6141d4010,682f101bf0e4b38dc4acff71,2025-05-22_13h41.08.651,cuing_paradigm_dot,2024.1.5,Win32,60.24096386,682d573fa47f1360d1451895,,,,,,,,,,,192.2174,192.7175,,,192.9673,193.0007,right,0.0177,,,,,,,,,0.9,,,,,,192.7175,192.9672,193.0008,"[0.07930431847545173,0.11101716925061303]","[1,1,1]","[0.049387752080416576,-0.18187867487514872]","[1,1,1]","[0.015166386739602846,0.12548764992692035]","[1,1,1]","[-0.11298810158113644,0.050644947492872044]","[1,1,1]","[0.12933791055469154,0.10175448251040879]","[1,1,1]","[-0.051972867105437595,0.14284381840640198]","[1,1,1]","[-0.11808982004622334,-0.025232749947281564]","[1,1,1]","[-0.06007573638655046,0.02329719953252496]","[-1,-1,-1]","[0.1763204836229596,-0.08244839637468417]","[1,1,1]","[0.027736815858904345,-0.1173839435839394]","[1,1,1]","[0.1644297046203909,0.0595725726870752]","[1,1,1]","[-0.09434220589486014,-0.0838122106687725]","[1,1,1]","[0.1801072296686283,0.0030365895798073824]","[1,1,1]","[-0.005929023444243108,-0.08325420403357432]","[-1,-1,-1]","[-0.10003774668018003,0.17227121515285007]","[1,1,1]","[-0.10356293328179103,0.10377670237647423]","[1,1,1]","[0.08819172608954069,-0.16978185214441627]","[1,1,1]","[0.030419381056087134,0.014843853549542554]","[1,1,1]","[0.11757559825325423,0.05843524997446363]","[1,1,1]","[0.1137817058592306,-0.06001876775100351]","[1,1,1]","[-0.04969713410234061,-0.16666972911840292]","[-1,-1,-1]","[0.06424475634950892,-0.08127223080859891]","[1,1,1]","[0.06200422005798509,0.1654557773111434]","[1,1,1]","[-0.011878331433177378,0.03980886542874795]","[1,1,1]","[0.011121799311586487,0.16702331397651196]","[1,1,1]","[-0.11234749572017826,-0.12601764683651107]","[1,1,1]","[0.08695746285054118,0.010270312508168069]","[1,1,1]","[-0.02635235371149269,-0.039918910091954765]","[1,1,1]","[0.02303684048808275,-0.026865839609603565]","[1,1,1]","[-0.025595824647047082,0.18689388630531256]","[1,1,1]","[0.12677024171262719,-0.10917225474802712]","[1,1,1]","[0.15553542779409213,-0.032747855077170596]","[1,1,1]","[0.02,0.02]",194.0996,0,14,14,199,1,,,,,,,
,,,,,,,67ab650c320eccf6141d4010,682f101bf0e4b38dc4acff71,2025-05-22_13h41.08.651,cuing_paradigm_dot,2024.1.5,Win32,60.24096386,682d573fa47f1360d1451895,,,,,,,,,,,194.1005,194.5988,,,194.8496,194.9192,left,0.0604,,,,,,,,,0.9,,,,,,194.5988,194.8495,194.9194,"[-0.0160140942998638,0.17170802319117773]","[1,1,1]","[0.03759992697559569,0.03993347379115875]","[1,1,1]","[-0.020185915681141968,-0.12076510274110681]","[1,1,1]","[-0.14429755998165003,-0.1151779183060159]","[1,1,1]","[-0.016257454783802652,0.0815931171987595]","[1,1,1]","[-0.07106176389495564,0.09004930916667664]","[1,1,1]","[0.11429448065382757,-0.0726209966177711]","[1,1,1]","[-0.039238175150965615,0.13245748612794883]","[1,1,1]","[-0.13998499724453992,0.04988885618541515]","[1,1,1]","[0.03515911119640355,0.1460510000923792]","[1,1,1]","[0.010295372462490512,-0.03264427442829214]","[1,1,1]","[-0.05000921275822742,-0.0552627255411363]","[1,1,1]","[-0.044297298763529454,-0.0037664047753198228]","[1,1,1]","[0.07173373248673003,0.12083905418183286]","[1,1,1]","[-0.1634416084455109,-0.04609801011382334]","[1,1,1]","[0.030707175120036484,-0.13809515413695322]","[1,1,1]","[0.16190800986946463,-0.024211949060557358]","[1,1,1]","[-0.13705821649948602,0.13565012157478143]","[1,1,1]","[0.125668075373096,0.02825913973107982]","[1,1,1]","[0.10448560154151751,-0.16160396766281676]","[1,1,1]","[0.0954444283336749,0.08560718049403336]","[-1,-1,-1]","[0.05407513935834932,0.18891956673123728]","[1,1,1]","[0.0023691888173467054,-0.16739163102614224]","[1,1,1]","[0.030707346031730746,-0.07264283632347741]","[1,1,1]","[-0.17098953691059304,0.023570336815811097]","[-1,-1,-1]","[-0.1732579732907296,0.09496404797857085]","[1,1,1]","[-0.0608213411984535,-0.11285934405737812]","[1,1,1]","[0.11838155079122711,0.14902707449479505]","[1,1,1]","[0.06405862170631312,-0.01826642824483309]","[1,1,1]","[-0.10690450862698543,-0.03612526027630871]","[-1,-1,-1]","[0.07110181732579164,-0.11105482160125825]","[1,1,1]","[0.14243346054512723,-0.12791477607273952]","[1,1,1]","[0.02,0.02]",196.0197,0,15,15,180,1,,,,,,,
,,,,,,,67ab650c320eccf6141d4010,682f101bf0e4b38dc4acff71,2025-05-22_13h41.08.651,cuing_paradigm_dot,2024.1.5,Win32,60.24096386,682d573fa47f1360d1451895,,,,,,,,,,,196.0206,196.5197,,,196.7584,196.7888,left,0.0165,,,,,,,,,0.45,,,,,,196.5198,196.7583,196.7888,"[0.01147823816541148,0.1390375413248044]","[1,1,1]","[0.0718720053805765,0.10250581720366855]","[-1,-1,-1]","[0.09257021411651543,0.03345055560732141]","[1,1,1]","[0.09769379256764968,-0.03330116887705504]","[1,1,1]","[-0.02375747420624327,0.0014460649321507673]","[-1,-1,-1]","[-0.113359774204116,-0.16118809561839395]","[-1,-1,-1]","[-0.1169712253974085,-0.06902679494750019]","[-1,-1,-1]","[0.1386886032876527,0.08253377744237153]","[1,1,1]","[0.0740255897048205,-0.15651927218192063]","[-1,-1,-1]","[0.10922247392520057,-0.12532963232619784]","[-1,-1,-1]","[-0.06840416184784792,0.04265056180839846]","[-1,-1,-1]","[-0.14489931193572061,0.08128442241371811]","[-1,-1,-1]","[0.04109747214942078,-0.057733659144300786]","[-1,-1,-1]","[-0.027837789319653836,-0.1939471467535736]","[1,1,1]","[-0.02914008841255163,-0.11097962660682899]","[1,1,1]","[-0.1077770140748188,0.02063623284098721]","[1,1,1]","[-0.18611722567373373,-0.016779225639669274]","[1,1,1]","[-0.18838023821912367,-0.06495541692099623]","[-1,-1,-1]","[-0.07238405068664258,0.13987607306813707]","[1,1,1]","[-0.03714533682740383,0.10219824577421169]","[1,1,1]","[0.14052310240140806,-0.09669753033241173]","[1,1,1]","[0.05248853861820156,-0.1161820892457859]","[1,1,1]","[-0.0016421494242684792,-0.05049338507038974]","[-1,-1,-1]","[0.11068347211524243,0.1468386177314898]","[-1,-1,-1]","[0.019925256702729023,-0.19126883195436276]","[1,1,1]","[0.14497463542780042,0.018022403339075115]","[-1,-1,-1]","[-0.047382647882261174,-0.1493981088403212]","[-1,-1,-1]","[-0.06673247340693594,-0.04922894352902293]","[-1,-1,-1]","[0.17645096481448816,-0.03819876049504391]","[-1,-1,-1]","[0.06851645808182336,0.16584199550559542]","[-1,-1,-1]","[0.018594680454985246,0.180984912281063]","[1,1,1]","[-0.00083729881179324,0.06720676347230588]","[-1,-1,-1]","[0.02,0.02]",197.8903,0,16,16,76,1,,,,,,,
,,,,,,,67ab650c320eccf6141d4010,682f101bf0e4b38dc4acff71,2025-05-22_13h41.08.651,cuing_paradigm_dot,2024.1.5,Win32,60.24096386,682d573fa47f1360d1451895,,,,,,,,,,,197.891,198.3878,,,198.6372,198.7893,right,0.1345,,,,,,,,,0.55,,,,,,198.3878,198.6371,198.7893,"[0.014842140143013273,0.1799016187343403]","[1,1,1]","[-0.14079351439508722,0.05438252684219551]","[-1,-1,-1]","[-0.04324473295816123,-0.1633750455494356]","[-1,-1,-1]","[-0.12805045850645938,-0.011405747236481184]","[-1,-1,-1]","[0.12843644849212643,0.09635294554654818]","[-1,-1,-1]","[0.069344387430365,-0.17104059816240288]","[-1,-1,-1]","[0.00742077700240816,-0.02636913025319372]","[-1,-1,-1]","[0.006677440369866892,-0.13393781493041723]","[1,1,1]","[-0.184674705805101,-0.023362366826392193]","[-1,-1,-1]","[-0.18814569436603965,-0.0633079091341792]","[1,1,1]","[-0.062233156496474644,-0.06729091326633783]","[1,1,1]","[-0.07509427309608796,0.02818328761845003]","[-1,-1,-1]","[-0.1050406189286276,0.08088127584031413]","[1,1,1]","[0.16470236104419822,0.05407182300166584]","[1,1,1]","[-0.1044774162922025,-0.15356896244726564]","[-1,-1,-1]","[-0.1796498947655913,0.03518974683426128]","[1,1,1]","[0.08152850649407768,-0.08125857734068993]","[1,1,1]","[0.12217275101908746,0.15410240388152643]","[-1,-1,-1]","[0.12565093922238701,-0.13254802987511108]","[1,1,1]","[0.07921602086438756,0.11774879420940472]","[-1,-1,-1]","[-0.060439766936260506,-0.12420660933556982]","[-1,-1,-1]","[-0.0030129237350249778,0.09121177793919648]","[1,1,1]","[0.08550137298433423,0.023727587754403215]","[1,1,1]","[-0.08814148752461984,0.13826016757546455]","[1,1,1]","[0.048853432346609625,-0.00484650263779407]","[-1,-1,-1]","[0.12100556326422457,0.004688044197625244]","[1,1,1]","[0.05779040777157,-0.12089048549605806]","[1,1,1]","[0.0088541391830997,-0.0728402291659173]","[-1,-1,-1]","[0.16865236899937908,-0.02495058095009688]","[1,1,1]","[0.0963098017164181,-0.03721874258539232]","[1,1,1]","[0.18843080751394273,-0.06268978011859053]","[1,1,1]","[0.029214550591088632,0.04333124034273395]","[1,1,1]","[0.02,0.02]",199.8829,0,17,17,127,1,,,,,,,
,,,,,,,67ab650c320eccf6141d4010,682f101bf0e4b38dc4acff71,2025-05-22_13h41.08.651,cuing_paradigm_dot,2024.1.5,Win32,60.24096386,682d573fa47f1360d1451895,,,,,,,,,,,199.8838,200.3818,,,200.6219,200.6396,left,0.0013,,,,,,,,,0.45,,,,,,200.3819,200.6218,200.6397,"[-0.11639241003760797,-0.07870506607587346]","[1,1,1]","[-0.08763750631090607,0.11926225193734658]","[-1,-1,-1]","[0.1018814884677263,0.04640771775067137]","[-1,-1,-1]","[0.02768049387028594,0.04635841544494026]","[-1,-1,-1]","[0.18436427335780997,-0.04743628424356089]","[1,1,1]","[0.1140165888330659,-0.08739633125249267]","[-1,-1,-1]","[-0.09428703448552753,0.015506572931680345]","[1,1,1]","[-0.06161336377603971,0.057204152350073804]","[1,1,1]","[0.15937551815290657,0.031161392903997123]","[1,1,1]","[0.19451658126021462,0.010953440016785136]","[-1,-1,-1]","[-0.061578981817363355,-0.17573505553830168]","[-1,-1,-1]","[0.06487124041280881,0.12912971203300486]","[-1,-1,-1]","[-0.1559463667969993,-0.07140721069526867]","[1,1,1]","[-0.016241681527036853,-0.13386262503631507]","[1,1,1]","[-0.07515714010417454,0.1741502674330278]","[1,1,1]","[0.07160553231328541,-0.1529900449997636]","[-1,-1,-1]","[0.019745158695314163,-0.013799439641211704]","[1,1,1]","[-0.1488553111431264,0.021171286867680803]","[-1,-1,-1]","[-0.13425235345651507,-0.14003380019242287]","[-1,-1,-1]","[0.1336486504928642,-0.04779836654716463]","[-1,-1,-1]","[-0.14632707405913586,-0.02132721690494]","[-1,-1,-1]","[0.11659321289577067,-0.143352019541955]","[-1,-1,-1]","[-0.10914301390492868,0.05291331111175951]","[1,1,1]","[-0.033780861232169467,0.13991497469087563]","[-1,-1,-1]","[0.15728561701451677,0.08167793609974232]","[-1,-1,-1]","[0.035570953010622464,-0.1220401114025907]","[-1,-1,-1]","[-0.06489833696092111,-0.12563724279983227]","[1,1,1]","[-0.13949489064575538,0.08592346620641857]","[1,1,1]","[-0.1882835637763412,0.008493749069575283]","[1,1,1]","[0.04068812315486414,-0.05748076548488211]","[-1,-1,-1]","[-0.013569422853688926,-0.06170312772711414]","[1,1,1]","[-0.03780356162873387,0.01782102965050591]","[-1,-1,-1]","[0.02,0.02]",201.7304,0,18,18,84,1,,,,,,,
,,,,,,,67ab650c320eccf6141d4010,682f101bf0e4b38dc4acff71,2025-05-22_13h41.08.651,cuing_paradigm_dot,2024.1.5,Win32,60.24096386,682d573fa47f1360d1451895,,,,,,,,,,,201.7315,202.2305,,,202.4809,202.5975,left,0.1008,,,,,,,,,0.45,,,,,,202.2305,202.4808,202.5976,"[0.08123845517879331,0.032762500216175466]","[-1,-1,-1]","[-0.11993973586586039,0.04446212427707046]","[-1,-1,-1]","[0.1419501204240185,0.044597939812290946]","[-1,-1,-1]","[-0.07824444637722745,-0.1649792635044903]","[-1,-1,-1]","[0.10221014202937785,0.15254283253168394]","[1,1,1]","[0.11629721643282613,-0.11839347823524182]","[-1,-1,-1]","[-0.185086023354492,-0.027670693787085695]","[1,1,1]","[0.06746059998063852,-0.1590069896508299]","[-1,-1,-1]","[0.14287400757033913,-0.06729370843696537]","[-1,-1,-1]","[0.04848423499160751,-0.10106650971265821]","[1,1,1]","[-0.004120864918016423,0.15998708888505744]","[-1,-1,-1]","[-0.007949508983388861,0.1093775240441142]","[-1,-1,-1]","[0.0015892360559154187,-0.12625243712944723]","[1,1,1]","[-0.1607214017108221,0.03786704209061158]","[-1,-1,-1]","[-0.05087554411232008,-0.028017435916274328]","[1,1,1]","[-0.1219746642245356,-0.07619553139595908]","[-1,-1,-1]","[-0.13227905387147285,-0.03092764739905501]","[-1,-1,-1]","[-0.05900150628773731,0.01807498423144359]","[-1,-1,-1]","[0.04425740799914405,0.0014192646048684465]","[-1,-1,-1]","[0.054284039045509415,0.08891108366954514]","[1,1,1]","[-0.06036933755846133,-0.10331667121972973]","[1,1,1]","[-0.011784303204781582,0.005298169822552334]","[1,1,1]","[-0.13410377860074807,-0.13678254983427093]","[1,1,1]","[-0.1254152382101894,0.1393642740025605]","[1,1,1]","[-0.0172336225948209,-0.1675550627214959]","[-1,-1,-1]","[-0.06314438472839244,0.1370633494979097]","[-1,-1,-1]","[-0.021042860495747055,-0.05469949583489805]","[-1,-1,-1]","[-0.05106742784966061,0.06628002710477249]","[1,1,1]","[0.010571968949479699,0.054750994511515966]","[1,1,1]","[0.09012739987221031,-0.024452200788963176]","[1,1,1]","[0.1487181391877736,-0.012910607170855175]","[-1,-1,-1]","[-0.09960407488828878,0.0895584779405651]","[1,1,1]","[0.02,0.02]",203.6968,0,19,19,75,1,,,,,,,
,,,,,,,67ab650c320eccf6141d4010,682f101bf0e4b38dc4acff71,2025-05-22_13h41.08.651,cuing_paradigm_dot,2024.1.5,Win32,60.24096386,682d573fa47f1360d1451895,,,,,,,,,,,203.6978,204.1981,,,204.4445,205.6841,right,1.229,,,,,,,,,0.55,,,,,,204.1982,204.4445,205.6842,"[-0.12282033096739246,-0.09259158713487389]","[1,1,1]","[0.1719499801330348,0.09599198301904038]","[1,1,1]","[0.006056225374209068,0.11149272592790187]","[1,1,1]","[-0.09441050341310216,-0.030172601556285622]","[-1,-1,-1]","[-0.06900416878009823,0.14955265423963987]","[1,1,1]","[0.002642345018229709,-0.12828766995433902]","[1,1,1]","[0.13179757639607964,0.013337634089168863]","[1,1,1]","[0.07972009021429105,0.10827357968041997]","[1,1,1]","[0.04743081650320309,-0.13754747159228745]","[1,1,1]","[0.1815328037862631,-0.08110360982858439]","[-1,-1,-1]","[0.03520414189352037,-0.07421301716997594]","[1,1,1]","[-0.12875643833253653,0.11353704499662687]","[-1,-1,-1]","[-0.0317269001266751,-0.17478238023890702]","[-1,-1,-1]","[0.13355409034684695,0.0714781651295648]","[-1,-1,-1]","[-0.16479946007704785,0.07132345516763818]","[-1,-1,-1]","[-0.10417166258344318,-0.13470701180834047]","[1,1,1]","[0.19029502747952487,0.03673197203488087]","[-1,-1,-1]","[0.12810971682393096,-0.13773688539555826]","[-1,-1,-1]","[0.07233124649964308,0.05568714916335854]","[-1,-1,-1]","[-0.15393637090882134,-0.017026406886768184]","[1,1,1]","[-0.07239598733701354,0.1016256657120052]","[-1,-1,-1]","[0.19736877260115654,-0.021922598803285096]","[-1,-1,-1]","[0.07245936405677837,0.1833586149976429]","[1,1,1]","[-0.1617900349521871,-0.065742801974235]","[1,1,1]","[0.08554077286807786,0.014420000935938017]","[1,1,1]","[0.043848457643748534,0.15285123917337312]","[1,1,1]","[-0.06353591454681234,-0.10421301645305103]","[-1,-1,-1]","[-0.041188578787560555,0.027973985384071857]","[-1,-1,-1]","[0.11708758412607215,0.1601607687361217]","[1,1,1]","[0.026315940904682866,-0.17580949056523593]","[1,1,1]","[0.08748098832041125,-0.03575512384324096]","[1,1,1]","[-0.010976184702350697,0.070317782922242]","[-1,-1,-1]","[0.02,0.02]",206.7857,0,20,20,129,1,,,,,,,
,,,,,,,67ab650c320eccf6141d4010,682f101bf0e4b38dc4acff71,2025-05-22_13h41.08.651,cuing_paradigm_dot,2024.1.5,Win32,60.24096386,682d573fa47f1360d1451895,,,,,,,,,,,206.7867,207.2689,,,207.5139,207.5307,left,0.0009,,,,,,,,,0.4,,,,,,207.2689,207.5139,207.5307,"[-0.11338325882437822,-0.1426459257662041]","[-1,-1,-1]","[0.15600196413274225,-0.05009447878566316]","[-1,-1,-1]","[0.026643851762386355,-0.1768295272924451]","[1,1,1]","[-0.037780647822106876,-0.10772025819163576]","[-1,-1,-1]","[0.1157785487179915,-0.0813510805227903]","[-1,-1,-1]","[0.0033248354591478963,-0.006104140860544387]","[-1,-1,-1]","[0.15900251997092354,0.030768416325795543]","[1,1,1]","[0.0837217150172064,0.10838917144643102]","[1,1,1]","[0.10328442746365349,0.05855065685548349]","[1,1,1]","[-0.1795815633211586,0.022904849634141956]","[-1,-1,-1]","[-0.12169672965775209,-0.0346232363714502]","[-1,-1,-1]","[0.0704412452621994,-0.1397147002434477]","[1,1,1]","[-0.16967320073982653,-0.02742151098584253]","[1,1,1]","[-0.05855088066313973,0.1780195463703689]","[-1,-1,-1]","[0.11219613735212405,-0.16072729823978574]","[1,1,1]","[0.14831468975988266,-0.11615968419359868]","[-1,-1,-1]","[-0.12965199770619776,0.04699977151748249]","[-1,-1,-1]","[-0.02779398951097798,0.09592180448501614]","[1,1,1]","[-0.019908046874790215,-0.1523203419219082]","[-1,-1,-1]","[-0.06302727373759062,-0.034090745276480275]","[-1,-1,-1]","[-0.1501471767000297,0.12813366952311372]","[1,1,1]","[0.0611282257309003,0.18832341249220313]","[-1,-1,-1]","[-0.06904384260043683,-0.14415284986613283]","[-1,-1,-1]","[0.08563226846682499,-0.0526617509953638]","[-1,-1,-1]","[-0.05392642486225235,-0.18269842752519994]","[1,1,1]","[-0.1373657159311903,0.006172366551145374]","[-1,-1,-1]","[0.011503225478580419,-0.1229050367903798]","[1,1,1]","[-0.0558948662967725,0.022503216391056034]","[1,1,1]","[-0.013109140668109398,-0.0614720700171599]","[-1,-1,-1]","[0.15772612103153988,0.1153814753810983]","[-1,-1,-1]","[0.16564981337743329,0.07488776826686393]","[1,1,1]","[0.057807732801791696,-0.1005100854081329]","[-1,-1,-1]","[0.02,0.02]",208.6298,0,21,21,48,1,,,,,,,
,,,,,,,67ab650c320eccf6141d4010,682f101bf0e4b38dc4acff71,2025-05-22_13h41.08.651,cuing_paradigm_dot,2024.1.5,Win32,60.24096386,682d573fa47f1360d1451895,,,,,,,,,,,208.6307,209.1297,,,209.3803,210.1641,left,0.7675,,,,,,,,,0.5,,,,,,209.1298,209.3803,210.1641,"[-0.016123067542214927,-0.1302429349340567]","[-1,-1,-1]","[-0.1444069190595931,-0.017270960734728724]","[1,1,1]","[-0.08124190886680142,-0.14382331302369358]","[-1,-1,-1]","[-0.062098038959118654,0.1237257003267008]","[1,1,1]","[0.08754915578701994,0.11009484726959468]","[-1,-1,-1]","[-0.08364099659620755,-0.015858280937201708]","[-1,-1,-1]","[-0.12461812766715814,0.11833150518612251]","[1,1,1]","[-0.07028342293694824,0.045772937722934386]","[-1,-1,-1]","[-0.03300747126293473,0.07857066313458388]","[1,1,1]","[0.07936842322249249,-0.04573225419917779]","[-1,-1,-1]","[0.14346763387252737,0.03301214007178803]","[-1,-1,-1]","[0.11446128961436441,-0.14039862083857246]","[-1,-1,-1]","[-0.1595800462372118,0.04936642951234413]","[-1,-1,-1]","[0.11748758318005736,-0.0032263718886787686]","[1,1,1]","[-0.028026527092757846,-0.06251477809919785]","[-1,-1,-1]","[0.10728698287584039,0.14691564382532737]","[1,1,1]","[0.16832211180607362,0.10389468739184204]","[1,1,1]","[0.10690024526732751,-0.10016543138084837]","[1,1,1]","[-0.0525698272673927,0.16333853245599636]","[-1,-1,-1]","[-0.033140370847332304,-0.1774839711010219]","[-1,-1,-1]","[-0.1327574915845423,-0.11430324839696833]","[1,1,1]","[0.07633219252752085,0.014979996074128078]","[1,1,1]","[-0.0006841508761478616,0.13501359192957652]","[1,1,1]","[-0.10839642568490364,0.0688645301544212]","[-1,-1,-1]","[0.03021247770782394,0.08162921895644777]","[-1,-1,-1]","[0.17571153527770045,-0.0051608691498322545]","[-1,-1,-1]","[0.03856546620031891,0.16168467964245825]","[1,1,1]","[-0.148756211131363,-0.06486441208086785]","[1,1,1]","[-0.007934674111113597,0.014489635620129363]","[1,1,1]","[0.051240989991864085,-0.1357439833079604]","[1,1,1]","[-0.04670860038606259,0.0005272862296141352]","[-1,-1,-1]","[-0.06886913288274342,-0.10386829447795332]","[1,1,1]","[0.02,0.02]",211.2541,0,22,22,113,1,,,,,,,
,,,,,,,67ab650c320eccf6141d4010,682f101bf0e4b38dc4acff71,2025-05-22_13h41.08.651,cuing_paradigm_dot,2024.1.5,Win32,60.24096386,682d573fa47f1360d1451895,,,,,,,,,,,211.2551,211.7483,,,211.9971,212.0802,left,0.0688,,,,,,,,,0.4,,,,,,211.7485,211.997,212.0803,"[-0.0012799745140288428,0.1779372824907105]","[-1,-1,-1]","[-0.015460587286960632,0.10715971614400241]","[1,1,1]","[-0.048809448702401455,0.030544521417686765]","[-1,-1,-1]","[0.10636493013795466,-0.02232077159577507]","[-1,-1,-1]","[-0.12950412192312913,-0.14123026850046277]","[1,1,1]","[0.03317780874660894,0.15490763019704282]","[1,1,1]","[-0.1497177374125559,0.10704670876382676]","[-1,-1,-1]","[0.10201265899041984,-0.06823021689989468]","[-1,-1,-1]","[-0.10839026343743303,0.06513194215278255]","[1,1,1]","[-0.10871231212435319,-0.016046039168495778]","[1,1,1]","[0.041206201039504904,-0.12574044461083123]","[-1,-1,-1]","[-0.11788174439483452,-0.05644950418225103]","[-1,-1,-1]","[-0.04672143270501759,-0.13299601238069192]","[1,1,1]","[0.16676472247824747,-0.06250740748614175]","[1,1,1]","[-0.18602064088437456,-0.042555406855998304]","[-1,-1,-1]","[0.028177482287333227,-0.18013453011954592]","[-1,-1,-1]","[-0.016059911874969163,-0.1068617444823603]","[-1,-1,-1]","[-0.132640683726163,0.02423946013708491]","[-1,-1,-1]","[0.17224863205684984,0.0001471878745869736]","[1,1,1]","[-0.017683898948382105,-0.0517418020574882]","[-1,-1,-1]","[-0.04864054390979348,0.13104777539548854]","[-1,-1,-1]","[-0.06536404186242191,0.07596743249145117]","[-1,-1,-1]","[-0.024701321373761416,-0.17920345771678262]","[-1,-1,-1]","[-0.0909029489695069,-0.10916841076837537]","[-1,-1,-1]","[0.1386956474297748,-0.13513326183621907]","[1,1,1]","[0.0651346797260518,-0.08729085843534207]","[1,1,1]","[0.12843439844328214,0.1462852225179496]","[1,1,1]","[-0.08974025434158255,0.15806211411609045]","[1,1,1]","[-0.17365303163583748,-0.08448755251167239]","[-1,-1,-1]","[0.09838744225951072,0.04985191033795548]","[1,1,1]","[0.07859696252151344,-0.14981664110527868]","[-1,-1,-1]","[0.04092018525270919,-0.008751046342975204]","[-1,-1,-1]","[0.02,0.02]",213.1707,0,23,23,31,1,,,,,,,
,,,,,,,67ab650c320eccf6141d4010,682f101bf0e4b38dc4acff71,2025-05-22_13h41.08.651,cuing_paradigm_dot,2024.1.5,Win32,60.24096386,682d573fa47f1360d1451895,,,,,,,,,,,213.1718,213.6663,,,213.9059,214.005,right,0.0844,,,,,,,,,0.6,,,,,,213.6664,213.9058,214.0051,"[-0.09060709648949838,0.1045991011583103]","[1,1,1]","[0.17935984849404227,-0.06507571764998482]","[1,1,1]","[-0.08699057935259552,-0.004973071641760511]","[-1,-1,-1]","[0.08644614404364119,0.0336753593914907]","[1,1,1]","[0.06299951193562665,-0.10364927864577692]","[1,1,1]","[-0.09382699027788101,-0.06182613340092557]","[1,1,1]","[-0.06223075157572985,0.15628363330591893]","[1,1,1]","[0.0007910184304249111,-0.019434805895590334]","[1,1,1]","[-0.09719299917017162,-0.16994398599303087]","[-1,-1,-1]","[0.030748695444618324,-0.07549300137760899]","[-1,-1,-1]","[0.040494227628934246,-0.03019723653530329]","[1,1,1]","[0.10801946989176862,-0.05233639489791662]","[1,1,1]","[-0.029207652905626668,0.06674206760674811]","[-1,-1,-1]","[0.01573989410329533,0.14359917760231636]","[-1,-1,-1]","[0.1333636937862274,0.14143492939687624]","[-1,-1,-1]","[-0.14544407454513725,-0.07273763636938803]","[1,1,1]","[-0.14592779389419178,0.0887810226382217]","[1,1,1]","[0.06686268832183889,0.14781807734909896]","[1,1,1]","[-0.18918127124723738,-0.006375739993226427]","[-1,-1,-1]","[0.13154120662599772,-0.009090008928250862]","[1,1,1]","[-0.0029981847772479068,0.17895768563990885]","[1,1,1]","[-0.17898629418412143,0.06519736477246536]","[-1,-1,-1]","[0.12466839815298944,0.07830726730598278]","[1,1,1]","[-0.0408120076188874,-0.07030476728929236]","[-1,-1,-1]","[0.022551983720793995,0.09563450437261166]","[1,1,1]","[0.005802732065048919,-0.13617573217148674]","[-1,-1,-1]","[0.13304013603989054,-0.14660636549660783]","[1,1,1]","[0.02707573335059834,-0.1853930253618821]","[-1,-1,-1]","[-0.11010696436664838,-0.1170075890926873]","[-1,-1,-1]","[-0.07401421488724859,-0.13689672028797908]","[-1,-1,-1]","[-0.1499967769813007,0.030471314160375726]","[1,1,1]","[0.08617128890665791,0.09069830866860189]","[1,1,1]","[0.02,0.02]",215.1039,0,24,24,176,1,,,,,,,
,,,,,,,67ab650c320eccf6141d4010,682f101bf0e4b38dc4acff71,2025-05-22_13h41.08.651,cuing_paradigm_dot,2024.1.5,Win32,60.24096386,682d573fa47f1360d1451895,,,,,,,,,,,215.1045,215.5542,,,215.8046,216.6879,left,0.867,,,,,,,,,0.6,,,,,,215.5542,215.8045,216.688,"[0.03299324800710286,0.03154058793756794]","[1,1,1]","[-0.003892333888871589,0.07938744355287307]","[1,1,1]","[0.014074397524984046,0.13269477367810284]","[1,1,1]","[-0.11247822826213556,0.16524222325601604]","[-1,-1,-1]","[0.12619209888224134,0.02759388342178412]","[1,1,1]","[0.11186441472699613,-0.10434390776623181]","[-1,-1,-1]","[0.012997518256002335,-0.1844945015044945]","[1,1,1]","[0.08355630883704013,0.16650909302257969]","[1,1,1]","[0.07441977205862729,-0.009357851055401946]","[-1,-1,-1]","[0.19840290130542232,-0.007544082365755498]","[-1,-1,-1]","[0.08472380044937057,-0.15977604777777463]","[-1,-1,-1]","[-0.030384783460506676,-0.1674480457330993]","[-1,-1,-1]","[-0.1660684732791793,-0.07411624631116495]","[-1,-1,-1]","[0.041821053014240404,-0.10420352743603593]","[1,1,1]","[0.13901478461068556,-0.05229202326828028]","[-1,-1,-1]","[0.08240559573977364,0.048725135487113054]","[1,1,1]","[-0.004588556796091407,-0.08271699097588202]","[1,1,1]","[-0.030272007296332785,0.15503996919413493]","[-1,-1,-1]","[0.08167925552197457,-0.05718133216032397]","[-1,-1,-1]","[-0.11460227800890892,-0.12199854676815591]","[1,1,1]","[-0.1503017035393265,0.1133802374693251]","[1,1,1]","[0.16722678111737377,-0.09780307078927948]","[1,1,1]","[-0.16513389055944686,-0.008844658263180045]","[1,1,1]","[0.13373895370206237,0.1199588726653589]","[-1,-1,-1]","[-0.12379288922625231,-0.05381655715716734]","[-1,-1,-1]","[-0.08824042915899181,-0.1786982122873747]","[1,1,1]","[-0.1669280371962175,0.03311652265859577]","[1,1,1]","[-0.0517964536832545,-0.06832505910106301]","[1,1,1]","[-0.054022483612075144,0.072289741823813]","[1,1,1]","[-0.06808282508067896,0.1751537655113458]","[-1,-1,-1]","[0.014944314756783322,-0.033575510816866896]","[1,1,1]","[0.05501061509988852,0.10696889889456572]","[1,1,1]","[0.02,0.02]",217.7814,0,25,25,165,1,,,,,,,
,,,,,,,67ab650c320eccf6141d4010,682f101bf0e4b38dc4acff71,2025-05-22_13h41.08.651,cuing_paradigm_dot,2024.1.5,Win32,60.24096386,682d573fa47f1360d1451895,,,,,,,,,,,217.7819,218.2703,,,218.5337,218.6654,left,0.1162,,,,,,,,,0.55,,,,,,218.2704,218.5336,218.6656,"[0.023080663121837836,0.07096859934415396]","[1,1,1]","[0.1681637998435032,-0.04208629429960005]","[1,1,1]","[0.08312014263799693,-0.04873881086472119]","[1,1,1]","[0.029137158398796152,0.01054259904583765]","[-1,-1,-1]","[-0.0672928950291194,-0.1439637171173486]","[1,1,1]","[0.1285642634925206,-0.07306959620554326]","[-1,-1,-1]","[0.08170893258924918,0.013971890929651317]","[-1,-1,-1]","[0.03682296626167049,-0.13153640823864018]","[1,1,1]","[-0.00519019966892975,-0.10942871074286432]","[1,1,1]","[-0.03826164535211934,0.1654628821124074]","[-1,-1,-1]","[-0.07085588971166876,-0.036762663221756746]","[1,1,1]","[0.09862079334055454,0.08505901533185671]","[-1,-1,-1]","[-0.13807299891923597,-0.12521505957065215]","[-1,-1,-1]","[-0.023045805734165717,0.007286852350315867]","[-1,-1,-1]","[-0.18334819515246628,-0.038770073831483315]","[1,1,1]","[0.17265562081702812,0.044827846181521004]","[-1,-1,-1]","[0.03871654380511355,0.16032740657121455]","[-1,-1,-1]","[0.006928837817559107,0.12640774195067447]","[1,1,1]","[-0.1547278552363731,0.026618081717641837]","[1,1,1]","[0.09252318859226312,-0.14508463133195362]","[1,1,1]","[0.05909506364569922,0.11720658272167968]","[-1,-1,-1]","[-0.07009806140875172,-0.18456575462401578]","[1,1,1]","[-0.001373844589131628,-0.05327108276216341]","[1,1,1]","[0.02284927411201158,-0.18600703125037474]","[1,1,1]","[0.08812776496474495,0.15598637039243932]","[1,1,1]","[-0.09660023146240933,-0.003932569361780365]","[1,1,1]","[-0.12717482424739554,0.12248838422184968]","[1,1,1]","[-0.09649572318270166,-0.11406923319485171]","[-1,-1,-1]","[0.1606202229335901,-0.10757477805723319]","[-1,-1,-1]","[-0.049991340931527094,-0.07408534728518193]","[1,1,1]","[0.16818242126507318,0.0038270069416837813]","[-1,-1,-1]","[-0.15387597273796438,-0.08430405573818132]","[-1,-1,-1]","[0.02,0.02]",219.77,0,26,26,133,1,,,,,,,
,,,,,,,67ab650c320eccf6141d4010,682f101bf0e4b38dc4acff71,2025-05-22_13h41.08.651,cuing_paradigm_dot,2024.1.5,Win32,60.24096386,682d573fa47f1360d1451895,,,,,,,,,,,219.7709,220.269,,,220.5509,221.2882,left,0.7176,,,,,,,,,0.5,,,,,,220.2692,220.5509,221.2882,"[-0.0728682385815741,-0.08565039355432036]","[-1,-1,-1]","[0.0995326176671382,-0.14327599397932658]","[1,1,1]","[-0.0062698375382143215,0.053037861284433385]","[-1,-1,-1]","[0.0346112601084491,-0.17427522609087165]","[-1,-1,-1]","[-0.1292188112676073,0.1305562723049097]","[1,1,1]","[-0.008891758561135948,0.12819193679091748]","[-1,-1,-1]","[0.0901167179769382,-0.05415402530558882]","[-1,-1,-1]","[-0.0811254357442659,0.04263270472796406]","[-1,-1,-1]","[-0.08271166000010625,-0.15282167378539477]","[1,1,1]","[0.09088387374738123,0.13329984625375532]","[-1,-1,-1]","[-0.06732352378545349,-0.03546767883539025]","[1,1,1]","[0.052624002228761575,0.014221225129640112]","[1,1,1]","[0.05065521138977959,-0.09027654806018832]","[-1,-1,-1]","[0.0751490613361475,0.06664402519892858]","[1,1,1]","[0.19530448884160478,0.0370481539967714]","[1,1,1]","[0.16941357176067848,-0.08522170900047163]","[1,1,1]","[-0.018943615588797105,-0.0943980812205869]","[1,1,1]","[-0.05183090589546375,-0.18440281939878228]","[1,1,1]","[-0.10718394369139489,0.09338167591568007]","[1,1,1]","[-0.0785797358310604,0.18102309334836186]","[1,1,1]","[-0.013764423677116965,-0.13799143924441767]","[-1,-1,-1]","[0.04983892881352718,0.10279191216484156]","[1,1,1]","[-0.11742690498520293,0.00902670748982538]","[-1,-1,-1]","[-0.17237125895489327,0.0016742360960399156]","[1,1,1]","[-0.1670143669078142,-0.08217748936201609]","[-1,-1,-1]","[0.1413850145655656,0.0034820039213212094]","[-1,-1,-1]","[-0.1497333298189999,0.040724449472702505]","[1,1,1]","[0.15977102650534653,0.07869360190586173]","[1,1,1]","[-0.1339747799006438,-0.13792705932385027]","[-1,-1,-1]","[0.09120601228927981,0.0029052236276442883]","[-1,-1,-1]","[0.010144694264667553,-0.023968970300778613]","[-1,-1,-1]","[0.1233742352971691,-0.09633125522497264]","[-1,-1,-1]","[0.02,0.02]",222.3819,0,27,27,95,1,,,,,,,
,,,,,,,67ab650c320eccf6141d4010,682f101bf0e4b38dc4acff71,2025-05-22_13h41.08.651,cuing_paradigm_dot,2024.1.5,Win32,60.24096386,682d573fa47f1360d1451895,,,,,,,,,,,222.3828,222.8863,,,223.1318,223.2484,right,0.1038,,,,,,,,,0.6,,,,,,222.8864,223.1318,223.2484,"[-0.15080555409734495,0.06127377633194942]","[-1,-1,-1]","[-0.0031646612759659966,-0.11481659733454501]","[-1,-1,-1]","[0.0693363937916237,-0.1763870013933401]","[1,1,1]","[-0.1351443522211542,0.11448072963420725]","[1,1,1]","[0.018413790822729544,-0.1908419591288757]","[1,1,1]","[0.10175760718679251,-0.09337384898969427]","[-1,-1,-1]","[0.07134980867250967,0.020483103289698705]","[1,1,1]","[0.05134080498281915,0.10702231064488153]","[-1,-1,-1]","[0.13342578189414678,0.043970583274377514]","[-1,-1,-1]","[-0.010232267945648221,0.06462767465778142]","[1,1,1]","[0.02934903074246658,-0.04138746547606287]","[1,1,1]","[-0.021474256792246973,0.10553177074366087]","[1,1,1]","[0.17499696448882449,0.051814089067142126]","[-1,-1,-1]","[-0.077209502630773,-0.06509490148506421]","[1,1,1]","[-0.060331864081597665,0.08492431263199332]","[-1,-1,-1]","[0.09430696196315637,-0.04261690401780186]","[-1,-1,-1]","[-0.03339866772046098,-0.009720710367505494]","[-1,-1,-1]","[0.15981774805320373,-0.054674656794859666]","[1,1,1]","[-0.17226704421226613,0.01606897214479162]","[-1,-1,-1]","[-0.030766745992062836,0.18824811209856201]","[1,1,1]","[-0.017378783175427744,-0.07119189585486733]","[1,1,1]","[-0.09235806275537925,-0.025348575600766175]","[1,1,1]","[0.16045869865951615,-0.10295593434991811]","[1,1,1]","[-0.08663595493197937,-0.10505676027387058]","[1,1,1]","[0.15189018182962397,0.08635777374517023]","[1,1,1]","[-0.07682525483351316,0.1575993264968665]","[-1,-1,-1]","[0.12102233942900432,-0.1466750449084796]","[1,1,1]","[0.03027478856702328,0.05765350627204124]","[1,1,1]","[-0.14550352918493997,-0.11626554488588528]","[-1,-1,-1]","[0.15924658438658443,-0.007161206430836802]","[1,1,1]","[0.01748377185655762,0.13505104340166774]","[1,1,1]","[-0.02454541292110841,-0.1803216291069873]","[-1,-1,-1]","[0.02,0.02]",224.3465,0,28,28,172,1,,,,,,,
,,,,,,,67ab650c320eccf6141d4010,682f101bf0e4b38dc4acff71,2025-05-22_13h41.08.651,cuing_paradigm_dot,2024.1.5,Win32,60.24096386,682d573fa47f1360d1451895,,,,,,,,,,,224.3481,224.8468,,,225.0886,225.371,right,0.2674,,,,,,,,,0.1,,,,,,224.8471,225.0885,225.3711,"[-0.0195017916976962,-0.007915728720154945]","[-1,-1,-1]","[0.005829277778776854,-0.18087921548102265]","[-1,-1,-1]","[0.06543313268289974,0.16327132476406594]","[-1,-1,-1]","[-0.0958138101470467,0.07096207093959646]","[-1,-1,-1]","[0.013771752389876993,-0.08244753570196012]","[-1,-1,-1]","[-0.15513661794531677,-0.1260254894504411]","[-1,-1,-1]","[-0.13535554073256292,0.14356963019795538]","[-1,-1,-1]","[-0.10412785863449732,0.019196222650875363]","[-1,-1,-1]","[-0.044185054108252374,0.057865557646950366]","[-1,-1,-1]","[-0.00897038727043172,0.15339924346483694]","[-1,-1,-1]","[0.05726349476314235,0.06233115644441899]","[-1,-1,-1]","[0.12716809740772583,0.03956186846679593]","[-1,-1,-1]","[-0.18255102577551655,-0.020326591694133162]","[-1,-1,-1]","[0.060167182692356914,0.010342966529874894]","[-1,-1,-1]","[-0.1628801691817372,-0.06157438200649126]","[1,1,1]","[-0.055350180932273646,-0.11856562151380605]","[-1,-1,-1]","[0.09381992894781162,-0.0756320665946058]","[-1,-1,-1]","[0.14972336740683867,-0.08399322403628048]","[1,1,1]","[-0.15084824774603683,0.055096909120256776]","[-1,-1,-1]","[-0.17496146144995367,0.02084251846569037]","[-1,-1,-1]","[0.033555991306785056,-0.13205003817995703]","[-1,-1,-1]","[0.11247234226322296,0.1050401825358179]","[-1,-1,-1]","[0.17018300103994952,0.09040773685666273]","[-1,-1,-1]","[0.031343343002841195,0.10344771349337668]","[-1,-1,-1]","[-0.05288457133211446,-0.0479222977582393]","[-1,-1,-1]","[0.1166739351998988,-0.16236936285532028]","[-1,-1,-1]","[0.02578288646887252,0.03458682464345706]","[-1,-1,-1]","[0.05580316944048137,-0.091741259054824]","[-1,-1,-1]","[0.02061858207575097,-0.035336323059414115]","[-1,-1,-1]","[0.18553179464575914,-0.035753150794402395]","[-1,-1,-1]","[0.08116614316778277,-0.026254812588980766]","[-1,-1,-1]","[0.1614049439174701,0.001678024637471359]","[1,1,1]","[0.02,0.02]",226.4694,0,29,29,16,1,,,,,,,
,,,,,,,67ab650c320eccf6141d4010,682f101bf0e4b38dc4acff71,2025-05-22_13h41.08.651,cuing_paradigm_dot,2024.1.5,Win32,60.24096386,682d573fa47f1360d1451895,,,,,,,,,,,226.4704,226.9702,,,227.2167,227.9426,right,0.7193,,,,,,,,,0.45,,,,,,226.9703,227.2167,227.9426,"[0.14294202211254428,0.04690636266801763]","[-1,-1,-1]","[0.06280028542405237,-0.1735640957233544]","[-1,-1,-1]","[0.07432634835175748,0.13086301150273288]","[-1,-1,-1]","[-0.01566930986308642,0.09884014255170115]","[-1,-1,-1]","[-0.10456737715085411,-0.14858917992056614]","[1,1,1]","[-0.058119955744819755,-0.008035832023231451]","[1,1,1]","[0.18676361901854754,0.003008333616695509]","[-1,-1,-1]","[-0.015084271007596762,0.1838569011907763]","[-1,-1,-1]","[0.05053407907940819,0.008869604567593297]","[-1,-1,-1]","[-0.12216615910113506,0.04125056054015417]","[1,1,1]","[-0.15067659505240152,-0.12798154456609936]","[-1,-1,-1]","[0.04241982385939647,-0.13137154031404738]","[1,1,1]","[0.1716410226632452,-0.09694175392870424]","[-1,-1,-1]","[0.09506134476806671,0.013818303388710353]","[1,1,1]","[0.1079228522991489,0.16016265330400464]","[-1,-1,-1]","[0.11205418980533198,-0.03080023735479448]","[-1,-1,-1]","[0.12378116954548876,-0.08595684796619596]","[1,1,1]","[-0.16021673942691475,0.10127222616896503]","[-1,-1,-1]","[0.17672141657590887,0.07653722261373096]","[1,1,1]","[-0.15688681842870567,-0.06512005102979171]","[-1,-1,-1]","[0.10526584046011177,0.06702246584494102]","[1,1,1]","[-0.000672958657357947,-0.068760651956946]","[-1,-1,-1]","[-0.04963910062476895,-0.06809223448522261]","[-1,-1,-1]","[-0.07803848779212869,0.042905170279988296]","[-1,-1,-1]","[-0.07449024843453678,0.11215591965273988]","[1,1,1]","[0.018403034881567665,0.14557667572913474]","[1,1,1]","[-0.05448712623359877,-0.140340216715861]","[1,1,1]","[-0.0004810206622114459,-0.12760787589056466]","[1,1,1]","[-0.09398921442943972,-0.1027051412829902]","[-1,-1,-1]","[-0.014740338566938177,-0.015234160285989744]","[1,1,1]","[-0.0358267906006966,-0.1956959535310432]","[1,1,1]","[-0.11560863553799268,-0.04707424361015214]","[-1,-1,-1]","[0.02,0.02]",229.0359,0,30,30,70,1,,,,,,,
,,,,,,,67ab650c320eccf6141d4010,682f101bf0e4b38dc4acff71,2025-05-22_13h41.08.651,cuing_paradigm_dot,2024.1.5,Win32,60.24096386,682d573fa47f1360d1451895,,,,,,,,,,,229.0367,229.5359,,,229.7868,229.8536,left,0.0512,,,,,,,,,0.1,,,,,,229.536,229.7867,229.8536,"[-0.1453053653633444,0.011446961136752722]","[-1,-1,-1]","[-0.08884196824902021,-0.010318726545570664]","[-1,-1,-1]","[-0.04252317698407419,0.05557877575470793]","[-1,-1,-1]","[0.06440109136244081,-0.11167376004849884]","[1,1,1]","[0.009181123388897294,0.1624753721913522]","[-1,-1,-1]","[0.042996555187249194,0.08508589099258465]","[-1,-1,-1]","[-0.04224754861030713,-0.1416453211281808]","[-1,-1,-1]","[0.009265727262510293,-0.013785350866085266]","[-1,-1,-1]","[-0.16327943813484977,-0.03840880735595752]","[-1,-1,-1]","[0.10490677788090705,0.10189109644361899]","[-1,-1,-1]","[-0.10735659712621722,0.16466212303804298]","[-1,-1,-1]","[0.07466745387328337,0.052637596991393344]","[-1,-1,-1]","[0.08062742571811155,0.13884943007434786]","[-1,-1,-1]","[-0.17876207904125388,0.07030940098850443]","[-1,-1,-1]","[0.14458589144696132,-0.008142736316112148]","[-1,-1,-1]","[0.17979306366666703,0.01694165358889843]","[-1,-1,-1]","[-0.10361114982771134,0.10223583509787623]","[1,1,1]","[-0.03379468953412019,0.16870352245436976]","[-1,-1,-1]","[-0.16477793765850757,-0.11125847354728167]","[-1,-1,-1]","[0.14543836881804637,-0.10108424014479334]","[-1,-1,-1]","[-0.10753341078473105,-0.06371083582676558]","[-1,-1,-1]","[-0.060000958619220716,0.10878344012486464]","[1,1,1]","[0.1413944336368248,0.06941914028336058]","[-1,-1,-1]","[0.09908061969438496,-0.16011148281780854]","[-1,-1,-1]","[0.039981631027989954,0.022918240348203715]","[-1,-1,-1]","[-0.00350179648883279,-0.1527788396525181]","[-1,-1,-1]","[0.12127044326764275,-0.06343426256378579]","[-1,-1,-1]","[0.019794954509088223,-0.0991474286756003]","[-1,-1,-1]","[-0.11853887331892903,0.044818316444234146]","[-1,-1,-1]","[-0.05837355597026194,-0.04304555967197318]","[-1,-1,-1]","[-0.02030372111541238,0.12079621457141204]","[-1,-1,-1]","[-0.07887823592689179,-0.10057120230547162]","[-1,-1,-1]","[0.02,0.02]",230.9488,0,31,31,12,1,,,,,,,
,,,,,,,67ab650c320eccf6141d4010,682f101bf0e4b38dc4acff71,2025-05-22_13h41.08.651,cuing_paradigm_dot,2024.1.5,Win32,60.24096386,682d573fa47f1360d1451895,,,,,,,,,,,230.9495,231.4352,,,231.6812,231.8964,right,0.2063,,,,,,,,,0.45,,,,,,231.4357,231.6812,231.8966,"[-0.05476545324198683,-0.18682831293211732]","[-1,-1,-1]","[0.00730326225564072,0.19339498107951986]","[-1,-1,-1]","[-0.05891451807052241,0.036770919743004074]","[-1,-1,-1]","[-0.020393090504674874,0.1477156392359671]","[-1,-1,-1]","[-0.0021384548333566638,-0.056272792352477036]","[1,1,1]","[0.16957208851953404,-0.03668270728668427]","[-1,-1,-1]","[-0.08414825472659389,-0.057286236088058495]","[-1,-1,-1]","[0.11048044386792366,-0.11743996962035363]","[1,1,1]","[0.1056833216372884,0.06364974525483036]","[1,1,1]","[0.10697732698831951,-0.06542670630293132]","[-1,-1,-1]","[-0.06857407656364913,-0.11991937740183492]","[-1,-1,-1]","[-0.044330661735555575,0.08421551800468383]","[1,1,1]","[-0.12548257934774903,0.041173786364728564]","[1,1,1]","[-0.13108628629867397,-0.12234591099554233]","[1,1,1]","[0.17762804910170554,0.0034914849075187372]","[1,1,1]","[0.04076150423715893,-0.18912768909997854]","[-1,-1,-1]","[0.07659025403104773,0.11819583554231047]","[1,1,1]","[0.037461177414890336,0.14438640233113223]","[1,1,1]","[-0.13066288991593042,-0.051462506198615636]","[-1,-1,-1]","[0.015670866969571245,-0.10015158199452938]","[-1,-1,-1]","[0.16844283155138914,-0.07921723973583951]","[-1,-1,-1]","[-0.02896834913355895,-0.02487562399827584]","[-1,-1,-1]","[0.13416114773970325,0.09460352011825524]","[1,1,1]","[0.03575072985647951,0.008997509010302504]","[-1,-1,-1]","[-0.10442449476822183,0.1506029254080459]","[-1,-1,-1]","[0.07418476459822947,-0.15398414901265314]","[-1,-1,-1]","[0.17858461721727087,0.0614965360043454]","[1,1,1]","[0.007213168011879968,-0.16662217530924717]","[1,1,1]","[-0.15337554201362252,0.08760915620579923]","[-1,-1,-1]","[-0.011734443300250919,0.01713714144194856]","[1,1,1]","[0.026489678736183315,0.0720790015729884]","[1,1,1]","[-0.04291969092308742,-0.06425314619428384]","[-1,-1,-1]","[0.02,0.02]",232.9967,0,32,32,74,1,,,,,,,
,,,,,,,67ab650c320eccf6141d4010,682f101bf0e4b38dc4acff71,2025-05-22_13h41.08.651,cuing_paradigm_dot,2024.1.5,Win32,60.24096386,682d573fa47f1360d1451895,,,,,,,,,,,232.9978,233.496,,,233.7478,233.881,right,0.1166,,,,,,,,,0.45,,,,,,233.496,233.7478,233.8811,"[0.056837959590857884,0.11939308651533238]","[1,1,1]","[0.025398180118796215,-0.08588099537775355]","[1,1,1]","[0.005504180002204462,0.04744739388185433]","[1,1,1]","[0.09834451428266794,0.006569296855244262]","[1,1,1]","[-0.1312633906233436,-0.08650283751418136]","[-1,-1,-1]","[0.1351830629037768,-0.1170473064697316]","[-1,-1,-1]","[0.07770552622774259,0.17608103205884934]","[-1,-1,-1]","[-0.14432061162097767,-0.046603817693938926]","[-1,-1,-1]","[-0.08272226562210952,-0.11495387447923915]","[1,1,1]","[0.045894828611639876,0.07478424078759557]","[-1,-1,-1]","[-0.012536320460725874,-0.1323105013556665]","[1,1,1]","[0.09940396822588574,-0.09073761853796909]","[1,1,1]","[0.19438749470564856,0.018491668431544494]","[1,1,1]","[-0.07916323305921115,0.09406346907099256]","[-1,-1,-1]","[-0.0028613127437904086,0.12075130977985957]","[-1,-1,-1]","[0.12169779829470362,0.03917743499161831]","[-1,-1,-1]","[-0.03642544442239533,-0.17243857883005811]","[-1,-1,-1]","[-0.1035539474254572,0.002719900129873145]","[1,1,1]","[-0.18298812143455728,-0.03423317379730893]","[1,1,1]","[-0.10522453206873357,0.043250144650968374]","[-1,-1,-1]","[0.13988006896004257,-0.05373604818811654]","[1,1,1]","[0.08403967497716121,-0.14603755383263886]","[-1,-1,-1]","[0.0888492428943504,0.07141757182902746]","[-1,-1,-1]","[-0.19499998473146146,0.023426257930387155]","[-1,-1,-1]","[-0.00003787288483302317,-0.19018843786936557]","[-1,-1,-1]","[-0.1264252833973111,0.08670931619463759]","[1,1,1]","[-0.048060941199254,0.14758396570409815]","[-1,-1,-1]","[-0.07963759673314608,-0.04662945021988504]","[-1,-1,-1]","[-0.05195729239177109,0.04377397446003331]","[-1,-1,-1]","[0.04083160965695512,-0.19313944207069855]","[1,1,1]","[0.020405415267620828,-0.0012466866322034418]","[1,1,1]","[0.039738418715622115,-0.12892726805861163]","[-1,-1,-1]","[0.02,0.02]",234.9691,0,33,33,83,1,,,,,,,
,,,,,,,67ab650c320eccf6141d4010,682f101bf0e4b38dc4acff71,2025-05-22_13h41.08.651,cuing_paradigm_dot,2024.1.5,Win32,60.24096386,682d573fa47f1360d1451895,,,,,,,,,,,234.9698,235.4692,,,235.7198,235.8654,right,0.1297,,,,,,,,,0.1,,,,,,235.4692,235.7196,235.8655,"[-0.09690594942236253,0.056751429882923476]","[-1,-1,-1]","[0.04313553400399716,0.11176557714239901]","[-1,-1,-1]","[-0.0404317517881443,-0.04436176796298107]","[-1,-1,-1]","[-0.020311414786204927,0.09323202843820572]","[-1,-1,-1]","[0.07589315810639383,-0.14982112906859651]","[-1,-1,-1]","[0.06002777325242992,-0.005660534952531416]","[-1,-1,-1]","[0.037854871884027884,-0.08466406387929666]","[1,1,1]","[-0.08516442459667882,-0.14250130661908775]","[-1,-1,-1]","[0.0680111098677617,0.05734595055121583]","[1,1,1]","[0.10144397776710751,0.016527341555415107]","[-1,-1,-1]","[-0.05916051279803269,-0.18124711465764315]","[-1,-1,-1]","[0.1296784789713285,-0.08693250639876023]","[-1,-1,-1]","[-0.10680459973315413,0.16695548493153817]","[-1,-1,-1]","[0.0331345734936023,0.17434635701633655]","[-1,-1,-1]","[-0.10199862821424635,-0.05028521174883622]","[-1,-1,-1]","[-0.17699143658194072,-0.043983035253752585]","[-1,-1,-1]","[-0.10822374043890821,-0.09932181194107907]","[-1,-1,-1]","[0.18204572252951695,-0.08095917818373147]","[-1,-1,-1]","[-0.013110792811211242,-0.10805380586526749]","[-1,-1,-1]","[0.08350847171970058,-0.09595836183015982]","[-1,-1,-1]","[0.016267839005225743,-0.19122922527290623]","[1,1,1]","[-0.18268340532563576,0.039130317127897336]","[-1,-1,-1]","[-0.04229944239324061,0.13138182126526105]","[-1,-1,-1]","[-0.16143478537304914,0.08992423468052323]","[-1,-1,-1]","[0.00077578083575341,-0.0007191559613360804]","[-1,-1,-1]","[0.12449288882570601,0.13970439841076077]","[-1,-1,-1]","[-0.04914746675049454,-0.005127912472382206]","[-1,-1,-1]","[-0.06417595986092825,-0.08547077780153321]","[-1,-1,-1]","[0.1422364122395813,0.08466982150048924]","[-1,-1,-1]","[0.16714823331393175,0.035303106100033045]","[-1,-1,-1]","[-0.1359695568574808,0.014531685325683193]","[-1,-1,-1]","[0.06774806699986877,0.1503175797259111]","[-1,-1,-1]","[0.02,0.02]",236.9684,0,34,34,7,1,,,,,,,
,,,,,,,67ab650c320eccf6141d4010,682f101bf0e4b38dc4acff71,2025-05-22_13h41.08.651,cuing_paradigm_dot,2024.1.5,Win32,60.24096386,682d573fa47f1360d1451895,,,,,,,,,,,236.9698,237.4686,,,237.7215,238.5509,right,0.8149,,,,,,,,,0.9,,,,,,237.4686,237.7213,238.5509,"[0.07472304824940879,-0.06722765781635452]","[1,1,1]","[-0.13022160271898686,-0.041446971193145776]","[1,1,1]","[-0.07958907814503426,-0.13854121373397568]","[1,1,1]","[0.04508719178327781,-0.14487731955211203]","[1,1,1]","[-0.004147571590334217,0.0152330877185893]","[1,1,1]","[-0.07508442312789129,0.11858631682156155]","[-1,-1,-1]","[0.0062873844997948,-0.08829056170173791]","[1,1,1]","[0.11041544117255339,-0.14639799343682425]","[-1,-1,-1]","[-0.05107433736009733,-0.03716584037134387]","[1,1,1]","[0.02239828331904881,0.19671506370578193]","[1,1,1]","[0.019695230488473155,0.09994513789316513]","[1,1,1]","[-0.1727119025190772,0.041213242800272054]","[1,1,1]","[0.03891373244855674,0.029050060324223092]","[1,1,1]","[0.15196555378691312,0.05980724137198118]","[1,1,1]","[-0.0991863138238021,0.07489570361054311]","[1,1,1]","[0.13338411397867367,-0.025068969743510344]","[1,1,1]","[-0.17294192465270553,-0.06976305001306086]","[-1,-1,-1]","[-0.14953407491909107,0.08801524857148295]","[1,1,1]","[0.10976666969122394,0.08832312042258351]","[1,1,1]","[-0.006561443355252922,-0.12896098691621702]","[1,1,1]","[-0.19794136321566907,-0.0015229690139450741]","[1,1,1]","[-0.11727395412413853,0.1301345067962918]","[1,1,1]","[-0.014302283191083958,0.17503255432268927]","[1,1,1]","[0.1821256928566628,-0.044528803613470835]","[1,1,1]","[-0.10685033479394476,-0.09967475520368134]","[1,1,1]","[0.04034291873388713,0.15078693339901064]","[1,1,1]","[-0.14849039124343333,-0.10437088507438656]","[1,1,1]","[0.15018718390030314,-0.13066585797478364]","[1,1,1]","[0.07111215293315623,-0.019627256099393555]","[1,1,1]","[-0.09611237941149696,-0.018010761023812685]","[1,1,1]","[-0.05216728770461369,-0.17238365382563078]","[1,1,1]","[0.1669944711748088,-0.08852072463401231]","[1,1,1]","[0.02,0.02]",239.646,0,35,35,184,1,,,,,,,
,,,,,,,67ab650c320eccf6141d4010,682f101bf0e4b38dc4acff71,2025-05-22_13h41.08.651,cuing_paradigm_dot,2024.1.5,Win32,60.24096386,682d573fa47f1360d1451895,,,,,,,,,,,239.6479,240.137,,,240.378,240.5963,right,0.2095,,,,,,,,,0.4,,,,,,240.1372,240.3779,240.5964,"[-0.17728285741558233,0.016706984460284256]","[-1,-1,-1]","[0.0899175942365319,-0.09212279636638156]","[-1,-1,-1]","[0.09361288885075525,0.15421559006538574]","[1,1,1]","[-0.09077202330123826,0.1637482033364493]","[1,1,1]","[-0.09570460374659549,-0.16002371467832271]","[1,1,1]","[0.1287229101976533,0.09345849695979863]","[-1,-1,-1]","[0.008166506863065541,0.17819782790489816]","[-1,-1,-1]","[0.17862427723281205,0.049972114612605346]","[-1,-1,-1]","[-0.1251337562013455,0.0294393920719831]","[-1,-1,-1]","[0.12893009198907102,0.026631994147580492]","[-1,-1,-1]","[0.0341532180548035,-0.15353959133301415]","[-1,-1,-1]","[0.021531534340083924,-0.00576416196904795]","[1,1,1]","[-0.1506545346077931,0.1255933345774374]","[-1,-1,-1]","[-0.17804272679196426,0.0600618611232589]","[-1,-1,-1]","[0.14442245093402767,-0.07567019534064996]","[1,1,1]","[-0.06391869137587963,-0.034527884009507855]","[1,1,1]","[-0.05301529860628551,0.08027908739251463]","[-1,-1,-1]","[-0.0025065514332547763,-0.19368522563038199]","[1,1,1]","[-0.15704384107030794,-0.10924636029431621]","[-1,-1,-1]","[-0.14322901249566045,-0.05434636687045357]","[-1,-1,-1]","[-0.06964415891545737,0.02057545041959511]","[-1,-1,-1]","[0.023445670327135303,0.13982363115952964]","[-1,-1,-1]","[0.10867408033958623,-0.028392480341224175]","[1,1,1]","[0.06240706596731563,0.10034671380480183]","[1,1,1]","[0.049987931766457494,0.05314577568558303]","[1,1,1]","[0.16529796624025894,-0.01943392051956938]","[1,1,1]","[0.08150925483499766,-0.13923085440950714]","[-1,-1,-1]","[-0.043319469228620684,-0.1007566485698242]","[1,1,1]","[-0.02525004481639498,0.04854057636607665]","[1,1,1]","[0.0441335399212756,-0.11052703326413676]","[-1,-1,-1]","[-0.1454652727783354,0.08405035385532263]","[-1,-1,-1]","[-0.11255683640221176,-0.009458330848967963]","[-1,-1,-1]","[0.02,0.02]",241.6942,0,36,36,49,1,,,,,,,
,,,,,,,67ab650c320eccf6141d4010,682f101bf0e4b38dc4acff71,2025-05-22_13h41.08.651,cuing_paradigm_dot,2024.1.5,Win32,60.24096386,682d573fa47f1360d1451895,,,,,,,,,,,241.6956,242.1941,,,242.4446,243.2482,left,0.7946,,,,,,,,,0.9,,,,,,242.1941,242.4445,243.2484,"[0.1946045679616447,-0.006759029100006989]","[1,1,1]","[-0.05180610851396836,-0.11097728154574608]","[1,1,1]","[0.04031290214234109,-0.02441518750990568]","[-1,-1,-1]","[0.10589796199683336,-0.1110348307915346]","[1,1,1]","[-0.15635621912031467,-0.01212005906304204]","[-1,-1,-1]","[0.06326324201746047,0.1748626396503727]","[1,1,1]","[-0.015240681322523908,-0.17423451378396265]","[1,1,1]","[-0.08566540663755533,0.024101665139754973]","[1,1,1]","[0.15023801598829759,-0.0645931456986037]","[1,1,1]","[-0.12872269510238302,-0.14294156329134092]","[1,1,1]","[-0.012182627261553048,-0.08765488435706831]","[1,1,1]","[-0.044504175279606525,0.1017285033221354]","[1,1,1]","[-0.13011722011793606,-0.10005802369685877]","[1,1,1]","[-0.13840219252264746,0.12604672264120168]","[1,1,1]","[0.12369791107536035,-0.019631128742587156]","[1,1,1]","[-0.1332428574023825,0.06734798399899108]","[1,1,1]","[-0.05009039990158735,0.15157490832949844]","[1,1,1]","[0.159533959236892,0.10365744806742413]","[1,1,1]","[0.023308491009241063,0.08490540295549015]","[1,1,1]","[0.07997482291925712,-0.04896367671999535]","[-1,-1,-1]","[0.0014942696043006986,0.03279292898000945]","[1,1,1]","[-0.05983829432832147,-0.1623704508550822]","[1,1,1]","[0.03733940011817606,0.1332095964567947]","[1,1,1]","[0.04213654497007567,-0.18085671425587624]","[1,1,1]","[0.11514090926475352,0.05540830542124731]","[1,1,1]","[-0.013881771162474873,0.19947317513101367]","[1,1,1]","[0.07809513379056564,-0.15716378791575766]","[1,1,1]","[-0.016174693382433717,-0.025658673095803886]","[1,1,1]","[0.0681307000333594,0.04087294953126158]","[1,1,1]","[-0.1504628206487594,-0.05742310103638779]","[1,1,1]","[0.1887617353400576,0.03892005112851239]","[1,1,1]","[-0.05458449716828776,0.05282758951429642]","[1,1,1]","[0.02,0.02]",244.3471,0,37,37,186,1,,,,,,,
,,,,,,,67ab650c320eccf6141d4010,682f101bf0e4b38dc4acff71,2025-05-22_13h41.08.651,cuing_paradigm_dot,2024.1.5,Win32,60.24096386,682d573fa47f1360d1451895,,,,,,,,,,,244.348,244.8516,,,245.0973,245.1798,right,0.068,,,,,,,,,0.6,,,,,,244.8517,245.0972,245.1801,"[0.05753033911857195,0.1634020720864834]","[1,1,1]","[0.03162152918417825,-0.013916153362221987]","[-1,-1,-1]","[-0.06848755300913897,-0.008906923631362544]","[1,1,1]","[-0.08139393299315303,-0.05425229905035218]","[1,1,1]","[-0.014298325719023657,-0.05216439567147263]","[1,1,1]","[0.19907862013820146,0.018888755327498452]","[-1,-1,-1]","[0.08639475656552002,-0.07083721224074913]","[1,1,1]","[-0.06631750393714578,0.11604640524607183]","[-1,-1,-1]","[-0.01604950314042267,0.028981877425681285]","[1,1,1]","[-0.053378004035711156,-0.12409335350649504]","[1,1,1]","[-0.1359230084234146,-0.006685670213930666]","[1,1,1]","[0.10782355211987277,-0.13774727201751352]","[-1,-1,-1]","[-0.09353418821882957,0.16916237975978748]","[1,1,1]","[0.04710549971466347,-0.12674465915736924]","[1,1,1]","[0.039086877359750846,-0.17883541790787613]","[-1,-1,-1]","[-0.029076669613348954,-0.18066339605775714]","[-1,-1,-1]","[-0.1188631111659784,-0.14154338566637756]","[1,1,1]","[0.11603117374869511,0.11936092145396784]","[1,1,1]","[0.16445634129809278,0.05396607238251336]","[1,1,1]","[-0.15990076168909503,0.061014137118427424]","[-1,-1,-1]","[0.10613919460283473,0.06682823301479712]","[1,1,1]","[0.041418365673381474,0.12106750526231357]","[1,1,1]","[-0.029926118214713998,0.13459153518088776]","[-1,-1,-1]","[0.06092782862237482,0.0819429193367557]","[1,1,1]","[-0.01199296748021218,0.0803297338567718]","[-1,-1,-1]","[0.16695716355313053,-0.05080887393154055]","[-1,-1,-1]","[0.06610905549329298,0.014096389497504606]","[-1,-1,-1]","[-0.16377589408789034,-0.08711479391619102]","[1,1,1]","[0.00885001858408324,0.17790143932981614]","[-1,-1,-1]","[-0.08819319271130364,-0.09407320007818394]","[1,1,1]","[0.10381580188784864,-0.028460827522047677]","[-1,-1,-1]","[-0.11485031534649634,0.11001078848253175]","[1,1,1]","[0.02,0.02]",246.2775,0,38,38,156,1,,,,,,,
,,,,,,,67ab650c320eccf6141d4010,682f101bf0e4b38dc4acff71,2025-05-22_13h41.08.651,cuing_paradigm_dot,2024.1.5,Win32,60.24096386,682d573fa47f1360d1451895,,,,,,,,,,,246.2787,246.7774,,,247.0282,247.7943,left,0.7499,,,,,,,,,0.9,,,,,,246.7775,247.0282,247.7943,"[0.055566657399725536,-0.012845135818560905]","[1,1,1]","[0.14651684181406388,-0.06650309239371867]","[1,1,1]","[-0.182149188411964,-0.057764732072086135]","[1,1,1]","[0.04017463111469911,-0.1289858656291405]","[1,1,1]","[0.026881379387441857,-0.19561360159374314]","[1,1,1]","[-0.1353626054336251,0.0930992845192632]","[-1,-1,-1]","[-0.11770233610633397,-0.09035822221936916]","[1,1,1]","[0.1104910307202549,0.01142922629167133]","[1,1,1]","[0.10497193375479552,0.1397829289506643]","[1,1,1]","[-0.04142682584078433,0.006541691745402951]","[1,1,1]","[-0.17296786368225878,0.01740667838145524]","[1,1,1]","[-0.059830354100812846,0.09441957084463856]","[-1,-1,-1]","[-0.03445865182258565,-0.1939268882902011]","[1,1,1]","[-0.06507580542544349,-0.07224582308324827]","[1,1,1]","[-0.017769357143660385,0.14174329563358573]","[1,1,1]","[0.1671549987495043,0.001593232523101947]","[1,1,1]","[-0.0726297712164472,0.1335205720756992]","[1,1,1]","[-0.08252048375369539,0.020459325313162698]","[1,1,1]","[0.07518019451993639,0.10911477047415201]","[1,1,1]","[-0.04789797439409832,-0.1088617730124796]","[1,1,1]","[0.07583420331852407,0.17145870167902996]","[1,1,1]","[0.16061850107964054,0.07529950253577714]","[1,1,1]","[0.059146423544532124,0.05165851494893907]","[1,1,1]","[-0.006498775273312902,-0.16474085308369701]","[1,1,1]","[-0.007469705686667192,-0.11564688480294054]","[1,1,1]","[-0.1283788754131991,-0.03502232828722606]","[-1,-1,-1]","[0.08138894938408142,-0.13186988517303333]","[1,1,1]","[-0.011594826555080992,0.19416332918148532]","[1,1,1]","[-0.12342383235461372,0.025564042748150745]","[1,1,1]","[0.10108081751374524,-0.03434909196343803]","[1,1,1]","[-0.11328446613535409,0.12672880945804138]","[1,1,1]","[0.13737434843869514,-0.10634564679219195]","[1,1,1]","[0.02,0.02]",248.8934,0,39,39,187,1,,,,,,,
,,,,,,,67ab650c320eccf6141d4010,682f101bf0e4b38dc4acff71,2025-05-22_13h41.08.651,cuing_paradigm_dot,2024.1.5,Win32,60.24096386,682d573fa47f1360d1451895,,,,,,,,,,,248.8943,249.3856,,,249.6276,249.7108,right,0.0674,,,,,,,,,0.5,,,,,,249.3856,249.6274,249.7108,"[-0.13788733978120268,0.032814571092567815]","[1,1,1]","[0.06886178441357645,0.06263095215560043]","[1,1,1]","[0.033915147842861634,0.00013715364583282086]","[1,1,1]","[-0.1750892409649084,-0.046102121052605784]","[1,1,1]","[-0.032606638492440665,-0.10428690296953626]","[-1,-1,-1]","[0.03768496066298319,-0.10339724912600445]","[1,1,1]","[-0.05515176046800245,0.08576566772831806]","[-1,-1,-1]","[-0.022457598368168522,0.17363957189272428]","[-1,-1,-1]","[0.05470968613966278,-0.14373167314533472]","[1,1,1]","[-0.07433919406526966,-0.023071594361354877]","[1,1,1]","[-0.15066036660260945,-0.12112186513028758]","[-1,-1,-1]","[-0.06932927409321735,0.13001492573435286]","[-1,-1,-1]","[-0.11253271427088062,0.12061694466239277]","[1,1,1]","[0.09204439401428302,0.09534467757765928]","[-1,-1,-1]","[0.09716365571045203,-0.04881420124852894]","[-1,-1,-1]","[0.1646470712155812,-0.06953329946649686]","[-1,-1,-1]","[-0.08954405146966271,-0.060734579174291016]","[-1,-1,-1]","[-0.029719744510373673,-0.06284221437127249]","[-1,-1,-1]","[0.12898850406823673,-0.11447225028132792]","[1,1,1]","[0.1902394316099438,0.05906410819539604]","[1,1,1]","[-0.10872320074151529,-0.1100367063048804]","[-1,-1,-1]","[-0.18561394033278086,0.060267688710365676]","[-1,-1,-1]","[0.1255122984684077,0.04691593219817278]","[-1,-1,-1]","[0.03831012536476364,0.19421784760721275]","[1,1,1]","[-0.0018628782788526377,0.09522245617329425]","[-1,-1,-1]","[-0.08512293873649232,0.031247441012675035]","[1,1,1]","[0.017114738847592008,-0.1907876132086708]","[1,1,1]","[0.08314792773937152,0.17894102996091613]","[1,1,1]","[0.16625846307932793,0.02199767485037093]","[-1,-1,-1]","[0.010271734275488107,-0.15071935700937253]","[1,1,1]","[-0.043968871694806365,-0.1900441913242206]","[-1,-1,-1]","[0.04653705729753974,0.10647183597079267]","[1,1,1]","[0.02,0.02]",250.8183,0,40,40,108,1,,,,,,,
,,,,,,,67ab650c320eccf6141d4010,682f101bf0e4b38dc4acff71,2025-05-22_13h41.08.651,cuing_paradigm_dot,2024.1.5,Win32,60.24096386,682d573fa47f1360d1451895,,,,,,,,,,,250.8194,251.3132,,,251.5635,251.5966,right,0.0182,,,,,,,,,0.5,,,,,,251.3132,251.5634,251.5967,"[0.048497086674253634,-0.14465450369856858]","[-1,-1,-1]","[-0.06511702852796158,0.1265279408458725]","[1,1,1]","[0.05379480519356743,0.17871438213099622]","[-1,-1,-1]","[0.06325598013461871,-0.10677616018878225]","[1,1,1]","[0.13969698667445626,-0.1085195898212051]","[-1,-1,-1]","[-0.09176396658009578,0.041664856188940946]","[-1,-1,-1]","[-0.008911807008465862,0.10528113205264242]","[1,1,1]","[-0.08163464307638423,-0.16201735003486237]","[-1,-1,-1]","[-0.17534473446917906,-0.05598642723016307]","[-1,-1,-1]","[-0.08144685807106468,-0.10345038736642247]","[1,1,1]","[-0.07560983498351677,0.002739897397251064]","[-1,-1,-1]","[0.11246525556471401,-0.022448859884507816]","[-1,-1,-1]","[0.08534168572574344,0.1251788194619582]","[1,1,1]","[0.13751987965137322,0.029273609010611813]","[1,1,1]","[0.07175485748439862,0.06260251137878742]","[-1,-1,-1]","[-0.08753711294117598,0.1615150232095086]","[1,1,1]","[-0.04406224503495894,0.0604014941667817]","[1,1,1]","[-0.13123162690825,-0.13792501113524708]","[1,1,1]","[-0.03291193295738475,-0.1819478577664273]","[1,1,1]","[0.11468461998286983,0.07514088176077761]","[-1,-1,-1]","[-0.12369327233589049,0.00844128063593889]","[-1,-1,-1]","[-0.17007339840985874,0.07021325395599455]","[1,1,1]","[-0.12308717787626948,-0.041384329518887264]","[-1,-1,-1]","[0.051640440276452676,-0.01552320895307209]","[1,1,1]","[0.1675406879515799,0.07614439691329232]","[1,1,1]","[-0.019256466272189306,-0.03345145876781314]","[1,1,1]","[0.09141846539637075,0.016534250010090887]","[-1,-1,-1]","[0.05414892481535023,-0.18984379555279177]","[-1,-1,-1]","[-0.03265533896050263,-0.07183156048873504]","[-1,-1,-1]","[0.01581406082097884,0.1550543404966125]","[1,1,1]","[0.006116716523702817,-0.16109318944804568]","[1,1,1]","[-0.1071707996853233,0.11811549155622793]","[-1,-1,-1]","[0.02,0.02]",252.6956,0,41,41,101,1,,,,,,,
,,,,,,,67ab650c320eccf6141d4010,682f101bf0e4b38dc4acff71,2025-05-22_13h41.08.651,cuing_paradigm_dot,2024.1.5,Win32,60.24096386,682d573fa47f1360d1451895,,,,,,,,,,,252.6966,253.1933,,,253.4464,254.1289,right,0.6675,,,,,,,,,0.6,,,,,,253.1935,253.4464,254.1291,"[0.15677974057016908,0.03568530258471249]","[1,1,1]","[0.027658606048053758,-0.04450902182466715]","[1,1,1]","[-0.0223429565542809,0.1854186137915615]","[-1,-1,-1]","[0.16382747945986167,0.07890033118652663]","[1,1,1]","[-0.06155195767464091,-0.14714545344460217]","[-1,-1,-1]","[0.10724348659264756,0.06193624792582426]","[1,1,1]","[0.08577221517598303,-0.11518127012939064]","[-1,-1,-1]","[0.029846653745052357,-0.10099759926256832]","[-1,-1,-1]","[0.054453831196359145,0.09494071386039896]","[1,1,1]","[0.184808536641463,-0.022754962468401158]","[1,1,1]","[0.1259610604362653,-0.10339178436490647]","[1,1,1]","[0.053086890259391915,0.013610039824358853]","[1,1,1]","[0.058045687860228,-0.15280452412044077]","[-1,-1,-1]","[-0.022156100610040714,-0.1607859387691476]","[1,1,1]","[-0.1582907231500363,-0.0218359999297338]","[1,1,1]","[-0.13377144620539771,-0.13378001370333992]","[-1,-1,-1]","[-0.10793308486075683,0.07199844670043025]","[1,1,1]","[-0.19548000615276032,0.03126693159191877]","[-1,-1,-1]","[-0.06389410595794182,0.11963097520842934]","[1,1,1]","[0.12273986169046797,-0.037878453481666796]","[-1,-1,-1]","[0.059271362390292966,0.17440639321262788]","[-1,-1,-1]","[0.006684715427404777,0.10969482396457447]","[1,1,1]","[0.08045684089718795,-0.06958873425110079]","[1,1,1]","[-0.012119521431417568,0.010590012872168346]","[1,1,1]","[-0.046530887275728204,-0.08244215436597407]","[1,1,1]","[-0.08320201874320818,-0.10184960974164002]","[1,1,1]","[-0.05213376469182271,0.019600680407020746]","[-1,-1,-1]","[-0.1350625213976225,0.1343780500571658]","[-1,-1,-1]","[-0.11523768178205043,-0.07611877292495159]","[1,1,1]","[-0.03923829980411546,0.0844619040421551]","[-1,-1,-1]","[-0.020743029115841655,-0.048711328719378846]","[-1,-1,-1]","[-0.0703909260322616,-0.025148754846290974]","[1,1,1]","[0.02,0.02]",255.229,0,42,42,179,1,,,,,,,
,,,,,,,67ab650c320eccf6141d4010,682f101bf0e4b38dc4acff71,2025-05-22_13h41.08.651,cuing_paradigm_dot,2024.1.5,Win32,60.24096386,682d573fa47f1360d1451895,,,,,,,,,,,255.2297,255.7176,,,255.9689,256.0523,left,0.0683,,,,,,,,,0.55,,,,,,255.7176,255.9688,256.0524,"[-0.17337590616368126,0.07419219656726411]","[-1,-1,-1]","[0.17297458033028976,0.026793377563440537]","[-1,-1,-1]","[0.04758211964306665,0.027285129814116082]","[-1,-1,-1]","[0.13017252107825916,-0.01658711017501409]","[-1,-1,-1]","[-0.03963112993471751,0.12334579259865465]","[1,1,1]","[0.026426244625409885,0.11835848102660214]","[1,1,1]","[0.06769659821409738,-0.15617153222651253]","[1,1,1]","[-0.07320334095653719,-0.02409858286477239]","[1,1,1]","[-0.05511004886653766,0.02044144265679892]","[1,1,1]","[-0.1289617586488,0.024511746010930924]","[1,1,1]","[-0.00019479293160883288,-0.0800184755530652]","[1,1,1]","[-0.021366071299215098,0.08284415878158234]","[1,1,1]","[0.08927779860013375,0.14059284274888728]","[1,1,1]","[-0.18028626113293306,-0.02023184333312544]","[1,1,1]","[-0.1222101262012445,-0.034315066101977244]","[-1,-1,-1]","[-0.13169778009188657,0.14957519809473716]","[-1,-1,-1]","[0.08552874172684888,0.04553168935488885]","[1,1,1]","[0.05187991517182674,0.1913976564316548]","[-1,-1,-1]","[-0.08927849223151327,0.08834592031456441]","[-1,-1,-1]","[-0.05528661998890743,-0.14864934211050518]","[-1,-1,-1]","[-0.04123690245656127,-0.10100548965979778]","[-1,-1,-1]","[0.013569665587156169,0.05928152055038292]","[1,1,1]","[0.025160310616851075,-0.17284905921979582]","[1,1,1]","[-0.027689772502211756,0.1818776020111562]","[1,1,1]","[0.09798508936817721,0.08633365653704482]","[1,1,1]","[0.1677996555029612,0.07516317325240639]","[-1,-1,-1]","[-0.058801882912667615,-0.18997603523231654]","[1,1,1]","[0.176447909301164,-0.03553609992499229]","[-1,-1,-1]","[-0.0872194487288539,-0.06632632572384921]","[-1,-1,-1]","[-0.004443998330827277,0.015831747766311285]","[1,1,1]","[0.13571440200519083,-0.14171268751756316]","[1,1,1]","[0.06793258570288781,-0.02332602236576237]","[-1,-1,-1]","[0.02,0.02]",257.1496,0,43,43,134,1,,,,,,,
,,,,,,,67ab650c320eccf6141d4010,682f101bf0e4b38dc4acff71,2025-05-22_13h41.08.651,cuing_paradigm_dot,2024.1.5,Win32,60.24096386,682d573fa47f1360d1451895,,,,,,,,,,,257.1506,257.6457,,,257.885,257.952,left,0.0502,,,,,,,,,0.55,,,,,,257.6458,257.8849,257.9521,"[0.16718188029316922,-0.09589535959139038]","[-1,-1,-1]","[0.06603987661544437,0.1443381183011192]","[-1,-1,-1]","[0.12410036551074953,0.04311127526690649]","[1,1,1]","[0.18691214804318396,-0.024581708602811128]","[1,1,1]","[-0.13207400288824786,-0.042049404495508834]","[1,1,1]","[0.12282140467439184,0.10023541479451066]","[1,1,1]","[0.028403458433722828,0.1964088393364243]","[-1,-1,-1]","[0.09056926211400886,-0.03529999721847894]","[1,1,1]","[0.006666800829605404,0.11724794036551872]","[-1,-1,-1]","[-0.09117156047821968,0.0537269114282657]","[-1,-1,-1]","[0.03817274440680166,-0.03515631572886744]","[-1,-1,-1]","[0.020940538317035188,0.01076403711675547]","[1,1,1]","[0.14858737839031244,-0.049099043070600604]","[1,1,1]","[0.10677308930086009,-0.11984976833835821]","[1,1,1]","[-0.07842385130969076,-0.0695553772130832]","[-1,-1,-1]","[-0.13411921098106025,0.032481073219614236]","[-1,-1,-1]","[-0.03551269345229045,0.11005278220105286]","[1,1,1]","[-0.013654777343835493,-0.11439151681121125]","[1,1,1]","[0.006714356459096174,0.060479364254391606]","[-1,-1,-1]","[-0.054468033481224774,-0.1626834933624679]","[1,1,1]","[-0.06893286053316633,0.019254290107197942]","[1,1,1]","[0.04949804726334798,-0.09625018016231293]","[1,1,1]","[-0.14790743880705398,-0.10708266229157629]","[1,1,1]","[-0.17625076566261105,0.027890293879765316]","[-1,-1,-1]","[-0.06695179501166056,0.14993558829772757]","[-1,-1,-1]","[0.17417679306914452,0.0320101696640812]","[1,1,1]","[0.13081185197406106,0.14235281960690352]","[-1,-1,-1]","[-0.09502940464866402,-0.12649573763749855]","[1,1,1]","[-0.17406258724598622,-0.07456122584453824]","[-1,-1,-1]","[0.07931733978637216,0.09268834112895778]","[1,1,1]","[0.06029065135774964,0.046610559418289184]","[1,1,1]","[0.16185211251359505,0.08472281069822825]","[-1,-1,-1]","[0.02,0.02]",259.0431,0,44,44,140,1,,,,,,,
