right,left,explain.started,explain.stopped,key_resp_3.keys,key_resp_3.rt,key_resp_3.duration,participant,session,date,expName,psychopyVersion,OS,frameRate,study_id,explain_2.started,explain_2.stopped,key_resp_4.keys,key_resp_4.rt,key_resp_4.duration,explain_3.started,explain_3.stopped,key_resp_5.keys,key_resp_5.rt,key_resp_5.duration,fixation.started,fixation.stopped,practice.started,practice.stopped,response.started,response.stopped,key_resp.keys,feedback.started,feedback.stopped,trials_2.thisRepN,trials_2.thisTrialN,trials_2.thisN,trials_2.thisIndex,trials_2.ran,white_ratio,explain_4.started,explain_4.stopped,key_resp_6.keys,key_resp_6.rt,key_resp_6.duration,dotDisplay.started,dotDisplay.stopped,key_resp.rt,key_resp.duration,ITI.started,polygon_1.pos,polygon_1.color,polygon_2.pos,polygon_2.color,polygon_3.pos,polygon_3.color,polygon_4.pos,polygon_4.color,polygon_5.pos,polygon_5.color,polygon_6.pos,polygon_6.color,polygon_7.pos,polygon_7.color,polygon_8.pos,polygon_8.color,polygon_9.pos,polygon_9.color,polygon_10.pos,polygon_10.color,polygon_11.pos,polygon_11.color,polygon_12.pos,polygon_12.color,polygon_13.pos,polygon_13.color,polygon_14.pos,polygon_14.color,polygon_15.pos,polygon_15.color,polygon_16.pos,polygon_16.color,polygon_17.pos,polygon_17.color,polygon_18.pos,polygon_18.color,polygon_19.pos,polygon_19.color,polygon_20.pos,polygon_20.color,polygon_21.pos,polygon_21.color,polygon_22.pos,polygon_22.color,polygon_23.pos,polygon_23.color,polygon_24.pos,polygon_24.color,polygon_25.pos,polygon_25.color,polygon_26.pos,polygon_26.color,polygon_27.pos,polygon_27.color,polygon_28.pos,polygon_28.color,polygon_29.pos,polygon_29.color,polygon_30.pos,polygon_30.color,polygon_31.pos,polygon_31.color,polygon_32.pos,polygon_32.color,dot_size,ITI.stopped,trials.thisRepN,trials.thisTrialN,trials.thisN,trials.thisIndex,trials.ran,break_2.started,break_2.stopped,trials_3.thisRepN,trials_3.thisTrialN,trials_3.thisN,trials_3.thisIndex,trials_3.ran
subject chose black,subject chose white,0.0005,25.4028,space,10.388,,67ab788b4d53609dd0e26861,682f0fb9b01a9108f77c9d42,2025-05-22_14h11.07.171,cuing_paradigm_dot,2024.1.5,Win32,58.13953488,682d573fa47f1360d1451895,,,,,,,,,,,,,,,,,,,,,,,,,,,,,,,,,,,,,,,,,,,,,,,,,,,,,,,,,,,,,,,,,,,,,,,,,,,,,,,,,,,,,,,,,,,,,,,,,,,,,,,,,,,,,,,,,
,,,,,,,67ab788b4d53609dd0e26861,682f0fb9b01a9108f77c9d42,2025-05-22_14h11.07.171,cuing_paradigm_dot,2024.1.5,Win32,58.13953488,682d573fa47f1360d1451895,25.4034,56.2605,space,0.8465,,,,,,,,,,,,,,,,,,,,,,,,,,,,,,,,,,,,,,,,,,,,,,,,,,,,,,,,,,,,,,,,,,,,,,,,,,,,,,,,,,,,,,,,,,,,,,,,,,,,,,,,,,,,,
,,,,,,,67ab788b4d53609dd0e26861,682f0fb9b01a9108f77c9d42,2025-05-22_14h11.07.171,cuing_paradigm_dot,2024.1.5,Win32,58.13953488,682d573fa47f1360d1451895,,,,,,56.261,60.3926,space,1.1007,,,,,,,,,,,,,,,,,,,,,,,,,,,,,,,,,,,,,,,,,,,,,,,,,,,,,,,,,,,,,,,,,,,,,,,,,,,,,,,,,,,,,,,,,,,,,,,,,,,,,,,,
,,,,,,,67ab788b4d53609dd0e26861,682f0fb9b01a9108f77c9d42,2025-05-22_14h11.07.171,cuing_paradigm_dot,2024.1.5,Win32,58.13953488,682d573fa47f1360d1451895,,,,,,,,,,,60.4376,60.9105,60.9121,61.1529,61.1534,62.6438,,62.6448,63.736,0,0,0,0,1,0.8,,,,,,,,,,,,,,,,,,,,,,,,,,,,,,,,,,,,,,,,,,,,,,,,,,,,,,,,,,,,,,,,,,,,,,,,,,,,,,,,,,,,,,,,
,,,,,,,67ab788b4d53609dd0e26861,682f0fb9b01a9108f77c9d42,2025-05-22_14h11.07.171,cuing_paradigm_dot,2024.1.5,Win32,58.13953488,682d573fa47f1360d1451895,,,,,,,,,,,63.7379,64.2291,64.2293,64.4855,64.4857,65.984,,65.9841,67.0766,0,1,1,1,1,0.2,,,,,,,,,,,,,,,,,,,,,,,,,,,,,,,,,,,,,,,,,,,,,,,,,,,,,,,,,,,,,,,,,,,,,,,,,,,,,,,,,,,,,,,,
,,,,,,,67ab788b4d53609dd0e26861,682f0fb9b01a9108f77c9d42,2025-05-22_14h11.07.171,cuing_paradigm_dot,2024.1.5,Win32,58.13953488,682d573fa47f1360d1451895,,,,,,,,,,,,,,,,,,,,,,,,,,67.0783,70.3228,space,0.2265,,,,,,,,,,,,,,,,,,,,,,,,,,,,,,,,,,,,,,,,,,,,,,,,,,,,,,,,,,,,,,,,,,,,,,,,,,,,,,,,,,,,
,,,,,,,67ab788b4d53609dd0e26861,682f0fb9b01a9108f77c9d42,2025-05-22_14h11.07.171,cuing_paradigm_dot,2024.1.5,Win32,58.13953488,682d573fa47f1360d1451895,,,,,,,,,,,70.3902,70.8279,,,71.0722,71.5767,left,,,,,,,,0.6,,,,,,70.8292,71.0721,0.488,,71.5773,"[0.18937256668595154,-0.029350250532820487]","[1,1,1]","[0.08212354620980757,0.0259080829992639]","[1,1,1]","[-0.03424415293452247,0.01433022254750575]","[1,1,1]","[0.18748612480952584,0.056462953787047195]","[-1,-1,-1]","[0.009230468490326304,-0.030695074160314136]","[1,1,1]","[-0.08901872229517546,0.05330150563445631]","[1,1,1]","[-0.18679830378643544,-0.033840748344903984]","[1,1,1]","[0.024472939015721284,0.11096955124678948]","[1,1,1]","[0.06292737681872174,-0.1323695282637218]","[1,1,1]","[-0.10671150337996632,-0.13605969933348028]","[1,1,1]","[-0.006228830242313323,0.17431617983009298]","[-1,-1,-1]","[-0.04207912116580189,-0.13781851027092054]","[-1,-1,-1]","[0.14818326592122893,-0.10605263114067584]","[1,1,1]","[-0.10138282695889962,0.15602186083335232]","[-1,-1,-1]","[-0.16207099917511372,-0.11398324190186149]","[-1,-1,-1]","[-0.10610569274835857,0.10152715269634033]","[1,1,1]","[0.08526718989929843,0.14168033571194646]","[-1,-1,-1]","[0.034336546949564686,0.06794230795202111]","[1,1,1]","[-0.04798893284858716,0.05218044185592827]","[-1,-1,-1]","[-0.06411141845342527,0.12039433273050303]","[1,1,1]","[0.12794199248796062,-0.06097611810750071]","[1,1,1]","[0.0075257095857010035,-0.1169165585345297]","[-1,-1,-1]","[0.1545137835628828,-0.005326741728983259]","[-1,-1,-1]","[-0.16241869363148798,0.06732583217100994]","[-1,-1,-1]","[-0.047955356514566554,-0.03361772609368786]","[1,1,1]","[0.061193653447313444,-0.044920180605442214]","[1,1,1]","[-0.027230762869045463,0.09460761325594491]","[1,1,1]","[-0.03125563117469761,-0.09296955095714193]","[1,1,1]","[0.12552652932754815,0.0381278393238831]","[-1,-1,-1]","[0.061450197600474585,-0.17729755131222502]","[-1,-1,-1]","[-0.15993683530326408,0.014658396860614188]","[-1,-1,-1]","[-0.13646762769950013,-0.05962322119407558]","[1,1,1]","[0.02,0.02]",72.6715,0,0,0,168,1,,,,,,,
,,,,,,,67ab788b4d53609dd0e26861,682f0fb9b01a9108f77c9d42,2025-05-22_14h11.07.171,cuing_paradigm_dot,2024.1.5,Win32,58.13953488,682d573fa47f1360d1451895,,,,,,,,,,,72.6727,73.1763,,,73.4273,73.9014,right,,,,,,,,0.45,,,,,,73.1766,73.427,0.4459,,73.9017,"[-0.04684612198527052,-0.020829951075027282]","[-1,-1,-1]","[-0.045490794759244814,-0.06733026403298015]","[-1,-1,-1]","[-0.14891371557405592,-0.05533456767135202]","[-1,-1,-1]","[0.16878158119680384,-0.04596279573069644]","[-1,-1,-1]","[0.05035628784464725,-0.11977058009576154]","[1,1,1]","[0.143518500232875,0.087692504567575]","[1,1,1]","[0.11966239699001108,0.02076443895039772]","[-1,-1,-1]","[0.09330951251843801,0.05864573060330819]","[-1,-1,-1]","[0.14653600318102988,-0.12368471704461545]","[1,1,1]","[-0.09727351423134391,-0.026526880286398973]","[1,1,1]","[0.02668960536164298,-0.057047999983925644]","[1,1,1]","[-0.1044350293061051,0.13589890652368347]","[-1,-1,-1]","[-0.07042592781530337,-0.15647070635223256]","[-1,-1,-1]","[-0.1715644507872492,0.0312939310590887]","[-1,-1,-1]","[-0.044278542357422665,0.0761502800674259]","[-1,-1,-1]","[0.14067325339693257,-0.07571145803708434]","[-1,-1,-1]","[0.01590545841379937,0.06358842380223445]","[-1,-1,-1]","[-0.1472828363029066,-0.012158200557974029]","[1,1,1]","[-0.10647300547366083,0.09118259569078054]","[1,1,1]","[0.10565730106139622,-0.024457282053468875]","[1,1,1]","[0.01324712607174117,-0.16659878483638496]","[1,1,1]","[0.06949424243873177,0.09767259149481718]","[1,1,1]","[0.008432159809097702,-0.12256454807716562]","[-1,-1,-1]","[-0.11299731318049971,-0.1322262172306551]","[-1,-1,-1]","[0.1037391039690256,-0.15727324252438796]","[1,1,1]","[-0.11294243652872456,0.027444843007892048]","[1,1,1]","[-0.06934842178363788,0.10943231730037868]","[1,1,1]","[0.07284690879750547,-0.051020388346171563]","[1,1,1]","[0.16399184497241293,0.0459299751777409]","[-1,-1,-1]","[0.06485482736578844,0.013871848982984788]","[-1,-1,-1]","[0.039404653643644524,0.1513726755990611]","[-1,-1,-1]","[-0.14103287152503494,0.06535641341034737]","[-1,-1,-1]","[0.02,0.02]",74.9925,0,1,1,84,1,,,,,,,
,,,,,,,67ab788b4d53609dd0e26861,682f0fb9b01a9108f77c9d42,2025-05-22_14h11.07.171,cuing_paradigm_dot,2024.1.5,Win32,58.13953488,682d573fa47f1360d1451895,,,,,,,,,,,74.9944,75.4918,,,75.7452,76.2803,left,,,,,,,,0.55,,,,,,75.4919,75.7452,0.5173,,76.2805,"[-0.12326097577047054,0.058479845401002616]","[-1,-1,-1]","[-0.193592925955883,0.024756610779239237]","[1,1,1]","[-0.0013996407855218287,-0.10886116155994359]","[1,1,1]","[0.043763299317281,-0.12165939701530633]","[1,1,1]","[0.04729094189902125,0.06440844342613197]","[1,1,1]","[0.026305267828060183,-0.18671758682001263]","[-1,-1,-1]","[-0.018361072293271316,-0.05637029364914699]","[-1,-1,-1]","[0.0316259688898487,0.1660489186094769]","[1,1,1]","[-0.028307687409636777,0.08627938420137067]","[-1,-1,-1]","[-0.08594268184745384,-0.13756544888898037]","[1,1,1]","[0.16109102687289298,0.020619277085603658]","[1,1,1]","[0.008855409500067272,0.032612989189323774]","[1,1,1]","[0.08784459995114162,-0.05522144575136482]","[-1,-1,-1]","[0.0865323597899011,-0.10769910592270612]","[-1,-1,-1]","[-0.07872009024824528,0.09408607195923577]","[1,1,1]","[-0.07868045285899036,-0.056556812237811914]","[-1,-1,-1]","[0.17394541128180055,-0.052231936635980705]","[-1,-1,-1]","[0.13269537566205786,-0.0696654411919734]","[1,1,1]","[0.1773728597760728,0.06521039908982769]","[1,1,1]","[-0.14904030190838144,0.10734998727344888]","[1,1,1]","[0.024305017304199674,0.10733266264656183]","[-1,-1,-1]","[-0.1332857300026247,-0.09466554010054994]","[-1,-1,-1]","[-0.0014266230547540881,0.19842211310697422]","[1,1,1]","[0.09829392583062013,0.15636160497570933]","[-1,-1,-1]","[0.12333707430185246,0.03684309413188478]","[1,1,1]","[0.06834976019672818,0.005191031594052738]","[-1,-1,-1]","[-0.05555835700917897,0.13484117853608743]","[-1,-1,-1]","[-0.18170838071614545,0.06315303657006302]","[-1,-1,-1]","[0.030165866224769536,-0.08383933080763975]","[1,1,1]","[-0.06431238399993894,0.012744744900391373]","[1,1,1]","[-0.12161992528816258,-0.04962899556293297]","[1,1,1]","[-0.15401088247388828,0.010173101449410043]","[1,1,1]","[0.02,0.02]",77.3623,0,2,2,128,1,,,,,,,
,,,,,,,67ab788b4d53609dd0e26861,682f0fb9b01a9108f77c9d42,2025-05-22_14h11.07.171,cuing_paradigm_dot,2024.1.5,Win32,58.13953488,682d573fa47f1360d1451895,,,,,,,,,,,77.3635,77.8714,,,78.1166,78.5724,right,,,,,,,,0.4,,,,,,77.8716,78.1163,0.4337,,78.5726,"[-0.06016074609146393,0.04814003451729249]","[1,1,1]","[0.05946523954854401,-0.1210771355367628]","[1,1,1]","[0.13927078300510998,-0.036359843237732205]","[-1,-1,-1]","[-0.04544383225300959,-0.0493199248630358]","[1,1,1]","[-0.08314473960039793,-0.12605842687845142]","[-1,-1,-1]","[0.019468713549623515,0.027389115930027276]","[1,1,1]","[-0.07059114364909586,0.12556948060792997]","[1,1,1]","[-0.16758086109038714,-0.04819055221009042]","[1,1,1]","[0.1881943320680237,-0.0059209289279611435]","[-1,-1,-1]","[0.019196932547525462,0.10017750386376244]","[-1,-1,-1]","[-0.017090800496556775,0.12574459813651775]","[-1,-1,-1]","[-0.07135713224605185,0.1843828042530607]","[-1,-1,-1]","[0.04513281085674129,-0.17538143133561243]","[1,1,1]","[-0.0031771861275097252,-0.021350471222894872]","[1,1,1]","[0.13378005209173532,0.11080885421086856]","[1,1,1]","[-0.16497390851285268,-0.007814232237432208]","[-1,-1,-1]","[-0.017837828750965547,-0.16775805665658144]","[1,1,1]","[-0.004460617662834884,0.1927499638208808]","[-1,-1,-1]","[-0.1328749458579741,0.12618946782034304]","[-1,-1,-1]","[-0.15832170374635735,-0.0958886206331806]","[-1,-1,-1]","[0.01679381814427347,-0.10667734182417916]","[1,1,1]","[-0.08811763130448826,0.08589888230326621]","[-1,-1,-1]","[0.05460426407853715,0.1732512306471482]","[-1,-1,-1]","[0.0990207969742637,-0.050674770458998576]","[1,1,1]","[0.17061813301649537,0.06250082127510069]","[1,1,1]","[-0.036602025915724645,0.08092347310519804]","[-1,-1,-1]","[0.11989596421479283,0.0019676735738658087]","[-1,-1,-1]","[-0.12739864148554078,0.07351630170008265]","[-1,-1,-1]","[0.06064406085768631,0.0850706681016135]","[-1,-1,-1]","[0.169616883568578,-0.07527369617861973]","[-1,-1,-1]","[0.046080997161863264,-0.05931593438047412]","[-1,-1,-1]","[-0.08728224685973913,-0.16877630354513168]","[-1,-1,-1]","[0.02,0.02]",79.6763,0,3,3,37,1,,,,,,,
,,,,,,,67ab788b4d53609dd0e26861,682f0fb9b01a9108f77c9d42,2025-05-22_14h11.07.171,cuing_paradigm_dot,2024.1.5,Win32,58.13953488,682d573fa47f1360d1451895,,,,,,,,,,,79.6776,80.1723,,,80.4122,80.9821,left,,,,,,,,0.5,,,,,,80.1725,80.412,0.5438,,80.9822,"[0.03327279293547852,-0.16148565277349797]","[1,1,1]","[0.009174062925959238,0.07603694291925775]","[1,1,1]","[-0.1453111321364223,-0.07787022267548807]","[1,1,1]","[-0.05596467119948004,0.1451644687275997]","[1,1,1]","[0.09128290078072296,0.049210001146737736]","[-1,-1,-1]","[0.02677302181856311,0.033072872794154724]","[-1,-1,-1]","[-0.08086343458841438,-0.06318615807185911]","[1,1,1]","[0.040950580858074945,-0.03476314712844578]","[-1,-1,-1]","[0.14181511224017188,-0.04581143086058628]","[-1,-1,-1]","[-0.029162783110510678,0.10290689592633895]","[-1,-1,-1]","[-0.03541733971234188,0.021871875342213794]","[-1,-1,-1]","[0.183911095989693,-0.003885133674598087]","[1,1,1]","[0.05762113435682225,0.16408086059730248]","[1,1,1]","[0.050608498415160255,-0.09471483145830148]","[-1,-1,-1]","[-0.02207368019202527,-0.11266557378147667]","[-1,-1,-1]","[0.08730796762514638,0.10812207030175727]","[1,1,1]","[0.16691710136118906,0.055901805184822344]","[-1,-1,-1]","[-0.017644202628429143,0.17442413717052824]","[-1,-1,-1]","[-0.17360616526182565,0.040085766234499]","[1,1,1]","[0.0006178459774120644,-0.020926903994877018]","[-1,-1,-1]","[-0.13486298093478583,0.10302357466517999]","[1,1,1]","[-0.1311079143258575,0.0455430194105198]","[1,1,1]","[0.09248424579800983,-0.1723209398257864]","[1,1,1]","[0.17559634909541338,-0.08142562516330326]","[-1,-1,-1]","[-0.12136010240219643,-0.024520701278789112]","[1,1,1]","[0.1385632773001184,0.13341328942409442]","[-1,-1,-1]","[0.11377341408823831,-0.006638352701811259]","[-1,-1,-1]","[0.011004233986531657,0.13643591438835936]","[1,1,1]","[0.16782272128172865,0.10433020183244007]","[-1,-1,-1]","[-0.07166287482229858,0.04070204270980838]","[1,1,1]","[-0.08591015459796238,-0.13275179044961993]","[1,1,1]","[-0.03942244973801085,-0.16361134653376688]","[-1,-1,-1]","[0.02,0.02]",82.0884,0,4,4,93,1,,,,,,,
,,,,,,,67ab788b4d53609dd0e26861,682f0fb9b01a9108f77c9d42,2025-05-22_14h11.07.171,cuing_paradigm_dot,2024.1.5,Win32,58.13953488,682d573fa47f1360d1451895,,,,,,,,,,,82.0892,82.5806,,,82.8302,83.0822,right,,,,,,,,0.45,,,,,,82.5806,82.8299,0.2257,,83.0824,"[-0.03724262304689881,-0.18418124700443658]","[1,1,1]","[0.03963644497006252,0.1942732615422107]","[-1,-1,-1]","[-0.07671009706036257,0.14824453870491755]","[-1,-1,-1]","[-0.13267694569034272,-0.07105539901455568]","[1,1,1]","[0.08896587324494405,0.14750677234941148]","[1,1,1]","[0.06375771722636123,0.08918595190620705]","[-1,-1,-1]","[-0.1490170489278496,0.02503548468883741]","[1,1,1]","[0.055506174143943765,0.018311374435677933]","[-1,-1,-1]","[0.13251722369513638,0.028203618630134455]","[1,1,1]","[-0.08502718125290624,-0.053961008271232215]","[-1,-1,-1]","[0.08250955806307694,-0.12963896354697965]","[-1,-1,-1]","[-0.047321323696193456,0.004653527138602989]","[1,1,1]","[-0.05488752169060723,0.09829415023610875]","[-1,-1,-1]","[-0.14339056055112104,-0.12529627135653035]","[-1,-1,-1]","[0.16490587514126487,0.004240633931096834]","[-1,-1,-1]","[-0.046769752656342735,0.0483071635448198]","[1,1,1]","[0.12265882898494002,-0.032258664495043374]","[-1,-1,-1]","[-0.015118058803321606,0.09076141196145893]","[-1,-1,-1]","[-0.10225493380353351,0.11423331667312107]","[1,1,1]","[-0.16496265831875806,-0.016487138195494515]","[-1,-1,-1]","[0.0322997810148465,0.12982212193850054]","[-1,-1,-1]","[0.053730222606687965,-0.16249321361194494]","[-1,-1,-1]","[-0.1588116920422173,0.11091253011567107]","[1,1,1]","[-0.010989231314110724,-0.03215351623881401]","[-1,-1,-1]","[0.13651872746435217,-0.1437586575824153]","[1,1,1]","[0.12843195060299212,-0.10090157886848217]","[-1,-1,-1]","[-0.0035450510941313356,-0.10389277534282206]","[1,1,1]","[-0.11623017726893992,0.06542694252196653]","[1,1,1]","[0.058144041772948275,-0.05204856760209007]","[1,1,1]","[-0.05593174042984681,-0.11850386707312446]","[-1,-1,-1]","[0.1949211048158456,-0.022737668586447664]","[-1,-1,-1]","[-0.03395619980460796,-0.06910556033781567]","[1,1,1]","[0.02,0.02]",84.173,0,5,5,87,1,,,,,,,
,,,,,,,67ab788b4d53609dd0e26861,682f0fb9b01a9108f77c9d42,2025-05-22_14h11.07.171,cuing_paradigm_dot,2024.1.5,Win32,58.13953488,682d573fa47f1360d1451895,,,,,,,,,,,84.1749,84.6705,,,84.9228,85.7156,left,,,,,,,,0.9,,,,,,84.6706,84.9227,0.7795,,85.7161,"[-0.013725177008279318,-0.09387873569665603]","[1,1,1]","[0.069591737260289,0.12525593715232972]","[1,1,1]","[0.02507399323506575,0.059044921253096516]","[1,1,1]","[-0.02445135259211141,0.08139491630840107]","[1,1,1]","[-0.11609867322636185,0.1544956740959878]","[1,1,1]","[-0.10397007004676222,-0.10018172356995428]","[1,1,1]","[-0.031143910812754826,0.027564145991257005]","[1,1,1]","[-0.14382086147906625,0.012131683478443003]","[-1,-1,-1]","[0.16298459134491716,0.019002308051817084]","[1,1,1]","[-0.018802196491243695,0.15053868332005274]","[1,1,1]","[0.05139290937611389,-0.08806412632508608]","[1,1,1]","[-0.05789225899765183,-0.03779335872482773]","[1,1,1]","[-0.12515413611811319,-0.15589868815461702]","[1,1,1]","[0.15248615254948408,-0.06976365843727395]","[1,1,1]","[-0.08331492135685035,0.1290984914843804]","[1,1,1]","[0.12019719427002667,0.10396718090126401]","[1,1,1]","[-0.09332885682534327,0.06084441174616938]","[1,1,1]","[-0.18300749226225366,-0.03831486989035008]","[1,1,1]","[0.09380988608767585,-0.040785843219851375]","[1,1,1]","[-0.16670159551772853,0.05605559028832516]","[1,1,1]","[-0.12190291857448307,0.10850476922984777]","[-1,-1,-1]","[0.057546763607450285,-0.17932370434593556]","[1,1,1]","[0.03569628701630852,-0.02621752076682901]","[1,1,1]","[0.11034848396169289,-0.1624510293825945]","[1,1,1]","[-0.029526441603802297,-0.18006885029826986]","[1,1,1]","[-0.10899309996911616,-0.039040655703474335]","[1,1,1]","[-0.008943891671677771,-0.1437376572905265]","[1,1,1]","[0.12316387906756071,0.05299017445248309]","[1,1,1]","[-0.05280018853121458,0.17447689831595645]","[-1,-1,-1]","[0.12439533848445074,-0.12338449380689084]","[1,1,1]","[0.03606696302036607,0.16057668330189748]","[1,1,1]","[0.17284801573468395,-0.03353726928117018]","[1,1,1]","[0.02,0.02]",86.8102,0,6,6,207,1,,,,,,,
,,,,,,,67ab788b4d53609dd0e26861,682f0fb9b01a9108f77c9d42,2025-05-22_14h11.07.171,cuing_paradigm_dot,2024.1.5,Win32,58.13953488,682d573fa47f1360d1451895,,,,,,,,,,,86.8126,87.3207,,,87.5768,88.4476,right,,,,,,,,0.45,,,,,,87.3207,87.5768,0.854,,88.4477,"[0.03751146711633297,0.051496859839266135]","[-1,-1,-1]","[0.12259491306175568,0.09020363818879286]","[-1,-1,-1]","[0.05851448291523101,0.0009991185320975206]","[1,1,1]","[0.012498633124138861,0.1349688434700265]","[-1,-1,-1]","[-0.08503119904356768,-0.16122456714753416]","[-1,-1,-1]","[-0.14929007502582978,0.022301877523739435]","[-1,-1,-1]","[-0.0899030722282861,-0.05252216247578919]","[1,1,1]","[0.0684358259021585,0.10276399406179595]","[1,1,1]","[-0.16258310520523336,-0.06650451721784705]","[1,1,1]","[-0.05117727473010582,0.1650655410885451]","[-1,-1,-1]","[-0.0181780123672272,0.07662464693211454]","[1,1,1]","[0.13919273539439664,-0.0812521036036148]","[-1,-1,-1]","[0.12665848230143031,0.03154010077893609]","[1,1,1]","[-0.1798550927341683,0.07915410540258946]","[-1,-1,-1]","[0.023386100608647816,-0.1653647755665337]","[1,1,1]","[0.16640971930768989,0.09956414078999255]","[1,1,1]","[0.11807560316480217,-0.13571217322732182]","[-1,-1,-1]","[-0.08429764088716311,0.12906765131296458]","[1,1,1]","[-0.01269505725937834,-0.02737095374191954]","[-1,-1,-1]","[0.034643632929807065,-0.06472941398586277]","[1,1,1]","[-0.08047592922764868,0.0008689132588368235]","[1,1,1]","[-0.11086373134105271,0.08430695030265754]","[-1,-1,-1]","[0.07821692987600568,0.05227257701786487]","[-1,-1,-1]","[0.08245754627204253,0.18179831346843608]","[-1,-1,-1]","[-0.04741937025365431,-0.1823943792178429]","[1,1,1]","[0.07165051054688831,-0.09302354119966252]","[1,1,1]","[-0.1055837245066071,-0.09402922979066193]","[-1,-1,-1]","[-0.039615300727997266,0.03884549632871075]","[-1,-1,-1]","[0.024609089653491,-0.11958908399144999]","[-1,-1,-1]","[0.13844747768204202,-0.03409026870644774]","[-1,-1,-1]","[0.18530017105340238,-0.025166945548150525]","[1,1,1]","[0.06571510155785071,-0.184876536162274]","[-1,-1,-1]","[0.02,0.02]",89.5437,0,7,7,85,1,,,,,,,
,,,,,,,67ab788b4d53609dd0e26861,682f0fb9b01a9108f77c9d42,2025-05-22_14h11.07.171,cuing_paradigm_dot,2024.1.5,Win32,58.13953488,682d573fa47f1360d1451895,,,,,,,,,,,89.5448,90.0425,,,90.3038,91.7955,,,,,,,,,0.1,,,,,,90.0426,90.3038,,,91.7957,"[-0.11999421011632543,0.13579683390760403]","[-1,-1,-1]","[-0.027638461231882207,0.17058259024391248]","[-1,-1,-1]","[0.11615827699913593,-0.06496569652389061]","[-1,-1,-1]","[0.027307441676688655,-0.1350590355446873]","[-1,-1,-1]","[0.028542048192134115,0.023986743472171168]","[1,1,1]","[0.10621164156732188,0.13723298839335202]","[-1,-1,-1]","[0.03830598276241336,0.09102072283445437]","[-1,-1,-1]","[0.04308532230178423,0.15825580204571477]","[-1,-1,-1]","[0.07506417574542582,-0.10091114579193568]","[-1,-1,-1]","[0.16300743270535925,0.11407516934559095]","[-1,-1,-1]","[0.08612934501318499,-0.01456739000179292]","[-1,-1,-1]","[-0.1518840300648618,-0.12961269000448072]","[-1,-1,-1]","[-0.10884962305623468,-0.029333480116033112]","[-1,-1,-1]","[-0.16252660848661804,0.020222947555249966]","[-1,-1,-1]","[-0.008589230545018395,-0.04575657241012515]","[-1,-1,-1]","[0.13750408226663172,-0.10639146565687777]","[-1,-1,-1]","[-0.06704846329436595,0.07740720886697341]","[-1,-1,-1]","[-0.025109472958100232,-0.00354222144399289]","[-1,-1,-1]","[-0.028365682431531192,-0.12809573665915652]","[-1,-1,-1]","[-0.05847484688251912,-0.09633901000940728]","[-1,-1,-1]","[-0.05742639559359625,0.1355501758100915]","[-1,-1,-1]","[-0.00591072679303879,-0.18727393992547875]","[1,1,1]","[-0.09344529577864837,0.17659283620581961]","[-1,-1,-1]","[-0.1576720321906102,0.09993167633665503]","[-1,-1,-1]","[-0.1874601552426307,0.0558166388782635]","[-1,-1,-1]","[-0.02566293006704443,0.042377078154155416]","[-1,-1,-1]","[-0.11431844565817066,-0.14412958625220262]","[-1,-1,-1]","[0.14766396555227548,0.05647090520192878]","[1,1,1]","[0.18904500302799832,-0.0468227036594065]","[-1,-1,-1]","[-0.12254676534517468,0.028848988581414093]","[-1,-1,-1]","[0.04837315392540467,-0.03232004533278279]","[-1,-1,-1]","[0.02027081344921198,0.19705816324550812]","[-1,-1,-1]","[0.02,0.02]",92.8877,0,8,8,19,1,,,,,,,
,,,,,,,67ab788b4d53609dd0e26861,682f0fb9b01a9108f77c9d42,2025-05-22_14h11.07.171,cuing_paradigm_dot,2024.1.5,Win32,58.13953488,682d573fa47f1360d1451895,,,,,,,,,,,92.8883,93.3875,,,93.6282,95.0391,right,,,,,,,,0.9,,,,,,93.3876,93.6281,1.395,,95.0391,"[-0.02052192147671452,0.07384051908168426]","[1,1,1]","[0.107530636699098,0.15852346385122376]","[1,1,1]","[0.1455791383410207,0.10112034504549196]","[1,1,1]","[-0.027126255352835835,-0.047229254495916695]","[1,1,1]","[-0.05845349685631142,-0.1369108748184803]","[1,1,1]","[-0.14522646284839336,-0.017203160496503257]","[1,1,1]","[-0.1609140405143225,0.05130440486241117]","[1,1,1]","[-0.09412355975453687,0.07968808075635687]","[1,1,1]","[0.1790538549282768,-0.07554521425740927]","[1,1,1]","[-0.10824377609979446,-0.06723019668384841]","[1,1,1]","[-0.052129605620493305,0.15818997068260643]","[-1,-1,-1]","[0.08224917686268965,0.017206170101830065]","[1,1,1]","[0.06814325849830902,-0.07752018321480286]","[1,1,1]","[0.0801961030318491,-0.1607607398186052]","[-1,-1,-1]","[-0.15190055308038022,-0.09067156943000776]","[1,1,1]","[0.0585481699597655,0.09157555252576974]","[-1,-1,-1]","[-0.10638521771877942,-0.16831074050438555]","[1,1,1]","[-0.0043406913440518936,0.14825885250083143]","[1,1,1]","[0.06461381142205856,0.17790358065087938]","[1,1,1]","[-0.013604543194905111,-0.15493196320883776]","[1,1,1]","[0.12840036287669154,-0.08452540782699493]","[1,1,1]","[-0.08312913279342338,-0.013378035389765827]","[1,1,1]","[0.037502403156636915,-0.11315416773600301]","[1,1,1]","[0.16815694220351365,-0.01981031071413198]","[1,1,1]","[0.10522260553664603,0.07674593140560479]","[1,1,1]","[0.041944123603157246,-0.017001659346211433]","[1,1,1]","[-0.007456276241719025,0.009813990285099937]","[1,1,1]","[-0.1953027507733637,-0.04143668083058164]","[1,1,1]","[-0.04789697042096755,0.0188529857158792]","[1,1,1]","[-0.005498454264564118,-0.10971178364320583]","[1,1,1]","[0.12874495597080132,-0.1462634119451798]","[1,1,1]","[-0.1287621797600253,0.12979032815792255]","[1,1,1]","[0.02,0.02]",96.1373,0,9,9,189,1,,,,,,,
,,,,,,,67ab788b4d53609dd0e26861,682f0fb9b01a9108f77c9d42,2025-05-22_14h11.07.171,cuing_paradigm_dot,2024.1.5,Win32,58.13953488,682d573fa47f1360d1451895,,,,,,,,,,,96.1378,96.6374,,,96.8829,98.3847,,,,,,,,,0.1,,,,,,96.6374,96.8828,,,98.3847,"[-0.04551924909388606,0.08798868931010743]","[1,1,1]","[-0.11586738128874385,0.12372104295208444]","[1,1,1]","[0.062492031395380246,0.08570621255834435]","[-1,-1,-1]","[0.08961155769498673,0.14578628049941764]","[-1,-1,-1]","[-0.15381326803146247,0.06597489510909582]","[-1,-1,-1]","[0.044993911997649946,-0.038481792567320657]","[-1,-1,-1]","[0.020310753147955805,-0.1933613466136623]","[-1,-1,-1]","[0.002692091385973014,-0.1538211917486937]","[-1,-1,-1]","[0.164171414133957,0.011933187823139969]","[-1,-1,-1]","[-0.10270670203635757,0.03215265572900723]","[-1,-1,-1]","[-0.01406453490707215,-0.010282748048294479]","[-1,-1,-1]","[-0.14706977290820836,-0.03499865150106027]","[-1,-1,-1]","[0.1416530028335869,-0.09627274287499923]","[-1,-1,-1]","[-0.07848719974620853,-0.09257650087396462]","[-1,-1,-1]","[-0.1706418927306337,-0.09348805738096501]","[-1,-1,-1]","[0.027051269722391563,-0.10018181988083931]","[-1,-1,-1]","[0.09247513786463668,-0.04876924532459168]","[-1,-1,-1]","[0.14005897969323997,-0.04530951608151344]","[-1,-1,-1]","[0.1197558490343346,0.1036783570562001]","[-1,-1,-1]","[-0.10492720287556878,-0.1583205260853264]","[-1,-1,-1]","[0.12466741939475012,-0.15039433994817727]","[-1,-1,-1]","[0.18544335321431513,-0.025238913562879713]","[-1,-1,-1]","[-0.0593943917507399,-0.12835488586152194]","[-1,-1,-1]","[0.02934607287192278,0.15227864235314065]","[-1,-1,-1]","[-0.05904767246708403,0.18207512828415784]","[-1,-1,-1]","[-0.034952144116740476,-0.09519967594780866]","[-1,-1,-1]","[-0.19004904162292072,0.024419298418949954]","[-1,-1,-1]","[0.10252181017258317,0.014638303138005038]","[-1,-1,-1]","[-0.0007414869733683563,-0.05770254462048666]","[-1,-1,-1]","[0.01198646313380758,0.08029464363688511]","[-1,-1,-1]","[-0.01892219244372108,0.17446664542266976]","[1,1,1]","[-0.15233059741229238,-0.12908223855337111]","[-1,-1,-1]","[0.02,0.02]",99.4827,0,10,10,3,1,,,,,,,
,,,,,,,67ab788b4d53609dd0e26861,682f0fb9b01a9108f77c9d42,2025-05-22_14h11.07.171,cuing_paradigm_dot,2024.1.5,Win32,58.13953488,682d573fa47f1360d1451895,,,,,,,,,,,99.4842,99.9877,,,100.2379,100.7281,left,,,,,,,,0.9,,,,,,99.9877,100.2377,0.4567,,100.7282,"[-0.14018455731851412,0.09503057164639075]","[1,1,1]","[0.05124929725030788,-0.0008783090111351005]","[1,1,1]","[0.0710199374990636,0.11639925456068809]","[1,1,1]","[0.03452267688867405,-0.18030936421946142]","[1,1,1]","[0.08171034639750197,0.1652418827090597]","[1,1,1]","[-0.1674327618995963,0.06052710437548249]","[1,1,1]","[0.057176439722373844,0.07285660557685429]","[1,1,1]","[0.024682085469275614,0.14959192213346717]","[1,1,1]","[-0.09441135207608281,-0.10796979773615051]","[1,1,1]","[0.10556907776543203,0.0003789100270172848]","[1,1,1]","[-0.01165032385162221,-0.19760481078090059]","[1,1,1]","[0.044631569252403004,-0.13372039306423872]","[1,1,1]","[-0.014808055501470083,-0.03613391425496587]","[-1,-1,-1]","[-0.1446053138491558,-0.001971683276728705]","[1,1,1]","[-0.1822514509772146,0.02107733730031571]","[1,1,1]","[-0.004635917695734766,0.11084101399612842]","[1,1,1]","[-0.05815368038278928,0.16444837464414072]","[-1,-1,-1]","[-0.05722129985216443,-0.0741045850864141]","[1,1,1]","[-0.09432205152968398,-0.03151446209844001]","[1,1,1]","[-0.07453893167710068,-0.1577439467611498]","[1,1,1]","[0.0023684885905270515,-0.12565926433552843]","[1,1,1]","[-0.09415023107868142,0.09690715154497169]","[1,1,1]","[-0.07048882213450663,0.02005631998574919]","[1,1,1]","[-0.13496649167701155,-0.1179820892411996]","[1,1,1]","[-0.017667589398896368,-0.08078020281825062]","[1,1,1]","[-0.055306216375637554,0.1186730192540957]","[-1,-1,-1]","[0.15638204573362413,0.07033721813498504]","[1,1,1]","[0.0935560011677079,-0.06423830981633247]","[1,1,1]","[0.05080933638700064,-0.08078850156045776]","[1,1,1]","[0.1490252748816861,-0.05660853270953624]","[1,1,1]","[0.15302788319782645,-0.007427710311087138]","[1,1,1]","[-0.015888722122668078,0.17542271310793878]","[1,1,1]","[0.02,0.02]",101.828,0,11,11,196,1,,,,,,,
,,,,,,,67ab788b4d53609dd0e26861,682f0fb9b01a9108f77c9d42,2025-05-22_14h11.07.171,cuing_paradigm_dot,2024.1.5,Win32,58.13953488,682d573fa47f1360d1451895,,,,,,,,,,,101.8292,102.3316,,,102.5785,103.5633,right,,,,,,,,0.6,,,,,,102.3317,102.5785,0.9685,,103.5635,"[0.0038078529357657696,-0.10870854264463335]","[-1,-1,-1]","[0.1314101177941903,-0.07797961654184414]","[1,1,1]","[0.09179389195200563,-0.015207610976428998]","[-1,-1,-1]","[0.12029100272631796,-0.15917381461114483]","[-1,-1,-1]","[0.18355846405859375,0.049568396777695464]","[1,1,1]","[0.010468556002615365,0.08015802446714101]","[1,1,1]","[0.1562041169115171,-0.11492244091677813]","[-1,-1,-1]","[0.03342602999469824,0.014947537760458094]","[-1,-1,-1]","[-0.07346603610464883,-0.04629411121261358]","[1,1,1]","[-0.12773307315471308,-0.1446215655440117]","[1,1,1]","[0.1168932083846962,0.1442048782538068]","[1,1,1]","[0.10601829589847885,0.04036158812569239]","[1,1,1]","[0.048175521505480816,-0.08010228006021854]","[-1,-1,-1]","[0.08329087995265176,0.18089985444094403]","[-1,-1,-1]","[-0.13685957014206457,-0.041253212614572245]","[-1,-1,-1]","[-0.14577569087971753,0.05841104094519108]","[1,1,1]","[-0.09827644562707469,-0.011904434445420449]","[1,1,1]","[-0.001893394961537114,-0.16012108841667588]","[-1,-1,-1]","[0.02877779246329082,0.12175160081703434]","[1,1,1]","[-0.04268110854839425,0.014382212645700108]","[1,1,1]","[0.06759958372318231,0.07250329605005332]","[1,1,1]","[-0.1944101835506989,-0.03417433785368997]","[1,1,1]","[0.06998407510267772,-0.14595335295582387]","[1,1,1]","[-0.15793142186858758,-0.09437872462369805]","[-1,-1,-1]","[-0.047118076433639654,-0.09548874598613842]","[1,1,1]","[-0.04910946651478324,0.13748608429673176]","[1,1,1]","[-0.017591756919515658,-0.036834842152432705]","[1,1,1]","[0.02195199842000214,0.17394134856721846]","[-1,-1,-1]","[0.136144013131518,0.08700200966728708]","[1,1,1]","[-0.12196326616007595,0.14040846675295354]","[-1,-1,-1]","[-0.08603034855370917,-0.14258778919710932]","[1,1,1]","[0.18661836866195494,-0.04542415630492572]","[-1,-1,-1]","[0.02,0.02]",104.6659,0,12,12,173,1,,,,,,,
,,,,,,,67ab788b4d53609dd0e26861,682f0fb9b01a9108f77c9d42,2025-05-22_14h11.07.171,cuing_paradigm_dot,2024.1.5,Win32,58.13953488,682d573fa47f1360d1451895,,,,,,,,,,,104.6675,105.1482,,,105.3919,105.8546,left,,,,,,,,0.55,,,,,,105.1482,105.3916,0.4459,,105.8547,"[-0.010441620156753212,0.07302908629851912]","[1,1,1]","[-0.048898440001504354,0.17773428989435064]","[-1,-1,-1]","[-0.11044128952653078,-0.057558905853052726]","[1,1,1]","[0.1432236814686243,-0.08974451482891715]","[-1,-1,-1]","[-0.1600946451183714,-0.09517499623032304]","[-1,-1,-1]","[-0.03371172542539955,-0.13417592002359274]","[-1,-1,-1]","[0.07451026088938878,0.135426878178769]","[-1,-1,-1]","[-0.0832731510390776,-0.019559309486835288]","[1,1,1]","[0.049678122578958234,0.09664854724584923]","[1,1,1]","[0.14016026148473718,0.0700086368804393]","[1,1,1]","[0.11094033756649287,0.022692403565165786]","[-1,-1,-1]","[0.1774263562313972,0.0382725032116556]","[1,1,1]","[0.019604158721938783,0.17096081483205633]","[-1,-1,-1]","[0.010408370852597102,-0.07172061101030876]","[-1,-1,-1]","[-0.12149026610998698,0.04575726172674193]","[1,1,1]","[-0.11765269246483742,0.12306505077259763]","[1,1,1]","[-0.0024701182047810986,0.12546000591936982]","[-1,-1,-1]","[0.18836444629013274,-0.06164775916178718]","[1,1,1]","[-0.036164548717098885,0.02427744616948015]","[1,1,1]","[0.06666343241191161,-0.08083475245681539]","[-1,-1,-1]","[0.1275331223114493,0.15028851933826595]","[1,1,1]","[-0.09909446493043814,-0.1417176606571158]","[-1,-1,-1]","[-0.1322957808371572,-0.006479187821681244]","[1,1,1]","[0.01645713418292073,-0.11212857598240483]","[1,1,1]","[0.06028179744668486,-0.019038492867611542]","[-1,-1,-1]","[0.12963513667063245,-0.029004645887644887]","[1,1,1]","[-0.10303858395423195,0.16208658292339376]","[-1,-1,-1]","[-0.010423726326893354,-0.010174255361894582]","[-1,-1,-1]","[-0.1619744824249053,0.04819154432747614]","[1,1,1]","[-0.04710144952997267,-0.06111853248235046]","[1,1,1]","[-0.16870703893250003,-0.04576882739474058]","[1,1,1]","[0.010110343986451905,-0.17839263585479256]","[1,1,1]","[0.02,0.02]",106.9544,0,13,13,147,1,,,,,,,
,,,,,,,67ab788b4d53609dd0e26861,682f0fb9b01a9108f77c9d42,2025-05-22_14h11.07.171,cuing_paradigm_dot,2024.1.5,Win32,58.13953488,682d573fa47f1360d1451895,,,,,,,,,,,106.9559,107.448,,,107.706,108.389,right,,,,,,,,0.6,,,,,,107.4482,107.7059,0.6651,,108.3893,"[-0.09561793734326403,0.14211672999632666]","[1,1,1]","[-0.06906140339482358,-0.1241695757012585]","[1,1,1]","[0.08914108533299744,-0.08163021557003147]","[1,1,1]","[0.03557252327828448,0.14405827238563007]","[1,1,1]","[0.08672777248505033,0.12885445108573648]","[1,1,1]","[-0.030288854809687554,0.03207341703054124]","[1,1,1]","[-0.11092435667923249,-0.09295272972682653]","[-1,-1,-1]","[-0.03439850239733533,-0.04363451130844573]","[-1,-1,-1]","[0.09844514723948522,0.05002704002127996]","[1,1,1]","[-0.1226726542667406,0.087628210080721]","[-1,-1,-1]","[-0.1599428027670612,0.021497682437172334]","[1,1,1]","[-0.09182454890394282,-0.02194803556293874]","[1,1,1]","[-0.07557617480247358,0.016389182972457665]","[-1,-1,-1]","[-0.061092713668489874,0.07235950815164297]","[-1,-1,-1]","[-0.08550607209222863,-0.17122167059721166]","[-1,-1,-1]","[0.11522401915485293,-0.1365812828666298]","[-1,-1,-1]","[0.12411742172133626,-0.04239563206323416]","[-1,-1,-1]","[-0.038128151619972864,0.14049811487535271]","[1,1,1]","[-0.19606889626158866,-0.006726234997295861]","[1,1,1]","[0.038909055915721295,-0.012340905711825539]","[1,1,1]","[0.16667169854035083,0.06767939372188336]","[-1,-1,-1]","[-0.029661335531091862,-0.10777822938288328]","[1,1,1]","[0.1474275384971607,-0.10364164265476533]","[1,1,1]","[0.1338157998170771,0.11794634791677415]","[1,1,1]","[0.014340484470247068,0.06799026220542281]","[1,1,1]","[0.1918102420297385,0.027000840397837088]","[-1,-1,-1]","[0.16691977440441325,-0.03362511358539007]","[-1,-1,-1]","[0.04864933786490961,-0.16019404697894954]","[-1,-1,-1]","[0.01678330770997322,-0.0577119117841512]","[-1,-1,-1]","[-0.1444020982826049,-0.12944173490850017]","[1,1,1]","[-0.13787282423012834,0.13551429470216408]","[1,1,1]","[0.041568668748257494,-0.1036768058883303]","[1,1,1]","[0.02,0.02]",109.4784,0,14,14,176,1,,,,,,,
,,,,,,,67ab788b4d53609dd0e26861,682f0fb9b01a9108f77c9d42,2025-05-22_14h11.07.171,cuing_paradigm_dot,2024.1.5,Win32,58.13953488,682d573fa47f1360d1451895,,,,,,,,,,,109.4811,109.977,,,110.2247,111.7371,,,,,,,,,0.1,,,,,,109.9772,110.2246,,,111.7373,"[0.0938913674282809,-0.12465021263765366]","[-1,-1,-1]","[-0.04702863341132985,-0.09761304063765086]","[1,1,1]","[0.09083689735217393,0.06097023278037132]","[1,1,1]","[0.11322111622143384,-0.003245098016821841]","[-1,-1,-1]","[0.037238102986352606,0.058256131651956596]","[-1,-1,-1]","[0.1520903491596222,-0.1057949682408899]","[-1,-1,-1]","[0.16471726882297807,0.08229150107260762]","[-1,-1,-1]","[0.18526785906169066,-0.022113459705243206]","[-1,-1,-1]","[-0.09761929224807256,-0.1737344534759393]","[-1,-1,-1]","[-0.06217223315166298,0.11217811155539156]","[-1,-1,-1]","[0.0852467322538148,-0.07400658861505749]","[1,1,1]","[0.10091977908516081,0.16286112349428383]","[-1,-1,-1]","[-0.02294955333948593,0.05214238485762192]","[-1,-1,-1]","[-0.1637691805570351,0.029364184254661408]","[-1,-1,-1]","[-0.02113886481437609,0.16265839017038294]","[-1,-1,-1]","[0.031215223327519675,0.012418434070821311]","[-1,-1,-1]","[0.0527091243063926,-0.10349409944439893]","[-1,-1,-1]","[0.06261629185467303,-0.021231001302388957]","[-1,-1,-1]","[-0.09412508883383373,-0.08589637353065249]","[-1,-1,-1]","[-0.1638945861917815,-0.0988502450512359]","[-1,-1,-1]","[0.06400400160501686,0.1259069941539615]","[-1,-1,-1]","[-0.01374605810764467,-0.16682967243906366]","[-1,-1,-1]","[-0.12494060577579386,0.011611001366583537]","[-1,-1,-1]","[-0.1626492548169422,0.07618039314733166]","[-1,-1,-1]","[0.14538235703645566,-0.06531895931628484]","[-1,-1,-1]","[0.04442424795344838,-0.16488284278587984]","[-1,-1,-1]","[0.12401974005857881,-0.15384050938417915]","[-1,-1,-1]","[-0.0724065018321568,-0.0414771779004693]","[-1,-1,-1]","[0.007740327504801185,0.118977839861246]","[-1,-1,-1]","[0.010706507613708179,-0.12927623862180374]","[-1,-1,-1]","[0.01689538406458283,-0.07005553432310468]","[-1,-1,-1]","[-0.11960175503337582,0.059837272072660166]","[-1,-1,-1]","[0.02,0.02]",112.8371,0,15,15,23,1,,,,,,,
,,,,,,,67ab788b4d53609dd0e26861,682f0fb9b01a9108f77c9d42,2025-05-22_14h11.07.171,cuing_paradigm_dot,2024.1.5,Win32,58.13953488,682d573fa47f1360d1451895,,,,,,,,,,,112.838,113.3371,,,113.5865,115.0836,,,,,,,,,0.45,,,,,,113.3371,113.5862,,,115.0838,"[0.12536756934065615,0.05970802213595686]","[1,1,1]","[-0.08805405602933851,-0.0640298457765075]","[-1,-1,-1]","[0.10816832159705465,-0.15614265505508831]","[1,1,1]","[-0.11596722885456447,-0.09551158609366836]","[-1,-1,-1]","[0.024930935055080365,-0.0035556452312149336]","[-1,-1,-1]","[0.12076341801428693,0.10585701388290769]","[1,1,1]","[-0.06614439149475579,0.10019795383629601]","[-1,-1,-1]","[-0.0683422234315634,-0.12811043373642952]","[-1,-1,-1]","[0.07658987083759673,-0.07972442032123614]","[1,1,1]","[0.0039276139125590335,0.19331890373876218]","[1,1,1]","[-0.02666752588978209,0.04547786910539318]","[1,1,1]","[0.03937494492010506,0.04934350893988417]","[-1,-1,-1]","[0.034529782714299205,-0.1564266873537466]","[-1,-1,-1]","[0.10987089412781238,0.16090328886277286]","[-1,-1,-1]","[-0.07381078815625869,0.059217251803776814]","[1,1,1]","[-0.19705124687458844,-0.015265555746420842]","[-1,-1,-1]","[-0.03803678664341927,-0.024966270518066942]","[-1,-1,-1]","[-0.12871599280816728,-0.04211215714803465]","[-1,-1,-1]","[0.19113426764999597,0.052386396924670744]","[-1,-1,-1]","[-0.10971833496224835,0.028893071742057255]","[-1,-1,-1]","[-0.07435457902481243,0.004731621789439414]","[-1,-1,-1]","[-0.12902546173523025,0.11088240676585136]","[1,1,1]","[0.1895935157769514,-0.023175429380977906]","[1,1,1]","[0.11354509982261245,-0.11520875088489495]","[1,1,1]","[-0.01789830672507313,-0.1375798752931988]","[1,1,1]","[-0.17940585363893127,0.051442236661996744]","[1,1,1]","[-0.0769605930291189,0.1397318049226012]","[1,1,1]","[0.16757402987327363,-0.08376694812254475]","[1,1,1]","[0.07580211956075612,0.10345024255336642]","[-1,-1,-1]","[0.08579274001507485,0.03315022363159253]","[-1,-1,-1]","[-0.01432889675832453,0.007374848609370502]","[-1,-1,-1]","[0.01795858531736636,0.09722978369757006]","[-1,-1,-1]","[0.02,0.02]",116.1796,0,16,16,79,1,,,,,,,
,,,,,,,67ab788b4d53609dd0e26861,682f0fb9b01a9108f77c9d42,2025-05-22_14h11.07.171,cuing_paradigm_dot,2024.1.5,Win32,58.13953488,682d573fa47f1360d1451895,,,,,,,,,,,116.1805,116.675,,,116.9176,118.418,,,,,,,,,0.1,,,,,,116.675,116.9174,,,118.4181,"[-0.002465473316319039,0.11379215227633097]","[-1,-1,-1]","[0.0634546090724506,0.0893118264933932]","[-1,-1,-1]","[-0.18665825174453668,0.017760518547790836]","[-1,-1,-1]","[0.0006216815503198088,0.1910966934764764]","[-1,-1,-1]","[0.04821597772472866,-0.14295780606520922]","[-1,-1,-1]","[0.05886055346971512,0.02180233274303133]","[-1,-1,-1]","[0.05356056491272326,-0.04763793938194193]","[-1,-1,-1]","[-0.11499875112183075,-0.029658439102778406]","[-1,-1,-1]","[0.10895013660467706,0.09795903225176311]","[-1,-1,-1]","[0.1485027815319994,0.08308291379680348]","[-1,-1,-1]","[0.1713622521954317,-0.08307840861060688]","[-1,-1,-1]","[0.17672185765943133,0.0058987679718225175]","[-1,-1,-1]","[0.09209659311792685,-0.106180841936035]","[1,1,1]","[-0.12822365692774737,-0.08450238231983952]","[-1,-1,-1]","[-0.04641524811193113,-0.0179988203311561]","[1,1,1]","[-0.18515875508529026,0.06297029905516995]","[-1,-1,-1]","[-0.07368231057939777,-0.049897577488359476]","[-1,-1,-1]","[0.008207006523198135,-0.10452060358070797]","[-1,-1,-1]","[-0.10036421290651923,0.012000637128491183]","[-1,-1,-1]","[-0.0698430412506149,0.0927061582687489]","[-1,-1,-1]","[-0.06475221081930105,0.17082375216786688]","[-1,-1,-1]","[-0.042156127768455294,-0.13015579558848198]","[-1,-1,-1]","[-0.02032128136522837,0.046047536693274285]","[-1,-1,-1]","[-0.12111069471784051,0.05108791452731449]","[-1,-1,-1]","[-0.052890446231607484,-0.17958609632028016]","[-1,-1,-1]","[0.04580844668933092,-0.08803088200990135]","[-1,-1,-1]","[0.020273923247685108,-0.19376109422596738]","[-1,-1,-1]","[-0.09159011836111895,0.1317840543446706]","[-1,-1,-1]","[0.13196942261995423,0.14199557991383385]","[1,1,1]","[0.12189633010170965,-0.008690886964740756]","[-1,-1,-1]","[-0.04227892247388545,0.1249851839832417]","[-1,-1,-1]","[0.02724074392082977,0.052396029010257285]","[-1,-1,-1]","[0.02,0.02]",119.494,0,17,17,17,1,,,,,,,
,,,,,,,67ab788b4d53609dd0e26861,682f0fb9b01a9108f77c9d42,2025-05-22_14h11.07.171,cuing_paradigm_dot,2024.1.5,Win32,58.13953488,682d573fa47f1360d1451895,,,,,,,,,,,119.4947,119.9915,,,120.2307,121.7227,,,,,,,,,0.5,,,,,,119.9915,120.2306,,,121.7227,"[0.005069471146245238,-0.037816591392685873]","[1,1,1]","[0.12011106215488374,-0.041434412267970636]","[-1,-1,-1]","[0.05875981467268309,0.18200470573765035]","[-1,-1,-1]","[-0.03673364995682006,-0.1344068467263683]","[1,1,1]","[-0.09780496623041919,0.036910671122643256]","[1,1,1]","[-0.10238378931206987,-0.16914802150897074]","[1,1,1]","[-0.12666529205770485,0.08976638625433708]","[1,1,1]","[-0.052308869807957056,0.11906228173476825]","[-1,-1,-1]","[-0.16068692460555092,-0.0787453265107953]","[1,1,1]","[0.024567245232470964,0.02557445710609467]","[-1,-1,-1]","[0.08763083381390276,0.022407151510929674]","[-1,-1,-1]","[-0.060098934591947026,-0.0999634644727466]","[1,1,1]","[0.03189145179198662,0.12544545391906523]","[1,1,1]","[-0.0020408899616819326,-0.18428365577459369]","[1,1,1]","[0.06504858480170693,-0.09976369722105019]","[-1,-1,-1]","[0.06833560477949424,0.06005300194553312]","[-1,-1,-1]","[0.10910267563678228,-0.10195204361057982]","[-1,-1,-1]","[-0.18834620281644213,0.00446999277761193]","[1,1,1]","[0.1268820685326538,0.04655116868049623]","[-1,-1,-1]","[0.03474619809612416,-0.13748698044385077]","[1,1,1]","[-0.08474476009670776,-0.0643876209389051]","[1,1,1]","[-0.047060680870402126,-0.00496320333152121]","[-1,-1,-1]","[0.1558202362039937,0.1132421245353757]","[-1,-1,-1]","[0.07281430524191265,0.12956574016124187]","[-1,-1,-1]","[0.13860156125346917,-0.1347473565450423]","[1,1,1]","[0.09828578762458819,0.16192351699879576]","[1,1,1]","[-0.09490915124705164,0.14709482676292315]","[-1,-1,-1]","[-0.02344899770325371,0.07746759591210514]","[-1,-1,-1]","[-0.1060124881064829,-0.11461297006491747]","[-1,-1,-1]","[-0.011523707254910196,0.13551901636577848]","[1,1,1]","[0.05131513941870878,-0.032092732050837916]","[1,1,1]","[-0.14183330310754155,-0.13855103365917462]","[-1,-1,-1]","[0.02,0.02]",122.8369,0,18,18,109,1,,,,,,,
,,,,,,,67ab788b4d53609dd0e26861,682f0fb9b01a9108f77c9d42,2025-05-22_14h11.07.171,cuing_paradigm_dot,2024.1.5,Win32,58.13953488,682d573fa47f1360d1451895,,,,,,,,,,,122.8376,123.3258,,,123.566,124.2048,right,,,,,,,,0.55,,,,,,123.326,123.5658,0.6154,,124.2049,"[0.14370448597846922,0.05853964107729018]","[1,1,1]","[-0.015278639038760878,0.06297368075016813]","[1,1,1]","[-0.0354474505681575,-0.18509082082638897]","[-1,-1,-1]","[-0.06473138634630075,-0.052059058771993995]","[1,1,1]","[0.07799461771196842,0.159252887336266]","[-1,-1,-1]","[0.040539424048427294,0.0518032866833776]","[1,1,1]","[-0.12121338265215652,0.13607038292175058]","[-1,-1,-1]","[-0.17509035473307166,0.03696211622532891]","[1,1,1]","[0.07221469706568182,-0.169047926094745]","[-1,-1,-1]","[0.002659019832507377,-0.13252606044643248]","[-1,-1,-1]","[-0.168468074038916,-0.07057659584348965]","[1,1,1]","[0.053496047031233035,-0.0493359220357132]","[-1,-1,-1]","[0.015891226105241633,0.14139825235933062]","[1,1,1]","[0.014643254921071668,-0.018743966809970678]","[-1,-1,-1]","[0.17749714427213648,-0.06185886799521018]","[1,1,1]","[0.09429856609037052,-0.1011304260647611]","[1,1,1]","[-0.15369988988221744,-0.018861403791097988]","[-1,-1,-1]","[0.1347957588040344,-0.07189449193445818]","[-1,-1,-1]","[0.1044720711980845,0.04931830335781071]","[-1,-1,-1]","[0.04453774556844701,0.10916119250195427]","[1,1,1]","[-0.04647422729314771,0.10911198340358368]","[1,1,1]","[-0.07980436550285107,-0.006366578432709554]","[1,1,1]","[0.1110265628148846,0.0996676641494671]","[1,1,1]","[-0.08913467547504766,0.17423900811861787]","[-1,-1,-1]","[-0.11042168318264864,-0.04671631203624165]","[-1,-1,-1]","[-0.12241309740974607,-0.13606442493541657]","[-1,-1,-1]","[-0.0475988007359542,0.15547091182833964]","[-1,-1,-1]","[0.13991550760370602,-0.018358024506587165]","[1,1,1]","[-0.07350893679551834,-0.16226234439499163]","[1,1,1]","[0.09385616329295887,0.0053423814810316834]","[1,1,1]","[0.1953097795497499,0.017077768011400773]","[1,1,1]","[-0.06580728910224296,0.06704818201332492]","[1,1,1]","[0.02,0.02]",125.2993,0,19,19,139,1,,,,,,,
,,,,,,,67ab788b4d53609dd0e26861,682f0fb9b01a9108f77c9d42,2025-05-22_14h11.07.171,cuing_paradigm_dot,2024.1.5,Win32,58.13953488,682d573fa47f1360d1451895,,,,,,,,,,,125.301,125.7937,,,126.0381,126.4821,left,,,,,,,,0.6,,,,,,125.7939,126.038,0.4259,,126.4822,"[0.030673000781256014,0.17638793807788125]","[1,1,1]","[0.16802175083569473,0.08794338467393976]","[1,1,1]","[0.10144101816350325,-0.0012070354938831913]","[1,1,1]","[-0.10146617995529157,-0.0006445796858588147]","[1,1,1]","[-0.16765153483806608,0.04409464069645074]","[1,1,1]","[-0.03529705997592013,-0.15309322952261525]","[1,1,1]","[-0.15930350618553146,-0.02575118797351761]","[1,1,1]","[0.1306128789549028,-0.06463833893280142]","[-1,-1,-1]","[-0.08432083746384202,0.09936869581352306]","[-1,-1,-1]","[0.014788601044660612,0.13901244586847727]","[-1,-1,-1]","[0.015144392765510906,-0.09639274773853483]","[-1,-1,-1]","[-0.07318831530451243,0.13958598392132718]","[1,1,1]","[0.030543745461327643,0.026591224170526367]","[-1,-1,-1]","[0.026559350604219024,-0.19693782830751505]","[-1,-1,-1]","[0.07470728741629235,-0.13119805742724255]","[-1,-1,-1]","[-0.1847678043581665,0.0056089575363306755]","[-1,-1,-1]","[-0.1345590993826937,0.09330795178006397]","[1,1,1]","[-0.14013523489931184,0.13709386525184958]","[1,1,1]","[0.006672907113095083,-0.14419652058918433]","[1,1,1]","[0.11578035221202503,0.16153481775048809]","[-1,-1,-1]","[-0.035916770238208405,-0.03450516138474125]","[-1,-1,-1]","[-0.014229778174362877,0.010194281834249409]","[1,1,1]","[0.08765191253015159,-0.08141395996889828]","[1,1,1]","[0.1362626684518683,0.019825833021830084]","[1,1,1]","[0.050847802213650026,0.06690077249092756]","[-1,-1,-1]","[0.11795331854028224,-0.15745576753404517]","[-1,-1,-1]","[-0.15218848532389662,-0.08454589114700294]","[-1,-1,-1]","[-0.0035446162207666693,0.09811846817869041]","[1,1,1]","[0.06986911453455734,-0.18704433075793314]","[1,1,1]","[-0.05325737112608181,-0.11471128856818706]","[1,1,1]","[-0.13038253324037982,-0.1338720296405658]","[1,1,1]","[-0.07429196072418671,-0.1772992480018548]","[1,1,1]","[0.02,0.02]",127.5754,0,20,20,161,1,,,,,,,
,,,,,,,67ab788b4d53609dd0e26861,682f0fb9b01a9108f77c9d42,2025-05-22_14h11.07.171,cuing_paradigm_dot,2024.1.5,Win32,58.13953488,682d573fa47f1360d1451895,,,,,,,,,,,127.5765,128.0769,,,128.3257,128.7418,right,,,,,,,,0.1,,,,,,128.0769,128.3257,0.4024,,128.7419,"[-0.09183121580771206,-0.14638616561540235]","[-1,-1,-1]","[0.024098863449923336,0.18470472930209844]","[-1,-1,-1]","[0.017727613056271067,0.09936848108515059]","[-1,-1,-1]","[-0.07411792675159656,0.11037859809029286]","[-1,-1,-1]","[0.1214068452648637,0.03390954258144796]","[-1,-1,-1]","[0.0687626616083341,0.04216715771925471]","[-1,-1,-1]","[-0.06307874875711808,-0.18343292781813417]","[-1,-1,-1]","[-0.1855765203630812,-0.030087977937706196]","[-1,-1,-1]","[-0.049923677017243456,-0.0024924414893625706]","[-1,-1,-1]","[-0.025848155747231,0.19510533115282977]","[-1,-1,-1]","[0.1781511787952625,-0.06369274162603801]","[-1,-1,-1]","[-0.03360010635714213,-0.12363071471936617]","[-1,-1,-1]","[-0.0031677830833304593,-0.01912013028988369]","[-1,-1,-1]","[0.008338855671973035,0.05675541314377775]","[1,1,1]","[0.15570739039603243,-0.013443674339368274]","[-1,-1,-1]","[0.1700736068118705,0.04843384963291999]","[-1,-1,-1]","[0.07942325971405288,-0.03615889490908062]","[-1,-1,-1]","[-0.17195443689014597,0.09875363040682264]","[-1,-1,-1]","[0.11899474352403089,-0.08103856401224208]","[1,1,1]","[-0.029038216842800186,0.04105718408400375]","[-1,-1,-1]","[-0.05311612461557895,-0.06704832887607307]","[-1,-1,-1]","[-0.008575308904008452,-0.06737690306830572]","[-1,-1,-1]","[0.07492011607040074,0.1654547125266926]","[-1,-1,-1]","[0.1121489880108973,-0.14445615980326673]","[-1,-1,-1]","[-0.12896188958281257,0.052242473612627384]","[-1,-1,-1]","[-0.1870138950214074,0.03648027521643522]","[-1,-1,-1]","[0.046603957137494774,-0.10944029722830374]","[1,1,1]","[0.11664553502603854,0.11940886342264609]","[-1,-1,-1]","[0.04007481260678671,-0.15471234784485255]","[-1,-1,-1]","[-0.09236296572235184,-0.0018440650645938454]","[-1,-1,-1]","[-0.009678593507359128,-0.1752205613533668]","[-1,-1,-1]","[0.021992720651677483,0.015601533990252466]","[-1,-1,-1]","[0.02,0.02]",129.8435,0,21,21,26,1,,,,,,,
,,,,,,,67ab788b4d53609dd0e26861,682f0fb9b01a9108f77c9d42,2025-05-22_14h11.07.171,cuing_paradigm_dot,2024.1.5,Win32,58.13953488,682d573fa47f1360d1451895,,,,,,,,,,,129.8454,130.3373,,,130.5801,131.0233,right,,,,,,,,0.4,,,,,,130.3373,130.58,0.4181,,131.0234,"[0.1039993524555927,-0.07316182357356298]","[-1,-1,-1]","[-0.16117651307895825,-0.022373758705574526]","[-1,-1,-1]","[0.05319684360748201,-0.11718404843030855]","[1,1,1]","[0.03651428063382822,0.09771883358902708]","[-1,-1,-1]","[-0.14328524987403887,-0.0859389346778416]","[-1,-1,-1]","[-0.1208689789437873,0.1446625050152952]","[1,1,1]","[0.09348619837335163,-0.02179962265368877]","[1,1,1]","[-0.1313752328284389,-0.12601280724604594]","[1,1,1]","[0.04080380292086852,-0.1570168331331778]","[1,1,1]","[0.1079381066299457,0.05382441078258778]","[-1,-1,-1]","[-0.11890976727542665,0.040681373102568856]","[-1,-1,-1]","[0.0002444201714324867,-0.19444050180825237]","[-1,-1,-1]","[0.10791606222205925,0.11092598745508771]","[1,1,1]","[-0.06232529311562716,0.14915577712878322]","[-1,-1,-1]","[0.18252009294153407,0.0510927977939875]","[-1,-1,-1]","[0.19180363766117708,-0.02378330856060186]","[1,1,1]","[0.14565379044694937,-0.0007209704143858734]","[-1,-1,-1]","[-0.14745455029356272,0.09621930565122708]","[-1,-1,-1]","[0.020437607147317436,-0.0185582546800601]","[-1,-1,-1]","[0.034209120486447094,-0.07971736221409628]","[-1,-1,-1]","[-0.07413273468279868,0.09184750192136783]","[-1,-1,-1]","[-0.01928568785518057,0.1542173634561993]","[-1,-1,-1]","[-0.0217234189720902,-0.15529584161355417]","[-1,-1,-1]","[-0.07002452070817537,-0.1539332517095209]","[-1,-1,-1]","[0.12487106796688965,-0.11189945175841212]","[1,1,1]","[0.07193345813260549,0.14349272509504007]","[1,1,1]","[0.07357959181735657,-0.1805914281240014]","[-1,-1,-1]","[0.15042025057029068,0.10626557689931962]","[1,1,1]","[-0.10303570965744711,-0.03212875225873315]","[-1,-1,-1]","[-0.01346234917447283,0.05313066323901533]","[1,1,1]","[-0.16789233757046254,0.02373016981861259]","[1,1,1]","[-0.032158354250527904,0.10087419661322386]","[1,1,1]","[0.02,0.02]",132.1133,0,22,22,45,1,,,,,,,
,,,,,,,67ab788b4d53609dd0e26861,682f0fb9b01a9108f77c9d42,2025-05-22_14h11.07.171,cuing_paradigm_dot,2024.1.5,Win32,58.13953488,682d573fa47f1360d1451895,,,,,,,,,,,132.1147,132.6129,,,132.8656,133.1949,left,,,,,,,,0.9,,,,,,132.613,132.8654,0.3079,,133.1949,"[0.13021966400597598,-0.12528957062831256]","[1,1,1]","[-0.05681235111484027,-0.09380671095804562]","[1,1,1]","[0.16872087566870742,-0.029356837984980295]","[1,1,1]","[0.024566325433768143,-0.026570151550850993]","[1,1,1]","[-0.15295650742059166,0.012878001643169016]","[1,1,1]","[-0.17300250940215234,0.05013794183300453]","[1,1,1]","[-0.03514259892014608,0.05040225777091333]","[1,1,1]","[0.050244613379064496,0.034136334034204616]","[-1,-1,-1]","[-0.05538729140443266,-0.15182276805290318]","[1,1,1]","[0.07912246644094494,0.17926006622376306]","[1,1,1]","[-0.06343205166128549,0.14255537958936249]","[-1,-1,-1]","[0.10742461170931836,-0.16617542978040273]","[1,1,1]","[0.006928971724042033,-0.1719485316557346]","[1,1,1]","[0.06610283745304867,-0.011575167412272177]","[1,1,1]","[-0.10619724138224629,0.14260342864443792]","[1,1,1]","[0.11984359901805519,0.03146296260438215]","[1,1,1]","[-0.08860369053043152,-0.03951112883994014]","[1,1,1]","[-0.003955293064070951,0.10695216545546843]","[1,1,1]","[0.13107887568729204,-0.05880496938976132]","[1,1,1]","[-0.00622634983305368,0.18207198738873903]","[1,1,1]","[0.0684820338489056,-0.09074045420346978]","[1,1,1]","[-0.13871042000249192,-0.07162677734475176]","[1,1,1]","[0.17301269014914675,0.04525216807427195]","[1,1,1]","[0.04658122914684553,-0.14270880446968073]","[1,1,1]","[0.10947827927780093,0.0703660760418988]","[1,1,1]","[0.14842265759737436,0.09621952848778118]","[1,1,1]","[-0.05020217998063309,-0.015619124117723348]","[1,1,1]","[0.10507140920412485,0.1191693942289318]","[-1,-1,-1]","[-0.09840399503574579,-0.08997940952266512]","[1,1,1]","[0.06772809637437992,0.08631075135829674]","[1,1,1]","[-0.1481566379203514,0.09516240308408742]","[1,1,1]","[-0.1345078412278003,-0.13430479359558078]","[1,1,1]","[0.02,0.02]",134.2934,0,23,23,184,1,,,,,,,
,,,,,,,67ab788b4d53609dd0e26861,682f0fb9b01a9108f77c9d42,2025-05-22_14h11.07.171,cuing_paradigm_dot,2024.1.5,Win32,58.13953488,682d573fa47f1360d1451895,,,,,,,,,,,134.2948,134.7929,,,135.0364,135.827,right,,,,,,,,0.1,,,,,,134.7931,135.0363,0.7743,,135.8271,"[0.08880029173142906,0.13160473212948148]","[-1,-1,-1]","[0.07269496726529283,-0.017279976359945895]","[-1,-1,-1]","[-0.004632415848558956,-0.1166223182262827]","[-1,-1,-1]","[-0.0488837979755934,-0.09914913160036444]","[-1,-1,-1]","[-0.1379352751873946,0.14028892704037127]","[-1,-1,-1]","[0.059006893871718015,0.08413454904592084]","[-1,-1,-1]","[0.0613432073186849,-0.1816560413433401]","[-1,-1,-1]","[-0.03614550225785757,0.03234426089001387]","[-1,-1,-1]","[0.183261514854683,-0.008257665996174949]","[-1,-1,-1]","[-0.06406133120779688,-0.16057822100451888]","[-1,-1,-1]","[0.030221559284264333,0.1443642253708429]","[-1,-1,-1]","[-0.0509341201903763,-0.04116122605725986]","[-1,-1,-1]","[0.14284153680405895,0.0897000755407334]","[-1,-1,-1]","[0.1001396169872617,-0.10353453477085285]","[-1,-1,-1]","[-0.14770496656574675,-0.03750459139469965]","[-1,-1,-1]","[0.013020095455789662,0.03024942290926905]","[-1,-1,-1]","[-0.17092574695890075,0.02118087317246764]","[-1,-1,-1]","[0.010930253310084417,0.07495812589907551]","[-1,-1,-1]","[0.1957425992403983,0.032790854434654154]","[1,1,1]","[0.03580492993097877,-0.08311523344122858]","[-1,-1,-1]","[-0.1239657083027501,-0.07066218299936142]","[-1,-1,-1]","[-0.06223169203668254,0.17015340354169287]","[-1,-1,-1]","[-0.12273090723280565,0.061088106821272824]","[-1,-1,-1]","[0.06574257823610084,0.03489448886894596]","[-1,-1,-1]","[0.06465899576687444,-0.1395546481479002]","[-1,-1,-1]","[0.12693279516761224,-0.047702552870442595]","[1,1,1]","[-0.06157013249020896,0.11481932823538821]","[-1,-1,-1]","[0.019157225502772875,0.19838222508330125]","[-1,-1,-1]","[0.13827138988360863,0.1301531453515773]","[-1,-1,-1]","[0.18539243623406176,0.07459806038822986]","[-1,-1,-1]","[0.01757161841092556,-0.15881754199896578]","[-1,-1,-1]","[0.18403529329996926,-0.04975290595746834]","[1,1,1]","[0.02,0.02]",136.9258,0,24,24,29,1,,,,,,,
,,,,,,,67ab788b4d53609dd0e26861,682f0fb9b01a9108f77c9d42,2025-05-22_14h11.07.171,cuing_paradigm_dot,2024.1.5,Win32,58.13953488,682d573fa47f1360d1451895,,,,,,,,,,,136.927,137.4168,,,137.6646,138.0609,left,,,,,,,,0.9,,,,,,137.4168,137.6646,0.3765,,138.0609,"[-0.15142661286036704,0.08514209445580774]","[1,1,1]","[-0.02801513592368321,0.1422703034846259]","[-1,-1,-1]","[0.1230108686293065,-0.11146855530376445]","[1,1,1]","[-0.17204685833180625,0.015325581491117927]","[1,1,1]","[0.027686151450470445,0.19374689526819136]","[1,1,1]","[0.10233882765782333,-0.07302167183590416]","[1,1,1]","[0.01584346552035201,-0.03684888746891308]","[1,1,1]","[0.04669467605739478,-0.10359961276544356]","[1,1,1]","[-0.05633411080608495,0.1792724330935645]","[1,1,1]","[0.012391916175259473,0.14325834673867446]","[-1,-1,-1]","[0.007396160608404567,0.01446164006081299]","[1,1,1]","[-0.10814042420566611,0.10394124907895781]","[1,1,1]","[0.1297593017837606,0.06584293915598599]","[1,1,1]","[-0.017008099714803212,0.08299969123269295]","[1,1,1]","[0.06158300331788025,-0.168662152096578]","[1,1,1]","[-0.05376926877491069,-0.12993738242584213]","[1,1,1]","[0.17996807657392475,-0.07845719251271459]","[1,1,1]","[-0.04925478061472176,-0.000004256579418885911]","[1,1,1]","[0.14729232605149373,-0.017051942928788852]","[1,1,1]","[-0.09764687780036203,0.16145701309035823]","[1,1,1]","[0.10667261119905318,0.1431803397650167]","[1,1,1]","[0.08423561839960686,0.09656288585961553]","[1,1,1]","[-0.08477920073426717,0.06418662096343142]","[-1,-1,-1]","[-0.15026186340433603,-0.11258184092211691]","[1,1,1]","[-0.05829763315598121,-0.05145475944897884]","[1,1,1]","[0.021332431667946468,-0.1619622564138111]","[1,1,1]","[0.07381945987419529,-0.02191799297741078]","[1,1,1]","[0.06941789441309053,0.1650212033959187]","[1,1,1]","[-0.0027292436439447653,-0.12357973041767346]","[1,1,1]","[-0.1029721343977063,0.014878534296085459]","[1,1,1]","[-0.05386457302526183,0.10341701307899005]","[1,1,1]","[0.04509436149782652,0.04001893129817973]","[1,1,1]","[0.02,0.02]",139.1695,0,25,25,200,1,,,,,,,
,,,,,,,67ab788b4d53609dd0e26861,682f0fb9b01a9108f77c9d42,2025-05-22_14h11.07.171,cuing_paradigm_dot,2024.1.5,Win32,58.13953488,682d573fa47f1360d1451895,,,,,,,,,,,139.1701,139.6585,,,139.9034,141.3962,,,,,,,,,0.4,,,,,,139.6586,139.9033,,,141.3962,"[-0.020742459030219245,-0.1484434081771842]","[1,1,1]","[0.13953263118745357,0.006966038228944005]","[1,1,1]","[0.03893303663831032,0.05244463453273488]","[-1,-1,-1]","[-0.12981185569819403,0.033459969015474246]","[1,1,1]","[0.015987379997193088,0.0961680442385813]","[1,1,1]","[0.050998161717990306,-0.1141183687408861]","[1,1,1]","[0.1634729541824893,-0.056288704266680895]","[1,1,1]","[-0.11227922314891466,-0.09391208884993715]","[1,1,1]","[0.018063265599169365,-0.0013423520625657542]","[1,1,1]","[0.07704075508035325,-0.015239190843283477]","[-1,-1,-1]","[0.003420214957429081,-0.19123087149522863]","[-1,-1,-1]","[-0.065806154384736,0.17329088232939177]","[-1,-1,-1]","[-0.048268496100199905,0.08625646016554411]","[-1,-1,-1]","[0.002071751124219189,0.18684066020997644]","[1,1,1]","[0.11360494040413335,0.06151916955473639]","[-1,-1,-1]","[-0.014309096814728863,-0.10223548095988105]","[-1,-1,-1]","[-0.020601126506717315,0.11913481894575727]","[-1,-1,-1]","[-0.06538610364309322,-0.12559287212039272]","[-1,-1,-1]","[0.03595900486809162,-0.05357996135966338]","[1,1,1]","[0.11582931924274127,-0.07822805736187843]","[-1,-1,-1]","[-0.07042527123913488,0.02762742756296282]","[-1,-1,-1]","[-0.0953689865243808,-0.1623477620779221]","[-1,-1,-1]","[0.0837007599554205,0.15879304387555485]","[-1,-1,-1]","[0.09946413692049219,0.12075131908381259]","[-1,-1,-1]","[-0.18247932613689422,0.04275691552481859]","[-1,-1,-1]","[-0.08721741536038803,-0.014426171490118295]","[1,1,1]","[0.04973561933511008,0.12440667438104513]","[1,1,1]","[0.05995141654632612,-0.1555035386019195]","[-1,-1,-1]","[-0.09114859357424447,0.10849765218565288]","[1,1,1]","[0.07573819397786832,0.07637386002085174]","[-1,-1,-1]","[0.13521352507018736,-0.11359149534424592]","[-1,-1,-1]","[-0.03519098922012647,-0.05535330812542547]","[-1,-1,-1]","[0.02,0.02]",142.4925,0,26,26,35,1,,,,,,,
,,,,,,,67ab788b4d53609dd0e26861,682f0fb9b01a9108f77c9d42,2025-05-22_14h11.07.171,cuing_paradigm_dot,2024.1.5,Win32,58.13953488,682d573fa47f1360d1451895,,,,,,,,,,,142.4935,143.0001,,,143.2505,143.552,right,,,,,,,,0.4,,,,,,143.0001,143.2503,0.2794,,143.5523,"[0.07172935477499422,-0.047232248560712516]","[1,1,1]","[-0.18519898593853357,0.048837836714495333]","[-1,-1,-1]","[0.03665483596064472,0.08041362649429194]","[-1,-1,-1]","[0.025059847079141613,-0.0013116763662749684]","[-1,-1,-1]","[0.08134029706550039,0.17867630275632984]","[-1,-1,-1]","[0.03958443358255053,-0.14962705926732905]","[-1,-1,-1]","[-0.11100358077103005,0.015158333050577453]","[-1,-1,-1]","[0.16830715187470313,0.10448228410783986]","[1,1,1]","[0.0879686226046255,0.07734393951934636]","[1,1,1]","[-0.09174811955953957,-0.17598950630939567]","[-1,-1,-1]","[-0.09609789560984043,-0.13291499762341719]","[-1,-1,-1]","[0.08616855417034014,-0.12558817993815632]","[1,1,1]","[-0.08574066699337178,0.059946331984426796]","[-1,-1,-1]","[-0.17036408654070653,0.0955886898772444]","[1,1,1]","[-0.1743123105933384,-0.011269845495254529]","[-1,-1,-1]","[0.024264939668308266,-0.188022462906005]","[1,1,1]","[0.08939453917699161,0.022648510477666695]","[1,1,1]","[-0.0024265788734477507,-0.09323579421021451]","[-1,-1,-1]","[0.1640211278216266,-0.02669497549908427]","[1,1,1]","[-0.1751782719865728,-0.05931725713164059]","[1,1,1]","[0.17786861118593283,0.015489509180512378]","[1,1,1]","[0.014724973950229264,0.17503913134404267]","[-1,-1,-1]","[-0.0307358623148959,-0.1414673757230551]","[-1,-1,-1]","[-0.010123096048112686,0.02404971701386093]","[-1,-1,-1]","[0.028062477597604413,-0.06704865002390785]","[-1,-1,-1]","[-0.0613610302621954,-0.03252560774589172]","[1,1,1]","[-0.12617100996279298,0.13723085175362082]","[-1,-1,-1]","[-0.15385130668617944,-0.10639271956114604]","[-1,-1,-1]","[0.13921356500629664,-0.12853305129414738]","[-1,-1,-1]","[-0.0716415512105085,0.13246055215451477]","[-1,-1,-1]","[-0.10588010434225088,-0.06759382813159978]","[1,1,1]","[0.11788176837172208,-0.07437177701235925]","[1,1,1]","[0.02,0.02]",144.6506,0,27,27,40,1,,,,,,,
,,,,,,,67ab788b4d53609dd0e26861,682f0fb9b01a9108f77c9d42,2025-05-22_14h11.07.171,cuing_paradigm_dot,2024.1.5,Win32,58.13953488,682d573fa47f1360d1451895,,,,,,,,,,,144.6515,145.1426,,,145.3956,145.7631,right,,,,,,,,0.5,,,,,,145.1428,145.3956,0.3424,,145.7634,"[0.07135654898820071,0.014244391793163568]","[1,1,1]","[-0.06331039394300488,-0.07249795562227554]","[1,1,1]","[0.04754945125098558,0.10554885988310185]","[-1,-1,-1]","[0.06015211857397826,0.18645771646286752]","[-1,-1,-1]","[-0.06012776521769782,0.1667810737406398]","[1,1,1]","[0.172669655928524,-0.07598274754181757]","[1,1,1]","[-0.15313511609327263,-0.06429438871198663]","[1,1,1]","[0.1019915608419936,0.10932081294596684]","[1,1,1]","[-0.14051266872748616,0.07466045353975258]","[1,1,1]","[0.007026553422575122,-0.1417332745697471]","[-1,-1,-1]","[0.14227034873238015,0.10054827000334969]","[-1,-1,-1]","[0.042411574045445946,-0.09446924029293187]","[1,1,1]","[0.12096635685571473,-0.1062154132658522]","[1,1,1]","[-0.08645248164821226,0.002047733579507299]","[1,1,1]","[-0.11558354455219788,-0.12868400189173715]","[-1,-1,-1]","[0.02783761112282038,0.04506388397875526]","[1,1,1]","[0.017763202456178663,0.1533967685885406]","[-1,-1,-1]","[-0.1716184315318756,-0.020960433135041708]","[1,1,1]","[0.1308753709689897,-0.003962197721521273]","[-1,-1,-1]","[0.08885008435390994,0.15032870117513278]","[1,1,1]","[-0.09458757410146747,0.07480103601661604]","[-1,-1,-1]","[-0.11979003387182276,0.14145058120957835]","[-1,-1,-1]","[-0.006826541341170112,0.0810199916034406]","[-1,-1,-1]","[0.17987934012704834,-0.020789052861281156]","[-1,-1,-1]","[-0.06317539636847727,0.03817936370583728]","[-1,-1,-1]","[0.1000322250467323,-0.1599396196077515]","[1,1,1]","[0.13013533585911022,-0.06549818086194112]","[-1,-1,-1]","[-0.03363222163492489,0.12634615891702036]","[1,1,1]","[-0.0267731788090196,-0.02545858153386077]","[-1,-1,-1]","[-0.011227124842138971,-0.1943485370075433]","[1,1,1]","[0.15896394311360793,0.06173313875157862]","[-1,-1,-1]","[-0.18402225898090382,0.05163749633771983]","[-1,-1,-1]","[0.02,0.02]",146.8595,0,28,28,99,1,,,,,,,
,,,,,,,67ab788b4d53609dd0e26861,682f0fb9b01a9108f77c9d42,2025-05-22_14h11.07.171,cuing_paradigm_dot,2024.1.5,Win32,58.13953488,682d573fa47f1360d1451895,,,,,,,,,,,146.8619,147.3691,,,147.6133,149.0463,left,,,,,,,,0.45,,,,,,147.3691,147.613,1.4084,,149.0465,"[0.036084243536493116,-0.147186282307746]","[1,1,1]","[-0.06490608509703179,0.08519719815335433]","[1,1,1]","[0.16987926435758247,0.10126469093077275]","[1,1,1]","[0.02304372670645,0.142486213518145]","[1,1,1]","[0.13715564640484906,-0.10161548364495529]","[-1,-1,-1]","[0.1373369816380982,-0.022510982180881253]","[1,1,1]","[-0.090940650219649,0.12529228506924753]","[1,1,1]","[0.1246499407678469,0.13653033346115936]","[-1,-1,-1]","[0.08473626167533344,-0.05353961102183028]","[-1,-1,-1]","[0.06565738414344428,0.06512368786228781]","[1,1,1]","[-0.15986040956407677,-0.1186085386660427]","[-1,-1,-1]","[-0.1514716355216353,0.12195404815629837]","[1,1,1]","[0.08847067629770851,0.11390696467482261]","[1,1,1]","[-0.009849419483552592,-0.19102988106182278]","[-1,-1,-1]","[-0.08767815693910498,0.05179695416086538]","[1,1,1]","[0.1861083356915666,0.02152180212662701]","[-1,-1,-1]","[-0.15865871251661584,-0.028465007005613045]","[-1,-1,-1]","[-0.05105357146106035,0.19069568164276343]","[-1,-1,-1]","[-0.0771291334916445,-0.03179061078970923]","[1,1,1]","[-0.03552149920458117,-0.14404572065081747]","[-1,-1,-1]","[-0.10274803747957185,-0.13191423415224332]","[-1,-1,-1]","[0.03728088595333848,-0.06451568347756689]","[-1,-1,-1]","[0.09291664230490754,-0.15644757621742514]","[-1,-1,-1]","[0.17438356406271227,-0.042727298345056224]","[1,1,1]","[0.11740183315355619,0.03946634600087105]","[1,1,1]","[-0.03226736659504032,0.05794122069837401]","[-1,-1,-1]","[0.07025794723648032,0.008762604098886557]","[-1,-1,-1]","[-0.020383122552500296,0.14962527627919464]","[-1,-1,-1]","[0.07667085833516966,-0.09467925839795334]","[-1,-1,-1]","[0.020463737221321943,0.0098063515504758]","[-1,-1,-1]","[0.03072459371380659,-0.19661701793589345]","[1,1,1]","[-0.17031619574711604,0.07931345122143567]","[-1,-1,-1]","[0.02,0.02]",150.1427,0,29,29,68,1,,,,,,,
,,,,,,,67ab788b4d53609dd0e26861,682f0fb9b01a9108f77c9d42,2025-05-22_14h11.07.171,cuing_paradigm_dot,2024.1.5,Win32,58.13953488,682d573fa47f1360d1451895,,,,,,,,,,,150.1449,150.6429,,,150.8828,151.4264,left,,,,,,,,0.9,,,,,,150.6433,150.8826,0.5286,,151.4267,"[0.047671660367744874,0.17664262513558784]","[1,1,1]","[0.14413889656822712,0.1162363276923392]","[1,1,1]","[0.0839567220380442,-0.11036754208788771]","[1,1,1]","[-0.05494887797330507,-0.1716237625122089]","[1,1,1]","[0.012170326066928175,-0.12851595178808273]","[1,1,1]","[0.061758179445034894,-0.03372024418804854]","[1,1,1]","[0.11030017761230321,-0.0566422823142297]","[1,1,1]","[-0.10078202492025752,0.08261889381708871]","[-1,-1,-1]","[-0.14014776265392903,0.10876917434462784]","[-1,-1,-1]","[-0.18724403839915016,0.02326138367113584]","[1,1,1]","[0.13360721017358515,0.040051127272973226]","[1,1,1]","[0.10156770684202714,0.1630222554965803]","[1,1,1]","[-0.08953931306880816,-0.08654635868605673]","[1,1,1]","[0.10279786434034982,0.11334131827761933]","[1,1,1]","[0.14351469018203292,-0.10429599354006529]","[1,1,1]","[-0.06834332710730325,0.17806405951555393]","[1,1,1]","[0.01823915028518287,0.05850446891961558]","[1,1,1]","[0.045005312224611245,0.13243605793509014]","[1,1,1]","[0.17760944840186102,-0.024541577509668757]","[1,1,1]","[-0.059020457883904025,0.11212859494137212]","[1,1,1]","[0.0025668606135877572,-0.035084048012247536]","[1,1,1]","[-0.04611583850276022,0.055818673670096276]","[1,1,1]","[0.08297393017243675,-0.15151994782219746]","[1,1,1]","[-0.03204699697690774,-0.12136273043638776]","[1,1,1]","[-0.1058917076124518,-0.020918125735749103]","[-1,-1,-1]","[-0.0170387080334972,0.11931517531236255]","[1,1,1]","[-0.0793517887988173,-0.12663328872093882]","[1,1,1]","[-0.034959958604370504,-0.017277854945523672]","[1,1,1]","[0.10016262874401495,-0.00127364178800008]","[1,1,1]","[0.00818032239383078,0.19170409003684327]","[1,1,1]","[-0.13410002435304652,-0.07068370305034147]","[1,1,1]","[-0.004018330556995166,0.023742475096878303]","[1,1,1]","[0.02,0.02]",152.5354,0,30,30,208,1,,,,,,,
,,,,,,,67ab788b4d53609dd0e26861,682f0fb9b01a9108f77c9d42,2025-05-22_14h11.07.171,cuing_paradigm_dot,2024.1.5,Win32,58.13953488,682d573fa47f1360d1451895,,,,,,,,,,,152.5361,153.03,,,153.2832,154.0783,left,,,,,,,,0.55,,,,,,153.0301,153.2831,0.7804,,154.0785,"[0.03446924983783664,0.13652134534176524]","[-1,-1,-1]","[-0.17146892393260244,-0.00042704434234124803]","[-1,-1,-1]","[-0.01922952049845103,0.16972750648438475]","[1,1,1]","[0.0742484291435449,-0.10832223700415984]","[-1,-1,-1]","[0.03619563719719813,0.016121827744426123]","[1,1,1]","[-0.0924231523414915,-0.08180438081827844]","[-1,-1,-1]","[0.11169073190555333,0.022238989322483062]","[1,1,1]","[-0.04927982569696197,0.0657926751677346]","[1,1,1]","[0.0841165295392339,0.09083149998913498]","[-1,-1,-1]","[0.06856854760807876,0.17359571303046084]","[1,1,1]","[-0.013127234763690482,0.010164395387796721]","[1,1,1]","[0.18750788642037028,-0.0302754890189227]","[-1,-1,-1]","[0.11830715304365272,-0.15718542720718856]","[1,1,1]","[0.12072772944382965,0.10924438125638918]","[-1,-1,-1]","[-0.12075202802887988,0.01244640699839895]","[-1,-1,-1]","[-0.08440255066656392,0.09395394350284828]","[1,1,1]","[-0.020204920847977335,-0.08768786043431125]","[1,1,1]","[-0.029688243878362417,-0.18448097013818235]","[-1,-1,-1]","[-0.05188611435697877,-0.05591750020754206]","[1,1,1]","[0.16831053161269188,-0.07172747803570524]","[1,1,1]","[0.15211579997769542,0.019552630686389065]","[1,1,1]","[-0.13120570061847017,0.10261539076714245]","[1,1,1]","[-0.06952940946458828,-0.17732054322663102]","[1,1,1]","[-0.19422161941321195,-0.035697745140273]","[-1,-1,-1]","[0.08279475967540871,-0.03541839852535918]","[1,1,1]","[-0.12196901883772043,-0.13310270483943173]","[-1,-1,-1]","[0.04853880725634905,-0.15663627999244636]","[-1,-1,-1]","[0.15764625609447122,-0.11154910572774794]","[1,1,1]","[-0.016848373142895997,0.09528756491684924]","[-1,-1,-1]","[-0.1518935084028022,0.04785767629370948]","[1,1,1]","[-0.06522568893852333,0.13191861200420243]","[-1,-1,-1]","[0.11686422230055152,-0.08168447895757447]","[1,1,1]","[0.02,0.02]",155.1667,0,31,31,124,1,,,,,,,
,,,,,,,67ab788b4d53609dd0e26861,682f0fb9b01a9108f77c9d42,2025-05-22_14h11.07.171,cuing_paradigm_dot,2024.1.5,Win32,58.13953488,682d573fa47f1360d1451895,,,,,,,,,,,155.1677,155.6641,,,155.9032,156.3722,left,,,,,,,,0.6,,,,,,155.6642,155.9031,0.4527,,156.3723,"[-0.05278644952476637,-0.1754207138845052]","[-1,-1,-1]","[-0.1550618250098742,-0.11163054954571992]","[1,1,1]","[-0.0460547760418845,0.0481296524230903]","[-1,-1,-1]","[0.09006676764542464,0.12810414631440437]","[-1,-1,-1]","[0.1409580033607036,0.10997327118840178]","[1,1,1]","[0.0023398000547216447,0.1484920720427158]","[1,1,1]","[-0.04128948867373476,-0.06242887296773927]","[1,1,1]","[-0.19886868599607682,0.01889762541115967]","[-1,-1,-1]","[0.18104761314623571,0.0517774596260681]","[-1,-1,-1]","[-0.13426318543117804,0.10026221958778944]","[1,1,1]","[0.009650530150474148,-0.055017637649848815]","[1,1,1]","[-0.1050541582607353,0.02731166771614033]","[1,1,1]","[0.11692005149915034,-0.058376140278895254]","[1,1,1]","[-0.07459268934099396,0.17560099117842054]","[-1,-1,-1]","[0.0632559120194631,-0.02648981282653938]","[-1,-1,-1]","[0.03883764963703966,0.016058934777795447]","[1,1,1]","[-0.06651307306082253,0.1267313796508678]","[1,1,1]","[-0.04548750244018278,0.003907157578679425]","[-1,-1,-1]","[-0.0031119163519464144,0.05843857916884852]","[1,1,1]","[-0.12861805609280988,0.15115216094896422]","[-1,-1,-1]","[0.06843379031185869,-0.09257966599884443]","[1,1,1]","[0.05430113225940062,-0.14423086920650896]","[1,1,1]","[-0.09781413004673563,-0.012957666214240623]","[1,1,1]","[0.11829761545710336,0.0643746926867231]","[1,1,1]","[0.11784344500960281,0.0012989919040644244]","[1,1,1]","[-0.14620563812114679,-0.020070366556011743]","[-1,-1,-1]","[-0.11293838846859072,-0.16320151506848748]","[-1,-1,-1]","[0.1898906132053614,-0.02902031862244499]","[1,1,1]","[-0.07054052073786457,-0.1063154445402645]","[-1,-1,-1]","[-0.08518657856902968,-0.05267941868408185]","[1,1,1]","[-0.1900347414524586,-0.030779347115350564]","[-1,-1,-1]","[-0.003493287673206555,-0.1881762489703377]","[1,1,1]","[0.02,0.02]",157.4656,0,32,32,158,1,,,,,,,
,,,,,,,67ab788b4d53609dd0e26861,682f0fb9b01a9108f77c9d42,2025-05-22_14h11.07.171,cuing_paradigm_dot,2024.1.5,Win32,58.13953488,682d573fa47f1360d1451895,,,,,,,,,,,157.4673,157.9603,,,158.2038,158.581,right,,,,,,,,0.4,,,,,,157.9606,158.2035,0.3604,,158.5811,"[-0.06777922830951269,-0.05991099550281153]","[1,1,1]","[0.13086300754921748,0.0068705139589004625]","[-1,-1,-1]","[-0.10685113375911735,-0.08763768642329414]","[-1,-1,-1]","[-0.04641354803238303,0.02229246436748401]","[-1,-1,-1]","[0.08045806414485113,-0.16352438165536703]","[-1,-1,-1]","[-0.1892830069015488,-0.028218588047690875]","[-1,-1,-1]","[0.10427250390964735,0.11229651322119967]","[1,1,1]","[0.019711087884931443,0.10114785727973244]","[1,1,1]","[-0.10121458394271664,0.0733012921428756]","[-1,-1,-1]","[-0.01683976430739621,-0.021622366129758142]","[1,1,1]","[0.16844593405508393,0.0600273445003875]","[1,1,1]","[0.05036300247526303,-0.034477669407532247]","[1,1,1]","[-0.16861278498244336,0.01558669277381111]","[1,1,1]","[-0.16735793659707437,-0.07459062778025165]","[-1,-1,-1]","[0.054480561876800546,0.04581060712523121]","[-1,-1,-1]","[-0.16418384221921278,0.08519112574515596]","[1,1,1]","[0.09088395229803141,-0.11828587742232817]","[1,1,1]","[0.07343163611761098,0.00554584084329527]","[1,1,1]","[0.0044797418468882095,0.059597350998156384]","[-1,-1,-1]","[0.08806175163699193,-0.047930101712875844]","[-1,-1,-1]","[-0.12741035980055765,-0.14554193223746037]","[-1,-1,-1]","[0.1815733043493251,-0.015533378863260347]","[-1,-1,-1]","[-0.04007855470418158,-0.18135259175263038]","[-1,-1,-1]","[-0.0329366724846766,0.183115749031351]","[-1,-1,-1]","[-0.07573058152170026,0.10469054673099339]","[1,1,1]","[-0.10718790445011787,-0.01980689739534512]","[-1,-1,-1]","[-0.0005275388609702762,-0.16945040560574778]","[-1,-1,-1]","[0.16197786975761855,-0.06564369598842966]","[-1,-1,-1]","[-0.11064282123156174,0.031303851846665516]","[1,1,1]","[0.0247263126105543,-0.07903779371257744]","[-1,-1,-1]","[0.04792516563371666,0.1846698318684158]","[1,1,1]","[0.11427517902598627,0.15218056427221885]","[-1,-1,-1]","[0.02,0.02]",159.6839,0,33,33,44,1,,,,,,,
,,,,,,,67ab788b4d53609dd0e26861,682f0fb9b01a9108f77c9d42,2025-05-22_14h11.07.171,cuing_paradigm_dot,2024.1.5,Win32,58.13953488,682d573fa47f1360d1451895,,,,,,,,,,,159.6849,160.1765,,,160.4166,160.7758,left,,,,,,,,0.9,,,,,,160.1767,160.4165,0.3457,,160.776,"[0.016627523374109023,0.11013158950041504]","[1,1,1]","[0.061193520326411906,0.15583810139163332]","[1,1,1]","[-0.09950736700328144,-0.06408346742522116]","[1,1,1]","[-0.021814677414255468,-0.003070744469219143]","[1,1,1]","[-0.10022174972395224,0.006685212088114139]","[1,1,1]","[0.09163325820790869,0.01252878109472297]","[1,1,1]","[-0.09726000994189184,0.16119095018399057]","[1,1,1]","[0.09437020125533922,-0.09563226824254019]","[1,1,1]","[0.042718140884173215,0.19310670616839498]","[1,1,1]","[-0.1915680818962016,0.030976711836949146]","[1,1,1]","[0.14789683311623708,0.04776040910194955]","[1,1,1]","[-0.027206225489498834,0.11204860063149569]","[1,1,1]","[0.001864928275443639,-0.11030715317682402]","[1,1,1]","[0.08917077411018919,0.10754658987774464]","[1,1,1]","[0.015898795887099585,0.05061028746195531]","[1,1,1]","[0.041968618568029116,-0.07209355567416754]","[1,1,1]","[-0.1259102863509,-0.14814625384316057]","[1,1,1]","[-0.053125987044630195,0.02832572331745194]","[-1,-1,-1]","[0.15847239506394897,-0.019210514472116767]","[1,1,1]","[-0.1257629841114233,-0.02773633234747879]","[-1,-1,-1]","[0.05353280658762499,-0.00666387631616247]","[1,1,1]","[-0.0382758116879338,-0.0767211588701227]","[1,1,1]","[0.11811451199018806,-0.03549299480420992]","[1,1,1]","[0.14166311426080377,-0.07394470165940725]","[1,1,1]","[0.12324837262356796,-0.15441608145543034]","[1,1,1]","[0.06262458532603946,0.06449509176596793]","[1,1,1]","[-0.07266575627806572,-0.02709952077512262]","[-1,-1,-1]","[-0.02446703732908721,-0.15154031016026642]","[1,1,1]","[-0.07064474754200052,0.12310793678238305]","[1,1,1]","[0.059978901124591776,-0.13855919620509644]","[1,1,1]","[0.13262734067101634,0.09060965719968217]","[1,1,1]","[-0.05589193262018828,0.17842981320438916]","[1,1,1]","[0.02,0.02]",161.877,0,34,34,206,1,,,,,,,
,,,,,,,67ab788b4d53609dd0e26861,682f0fb9b01a9108f77c9d42,2025-05-22_14h11.07.171,cuing_paradigm_dot,2024.1.5,Win32,58.13953488,682d573fa47f1360d1451895,,,,,,,,,,,161.8791,162.3804,,,162.6378,163.103,right,,,,,,,,0.1,,,,,,162.3807,162.6377,0.4512,,163.103,"[0.04425122010239025,-0.12301946886116576]","[-1,-1,-1]","[0.10962085383479052,0.09025785765907655]","[-1,-1,-1]","[0.06250711667262847,0.10303014814865229]","[-1,-1,-1]","[0.007892848668452154,0.04387591276884884]","[-1,-1,-1]","[0.16709858000174418,-0.006603271409720706]","[-1,-1,-1]","[0.03738199682927809,-0.07181020404514582]","[-1,-1,-1]","[-0.15043465205340784,-0.09082022552758792]","[-1,-1,-1]","[-0.07893377075297639,-0.08062243654129657]","[-1,-1,-1]","[-0.15111432753569326,0.017455567679732973]","[-1,-1,-1]","[-0.013502764732578429,0.13945203631805048]","[-1,-1,-1]","[0.09261563708586969,0.160770025291921]","[-1,-1,-1]","[0.022705706679686608,-0.1770660209025614]","[-1,-1,-1]","[0.04289848335317925,-0.008854444635393137]","[-1,-1,-1]","[-0.10403868642827951,0.13356965233213683]","[-1,-1,-1]","[-0.025486414692113265,-0.025387841923450404]","[1,1,1]","[0.07673400833653851,-0.16874598101059096]","[-1,-1,-1]","[0.027019759624198846,0.15542804974505461]","[-1,-1,-1]","[-0.12513255173623336,0.0704492100001778]","[-1,-1,-1]","[-0.06285663097580034,0.008722732071784449]","[-1,-1,-1]","[-0.07661713972188261,0.0549645129363371]","[-1,-1,-1]","[-0.1528790917852989,-0.050796309948294024]","[-1,-1,-1]","[-0.050595389871746374,-0.13853345075185008]","[-1,-1,-1]","[-0.03649487136471574,-0.08910304743975973]","[1,1,1]","[0.0010338975899668653,0.18827207088733763]","[-1,-1,-1]","[0.16348716828748225,0.05808359870262334]","[-1,-1,-1]","[-0.14456189874950937,0.11160187944698757]","[-1,-1,-1]","[0.14723986598120034,0.12649911184506754]","[-1,-1,-1]","[0.13825793752183213,-0.05778763874173228]","[-1,-1,-1]","[0.13485198649065294,-0.13028836335951294]","[1,1,1]","[-0.19473501623872336,0.022647565205914218]","[-1,-1,-1]","[0.08206162462332943,0.053279715098985776]","[-1,-1,-1]","[-0.10484491809797893,-0.006567147244056011]","[-1,-1,-1]","[0.02,0.02]",164.1944,0,35,35,5,1,,,,,,,
,,,,,,,67ab788b4d53609dd0e26861,682f0fb9b01a9108f77c9d42,2025-05-22_14h11.07.171,cuing_paradigm_dot,2024.1.5,Win32,58.13953488,682d573fa47f1360d1451895,,,,,,,,,,,164.1963,164.6951,,,164.9484,165.8268,right,,,,,,,,0.9,,,,,,164.6952,164.9484,0.866,,165.827,"[-0.11533294366380974,0.09168848100790253]","[1,1,1]","[0.09506304320791328,0.1690747504896532]","[1,1,1]","[-0.07799095616399719,-0.08182128542235545]","[1,1,1]","[0.005945834279941785,-0.15764234652140338]","[1,1,1]","[-0.060645296111931056,0.015063586392758746]","[1,1,1]","[-0.07300081150269769,-0.15990578799438862]","[1,1,1]","[0.08236073932670483,0.07482256032999006]","[1,1,1]","[0.059587258944403136,-0.000213109648162038]","[1,1,1]","[-0.010094682686575143,0.012191666508791424]","[1,1,1]","[-0.12632060744036194,0.00486648962980029]","[-1,-1,-1]","[0.11048353888217917,0.03092444743693685]","[1,1,1]","[0.05365316853884615,-0.12763126172555658]","[1,1,1]","[0.006909265590537821,0.05568818740842553]","[1,1,1]","[-0.034659778765970456,-0.04743165654301311]","[1,1,1]","[0.03931890290833604,0.09164134696018439]","[1,1,1]","[-0.11110647166007005,-0.1285648621455562]","[1,1,1]","[0.06421615357119471,-0.16878839901310538]","[1,1,1]","[-0.16543132464038235,-0.08950472052070133]","[-1,-1,-1]","[-0.04422310319140077,-0.19279331311606696]","[1,1,1]","[0.10278742208494902,-0.06512710492748766]","[1,1,1]","[0.15750823473258024,-0.024668402972902237]","[1,1,1]","[-0.17329784333169318,-0.035283029013705315]","[1,1,1]","[-0.055971422633092044,0.11557689082173861]","[1,1,1]","[-0.03403585053515303,-0.11756591181525612]","[1,1,1]","[0.1954132429814457,-0.006924348468383915]","[1,1,1]","[-0.17634685344467083,0.058417987491928676]","[1,1,1]","[0.05281554938398784,0.15465189497842965]","[-1,-1,-1]","[0.16498893578408808,-0.08171212795434998]","[1,1,1]","[0.008769163372541437,-0.028594315138954444]","[1,1,1]","[-0.108413589988008,-0.05317707939016971]","[1,1,1]","[-0.02218120635974997,0.19433466153670087]","[1,1,1]","[-0.146467278818348,0.12054923684661191]","[1,1,1]","[0.02,0.02]",166.9266,0,36,36,202,1,,,,,,,
,,,,,,,67ab788b4d53609dd0e26861,682f0fb9b01a9108f77c9d42,2025-05-22_14h11.07.171,cuing_paradigm_dot,2024.1.5,Win32,58.13953488,682d573fa47f1360d1451895,,,,,,,,,,,166.9281,167.4258,,,167.6657,168.3332,left,,,,,,,,0.55,,,,,,167.4261,167.6654,0.6476,,168.3333,"[0.12614053121461566,0.07538981810235765]","[1,1,1]","[0.0862908479525416,-0.15375538216787657]","[-1,-1,-1]","[-0.039998373047552334,-0.16332847426100452]","[1,1,1]","[0.08921426017385244,-0.1010504754173596]","[1,1,1]","[0.1112288144559074,0.14059223337204965]","[1,1,1]","[-0.14799044309665754,0.01117578021121565]","[-1,-1,-1]","[0.096704819720212,0.03010509839033627]","[1,1,1]","[-0.1814172133388225,0.06215269620121959]","[1,1,1]","[0.03673947306325438,-0.02804718569146179]","[-1,-1,-1]","[0.011660983698102102,0.01682894445763202]","[-1,-1,-1]","[0.16585984433601253,0.032050582274142106]","[1,1,1]","[-0.05018094553132706,0.19186504372866048]","[1,1,1]","[-0.11357774398631407,-0.029641928092073142]","[1,1,1]","[0.022411747804230137,-0.15965407157473607]","[-1,-1,-1]","[0.13565209136782055,-0.01711088914770407]","[1,1,1]","[-0.19090493973191355,0.0037088235549331034]","[1,1,1]","[-0.07197396596730533,-0.1025610545940403]","[1,1,1]","[-0.13390665444882308,-0.10236846085420512]","[-1,-1,-1]","[-0.032416690235389664,0.13633822995877717]","[1,1,1]","[-0.001739052968149912,0.0651802916725031]","[-1,-1,-1]","[-0.03288713474386345,0.04004537153981894]","[1,1,1]","[-0.07529210694861124,0.03930753820391613]","[1,1,1]","[-0.09955685998436942,0.16371137292575474]","[1,1,1]","[0.032728521259127855,0.12659655697870936]","[-1,-1,-1]","[-0.06621537534912438,-0.013383231617732652]","[1,1,1]","[-0.0162091606826331,-0.024391947471414994]","[-1,-1,-1]","[-0.06922019899382004,0.0846667278823761]","[-1,-1,-1]","[-0.08232588211006545,-0.15054155515769224]","[-1,-1,-1]","[0.16858925320116636,-0.057865364374829475]","[-1,-1,-1]","[-0.02879968279918004,-0.07608846885125944]","[1,1,1]","[0.06052903275988725,-0.1889320165294534]","[-1,-1,-1]","[0.028765772830409576,-0.07472419030932007]","[-1,-1,-1]","[0.02,0.02]",169.426,0,37,37,125,1,,,,,,,
,,,,,,,67ab788b4d53609dd0e26861,682f0fb9b01a9108f77c9d42,2025-05-22_14h11.07.171,cuing_paradigm_dot,2024.1.5,Win32,58.13953488,682d573fa47f1360d1451895,,,,,,,,,,,169.428,169.9259,,,170.1656,170.4672,right,,,,,,,,0.45,,,,,,169.9261,170.1653,0.2796,,170.4674,"[0.005848902805160717,-0.06696958040330608]","[1,1,1]","[-0.07344214439875944,0.1305533176003861]","[-1,-1,-1]","[-0.15184981912631249,-0.09058973769134282]","[-1,-1,-1]","[-0.11146583683990359,-0.13248940612376803]","[-1,-1,-1]","[0.10568336128560783,0.16872365543841314]","[-1,-1,-1]","[-0.05610230505335753,-0.17829358377527862]","[1,1,1]","[-0.008719646746486315,-0.15307974677814232]","[1,1,1]","[-0.003430131200936612,0.08480098863209795]","[1,1,1]","[0.13092982566537187,0.1282119345793601]","[-1,-1,-1]","[-0.04645611220547947,-0.014036985541721713]","[-1,-1,-1]","[-0.022094102937563084,0.1604459762533382]","[1,1,1]","[0.18652385350456258,-0.004262352238735394]","[-1,-1,-1]","[-0.12069339501765228,-0.0390690478551786]","[-1,-1,-1]","[0.06306332068254307,-0.03978501548233833]","[1,1,1]","[0.10331743949214195,0.030464994152389166]","[-1,-1,-1]","[0.15498204466463483,0.02416162669520951]","[1,1,1]","[0.16968692347243497,0.09304181235151505]","[-1,-1,-1]","[-0.15267120256435454,0.051399117663496405]","[-1,-1,-1]","[0.10812002175717346,-0.08281384497941902]","[-1,-1,-1]","[-0.05479211407476692,0.033833602616437884]","[-1,-1,-1]","[-0.04272618728434493,-0.10455615133139716]","[1,1,1]","[0.004274495614057257,0.04128192846670068]","[-1,-1,-1]","[0.021050134403305828,-0.12331785976998909]","[-1,-1,-1]","[0.04724598720028445,-0.08995277660808434]","[1,1,1]","[-0.03672353943364075,-0.05808902586555828]","[1,1,1]","[0.05750881080082423,0.11020427651008198]","[-1,-1,-1]","[-0.06592733267198891,0.18870106756418814]","[1,1,1]","[0.047834880280025506,0.18759908974295458]","[1,1,1]","[0.06465623870016443,-0.13723953303187789]","[-1,-1,-1]","[0.05219336565151963,0.022946793105163357]","[1,1,1]","[-0.1791894407473766,0.008895696393412804]","[-1,-1,-1]","[0.005869375361648235,-0.02637922163726609]","[1,1,1]","[0.02,0.02]",171.5592,0,38,38,62,1,,,,,,,
,,,,,,,67ab788b4d53609dd0e26861,682f0fb9b01a9108f77c9d42,2025-05-22_14h11.07.171,cuing_paradigm_dot,2024.1.5,Win32,58.13953488,682d573fa47f1360d1451895,,,,,,,,,,,171.561,172.0604,,,172.3169,173.2202,left,,,,,,,,0.9,,,,,,172.0605,172.3168,0.8926,,173.2203,"[0.014020644998645223,0.19914199206039646]","[1,1,1]","[0.12111520390371674,-0.10346712241341081]","[1,1,1]","[-0.04452794309994046,0.08085101436700588]","[1,1,1]","[-0.0683127699623882,-0.16944180457458977]","[1,1,1]","[-0.024908169299451322,-0.09674029671427123]","[1,1,1]","[0.012714282420531565,-0.0809064951725219]","[-1,-1,-1]","[-0.00048130741905942425,-0.1653357666693059]","[1,1,1]","[0.08284469470863234,-0.12174842607249238]","[1,1,1]","[-0.12480610521178455,0.10859567715441046]","[1,1,1]","[-0.020808588462130073,0.03980187867709154]","[1,1,1]","[0.13810973855988398,-0.005794534340605218]","[1,1,1]","[0.14042013095254297,0.0965011299805109]","[1,1,1]","[-0.05062308940149845,0.15459037552067761]","[1,1,1]","[-0.15719856044365485,-0.031539015597661674]","[1,1,1]","[0.047424177907635735,-0.14787575185344382]","[1,1,1]","[0.11353331020523867,-0.06311116383830727]","[1,1,1]","[0.02567485363002795,0.10564255341282713]","[1,1,1]","[-0.14021416781414706,-0.10333815852630865]","[-1,-1,-1]","[-0.09110387450454945,-0.07053956093785707]","[-1,-1,-1]","[-0.020478757684870872,-0.011731671046943112]","[1,1,1]","[0.1940039758490028,0.006844734500066823]","[1,1,1]","[0.06295455571669073,-0.040240916224024086]","[1,1,1]","[-0.11685287123088901,-0.014281917394372715]","[1,1,1]","[-0.17833940786162392,0.08573386109992036]","[1,1,1]","[0.17304543053047605,-0.034467765628784564]","[1,1,1]","[-0.08558685506588322,-0.113814595785792]","[1,1,1]","[0.0186488232510858,-0.020235668730428872]","[1,1,1]","[-0.1825759237430316,0.011965921274111935]","[1,1,1]","[-0.13919447920243397,0.02006897037367987]","[1,1,1]","[0.09187475972059084,0.08549228571132486]","[1,1,1]","[0.11528246235941028,0.13187163930127396]","[1,1,1]","[0.16209447052436404,0.034689738462449146]","[1,1,1]","[0.02,0.02]",174.3091,0,39,39,181,1,,,,,,,
,,,,,,,67ab788b4d53609dd0e26861,682f0fb9b01a9108f77c9d42,2025-05-22_14h11.07.171,cuing_paradigm_dot,2024.1.5,Win32,58.13953488,682d573fa47f1360d1451895,,,,,,,,,,,174.311,174.82,,,175.0674,175.2136,right,,,,,,,,0.1,,,,,,174.8202,175.0674,0.1304,,175.2136,"[-0.09057796820240906,0.10918007254139023]","[-1,-1,-1]","[-0.030612915540144406,0.0205547389274494]","[-1,-1,-1]","[0.02650996990727914,-0.05146304359023912]","[1,1,1]","[0.03214058389039399,-0.10149226562353804]","[-1,-1,-1]","[-0.12102271543713067,-0.04655964635950271]","[-1,-1,-1]","[0.10250201797548206,-0.09037286600750881]","[1,1,1]","[0.09040796759673146,-0.03657088861870302]","[-1,-1,-1]","[-0.13965689310141943,-0.1373337163186344]","[-1,-1,-1]","[-0.08604385970782358,-0.15526387458347043]","[-1,-1,-1]","[-0.1801830191580056,-0.06740692385472995]","[-1,-1,-1]","[-0.07448970239544993,0.0013160444336023974]","[-1,-1,-1]","[-0.029055500118461756,-0.14594917878629363]","[-1,-1,-1]","[0.14029652577270463,-0.0029603197022034906]","[-1,-1,-1]","[0.044478463252121035,0.14474473951853292]","[-1,-1,-1]","[-0.1081167363278191,0.1600561475504283]","[1,1,1]","[-0.03201877970056279,-0.027923353492528315]","[-1,-1,-1]","[0.17916297282734953,-0.0153271120124182]","[-1,-1,-1]","[-0.030669970586137282,0.112897877271328]","[-1,-1,-1]","[0.04203294570018886,0.04961984167022316]","[-1,-1,-1]","[-0.1593561639393892,0.06540098836458606]","[-1,-1,-1]","[0.07157241137172243,-0.11589274027365648]","[-1,-1,-1]","[-0.14248596369779856,0.10252823055316485]","[-1,-1,-1]","[0.027126240235819925,-0.17249636648019348]","[-1,-1,-1]","[0.03283582324773818,0.19343581842065274]","[-1,-1,-1]","[0.1483036538960164,0.09306737727389972]","[-1,-1,-1]","[-0.0709263493221374,-0.1110896718873484]","[-1,-1,-1]","[0.14289683761389446,-0.10129681829904218]","[-1,-1,-1]","[0.19050342780712573,0.02984403003963518]","[-1,-1,-1]","[0.07097539067879868,0.016751419273818697]","[-1,-1,-1]","[0.12764923551606253,0.05491393110777691]","[-1,-1,-1]","[-0.032391009095861206,0.06061034977568469]","[-1,-1,-1]","[-0.017114213707415667,0.16419704389551634]","[-1,-1,-1]","[0.02,0.02]",176.31,0,40,40,6,1,,,,,,,
,,,,,,,67ab788b4d53609dd0e26861,682f0fb9b01a9108f77c9d42,2025-05-22_14h11.07.171,cuing_paradigm_dot,2024.1.5,Win32,58.13953488,682d573fa47f1360d1451895,,,,,,,,,,,176.312,176.8099,,,177.0611,177.6762,right,,,,,,,,0.55,,,,,,176.8108,177.0608,0.6,,177.6763,"[-0.08784325411766755,-0.04888233508449365]","[1,1,1]","[-0.15367740912230649,0.09714152443423384]","[1,1,1]","[0.13420680209375302,-0.024667982848042294]","[1,1,1]","[-0.06261611743487072,0.15649938063550675]","[-1,-1,-1]","[0.11257725585810725,0.019090363240380187]","[-1,-1,-1]","[-0.004270939355699088,-0.10805022469206005]","[1,1,1]","[-0.026180039783541754,-0.055306522309880445]","[1,1,1]","[0.07850795334687448,-0.07740748997157174]","[1,1,1]","[0.11159417422357337,0.07231509632798233]","[1,1,1]","[0.1831164259329362,-0.008521076077173624]","[1,1,1]","[-0.16442461664295865,-0.0787993512343812]","[1,1,1]","[0.02515553347561892,0.09892062493267455]","[1,1,1]","[-0.10234444922951134,-0.0038861722525693533]","[-1,-1,-1]","[0.02397360574491138,0.1535309674507713]","[1,1,1]","[0.03962948331601312,-0.13730783227418616]","[1,1,1]","[-0.1951075710438245,-0.04365851424393559]","[-1,-1,-1]","[0.08117815881134598,-0.02318652313932033]","[1,1,1]","[0.006054211140886714,0.19195941021199842]","[1,1,1]","[0.1914733784625119,0.05761147689346765]","[-1,-1,-1]","[-0.19347671703290267,0.028826196456330465]","[1,1,1]","[0.17535532602770412,-0.0852175578258798]","[-1,-1,-1]","[-0.03175280702407117,-0.13873632022544002]","[-1,-1,-1]","[-0.0013168179283328347,-0.18809625128595697]","[-1,-1,-1]","[0.11110019721219348,0.15256632605724613]","[-1,-1,-1]","[-0.06480639111801284,0.08787046729164943]","[-1,-1,-1]","[0.06715139715838674,0.0872542042181241]","[-1,-1,-1]","[-0.028458689752133164,0.05004995891885936]","[1,1,1]","[-0.15336017246190267,0.02073957847503767]","[-1,-1,-1]","[0.01106156794512602,0.04009647616727601]","[-1,-1,-1]","[-0.12173854066767359,0.06687624132602857]","[1,1,1]","[-0.10567435813965878,-0.08552523216907688]","[1,1,1]","[-0.10214158549393909,-0.16103018352477808]","[-1,-1,-1]","[0.02,0.02]",178.7711,0,41,41,123,1,,,,,,,
,,,,,,,67ab788b4d53609dd0e26861,682f0fb9b01a9108f77c9d42,2025-05-22_14h11.07.171,cuing_paradigm_dot,2024.1.5,Win32,58.13953488,682d573fa47f1360d1451895,,,,,,,,,,,178.7714,179.269,,,179.5129,179.6195,left,,,,,,,,0.9,,,,,,179.269,179.5128,0.0912,,179.6196,"[0.07055674820752302,0.09092812858216198]","[1,1,1]","[0.041360746863149465,-0.13581129793046734]","[1,1,1]","[-0.07599933642927503,-0.17558438210390634]","[1,1,1]","[-0.1261136431600654,-0.09654057099479049]","[1,1,1]","[-0.15657530962171234,0.045072664598397844]","[-1,-1,-1]","[0.17752899885401052,0.0561355432411662]","[1,1,1]","[-0.03220418631066916,0.11981224870198853]","[1,1,1]","[-0.13377775623160593,-0.03908458950246826]","[1,1,1]","[-0.004895286486587489,0.052530298230783826]","[1,1,1]","[0.11116919817822761,-0.01183169296841503]","[1,1,1]","[-0.08137215928950159,0.1672744987943117]","[1,1,1]","[0.04139758236207819,-0.08534788478634837]","[1,1,1]","[-0.00649834721522006,0.18481712792129137]","[1,1,1]","[-0.09213164268372902,-0.1381005836007685]","[1,1,1]","[-0.12291941124316347,0.003754636846042506]","[1,1,1]","[0.02681300218854167,0.10150780490319508]","[1,1,1]","[0.16719859026031142,0.10324687818546537]","[1,1,1]","[0.16531872321238264,-0.057436878142397896]","[1,1,1]","[-0.05070830245914805,-0.08100050710298322]","[1,1,1]","[-0.0069570539732147175,-0.16145175225117836]","[-1,-1,-1]","[-0.04833894170543899,-0.14202362484999329]","[1,1,1]","[0.044225139021628924,0.02060338587150223]","[1,1,1]","[-0.06388642745541828,0.06735935639124595]","[-1,-1,-1]","[-0.11972829284378943,0.13202654121764315]","[1,1,1]","[-0.10651369380569252,0.07897008006140033]","[1,1,1]","[0.04134497747030514,0.15052943395637697]","[1,1,1]","[0.09233923493363932,0.054536362394669184]","[1,1,1]","[-0.18425659396837757,0.011710476013437492]","[1,1,1]","[0.11387416558249716,-0.11957186852021678]","[1,1,1]","[0.1342553798533411,0.03301503113051656]","[1,1,1]","[-0.17354195723709487,0.09565237059718042]","[1,1,1]","[-0.13238853342923443,-0.1487915962741409]","[1,1,1]","[0.02,0.02]",180.7162,0,42,42,191,1,,,,,,,
,,,,,,,67ab788b4d53609dd0e26861,682f0fb9b01a9108f77c9d42,2025-05-22_14h11.07.171,cuing_paradigm_dot,2024.1.5,Win32,58.13953488,682d573fa47f1360d1451895,,,,,,,,,,,180.7176,181.221,,,181.4725,181.8835,right,,,,,,,,0.1,,,,,,181.221,181.4722,0.3923,,181.8837,"[-0.08349825443602306,0.001782535173662939]","[-1,-1,-1]","[-0.04637053994331208,-0.04150097727043508]","[-1,-1,-1]","[0.08348787925099548,-0.034056341048736095]","[1,1,1]","[0.016465947522918592,0.14933743034668515]","[1,1,1]","[-0.13002827821224797,-0.0043509374236126485]","[-1,-1,-1]","[0.08042557961447451,0.04850958049732607]","[-1,-1,-1]","[0.1908087475278187,0.011579858144654245]","[-1,-1,-1]","[0.029553827968005653,0.00840968426397453]","[-1,-1,-1]","[0.1463900438437768,-0.050184859587576285]","[-1,-1,-1]","[-0.0315454825677116,0.0018812064659354906]","[-1,-1,-1]","[-0.07425068569290734,-0.11791280992408462]","[-1,-1,-1]","[-0.1520541911786126,-0.07077184587133917]","[-1,-1,-1]","[-0.11976905332190721,-0.12557831985433845]","[-1,-1,-1]","[0.06732553734323753,-0.12365083689746971]","[-1,-1,-1]","[-0.07477442914054946,0.048045722200896784]","[-1,-1,-1]","[0.1492539605194537,0.0942481791046246]","[-1,-1,-1]","[-0.08979684824146682,0.15790154211825522]","[-1,-1,-1]","[-0.19831368042348377,0.01755014319790406]","[-1,-1,-1]","[-0.03983347903241706,0.11136274321844633]","[-1,-1,-1]","[0.001467204776187255,0.0455256033553529]","[1,1,1]","[0.17027082121273016,-0.10153912021310656]","[-1,-1,-1]","[0.0610682043733503,-0.1771818641849246]","[-1,-1,-1]","[0.107561056760592,-0.14653257032495795]","[-1,-1,-1]","[-0.13910922546547974,0.13724883150654368]","[-1,-1,-1]","[-0.03540174858473751,-0.13193949767593646]","[-1,-1,-1]","[-0.16578268589436915,0.08767218697635139]","[-1,-1,-1]","[0.0680541028725303,-0.08246944511213042]","[-1,-1,-1]","[-0.03046235243297251,0.1799535353487259]","[-1,-1,-1]","[-0.08664318957067269,-0.16217875952663455]","[-1,-1,-1]","[-0.1334855405711719,0.04009030230065932]","[-1,-1,-1]","[0.01960223410037253,-0.17386848582045297]","[-1,-1,-1]","[-0.020769291275837463,-0.1769713047708288]","[-1,-1,-1]","[0.02,0.02]",182.9757,0,43,43,0,1,,,,,,,
,,,,,,,67ab788b4d53609dd0e26861,682f0fb9b01a9108f77c9d42,2025-05-22_14h11.07.171,cuing_paradigm_dot,2024.1.5,Win32,58.13953488,682d573fa47f1360d1451895,,,,,,,,,,,182.9775,183.4658,,,183.7043,183.8668,right,,,,,,,,0.1,,,,,,183.4658,183.7042,0.1458,,183.8669,"[0.1691083450446469,0.0010778586610420361]","[-1,-1,-1]","[0.08101459746226598,0.032390395504760576]","[-1,-1,-1]","[-0.014869263126236884,0.1591993168668175]","[-1,-1,-1]","[-0.14810643674730053,-0.08632575283307484]","[-1,-1,-1]","[0.07846955613517681,-0.14326376905804955]","[-1,-1,-1]","[0.15156809605971774,0.03830262765870523]","[-1,-1,-1]","[0.035097558827324946,0.17070219632352107]","[-1,-1,-1]","[0.15848016958069422,0.10347334364543848]","[-1,-1,-1]","[-0.1000823713422185,-0.06762737120854079]","[-1,-1,-1]","[-0.03120363010652879,-0.1367514443708589]","[-1,-1,-1]","[0.06004263621721886,-0.08346132021887757]","[-1,-1,-1]","[0.05266288200274486,-0.033565260584037075]","[-1,-1,-1]","[-0.12591493090352085,0.0816243305935168]","[-1,-1,-1]","[-0.01884081353393661,0.032755486343929295]","[-1,-1,-1]","[-0.14722857494950353,0.023734144783801033]","[-1,-1,-1]","[0.000007858033668138474,0.07375518360323303]","[-1,-1,-1]","[0.050470825509480836,0.1208231016584991]","[-1,-1,-1]","[-0.020316541506642825,-0.09093785363082231]","[-1,-1,-1]","[-0.14907573445273836,-0.03277273539511302]","[-1,-1,-1]","[-0.034728733186294845,-0.038133011385672155]","[-1,-1,-1]","[0.105516062401594,0.14086058563798254]","[1,1,1]","[-0.1894247461624853,0.005950181033789838]","[-1,-1,-1]","[-0.11887234537432409,0.13345935853348576]","[-1,-1,-1]","[0.02338061326896301,-0.17684211220264875]","[-1,-1,-1]","[-0.056039921208658944,0.11946126858960651]","[-1,-1,-1]","[0.0974682299138666,-0.041113435452497044]","[-1,-1,-1]","[0.19094397287093107,-0.04455693621347737]","[-1,-1,-1]","[0.007316235740979892,-0.12197277061805012]","[1,1,1]","[0.11124352756076179,-0.09645784186821214]","[-1,-1,-1]","[-0.06257605917372482,-0.0923845957229949]","[1,1,1]","[0.07199810057641678,0.07217092056725302]","[-1,-1,-1]","[0.018520772247661525,-0.0699756141781133]","[-1,-1,-1]","[0.02,0.02]",184.9593,0,44,44,22,1,,,,,,,
