right,left,explain.started,explain.stopped,key_resp_3.keys,key_resp_3.rt,key_resp_3.duration,participant,session,date,expName,psychopyVersion,OS,frameRate,study_id,explain_2.started,explain_2.stopped,key_resp_4.keys,key_resp_4.rt,key_resp_4.duration,explain_3.started,explain_3.stopped,key_resp_5.keys,key_resp_5.rt,key_resp_5.duration,fixation.started,fixation.stopped,practice.started,practice.stopped,response.started,response.stopped,key_resp.keys,key_resp.rt,key_resp.duration,feedback.started,feedback.stopped,trials_2.thisRepN,trials_2.thisTrialN,trials_2.thisN,trials_2.thisIndex,trials_2.ran,white_ratio,explain_4.started,explain_4.stopped,key_resp_6.keys,key_resp_6.rt,key_resp_6.duration,dotDisplay.started,dotDisplay.stopped,ITI.started,polygon_1.pos,polygon_1.color,polygon_2.pos,polygon_2.color,polygon_3.pos,polygon_3.color,polygon_4.pos,polygon_4.color,polygon_5.pos,polygon_5.color,polygon_6.pos,polygon_6.color,polygon_7.pos,polygon_7.color,polygon_8.pos,polygon_8.color,polygon_9.pos,polygon_9.color,polygon_10.pos,polygon_10.color,polygon_11.pos,polygon_11.color,polygon_12.pos,polygon_12.color,polygon_13.pos,polygon_13.color,polygon_14.pos,polygon_14.color,polygon_15.pos,polygon_15.color,polygon_16.pos,polygon_16.color,polygon_17.pos,polygon_17.color,polygon_18.pos,polygon_18.color,polygon_19.pos,polygon_19.color,polygon_20.pos,polygon_20.color,polygon_21.pos,polygon_21.color,polygon_22.pos,polygon_22.color,polygon_23.pos,polygon_23.color,polygon_24.pos,polygon_24.color,polygon_25.pos,polygon_25.color,polygon_26.pos,polygon_26.color,polygon_27.pos,polygon_27.color,polygon_28.pos,polygon_28.color,polygon_29.pos,polygon_29.color,polygon_30.pos,polygon_30.color,polygon_31.pos,polygon_31.color,polygon_32.pos,polygon_32.color,dot_size,ITI.stopped,trials.thisRepN,trials.thisTrialN,trials.thisN,trials.thisIndex,trials.ran,break_2.started,break_2.stopped,trials_3.thisRepN,trials_3.thisTrialN,trials_3.thisN,trials_3.thisIndex,trials_3.ran
subject chose white,subject chose black,0.0002,58.4793,space,43.46,,67ad9281b4a4d68f2f055a7b,682db3af839f1404b4bbb7e6,2025-05-21_13h13.58.411,cuing_paradigm_dot,2024.1.5,Win32,59.88023952,682d556593cb38ad0a074487,,,,,,,,,,,,,,,,,,,,,,,,,,,,,,,,,,,,,,,,,,,,,,,,,,,,,,,,,,,,,,,,,,,,,,,,,,,,,,,,,,,,,,,,,,,,,,,,,,,,,,,,,,,,,,,,,
,,,,,,,67ad9281b4a4d68f2f055a7b,682db3af839f1404b4bbb7e6,2025-05-21_13h13.58.411,cuing_paradigm_dot,2024.1.5,Win32,59.88023952,682d556593cb38ad0a074487,58.4794,101.1953,space,12.6914,,,,,,,,,,,,,,,,,,,,,,,,,,,,,,,,,,,,,,,,,,,,,,,,,,,,,,,,,,,,,,,,,,,,,,,,,,,,,,,,,,,,,,,,,,,,,,,,,,,,,,,,,,,,,
,,,,,,,67ad9281b4a4d68f2f055a7b,682db3af839f1404b4bbb7e6,2025-05-21_13h13.58.411,cuing_paradigm_dot,2024.1.5,Win32,59.88023952,682d556593cb38ad0a074487,,,,,,101.1955,107.2285,space,3.0077,,,,,,,,,,,,,,,,,,,,,,,,,,,,,,,,,,,,,,,,,,,,,,,,,,,,,,,,,,,,,,,,,,,,,,,,,,,,,,,,,,,,,,,,,,,,,,,,,,,,,,,,
,,,,,,,67ad9281b4a4d68f2f055a7b,682db3af839f1404b4bbb7e6,2025-05-21_13h13.58.411,cuing_paradigm_dot,2024.1.5,Win32,59.88023952,682d556593cb38ad0a074487,,,,,,,,,,,107.2529,107.7442,107.7444,107.987,107.9873,108.5114,left,0.5027,,108.5116,109.6118,0,0,0,1,1,0.2,,,,,,,,,,,,,,,,,,,,,,,,,,,,,,,,,,,,,,,,,,,,,,,,,,,,,,,,,,,,,,,,,,,,,,,,,,,,,,,,,,,,,,
,,,,,,,67ad9281b4a4d68f2f055a7b,682db3af839f1404b4bbb7e6,2025-05-21_13h13.58.411,cuing_paradigm_dot,2024.1.5,Win32,59.88023952,682d556593cb38ad0a074487,,,,,,,,,,,109.6126,110.1112,110.1114,110.3621,110.3621,111.1614,right,0.7689,,111.1615,112.2608,0,1,1,0,1,0.8,,,,,,,,,,,,,,,,,,,,,,,,,,,,,,,,,,,,,,,,,,,,,,,,,,,,,,,,,,,,,,,,,,,,,,,,,,,,,,,,,,,,,,
,,,,,,,67ad9281b4a4d68f2f055a7b,682db3af839f1404b4bbb7e6,2025-05-21_13h13.58.411,cuing_paradigm_dot,2024.1.5,Win32,59.88023952,682d556593cb38ad0a074487,,,,,,,,,,,,,,,,,,,,,,,,,,,,112.2614,115.8957,space,0.6065,,,,,,,,,,,,,,,,,,,,,,,,,,,,,,,,,,,,,,,,,,,,,,,,,,,,,,,,,,,,,,,,,,,,,,,,,,,,,,,,,,
,,,,,,,67ad9281b4a4d68f2f055a7b,682db3af839f1404b4bbb7e6,2025-05-21_13h13.58.411,cuing_paradigm_dot,2024.1.5,Win32,59.88023952,682d556593cb38ad0a074487,,,,,,,,,,,115.9177,116.411,,,116.6616,117.2448,right,0.5589,,,,,,,,,0.5,,,,,,116.412,116.6615,117.2456,"[0.008310490613142298,0.19340131357947524]","[-1,-1,-1]","[0.11696697998851582,-0.13660461761195652]","[1,1,1]","[0.15124589297604799,0.07151782945774818]","[-1,-1,-1]","[-0.0907016212659717,0.019483206554275143]","[1,1,1]","[-0.014169159677501026,0.057065596894008606]","[1,1,1]","[0.02557042436630417,-0.16556665151676267]","[1,1,1]","[-0.03380525112733584,0.17000553890358244]","[1,1,1]","[0.055988319259460406,-0.048736295827216516]","[1,1,1]","[0.1735678993090412,0.025860525531867795]","[-1,-1,-1]","[0.00854933282929234,0.022434537766569774]","[1,1,1]","[-0.11955537003551431,-0.015441435001096054]","[-1,-1,-1]","[-0.09114898477720533,0.14785466361101038]","[-1,-1,-1]","[0.1579008399016804,-0.07480205993238882]","[-1,-1,-1]","[0.014893672640933544,0.1064648773502138]","[1,1,1]","[0.030423567951980694,0.06539505454523252]","[1,1,1]","[-0.009862697168532986,-0.035977445678375686]","[-1,-1,-1]","[0.11187153874637622,0.0020198820863927968]","[-1,-1,-1]","[-0.10970896302838892,-0.13371811531162106]","[1,1,1]","[-0.0692290073375576,0.05457208589238409]","[-1,-1,-1]","[-0.13212023827872152,0.10128841670869734]","[-1,-1,-1]","[-0.03577773766797347,-0.10696006511745738]","[1,1,1]","[0.08076742056808242,-0.17411797748832664]","[1,1,1]","[0.014610542267806363,-0.08822406993527496]","[1,1,1]","[0.09726673138794013,0.05836299137621943]","[1,1,1]","[-0.17557328770451244,0.09077032532362515]","[1,1,1]","[-0.17395262738468775,0.024563187480204]","[-1,-1,-1]","[-0.06479902892869777,-0.04547164955177046]","[-1,-1,-1]","[0.10173006002113161,-0.06326022991223666]","[-1,-1,-1]","[-0.15190566080619342,-0.08932242068931569]","[-1,-1,-1]","[-0.024283128132430585,0.11726304952774362]","[1,1,1]","[0.12102626022124119,0.14687793195716764]","[-1,-1,-1]","[0.07669302598704948,0.1713720592108171]","[-1,-1,-1]","[0.02,0.02]",118.3448,0,0,0,113,1,,,,,,,
,,,,,,,67ad9281b4a4d68f2f055a7b,682db3af839f1404b4bbb7e6,2025-05-21_13h13.58.411,cuing_paradigm_dot,2024.1.5,Win32,59.88023952,682d556593cb38ad0a074487,,,,,,,,,,,118.3456,118.8447,,,119.0954,119.6176,right,0.501,,,,,,,,,0.55,,,,,,118.8449,119.0954,119.6177,"[-0.04189743204330492,-0.10054007037295129]","[1,1,1]","[-0.07428954809800072,0.013745578464770517]","[1,1,1]","[0.031385786421192656,-0.025391722757870487]","[1,1,1]","[0.0008110870831434466,-0.1279929166638147]","[1,1,1]","[-0.06771928872584115,0.07844738031384269]","[1,1,1]","[-0.12121862241585203,-0.03400456654990875]","[-1,-1,-1]","[-0.13107524196092205,0.07255424749540003]","[-1,-1,-1]","[0.07288812297704307,0.047271143173641963]","[1,1,1]","[0.03639351785027138,-0.06924505435190474]","[-1,-1,-1]","[0.1496537751827665,-0.03310761690104316]","[-1,-1,-1]","[-0.16847396944126522,-0.001709347024213617]","[-1,-1,-1]","[0.14453466472265653,-0.09815407674975839]","[1,1,1]","[0.11139364161531981,0.06567347630935269]","[1,1,1]","[0.14467679240068795,0.08825973512027137]","[-1,-1,-1]","[-0.16248750368001685,-0.08269216013107956]","[1,1,1]","[0.037867553547109786,0.12287020605651477]","[-1,-1,-1]","[-0.046678022122781396,-0.1499106542767065]","[1,1,1]","[0.03327967271864534,-0.1922879269583254]","[1,1,1]","[0.07839348997699132,0.10848069451686265]","[-1,-1,-1]","[-0.11063333879713076,0.12747614757176157]","[-1,-1,-1]","[-0.1957407241488828,0.03646984662900508]","[1,1,1]","[-0.04069057309848677,0.1397827737457213]","[-1,-1,-1]","[0.03366464978302616,0.18273501183489632]","[1,1,1]","[0.09253848457334905,-0.16031068466225767]","[1,1,1]","[-0.009932945015149023,-0.07300466405879308]","[-1,-1,-1]","[0.10200676883572492,-0.10911405645893152]","[-1,-1,-1]","[-0.18926231782681924,-0.0422162409076834]","[1,1,1]","[-0.09354391604724788,0.1736091463123935]","[1,1,1]","[0.1771409956771382,-0.0016392834217844065]","[1,1,1]","[-0.09816385583520931,-0.07959453496701917]","[-1,-1,-1]","[0.09274195542359893,-0.014321942338329187]","[-1,-1,-1]","[0.07393935678133225,0.16759698110785615]","[1,1,1]","[0.02,0.02]",120.711,0,1,1,125,1,,,,,,,
,,,,,,,67ad9281b4a4d68f2f055a7b,682db3af839f1404b4bbb7e6,2025-05-21_13h13.58.411,cuing_paradigm_dot,2024.1.5,Win32,59.88023952,682d556593cb38ad0a074487,,,,,,,,,,,120.7115,121.2119,,,121.4619,122.0783,right,0.5935,,,,,,,,,0.5,,,,,,121.2121,121.4617,122.0783,"[-0.004648477630076516,0.12658767067823107]","[-1,-1,-1]","[-0.08097559762545971,0.00652711514185558]","[1,1,1]","[0.015782013455354394,-0.025777194737041504]","[-1,-1,-1]","[-0.16001338448610228,0.044418460597444226]","[-1,-1,-1]","[0.1057303445974146,0.008377703809523102]","[-1,-1,-1]","[0.06313645930908142,-0.07370945092106289]","[-1,-1,-1]","[0.028095961497601418,0.01846902462647913]","[-1,-1,-1]","[0.15381288333512208,-0.0785019576272824]","[-1,-1,-1]","[0.13411769005253327,0.11108397751874324]","[1,1,1]","[0.07861381384321793,0.06244790991874955]","[1,1,1]","[0.11430975403312676,-0.1445629805158147]","[-1,-1,-1]","[0.02632652044260283,-0.09645799663245698]","[1,1,1]","[-0.12094254307134171,-0.10066742907147125]","[-1,-1,-1]","[-0.07045650140129461,0.17718623694626606]","[-1,-1,-1]","[0.17675324277210078,0.003533210760995838]","[1,1,1]","[0.07522795044815402,0.11822858650309445]","[1,1,1]","[0.07440213285128544,0.17096637323900826]","[1,1,1]","[0.06843771297330159,-0.011636596823865567]","[1,1,1]","[-0.02850114241366262,-0.1594034518190447]","[-1,-1,-1]","[-0.0644396673136185,-0.07148810750695833]","[-1,-1,-1]","[0.011437552407464826,0.17096249637456298]","[-1,-1,-1]","[-0.12289379833002999,-0.14431727053495982]","[-1,-1,-1]","[-0.001027546879112425,0.08242109008053092]","[1,1,1]","[-0.16296460918507424,0.08574846177169022]","[1,1,1]","[0.05374849103477207,-0.15638113027725303]","[-1,-1,-1]","[0.0030702281788081293,-0.19170759225789014]","[1,1,1]","[-0.14081781507233326,-0.0541286771011923]","[1,1,1]","[-0.02019528134642758,-0.1091904549898499]","[-1,-1,-1]","[-0.08109191653270799,-0.18202937406188052]","[1,1,1]","[-0.08478715866664087,0.07567245128332446]","[1,1,1]","[-0.12539527747706788,-0.0009151557284588657]","[1,1,1]","[-0.19555227873780504,0.006368933513006948]","[1,1,1]","[0.02,0.02]",123.1781,0,2,2,102,1,,,,,,,
,,,,,,,67ad9281b4a4d68f2f055a7b,682db3af839f1404b4bbb7e6,2025-05-21_13h13.58.411,cuing_paradigm_dot,2024.1.5,Win32,59.88023952,682d556593cb38ad0a074487,,,,,,,,,,,123.179,123.6784,,,123.9289,124.2665,left,0.3172,,,,,,,,,0.45,,,,,,123.6786,123.9288,124.2665,"[0.016421862607239296,0.1567116706225216]","[-1,-1,-1]","[-0.12098769502616245,0.1132531757626912]","[-1,-1,-1]","[-0.09723324044067594,0.05289821235607745]","[1,1,1]","[-0.12570385942315007,-0.10474273943800529]","[-1,-1,-1]","[-0.10363057679752705,-0.007545606458604894]","[-1,-1,-1]","[0.11480219813102693,0.10551527360624331]","[-1,-1,-1]","[-0.1525535050458591,0.001308367981107136]","[-1,-1,-1]","[-0.06495996361858691,-0.17440674454619437]","[1,1,1]","[0.13567215332896057,0.010507859397993756]","[-1,-1,-1]","[0.14955119470441275,-0.1282223345740233]","[1,1,1]","[0.18306095857127613,-0.04148088145020041]","[-1,-1,-1]","[0.09952624749749031,-0.034033299040085556]","[-1,-1,-1]","[0.041970692476292086,-0.19239390123687503]","[-1,-1,-1]","[0.07427002268161109,0.03756437896830037]","[1,1,1]","[-0.07418429440091844,0.1411789382057846]","[1,1,1]","[-0.02253154629726505,0.03101356574320227]","[1,1,1]","[0.16160291896592777,0.046269324559245775]","[-1,-1,-1]","[0.08143952235856192,-0.14413489685702352]","[1,1,1]","[0.14218845005653488,-0.03571658266333836]","[-1,-1,-1]","[0.08377030371574753,-0.07826849669318992]","[-1,-1,-1]","[0.044802193236389974,0.1160458268893077]","[-1,-1,-1]","[0.1467195186647145,0.1324284260448439]","[1,1,1]","[-0.014102550674623546,0.11853900380276294]","[-1,-1,-1]","[0.04169143947541044,-0.12615657064235788]","[-1,-1,-1]","[-0.06778689583593533,-0.11724636737024378]","[1,1,1]","[0.050606993856713196,-0.03941130577057278]","[1,1,1]","[0.009357948948409819,0.0036333190971202392]","[1,1,1]","[-0.020820630211123063,-0.080663117759647]","[1,1,1]","[-0.05415893107590021,0.18323695655464808]","[1,1,1]","[-0.11390378334624032,0.15521837974149544]","[-1,-1,-1]","[0.01545182272060644,0.045837693133583525]","[1,1,1]","[-0.09445677549123078,-0.05190161887016126]","[-1,-1,-1]","[0.02,0.02]",125.3619,0,3,3,79,1,,,,,,,
,,,,,,,67ad9281b4a4d68f2f055a7b,682db3af839f1404b4bbb7e6,2025-05-21_13h13.58.411,cuing_paradigm_dot,2024.1.5,Win32,59.88023952,682d556593cb38ad0a074487,,,,,,,,,,,125.3626,125.8618,,,126.1113,126.711,left,0.5841,,,,,,,,,0.4,,,,,,125.8619,126.1111,126.7112,"[0.07488942084892086,-0.16432714262608392]","[-1,-1,-1]","[0.0649701840432865,-0.045690140314677316]","[1,1,1]","[0.010641178769208342,0.004817817761170798]","[-1,-1,-1]","[-0.09863482677399005,-0.019547720923886947]","[1,1,1]","[-0.07966638542743289,-0.11047024870989254]","[1,1,1]","[-0.04848509425402314,-0.04091175587948463]","[-1,-1,-1]","[0.06746663654617065,0.03950126456290668]","[1,1,1]","[0.0023920123188109735,-0.16959285912682634]","[-1,-1,-1]","[-0.07846698629924619,0.17781283986189356]","[-1,-1,-1]","[-0.14462601154876475,0.0997293383090511]","[1,1,1]","[-0.18642021667406866,-0.042771068057945144]","[-1,-1,-1]","[-0.12249736062580478,0.15477305646898262]","[1,1,1]","[-0.007696951245923138,-0.046902838942444514]","[-1,-1,-1]","[-0.023515247863208275,-0.09103842755202562]","[-1,-1,-1]","[-0.1534395056999366,0.05317699749119513]","[-1,-1,-1]","[0.16876014639951606,0.10227766054666358]","[-1,-1,-1]","[-0.016708700451323298,0.043487549422830334]","[1,1,1]","[0.10607988637149905,-0.005986806732309461]","[-1,-1,-1]","[0.036804084090987,-0.13565804782578772]","[-1,-1,-1]","[-0.05818643495554146,-0.1639072415793672]","[-1,-1,-1]","[-0.022158820563510092,0.16437484517090703]","[1,1,1]","[0.14339650876580037,0.017965760527694098]","[-1,-1,-1]","[0.16625590459895373,0.060615590248004635]","[1,1,1]","[-0.10756430283267115,-0.15803813408418785]","[1,1,1]","[-0.16202398411943914,-0.0008298016236194326]","[-1,-1,-1]","[0.07495721388518484,0.09009071044453369]","[-1,-1,-1]","[0.07045586032113561,-0.10769045391934025]","[-1,-1,-1]","[0.09779409433637137,0.1597205851346438]","[1,1,1]","[0.14564425393759148,-0.09458569694015187]","[-1,-1,-1]","[-0.004361908808464989,0.10075651784373042]","[1,1,1]","[0.05505611608248633,0.16292023622193622]","[-1,-1,-1]","[-0.11102039040373458,0.027189009491314666]","[1,1,1]","[0.02,0.02]",127.8118,0,4,4,55,1,,,,,,,
,,,,,,,67ad9281b4a4d68f2f055a7b,682db3af839f1404b4bbb7e6,2025-05-21_13h13.58.411,cuing_paradigm_dot,2024.1.5,Win32,59.88023952,682d556593cb38ad0a074487,,,,,,,,,,,127.8127,128.3109,,,128.5519,129.1111,right,0.5342,,,,,,,,,0.9,,,,,,128.3109,128.5519,129.1113,"[-0.0583459604376434,-0.15594066803520096]","[1,1,1]","[0.07818398560921071,-0.12868426073616177]","[1,1,1]","[0.005579488773441111,0.10737813114306163]","[1,1,1]","[-0.1812966731566366,0.0057505429300108496]","[1,1,1]","[-0.025534760621168114,-0.19778827560381027]","[1,1,1]","[-0.17087918264570492,-0.038116700048489195]","[1,1,1]","[0.1021897888111932,-0.061902049582033256]","[1,1,1]","[0.022959103612652285,-0.07254056597943087]","[1,1,1]","[0.09448760421876101,-0.0031534161316846623]","[1,1,1]","[-0.07356164988630177,-0.07354965488846205]","[1,1,1]","[0.04360688760763659,0.12968706808627606]","[1,1,1]","[0.08902957805370272,-0.17656269527844973]","[1,1,1]","[0.14953123614441416,0.09807074841290365]","[1,1,1]","[-0.10802945941046956,-0.14866983116814192]","[1,1,1]","[-0.02838008256521536,-0.122750786703172]","[1,1,1]","[0.013930297549104508,0.002962868344820843]","[1,1,1]","[0.18458609501726075,0.0529380217401941]","[1,1,1]","[0.1747549872669131,-0.050040988361690436]","[1,1,1]","[-0.11875381398494371,-0.019645746359730393]","[1,1,1]","[0.025497285211933028,0.06514685534584716]","[1,1,1]","[-0.02614320133273256,0.04457560318668391]","[1,1,1]","[0.16707499382131308,0.009697182700980073]","[-1,-1,-1]","[-0.07936029756598986,0.02290403796036923]","[-1,-1,-1]","[-0.07027425153879019,-0.020664420548101647]","[1,1,1]","[0.022916977411927126,0.17180892865135683]","[1,1,1]","[0.09523745163568485,0.12181926619185117]","[1,1,1]","[-0.03062550090339101,0.1489083160232164]","[1,1,1]","[-0.1410058668945324,0.026885488146138375]","[1,1,1]","[0.13348195583830041,-0.1476991071939102]","[-1,-1,-1]","[-0.052655270044517664,0.09341324275196976]","[1,1,1]","[0.1441273218686777,-0.08840322906394744]","[1,1,1]","[-0.13889307843626145,0.12078495315878214]","[1,1,1]","[0.02,0.02]",130.2113,0,5,5,183,1,,,,,,,
,,,,,,,67ad9281b4a4d68f2f055a7b,682db3af839f1404b4bbb7e6,2025-05-21_13h13.58.411,cuing_paradigm_dot,2024.1.5,Win32,59.88023952,682d556593cb38ad0a074487,,,,,,,,,,,130.212,130.7111,,,130.9691,131.3781,right,0.3927,,,,,,,,,0.6,,,,,,130.7112,130.9691,131.3783,"[-0.15572253668486294,-0.08493384301897633]","[-1,-1,-1]","[-0.08929622038547647,-0.09493598969621093]","[1,1,1]","[-0.12767031270560164,-0.017059819499841034]","[1,1,1]","[0.0844008577459332,-0.11993714614704586]","[1,1,1]","[-0.01104239707082506,0.13662355368404355]","[-1,-1,-1]","[-0.18958377872337004,0.031963161021518166]","[-1,-1,-1]","[-0.10717036566109069,0.05639631620223389]","[1,1,1]","[-0.06197684702113692,0.0679671635895416]","[1,1,1]","[0.011048482888079612,0.1813132736193424]","[1,1,1]","[0.05230400531460391,0.01600389544012472]","[1,1,1]","[-0.0016719350120886246,0.05784638146946652]","[1,1,1]","[-0.15297596524000925,0.06210415871344106]","[-1,-1,-1]","[0.015297920655505858,-0.11410552280774795]","[-1,-1,-1]","[-0.005742547524665944,-0.17130128228933694]","[-1,-1,-1]","[-0.073503962136873,-0.04669828078371579]","[-1,-1,-1]","[-0.0020342566240659585,-0.07214740657616259]","[-1,-1,-1]","[0.15869743200744904,0.11538717879084212]","[-1,-1,-1]","[0.08909566467546004,-0.02700723228949059]","[1,1,1]","[-0.09231012355164864,0.17424871332948294]","[-1,-1,-1]","[0.08919599547250845,0.12170439058430511]","[1,1,1]","[0.04838779779712246,0.0971549444535731]","[1,1,1]","[0.0711349706268667,-0.172338505048211]","[-1,-1,-1]","[-0.0033167365567711377,-0.016789640224686334]","[1,1,1]","[0.10654501754170881,-0.07776576901068076]","[1,1,1]","[0.19466124178264724,-0.036788743047097665]","[1,1,1]","[-0.12430241316475517,0.09455380030263376]","[-1,-1,-1]","[-0.1885058826209827,-0.010059355736106083]","[-1,-1,-1]","[0.1052978081669533,0.05486834574151077]","[1,1,1]","[0.1287082123071023,-0.1266142509476454]","[1,1,1]","[0.16094410621965222,0.03360376571699153]","[1,1,1]","[-0.05418705965805764,-0.1241749207549027]","[1,1,1]","[-0.04399367193625695,0.10999651100116468]","[1,1,1]","[0.02,0.02]",132.4774,0,6,6,160,1,,,,,,,
,,,,,,,67ad9281b4a4d68f2f055a7b,682db3af839f1404b4bbb7e6,2025-05-21_13h13.58.411,cuing_paradigm_dot,2024.1.5,Win32,59.88023952,682d556593cb38ad0a074487,,,,,,,,,,,132.478,132.9775,,,133.2281,133.5116,right,0.2673,,,,,,,,,0.9,,,,,,132.9775,133.228,133.5117,"[-0.004899138122963634,-0.08992468334105412]","[1,1,1]","[-0.12546450996697875,-0.12872048240090475]","[1,1,1]","[0.13143861180542513,0.12476968816026168]","[1,1,1]","[-0.1697022053401914,-0.04385048641095858]","[-1,-1,-1]","[-0.09003912483677616,0.008912290870169556]","[1,1,1]","[-0.07919466542098935,-0.05049643682974834]","[-1,-1,-1]","[0.08668772729664458,-0.03013670730099521]","[1,1,1]","[0.01417546244562328,0.06763006933925163]","[1,1,1]","[0.09181593748510873,0.015971961331309285]","[1,1,1]","[-0.04440117544546746,-0.14698878978760152]","[1,1,1]","[0.001893416921163534,-0.014495674843144818]","[1,1,1]","[0.1515407351484004,-0.12568774283944287]","[1,1,1]","[-0.094924286629866,-0.09371500837868982]","[1,1,1]","[0.07775837797846258,0.1500317882480451]","[1,1,1]","[0.0587370121745863,-0.1754245939556936]","[1,1,1]","[0.09550152033749669,-0.11222818269891874]","[1,1,1]","[0.07259650014743912,0.05198590284817985]","[1,1,1]","[-0.08010719234755266,0.09821185405743067]","[-1,-1,-1]","[0.13347237356242594,-0.024940657385149608]","[1,1,1]","[0.18327921179330373,-0.07176662855798431]","[1,1,1]","[0.1822474910882383,0.06884218311367712]","[1,1,1]","[-0.14790319000478644,0.0070089297435623555]","[1,1,1]","[-0.0847888696407648,0.1545157609490741]","[1,1,1]","[0.027231579933371,0.10989098497332002]","[1,1,1]","[-0.08473371121087236,-0.16253559147106314]","[1,1,1]","[-0.03767362633245824,-0.026824381313859426]","[1,1,1]","[-0.12014716015261423,0.08837911398169743]","[1,1,1]","[-0.05926960051617996,0.04887957778414473]","[1,1,1]","[-0.15216686247679076,-0.09538640901076506]","[1,1,1]","[-0.12563265316130615,0.043063697358335096]","[1,1,1]","[-0.004464635206513625,0.14449440723572798]","[1,1,1]","[0.19343106896182846,-0.016991813050345996]","[1,1,1]","[0.02,0.02]",134.611,0,7,7,198,1,,,,,,,
,,,,,,,67ad9281b4a4d68f2f055a7b,682db3af839f1404b4bbb7e6,2025-05-21_13h13.58.411,cuing_paradigm_dot,2024.1.5,Win32,59.88023952,682d556593cb38ad0a074487,,,,,,,,,,,134.6118,135.1118,,,135.3612,135.6112,left,0.234,,,,,,,,,0.1,,,,,,135.1119,135.3611,135.6113,"[-0.11557305676689764,0.13486473847462555]","[-1,-1,-1]","[0.06215281371727462,-0.14672790984675518]","[-1,-1,-1]","[0.15054009605701454,0.08452512924561785]","[-1,-1,-1]","[-0.1185896857037158,-0.03246635121678357]","[-1,-1,-1]","[0.013498374429037176,-0.07506785240770808]","[-1,-1,-1]","[0.18540117215621807,0.05730470082623735]","[-1,-1,-1]","[-0.06947851719356107,0.15169768606745632]","[-1,-1,-1]","[0.05932440960180054,0.05926138020557005]","[-1,-1,-1]","[0.043687896281855425,0.15777007787027708]","[-1,-1,-1]","[-0.1421733372368021,0.09617062686694841]","[-1,-1,-1]","[0.1121343498266516,0.12938269917830897]","[-1,-1,-1]","[-0.11063772738070499,0.030872896542379423]","[-1,-1,-1]","[0.12013604538229684,-0.04956264664539579]","[-1,-1,-1]","[-0.10380025518560805,-0.15831313877500072]","[1,1,1]","[0.17160760263116828,-0.030249995091668026]","[-1,-1,-1]","[0.10837693727901708,0.002035455782408332]","[-1,-1,-1]","[-0.03938464164703872,-0.16028182366015456]","[-1,-1,-1]","[-0.15103197220000014,-0.06156491480924692]","[1,1,1]","[0.16914498029781602,-0.09854778190739812]","[-1,-1,-1]","[-0.1577297345814038,-0.014916163248289285]","[-1,-1,-1]","[-0.14122147354203948,-0.13095991527399545]","[-1,-1,-1]","[0.10545418372197139,0.05761066626824026]","[-1,-1,-1]","[-0.008038252200261347,0.03188018606429505]","[-1,-1,-1]","[0.06672533562543903,-0.00513167862479786]","[1,1,1]","[-0.06907148383414154,0.0428179254135792]","[-1,-1,-1]","[-0.10492646033133125,-0.10486583551411664]","[-1,-1,-1]","[0.09131498274664329,-0.09119833325550789]","[-1,-1,-1]","[-0.026092725087989634,-0.10578589537883146]","[-1,-1,-1]","[-0.04108622611631066,0.0905903811199069]","[-1,-1,-1]","[0.14451879104793292,-0.1346937405952595]","[-1,-1,-1]","[0.00915229190621033,0.13157411463217653]","[-1,-1,-1]","[0.07499613810361812,-0.045071764328078294]","[-1,-1,-1]","[0.02,0.02]",136.7113,0,8,8,16,1,,,,,,,
,,,,,,,67ad9281b4a4d68f2f055a7b,682db3af839f1404b4bbb7e6,2025-05-21_13h13.58.411,cuing_paradigm_dot,2024.1.5,Win32,59.88023952,682d556593cb38ad0a074487,,,,,,,,,,,136.7121,137.2124,,,137.4615,137.9449,right,0.4682,,,,,,,,,0.55,,,,,,137.2124,137.4615,137.9451,"[0.10865533428214952,-0.06189829636570961]","[-1,-1,-1]","[0.15718427187735806,-0.12063375342698425]","[1,1,1]","[0.17247361960298885,-0.023565272310805824]","[-1,-1,-1]","[-0.04054673177730065,0.15324983704389483]","[1,1,1]","[-0.05795920192449799,-0.10000896233269502]","[1,1,1]","[-0.0709003194666748,-0.006743200498262798]","[-1,-1,-1]","[0.0552781009868066,0.15823923614534263]","[-1,-1,-1]","[-0.0057072595264219175,-0.01881936300653339]","[1,1,1]","[-0.0404188643735463,-0.18620482230517435]","[1,1,1]","[0.009489114631222281,-0.17496525772762092]","[1,1,1]","[-0.12090893027052906,0.06575473141366477]","[1,1,1]","[-0.11271732041318562,0.1279984272253263]","[1,1,1]","[0.0051041811964438275,-0.07568435369953207]","[-1,-1,-1]","[-0.019740869160886024,0.19112581378140345]","[1,1,1]","[-0.14779217215634635,-0.029890137860833797]","[-1,-1,-1]","[0.10756830121648034,-0.13196143385826978]","[1,1,1]","[0.16756467277661063,0.050697448164655434]","[1,1,1]","[-0.13178723327526784,-0.06904338005596741]","[-1,-1,-1]","[-0.14106968773284193,0.022259604549528446]","[-1,-1,-1]","[-0.047031279760217086,0.03637395764229923]","[1,1,1]","[0.084698289599759,0.07808196438090402]","[1,1,1]","[-0.16789901615927336,-0.09658303205093176]","[-1,-1,-1]","[0.0009518933294887615,0.14000441325130736]","[1,1,1]","[-0.0717400826047046,0.09125671413267865]","[-1,-1,-1]","[0.098759963690377,-0.007076412486483164]","[-1,-1,-1]","[-0.0032493229781274213,0.053995139511588186]","[1,1,1]","[0.04919597893979752,-0.07992079273880892]","[1,1,1]","[0.1546816512294029,0.10628640396039721]","[-1,-1,-1]","[-0.1576267581712569,0.12092991315550411]","[-1,-1,-1]","[0.06359903940633672,0.035860814679966116]","[1,1,1]","[0.02357756958854367,-0.1289016602439644]","[-1,-1,-1]","[-0.19695767792261018,-0.017870256359859907]","[1,1,1]","[0.02,0.02]",139.0448,0,9,9,142,1,,,,,,,
,,,,,,,67ad9281b4a4d68f2f055a7b,682db3af839f1404b4bbb7e6,2025-05-21_13h13.58.411,cuing_paradigm_dot,2024.1.5,Win32,59.88023952,682d556593cb38ad0a074487,,,,,,,,,,,139.0457,139.5449,,,139.7952,140.2615,left,0.4351,,,,,,,,,0.45,,,,,,139.545,139.7951,140.2616,"[-0.016765834982968873,-0.17588690751286307]","[1,1,1]","[0.11456030578157395,-0.08432396115649894]","[1,1,1]","[-0.03020999199398781,0.14657981382459156]","[-1,-1,-1]","[0.022758506359612473,-0.062355834463206375]","[-1,-1,-1]","[-0.10963739053862112,-0.07790823733356507]","[-1,-1,-1]","[-0.10097760633764177,0.13914616043385752]","[-1,-1,-1]","[-0.06293399943569526,-0.16384876090873066]","[1,1,1]","[0.17287842396909944,0.0254386686501568]","[-1,-1,-1]","[-0.05498111120141162,0.01287156213921702]","[-1,-1,-1]","[0.056864327640118936,-0.13419297672325192]","[1,1,1]","[0.11492254632133932,-0.012473874326798326]","[-1,-1,-1]","[0.07446447893095441,-0.07307872507899492]","[1,1,1]","[0.0987078701671815,-0.1381648764287332]","[-1,-1,-1]","[-0.04963917915570603,0.09532750284411208]","[1,1,1]","[0.07330374874412493,0.16310336276222556]","[-1,-1,-1]","[-0.17036594919149645,0.0171863379533339]","[-1,-1,-1]","[-0.0006476946232350566,0.04425904703738161]","[-1,-1,-1]","[-0.025791827125010363,0.1948164517756526]","[1,1,1]","[-0.03159453327360306,-0.13475792947502446]","[1,1,1]","[0.05772675269369194,0.01814942697931128]","[1,1,1]","[-0.06559792518469477,-0.08346223295759084]","[-1,-1,-1]","[-0.146951171781088,-0.12228886278273511]","[-1,-1,-1]","[0.17201575604851668,-0.039033023152315764]","[1,1,1]","[-0.06564927900021204,0.17649786074031812]","[1,1,1]","[-0.1147782637387855,0.07058123009694078]","[-1,-1,-1]","[0.013272015793382273,-0.1145143160645623]","[1,1,1]","[-0.013397052908068028,-0.01041667465202973]","[1,1,1]","[0.16690141208435755,0.10885008502797024]","[-1,-1,-1]","[0.12233806141876492,0.03695202214259492]","[1,1,1]","[0.05399840463766348,0.0640839480962651]","[-1,-1,-1]","[-0.10363785987845515,-0.1536047369716726]","[-1,-1,-1]","[0.16421451929385913,-0.08776782355810926]","[-1,-1,-1]","[0.02,0.02]",141.3609,0,10,10,68,1,,,,,,,
,,,,,,,67ad9281b4a4d68f2f055a7b,682db3af839f1404b4bbb7e6,2025-05-21_13h13.58.411,cuing_paradigm_dot,2024.1.5,Win32,59.88023952,682d556593cb38ad0a074487,,,,,,,,,,,141.3615,141.8615,,,142.1121,142.4622,left,0.3182,,,,,,,,,0.1,,,,,,141.8616,142.1121,142.4623,"[-0.01039866843254727,0.1581010696317124]","[-1,-1,-1]","[0.044476172683585946,-0.014802253417900332]","[-1,-1,-1]","[0.06516640381936904,0.17064411840722823]","[-1,-1,-1]","[-0.025625017400490384,0.045437935314253275]","[-1,-1,-1]","[-0.06023029521740276,0.0728207487392367]","[-1,-1,-1]","[0.0980218793050038,-0.08429646122477906]","[-1,-1,-1]","[0.08265757054731322,0.11058982204640895]","[-1,-1,-1]","[-0.05675016279333932,0.18559760938909228]","[-1,-1,-1]","[-0.07313222305399059,0.11755943483004909]","[-1,-1,-1]","[-0.13909011044507363,0.10679685877144321]","[-1,-1,-1]","[0.14271111740419845,-0.13311962661242324]","[-1,-1,-1]","[-0.1774970129119382,0.046617846078717946]","[-1,-1,-1]","[-0.052063588945991515,-0.17123951435251156]","[-1,-1,-1]","[0.022542131072206675,-0.06902711958764209]","[1,1,1]","[-0.15628880490639846,-0.06649903757419358]","[-1,-1,-1]","[0.18025418944107902,0.009031033609977887]","[-1,-1,-1]","[-0.09028172397830878,-0.017654583362310614]","[-1,-1,-1]","[0.027942903112055453,0.1219731409519537]","[-1,-1,-1]","[-0.09856456734126812,-0.0857942513237186]","[-1,-1,-1]","[-0.10727484523671159,0.0324986783761337]","[-1,-1,-1]","[0.16485402087355988,-0.0773572130449533]","[1,1,1]","[0.13932339798323456,-0.013419421566585198]","[-1,-1,-1]","[0.10582243015577086,-0.044817671910367424]","[-1,-1,-1]","[-0.049332436832009455,-0.03043306899358665]","[-1,-1,-1]","[-0.15789062653626557,-0.11311489346082078]","[-1,-1,-1]","[0.04340359394245802,-0.15175486104083122]","[-1,-1,-1]","[-0.014469827500366855,0.0010004824526962679]","[-1,-1,-1]","[-0.08785544512914806,-0.14406020489896126]","[1,1,1]","[0.014583147708764092,0.06399272793322991]","[-1,-1,-1]","[0.09379079911838958,0.033446477301082224]","[-1,-1,-1]","[-0.05901893469705722,-0.07317445967642577]","[-1,-1,-1]","[0.14005274870102596,0.04764008525670327]","[-1,-1,-1]","[0.02,0.02]",143.5616,0,11,11,29,1,,,,,,,
,,,,,,,67ad9281b4a4d68f2f055a7b,682db3af839f1404b4bbb7e6,2025-05-21_13h13.58.411,cuing_paradigm_dot,2024.1.5,Win32,59.88023952,682d556593cb38ad0a074487,,,,,,,,,,,143.5624,144.0617,,,144.3125,144.7953,left,0.4507,,,,,,,,,0.4,,,,,,144.0618,144.3124,144.7954,"[-0.021589323703353775,0.10191538294610292]","[-1,-1,-1]","[0.18014568863756913,0.06856939073076038]","[1,1,1]","[0.01003176445106923,-0.19904404286740202]","[-1,-1,-1]","[-0.18446621136808197,-0.023729718667431832]","[1,1,1]","[-0.04752022577622385,0.02539459941574513]","[-1,-1,-1]","[-0.0652936339704846,-0.020176387552872745]","[-1,-1,-1]","[0.05035064848788338,0.13398011592782663]","[1,1,1]","[0.007540196693836265,-0.0240044192951932]","[1,1,1]","[-0.1002806889016025,-0.052578352390652214]","[-1,-1,-1]","[-0.10438619301963434,0.16241299089034053]","[-1,-1,-1]","[0.03767463506715484,0.034714049228799934]","[1,1,1]","[0.10470944056863167,0.1620155034435731]","[1,1,1]","[-0.10021127949539492,0.05063176990171181]","[1,1,1]","[-0.06462434818589168,-0.07875467112312746]","[-1,-1,-1]","[0.07085468733284277,-0.15358979529585687]","[-1,-1,-1]","[-0.02487194241155117,-0.12520242220378822]","[1,1,1]","[0.12357428919607313,0.05082322272905815]","[1,1,1]","[0.023189614653869196,-0.07935582153066008]","[-1,-1,-1]","[-0.1458821818954471,-0.09582048543214072]","[-1,-1,-1]","[-0.13704313001749166,0.0971544916762657]","[-1,-1,-1]","[-0.18389091038670152,0.04116478844362757]","[1,1,1]","[-0.1507323540074857,0.00006318938582837775]","[-1,-1,-1]","[0.11993636102514271,-0.08062176087426916]","[1,1,1]","[0.11910531525979867,0.10397133071777671]","[-1,-1,-1]","[0.09646345930326616,-0.024097069571022128]","[-1,-1,-1]","[0.15631427297646414,-0.11929776722179979]","[-1,-1,-1]","[0.15715061943439984,-0.02011771494289761]","[-1,-1,-1]","[0.0016440570105836804,0.01580048476384042]","[1,1,1]","[-0.057819446468407205,0.06531930121681467]","[-1,-1,-1]","[-0.10351270918733366,-0.093021579595479]","[-1,-1,-1]","[-0.036882980415005984,-0.17542832145304416]","[-1,-1,-1]","[0.00712688350156864,-0.1512225503286756]","[1,1,1]","[0.02,0.02]",145.8951,0,12,12,58,1,,,,,,,
,,,,,,,67ad9281b4a4d68f2f055a7b,682db3af839f1404b4bbb7e6,2025-05-21_13h13.58.411,cuing_paradigm_dot,2024.1.5,Win32,59.88023952,682d556593cb38ad0a074487,,,,,,,,,,,145.8959,146.3945,,,146.6449,147.1285,right,0.4545,,,,,,,,,0.55,,,,,,146.3946,146.6448,147.1286,"[0.10869287755680088,-0.058408460092868375]","[-1,-1,-1]","[0.0628217503456521,-0.12809313553666157]","[1,1,1]","[0.08368870213529837,-0.17325105912178046]","[1,1,1]","[-0.03509098368098046,-0.12979691794859483]","[-1,-1,-1]","[-0.05404927190075565,0.011609974619901577]","[1,1,1]","[0.16836720777715564,-0.08263921487734523]","[-1,-1,-1]","[-0.08855388110208186,0.08731025569242251]","[1,1,1]","[0.19093620003140482,-0.026364019178327005]","[1,1,1]","[0.06746468874968034,0.004464833432081258]","[1,1,1]","[0.0528980181915555,0.13490482752034272]","[-1,-1,-1]","[-0.11629908544282012,-0.08704618266875441]","[1,1,1]","[-0.18150549403907643,0.07920247317690828]","[-1,-1,-1]","[-0.12899423890337702,-0.14152530355576268]","[-1,-1,-1]","[0.02592040228710104,0.07075505859025369]","[1,1,1]","[0.12287563811760117,-0.11027072992034521]","[1,1,1]","[-0.03334596766372107,0.10021590482149748]","[-1,-1,-1]","[-0.14145788853056174,0.03673364754291115]","[-1,-1,-1]","[0.02037859077980141,-0.051959120731680596]","[-1,-1,-1]","[0.029529751918611614,-0.09970326253645227]","[-1,-1,-1]","[0.15047564364516425,0.0870188414508744]","[-1,-1,-1]","[0.14452209306527636,0.025754088890734887]","[1,1,1]","[0.13941697371365322,-0.030874305392954583]","[-1,-1,-1]","[0.004110990368462493,0.01337250570521511]","[-1,-1,-1]","[-0.11395670239022437,-0.046695703890954496]","[1,1,1]","[-0.034807739623107965,0.1480028388241208]","[-1,-1,-1]","[-0.07433251195333417,-0.03509802398724468]","[1,1,1]","[0.038208364188304055,0.19008028865663665]","[1,1,1]","[0.08227246039355607,0.08821645755054258]","[1,1,1]","[-0.15486726513386437,-0.014335829634084482]","[1,1,1]","[0.01877112632645748,0.1132334271694091]","[1,1,1]","[-0.08334228569331992,0.15648882397764868]","[1,1,1]","[-0.020877784355822455,0.1911875261286722]","[1,1,1]","[0.02,0.02]",148.2283,0,13,13,128,1,,,,,,,
,,,,,,,67ad9281b4a4d68f2f055a7b,682db3af839f1404b4bbb7e6,2025-05-21_13h13.58.411,cuing_paradigm_dot,2024.1.5,Win32,59.88023952,682d556593cb38ad0a074487,,,,,,,,,,,148.2291,148.7175,,,148.9616,149.5449,right,0.5509,,,,,,,,,0.6,,,,,,148.7175,148.9616,149.5451,"[-0.08763842667850603,0.12118456152374565]","[-1,-1,-1]","[-0.13536756298015906,0.06822199023841971]","[-1,-1,-1]","[-0.07943667856777688,-0.1495128570873637]","[-1,-1,-1]","[0.004359781019861376,0.04705931379050252]","[1,1,1]","[0.050174683159622716,-0.01430195143675988]","[1,1,1]","[0.07351161372990765,-0.14316518186296817]","[-1,-1,-1]","[-0.0964195741950846,0.1687460507158659]","[1,1,1]","[0.001896329557057724,-0.14090424186234585]","[1,1,1]","[0.19546118263234563,0.03549422132132563]","[-1,-1,-1]","[0.08776922792528372,0.17330435556733784]","[1,1,1]","[0.013431890413515498,0.14640927032852433]","[-1,-1,-1]","[0.16108548394325928,0.0008541269122614364]","[1,1,1]","[-0.049773735702887636,0.16018626518401652]","[1,1,1]","[0.012925500029591433,-0.06158905171325217]","[1,1,1]","[0.16991883077968212,0.0973943779530407]","[1,1,1]","[-0.0337055144057332,-0.17985478398679558]","[1,1,1]","[-0.140197633159152,-0.13555375111326698]","[1,1,1]","[-0.01513254708601857,0.011199624937072349]","[-1,-1,-1]","[0.00442731598114232,0.09347765663306347]","[-1,-1,-1]","[-0.13665635059515738,-0.07476445497473426]","[1,1,1]","[0.1547974095244543,-0.04627758149807839]","[1,1,1]","[-0.04271539979827922,-0.12452854675840747]","[1,1,1]","[-0.08480242576855253,0.023312218797054526]","[-1,-1,-1]","[-0.0069742365842712945,0.19057279164051816]","[1,1,1]","[-0.07666514714338583,-0.061190189663940645]","[-1,-1,-1]","[0.09038305202890834,0.0789084665248196]","[1,1,1]","[-0.12828396659697616,0.02344544244507361]","[-1,-1,-1]","[-0.1859014825225741,0.07363286156764806]","[1,1,1]","[-0.19491892817613365,-0.018887030938593202]","[-1,-1,-1]","[0.1326137914002501,-0.12827605026378996]","[-1,-1,-1]","[0.14711790511719866,0.1331725040495396]","[1,1,1]","[0.13145423296040804,0.07425419493194636]","[1,1,1]","[0.02,0.02]",150.6445,0,14,14,166,1,,,,,,,
,,,,,,,67ad9281b4a4d68f2f055a7b,682db3af839f1404b4bbb7e6,2025-05-21_13h13.58.411,cuing_paradigm_dot,2024.1.5,Win32,59.88023952,682d556593cb38ad0a074487,,,,,,,,,,,150.6452,151.1449,,,151.3943,151.9789,right,0.568,,,,,,,,,0.4,,,,,,151.145,151.3942,151.979,"[-0.18316118100332168,-0.05491447989737846]","[-1,-1,-1]","[-0.043384154583389685,0.05490434295967762]","[-1,-1,-1]","[0.12327396507620952,-0.09729508428161174]","[1,1,1]","[0.047870419177562504,0.0007901472877007073]","[-1,-1,-1]","[0.148275530858615,0.05472524756822353]","[1,1,1]","[0.1860409213698407,-0.005793676871446462]","[-1,-1,-1]","[0.07575717761219451,-0.13818964555058644]","[1,1,1]","[0.03749821054118342,0.07403107938444511]","[-1,-1,-1]","[-0.017547776546568465,0.19860135685087088]","[1,1,1]","[-0.050507880859490095,-0.07999839394498462]","[-1,-1,-1]","[-0.14304485830319882,0.03143750320176802]","[-1,-1,-1]","[0.0009160053499111965,0.15576449580855886]","[1,1,1]","[-0.05766771861912716,-0.03231972338351831]","[-1,-1,-1]","[0.07789202396299134,0.0857955768000214]","[-1,-1,-1]","[-0.13566040032223245,0.11211806839366033]","[-1,-1,-1]","[0.03949271116652957,-0.1124186406143266]","[-1,-1,-1]","[0.11978187646637924,-0.15391732330538863]","[-1,-1,-1]","[0.0033752366093034417,0.006638485316919001]","[-1,-1,-1]","[-0.07784776298359389,-0.18263717720650646]","[1,1,1]","[-0.1331591635523591,-0.14869322632125195]","[1,1,1]","[-0.08795029530150197,0.007256553093088662]","[-1,-1,-1]","[0.16113330165906908,-0.07541087452412477]","[1,1,1]","[-0.1255932083157082,-0.06198550558971364]","[-1,-1,-1]","[0.08353421885597341,-0.03132614884129157]","[-1,-1,-1]","[0.014363334366899861,-0.154728432631]","[1,1,1]","[0.08484069506594487,0.15798974001802465]","[1,1,1]","[-0.16031995973619,-0.006181160817255352]","[-1,-1,-1]","[-0.0053914309725645254,-0.04649044048095709]","[1,1,1]","[-0.07354134715479489,-0.13815913699696428]","[-1,-1,-1]","[0.05520019934024102,-0.19192274932736028]","[-1,-1,-1]","[-0.09196347847914475,0.10442871085963285]","[1,1,1]","[-0.09329509782255811,0.14975760954057465]","[1,1,1]","[0.02,0.02]",153.0779,0,15,15,34,1,,,,,,,
,,,,,,,67ad9281b4a4d68f2f055a7b,682db3af839f1404b4bbb7e6,2025-05-21_13h13.58.411,cuing_paradigm_dot,2024.1.5,Win32,59.88023952,682d556593cb38ad0a074487,,,,,,,,,,,153.0787,153.5775,,,153.8188,154.3195,left,0.4843,,,,,,,,,0.4,,,,,,153.5775,153.8187,154.3195,"[-0.1652907059576316,-0.02803449587600447]","[1,1,1]","[0.0211529530579192,-0.11492777460497336]","[1,1,1]","[-0.09911341019299848,0.1264793336582289]","[-1,-1,-1]","[0.041273489619308344,0.08819434610135518]","[-1,-1,-1]","[-0.0965498900513444,-0.09247075375876644]","[1,1,1]","[-0.05624285050340749,0.12317146434326556]","[-1,-1,-1]","[0.18986297627458842,-0.004177734275008117]","[-1,-1,-1]","[-0.10550391366306604,0.07692389287684433]","[-1,-1,-1]","[-0.08895453919103105,-0.1584196948380137]","[-1,-1,-1]","[0.04007129559152564,-0.06157388255851139]","[1,1,1]","[0.019770194307774096,-0.18398031598759407]","[1,1,1]","[-0.12241091288636508,-0.005610570747805989]","[1,1,1]","[-0.04597187895244412,-0.06772342391285557]","[1,1,1]","[-0.020968419175676732,0.10011736095716625]","[-1,-1,-1]","[0.043607023043250766,0.19121836055992977]","[1,1,1]","[-0.004131527745067034,0.16995274903862265]","[1,1,1]","[0.0724627212163762,0.02486249330596908]","[-1,-1,-1]","[-0.14390334445462108,0.05671303627262574]","[-1,-1,-1]","[0.08135486892903268,-0.15709108028392282]","[1,1,1]","[-0.0752335335076852,0.020721827283465742]","[-1,-1,-1]","[-0.04648879513345872,-0.17500777831407646]","[1,1,1]","[-0.12286832332368784,-0.0456304160735041]","[-1,-1,-1]","[0.07939873588526743,-0.10257289973020459]","[1,1,1]","[0.15835028876285892,-0.10566208282176576]","[1,1,1]","[0.13929349271821956,0.04272210255778238]","[-1,-1,-1]","[0.10653259749618932,-0.0578656289782393]","[-1,-1,-1]","[0.09718151019960064,0.12207072723521992]","[-1,-1,-1]","[0.18195322737417047,0.04307919734307764]","[-1,-1,-1]","[0.11938046689541983,-0.006632038598004834]","[-1,-1,-1]","[-0.07011650037376001,0.16847964976240853]","[-1,-1,-1]","[0.006879745030299837,0.009100723258556903]","[-1,-1,-1]","[-0.010089463989764647,-0.04957945453359989]","[-1,-1,-1]","[0.02,0.02]",155.4194,0,16,16,41,1,,,,,,,
,,,,,,,67ad9281b4a4d68f2f055a7b,682db3af839f1404b4bbb7e6,2025-05-21_13h13.58.411,cuing_paradigm_dot,2024.1.5,Win32,59.88023952,682d556593cb38ad0a074487,,,,,,,,,,,155.42,155.9198,,,156.1625,156.6789,right,0.5007,,,,,,,,,0.9,,,,,,155.9198,156.1625,156.679,"[0.03609284812564375,0.14277762648255876]","[1,1,1]","[-0.1732120204233043,0.06901417075853258]","[1,1,1]","[0.05841096466926242,0.08269357053870076]","[1,1,1]","[-0.010671581851057012,-0.15700189949388077]","[1,1,1]","[0.11921240505341467,0.14005337932982234]","[1,1,1]","[-0.02415148475703626,-0.09049262801364716]","[1,1,1]","[0.04361739076870005,-0.17111753526228246]","[1,1,1]","[-0.15104582624797297,0.012544086022347505]","[1,1,1]","[0.11942381850049366,-0.02119133383754345]","[1,1,1]","[-0.010567368773554776,-0.017059109684844247]","[1,1,1]","[0.04499200070547228,-0.0827575865251539]","[-1,-1,-1]","[-0.012294562954116626,0.13815572307484822]","[1,1,1]","[-0.055315997535969115,0.18031642870826456]","[1,1,1]","[0.1854252192781919,-0.07303763592456876]","[-1,-1,-1]","[0.18599600109449044,-0.02027253431734058]","[1,1,1]","[0.03113181123475454,0.0368886888687068]","[1,1,1]","[-0.12770887748434764,0.1458745080210307]","[1,1,1]","[0.11654030911021472,0.03878274902995599]","[1,1,1]","[0.07099654592805452,-0.11562311593520812]","[1,1,1]","[-0.05641792618728411,0.13014768148716235]","[1,1,1]","[-0.06968616653160467,-0.15263221148941353]","[1,1,1]","[-0.10792826994094898,-0.09780652784415032]","[1,1,1]","[0.11598181949452167,-0.14449707041579973]","[1,1,1]","[-0.039152689777377056,0.07435649098721123]","[1,1,1]","[-0.04737647341443466,0.018048278315000787]","[1,1,1]","[0.16755898972514305,0.07684308241486698]","[-1,-1,-1]","[0.043894725811809435,-0.03683086027328046]","[1,1,1]","[-0.06546737591078759,-0.0372744650891183]","[1,1,1]","[0.062339600951195534,0.18192599652317426]","[1,1,1]","[-0.11068843874582833,-0.1612703554927848]","[1,1,1]","[0.164871516802354,0.03665440695499646]","[1,1,1]","[0.11358062440971825,0.09267765769245004]","[1,1,1]","[0.02,0.02]",157.7776,0,17,17,191,1,,,,,,,
,,,,,,,67ad9281b4a4d68f2f055a7b,682db3af839f1404b4bbb7e6,2025-05-21_13h13.58.411,cuing_paradigm_dot,2024.1.5,Win32,59.88023952,682d556593cb38ad0a074487,,,,,,,,,,,157.778,158.2784,,,158.5284,159.0121,left,0.4593,,,,,,,,,0.45,,,,,,158.2784,158.5282,159.0121,"[0.09709105063771062,-0.07749780039808164]","[1,1,1]","[-0.05190652861139065,0.11450581145464005]","[-1,-1,-1]","[-0.13196399166626685,-0.023697889987906482]","[-1,-1,-1]","[-0.15964291775590259,0.10686870159658075]","[-1,-1,-1]","[0.06314231352911011,0.15342814506462008]","[1,1,1]","[0.16190206595012152,0.11336915183612381]","[-1,-1,-1]","[0.09278390647791296,-0.14940480339227183]","[1,1,1]","[-0.015497705232729532,-0.13468934412886768]","[-1,-1,-1]","[-0.08558623026986682,-0.10555841755814159]","[1,1,1]","[-0.16625327565023945,0.001079843178444293]","[-1,-1,-1]","[-0.06517019976408944,-0.1664959789686043]","[1,1,1]","[-0.1272020623565783,-0.07360118885830391]","[-1,-1,-1]","[0.08180332548280467,-0.01493530424507969]","[-1,-1,-1]","[-0.08416873887517731,0.13924522496414882]","[-1,-1,-1]","[-0.18160966354661623,-0.07968979283033926]","[1,1,1]","[-0.12252456181314506,0.030826234016234327]","[-1,-1,-1]","[0.182237630584993,0.018912639754223998]","[-1,-1,-1]","[-0.022960119526185232,-0.055870036821128316]","[1,1,1]","[0.03362189436747038,-0.036850292193530934]","[-1,-1,-1]","[0.05606785652646855,0.03091743070994866]","[1,1,1]","[0.11528899812255981,0.07378702817915286]","[1,1,1]","[-0.09930697106627642,0.07105414208173583]","[1,1,1]","[0.17139549739576615,0.06405230512015353]","[-1,-1,-1]","[-0.008057582403635384,0.13413698250641426]","[1,1,1]","[0.06081702369350891,0.11292997549377641]","[1,1,1]","[0.018507668145729184,-0.19586113334167493]","[-1,-1,-1]","[0.014201389325247707,-0.07850252709711322]","[-1,-1,-1]","[-0.012599114145499022,0.007476677749202736]","[-1,-1,-1]","[0.17211278249160483,-0.06443543724646296]","[-1,-1,-1]","[-0.0056255235648007,0.08105158570146176]","[-1,-1,-1]","[0.12885104927949928,-0.04051036600388889]","[1,1,1]","[-0.07342419733282314,0.010237782419119174]","[1,1,1]","[0.02,0.02]",160.1115,0,18,18,64,1,,,,,,,
,,,,,,,67ad9281b4a4d68f2f055a7b,682db3af839f1404b4bbb7e6,2025-05-21_13h13.58.411,cuing_paradigm_dot,2024.1.5,Win32,59.88023952,682d556593cb38ad0a074487,,,,,,,,,,,160.1121,160.6116,,,160.8619,161.3288,right,0.4506,,,,,,,,,0.45,,,,,,160.6116,160.8618,161.3289,"[-0.1753649586444666,0.0889966369401127]","[-1,-1,-1]","[0.15297659941076946,-0.05961098881396159]","[-1,-1,-1]","[0.06979268822356513,-0.013506726394131805]","[1,1,1]","[0.16576700528982702,0.06683648268519227]","[1,1,1]","[-0.075467055421088,-0.026966821452298326]","[1,1,1]","[0.04148656850928463,-0.1684002698826532]","[-1,-1,-1]","[-0.09813347967564434,0.05966510270533708]","[-1,-1,-1]","[0.030726167529947317,0.09791019048475204]","[-1,-1,-1]","[-0.1268158766681938,-0.0559188115935326]","[1,1,1]","[-0.007203742843867744,-0.17346914502127897]","[-1,-1,-1]","[0.13099039687375813,-0.009551147294300172]","[1,1,1]","[-0.04576246057831688,0.18959719832944627]","[-1,-1,-1]","[-0.1520485055767995,-0.09894726562452014]","[1,1,1]","[-0.17008946979287198,-0.033674636545453975]","[-1,-1,-1]","[-0.09829165611637551,0.16200715269566757]","[-1,-1,-1]","[-0.05697426384693924,-0.18441006381872557]","[-1,-1,-1]","[-0.011622653440764295,0.12348096651506686]","[1,1,1]","[-0.07115515407684479,0.10629662871330617]","[-1,-1,-1]","[0.08802038498213517,-0.06337178240955675]","[1,1,1]","[0.07417523005824425,0.046837755988906556]","[1,1,1]","[-0.055330399677176796,-0.0777451968502345]","[-1,-1,-1]","[0.07879605901835827,0.13418493952115915]","[-1,-1,-1]","[-0.16186375961784247,0.0349311052101483]","[1,1,1]","[0.10625014163083245,-0.10892597847332769]","[-1,-1,-1]","[0.03609366810255325,-0.04976603454274031]","[-1,-1,-1]","[0.005959016612989158,-0.023424556656297113]","[1,1,1]","[0.1481474230788645,0.12565786868437392]","[-1,-1,-1]","[-0.03547583791141193,0.07908238390816343]","[1,1,1]","[0.12947258005175066,0.03527405289063954]","[1,1,1]","[0.11330445101223324,0.15710223939640755]","[-1,-1,-1]","[-0.12497020387906876,0.12864782958747284]","[-1,-1,-1]","[0.06333189577679842,-0.11817350705725693]","[1,1,1]","[0.02,0.02]",162.4279,0,19,19,81,1,,,,,,,
,,,,,,,67ad9281b4a4d68f2f055a7b,682db3af839f1404b4bbb7e6,2025-05-21_13h13.58.411,cuing_paradigm_dot,2024.1.5,Win32,59.88023952,682d556593cb38ad0a074487,,,,,,,,,,,162.4289,162.9336,,,163.178,163.411,right,0.2111,,,,,,,,,0.9,,,,,,162.9336,163.1778,163.4111,"[0.07739797266904323,-0.1181830341733713]","[1,1,1]","[-0.009989790386600318,-0.03794368925688105]","[1,1,1]","[0.13697525470034294,0.05149362320201704]","[1,1,1]","[-0.05542041311661305,-0.1554062031213116]","[1,1,1]","[0.03505196417227967,-0.08039825655244665]","[1,1,1]","[0.10839399073139551,-0.0181298828830031]","[1,1,1]","[-0.12901348541340837,-0.10685820414088863]","[1,1,1]","[0.004120640528556409,-0.18398854955948904]","[-1,-1,-1]","[0.06633807745898773,0.07549147640296615]","[1,1,1]","[-0.06783938504398569,-0.11736542019824513]","[1,1,1]","[0.13378115165486448,0.10003590735424707]","[1,1,1]","[0.004006223182582283,0.006487994770340421]","[1,1,1]","[-0.07649469060069229,0.17808215543793512]","[1,1,1]","[-0.19497257803865214,-0.009858324544588772]","[1,1,1]","[-0.03051425575062418,0.0871930465811364]","[1,1,1]","[0.0429817484021933,-0.03604746941289494]","[1,1,1]","[0.1416317599935362,-0.11536253955079571]","[1,1,1]","[-0.09194840153673507,0.13700963740209]","[1,1,1]","[-0.10080655139316404,-0.047643445062203596]","[1,1,1]","[-0.007965310533065081,0.1998135242618467]","[1,1,1]","[0.051866931931064134,-0.1788744172114005]","[1,1,1]","[-0.06175994201607783,-0.059363937894003925]","[1,1,1]","[0.17867798130691182,-0.05922835006880264]","[1,1,1]","[0.053687041079903755,0.030185342351529004]","[1,1,1]","[-0.104019877087558,0.09261001713227501]","[1,1,1]","[-0.04636767748621113,0.027054785731376162]","[1,1,1]","[-0.14172194238158578,0.10854913000434786]","[1,1,1]","[-0.004007320315484188,0.12146439291313614]","[-1,-1,-1]","[0.09901736667033127,0.1390493522084378]","[-1,-1,-1]","[0.026353234423221964,0.1478910288612668]","[1,1,1]","[-0.034469171297249496,0.14955809911748835]","[1,1,1]","[-0.1406413112209017,-0.030337970835746863]","[1,1,1]","[0.02,0.02]",164.5113,0,20,20,181,1,,,,,,,
,,,,,,,67ad9281b4a4d68f2f055a7b,682db3af839f1404b4bbb7e6,2025-05-21_13h13.58.411,cuing_paradigm_dot,2024.1.5,Win32,59.88023952,682d556593cb38ad0a074487,,,,,,,,,,,164.5126,165.0109,,,165.2509,165.6274,right,0.3625,,,,,,,,,0.6,,,,,,165.0111,165.2508,165.6274,"[0.09729292531697152,-0.030362409406925722]","[1,1,1]","[-0.056141324354953115,-0.12191369373700348]","[1,1,1]","[0.09399949365249663,0.016721670361920054]","[1,1,1]","[0.11181963957649864,0.11853352818474647]","[-1,-1,-1]","[-0.13127208911140378,0.1043954247790919]","[1,1,1]","[-0.10273825852194277,0.03368986774580478]","[1,1,1]","[-0.032452634778125655,0.16768043110852576]","[1,1,1]","[-0.11326457089562934,0.1503721793584772]","[1,1,1]","[-0.12023814540777225,-0.12207332006262538]","[-1,-1,-1]","[-0.0024116962374847576,-0.11540282366440725]","[-1,-1,-1]","[0.047505206030509485,0.152600581879995]","[1,1,1]","[0.1475696764390131,-0.11199848594561179]","[1,1,1]","[0.08832654346141668,-0.0856265966331981]","[-1,-1,-1]","[0.03490654645657512,-0.06426013462391125]","[1,1,1]","[0.19136204814214253,0.042229706211158596]","[1,1,1]","[0.00748171928915725,0.15562762638204736]","[1,1,1]","[-0.05490825892631835,-0.0010205079108776473]","[-1,-1,-1]","[-0.07344080437396558,0.13276185306490623]","[1,1,1]","[-0.12471654039826625,-0.0004990894627035832]","[-1,-1,-1]","[-0.059027178220817426,-0.16656752806499706]","[-1,-1,-1]","[0.18959351469349645,-0.03828123560535345]","[-1,-1,-1]","[-0.19521390996743054,-0.041512448216977]","[1,1,1]","[0.1406170877076569,0.08345951428203799]","[1,1,1]","[0.09378060558380298,-0.1561830359668741]","[-1,-1,-1]","[0.08069036185963123,0.17586273338296968]","[1,1,1]","[0.046654777236087484,-0.1275145358760494]","[-1,-1,-1]","[0.022660669400954233,0.05171139827003518]","[1,1,1]","[0.04617716019559781,0.10662077863624785]","[1,1,1]","[-0.16483308326910673,-0.08684154676456851]","[1,1,1]","[-0.044606774762312305,-0.06863758215082742]","[-1,-1,-1]","[0.029145893443197717,-0.17880401406599578]","[-1,-1,-1]","[-0.1018961264779149,-0.17043024052761563]","[-1,-1,-1]","[0.02,0.02]",166.7275,0,21,21,155,1,,,,,,,
,,,,,,,67ad9281b4a4d68f2f055a7b,682db3af839f1404b4bbb7e6,2025-05-21_13h13.58.411,cuing_paradigm_dot,2024.1.5,Win32,59.88023952,682d556593cb38ad0a074487,,,,,,,,,,,166.7283,167.2284,,,167.4779,167.9619,right,0.4712,,,,,,,,,0.45,,,,,,167.2284,167.4778,167.9621,"[-0.01394253290386713,0.027709526727912274]","[-1,-1,-1]","[0.09785386535318857,0.032015583597900965]","[1,1,1]","[-0.031800279675452486,-0.14127853537527793]","[-1,-1,-1]","[0.02440311706566207,-0.19684978231624256]","[-1,-1,-1]","[-0.1499464998601972,-0.0381212272452362]","[1,1,1]","[0.0028594470205821417,-0.10291072199344527]","[-1,-1,-1]","[0.04188180023621577,0.04692986298260608]","[-1,-1,-1]","[0.010415138133547632,-0.04971491085935016]","[-1,-1,-1]","[-0.03803034832203334,-0.06030434849383311]","[1,1,1]","[0.011927329927936357,0.1359967538365851]","[1,1,1]","[0.1728044858927906,0.04561613508222914]","[1,1,1]","[-0.08310705693694415,-0.01233505820632011]","[-1,-1,-1]","[-0.10186033150057851,-0.16853779168003755]","[-1,-1,-1]","[0.16387444777150217,-0.0917184742763054]","[-1,-1,-1]","[0.09368711015737242,-0.17147247475183908]","[1,1,1]","[-0.15690460879876555,-0.11754773586633471]","[1,1,1]","[0.0582133959299102,0.00835737788191514]","[-1,-1,-1]","[0.12151711168792471,0.12473093275236563]","[-1,-1,-1]","[0.00970898868006201,0.07563613966053792]","[-1,-1,-1]","[-0.1877756740534044,-0.06468590610583372]","[1,1,1]","[-0.03713216732282622,0.17437595903141853]","[1,1,1]","[-0.194949813219896,0.034949751599779866]","[1,1,1]","[0.024714679549781463,-0.15017759689900256]","[-1,-1,-1]","[-0.07160966536446925,0.03999441574493582]","[1,1,1]","[0.10998764546953362,-0.11568626513726821]","[-1,-1,-1]","[0.09589115523153628,0.09089924254868852]","[1,1,1]","[-0.17226929967411841,0.083040597504248]","[1,1,1]","[0.10572572033934977,-0.016817013053768627]","[-1,-1,-1]","[0.1743227468098738,-0.007531411874452674]","[-1,-1,-1]","[0.13199743547331091,-0.06450035366038029]","[-1,-1,-1]","[-0.12604153592585446,0.13618325968075976]","[-1,-1,-1]","[0.08384971952224363,-0.08415618517969987]","[1,1,1]","[0.02,0.02]",169.0619,0,22,22,62,1,,,,,,,
,,,,,,,67ad9281b4a4d68f2f055a7b,682db3af839f1404b4bbb7e6,2025-05-21_13h13.58.411,cuing_paradigm_dot,2024.1.5,Win32,59.88023952,682d556593cb38ad0a074487,,,,,,,,,,,169.0627,169.5611,,,169.812,170.2782,right,0.4392,,,,,,,,,0.4,,,,,,169.5613,169.8119,170.2783,"[-0.06858521191484902,0.0629030412379189]","[-1,-1,-1]","[0.034487479027757985,-0.1574550784732218]","[-1,-1,-1]","[0.0425238972195804,-0.11207915155288847]","[-1,-1,-1]","[0.16235195486093534,-0.012599874102451407]","[1,1,1]","[-0.007580046075038472,-0.06556985190828571]","[-1,-1,-1]","[-0.09049672013071634,0.162445016089261]","[1,1,1]","[-0.0791825571473673,0.004905704920508013]","[-1,-1,-1]","[0.10196620721747994,0.09045090044352466]","[-1,-1,-1]","[-0.17297681961633166,-0.05619811274572565]","[-1,-1,-1]","[0.06748498557329592,-0.04003915917037399]","[1,1,1]","[-0.07090928226669763,-0.15118532708251087]","[1,1,1]","[0.08827167999728865,0.039653782344497596]","[-1,-1,-1]","[0.15886647975387994,0.0483299763140334]","[-1,-1,-1]","[-0.03656622389322111,0.13402193590894956]","[-1,-1,-1]","[-0.13269453112582424,0.11541763607568102]","[-1,-1,-1]","[0.10261892022702568,-0.139589533317494]","[1,1,1]","[-0.03622429158876519,0.01907657461119898]","[-1,-1,-1]","[0.027962409497983096,0.13452036902417477]","[-1,-1,-1]","[0.06910756181993263,-0.18167822867434466]","[1,1,1]","[-0.10580567975754526,-0.04378475029484348]","[1,1,1]","[-0.13450989771399924,0.026842047554129184]","[-1,-1,-1]","[-0.1803912010722209,0.014030491263244751]","[-1,-1,-1]","[-0.18979450400452502,0.05380655835377923]","[-1,-1,-1]","[0.15292881746635886,-0.12548159356643548]","[1,1,1]","[-0.007646742395121221,0.07885132300397893]","[1,1,1]","[0.04708357073198165,0.19025227948338072]","[1,1,1]","[0.08073964661648125,0.14113965248539911]","[-1,-1,-1]","[0.18846193810956263,0.01829879835655835]","[1,1,1]","[0.16768935932362616,-0.07562873117473234]","[1,1,1]","[0.14432127603764713,0.11622703965049619]","[-1,-1,-1]","[-0.02398867062688607,-0.1189145474266625]","[-1,-1,-1]","[0.10900755165912591,-0.07612201810754712]","[1,1,1]","[0.02,0.02]",171.3779,0,23,23,38,1,,,,,,,
,,,,,,,67ad9281b4a4d68f2f055a7b,682db3af839f1404b4bbb7e6,2025-05-21_13h13.58.411,cuing_paradigm_dot,2024.1.5,Win32,59.88023952,682d556593cb38ad0a074487,,,,,,,,,,,171.3786,171.8778,,,172.1363,172.562,left,0.4114,,,,,,,,,0.4,,,,,,171.8779,172.1363,172.5621,"[-0.11124849336454169,0.16280149397474727]","[-1,-1,-1]","[0.012406464797738282,0.08227558216241282]","[1,1,1]","[0.17397206045590666,0.08503239495944807]","[-1,-1,-1]","[-0.07961595903005107,-0.14433746347149623]","[-1,-1,-1]","[-0.05751669973550267,0.1745715233597806]","[-1,-1,-1]","[-0.07219536617342112,-0.03575787825288885]","[1,1,1]","[0.0046234096871426225,0.14682569832682815]","[1,1,1]","[0.04731715185996276,-0.15427398917101864]","[-1,-1,-1]","[0.015003003419077846,0.020296485362341604]","[-1,-1,-1]","[0.16854622789452012,0.03229799969544646]","[1,1,1]","[0.06955643379514324,-0.10903230322112714]","[-1,-1,-1]","[-0.02566502101216969,0.11701417252308445]","[1,1,1]","[0.039208789242916715,-0.01918818917946338]","[-1,-1,-1]","[-0.11498465779192381,-0.12119244461785977]","[1,1,1]","[-0.02496910209581804,-0.13268090746959527]","[1,1,1]","[0.10334734859825877,-0.1342869194484142]","[-1,-1,-1]","[0.008763839503842689,-0.051814732125107656]","[-1,-1,-1]","[-0.08921539682341097,0.07172733812819596]","[1,1,1]","[-0.12064792321405116,0.00687157787863914]","[1,1,1]","[0.04119324182795018,0.05126178527094263]","[1,1,1]","[0.08716059300842961,0.14003168457505513]","[-1,-1,-1]","[0.16558094707686555,-0.032190879050869696]","[-1,-1,-1]","[-0.11695247414262848,-0.059321955665530876]","[1,1,1]","[-0.16951764472868966,-0.07937647896652582]","[-1,-1,-1]","[0.12835033507729743,0.001945846797871054]","[-1,-1,-1]","[0.09152668558191136,0.0787790960680389]","[-1,-1,-1]","[0.042906426048938094,0.17399293733683763]","[-1,-1,-1]","[-0.1892943845339388,0.046761686035841056]","[-1,-1,-1]","[-0.17025839011862806,0.0863471268620514]","[1,1,1]","[-0.07816948444278973,0.0052908394572237305]","[1,1,1]","[-0.19528152029940823,-0.040004192690250115]","[-1,-1,-1]","[-0.07360335798157135,-0.07995778539337856]","[-1,-1,-1]","[0.02,0.02]",173.6616,0,24,24,37,1,,,,,,,
,,,,,,,67ad9281b4a4d68f2f055a7b,682db3af839f1404b4bbb7e6,2025-05-21_13h13.58.411,cuing_paradigm_dot,2024.1.5,Win32,59.88023952,682d556593cb38ad0a074487,,,,,,,,,,,173.6624,174.1607,,,174.4007,174.7112,right,0.2986,,,,,,,,,0.9,,,,,,174.1608,174.4006,174.7114,"[0.022507682720024257,0.1572594421663808]","[1,1,1]","[-0.11920684906631847,-0.10494528421505876]","[1,1,1]","[-0.14507713773488912,0.001702813260563805]","[1,1,1]","[0.0019940256883863553,0.06087075808794738]","[1,1,1]","[0.19882086689457262,0.004693144602539368]","[1,1,1]","[-0.04386132418874766,0.08633291240859242]","[1,1,1]","[0.17650166437543474,-0.04891014460603195]","[1,1,1]","[-0.1148389989212207,0.028249197941403445]","[1,1,1]","[0.1132670782230946,-0.024574258404045753]","[1,1,1]","[0.041238704367139625,0.04484275649032662]","[1,1,1]","[-0.16884894873882952,-0.03080787775096068]","[1,1,1]","[0.025260174586740163,-0.014413451469411165]","[1,1,1]","[-0.18238794513236894,0.06912272443428281]","[1,1,1]","[-0.05918448460700886,0.1628485269919534]","[1,1,1]","[0.08895481617352655,0.028421817623589692]","[1,1,1]","[-0.005724296702064703,0.11818373886738517]","[1,1,1]","[-0.004406901016914301,-0.054579675903943456]","[1,1,1]","[-0.060513913808126776,-0.10021605511336304]","[1,1,1]","[-0.07100968166309538,0.05053124258105747]","[1,1,1]","[-0.05823463173262261,-0.1524139966868128]","[1,1,1]","[0.06439374426286322,0.16903411578019867]","[1,1,1]","[0.07271840363117192,0.10081826778278577]","[1,1,1]","[-0.024663521018600587,0.1868122253635771]","[1,1,1]","[0.042317345161659074,-0.1353603764399053]","[-1,-1,-1]","[-0.09469344763652292,-0.06955457136259334]","[1,1,1]","[0.1634995046947351,0.07298718866885413]","[1,1,1]","[-0.08611045000326079,0.12161232010773468]","[1,1,1]","[-0.10353429924692752,-0.16378605634823704]","[1,1,1]","[0.10727564764692493,0.0702293998882956]","[1,1,1]","[0.14095218329092804,0.13618106836952923]","[-1,-1,-1]","[-0.19265314391591332,0.008390756505029845]","[-1,-1,-1]","[0.06014641763477174,-0.042111292986094506]","[1,1,1]","[0.02,0.02]",175.8118,0,25,25,206,1,,,,,,,
,,,,,,,67ad9281b4a4d68f2f055a7b,682db3af839f1404b4bbb7e6,2025-05-21_13h13.58.411,cuing_paradigm_dot,2024.1.5,Win32,59.88023952,682d556593cb38ad0a074487,,,,,,,,,,,175.8126,176.3116,,,176.5628,176.9441,left,0.3552,,,,,,,,,0.55,,,,,,176.3117,176.5627,176.9441,"[0.14206695097035857,-0.14047707353252853]","[-1,-1,-1]","[-0.06515574300128005,-0.14036848109543112]","[1,1,1]","[-0.19047580559478125,0.001847589939816243]","[1,1,1]","[0.021615953324366714,-0.11882019946540603]","[-1,-1,-1]","[0.00037955570978387497,0.18189899504160803]","[1,1,1]","[0.17451671287679274,0.05011272562234958]","[1,1,1]","[-0.1299618839589389,0.05754934580704405]","[-1,-1,-1]","[-0.09707384761621926,-0.08254029086042006]","[1,1,1]","[0.13041650079396644,0.09189294829894785]","[1,1,1]","[0.00697460799455797,-0.012879755070225395]","[1,1,1]","[0.06864187857925594,0.041113705221489966]","[1,1,1]","[-0.1326215966600925,-0.012582514464268897]","[1,1,1]","[0.005775632847730019,-0.16850597417749702]","[-1,-1,-1]","[0.08705586925869224,-0.03495671094714714]","[-1,-1,-1]","[0.012316019233667755,0.03968570906145498]","[-1,-1,-1]","[0.15830119892125932,-0.0277040889212866]","[-1,-1,-1]","[0.18854963107453265,0.0006718044630106213]","[1,1,1]","[-0.0292652924891012,0.02024812812692439]","[1,1,1]","[0.07242282276368114,0.12383457523328556]","[1,1,1]","[-0.06506699336676537,0.052175212596556005]","[1,1,1]","[-0.14616449569379672,0.12809460255661584]","[-1,-1,-1]","[0.08592972372491947,0.08504163644133488]","[1,1,1]","[-0.15933448691179872,-0.06617485909021562]","[1,1,1]","[0.07213710606231816,-0.11620407877944391]","[1,1,1]","[-0.08629700944990683,0.017666967900698376]","[-1,-1,-1]","[-0.0498197388958718,-0.019552627690603293]","[-1,-1,-1]","[0.11698531284804795,0.15885451756713906]","[-1,-1,-1]","[-0.029930499622094386,0.07905486953410348]","[-1,-1,-1]","[0.12451239126383848,0.02687017487464015]","[-1,-1,-1]","[-0.05457827617243097,0.1883448050247075]","[-1,-1,-1]","[-0.04368486437453043,-0.10350750395881034]","[1,1,1]","[0.17339781160102122,-0.06864702049868222]","[1,1,1]","[0.02,0.02]",178.0449,0,26,26,143,1,,,,,,,
,,,,,,,67ad9281b4a4d68f2f055a7b,682db3af839f1404b4bbb7e6,2025-05-21_13h13.58.411,cuing_paradigm_dot,2024.1.5,Win32,59.88023952,682d556593cb38ad0a074487,,,,,,,,,,,178.046,178.545,,,178.7953,179.2616,left,0.4584,,,,,,,,,0.45,,,,,,178.5451,178.7951,179.2617,"[-0.0060945567960464546,0.00331673025067116]","[1,1,1]","[-0.04000235644096,0.12854803518355004]","[-1,-1,-1]","[-0.003329105174941054,-0.19263275869517346]","[-1,-1,-1]","[-0.035202340536661804,0.039965107441019554]","[-1,-1,-1]","[0.09412503430843656,-0.011552989915497053]","[-1,-1,-1]","[0.1010938690052657,0.10598259362562759]","[-1,-1,-1]","[-0.12987020538496385,-0.008307888477377751]","[1,1,1]","[0.03375923870467956,0.1640894000414479]","[1,1,1]","[0.09314879142799412,0.059334845888542403]","[-1,-1,-1]","[-0.08057853816197398,0.17604612912717912]","[-1,-1,-1]","[-0.08272406909093283,-0.06574059917826192]","[1,1,1]","[0.02134951107577507,-0.04135729456077047]","[-1,-1,-1]","[-0.15033667099526812,-0.09188796220350597]","[1,1,1]","[0.13197378197782772,-0.10876841839924]","[-1,-1,-1]","[0.09050610334570772,0.17374464839715403]","[1,1,1]","[-0.0907335311359804,0.11396691921265122]","[1,1,1]","[-0.03185049018051202,-0.06160748823519805]","[1,1,1]","[-0.14708242935669272,0.09156238174217589]","[-1,-1,-1]","[0.17842397511439553,-0.07420071971702764]","[-1,-1,-1]","[0.11861485317018652,-0.05242689642763958]","[1,1,1]","[0.04896896377297376,-0.01106114689935531]","[1,1,1]","[-0.07900117348897154,-0.15596351855804105]","[1,1,1]","[-0.0580341789879552,-0.11609813176471645]","[-1,-1,-1]","[0.17725526490331772,-0.0024339286349187735]","[1,1,1]","[-0.10463501166327287,-0.10544207572579123]","[-1,-1,-1]","[0.08446359552734044,-0.13025428881796383]","[-1,-1,-1]","[0.018776856051266593,-0.15906283148423797]","[-1,-1,-1]","[0.01528334789280293,0.0850660294149881]","[-1,-1,-1]","[0.05734955220328321,0.034646835414479424]","[1,1,1]","[0.06462261927912036,-0.04958480261942573]","[-1,-1,-1]","[-0.035646773768213194,0.08108984889355081]","[-1,-1,-1]","[-0.006471552716520924,-0.1043092164531534]","[1,1,1]","[0.02,0.02]",180.3613,0,27,27,82,1,,,,,,,
,,,,,,,67ad9281b4a4d68f2f055a7b,682db3af839f1404b4bbb7e6,2025-05-21_13h13.58.411,cuing_paradigm_dot,2024.1.5,Win32,59.88023952,682d556593cb38ad0a074487,,,,,,,,,,,180.3622,180.8615,,,181.1124,181.4944,left,0.3712,,,,,,,,,0.1,,,,,,180.8617,181.1124,181.4944,"[0.07834104881408538,-0.17394849737988352]","[-1,-1,-1]","[-0.05656017598869381,-0.13102489579896628]","[-1,-1,-1]","[-0.03862365138423146,0.008080945389310555]","[-1,-1,-1]","[0.09336305089508332,0.03427694809847765]","[-1,-1,-1]","[0.14934011026435054,0.09693872964826031]","[-1,-1,-1]","[-0.09858169268893194,0.08029149320604706]","[-1,-1,-1]","[-0.07245340229778309,-0.018136625680520685]","[-1,-1,-1]","[0.07325531856295596,-0.07281645497853999]","[-1,-1,-1]","[0.05887440383830488,-0.003368267973195654]","[1,1,1]","[0.15892936122761325,0.03619182559783891]","[-1,-1,-1]","[-0.11888201617560144,-0.14528774031419708]","[-1,-1,-1]","[-0.01950651649391279,-0.09727140897305048]","[1,1,1]","[0.001064539189205437,0.06251216223964703]","[-1,-1,-1]","[-0.08652796571298188,0.14100353629749868]","[-1,-1,-1]","[-0.14142096512850494,0.12479013572366981]","[-1,-1,-1]","[0.030572150651478478,0.17238382956659032]","[-1,-1,-1]","[-0.11239184996960407,-0.0861200755827265]","[-1,-1,-1]","[-0.0010024651272454758,0.10504188460336682]","[-1,-1,-1]","[-0.007818562912811454,-0.14047615565684898]","[-1,-1,-1]","[0.1201964859149818,0.13783395465356935]","[-1,-1,-1]","[-0.07037237095077652,0.0334711296265505]","[-1,-1,-1]","[0.12438056562317136,-0.0790522667436459]","[-1,-1,-1]","[0.14710557260745252,-0.004990322288505413]","[-1,-1,-1]","[0.07715416446881616,0.10862717586598324]","[-1,-1,-1]","[-0.061106826157988556,-0.06992830385465068]","[-1,-1,-1]","[0.03942633147179658,-0.1105083890723177]","[1,1,1]","[-0.1806593199699191,0.006841496350462134]","[-1,-1,-1]","[-0.16802687489489673,-0.09291620140466963]","[-1,-1,-1]","[0.1964576604185423,0.01076036578370938]","[-1,-1,-1]","[-0.00046542135086811385,-0.011540443643073665]","[-1,-1,-1]","[-0.054053627583206434,0.10259939218397147]","[-1,-1,-1]","[0.1767143024137915,-0.08933861000858948]","[-1,-1,-1]","[0.02,0.02]",182.595,0,28,28,10,1,,,,,,,
,,,,,,,67ad9281b4a4d68f2f055a7b,682db3af839f1404b4bbb7e6,2025-05-21_13h13.58.411,cuing_paradigm_dot,2024.1.5,Win32,59.88023952,682d556593cb38ad0a074487,,,,,,,,,,,182.5957,183.095,,,183.3456,183.8287,right,0.4756,,,,,,,,,0.55,,,,,,183.095,183.3456,183.8287,"[-0.04980437034619238,0.029378206602110914]","[1,1,1]","[0.10237814082747433,-0.16425475060058622]","[-1,-1,-1]","[-0.12847797189845017,0.03166793711418012]","[1,1,1]","[-0.04379647527019424,-0.01590025018483222]","[-1,-1,-1]","[-0.022883922768259346,0.17028232784345645]","[1,1,1]","[0.11113133725347606,0.13674680604791817]","[-1,-1,-1]","[-0.0953533305066675,0.12940403214410598]","[1,1,1]","[-0.14906236985776788,-0.12370609595264127]","[1,1,1]","[-0.17836460172715443,-0.05954892122706795]","[1,1,1]","[-0.05378114162668199,-0.14246047740877565]","[1,1,1]","[0.07517264765522856,0.08902697408430907]","[1,1,1]","[0.00155151868140724,-0.1853744682792733]","[1,1,1]","[-0.05051174093917053,0.0703687913120416]","[-1,-1,-1]","[0.04955481707187446,0.00000290774750504945]","[1,1,1]","[-0.09006530275707901,-0.1074422329864052]","[-1,-1,-1]","[-0.028140654133330043,0.11800366395097121]","[-1,-1,-1]","[0.17023567176893983,0.0029578898821237673]","[1,1,1]","[-0.15582589785799153,0.07973845784542835]","[-1,-1,-1]","[-0.03362850867349404,-0.0829402672316232]","[-1,-1,-1]","[-0.16903848738776814,-0.011136867479769226]","[-1,-1,-1]","[0.12989380231161357,0.09437943428606056]","[-1,-1,-1]","[0.023627431798977323,-0.057887795208297455]","[1,1,1]","[0.08421733247276375,-0.07506428450575355]","[-1,-1,-1]","[0.10990406344777648,-0.018916592934455183]","[-1,-1,-1]","[0.1836332984809612,-0.03989086995639639]","[1,1,1]","[0.03767083609909829,-0.09668670023924346]","[1,1,1]","[0.06979825334821281,0.13426561105873766]","[1,1,1]","[0.06249231265821202,-0.14972200933264215]","[-1,-1,-1]","[0.1579280370708902,0.060993213308192136]","[1,1,1]","[0.1335724182863287,-0.05183969865942681]","[-1,-1,-1]","[-0.07346715807630486,0.17359987414768838]","[1,1,1]","[-0.008354113979260468,-0.13976019103100745]","[1,1,1]","[0.02,0.02]",184.928,0,29,29,140,1,,,,,,,
,,,,,,,67ad9281b4a4d68f2f055a7b,682db3af839f1404b4bbb7e6,2025-05-21_13h13.58.411,cuing_paradigm_dot,2024.1.5,Win32,59.88023952,682d556593cb38ad0a074487,,,,,,,,,,,184.9287,185.4283,,,185.6782,186.0953,right,0.3851,,,,,,,,,0.55,,,,,,185.4284,185.6782,186.0955,"[-0.07111684582980535,0.05302419819340771]","[-1,-1,-1]","[0.15018910132066973,-0.05383571170437075]","[-1,-1,-1]","[0.05245763289200128,0.08163704651429778]","[-1,-1,-1]","[0.027070800781496315,-0.07563374167672857]","[1,1,1]","[-0.16727878638845903,0.05061590753500761]","[1,1,1]","[0.09532895113149237,-0.09883635960748907]","[1,1,1]","[0.17343234844282387,0.01991411106063715]","[1,1,1]","[0.0004021197571895528,-0.11805379888175446]","[-1,-1,-1]","[0.0213795873849194,0.01591364947379924]","[-1,-1,-1]","[-0.07545420828701346,-0.10403566802710777]","[-1,-1,-1]","[-0.07756668473965016,0.16137552025262988]","[1,1,1]","[0.15023501227754466,0.08226743187723277]","[1,1,1]","[0.03725894623756654,-0.1497363884746456]","[1,1,1]","[-0.0372940295571771,-0.15516419537482984]","[-1,-1,-1]","[-0.1081708452038698,-0.14665610591585945]","[1,1,1]","[-0.1909364542451784,-0.003205894120643929]","[1,1,1]","[-0.11844804732122578,-0.10729335851195342]","[-1,-1,-1]","[-0.023671214866115328,0.18947672040989277]","[-1,-1,-1]","[-0.1425993464949139,-0.04942509773900035]","[-1,-1,-1]","[-0.01538714462716115,-0.0437581743002901]","[-1,-1,-1]","[0.16346224468141857,-0.10318607765034742]","[1,1,1]","[0.09734278631475796,-0.046076688325039625]","[-1,-1,-1]","[0.057774941730907296,-0.19051872999519104]","[1,1,1]","[0.09159492609940167,0.13102622061187721]","[1,1,1]","[-0.12107103602322714,-0.012224674176649922]","[1,1,1]","[0.08918931276212408,0.04519165582991796]","[1,1,1]","[-0.04280624475745296,0.011410535076004407]","[1,1,1]","[-0.037654371160132906,0.11218883429206294]","[1,1,1]","[-0.1376799012779886,0.09727985218786867]","[1,1,1]","[0.03192867483957849,0.18157369033709794]","[-1,-1,-1]","[0.05620554021927449,-0.10751404498339817]","[-1,-1,-1]","[-0.015106532267341002,0.14847741492966993]","[1,1,1]","[0.02,0.02]",187.1945,0,30,30,133,1,,,,,,,
,,,,,,,67ad9281b4a4d68f2f055a7b,682db3af839f1404b4bbb7e6,2025-05-21_13h13.58.411,cuing_paradigm_dot,2024.1.5,Win32,59.88023952,682d556593cb38ad0a074487,,,,,,,,,,,187.1951,187.6945,,,187.9358,188.3115,left,0.3624,,,,,,,,,0.4,,,,,,187.6945,187.9357,188.3116,"[-0.12164990308719792,0.14528789362541542]","[-1,-1,-1]","[-0.08597049400310186,-0.13126258155783196]","[1,1,1]","[0.05550515596041842,0.00788025702373156]","[-1,-1,-1]","[-0.1261601745299053,-0.0625533676659997]","[-1,-1,-1]","[-0.051611453112473824,0.05637001715306865]","[-1,-1,-1]","[-0.011518919010970184,-0.02131886552900942]","[-1,-1,-1]","[-0.08850775150306232,-0.009864727698151419]","[1,1,1]","[-0.03636062389725468,0.010940624753604277]","[-1,-1,-1]","[-0.12045876345645593,0.05353864110374505]","[-1,-1,-1]","[-0.0886501592580767,0.08291325954549551]","[1,1,1]","[0.030969787052216632,0.12317718261459125]","[1,1,1]","[0.0475991040346759,-0.07356767812857083]","[1,1,1]","[0.14260246845061486,-0.13994309429095966]","[-1,-1,-1]","[0.07821770348909908,-0.17218389980341187]","[-1,-1,-1]","[-0.17054974951407298,-0.06435073899687992]","[1,1,1]","[0.07197069435668531,-0.13256023943012732]","[-1,-1,-1]","[0.1743004664263352,0.0702642324336375]","[-1,-1,-1]","[0.11183582240855917,0.08579216591782392]","[-1,-1,-1]","[0.13004023102037712,0.008324379218737112]","[1,1,1]","[0.011590845920533192,0.01792460032045554]","[-1,-1,-1]","[0.015795071230948667,0.06748875791248939]","[1,1,1]","[-0.1634100402901126,0.004469208771369233]","[-1,-1,-1]","[-0.0157850491074573,0.12414737641995945]","[-1,-1,-1]","[0.16761442521833836,-0.03602683032255868]","[1,1,1]","[-0.04203648427425823,-0.14178603375096913]","[-1,-1,-1]","[0.07474032186491,0.16474671008670255]","[1,1,1]","[0.061394503231970245,0.05647511366485115]","[1,1,1]","[0.18383298602968015,0.029531185888055797]","[-1,-1,-1]","[0.10549903485007857,-0.03412445157819727]","[-1,-1,-1]","[0.14729249933203972,-0.07633770814469118]","[-1,-1,-1]","[-0.08246738661644863,-0.07305896665646723]","[1,1,1]","[-0.006910366888890469,-0.18469145789917724]","[1,1,1]","[0.02,0.02]",189.4117,0,31,31,51,1,,,,,,,
,,,,,,,67ad9281b4a4d68f2f055a7b,682db3af839f1404b4bbb7e6,2025-05-21_13h13.58.411,cuing_paradigm_dot,2024.1.5,Win32,59.88023952,682d556593cb38ad0a074487,,,,,,,,,,,189.4124,189.9113,,,190.162,190.5951,right,0.401,,,,,,,,,0.5,,,,,,189.9114,190.1619,190.5953,"[-0.1712504363803562,0.03350757715566589]","[1,1,1]","[0.06182012833454552,-0.14058143220082117]","[-1,-1,-1]","[-0.12861320017585898,-0.10148989626638051]","[-1,-1,-1]","[0.14202648008224175,0.060925256007778865]","[1,1,1]","[0.13395717595125636,0.13983213507130235]","[1,1,1]","[-0.07426739104752063,0.005865171209180329]","[-1,-1,-1]","[0.11994982338668222,0.005334604207633457]","[-1,-1,-1]","[0.13715044647593483,-0.11646185868402135]","[1,1,1]","[-0.11016367214284757,0.04960151697310917]","[1,1,1]","[-0.06111163330154845,0.06936653363450179]","[1,1,1]","[0.07796218733440947,0.15598169458243208]","[1,1,1]","[-0.05757103147739801,-0.06081337602295775]","[1,1,1]","[0.029545084637233814,0.007671583443340612]","[1,1,1]","[0.06542759509129441,-0.07700861692894]","[1,1,1]","[0.04208327438031803,0.06598187349855171]","[1,1,1]","[0.025296201999885203,-0.1141654617025658]","[1,1,1]","[-0.00602823968223598,-0.020205164429270193]","[-1,-1,-1]","[0.1302727077027156,-0.05752243100357735]","[-1,-1,-1]","[-0.11705217147267508,0.12410899739652459]","[-1,-1,-1]","[-0.08212702823442436,0.16284523830156508]","[-1,-1,-1]","[-0.054315006459398796,-0.17148779203415476]","[-1,-1,-1]","[-0.10262110258855715,-0.057514115512392286]","[-1,-1,-1]","[0.017758696093544933,0.19460313669238485]","[1,1,1]","[0.17558323886609048,-0.015968784885535138]","[-1,-1,-1]","[-0.02693797130147864,0.12016952048363923]","[1,1,1]","[-0.07169212787743347,-0.13426074110939742]","[-1,-1,-1]","[-0.1191078627577818,-0.010106202507253295]","[-1,-1,-1]","[-0.13798767005377702,-0.14383986177943084]","[-1,-1,-1]","[0.024612913034289436,-0.05054975587718293]","[-1,-1,-1]","[0.016885950264434284,0.13623280575225682]","[1,1,1]","[0.0002606694464781856,0.04583284075521205]","[-1,-1,-1]","[-0.01910259135406012,-0.125204323613991]","[1,1,1]","[0.02,0.02]",191.6942,0,32,32,111,1,,,,,,,
,,,,,,,67ad9281b4a4d68f2f055a7b,682db3af839f1404b4bbb7e6,2025-05-21_13h13.58.411,cuing_paradigm_dot,2024.1.5,Win32,59.88023952,682d556593cb38ad0a074487,,,,,,,,,,,191.6947,192.1942,,,192.4451,192.9123,left,0.4391,,,,,,,,,0.45,,,,,,192.1942,192.445,192.9125,"[0.09855721729580456,0.17234613394781476]","[-1,-1,-1]","[-0.0647161887714048,0.16230249891846546]","[1,1,1]","[0.07161628956134519,-0.06952010147013028]","[1,1,1]","[0.0690293911324252,-0.1502941361558105]","[-1,-1,-1]","[0.13350626068481708,0.0526603437994976]","[-1,-1,-1]","[-0.11594607723462715,0.009937948753003174]","[-1,-1,-1]","[0.17989579015959567,-0.016643272759056454]","[1,1,1]","[-0.016429687020474953,0.11626857454871649]","[-1,-1,-1]","[-0.17520212756127254,-0.08421579465200847]","[1,1,1]","[-0.009125855977325298,-0.1787526678468477]","[-1,-1,-1]","[-0.10721688824971082,-0.12283385470268318]","[-1,-1,-1]","[-0.042694821379291134,0.03481518741581411]","[1,1,1]","[0.0008044998622095381,-0.13668040294754638]","[1,1,1]","[0.18293919197627292,0.0792489465552226]","[1,1,1]","[-0.06462571753245126,-0.1663605014643931]","[1,1,1]","[0.011189483534180712,0.178782359651253]","[-1,-1,-1]","[0.039672136596574425,-0.008048889297519093]","[-1,-1,-1]","[-0.1403726455789319,-0.028718875905403778]","[-1,-1,-1]","[-0.07906201974653197,0.09708197944805429]","[1,1,1]","[-0.027510805597802994,-0.029064953629281614]","[-1,-1,-1]","[-0.012725620509444162,-0.09474120955966703]","[-1,-1,-1]","[-0.19663348066507705,-0.006943482540968311]","[-1,-1,-1]","[0.07976026239838366,-0.02988666368825346]","[-1,-1,-1]","[0.0856304132848193,0.0991721739405293]","[-1,-1,-1]","[-0.16886475846667273,0.07142529510921562]","[1,1,1]","[-0.11018316449329413,-0.08021544112383584]","[-1,-1,-1]","[0.14827731209977646,-0.047160492353989586]","[-1,-1,-1]","[-0.05262285584401558,-0.11917870205121336]","[1,1,1]","[0.1433156395764478,0.105660491266808]","[1,1,1]","[0.060646668018232014,0.13398831201071276]","[-1,-1,-1]","[0.11707406811606796,-0.10270032388073765]","[1,1,1]","[0.10680542003859321,0.011518128533445459]","[1,1,1]","[0.02,0.02]",194.011,0,33,33,66,1,,,,,,,
,,,,,,,67ad9281b4a4d68f2f055a7b,682db3af839f1404b4bbb7e6,2025-05-21_13h13.58.411,cuing_paradigm_dot,2024.1.5,Win32,59.88023952,682d556593cb38ad0a074487,,,,,,,,,,,194.0122,194.5109,,,194.7616,195.0942,right,0.3219,,,,,,,,,0.4,,,,,,194.5109,194.7614,195.0942,"[-0.006524425409550327,-0.15889466155500984]","[-1,-1,-1]","[0.10642682330485824,-0.165224654013115]","[1,1,1]","[0.11403630288625476,-0.017081976210602635]","[-1,-1,-1]","[0.11329798480766635,-0.09725907868497286]","[1,1,1]","[-0.05270181016663322,0.03900459995686422]","[-1,-1,-1]","[-0.11976506711378491,0.0501224540375605]","[-1,-1,-1]","[0.007728861798302765,0.15775086672774027]","[1,1,1]","[-0.033428599377538275,0.16208439058096422]","[-1,-1,-1]","[-0.10607517936275465,-0.15226586509190662]","[1,1,1]","[0.05155637726503018,0.16123929964825304]","[-1,-1,-1]","[0.11441612958643738,-0.057216712995166404]","[-1,-1,-1]","[0.02848340863019972,0.09348766042637402]","[1,1,1]","[-0.07758252664284918,-0.09183641444114284]","[-1,-1,-1]","[-0.08031400770725683,-0.04499773218124005]","[1,1,1]","[0.17343741347065147,-0.05427693054171054]","[-1,-1,-1]","[0.05695926973705847,0.04662008201931626]","[1,1,1]","[0.0660856508607251,-0.017718511080577933]","[-1,-1,-1]","[0.18212810384094255,0.07557931137452739]","[-1,-1,-1]","[-0.062189147918505196,-0.13904007331164114]","[1,1,1]","[-0.11434760210649791,0.13156954198054363]","[-1,-1,-1]","[-0.1743864352670749,0.04561128157047235]","[1,1,1]","[-0.10680594122988007,-0.0005582443500134019]","[1,1,1]","[-0.1893432265492271,-0.0007322093974371927]","[-1,-1,-1]","[0.005983839904083077,-0.06978431129019366]","[1,1,1]","[-0.04334917346128595,0.10370208772966563]","[1,1,1]","[0.03455563801552606,-0.13681699706132144]","[1,1,1]","[-0.1503864609479484,0.08722568416624361]","[-1,-1,-1]","[0.024350065409615918,-0.00854510538514233]","[-1,-1,-1]","[0.1298612682433036,0.03767368014482655]","[-1,-1,-1]","[-0.13413082765885936,-0.11812788464411039]","[-1,-1,-1]","[-0.039905414068692864,-0.19432027055343667]","[-1,-1,-1]","[-0.03039366141987729,-0.10732729386314584]","[-1,-1,-1]","[0.02,0.02]",196.195,0,34,34,46,1,,,,,,,
,,,,,,,67ad9281b4a4d68f2f055a7b,682db3af839f1404b4bbb7e6,2025-05-21_13h13.58.411,cuing_paradigm_dot,2024.1.5,Win32,59.88023952,682d556593cb38ad0a074487,,,,,,,,,,,196.1958,196.6942,,,196.945,197.212,right,0.2591,,,,,,,,,0.4,,,,,,196.6943,196.9448,197.2121,"[-0.15109377547703712,-0.008071454259344711]","[1,1,1]","[-0.06800329817558297,-0.1324102518770241]","[1,1,1]","[0.03186283689511934,0.08458372350952412]","[1,1,1]","[0.1058958585080665,0.16254790832007057]","[-1,-1,-1]","[-0.002685127319897579,0.046667213515888345]","[1,1,1]","[0.049266923293075804,-0.034554196655106166]","[-1,-1,-1]","[-0.02081581321363,0.1525215279331767]","[1,1,1]","[0.11463801504116203,-0.12017171073843004]","[-1,-1,-1]","[-0.11842963572650901,0.05976622723016528]","[-1,-1,-1]","[0.0610235665775851,-0.13453883027374083]","[-1,-1,-1]","[-0.003759991016993248,-0.055999726900605604]","[-1,-1,-1]","[0.1551957681245753,-0.08339324858736488]","[-1,-1,-1]","[-0.1362972089175849,0.10389057509832064]","[1,1,1]","[0.12444162652380202,0.03838071778908977]","[-1,-1,-1]","[-0.1623562750007732,0.04711068644483235]","[-1,-1,-1]","[0.15257909671110817,0.07679153015846292]","[1,1,1]","[-0.07166329384418062,-0.07356406271779943]","[-1,-1,-1]","[0.07102944593892731,-0.18044981337349783]","[-1,-1,-1]","[0.07292459311929622,0.045514754181296004]","[1,1,1]","[-0.07234767458987691,0.08740534833341178]","[-1,-1,-1]","[-0.14649349701498376,-0.04913027189572931]","[1,1,1]","[-0.006683088695532408,0.11095685286406151]","[1,1,1]","[-0.12228729535413398,-0.09382118196178788]","[-1,-1,-1]","[-0.04413305820832416,-0.17752823711395413]","[-1,-1,-1]","[0.06494216850652078,0.17086563682239836]","[-1,-1,-1]","[-0.07017589645479184,-0.03307457908403668]","[-1,-1,-1]","[0.007334609571819889,0.00296229784331014]","[-1,-1,-1]","[0.10272530786122316,-0.008298584568891893]","[1,1,1]","[0.14814436560316782,-0.016820784074836986]","[-1,-1,-1]","[-0.11243955576090915,-0.14662192630448365]","[1,1,1]","[-0.11027862470001734,-0.02643163816123197]","[1,1,1]","[0.025385894688970435,0.18791112474697053]","[-1,-1,-1]","[0.02,0.02]",198.3112,0,35,35,53,1,,,,,,,
,,,,,,,67ad9281b4a4d68f2f055a7b,682db3af839f1404b4bbb7e6,2025-05-21_13h13.58.411,cuing_paradigm_dot,2024.1.5,Win32,59.88023952,682d556593cb38ad0a074487,,,,,,,,,,,198.3121,198.8111,,,199.0617,199.4123,left,0.3427,,,,,,,,,0.1,,,,,,198.8112,199.0616,199.4124,"[-0.055426020889682,0.03438926579060244]","[-1,-1,-1]","[0.02748294953397805,0.10366692121621453]","[-1,-1,-1]","[-0.03373999309222298,0.0780872784100889]","[-1,-1,-1]","[0.08650765589454705,0.09342515663528819]","[-1,-1,-1]","[-0.04360267128559324,-0.17851632697033407]","[-1,-1,-1]","[-0.09846118344806853,0.0934614692040272]","[-1,-1,-1]","[0.15079978416455184,0.07901049878734752]","[-1,-1,-1]","[0.059787905998287934,0.05223157455206217]","[-1,-1,-1]","[-0.1296173665567779,0.12701524139047687]","[-1,-1,-1]","[0.0009445660227944337,0.16807308652003636]","[-1,-1,-1]","[0.14088397277147066,-0.11502898354247608]","[-1,-1,-1]","[-0.10994367907842603,-0.04683619291392043]","[1,1,1]","[0.03807800477987794,-0.1307750728391293]","[-1,-1,-1]","[0.03194352214614493,-0.0554769870582093]","[-1,-1,-1]","[0.15711401492429986,-0.05278669182464524]","[-1,-1,-1]","[-0.18155476544419058,-0.01574834016601445]","[-1,-1,-1]","[-0.03022878492118615,-0.053664729602903666]","[-1,-1,-1]","[0.06828500236736434,-0.003877241183413107]","[1,1,1]","[0.05548910896147395,-0.1864485232992993]","[-1,-1,-1]","[-0.13714756721884758,0.04230219724014905]","[-1,-1,-1]","[-0.17781979958245997,0.045576992188351824]","[-1,-1,-1]","[0.13069448708886436,0.13710187465460794]","[-1,-1,-1]","[-0.14740419846503233,-0.09829390070332397]","[-1,-1,-1]","[0.1483905657344462,0.002546887971771496]","[-1,-1,-1]","[0.09560400463647742,0.17517189246101492]","[1,1,1]","[0.05619536020767869,0.15293414763323412]","[-1,-1,-1]","[0.11227608970316814,-0.0721215072476095]","[-1,-1,-1]","[-0.1757033954972175,-0.05602736967408034]","[-1,-1,-1]","[-0.03502872882536542,0.1390551242257905]","[-1,-1,-1]","[-0.0435042026145381,0.18075533523662915]","[-1,-1,-1]","[-0.08916582657814238,-0.15052054993092115]","[-1,-1,-1]","[0.009331171608300382,-0.01902134132265231]","[-1,-1,-1]","[0.02,0.02]",200.5119,0,36,36,27,1,,,,,,,
,,,,,,,67ad9281b4a4d68f2f055a7b,682db3af839f1404b4bbb7e6,2025-05-21_13h13.58.411,cuing_paradigm_dot,2024.1.5,Win32,59.88023952,682d556593cb38ad0a074487,,,,,,,,,,,200.5125,201.0113,,,201.2621,201.728,right,0.4367,,,,,,,,,0.55,,,,,,201.0113,201.2621,201.728,"[-0.06124982112581231,-0.09399507854504313]","[1,1,1]","[0.05735285185297567,-0.18040483016067232]","[-1,-1,-1]","[0.08727768698933294,-0.011979252581575115]","[-1,-1,-1]","[-0.1605160184569796,0.09013134116671129]","[1,1,1]","[-0.0745146005267506,0.0618386351052876]","[1,1,1]","[0.13950305531834312,-0.062623085871584]","[1,1,1]","[0.19364809819188725,-0.021237975067598842]","[-1,-1,-1]","[0.10853357372281255,0.09073020101262945]","[1,1,1]","[-0.0330032141014828,-0.1617215734166259]","[-1,-1,-1]","[0.009932016294582343,-0.05217114131134657]","[-1,-1,-1]","[-0.03160848147224748,0.10513462875206529]","[-1,-1,-1]","[0.060413005189386935,0.13725701007952548]","[1,1,1]","[-0.16739877261090608,0.00400065145839892]","[-1,-1,-1]","[0.12567020110425994,-0.1510902076867073]","[-1,-1,-1]","[0.18373766474059725,0.019563751725311485]","[1,1,1]","[0.014024637586748611,-0.1360615039588195]","[1,1,1]","[-0.0801742158224202,-0.047021255396571385]","[-1,-1,-1]","[0.11379887829466824,0.03433776204358184]","[1,1,1]","[0.03732665304654301,0.06000384621763306]","[1,1,1]","[-0.07810148748929609,0.018454507687805374]","[1,1,1]","[0.010533174356287214,0.16330453183102547]","[-1,-1,-1]","[-0.1240223137533031,-0.14129003814563362]","[1,1,1]","[-0.10333996227867034,-0.0973311201161187]","[-1,-1,-1]","[-0.14022631391310234,-0.03205905587327406]","[1,1,1]","[-0.02948797185144772,-0.040542848477393235]","[-1,-1,-1]","[0.143733359009991,-0.11145761353445897]","[1,1,1]","[0.17111221096826743,0.08135927282596486]","[1,1,1]","[0.09392169194601029,-0.0634961345480855]","[1,1,1]","[0.017492035065643223,-0.19556042125841644]","[-1,-1,-1]","[0.0385121655868543,-0.08294057898499152]","[1,1,1]","[-0.12002156144594661,0.138527669010817]","[1,1,1]","[0.12832821409602177,-0.010306938914339276]","[-1,-1,-1]","[0.02,0.02]",202.8284,0,37,37,144,1,,,,,,,
,,,,,,,67ad9281b4a4d68f2f055a7b,682db3af839f1404b4bbb7e6,2025-05-21_13h13.58.411,cuing_paradigm_dot,2024.1.5,Win32,59.88023952,682d556593cb38ad0a074487,,,,,,,,,,,202.8292,203.3277,,,203.5857,204.0451,right,0.4454,,,,,,,,,0.45,,,,,,203.3278,203.5857,204.0452,"[0.1115917410214682,0.13765993934722343]","[-1,-1,-1]","[-0.0026137540224737926,-0.12129832033555071]","[-1,-1,-1]","[0.07434828536786668,-0.006583601999347425]","[1,1,1]","[0.1789904733702028,-0.0360330169120133]","[1,1,1]","[0.01177441848685184,0.0736215853718633]","[1,1,1]","[0.058580722530314135,0.18970389566712725]","[1,1,1]","[-0.1298107680268613,-0.09817455382580124]","[1,1,1]","[-0.03991399431058626,-0.023417976997518217]","[-1,-1,-1]","[-0.15191083696897306,-0.016467300936193856]","[1,1,1]","[-0.056539443575436686,0.1905174017830975]","[1,1,1]","[-0.06434187053965394,-0.06869979984958129]","[-1,-1,-1]","[-0.16926370107601424,-0.0783454759487552]","[-1,-1,-1]","[-0.08088301461634524,0.11089881939078704]","[-1,-1,-1]","[0.07473623745420903,-0.13786355771701178]","[-1,-1,-1]","[-0.01517389831583249,-0.1906925658343272]","[-1,-1,-1]","[-0.12888040398559417,-0.1525127853449141]","[-1,-1,-1]","[-0.0730228345430339,0.03600523119475176]","[-1,-1,-1]","[0.05505936798083679,0.06777816126430879]","[1,1,1]","[-0.16364143319379615,0.02294254940017146]","[1,1,1]","[0.12075107582477733,-0.13820935959413766]","[1,1,1]","[0.13218299193625963,0.07372892780759592]","[-1,-1,-1]","[-0.14909542140639795,0.10277131216959891]","[-1,-1,-1]","[-0.03026046267872618,0.08108978063334438]","[-1,-1,-1]","[0.013551614815367971,0.02770049850366839]","[-1,-1,-1]","[-0.043324547943329524,0.13059329072902998]","[1,1,1]","[0.04320507860458356,-0.08505594470350136]","[-1,-1,-1]","[0.09990493879501519,0.02661978778135949]","[1,1,1]","[0.04412825127379824,0.12279657393086371]","[1,1,1]","[-0.0015306748085513217,0.19609261216404958]","[-1,-1,-1]","[0.13158407708165865,-0.08011311987587313]","[1,1,1]","[0.14367742930680838,0.00415364868295635]","[-1,-1,-1]","[0.18507511452357858,0.0633885470325959]","[-1,-1,-1]","[0.02,0.02]",205.145,0,38,38,78,1,,,,,,,
,,,,,,,67ad9281b4a4d68f2f055a7b,682db3af839f1404b4bbb7e6,2025-05-21_13h13.58.411,cuing_paradigm_dot,2024.1.5,Win32,59.88023952,682d556593cb38ad0a074487,,,,,,,,,,,205.1457,205.6454,,,205.895,206.2786,left,0.3742,,,,,,,,,0.55,,,,,,205.6455,205.8948,206.2787,"[-0.0814753880439128,0.008309867751937722]","[-1,-1,-1]","[-0.02489736903517236,0.07202651294310942]","[1,1,1]","[0.045709913988495325,-0.15813186544610508]","[-1,-1,-1]","[0.07444673629582325,-0.038949220343658685]","[1,1,1]","[0.04463291730092378,0.1452409093628415]","[1,1,1]","[0.00024284200144886339,-0.17233544489525374]","[1,1,1]","[-0.08432561749468005,-0.12825695573868565]","[-1,-1,-1]","[-0.1080568700658299,0.16182135530924716]","[-1,-1,-1]","[-0.17620262158830455,-0.021219548397550105]","[1,1,1]","[-0.1739834819606857,0.07585123751503227]","[1,1,1]","[0.12246089473763873,-0.06263935332996312]","[-1,-1,-1]","[0.08475144020884906,0.10914972511971713]","[1,1,1]","[0.17731868392442182,-0.06409357216682443]","[-1,-1,-1]","[0.12028949626492162,-0.008060051989565163]","[-1,-1,-1]","[0.10770521727587269,-0.15852068924434295]","[1,1,1]","[-0.13316558036290202,0.062693450172898]","[-1,-1,-1]","[-0.11483908610264096,-0.06741373822007328]","[-1,-1,-1]","[0.06518734852710713,-0.11124678285306946]","[1,1,1]","[0.19427405692800637,0.02304826121247029]","[1,1,1]","[0.03150321682533237,-0.02333706215064339]","[1,1,1]","[-0.04884230305443349,0.1511517813348407]","[-1,-1,-1]","[-0.1278786454713187,0.014015077561732214]","[1,1,1]","[-0.1387521947206467,0.11853788954492894]","[1,1,1]","[-0.05178732733621205,-0.18186646868583634]","[1,1,1]","[0.0432115351543868,0.07223654990721146]","[-1,-1,-1]","[-0.02163519643105497,-0.11308702297705307]","[-1,-1,-1]","[0.11816979631909351,0.05930381641608334]","[1,1,1]","[0.0013588862616053167,0.18550612368451214]","[-1,-1,-1]","[0.08145677075370092,0.030562060062106503]","[-1,-1,-1]","[-0.14329127808905245,-0.09831689653874559]","[1,1,1]","[-0.05153093397838943,-0.022412388621384536]","[1,1,1]","[-0.18314690257777522,0.019998778372696428]","[1,1,1]","[0.02,0.02]",207.3777,0,39,39,134,1,,,,,,,
,,,,,,,67ad9281b4a4d68f2f055a7b,682db3af839f1404b4bbb7e6,2025-05-21_13h13.58.411,cuing_paradigm_dot,2024.1.5,Win32,59.88023952,682d556593cb38ad0a074487,,,,,,,,,,,207.3781,207.8783,,,208.1281,208.3948,right,0.235,,,,,,,,,0.1,,,,,,207.8783,208.1281,208.3949,"[-0.05172737935284557,-0.014137175602880211]","[1,1,1]","[-0.14671602351886875,-0.059375380817534046]","[-1,-1,-1]","[-0.060837634141301264,-0.12494465009791092]","[-1,-1,-1]","[-0.07516622380228317,0.09464789645597867]","[-1,-1,-1]","[-0.1907078491086172,0.0169137656812118]","[-1,-1,-1]","[0.05912026838530817,-0.08469446159927989]","[-1,-1,-1]","[0.11455562674047137,-0.018911553334126495]","[-1,-1,-1]","[-0.14139299603060804,-0.11281360478381854]","[-1,-1,-1]","[0.16402923813197062,0.08589274343346567]","[-1,-1,-1]","[0.1084815988448345,0.09092320947304204]","[-1,-1,-1]","[0.06613526567112697,-0.16261272396003534]","[-1,-1,-1]","[-0.1340847252302619,0.05329728659486188]","[-1,-1,-1]","[0.10630835081611399,0.14785906138343607]","[-1,-1,-1]","[-0.19118237837892976,-0.05237165147727566]","[-1,-1,-1]","[0.06357004377793327,0.07668671881657343]","[1,1,1]","[0.11013912649737816,-0.10786145527189674]","[-1,-1,-1]","[0.1764268590970447,-0.02213016642768061]","[-1,-1,-1]","[0.04231231762661809,0.17691151692192228]","[-1,-1,-1]","[0.17022691054365155,0.017954945010521042]","[-1,-1,-1]","[-0.026666243257782236,-0.17786121898107993]","[-1,-1,-1]","[-0.16255815986614094,-0.014235297204001634]","[-1,-1,-1]","[0.004005094819257942,0.10420609261358178]","[-1,-1,-1]","[-0.17756593105463295,0.07324555795081064]","[-1,-1,-1]","[0.01963366706567122,-0.1276356869455602]","[-1,-1,-1]","[-0.12404227410222032,0.12560984057248473]","[-1,-1,-1]","[0.0020690578011863547,0.04632131131828469]","[-1,-1,-1]","[-0.07754679574868188,-0.07632724439441568]","[1,1,1]","[0.13190217273301494,-0.05597040312865329]","[-1,-1,-1]","[0.02870640262871527,-0.01275175108220759]","[-1,-1,-1]","[-0.10106898627033212,-0.1462061226479549]","[-1,-1,-1]","[0.119567737789693,0.04317638832390062]","[-1,-1,-1]","[-0.03384249877616901,0.18294430147454618]","[-1,-1,-1]","[0.02,0.02]",209.4942,0,40,40,6,1,,,,,,,
,,,,,,,67ad9281b4a4d68f2f055a7b,682db3af839f1404b4bbb7e6,2025-05-21_13h13.58.411,cuing_paradigm_dot,2024.1.5,Win32,59.88023952,682d556593cb38ad0a074487,,,,,,,,,,,209.4944,209.9948,,,210.2368,210.7444,right,0.4931,,,,,,,,,0.6,,,,,,209.9949,210.2367,210.7445,"[0.138086582078441,-0.11191960583304617]","[1,1,1]","[-0.1785553700552187,-0.06825649844670294]","[1,1,1]","[-0.02271355224660578,0.15005118353033162]","[1,1,1]","[0.1823513282891546,0.027066796998146916]","[1,1,1]","[0.06182086275843507,-0.09955670198521542]","[-1,-1,-1]","[0.1308616959470511,-0.01954376763494426]","[1,1,1]","[0.07477087257964148,0.18431527637188627]","[-1,-1,-1]","[-0.08211119145705927,-0.03680396063982245]","[1,1,1]","[-0.12097814685707478,-0.060258993160020494]","[1,1,1]","[0.07086810758947391,0.04596426883447481]","[-1,-1,-1]","[-0.05152505536863915,-0.004058135642911188]","[-1,-1,-1]","[0.07219951310995612,-0.023846802678455396]","[1,1,1]","[-0.10525656793221347,0.1189373401918086]","[1,1,1]","[-0.03507406930971539,0.10734747715933804]","[1,1,1]","[0.16833205330342219,0.0717366075173609]","[-1,-1,-1]","[-0.13812876149836695,0.052038396903558444]","[1,1,1]","[-0.010408488811423294,0.026852197760230075]","[1,1,1]","[-0.09119872508815366,-0.16055667766657858]","[1,1,1]","[-0.18411288022631397,-0.019412926953786387]","[-1,-1,-1]","[-0.07589891480897584,-0.07853894852009073]","[-1,-1,-1]","[-0.04290769332658393,-0.12865011405437618]","[-1,-1,-1]","[-0.19245221628419268,0.0364211636357425]","[1,1,1]","[0.005514856576732089,0.19610812603775216]","[1,1,1]","[0.10522927988742219,-0.08642730147048482]","[1,1,1]","[0.12098195341279559,0.13626852733295752]","[1,1,1]","[0.1255077642465055,0.07161078830742713]","[1,1,1]","[-0.06662543842552823,0.0570817507460452]","[-1,-1,-1]","[-0.11596398720205066,0.01461508362246552]","[-1,-1,-1]","[0.05272517703094842,0.13446675238063374]","[-1,-1,-1]","[-0.02191663356905283,-0.09182346043573231]","[-1,-1,-1]","[-0.1416799339358399,-0.10993345909027574]","[1,1,1]","[0.0445089261103481,0.08955664639968904]","[-1,-1,-1]","[0.02,0.02]",211.8448,0,41,41,154,1,,,,,,,
,,,,,,,67ad9281b4a4d68f2f055a7b,682db3af839f1404b4bbb7e6,2025-05-21_13h13.58.411,cuing_paradigm_dot,2024.1.5,Win32,59.88023952,682d556593cb38ad0a074487,,,,,,,,,,,211.8458,212.3452,,,212.5955,213.2285,right,0.6008,,,,,,,,,0.5,,,,,,212.3453,212.5954,213.2285,"[-0.035739820141235314,0.0005944394959906784]","[1,1,1]","[0.06720815013982458,0.18532787421768093]","[1,1,1]","[-0.18520604779169786,0.017185870509335413]","[-1,-1,-1]","[0.13665982384332107,0.04056523968936855]","[1,1,1]","[0.08020561179713927,-0.16366262524043007]","[-1,-1,-1]","[-0.02620226788616398,0.14775824297175558]","[1,1,1]","[-0.12748268371747934,-0.052633272955526354]","[1,1,1]","[-0.11326408582814547,0.12481287747084485]","[-1,-1,-1]","[0.027413088582056155,0.15163998927908678]","[-1,-1,-1]","[0.1449808744561998,-0.0717478224118602]","[-1,-1,-1]","[0.047411710386226234,-0.11336661655739387]","[-1,-1,-1]","[-0.07782450997647547,0.04618103247372591]","[1,1,1]","[0.062184673836183854,0.05307150848117674]","[-1,-1,-1]","[0.09375994277809688,-0.12345109228793262]","[1,1,1]","[-0.0395659657045255,0.18625078150706034]","[-1,-1,-1]","[-0.021976161886889126,0.06498626982406767]","[1,1,1]","[0.08044064468938418,0.12755865002961994]","[1,1,1]","[0.14537508492173318,0.10699404615642644]","[-1,-1,-1]","[-0.14898903411137188,0.0682140420697522]","[-1,-1,-1]","[0.003136236151059271,-0.12125202007132445]","[1,1,1]","[0.001480608096157317,0.024667524484621426]","[-1,-1,-1]","[0.03119304850356863,-0.1943944558176674]","[1,1,1]","[0.014512099810288734,0.09744606555254176]","[-1,-1,-1]","[-0.1416034527754917,-0.09412823674312575]","[-1,-1,-1]","[-0.06504173944776213,-0.1377175653080317]","[1,1,1]","[-0.05085637504428587,0.10349418327765396]","[1,1,1]","[0.09256854535347789,-0.07532027249026386]","[-1,-1,-1]","[0.18336529167940027,0.05325305297089423]","[1,1,1]","[0.08057545143212225,-0.017370342563497544]","[-1,-1,-1]","[-0.002956121386339276,-0.17265799070660678]","[-1,-1,-1]","[0.16426074661234,-0.012636151343271628]","[1,1,1]","[0.010035540818957665,-0.022997941110465946]","[1,1,1]","[0.02,0.02]",214.3277,0,42,42,105,1,,,,,,,
,,,,,,,67ad9281b4a4d68f2f055a7b,682db3af839f1404b4bbb7e6,2025-05-21_13h13.58.411,cuing_paradigm_dot,2024.1.5,Win32,59.88023952,682d556593cb38ad0a074487,,,,,,,,,,,214.3285,214.8284,,,215.0783,215.5785,right,0.473,,,,,,,,,0.55,,,,,,214.8285,215.0783,215.5787,"[-0.14566658823236342,0.05741198720321803]","[-1,-1,-1]","[-0.029370421501326644,-0.08740005176238733]","[1,1,1]","[-0.03391439732279335,0.13767435041413995]","[1,1,1]","[0.01150414126567061,0.12018145600589612]","[-1,-1,-1]","[-0.16267938388841532,-0.09913445625213249]","[1,1,1]","[0.03128888782004256,0.18637838683178212]","[-1,-1,-1]","[0.13179522045991482,-0.03065119652212466]","[-1,-1,-1]","[-0.12006537395058808,0.1024956883211486]","[-1,-1,-1]","[0.10992284676543844,0.061959757591567355]","[1,1,1]","[0.1725683872544863,-0.015963564384227594]","[1,1,1]","[0.06710019500720961,-0.14108050187861096]","[1,1,1]","[-0.020807272823398254,-0.16712818467801197]","[1,1,1]","[0.02303639435990862,-0.16000327562871322]","[-1,-1,-1]","[0.06344509025527655,0.13165014440860323]","[1,1,1]","[0.13077825421139813,-0.0960107113206573]","[1,1,1]","[-0.021215065707160162,0.19216144843509086]","[-1,-1,-1]","[0.05506277095451658,0.05882817540716752]","[-1,-1,-1]","[-0.06692868042994245,0.08551406233196565]","[1,1,1]","[-0.1038103721805265,-0.0609150327862225]","[1,1,1]","[0.056258817243225526,-0.025275647956602462]","[1,1,1]","[0.15544578931605255,0.059190942537257235]","[1,1,1]","[-0.1531786703178435,-0.058279256138849725]","[-1,-1,-1]","[0.022817004740362933,-0.10405186141297917]","[1,1,1]","[0.011763010720872,0.047234919382475093]","[1,1,1]","[-0.08264347341818923,-0.00632839153407992]","[-1,-1,-1]","[-0.0594770420454253,-0.18602452578974787]","[1,1,1]","[-0.06706003544052913,0.1720081166805177]","[-1,-1,-1]","[-0.19141930202998872,0.05695439813550058]","[-1,-1,-1]","[0.10891598069942761,0.15038701195808565]","[-1,-1,-1]","[0.07462730491272589,-0.18069097678478005]","[1,1,1]","[-0.12146636862520188,0.15518936743747774]","[-1,-1,-1]","[-0.05511121743369789,-0.048974818367552526]","[1,1,1]","[0.02,0.02]",216.6789,0,43,43,121,1,,,,,,,
,,,,,,,67ad9281b4a4d68f2f055a7b,682db3af839f1404b4bbb7e6,2025-05-21_13h13.58.411,cuing_paradigm_dot,2024.1.5,Win32,59.88023952,682d556593cb38ad0a074487,,,,,,,,,,,216.6798,217.178,,,217.4285,217.8122,right,0.3683,,,,,,,,,0.9,,,,,,217.1781,217.4284,217.8123,"[0.18999747903055336,0.01309867784377162]","[1,1,1]","[-0.15142081358185927,-0.12054936869404842]","[-1,-1,-1]","[0.013082460189216102,0.15859983719684648]","[1,1,1]","[-0.09549768358801929,-0.12413499497167449]","[1,1,1]","[-0.11063114187469113,-0.004997577156932727]","[1,1,1]","[0.11982829345280069,-0.10622348749014199]","[1,1,1]","[0.11712153925378714,0.03644334068760637]","[1,1,1]","[-0.13955232008347532,0.13542598839732964]","[1,1,1]","[0.04011897583912208,0.10117341800091188]","[1,1,1]","[-0.01869186733826253,-0.07913720995241821]","[1,1,1]","[-0.1287746929006836,0.09481872586190361]","[1,1,1]","[0.1615255746278389,-0.0634609564099245]","[1,1,1]","[-0.02190973112447036,0.19478247001771073]","[1,1,1]","[-0.08554868191905951,0.11969807171006866]","[1,1,1]","[-0.008132364780977265,0.0369149192710521]","[1,1,1]","[0.09202222524540793,0.1580375247581462]","[1,1,1]","[0.07604863297155101,0.011867909017615516]","[1,1,1]","[-0.16004965542419977,-0.07299086529751751]","[1,1,1]","[0.13952537481561633,0.11353820167668839]","[1,1,1]","[-0.07002334966193353,-0.06228645789202087]","[1,1,1]","[0.12943928389311193,-0.028568321576888454]","[-1,-1,-1]","[0.020168646240951563,-0.0046544918606269544]","[1,1,1]","[-0.012354887658418412,-0.1188582193285296]","[1,1,1]","[0.09682761437575467,0.11395360090502193]","[1,1,1]","[-0.15037972721833479,0.03021404671290983]","[1,1,1]","[-0.06623037269464284,-0.1862660878778265]","[1,1,1]","[0.09225763839283906,-0.14101447482035812]","[1,1,1]","[0.056755769028446264,0.1775488655966788]","[1,1,1]","[-0.05601835374868289,0.17138527485493849]","[1,1,1]","[-0.09386325549236679,0.05843516693355715]","[1,1,1]","[0.09097048777454737,-0.07324853245721685]","[-1,-1,-1]","[-0.012238560229691206,-0.19809945551071334]","[1,1,1]","[0.02,0.02]",218.9111,0,44,44,193,1,,,,,,,
