right,left,explain.started,explain.stopped,key_resp_3.keys,key_resp_3.rt,key_resp_3.duration,participant,session,date,expName,psychopyVersion,OS,frameRate,study_id,explain_2.started,explain_2.stopped,key_resp_4.keys,key_resp_4.rt,key_resp_4.duration,explain_3.started,explain_3.stopped,key_resp_5.keys,key_resp_5.rt,key_resp_5.duration,fixation.started,fixation.stopped,practice.started,practice.stopped,response.started,response.stopped,key_resp.keys,key_resp.rt,key_resp.duration,feedback.started,feedback.stopped,trials_2.thisRepN,trials_2.thisTrialN,trials_2.thisN,trials_2.thisIndex,trials_2.ran,white_ratio,explain_4.started,explain_4.stopped,key_resp_6.keys,key_resp_6.rt,key_resp_6.duration,dotDisplay.started,dotDisplay.stopped,ITI.started,polygon_1.pos,polygon_1.color,polygon_2.pos,polygon_2.color,polygon_3.pos,polygon_3.color,polygon_4.pos,polygon_4.color,polygon_5.pos,polygon_5.color,polygon_6.pos,polygon_6.color,polygon_7.pos,polygon_7.color,polygon_8.pos,polygon_8.color,polygon_9.pos,polygon_9.color,polygon_10.pos,polygon_10.color,polygon_11.pos,polygon_11.color,polygon_12.pos,polygon_12.color,polygon_13.pos,polygon_13.color,polygon_14.pos,polygon_14.color,polygon_15.pos,polygon_15.color,polygon_16.pos,polygon_16.color,polygon_17.pos,polygon_17.color,polygon_18.pos,polygon_18.color,polygon_19.pos,polygon_19.color,polygon_20.pos,polygon_20.color,polygon_21.pos,polygon_21.color,polygon_22.pos,polygon_22.color,polygon_23.pos,polygon_23.color,polygon_24.pos,polygon_24.color,polygon_25.pos,polygon_25.color,polygon_26.pos,polygon_26.color,polygon_27.pos,polygon_27.color,polygon_28.pos,polygon_28.color,polygon_29.pos,polygon_29.color,polygon_30.pos,polygon_30.color,polygon_31.pos,polygon_31.color,polygon_32.pos,polygon_32.color,dot_size,ITI.stopped,trials.thisRepN,trials.thisTrialN,trials.thisN,trials.thisIndex,trials.ran,break_2.started,break_2.stopped,trials_3.thisRepN,trials_3.thisTrialN,trials_3.thisN,trials_3.thisIndex,trials_3.ran
subject chose black,subject chose white,0.0005,17.0374,space,1.9968,,67b602e2e2bfcaa2a6c901ed,682f0fd011c131d7b751cca5,2025-05-22_14h07.53.056,cuing_paradigm_dot,2024.1.5,Win32,60.24096386,682d573fa47f1360d1451895,,,,,,,,,,,,,,,,,,,,,,,,,,,,,,,,,,,,,,,,,,,,,,,,,,,,,,,,,,,,,,,,,,,,,,,,,,,,,,,,,,,,,,,,,,,,,,,,,,,,,,,,,,,,,,,,,
,,,,,,,67b602e2e2bfcaa2a6c901ed,682f0fd011c131d7b751cca5,2025-05-22_14h07.53.056,cuing_paradigm_dot,2024.1.5,Win32,60.24096386,682d573fa47f1360d1451895,17.0393,47.9602,space,0.9091,,,,,,,,,,,,,,,,,,,,,,,,,,,,,,,,,,,,,,,,,,,,,,,,,,,,,,,,,,,,,,,,,,,,,,,,,,,,,,,,,,,,,,,,,,,,,,,,,,,,,,,,,,,,,
,,,,,,,67b602e2e2bfcaa2a6c901ed,682f0fd011c131d7b751cca5,2025-05-22_14h07.53.056,cuing_paradigm_dot,2024.1.5,Win32,60.24096386,682d573fa47f1360d1451895,,,,,,47.9618,52.6933,space,1.7091,,,,,,,,,,,,,,,,,,,,,,,,,,,,,,,,,,,,,,,,,,,,,,,,,,,,,,,,,,,,,,,,,,,,,,,,,,,,,,,,,,,,,,,,,,,,,,,,,,,,,,,,
,,,,,,,67b602e2e2bfcaa2a6c901ed,682f0fd011c131d7b751cca5,2025-05-22_14h07.53.056,cuing_paradigm_dot,2024.1.5,Win32,60.24096386,682d573fa47f1360d1451895,,,,,,,,,,,52.7782,53.2084,53.2099,53.4579,53.4584,54.2752,left,0.7835,,54.2764,55.375,0,0,0,0,1,0.8,,,,,,,,,,,,,,,,,,,,,,,,,,,,,,,,,,,,,,,,,,,,,,,,,,,,,,,,,,,,,,,,,,,,,,,,,,,,,,,,,,,,,,
,,,,,,,67b602e2e2bfcaa2a6c901ed,682f0fd011c131d7b751cca5,2025-05-22_14h07.53.056,cuing_paradigm_dot,2024.1.5,Win32,60.24096386,682d573fa47f1360d1451895,,,,,,,,,,,55.3781,55.8742,55.8743,56.1258,56.126,56.5911,right,0.4556,,56.5915,57.6922,0,1,1,1,1,0.2,,,,,,,,,,,,,,,,,,,,,,,,,,,,,,,,,,,,,,,,,,,,,,,,,,,,,,,,,,,,,,,,,,,,,,,,,,,,,,,,,,,,,,
,,,,,,,67b602e2e2bfcaa2a6c901ed,682f0fd011c131d7b751cca5,2025-05-22_14h07.53.056,cuing_paradigm_dot,2024.1.5,Win32,60.24096386,682d573fa47f1360d1451895,,,,,,,,,,,,,,,,,,,,,,,,,,,,57.6943,61.3915,space,0.6729,,,,,,,,,,,,,,,,,,,,,,,,,,,,,,,,,,,,,,,,,,,,,,,,,,,,,,,,,,,,,,,,,,,,,,,,,,,,,,,,,,
,,,,,,,67b602e2e2bfcaa2a6c901ed,682f0fd011c131d7b751cca5,2025-05-22_14h07.53.056,cuing_paradigm_dot,2024.1.5,Win32,60.24096386,682d573fa47f1360d1451895,,,,,,,,,,,61.442,61.9063,,,62.159,62.6738,right,0.499,,,,,,,,,0.45,,,,,,61.9072,62.1589,62.6755,"[0.10039267133293371,-0.08579370515067883]","[-1,-1,-1]","[0.1422030030695268,0.007974526494224213]","[-1,-1,-1]","[-0.1565623093419757,0.06873152261414556]","[1,1,1]","[-0.014343474247778668,0.10869263929879279]","[1,1,1]","[-0.11589283318640882,-0.035046777545527145]","[1,1,1]","[0.010293107084297962,-0.17951172804299417]","[1,1,1]","[0.02846597621171371,0.012314437601268586]","[1,1,1]","[-0.06778511027159399,-0.16627072583915764]","[-1,-1,-1]","[-0.11561587134174912,-0.145789846549859]","[1,1,1]","[-0.054835213080980195,0.10819751475901994]","[1,1,1]","[0.19560568503863085,-0.020297497930488153]","[1,1,1]","[0.06283036357427838,-0.015402606952373426]","[-1,-1,-1]","[0.028319191710771786,0.1954937304474026]","[-1,-1,-1]","[-0.0756990137416354,0.1585608910643607]","[-1,-1,-1]","[0.14240131880432816,-0.05585424250847468]","[-1,-1,-1]","[-0.0567568020436358,-0.09771605347730858]","[-1,-1,-1]","[0.03711620070001876,0.05733534963514356]","[1,1,1]","[-0.13063065168488508,-0.08867761522014818]","[-1,-1,-1]","[0.09039795307813857,0.1316055040278448]","[-1,-1,-1]","[-0.18556607195763714,0.023908432028839417]","[1,1,1]","[0.06005320203965203,-0.11852180327980812]","[-1,-1,-1]","[0.002904049341030193,0.16267159097980022]","[1,1,1]","[-0.002719878576601559,-0.048251840815800334]","[-1,-1,-1]","[0.09792125247675487,0.08454081881328296]","[-1,-1,-1]","[0.009040319058094446,-0.0946806640411668]","[-1,-1,-1]","[0.15415769099382068,0.053165142107634344]","[-1,-1,-1]","[0.11678912378142658,-0.1430304823416973]","[1,1,1]","[0.04801523514503601,0.11881591204034225]","[1,1,1]","[0.160927881210408,0.11493281653013615]","[-1,-1,-1]","[-0.07854476653975798,0.021731549777321307]","[-1,-1,-1]","[-0.08487267503044141,0.06756217043485659]","[1,1,1]","[-0.03435072407568213,-0.19490401275512248]","[-1,-1,-1]","[0.02,0.02]",63.7743,0,0,0,63,1,,,,,,,
,,,,,,,67b602e2e2bfcaa2a6c901ed,682f0fd011c131d7b751cca5,2025-05-22_14h07.53.056,cuing_paradigm_dot,2024.1.5,Win32,60.24096386,682d573fa47f1360d1451895,,,,,,,,,,,63.776,64.2734,,,64.5259,65.0569,right,0.5165,,,,,,,,,0.1,,,,,,64.2737,64.5257,65.057,"[0.006209712928239026,0.1728743533622761]","[-1,-1,-1]","[-0.04134090922840991,-0.027039006828499412]","[-1,-1,-1]","[-0.19240193300584577,-0.017975055616657985]","[-1,-1,-1]","[-0.03888781894371963,-0.19203645518876603]","[-1,-1,-1]","[-0.1638630157470223,0.10997827002710103]","[-1,-1,-1]","[-0.037653843140370326,-0.1062247993712042]","[-1,-1,-1]","[-0.16342584934146984,0.058220892853341685]","[-1,-1,-1]","[-0.12780428792587054,-0.007081890296871787]","[-1,-1,-1]","[-0.06696693611064915,-0.15213666480821675]","[-1,-1,-1]","[-0.11459107316471663,0.1228965775313027]","[-1,-1,-1]","[-0.11643148416770646,0.04706232828472027]","[1,1,1]","[0.11597653862654933,0.004136165339885149]","[1,1,1]","[0.15177784104900796,0.060357055572985374]","[-1,-1,-1]","[0.03642758500229299,-0.09047818271020146]","[-1,-1,-1]","[0.07456404571624925,-0.11582214789713306]","[-1,-1,-1]","[-0.08200445825862569,0.004176202109235449]","[-1,-1,-1]","[0.04685595469247051,-0.03927620776564567]","[-1,-1,-1]","[-0.11894767631768245,-0.06751030258480663]","[-1,-1,-1]","[0.019776224677915018,0.04743604874278118]","[-1,-1,-1]","[0.15046718809097287,-0.1023475716519429]","[-1,-1,-1]","[0.005051426629672195,-0.16448454298005385]","[-1,-1,-1]","[0.19745928498729784,-0.029534515040966748]","[-1,-1,-1]","[0.11715840693566146,-0.1368829180085487]","[-1,-1,-1]","[0.02311670673925163,0.12509743516683636]","[-1,-1,-1]","[0.0913634242288769,-0.07424357686624586]","[-1,-1,-1]","[-0.04437049838137598,0.16977873366770313]","[1,1,1]","[0.0006106661217722532,-0.05625552233524556]","[-1,-1,-1]","[-0.17145614425557962,0.01882290289682632]","[-1,-1,-1]","[-0.024080594303964108,0.04863508481279836]","[-1,-1,-1]","[0.08184374758037229,0.029050259903102137]","[-1,-1,-1]","[0.1450410706186925,0.11997573479999118]","[-1,-1,-1]","[-0.02118698114604411,0.13438949864353383]","[-1,-1,-1]","[0.02,0.02]",66.1563,0,1,1,10,1,,,,,,,
,,,,,,,67b602e2e2bfcaa2a6c901ed,682f0fd011c131d7b751cca5,2025-05-22_14h07.53.056,cuing_paradigm_dot,2024.1.5,Win32,60.24096386,682d573fa47f1360d1451895,,,,,,,,,,,66.1572,66.6567,,,66.9115,67.441,right,0.506,,,,,,,,,0.4,,,,,,66.6568,66.9114,67.4412,"[-0.019924296558642893,-0.1598646579709189]","[-1,-1,-1]","[-0.016331599339263203,0.1337424704438147]","[1,1,1]","[-0.10655429964655388,0.04621101725024594]","[-1,-1,-1]","[0.1306373515494089,-0.11154800391448792]","[1,1,1]","[0.06616666186003187,-0.09868767291711866]","[1,1,1]","[-0.05929503250512469,0.17613494575251207]","[-1,-1,-1]","[-0.06064123854682364,0.10717522495265161]","[1,1,1]","[0.12351133166482507,-0.06876080608038083]","[1,1,1]","[-0.07240262468544682,-0.148091038738378]","[-1,-1,-1]","[-0.02126888967695013,-0.11062835521072255]","[-1,-1,-1]","[-0.17052518671216935,-0.0156003552467277]","[-1,-1,-1]","[0.14037523506274893,0.044205191674116]","[-1,-1,-1]","[0.00529098696476712,0.19950957474619596]","[1,1,1]","[-0.105402707670532,-0.07175021659268062]","[-1,-1,-1]","[0.041919122451482244,0.17407327232570752]","[1,1,1]","[0.07825962502622606,0.0426469212175041]","[1,1,1]","[-0.05158077711327668,-0.050937374873708405]","[1,1,1]","[0.08022236075775134,-0.049814991106562664]","[1,1,1]","[-0.02325719371525842,-0.011787617753054893]","[-1,-1,-1]","[0.05807943972875127,-0.1751934947110268]","[-1,-1,-1]","[-0.0974845723397729,-0.0005669204573003772]","[1,1,1]","[-0.12239696357181941,0.1130565048173647]","[1,1,1]","[0.15926902842281793,-0.04174710389736277]","[-1,-1,-1]","[0.18524911195065208,-0.003091100124136805]","[-1,-1,-1]","[0.05240950807719148,0.0045957850003933215]","[-1,-1,-1]","[0.032111125102534985,0.0632646727820252]","[-1,-1,-1]","[0.08069276864117705,0.11641554671026567]","[-1,-1,-1]","[0.11495157131523027,-0.14997467993785624]","[-1,-1,-1]","[0.13438206521029733,0.08682031692816898]","[-1,-1,-1]","[0.12157851307553699,-0.018017013891317695]","[-1,-1,-1]","[-0.05832474512224829,0.06705006758368971]","[-1,-1,-1]","[-0.06592627852208789,0.026046182149389807]","[1,1,1]","[0.02,0.02]",68.5403,0,2,2,36,1,,,,,,,
,,,,,,,67b602e2e2bfcaa2a6c901ed,682f0fd011c131d7b751cca5,2025-05-22_14h07.53.056,cuing_paradigm_dot,2024.1.5,Win32,60.24096386,682d573fa47f1360d1451895,,,,,,,,,,,68.542,69.0416,,,69.295,69.7132,left,0.4027,,,,,,,,,0.4,,,,,,69.0419,69.2948,69.7132,"[-0.05598015269264325,0.08103067966812873]","[-1,-1,-1]","[-0.10007657292302646,0.025269883094003822]","[-1,-1,-1]","[-0.041764023934416854,-0.1613697450250318]","[1,1,1]","[0.006546493181819185,-0.05026021970871092]","[-1,-1,-1]","[0.09387993029643753,-0.17527717097642068]","[1,1,1]","[0.03716955208566459,-0.014904137762798335]","[-1,-1,-1]","[0.043015609281373546,0.12207368333710267]","[1,1,1]","[0.07443660536089909,0.16269353758804478]","[-1,-1,-1]","[-0.10606139670617765,0.15539075804510036]","[1,1,1]","[-0.032703737833877415,-0.11628479773943658]","[-1,-1,-1]","[-0.1488137069395159,0.10795219704146419]","[-1,-1,-1]","[0.1842662411797874,0.06715478820272637]","[-1,-1,-1]","[-0.08878569460838656,-0.038891699503022244]","[-1,-1,-1]","[-0.15356291386008306,-0.09479961744885379]","[-1,-1,-1]","[0.11476646759675505,0.017786233583644503]","[1,1,1]","[0.14721839641109608,-0.02923670804371396]","[1,1,1]","[0.028861394216027597,0.05114336211599189]","[-1,-1,-1]","[-0.14848716651126168,0.05852864639959886]","[1,1,1]","[0.08339906895311025,0.08816540554309028]","[1,1,1]","[-0.04530424593027248,-0.050777270525931666]","[1,1,1]","[0.08937146059412258,-0.025249959352727076]","[-1,-1,-1]","[-0.11020566081711476,-0.09714688582364063]","[-1,-1,-1]","[-0.018237066817899116,0.10582758561261679]","[-1,-1,-1]","[0.015137257296695383,0.16052921575648235]","[-1,-1,-1]","[0.16956891543595873,0.006983441825250365]","[1,1,1]","[0.11088901058661663,-0.06977693915093469]","[1,1,1]","[0.029656724700937238,-0.15620324191346568]","[1,1,1]","[-0.18625951451738287,-0.024315821473999244]","[-1,-1,-1]","[-0.04201058680338401,0.16691507872035474]","[-1,-1,-1]","[-0.08126332370743551,0.11799005710869857]","[-1,-1,-1]","[-0.12954214038617115,-0.03592066122591028]","[-1,-1,-1]","[0.09403733392499883,-0.12505939537579047]","[1,1,1]","[0.02,0.02]",70.811,0,3,3,53,1,,,,,,,
,,,,,,,67b602e2e2bfcaa2a6c901ed,682f0fd011c131d7b751cca5,2025-05-22_14h07.53.056,cuing_paradigm_dot,2024.1.5,Win32,60.24096386,682d573fa47f1360d1451895,,,,,,,,,,,70.8121,71.3112,,,71.5608,71.857,left,0.2722,,,,,,,,,0.1,,,,,,71.3115,71.5607,71.857,"[-0.018573807061986785,0.13179283006430292]","[-1,-1,-1]","[0.0678052738633466,0.08089434474251521]","[-1,-1,-1]","[0.013792924129620911,0.007064082130182873]","[-1,-1,-1]","[-0.07743487894240907,-0.040281761292239475]","[-1,-1,-1]","[0.10431663588116107,0.012063486226001334]","[-1,-1,-1]","[-0.11807197718614373,0.09443454985671035]","[1,1,1]","[-0.058525260241636394,0.15109056365946416]","[1,1,1]","[-0.1517055584861163,0.020149390713848876]","[-1,-1,-1]","[-0.07796795836095821,0.019209699632080357]","[-1,-1,-1]","[0.16863952583607708,0.022561064002698687]","[-1,-1,-1]","[-0.008182709763613896,-0.06073978511173223]","[-1,-1,-1]","[-0.08147530340891374,-0.10812776651815977]","[-1,-1,-1]","[0.051458428818445465,0.04127442631601274]","[-1,-1,-1]","[0.027753774867537762,-0.15938616822398993]","[-1,-1,-1]","[0.11743394909093723,-0.06873895307625007]","[1,1,1]","[-0.18430919423311892,-0.014081969872128628]","[-1,-1,-1]","[0.07748471945998844,-0.14853930082981026]","[-1,-1,-1]","[-0.14572169639589352,0.12916587348977418]","[-1,-1,-1]","[-0.1473533460400141,-0.07390881881771008]","[-1,-1,-1]","[0.01917686867892769,0.11096550354251561]","[-1,-1,-1]","[-0.050790403852236245,-0.08242341793494203]","[-1,-1,-1]","[0.1826283717231735,-0.0633265507582748]","[-1,-1,-1]","[0.11865653853678813,0.06222862487937111]","[-1,-1,-1]","[0.09248315821846224,0.11296111205790738]","[-1,-1,-1]","[0.011720033169071631,-0.11840293072277759]","[-1,-1,-1]","[-0.0264291914467657,-0.1504642589670992]","[-1,-1,-1]","[0.047147063091025766,-0.054669474751641606]","[-1,-1,-1]","[-0.1120985600908531,-0.16431402615963972]","[-1,-1,-1]","[0.05435624204298293,0.15326949774066514]","[-1,-1,-1]","[0.1070136044430021,0.15092452493938086]","[-1,-1,-1]","[-0.05713358006020813,0.07779125938258688]","[-1,-1,-1]","[0.1482530266127082,-0.13186817240023116]","[-1,-1,-1]","[0.02,0.02]",72.9572,0,4,4,18,1,,,,,,,
,,,,,,,67b602e2e2bfcaa2a6c901ed,682f0fd011c131d7b751cca5,2025-05-22_14h07.53.056,cuing_paradigm_dot,2024.1.5,Win32,60.24096386,682d573fa47f1360d1451895,,,,,,,,,,,72.959,73.4573,,,73.7081,74.3447,left,0.6176,,,,,,,,,0.6,,,,,,73.4574,73.7079,74.3448,"[-0.02901508942978439,0.0292921343705667]","[1,1,1]","[0.07322818869560595,0.039384020730453655]","[-1,-1,-1]","[0.055176909282450816,0.17129373730703376]","[-1,-1,-1]","[-0.023636105377461507,-0.0687073739780728]","[1,1,1]","[-0.017591778302035305,-0.016141136145200994]","[-1,-1,-1]","[0.02398078839176862,0.09098801307572654]","[-1,-1,-1]","[0.015736752872177573,0.13536724610547438]","[1,1,1]","[0.028425058101981905,0.0462990465603778]","[1,1,1]","[0.10733934123241043,-0.10656079944697616]","[-1,-1,-1]","[-0.05886292595482459,-0.040767411788674844]","[1,1,1]","[-0.18249924253335525,0.07583470716462529]","[1,1,1]","[0.024259553970210627,-0.18853163187805647]","[-1,-1,-1]","[0.024180483892589946,-0.14847177663195152]","[1,1,1]","[-0.014421227032907118,0.18550705853147437]","[1,1,1]","[0.021750092316058844,-0.04656041078973277]","[1,1,1]","[-0.10633809452451476,-0.11618469168594198]","[1,1,1]","[-0.04111553275760596,-0.15453838189929114]","[-1,-1,-1]","[-0.17634724906043273,-0.03563959714855889]","[1,1,1]","[0.1523183958547254,0.06500924717333974]","[-1,-1,-1]","[-0.10280652731015841,0.07515775351120081]","[1,1,1]","[0.16025265981561618,-0.07513458648909518]","[1,1,1]","[0.16851063096338156,-0.0205239686637245]","[-1,-1,-1]","[-0.029213418543844856,0.07232281194029457]","[1,1,1]","[-0.12272720579718956,0.14432796091066893]","[-1,-1,-1]","[-0.10071283259776502,0.0021611323990263706]","[1,1,1]","[-0.07406812304106185,0.12415490845379781]","[1,1,1]","[-0.015314287126635502,-0.10995183282508972]","[-1,-1,-1]","[0.1049904275531916,-0.16105232408576495]","[1,1,1]","[0.10325127399067922,0.0027606925167074268]","[-1,-1,-1]","[-0.15464148332972755,-0.07510741420946736]","[1,1,1]","[0.07824279422419549,-0.06792785130778957]","[1,1,1]","[-0.037543132265955105,0.14266013981084288]","[-1,-1,-1]","[0.02,0.02]",75.4405,0,5,5,159,1,,,,,,,
,,,,,,,67b602e2e2bfcaa2a6c901ed,682f0fd011c131d7b751cca5,2025-05-22_14h07.53.056,cuing_paradigm_dot,2024.1.5,Win32,60.24096386,682d573fa47f1360d1451895,,,,,,,,,,,75.4418,75.9403,,,76.1941,76.757,left,0.5447,,,,,,,,,0.5,,,,,,75.9404,76.194,76.7572,"[0.09690054519232794,0.027177904169290314]","[-1,-1,-1]","[-0.00764948005040011,0.11108289252493932]","[-1,-1,-1]","[0.1400332011752189,-0.08985983011747431]","[-1,-1,-1]","[0.07608970484345637,-0.10266605359483284]","[-1,-1,-1]","[-0.04157427404072694,-0.17463659286718775]","[-1,-1,-1]","[0.03094081948861014,-0.052915713771637105]","[1,1,1]","[-0.050961201039816495,0.18381088531843076]","[-1,-1,-1]","[0.08043978732752159,-0.17849063065659473]","[1,1,1]","[-0.022813281581480393,-0.022654012273129798]","[1,1,1]","[-0.01050611575358841,0.15449560145689992]","[-1,-1,-1]","[-0.09197448887620906,-0.15135144811137047]","[1,1,1]","[-0.12802949118569276,0.0788661327331852]","[1,1,1]","[0.03753432055421615,0.14028415432934332]","[1,1,1]","[-0.07807577552113369,0.07952098929270528]","[-1,-1,-1]","[0.02028833425091151,-0.17924790662286647]","[-1,-1,-1]","[-0.048395046023022685,0.10726096463674625]","[-1,-1,-1]","[0.14336290720339012,-0.013726107260463818]","[1,1,1]","[0.05913802767712332,0.08478173591407204]","[1,1,1]","[-0.08824289039956712,-0.07446182610151583]","[-1,-1,-1]","[-0.030705065328203808,0.04120523505447723]","[1,1,1]","[-0.015882945584690885,-0.0794302872829566]","[1,1,1]","[-0.038791502316317505,-0.12671295558985243]","[1,1,1]","[0.016547603598267187,0.003651527003407649]","[1,1,1]","[-0.17619708229965533,0.08583996153292059]","[-1,-1,-1]","[-0.1764467866499967,0.019925862783821593]","[-1,-1,-1]","[-0.10879522108490376,0.035881320969455927]","[1,1,1]","[-0.08057210123189033,-0.002237572896062842]","[-1,-1,-1]","[0.1537178089339848,0.0363123028435231]","[-1,-1,-1]","[-0.12739105377601861,-0.12447780856592174]","[1,1,1]","[-0.1441028617983587,-0.04634393756054472]","[1,1,1]","[0.13482020277750503,0.12296909483394929]","[1,1,1]","[0.12940500366167687,-0.13043420137636302]","[-1,-1,-1]","[0.02,0.02]",77.8564,0,6,6,119,1,,,,,,,
,,,,,,,67b602e2e2bfcaa2a6c901ed,682f0fd011c131d7b751cca5,2025-05-22_14h07.53.056,cuing_paradigm_dot,2024.1.5,Win32,60.24096386,682d573fa47f1360d1451895,,,,,,,,,,,77.8578,78.3572,,,78.6111,79.19,left,0.5537,,,,,,,,,0.5,,,,,,78.3573,78.611,79.19,"[-0.16278463451056419,0.042580205705569384]","[-1,-1,-1]","[0.005039340589890727,-0.04263453601355279]","[-1,-1,-1]","[-0.03275300440097157,-0.1656626754817358]","[1,1,1]","[0.14197166213490398,-0.09735395146898322]","[1,1,1]","[-0.07017083616822027,-0.11695616824048709]","[1,1,1]","[-0.13878895960480403,-0.11848492714031224]","[1,1,1]","[0.16033721581698074,-0.005478241014718902]","[-1,-1,-1]","[-0.09084531802200778,0.05109090264610532]","[1,1,1]","[-0.10119709097633107,0.0031259705484123325]","[1,1,1]","[-0.020538055024333597,0.17567475172474697]","[-1,-1,-1]","[0.15750061857524086,0.07516219602413042]","[-1,-1,-1]","[-0.010066948025827457,0.08631168278185124]","[-1,-1,-1]","[0.07513603495811265,-0.08754609276290994]","[-1,-1,-1]","[-0.07168391789519676,0.10545739443506288]","[-1,-1,-1]","[-0.0329360538780373,0.02009231647060122]","[1,1,1]","[0.08314913112322876,-0.02858410117038564]","[1,1,1]","[0.04365181008699273,-0.11663602033077668]","[1,1,1]","[0.04010516045718621,-0.007584161729082266]","[1,1,1]","[0.04835798789021328,0.16288969185602065]","[1,1,1]","[0.11694315580216438,-0.05002623846324881]","[1,1,1]","[-0.13263831131720016,0.08552463227318634]","[-1,-1,-1]","[0.037760928560257354,0.12304120318667111]","[1,1,1]","[0.1246201360680822,0.14794319588513738]","[-1,-1,-1]","[-0.09646068583139471,-0.06407359152916053]","[-1,-1,-1]","[0.046942684072863554,0.037163507517503996]","[1,1,1]","[0.09161292659726844,0.17257511910064086]","[-1,-1,-1]","[0.1202641933019688,0.05073669509871506]","[-1,-1,-1]","[0.06905302667637064,-0.18540255040700937]","[-1,-1,-1]","[-0.1061715451434323,0.1496787922873291]","[1,1,1]","[-0.15745135867173304,-0.01232330376886893]","[-1,-1,-1]","[0.09064451569651305,-0.1492079185248824]","[-1,-1,-1]","[0.014535058007606702,-0.08649487898301333]","[1,1,1]","[0.02,0.02]",80.2989,0,7,7,107,1,,,,,,,
,,,,,,,67b602e2e2bfcaa2a6c901ed,682f0fd011c131d7b751cca5,2025-05-22_14h07.53.056,cuing_paradigm_dot,2024.1.5,Win32,60.24096386,682d573fa47f1360d1451895,,,,,,,,,,,80.2999,80.7942,,,81.04,81.3897,right,0.3377,,,,,,,,,0.4,,,,,,80.7942,81.0399,81.3898,"[-0.06505205994502536,0.12919905413426203]","[-1,-1,-1]","[0.12960560225669632,0.06720438121496078]","[1,1,1]","[-0.06337344001058837,-0.07156339543416655]","[1,1,1]","[-0.15131609128300635,-0.06922294277054292]","[-1,-1,-1]","[0.16021739697039064,-0.05839175418423568]","[1,1,1]","[0.10815180517930975,0.11934404707191447]","[-1,-1,-1]","[0.05203689294344769,-0.04840578118466372]","[1,1,1]","[0.03544080480971178,-0.17923148189495236]","[-1,-1,-1]","[0.05700458776739487,-0.131150493028201]","[-1,-1,-1]","[-0.19072092562901552,-0.020383407467319852]","[-1,-1,-1]","[-0.08174180891257661,-0.15523395538425883]","[-1,-1,-1]","[-0.08088268604125362,-0.013653966296097315]","[-1,-1,-1]","[0.06413993204472732,0.08595500570194739]","[1,1,1]","[0.015335717798882749,-0.010331394635949608]","[-1,-1,-1]","[-0.04686143458608165,0.0475171992914739]","[-1,-1,-1]","[0.04703601530238762,0.04027134509757577]","[1,1,1]","[-0.12983443712904946,-0.012011228311676178]","[-1,-1,-1]","[-0.015329941466979467,-0.1017340074688809]","[1,1,1]","[0.007117464206049691,-0.05482235651092356]","[-1,-1,-1]","[-0.03854925010540642,0.17773196873834377]","[-1,-1,-1]","[0.11587935794568544,-0.053718049872147663]","[-1,-1,-1]","[-0.04274216312209767,0.09417683187748413]","[-1,-1,-1]","[-0.015118614602675556,-0.14778974791580834]","[1,1,1]","[0.13113605443169776,-0.1464302433369236]","[1,1,1]","[0.16811105671930676,0.007707948492404589]","[-1,-1,-1]","[0.08320872030450549,-0.07927112193020289]","[-1,-1,-1]","[-0.006849459762586631,-0.19640875759052814]","[-1,-1,-1]","[-0.14863332523442105,0.10907827429155995]","[1,1,1]","[-0.12540572692765234,-0.10496792923038804]","[1,1,1]","[0.04223293430957788,0.12497165028596587]","[-1,-1,-1]","[0.10756128002637738,-0.11212321089244476]","[1,1,1]","[-0.1057358382830533,-0.06645527756366247]","[1,1,1]","[0.02,0.02]",82.4896,0,8,8,41,1,,,,,,,
,,,,,,,67b602e2e2bfcaa2a6c901ed,682f0fd011c131d7b751cca5,2025-05-22_14h07.53.056,cuing_paradigm_dot,2024.1.5,Win32,60.24096386,682d573fa47f1360d1451895,,,,,,,,,,,82.4909,82.9892,,,83.2413,83.9413,left,0.692,,,,,,,,,0.5,,,,,,82.9893,83.2411,83.9414,"[-0.14926796947255777,-0.09932818525090926]","[1,1,1]","[-0.06029330089795513,0.08597564385480204]","[-1,-1,-1]","[-0.058998920712490806,-0.15276329461160798]","[1,1,1]","[0.1252517410733965,-0.04647035218013387]","[1,1,1]","[0.02065599269554648,-0.17537735818412284]","[-1,-1,-1]","[0.0332437343962194,0.19697512665028497]","[1,1,1]","[0.17448799601455556,-0.07302622507653217]","[-1,-1,-1]","[0.017563386546803637,-0.05143994737827487]","[-1,-1,-1]","[-0.07784967763669466,0.1838856036368871]","[1,1,1]","[0.09920247926736027,-0.12732744349696734]","[-1,-1,-1]","[-0.13943592227486487,-0.03940959787070143]","[-1,-1,-1]","[-0.07100918528796649,-0.034264911330596066]","[-1,-1,-1]","[0.06723971661454202,-0.04465435740954248]","[1,1,1]","[-0.10509985325876899,-0.06372116713023805]","[-1,-1,-1]","[0.09042551189419401,-0.08322600360816794]","[-1,-1,-1]","[-0.01814270859108687,0.12364744931793248]","[-1,-1,-1]","[-0.033495973742388066,-0.0044265926638205975]","[1,1,1]","[0.10709823949586726,0.14842792846033717]","[-1,-1,-1]","[-0.022019905183302796,-0.11423140012497421]","[1,1,1]","[0.0008899149136969435,0.03622849022442512]","[1,1,1]","[-0.04264977588569763,0.03540802100265395]","[-1,-1,-1]","[0.1638217077989853,-0.023943687149141937]","[1,1,1]","[-0.019840818777645368,-0.18882146704112074]","[1,1,1]","[0.04759310465814755,-0.13526655964378892]","[1,1,1]","[0.14176791007102502,0.056848666296446436]","[-1,-1,-1]","[0.05955060140831971,0.009605591164399371]","[-1,-1,-1]","[0.14507044441034608,0.11122026919723864]","[1,1,1]","[-0.030456626237403268,0.18663829158751627]","[1,1,1]","[-0.10447895222516354,-0.1262866751216461]","[1,1,1]","[-0.07567192353463638,0.14285136436593404]","[1,1,1]","[-0.13230842842782328,0.13035127716870856]","[-1,-1,-1]","[0.1802844190281943,0.07702499673057908]","[-1,-1,-1]","[0.02,0.02]",85.0406,0,9,9,113,1,,,,,,,
,,,,,,,67b602e2e2bfcaa2a6c901ed,682f0fd011c131d7b751cca5,2025-05-22_14h07.53.056,cuing_paradigm_dot,2024.1.5,Win32,60.24096386,682d573fa47f1360d1451895,,,,,,,,,,,85.0429,85.5394,,,85.7944,86.2616,left,0.4519,,,,,,,,,0.9,,,,,,85.5395,85.7943,86.2616,"[-0.031994011178337396,0.09631707834741098]","[1,1,1]","[0.04694316912387324,-0.1222562479597716]","[1,1,1]","[0.03631861826218452,0.09278953520577889]","[-1,-1,-1]","[-0.11871393034172303,0.045673832874584853]","[1,1,1]","[-0.10786795067820662,0.12007727623891144]","[1,1,1]","[0.03644358851889584,0.03399028060624614]","[-1,-1,-1]","[-0.05704856497404367,-0.15850413222794343]","[1,1,1]","[0.05054768627865395,0.18814070579970676]","[1,1,1]","[0.08653051230654707,-0.15222932854818302]","[1,1,1]","[0.10320681368332757,0.11340349376817062]","[1,1,1]","[0.08594974167142118,-0.002830613802999064]","[1,1,1]","[-0.020092739013494468,-0.10782976745758115]","[1,1,1]","[0.007710212160364979,-0.012143671531292075]","[1,1,1]","[0.1378802813796679,-0.1064997550352984]","[1,1,1]","[-0.0058735873937766385,0.12718152236840066]","[1,1,1]","[0.18354500126770623,-0.06041246227530302]","[1,1,1]","[0.1090674464729402,0.06750246604012886]","[1,1,1]","[-0.11422165216035199,-0.1239008920962948]","[1,1,1]","[-0.16836576368300207,-0.05430305346961562]","[1,1,1]","[-0.003725735585562965,-0.1886064746497165]","[1,1,1]","[-0.11019064158759465,-0.0055398902104024485]","[1,1,1]","[0.1598884693893465,0.10478472650171149]","[1,1,1]","[0.10407300505821526,-0.05388848520141706]","[1,1,1]","[-0.08530118894480714,-0.09425461454239858]","[1,1,1]","[-0.0740245390177467,0.16400807347921148]","[1,1,1]","[-0.15600477288282466,0.10332501611464243]","[1,1,1]","[-0.19182406351676012,0.05147022230505461]","[1,1,1]","[0.05629378404592615,-0.06645984579185273]","[1,1,1]","[-0.0035201911226153734,0.19243465930680648]","[1,1,1]","[-0.06900340631631718,-0.0038390826416835108]","[1,1,1]","[0.18578540476086383,0.0693763643745198]","[1,1,1]","[-0.16895799168158845,0.0019201690906041013]","[-1,-1,-1]","[0.02,0.02]",87.3593,0,10,10,192,1,,,,,,,
,,,,,,,67b602e2e2bfcaa2a6c901ed,682f0fd011c131d7b751cca5,2025-05-22_14h07.53.056,cuing_paradigm_dot,2024.1.5,Win32,60.24096386,682d573fa47f1360d1451895,,,,,,,,,,,87.3604,87.8558,,,88.1069,88.5732,right,0.4555,,,,,,,,,0.4,,,,,,87.856,88.1069,88.5733,"[-0.08551861183120694,-0.05302934228860761]","[1,1,1]","[-0.09722452654138547,-0.09504544552813342]","[1,1,1]","[0.07413540040724709,0.17955523427615092]","[-1,-1,-1]","[0.019863912915082636,0.04606112395651024]","[1,1,1]","[0.06956173931609455,-0.07695309749969154]","[1,1,1]","[-0.060902279112432185,-0.016188781009254916]","[-1,-1,-1]","[-0.1182826238540566,0.08126082788190225]","[1,1,1]","[-0.1439757098920325,-0.07494351675978528]","[-1,-1,-1]","[0.028920043958135626,-0.12686507352364404]","[-1,-1,-1]","[0.011928691132084172,-0.08500471349501551]","[-1,-1,-1]","[0.16215455869304712,0.00412690141758986]","[-1,-1,-1]","[-0.04921498855672305,0.047181365499189956]","[1,1,1]","[0.06004068571612394,0.03221886432702336]","[-1,-1,-1]","[0.16555498266950605,-0.03831664477279271]","[1,1,1]","[0.08899380964363808,0.07327620871450471]","[-1,-1,-1]","[0.09662793905460032,-0.15856916848581748]","[-1,-1,-1]","[0.0660615803180594,-0.014886284339273529]","[-1,-1,-1]","[-0.16155355756609774,0.00004659351562925611]","[1,1,1]","[-0.11560800992817268,-0.1550845993632233]","[-1,-1,-1]","[0.11463338956434282,-0.08720744172843439]","[-1,-1,-1]","[-0.011718249669839802,-0.1347483197218882]","[-1,-1,-1]","[-0.01767362817996945,-0.006574273235911088]","[1,1,1]","[-0.03561625748532018,0.16162705336409153]","[-1,-1,-1]","[0.010734374806408094,0.11067200781417147]","[1,1,1]","[0.09099196265517703,0.13698512175536606]","[-1,-1,-1]","[0.16596319106877314,0.050241353881857354]","[1,1,1]","[0.1217513689326664,-0.022964655273139428]","[1,1,1]","[-0.051251250116284584,-0.18516357306490944]","[-1,-1,-1]","[-0.13928413229755057,-0.11795137906750638]","[-1,-1,-1]","[0.036526517471066576,0.15132703861417382]","[-1,-1,-1]","[-0.10021069493413876,0.027142052452973256]","[-1,-1,-1]","[0.023164432495975527,-0.0010193817757336667]","[1,1,1]","[0.02,0.02]",89.6727,0,11,11,57,1,,,,,,,
,,,,,,,67b602e2e2bfcaa2a6c901ed,682f0fd011c131d7b751cca5,2025-05-22_14h07.53.056,cuing_paradigm_dot,2024.1.5,Win32,60.24096386,682d573fa47f1360d1451895,,,,,,,,,,,89.6743,90.1729,,,90.4241,90.9897,right,0.5515,,,,,,,,,0.4,,,,,,90.1729,90.4241,90.9899,"[0.1285688640865094,0.09037397042433996]","[1,1,1]","[0.08373536085159518,0.17258024445840997]","[1,1,1]","[0.04666309408051236,0.1375714217192163]","[-1,-1,-1]","[-0.08691159796291975,-0.15169051442904782]","[-1,-1,-1]","[0.08880443703107156,0.09708731095554868]","[1,1,1]","[0.027557032304439424,0.1921139349657884]","[-1,-1,-1]","[-0.05107636427701116,0.11642461461381301]","[-1,-1,-1]","[-0.13777406797762987,-0.0817239542578753]","[-1,-1,-1]","[0.023352635619206683,0.10346132866505897]","[-1,-1,-1]","[0.12927268056205277,-0.03484084964871265]","[-1,-1,-1]","[0.022682424890196794,-0.0031513187828470473]","[1,1,1]","[0.14774772755084062,0.049135035667424484]","[1,1,1]","[-0.10921858896811261,-0.048746516777921814]","[1,1,1]","[-0.02885298404835874,0.06648805445247896]","[-1,-1,-1]","[0.029274261361000534,-0.08640421286344731]","[-1,-1,-1]","[0.03831608661837032,-0.1514782667813685]","[-1,-1,-1]","[-0.0820585876890198,0.05878360119891691]","[1,1,1]","[-0.06651245233930103,-0.09854456139314612]","[-1,-1,-1]","[-0.13720874816975578,-0.1356636457564811]","[-1,-1,-1]","[0.003986117321579998,0.14295780591804771]","[-1,-1,-1]","[-0.1919685840301337,0.007901768434362648]","[1,1,1]","[0.1459761433805496,-0.12406731323919999]","[1,1,1]","[-0.08901527189660262,0.17630919389532868]","[-1,-1,-1]","[-0.15508148637438787,0.026946161816633694]","[-1,-1,-1]","[-0.00610433687423523,-0.17170778023758984]","[-1,-1,-1]","[-0.11457115092636849,0.09102612282064573]","[1,1,1]","[0.0642123016988843,-0.059285668382630406]","[-1,-1,-1]","[0.10320688521775288,-0.12856405662836612]","[1,1,1]","[0.1763212466535276,-0.007421680693070111]","[1,1,1]","[-0.05827942867875855,-0.05706455968361475]","[1,1,1]","[-0.03757812792855574,0.003066195602332147]","[-1,-1,-1]","[-0.023722184466667,-0.12777818796685506]","[-1,-1,-1]","[0.02,0.02]",92.0891,0,12,12,59,1,,,,,,,
,,,,,,,67b602e2e2bfcaa2a6c901ed,682f0fd011c131d7b751cca5,2025-05-22_14h07.53.056,cuing_paradigm_dot,2024.1.5,Win32,60.24096386,682d573fa47f1360d1451895,,,,,,,,,,,92.0905,92.5897,,,92.8398,93.2391,left,0.386,,,,,,,,,0.55,,,,,,92.5897,92.8397,93.2394,"[0.08924988548214094,-0.02745388157699777]","[1,1,1]","[-0.07645965254594328,-0.18311968309639992]","[1,1,1]","[-0.08881546698724142,0.06232134443476332]","[1,1,1]","[0.16248691820248487,0.06276701223367585]","[1,1,1]","[0.14693769811942575,-0.045709180370239216]","[-1,-1,-1]","[-0.00957656882652217,0.06997751290764363]","[1,1,1]","[0.1449376268926019,0.015597249640076175]","[-1,-1,-1]","[0.017831168264232283,-0.15996716902689972]","[1,1,1]","[-0.1921615807304064,0.002549131066676727]","[1,1,1]","[0.047790027241398136,-0.08036100376320982]","[1,1,1]","[-0.10401419927335173,0.005962405846531032]","[-1,-1,-1]","[-0.019361676007128015,-0.19426436183942186]","[-1,-1,-1]","[0.03346806348330153,-0.006146896892428325]","[-1,-1,-1]","[0.09960618701315112,0.10025132758961701]","[1,1,1]","[-0.09663124051516855,-0.05516628159856014]","[-1,-1,-1]","[-0.18324804117744722,0.0436000651270644]","[1,1,1]","[-0.058763416148135975,-0.01838635011884109]","[1,1,1]","[-0.024906610875981932,-0.09196111747630344]","[1,1,1]","[-0.18275065291307035,-0.04386124124229216]","[1,1,1]","[0.0724826082351365,0.02768400615246392]","[-1,-1,-1]","[-0.0778486763308556,0.16604948876372536]","[-1,-1,-1]","[0.19756506831738554,0.015279400277600759]","[-1,-1,-1]","[0.01882158713453429,0.11773362163502529]","[-1,-1,-1]","[0.13029802002700167,0.14915890691009936]","[1,1,1]","[-0.10545996857013763,0.13439410580080194]","[1,1,1]","[0.11338788186405163,-0.1344392914499919]","[-1,-1,-1]","[0.07470156477339429,0.16932844932587476]","[-1,-1,-1]","[-0.010513778563142024,0.02340793460727906]","[1,1,1]","[-0.05011913506741142,-0.06040218768408194]","[1,1,1]","[-0.10174607982624172,-0.1368464451498392]","[-1,-1,-1]","[-0.12588229325885056,0.08347800901112344]","[1,1,1]","[-0.15446810778133555,-0.08811623928344824]","[-1,-1,-1]","[0.02,0.02]",94.3386,0,13,13,134,1,,,,,,,
,,,,,,,67b602e2e2bfcaa2a6c901ed,682f0fd011c131d7b751cca5,2025-05-22_14h07.53.056,cuing_paradigm_dot,2024.1.5,Win32,60.24096386,682d573fa47f1360d1451895,,,,,,,,,,,94.3399,94.8383,,,95.0908,95.6427,left,0.534,,,,,,,,,0.4,,,,,,94.8383,95.0907,95.6428,"[0.1333701152687953,0.07516014409160415]","[-1,-1,-1]","[-0.1446887279765105,0.01684780968834361]","[1,1,1]","[-0.07512461019506796,-0.13000019056635004]","[1,1,1]","[-0.046465892113384026,0.10717560364547962]","[-1,-1,-1]","[-0.09737106263032085,0.009166808556109771]","[1,1,1]","[0.09788905256850652,-0.029162129583827984]","[-1,-1,-1]","[0.058032414458101575,0.13385589847530122]","[-1,-1,-1]","[-0.08378951028295198,0.15444751426038647]","[1,1,1]","[0.02841869190698234,-0.03098397388187439]","[-1,-1,-1]","[0.18709368293784442,-0.019878890137508654]","[-1,-1,-1]","[0.06712117149089833,0.04669891086230161]","[-1,-1,-1]","[0.17861816817132797,-0.07421575123853714]","[1,1,1]","[-0.11760034912909247,-0.0394168241815724]","[-1,-1,-1]","[0.1269537949588287,-0.14310971460226934]","[-1,-1,-1]","[-0.04783501934387842,-0.08081140913730829]","[1,1,1]","[0.04681743634839174,-0.19408455859391166]","[1,1,1]","[0.06081911337632217,0.0012506833870533445]","[-1,-1,-1]","[0.19344901974716097,0.0413907521962997]","[1,1,1]","[-0.04981437683698926,0.03080678243339175]","[1,1,1]","[0.11127449740508052,0.10896927759772859]","[-1,-1,-1]","[0.013096701925811707,0.11712725390515871]","[1,1,1]","[0.017126388727680235,0.03276730744248706]","[-1,-1,-1]","[0.05231531386296438,-0.12674800483392884]","[-1,-1,-1]","[0.030053900560261776,-0.09332649485859233]","[-1,-1,-1]","[-0.008029062398889016,0.174517780896295]","[-1,-1,-1]","[-0.15635813455947448,-0.0934650577977124]","[-1,-1,-1]","[-0.18075514084220437,0.0798709832468812]","[1,1,1]","[-0.013781315275342425,-0.04130050323557752]","[-1,-1,-1]","[0.10731604235089943,0.16735435061749593]","[-1,-1,-1]","[-0.12492908318560306,0.06777009698425505]","[-1,-1,-1]","[0.13583522338105153,-0.09725942940695531]","[1,1,1]","[0.03208511187681833,0.17544795533776708]","[1,1,1]","[0.02,0.02]",96.7397,0,14,14,35,1,,,,,,,
,,,,,,,67b602e2e2bfcaa2a6c901ed,682f0fd011c131d7b751cca5,2025-05-22_14h07.53.056,cuing_paradigm_dot,2024.1.5,Win32,60.24096386,682d573fa47f1360d1451895,,,,,,,,,,,96.7412,97.2423,,,97.4903,97.7722,right,0.2706,,,,,,,,,0.1,,,,,,97.2424,97.4901,97.7723,"[0.114600026035784,0.04373562968968019]","[-1,-1,-1]","[0.07371981600352234,-0.05466459688554296]","[-1,-1,-1]","[-0.009046889628952769,0.15301324213126338]","[-1,-1,-1]","[-0.023667240751079087,0.10389161198483646]","[-1,-1,-1]","[0.1569484227786193,-0.11974141391277739]","[-1,-1,-1]","[0.04977715278344031,0.09758943871699091]","[-1,-1,-1]","[0.038826338757153786,-0.1809831470234361]","[1,1,1]","[-0.13498569330610688,-0.05557310511650241]","[-1,-1,-1]","[-0.12608365060077634,-0.13297898660423377]","[-1,-1,-1]","[-0.034325295549447445,0.021470788378948464]","[-1,-1,-1]","[0.13048397147194488,0.0040452962144454]","[-1,-1,-1]","[-0.0359375369037486,-0.18279825975558303]","[-1,-1,-1]","[0.027462580736267783,-0.015081189583862396]","[-1,-1,-1]","[0.11596514182010083,-0.12072035746943825]","[-1,-1,-1]","[0.06972174427148156,0.021141417617673172]","[-1,-1,-1]","[-0.049773702158115836,-0.0896072454243033]","[1,1,1]","[-0.11703049934921862,0.12854368859176138]","[-1,-1,-1]","[-0.09245984875831828,-0.10959804908839604]","[-1,-1,-1]","[0.133770906387106,-0.07719808914040908]","[-1,-1,-1]","[0.18802346730612593,-0.05978911428128451]","[1,1,1]","[0.07839781378481517,-0.1466114385688426]","[-1,-1,-1]","[0.147404557478903,0.12359994647884454]","[-1,-1,-1]","[-0.0985528486213685,-0.1705421476835545]","[-1,-1,-1]","[-0.002283444163882434,0.045748021981088106]","[-1,-1,-1]","[0.19368129408187007,0.0060502168580345]","[-1,-1,-1]","[0.0648614542529328,0.15168965770276904]","[-1,-1,-1]","[0.15699376197593198,0.04290828049616042]","[-1,-1,-1]","[-0.13352676165282432,-0.012777786271595065]","[-1,-1,-1]","[-0.1742940731308162,0.08961810225641927]","[-1,-1,-1]","[-0.09122403959161504,-0.014381937792136687]","[-1,-1,-1]","[-0.022579404374516672,-0.017657666244913075]","[-1,-1,-1]","[-0.11571301589678452,0.026868672835815514]","[-1,-1,-1]","[0.02,0.02]",98.872,0,15,15,24,1,,,,,,,
,,,,,,,67b602e2e2bfcaa2a6c901ed,682f0fd011c131d7b751cca5,2025-05-22_14h07.53.056,cuing_paradigm_dot,2024.1.5,Win32,60.24096386,682d573fa47f1360d1451895,,,,,,,,,,,98.8742,99.3719,,,99.6269,100.2265,right,0.5832,,,,,,,,,0.4,,,,,,99.3725,99.6269,100.2265,"[-0.16006066324310106,0.09309890456225234]","[-1,-1,-1]","[0.09835913714514165,-0.12996616513047848]","[1,1,1]","[-0.026748201976838804,0.18712191827462377]","[1,1,1]","[0.02381451819033545,0.10377960207089774]","[1,1,1]","[0.020192155505914917,-0.16629957712471663]","[-1,-1,-1]","[0.155645478033839,0.0748331789343023]","[1,1,1]","[-0.07400551550146074,-0.11375442535483013]","[-1,-1,-1]","[0.12852296581391404,0.14455801520274927]","[-1,-1,-1]","[-0.0983465683604202,0.07486494293845838]","[-1,-1,-1]","[0.0692598303658594,0.16472164451734111]","[1,1,1]","[0.014226499262111756,-0.02624174001635704]","[1,1,1]","[-0.09013584007912447,0.16435641763243558]","[-1,-1,-1]","[-0.1754513941503689,-0.07733100772397361]","[-1,-1,-1]","[0.061690815548995324,-0.07023627547411446]","[-1,-1,-1]","[-0.016470536479694032,-0.14203577297359976]","[-1,-1,-1]","[-0.05038156300543096,-0.05971963668146381]","[-1,-1,-1]","[0.13733698370763278,-0.044320009299019296]","[-1,-1,-1]","[0.06716059513629125,-0.007031744661548201]","[-1,-1,-1]","[0.08484601966535105,0.04187963118268813]","[-1,-1,-1]","[-0.05651605700228877,0.06423439979598694]","[-1,-1,-1]","[-0.09473954363298258,-0.1708631933152095]","[-1,-1,-1]","[0.19106375830119046,-0.010026045964988338]","[1,1,1]","[0.18527903520704797,-0.06205924570130225]","[1,1,1]","[-0.11869275671619585,-0.04279878260537134]","[-1,-1,-1]","[-0.17626312242484124,0.013352146205229311]","[-1,-1,-1]","[-0.009574557836989461,0.12986541972441282]","[1,1,1]","[0.08415988535755077,-0.17698997050461932]","[-1,-1,-1]","[-0.051524433533965235,-0.17577507518747498]","[1,1,1]","[-0.11087939108534217,0.008651349412302724]","[1,1,1]","[-0.12620928073412185,0.11871736801928048]","[1,1,1]","[-0.03974145309593993,-0.002330890682720781]","[-1,-1,-1]","[0.030273283191692674,0.03330983524948573]","[1,1,1]","[0.02,0.02]",101.3219,0,16,16,51,1,,,,,,,
,,,,,,,67b602e2e2bfcaa2a6c901ed,682f0fd011c131d7b751cca5,2025-05-22_14h07.53.056,cuing_paradigm_dot,2024.1.5,Win32,60.24096386,682d573fa47f1360d1451895,,,,,,,,,,,101.3243,101.8219,,,102.0759,102.4239,right,0.3316,,,,,,,,,0.6,,,,,,101.8221,102.0758,102.424,"[-0.08983270571465833,-0.08547369463336509]","[-1,-1,-1]","[-0.007364967733284941,-0.09286460554587553]","[-1,-1,-1]","[0.1606795331174486,0.08717352627755154]","[1,1,1]","[0.08606928991725805,-0.10183256670211319]","[-1,-1,-1]","[0.07865446269424235,0.15437601813148877]","[1,1,1]","[-0.0743132088286995,0.016013309253741934]","[1,1,1]","[0.129084024568364,-0.008304175703827056]","[1,1,1]","[-0.03828946259935251,0.0969118128162404]","[-1,-1,-1]","[0.0352211136831899,-0.13785223855907924]","[1,1,1]","[-0.15063721046963632,-0.05422195503621851]","[1,1,1]","[0.023671464696784324,0.16336354015455826]","[-1,-1,-1]","[0.04518898196927088,0.12112222270162905]","[1,1,1]","[-0.14804418905696928,0.0580524213308053]","[-1,-1,-1]","[-0.0048184438026403235,-0.16160310019118052]","[1,1,1]","[-0.10050969929305603,-0.14754508709726163]","[1,1,1]","[-0.007457589324105891,0.006617784695138283]","[1,1,1]","[0.05480864738106381,0.1887428250939129]","[1,1,1]","[0.14187545307403035,0.1311801640633635]","[-1,-1,-1]","[0.029988789565226066,0.032673228693185195]","[-1,-1,-1]","[-0.13140580223424275,0.02050296616778408]","[-1,-1,-1]","[-0.1493997491444386,-0.09566963461806428]","[-1,-1,-1]","[-0.11578772373055624,0.10729959692061358]","[1,1,1]","[-0.059149939251766856,-0.17900989090746303]","[-1,-1,-1]","[-0.0068153569798131055,0.07064852430554341]","[1,1,1]","[0.10690594611466775,-0.05879370389323195]","[1,1,1]","[0.0017293900415738875,0.12599299901746286]","[1,1,1]","[0.030395115337769632,-0.01833002905435255]","[-1,-1,-1]","[-0.03692449756119734,-0.04980780248035066]","[-1,-1,-1]","[0.16833234950749215,-0.09267728052067332]","[1,1,1]","[0.13871226329165773,0.05009615177316709]","[1,1,1]","[0.07410875362884185,-0.15683322911072287]","[1,1,1]","[0.03385101091903316,0.07398466637375607]","[1,1,1]","[0.02,0.02]",103.5218,0,17,17,171,1,,,,,,,
,,,,,,,67b602e2e2bfcaa2a6c901ed,682f0fd011c131d7b751cca5,2025-05-22_14h07.53.056,cuing_paradigm_dot,2024.1.5,Win32,60.24096386,682d573fa47f1360d1451895,,,,,,,,,,,103.5235,104.0222,,,104.2752,104.5731,right,0.2826,,,,,,,,,0.1,,,,,,104.0223,104.2745,104.5732,"[0.12108882241090184,0.02988760176759866]","[-1,-1,-1]","[-0.11062209932003242,0.08456566059918846]","[-1,-1,-1]","[-0.09585953533610835,-0.15650081669239968]","[-1,-1,-1]","[-0.09035063853479777,-0.08060072844989502]","[-1,-1,-1]","[-0.036043592412569554,-0.02216466368070262]","[-1,-1,-1]","[0.05490406714506478,-0.08243955517182694]","[-1,-1,-1]","[0.031320576852026195,-0.17255138226107491]","[-1,-1,-1]","[-0.018335595632983533,0.035136007878452925]","[1,1,1]","[0.15062533122714794,-0.024929935873751783]","[-1,-1,-1]","[0.18233224968004194,0.04801621887352398]","[-1,-1,-1]","[0.15882167600974725,0.11369868226019378]","[-1,-1,-1]","[0.011191481692822747,-0.11048940430131521]","[-1,-1,-1]","[-0.04734244916478644,-0.06552647288517521]","[1,1,1]","[-0.08880768910618271,0.008948669560148665]","[-1,-1,-1]","[0.04450882447059641,0.13336052365569234]","[1,1,1]","[-0.11079353002206643,0.043551170092260616]","[-1,-1,-1]","[0.08722230259674477,0.0548451698227742]","[-1,-1,-1]","[0.021525036073707118,-0.015764543554153288]","[-1,-1,-1]","[0.10449210842408317,-0.039815805473389705]","[-1,-1,-1]","[-0.05092587993104643,-0.1878348564056175]","[-1,-1,-1]","[0.16375098579930455,-0.09705551166502452]","[-1,-1,-1]","[-0.12944771145757902,-0.1332675458657188]","[-1,-1,-1]","[-0.1946188869820956,0.02248781575181886]","[-1,-1,-1]","[0.06903340783479774,-0.01579499634177502]","[-1,-1,-1]","[0.018125345602231436,0.0640557057090227]","[-1,-1,-1]","[-0.07137756721896897,0.06281788709796195]","[-1,-1,-1]","[-0.07121359887510341,0.1548773107603546]","[-1,-1,-1]","[0.12877598855078115,-0.12445124764394434]","[-1,-1,-1]","[-0.03601128934881642,0.1764600566653982]","[-1,-1,-1]","[-0.16018698089578473,-0.03713382207224245]","[-1,-1,-1]","[0.07251177461125366,0.18301320223134634]","[-1,-1,-1]","[-0.12728332425388963,-0.007308072080262131]","[-1,-1,-1]","[0.02,0.02]",105.672,0,18,18,21,1,,,,,,,
,,,,,,,67b602e2e2bfcaa2a6c901ed,682f0fd011c131d7b751cca5,2025-05-22_14h07.53.056,cuing_paradigm_dot,2024.1.5,Win32,60.24096386,682d573fa47f1360d1451895,,,,,,,,,,,105.6732,106.1719,,,106.4234,106.9554,right,0.523,,,,,,,,,0.45,,,,,,106.1721,106.4233,106.9555,"[0.0907850954589091,-0.07677719214763809]","[1,1,1]","[0.17147129013999113,-0.0461875113537473]","[-1,-1,-1]","[0.1278833594506232,-0.11756405955521254]","[-1,-1,-1]","[0.05094389982519985,0.01920210170074134]","[-1,-1,-1]","[-0.1158584240709385,-0.1281028714639533]","[-1,-1,-1]","[-0.18634425646441938,-0.005008158781036415]","[1,1,1]","[0.1813500268771326,0.049949402049684996]","[-1,-1,-1]","[0.14077733993329405,-0.07261916134009146]","[1,1,1]","[0.021766445884549023,-0.19281742794739887]","[-1,-1,-1]","[-0.04644148871928059,-0.1337719152363951]","[-1,-1,-1]","[-0.1326079748068578,0.08193304345861194]","[-1,-1,-1]","[0.019818996537161286,-0.09547738489152197]","[-1,-1,-1]","[0.0768892682439384,-0.16565747714757748]","[-1,-1,-1]","[-0.037701362146187585,0.114344516044883]","[-1,-1,-1]","[-0.0015672346970523794,0.057255007018544156]","[-1,-1,-1]","[0.026659477645090426,0.09195856725678694]","[1,1,1]","[-0.06091399240944548,-0.020985166640293734]","[-1,-1,-1]","[-0.18725198751435532,0.03900388237107484]","[1,1,1]","[0.12376363225710003,0.09990396860439026]","[-1,-1,-1]","[-0.03834225107745214,-0.18392020724080044]","[-1,-1,-1]","[0.003191071010929966,-0.011084257419020877]","[-1,-1,-1]","[-0.1071472204508162,0.0187918533747863]","[1,1,1]","[-0.1262463450557019,-0.06271573116775928]","[1,1,1]","[0.06389667499960214,0.1313871132831643]","[-1,-1,-1]","[-0.14121425588906703,-0.02219011289600481]","[1,1,1]","[0.13248895468394037,0.015036020699034938]","[1,1,1]","[-0.09217455596413372,0.08035093657841325]","[1,1,1]","[-0.05141005439225143,0.021639047537698925]","[1,1,1]","[0.12726406234238366,0.14467820398170242]","[1,1,1]","[-0.019695331111427582,0.19435623363876917]","[-1,-1,-1]","[0.053422079557411434,-0.04139153419026952]","[1,1,1]","[0.18671910814628148,-0.005579963227010959]","[1,1,1]","[0.02,0.02]",108.0549,0,19,19,77,1,,,,,,,
,,,,,,,67b602e2e2bfcaa2a6c901ed,682f0fd011c131d7b751cca5,2025-05-22_14h07.53.056,cuing_paradigm_dot,2024.1.5,Win32,60.24096386,682d573fa47f1360d1451895,,,,,,,,,,,108.056,108.5548,,,108.8059,109.7553,right,0.9403,,,,,,,,,0.5,,,,,,108.5548,108.8058,109.7557,"[0.14465047422812838,0.010236192509124435]","[1,1,1]","[0.05792232140809215,-0.13507163336425676]","[1,1,1]","[-0.15924236963271404,0.044323314774603634]","[1,1,1]","[-0.027487220189329323,0.15567517441189502]","[1,1,1]","[0.06020728806632646,0.10269970218105062]","[1,1,1]","[0.03565050848388602,0.0005218122795221975]","[-1,-1,-1]","[-0.03852456280338914,-0.17637930922904696]","[-1,-1,-1]","[-0.0832817678202133,0.14762994516200337]","[-1,-1,-1]","[0.1023104718574021,-0.1566679328882422]","[1,1,1]","[-0.04426932436415312,0.04433007443875093]","[-1,-1,-1]","[0.00598648582483975,-0.13071791745109898]","[1,1,1]","[-0.0016621757077435308,0.10241295091422037]","[-1,-1,-1]","[-0.12780910877079776,0.08453192074246038]","[-1,-1,-1]","[0.1727038182939631,0.06824861614598476]","[1,1,1]","[0.10656977329867648,-0.05042106563274085]","[-1,-1,-1]","[-0.039393336570519855,0.11704976496288558]","[1,1,1]","[-0.08602436550273033,0.08523298005323061]","[-1,-1,-1]","[-0.13775218922474494,-0.08379145531561859]","[1,1,1]","[0.07138961693788216,-0.0766164374026051]","[1,1,1]","[0.1111019346064763,0.12170676663740992]","[-1,-1,-1]","[0.051002357149732655,0.14430462790708581]","[1,1,1]","[0.140433795874536,-0.08305035779460022]","[1,1,1]","[-0.05588771085354441,-0.020075017965959317]","[1,1,1]","[-0.09998425700448241,-0.1295931142585942]","[-1,-1,-1]","[-0.02789864898063693,-0.10588861968476862]","[-1,-1,-1]","[-0.15860973621631075,-0.03808450122116723]","[1,1,1]","[0.04119640126215183,-0.17219711825191902]","[-1,-1,-1]","[-0.010948741840489776,-0.06541765641933783]","[1,1,1]","[0.12575198400622092,0.07466444516174989]","[-1,-1,-1]","[-0.17646156352316894,0.0844296104727187]","[-1,-1,-1]","[-0.09337456461505515,-0.07285524304791632]","[-1,-1,-1]","[0.1628015147103388,-0.046827955878537456]","[-1,-1,-1]","[0.02,0.02]",110.855,0,20,20,105,1,,,,,,,
,,,,,,,67b602e2e2bfcaa2a6c901ed,682f0fd011c131d7b751cca5,2025-05-22_14h07.53.056,cuing_paradigm_dot,2024.1.5,Win32,60.24096386,682d573fa47f1360d1451895,,,,,,,,,,,110.8563,111.3549,,,111.6067,112.0747,right,0.4602,,,,,,,,,0.4,,,,,,111.3551,111.6066,112.0748,"[-0.06485526655140612,0.16010688793329636]","[-1,-1,-1]","[0.037168373739330754,0.15688909378357527]","[-1,-1,-1]","[-0.12483694871362094,-0.13762967853086513]","[1,1,1]","[0.027440955152857268,-0.039522477608897266]","[-1,-1,-1]","[0.09495775608874454,0.08423959348731727]","[-1,-1,-1]","[-0.014534773927208072,0.11734128458035298]","[-1,-1,-1]","[0.06420125282622718,0.12340453923997231]","[-1,-1,-1]","[0.05890436756386357,-0.13885638725808241]","[1,1,1]","[-0.015567711225046235,0.049579765268585686]","[-1,-1,-1]","[-0.05593371083766451,-0.12823541757818865]","[-1,-1,-1]","[-0.025812596401088943,-0.06748720899033318]","[1,1,1]","[-0.1609143598731802,0.07455305577841922]","[-1,-1,-1]","[0.09216970688959304,0.014814889607468879]","[1,1,1]","[0.1631597216869519,0.021549019023601585]","[1,1,1]","[-0.15652625158746958,-0.04899929418992563]","[1,1,1]","[-0.008651060942229708,0.17935893986666673]","[-1,-1,-1]","[0.17542544239460509,0.061824522446583395]","[1,1,1]","[0.13631037545465455,0.07267235771895138]","[-1,-1,-1]","[0.025452621591519727,0.0642609120559935]","[1,1,1]","[0.12336803923178725,-0.13709357425415725]","[-1,-1,-1]","[0.09463656905793957,-0.1688221356273691]","[1,1,1]","[0.002405642749563615,-0.18557535504196593]","[1,1,1]","[0.03989353721094782,0.010316357870534476]","[1,1,1]","[-0.06930233597149364,-0.09021094582903694]","[-1,-1,-1]","[-0.1214886446375957,0.032501984186046565]","[1,1,1]","[0.10815483097720023,-0.09604418930356158]","[-1,-1,-1]","[-0.09312907557596825,-0.1691091942180466]","[-1,-1,-1]","[-0.03149521297337173,-0.006386664522196251]","[-1,-1,-1]","[0.1296527517733285,0.15116114827263089]","[-1,-1,-1]","[0.1984330095203658,-0.008769747962244947]","[1,1,1]","[-0.11327880431038272,-0.09244246121630012]","[-1,-1,-1]","[-0.07424757732308822,0.10450022525681375]","[-1,-1,-1]","[0.02,0.02]",113.1716,0,21,21,30,1,,,,,,,
,,,,,,,67b602e2e2bfcaa2a6c901ed,682f0fd011c131d7b751cca5,2025-05-22_14h07.53.056,cuing_paradigm_dot,2024.1.5,Win32,60.24096386,682d573fa47f1360d1451895,,,,,,,,,,,113.1733,113.672,,,113.923,114.3053,right,0.368,,,,,,,,,0.1,,,,,,113.672,113.9229,114.3055,"[-0.07661660982775358,0.025231283838745743]","[1,1,1]","[0.016420081122251896,0.05115090762352681]","[-1,-1,-1]","[0.19368473313551252,-0.027407225253248672]","[-1,-1,-1]","[-0.18835895187078888,-0.03159873576663909]","[-1,-1,-1]","[0.10145569070650393,-0.06796695059541094]","[-1,-1,-1]","[-0.11013938644957756,0.1609788472189796]","[-1,-1,-1]","[0.034139056177822376,0.1788961834682004]","[-1,-1,-1]","[-0.10873644549429246,-0.11989820612595191]","[-1,-1,-1]","[0.10854206963662463,0.166868062762289]","[-1,-1,-1]","[0.04861509228534438,-0.17710869497173884]","[-1,-1,-1]","[0.009497937776492273,0.1371925430651606]","[-1,-1,-1]","[-0.0894653493512956,-0.024507124282601697]","[-1,-1,-1]","[0.11380289870532125,0.06434793182671485]","[-1,-1,-1]","[0.07510763427332984,-0.11355708244542671]","[1,1,1]","[-0.07461033484482679,0.18310170160858674]","[-1,-1,-1]","[0.1843811748679636,0.01704708745309636]","[-1,-1,-1]","[0.04085439874131141,-0.08000190119837373]","[-1,-1,-1]","[-0.0232379355709244,-0.16624271607652777]","[1,1,1]","[-0.11737061980558602,0.061756663490491207]","[-1,-1,-1]","[0.041971551126111104,-0.1364265675825685]","[-1,-1,-1]","[-0.06712659664144832,-0.1723426710717257]","[-1,-1,-1]","[-0.026933182694302817,-0.11919919580883208]","[-1,-1,-1]","[0.10291606797015898,-0.0009356873771325585]","[-1,-1,-1]","[-0.003951265811917154,0.09222016147389966]","[-1,-1,-1]","[0.010454839520010781,-0.019706516757873774]","[-1,-1,-1]","[-0.15057919638901493,0.03441800225935277]","[-1,-1,-1]","[0.18720540325838342,0.06563463450548376]","[-1,-1,-1]","[0.14051277575260465,-0.1335064454453291]","[-1,-1,-1]","[-0.06592529796157272,-0.07429658348633207]","[-1,-1,-1]","[-0.17013020957627703,-0.07872512409822595]","[-1,-1,-1]","[-0.16752105419260963,0.09317081547183793]","[-1,-1,-1]","[-0.0348868024863218,0.1740427140987584]","[-1,-1,-1]","[0.02,0.02]",115.4049,0,22,22,28,1,,,,,,,
,,,,,,,67b602e2e2bfcaa2a6c901ed,682f0fd011c131d7b751cca5,2025-05-22_14h07.53.056,cuing_paradigm_dot,2024.1.5,Win32,60.24096386,682d573fa47f1360d1451895,,,,,,,,,,,115.4064,115.9047,,,116.1554,116.6389,left,0.4756,,,,,,,,,0.45,,,,,,115.9048,116.1554,116.6389,"[0.033859540944694365,0.1089603699897563]","[-1,-1,-1]","[0.0524149832700042,-0.09364308179261518]","[-1,-1,-1]","[-0.02566018425601504,0.08963955796893494]","[1,1,1]","[0.16032674128718696,0.047700158397590064]","[1,1,1]","[0.09825012602597301,0.06775344471814986]","[1,1,1]","[-0.16632637554729343,0.09751161769191362]","[-1,-1,-1]","[0.1067691137543158,-0.12472791852664705]","[-1,-1,-1]","[0.03990600831846167,0.15828030586422417]","[-1,-1,-1]","[0.024921294842679225,-0.03567211584738388]","[-1,-1,-1]","[-0.06654707395894878,-0.07126265049465795]","[-1,-1,-1]","[-0.1254091879354287,-0.08186854564304755]","[1,1,1]","[-0.09291798046340177,0.023328532697271007]","[1,1,1]","[0.1256632922974286,-0.010469114674840825]","[-1,-1,-1]","[0.05053694020873776,0.04692942264252945]","[1,1,1]","[-0.15831595009401664,-0.11666005073786938]","[-1,-1,-1]","[-0.14072335340891312,0.13531646682360118]","[1,1,1]","[-0.05700564247278472,-0.1409423538706976]","[1,1,1]","[-0.03022919868418147,0.024418576620892994]","[-1,-1,-1]","[0.16648342953863268,-0.06599495377776304]","[1,1,1]","[0.14760307965852004,0.12107164063003181]","[-1,-1,-1]","[-0.10401178651673637,-0.036465491413126785]","[-1,-1,-1]","[-0.052220651492004944,0.13806022075090757]","[-1,-1,-1]","[-0.15385901875650648,-0.032068767149683326]","[-1,-1,-1]","[0.002976766318120806,-0.13362786957490747]","[-1,-1,-1]","[-0.09047806549395573,0.15825535012971337]","[1,1,1]","[-0.17215849170857955,0.03812371844704066]","[1,1,1]","[0.1679065930646653,-0.01014391463297966]","[-1,-1,-1]","[0.0011639333567872278,0.13702225171993587]","[-1,-1,-1]","[-0.013825632418833793,0.18775604112387909]","[1,1,1]","[-0.10080639509614647,0.09885116898552988]","[1,1,1]","[-0.0173991337784315,-0.04700913677726192]","[-1,-1,-1]","[0.08410604264541542,0.11884799463868766]","[1,1,1]","[0.02,0.02]",117.738,0,23,23,82,1,,,,,,,
,,,,,,,67b602e2e2bfcaa2a6c901ed,682f0fd011c131d7b751cca5,2025-05-22_14h07.53.056,cuing_paradigm_dot,2024.1.5,Win32,60.24096386,682d573fa47f1360d1451895,,,,,,,,,,,117.7392,118.2385,,,118.4886,119.0448,right,0.5261,,,,,,,,,0.5,,,,,,118.2386,118.4886,119.0449,"[-0.14409649092434568,-0.046613124941682835]","[-1,-1,-1]","[0.1373739472160168,-0.10987663090087944]","[-1,-1,-1]","[-0.10995139588893345,0.0865399532569048]","[1,1,1]","[-0.0667038358956888,-0.12664133948515294]","[-1,-1,-1]","[0.143608526233485,0.1118869753514208]","[-1,-1,-1]","[0.07093972440281553,-0.1454956919221232]","[1,1,1]","[-0.048368127441428974,-0.06756784795254366]","[1,1,1]","[0.16768717531851673,-0.025967093047363474]","[-1,-1,-1]","[-0.1304033942632215,0.12645213857931437]","[1,1,1]","[-0.15647425582824126,0.02613218991523596]","[-1,-1,-1]","[0.06672032795559715,-0.09569158795927804]","[-1,-1,-1]","[-0.18589310765771364,-0.013448930019652437]","[-1,-1,-1]","[-0.08824926930548038,-0.002770185439612729]","[1,1,1]","[0.044094416089448606,0.11517669538714025]","[-1,-1,-1]","[0.0567574266915101,0.022538797976398156]","[-1,-1,-1]","[-0.039249020594916736,-0.018804943254547974]","[1,1,1]","[0.013001746393101856,-0.16404359596301296]","[1,1,1]","[-0.011229034131838858,0.0849982803679899]","[1,1,1]","[-0.08921933536859059,-0.07176690943032152]","[1,1,1]","[-0.031263255052059576,0.03256971349937261]","[-1,-1,-1]","[0.008585668342454668,-0.03104980788489921]","[1,1,1]","[-0.021350944658794602,-0.14303484607986597]","[1,1,1]","[0.036341363579164655,-0.06470774536766152]","[1,1,1]","[-0.0007553653185645984,-0.0825875431043281]","[1,1,1]","[-0.15279073718103825,-0.10255509105036455]","[1,1,1]","[0.09347764884723464,0.06233129181925406]","[-1,-1,-1]","[-0.0445960235826445,0.12932569313230233]","[-1,-1,-1]","[0.11266566006690563,-0.019169349330261348]","[-1,-1,-1]","[-0.16035492362133769,0.07392167613183774]","[-1,-1,-1]","[0.14716831124222757,0.04008158422821651]","[1,1,1]","[0.11233821455531168,-0.15725221148122712]","[-1,-1,-1]","[0.10837036855650517,0.020729373888200626]","[1,1,1]","[0.02,0.02]",120.1377,0,24,24,115,1,,,,,,,
,,,,,,,67b602e2e2bfcaa2a6c901ed,682f0fd011c131d7b751cca5,2025-05-22_14h07.53.056,cuing_paradigm_dot,2024.1.5,Win32,60.24096386,682d573fa47f1360d1451895,,,,,,,,,,,120.1397,120.6376,,,120.889,121.288,right,0.3728,,,,,,,,,0.4,,,,,,120.6379,120.8889,121.2883,"[0.04564212671322246,-0.12503702128352712]","[-1,-1,-1]","[0.0028558176866712074,0.15758362985662197]","[-1,-1,-1]","[0.05872784116275496,0.16319236248253835]","[-1,-1,-1]","[-0.04808409930770062,0.1041246960067892]","[-1,-1,-1]","[-0.005142669591587383,-0.11179452710731676]","[-1,-1,-1]","[0.004100103749580789,0.015983802323819185]","[-1,-1,-1]","[0.01433456475231001,-0.04542648208597843]","[1,1,1]","[0.07932478388934461,-0.010097985598096366]","[-1,-1,-1]","[-0.06026961487939396,0.1441186435980191]","[1,1,1]","[-0.10948430558846825,-0.012018199904666611]","[1,1,1]","[0.09305410171027625,0.13057014576895806]","[-1,-1,-1]","[-0.016158277187868445,0.05660470126116911]","[1,1,1]","[0.19340053527320675,0.025027691693034298]","[-1,-1,-1]","[0.11618390450948743,-0.039838460000745944]","[1,1,1]","[0.19429309656365454,-0.017188884019341044]","[-1,-1,-1]","[0.07102552706099043,-0.06465144526335645]","[-1,-1,-1]","[0.16666281042939296,-0.09476298610669824]","[1,1,1]","[-0.14398351265059264,0.07170478009866463]","[1,1,1]","[-0.03499267194913656,-0.0014557528943834857]","[-1,-1,-1]","[-0.06920525384195603,-0.06504077284018855]","[-1,-1,-1]","[-0.11563686245130539,0.15358885969347458]","[-1,-1,-1]","[0.08596075809466058,-0.15692227081988816]","[-1,-1,-1]","[-0.1793131225398303,-0.072883551536036]","[1,1,1]","[-0.1443543966307537,-0.12957030507504907]","[-1,-1,-1]","[0.004072838818587033,-0.16707315879688306]","[1,1,1]","[0.10504852737565641,0.038664721250452144]","[-1,-1,-1]","[0.14639724513318497,0.11123720997148936]","[1,1,1]","[-0.0338200811443255,-0.08377495178334084]","[1,1,1]","[0.10112692498775165,-0.10025598884856973]","[1,1,1]","[-0.19507028246474303,-0.008067741916351321]","[1,1,1]","[0.03444301310761013,0.09585494475705354]","[-1,-1,-1]","[0.15259451964316922,0.06768334848492237]","[-1,-1,-1]","[0.02,0.02]",122.3875,0,25,25,52,1,,,,,,,
,,,,,,,67b602e2e2bfcaa2a6c901ed,682f0fd011c131d7b751cca5,2025-05-22_14h07.53.056,cuing_paradigm_dot,2024.1.5,Win32,60.24096386,682d573fa47f1360d1451895,,,,,,,,,,,122.3891,122.8874,,,123.1427,123.9766,right,0.8187,,,,,,,,,0.45,,,,,,122.8877,123.1426,123.9767,"[0.0929536481700005,0.04877250217369748]","[-1,-1,-1]","[-0.16362064260307552,-0.07652044965873975]","[1,1,1]","[-0.09195141694502751,0.13731459675558064]","[-1,-1,-1]","[0.06020351242249898,-0.180248639600511]","[-1,-1,-1]","[0.1519160358809473,0.06099088419369927]","[-1,-1,-1]","[0.040829927421954196,0.07185462736853827]","[1,1,1]","[-0.11340527743728075,-0.14288238449430554]","[-1,-1,-1]","[0.04696590127577647,-0.10438062673377566]","[-1,-1,-1]","[0.12260031067573851,0.0912635739865216]","[1,1,1]","[0.14779343307238188,-0.10674198506742179]","[-1,-1,-1]","[-0.04974442494590341,0.08019656890516477]","[1,1,1]","[-0.11462960009907443,-0.0974036692026089]","[1,1,1]","[0.018401909817172584,0.007059898598642542]","[1,1,1]","[-0.1337561810249022,0.0007855602114919508]","[1,1,1]","[0.01848725683074304,-0.14442867458462536]","[1,1,1]","[-0.026970978887918388,0.18110728299992077]","[-1,-1,-1]","[0.169947130298336,-0.029265246171588086]","[-1,-1,-1]","[-0.06109857252744479,-0.05457891857577936]","[1,1,1]","[0.018812331791343537,0.12630862658679073]","[-1,-1,-1]","[0.10883740738370053,0.009144810919950732]","[1,1,1]","[0.10627326396493998,-0.12533037454083268]","[-1,-1,-1]","[-0.009341412098076284,-0.08847007251215543]","[-1,-1,-1]","[-0.013630696204508663,-0.18107990884560818]","[1,1,1]","[0.10696017889640201,0.14579577372925995]","[-1,-1,-1]","[0.021042818060213294,-0.035803192712848736]","[1,1,1]","[-0.010459020743441664,0.05071037918735919]","[-1,-1,-1]","[-0.0280197705431873,0.008410421207560656]","[-1,-1,-1]","[-0.11393642289124238,0.08813210300915378]","[1,1,1]","[0.09514752689914574,-0.07527840645095522]","[-1,-1,-1]","[-0.16703210912696043,0.08742035431621939]","[-1,-1,-1]","[0.06855238045244758,-0.0037968414453462495]","[-1,-1,-1]","[-0.08801932179597362,-0.019887861794670468]","[1,1,1]","[0.02,0.02]",125.0707,0,26,26,71,1,,,,,,,
,,,,,,,67b602e2e2bfcaa2a6c901ed,682f0fd011c131d7b751cca5,2025-05-22_14h07.53.056,cuing_paradigm_dot,2024.1.5,Win32,60.24096386,682d573fa47f1360d1451895,,,,,,,,,,,125.0718,125.5709,,,125.8252,126.3709,left,0.5242,,,,,,,,,0.9,,,,,,125.571,125.825,126.3711,"[-0.035898377143713966,0.05917000801263467]","[-1,-1,-1]","[0.1170151124419175,-0.010167518067689032]","[1,1,1]","[-0.05414464439177965,0.14896727173607147]","[1,1,1]","[0.07649970284432954,0.0936578031834449]","[1,1,1]","[-0.14979995402505947,0.01719420125407993]","[1,1,1]","[-0.1300859752798418,-0.12352175845313919]","[1,1,1]","[0.05393775996226671,-0.010072001907447973]","[1,1,1]","[0.007972951869715722,0.07365397308267511]","[1,1,1]","[-0.007833027904676234,-0.1436643087678142]","[1,1,1]","[-0.14683058110950417,0.09331566792371132]","[1,1,1]","[0.007458814958890705,0.17060594114231117]","[-1,-1,-1]","[0.09637440836158048,-0.15386610877267592]","[-1,-1,-1]","[0.14363150805247202,0.11932398139675544]","[1,1,1]","[-0.09488212786683092,0.008972983279313586]","[1,1,1]","[-0.061712896444413565,-0.17661900479803286]","[1,1,1]","[-0.12318154386817705,-0.03406118947551277]","[1,1,1]","[0.05081410222884222,-0.16833762471702]","[1,1,1]","[-0.1139009609212479,0.15133271837681245]","[1,1,1]","[-0.18155433257348072,-0.06446305473855626]","[1,1,1]","[0.13216958204574858,-0.11537820590630798]","[1,1,1]","[-0.14045563131371852,-0.0720601453745277]","[1,1,1]","[0.10941692537922706,0.05564055728046129]","[1,1,1]","[0.09871940767693932,-0.04904193658195261]","[1,1,1]","[-0.06771831473366248,-0.033968280844654676]","[1,1,1]","[-0.1113530868058979,0.0712651843148564]","[1,1,1]","[-0.019649842080628845,-0.1917094742435803]","[1,1,1]","[-0.0423862743525252,0.010657471372589813]","[1,1,1]","[0.025974576231254338,-0.12225302882094907]","[1,1,1]","[0.07629262791202493,-0.1122084328975917]","[1,1,1]","[0.0032277499749196184,-0.004815963767474655]","[1,1,1]","[-0.19439046284217668,-0.02648189317494708]","[1,1,1]","[0.1848955260731531,-0.010260413739860199]","[1,1,1]","[0.02,0.02]",127.4709,0,27,27,182,1,,,,,,,
,,,,,,,67b602e2e2bfcaa2a6c901ed,682f0fd011c131d7b751cca5,2025-05-22_14h07.53.056,cuing_paradigm_dot,2024.1.5,Win32,60.24096386,682d573fa47f1360d1451895,,,,,,,,,,,127.4721,127.9709,,,128.2221,128.6212,left,0.3861,,,,,,,,,0.9,,,,,,127.971,128.2221,128.6214,"[0.1342658555659396,-0.13333491146129772]","[1,1,1]","[-0.1204638662171664,-0.05755857673052805]","[1,1,1]","[-0.10734161893735043,-0.10838799223816263]","[1,1,1]","[-0.08246128671270081,0.1369652109052708]","[1,1,1]","[0.08953805917401068,0.1387822302262035]","[-1,-1,-1]","[-0.16004379404249083,-0.02710314512033312]","[1,1,1]","[-0.03927405701190241,-0.025698124917078218]","[1,1,1]","[0.002326204142766466,0.1755153514289744]","[1,1,1]","[-0.1834969744216839,0.055850764841163344]","[-1,-1,-1]","[-0.1396642492352145,0.0738753504090792]","[1,1,1]","[0.01684811224802074,0.04374265276956535]","[1,1,1]","[-0.07729309736444687,-0.03988129347748532]","[1,1,1]","[-0.17343165626532037,0.01629447642065002]","[1,1,1]","[-0.008386301427963158,-0.14209410512355466]","[1,1,1]","[0.1000137736885599,0.030155447202464034]","[1,1,1]","[0.1881417057884412,-0.002011567917581435]","[1,1,1]","[0.051162607646741645,0.08611936576997492]","[1,1,1]","[0.04498524453880192,-0.1428985435291103]","[1,1,1]","[0.04903821938897594,0.1875588097271748]","[1,1,1]","[-0.005893129167301888,-0.07291879945471791]","[-1,-1,-1]","[-0.08646922992235763,0.06618948732238258]","[1,1,1]","[0.13438086701713678,0.12031420218938856]","[1,1,1]","[-0.0657494709846611,-0.10378979091734689]","[1,1,1]","[-0.02182252879634423,0.07909049462367354]","[1,1,1]","[0.10304403258715208,-0.15905761961017076]","[1,1,1]","[-0.03266261382031107,0.03245352976868796]","[1,1,1]","[-0.03978846265353795,0.12001161083741564]","[1,1,1]","[-0.05751601645587284,-0.1686519755967499]","[1,1,1]","[0.03284010524508112,-0.08675644206339767]","[1,1,1]","[0.022032899683545423,-0.18058513110774804]","[1,1,1]","[0.15019332748858696,-0.025804485584926852]","[1,1,1]","[0.17353425551450286,0.06186361346584695]","[1,1,1]","[0.02,0.02]",129.7209,0,28,28,197,1,,,,,,,
,,,,,,,67b602e2e2bfcaa2a6c901ed,682f0fd011c131d7b751cca5,2025-05-22_14h07.53.056,cuing_paradigm_dot,2024.1.5,Win32,60.24096386,682d573fa47f1360d1451895,,,,,,,,,,,129.7227,130.2208,,,130.4753,130.9253,left,0.4347,,,,,,,,,0.55,,,,,,130.2209,130.4752,130.9255,"[-0.07029808056863532,0.10033365631401482]","[-1,-1,-1]","[0.15731059166492184,0.08912167050096302]","[1,1,1]","[0.1053991728376621,-0.038769681048092274]","[1,1,1]","[0.030484172625634083,0.16540713011899522]","[1,1,1]","[-0.11253495657437185,-0.12892647324928275]","[-1,-1,-1]","[-0.08678147589997624,-0.056818695843702145]","[1,1,1]","[-0.0456740021098283,-0.06372839320013277]","[1,1,1]","[-0.09401501053799674,0.014735637610914327]","[1,1,1]","[-0.18928480107063508,0.04511053798611884]","[-1,-1,-1]","[0.1664651855009099,-0.041564181792282696]","[-1,-1,-1]","[0.12938589618128574,-0.12931231241955637]","[-1,-1,-1]","[-0.0325950828410771,-0.10742783860953121]","[1,1,1]","[-0.04606484831800144,0.05975989471038304]","[-1,-1,-1]","[-0.05584692534829431,-0.16998462927799282]","[-1,-1,-1]","[-0.05000958905136585,0.142754980676865]","[-1,-1,-1]","[0.04632913771025228,-0.004194649376975406]","[-1,-1,-1]","[0.046352763908484335,0.08851463232832203]","[1,1,1]","[-0.15550049613454756,-0.09795377516879003]","[-1,-1,-1]","[-0.020067993286040982,0.11199281284510819]","[1,1,1]","[-0.08741303791609872,0.06141391461316952]","[1,1,1]","[-0.007878625957559428,-0.03100437579242583]","[1,1,1]","[-0.15503841664110574,0.017173573715495206]","[-1,-1,-1]","[-0.16121420119368438,-0.039806743344722714]","[1,1,1]","[0.07625932448731862,-0.0811411482003495]","[-1,-1,-1]","[0.07773891252455505,0.0382132273668132]","[-1,-1,-1]","[0.047782047303579066,-0.11785518316834007]","[1,1,1]","[-0.1287756046904418,0.12169325408371458]","[1,1,1]","[0.11979869071746828,0.0013506889860335372]","[-1,-1,-1]","[0.14766564868476567,0.12843597682069705]","[1,1,1]","[0.15499807578946603,0.03091908806737909]","[1,1,1]","[0.10755536072455944,0.15509093776134655]","[1,1,1]","[-0.15571817608324431,0.0721857792790826]","[1,1,1]","[0.02,0.02]",132.0213,0,29,29,140,1,,,,,,,
,,,,,,,67b602e2e2bfcaa2a6c901ed,682f0fd011c131d7b751cca5,2025-05-22_14h07.53.056,cuing_paradigm_dot,2024.1.5,Win32,60.24096386,682d573fa47f1360d1451895,,,,,,,,,,,132.0233,132.5206,,,132.7745,133.1373,left,0.346,,,,,,,,,0.9,,,,,,132.5209,132.7743,133.1373,"[0.1647415313418271,0.07580925606568888]","[1,1,1]","[-0.07652260416832804,-0.08182414925368954]","[1,1,1]","[0.1605817717210075,-0.05897482361723895]","[-1,-1,-1]","[0.11573799055122766,-0.13410893503748586]","[1,1,1]","[-0.12887289894488552,-0.05701437044104257]","[1,1,1]","[-0.017264874035415344,0.17858625261742228]","[1,1,1]","[0.11516244182551379,0.028684309636277886]","[1,1,1]","[-0.06020147796204647,0.04091646666983161]","[1,1,1]","[-0.028971787041327454,0.13598770089026732]","[1,1,1]","[0.04356487091639093,0.1425510442960999]","[1,1,1]","[-0.002541515274040791,-0.08119328734815855]","[1,1,1]","[0.01940175215701212,-0.1574655709990517]","[1,1,1]","[-0.06143802041476333,0.1697565134322381]","[1,1,1]","[0.08018803208750372,0.1819589022179543]","[1,1,1]","[0.1056189208674427,-0.08178061767724447]","[1,1,1]","[-0.1040375379925063,-0.023590659590058363]","[1,1,1]","[0.02136917025790808,0.19408142392435218]","[1,1,1]","[-0.0015169151923234744,0.014469978117203852]","[1,1,1]","[0.09765073436600837,0.07253902835342009]","[-1,-1,-1]","[-0.12395952468879892,0.12364600845256468]","[1,1,1]","[-0.05276824072590649,-0.12191184199913323]","[1,1,1]","[0.029093754187920935,-0.03564810268783538]","[1,1,1]","[-0.021422617031500467,0.05711943768229966]","[-1,-1,-1]","[-0.12309775082151542,0.021845117677072007]","[1,1,1]","[0.17308977232699224,0.011906643764259303]","[1,1,1]","[-0.14903449469271207,-0.015054512426780742]","[1,1,1]","[-0.03251822472735163,-0.012929751740271547]","[1,1,1]","[0.067819741192038,0.10322109071471747]","[1,1,1]","[-0.15705208691231962,-0.09321672754004444]","[1,1,1]","[0.09049829068288481,-0.021076799559846218]","[1,1,1]","[-0.19118740103735501,0.026265055285915016]","[1,1,1]","[-0.17090978165592666,0.08866069701599698]","[1,1,1]","[0.02,0.02]",134.2378,0,30,30,201,1,,,,,,,
,,,,,,,67b602e2e2bfcaa2a6c901ed,682f0fd011c131d7b751cca5,2025-05-22_14h07.53.056,cuing_paradigm_dot,2024.1.5,Win32,60.24096386,682d573fa47f1360d1451895,,,,,,,,,,,134.2395,134.741,,,134.9866,135.2861,right,0.2866,,,,,,,,,0.1,,,,,,134.7411,134.9866,135.2863,"[-0.04424515221174907,0.130805670103662]","[-1,-1,-1]","[-0.003912513877205058,-0.1969780490362681]","[-1,-1,-1]","[-0.03666848128321976,0.007513811674804295]","[-1,-1,-1]","[-0.18772164261258592,0.033955009774182074]","[-1,-1,-1]","[-0.03845845303157017,-0.10528603049374094]","[-1,-1,-1]","[0.06835975546818415,-0.13880154525957766]","[-1,-1,-1]","[0.020208169514702157,-0.07994685308674333]","[-1,-1,-1]","[0.1709881691990072,-0.03561411631975383]","[-1,-1,-1]","[0.11474642652248693,0.15420823006897633]","[-1,-1,-1]","[-0.08699001494454625,-0.04798679238845641]","[-1,-1,-1]","[0.14211396972235138,0.10914354506862946]","[-1,-1,-1]","[0.014899494601167008,0.06949548564509916]","[-1,-1,-1]","[-0.12077772347149737,0.03521639387551456]","[-1,-1,-1]","[-0.09605086361516817,0.10446383834168582]","[-1,-1,-1]","[0.08569310232818451,-0.0696973998652057]","[-1,-1,-1]","[-0.08481635145048412,0.01643048830426205]","[-1,-1,-1]","[0.00385326981212782,-0.008380332529082362]","[-1,-1,-1]","[-0.13329812612019235,-0.011793286423305205]","[-1,-1,-1]","[0.022433401730999294,-0.1347390126468519]","[1,1,1]","[-0.11462488281786155,-0.09564423986036996]","[-1,-1,-1]","[0.10670235504958897,-0.1229626495917702]","[-1,-1,-1]","[0.12209610167479056,-0.022496058939190218]","[1,1,1]","[0.05658924834794656,-0.04172776903301669]","[-1,-1,-1]","[-0.10080209295211962,-0.13872157908751687]","[-1,-1,-1]","[0.08475049990416149,0.11175985169507907]","[-1,-1,-1]","[0.02016845334569612,0.16519321935261358]","[-1,-1,-1]","[-0.03377628928821605,0.17274224548215308]","[1,1,1]","[0.16389703240794665,-0.10264886650263334]","[-1,-1,-1]","[-0.17096650110882552,0.08524475299449216]","[-1,-1,-1]","[0.10210734128846918,0.07513353514325613]","[-1,-1,-1]","[0.10036846259383737,0.03402875974490927]","[-1,-1,-1]","[-0.04312642811861386,-0.1599057008708691]","[-1,-1,-1]","[0.02,0.02]",136.3865,0,31,31,15,1,,,,,,,
,,,,,,,67b602e2e2bfcaa2a6c901ed,682f0fd011c131d7b751cca5,2025-05-22_14h07.53.056,cuing_paradigm_dot,2024.1.5,Win32,60.24096386,682d573fa47f1360d1451895,,,,,,,,,,,136.3876,136.8865,,,137.1376,137.5549,right,0.4093,,,,,,,,,0.1,,,,,,136.8866,137.1376,137.555,"[0.054254363932352404,-0.12103021156071399]","[-1,-1,-1]","[-0.13215719763617845,-0.08047708045339341]","[1,1,1]","[0.04233384248628651,0.02276427998251348]","[-1,-1,-1]","[0.004725852780634432,-0.09224635582421974]","[-1,-1,-1]","[-0.058272510196399833,-0.009626210429166386]","[-1,-1,-1]","[-0.10220294611926918,0.00368373907590701]","[-1,-1,-1]","[0.07912800423291473,-0.17520639568604027]","[-1,-1,-1]","[0.12737190184709835,-0.023544527989153467]","[-1,-1,-1]","[-0.06281828157859669,-0.1457080730672158]","[-1,-1,-1]","[0.04157087517055685,0.07172572056191998]","[-1,-1,-1]","[0.12467137855701442,-0.11307407316295982]","[-1,-1,-1]","[0.13626639815911498,-0.06974374277541238]","[-1,-1,-1]","[0.023589062087072114,0.18012932509463456]","[-1,-1,-1]","[-0.03239562182409269,0.05396671191751111]","[1,1,1]","[-0.07570048126396056,-0.06560632069582696]","[-1,-1,-1]","[-0.00471826707940401,0.014358154317560752]","[-1,-1,-1]","[-0.015477593968427438,0.18995151640399108]","[-1,-1,-1]","[0.0864624532288185,-0.09628252850885953]","[-1,-1,-1]","[-0.10115209523271838,-0.17053282196454198]","[-1,-1,-1]","[-0.18993364231710916,-0.049889637134776295]","[-1,-1,-1]","[0.07337278990744597,-0.045462493983204476]","[-1,-1,-1]","[0.09222745023770745,0.0504225086338164]","[1,1,1]","[-0.07008690334732179,0.08863337566722358]","[-1,-1,-1]","[-0.14993785052631145,-0.03687892181456199]","[-1,-1,-1]","[-0.10118291234020711,-0.11905472782495502]","[-1,-1,-1]","[0.10624299536944438,0.1367469789138859]","[-1,-1,-1]","[0.06979408277106915,0.1553920406704923]","[-1,-1,-1]","[0.15860114152811888,0.05842474171964763]","[-1,-1,-1]","[-0.13107235990168215,0.1004563917242801]","[-1,-1,-1]","[0.0058464593918369345,0.10584485506746003]","[-1,-1,-1]","[0.1430693674827638,0.11259992974277579]","[-1,-1,-1]","[0.0314841019476197,-0.16511931095731391]","[-1,-1,-1]","[0.02,0.02]",138.6532,0,32,32,3,1,,,,,,,
,,,,,,,67b602e2e2bfcaa2a6c901ed,682f0fd011c131d7b751cca5,2025-05-22_14h07.53.056,cuing_paradigm_dot,2024.1.5,Win32,60.24096386,682d573fa47f1360d1451895,,,,,,,,,,,138.6548,139.1533,,,139.408,139.9204,right,0.4877,,,,,,,,,0.45,,,,,,139.1533,139.4079,139.9205,"[0.12573866890474297,-0.013912876738672088]","[1,1,1]","[-0.07182354930691097,0.14388421015873443]","[-1,-1,-1]","[-0.06688342242009102,0.07510297025756867]","[1,1,1]","[-0.15437446387516077,0.05541723845645997]","[-1,-1,-1]","[0.02518420067779659,0.03298181906561474]","[-1,-1,-1]","[0.09327071876346249,-0.15420642085327013]","[1,1,1]","[-0.06022724104698992,-0.11698622053778243]","[-1,-1,-1]","[-0.06573633452291186,-0.004277328547434629]","[-1,-1,-1]","[0.16696756633936988,0.018368146106410525]","[-1,-1,-1]","[-0.06910175192997826,-0.15966534712710284]","[1,1,1]","[-0.11317719313763432,-0.06809361201480207]","[-1,-1,-1]","[0.04654009623923263,-0.13687355981797747]","[1,1,1]","[-0.12688364245365633,-0.011374125793667107]","[-1,-1,-1]","[-0.1335873374694234,-0.10608655306236021]","[1,1,1]","[0.14251155506575422,0.08378902576688893]","[-1,-1,-1]","[0.08519653441036486,0.11549493924092957]","[-1,-1,-1]","[0.11669854666329757,-0.05836301749860554]","[1,1,1]","[0.05715382404401501,0.14726776664756863]","[1,1,1]","[-0.1492751504894217,0.11366194759131139]","[-1,-1,-1]","[-0.0246894009647871,-0.028957440214291152]","[1,1,1]","[0.06232630675965946,-0.01528382103202076]","[-1,-1,-1]","[-0.09333085699394018,0.041063808609192134]","[-1,-1,-1]","[-0.016264239250566657,0.1438685990621629]","[1,1,1]","[-0.011594549659242418,-0.13305840538739014]","[-1,-1,-1]","[-0.11032251242326192,0.08609636392297654]","[-1,-1,-1]","[0.08122134852017679,0.07493380482162983]","[-1,-1,-1]","[-0.02315535532232947,0.07975689340226746]","[-1,-1,-1]","[-0.06680982268715242,-0.07444433475878394]","[-1,-1,-1]","[0.04338524701106758,-0.19399815287885652]","[1,1,1]","[-0.1986843511182686,-0.006928574826769916]","[1,1,1]","[-0.17950047582839518,-0.07159490578923665]","[1,1,1]","[0.06912042654962369,0.026464572252687935]","[1,1,1]","[0.02,0.02]",141.02,0,33,33,76,1,,,,,,,
,,,,,,,67b602e2e2bfcaa2a6c901ed,682f0fd011c131d7b751cca5,2025-05-22_14h07.53.056,cuing_paradigm_dot,2024.1.5,Win32,60.24096386,682d573fa47f1360d1451895,,,,,,,,,,,141.0219,141.5198,,,141.7741,142.1536,right,0.3557,,,,,,,,,0.5,,,,,,141.52,141.774,142.1537,"[-0.16376248568903823,0.01632735313606935]","[1,1,1]","[0.0232565077688592,-0.13205793670306293]","[1,1,1]","[0.135824051701574,-0.006316202316836311]","[1,1,1]","[-0.0740918215929933,0.10643792528311284]","[-1,-1,-1]","[0.06700407408113347,-0.007670261592925273]","[-1,-1,-1]","[0.046929599983763275,0.16603988279731605]","[1,1,1]","[-0.1905258067382629,-0.028887870307974888]","[1,1,1]","[0.10437805697136683,0.12623971426098216]","[1,1,1]","[0.03323647036912919,0.07680442204004645]","[-1,-1,-1]","[-0.12917495378704966,-0.12904989178913795]","[-1,-1,-1]","[0.09614773460972889,0.05615894921559499]","[1,1,1]","[0.18867225025911905,-0.052836320020663435]","[1,1,1]","[-0.11537255528158805,0.16308433448052223]","[1,1,1]","[-0.02899428626930693,-0.1894573824515962]","[-1,-1,-1]","[0.1849699540308017,0.0411901570060952]","[1,1,1]","[-0.1018818567480548,-0.08803731582858772]","[-1,-1,-1]","[0.16429286488820635,0.11360918530059495]","[-1,-1,-1]","[-0.10025309554022807,-0.010657429729985877]","[-1,-1,-1]","[-0.044315493752945787,0.05135188484463468]","[1,1,1]","[0.11701792056877873,-0.07345187945433887]","[1,1,1]","[0.07295476741842921,-0.12727804680117588]","[-1,-1,-1]","[-0.0058475684465433535,0.18453176499802743]","[-1,-1,-1]","[-0.11029454960677118,0.04837111396866266]","[-1,-1,-1]","[0.15354789396594606,-0.11139622467576527]","[1,1,1]","[-0.014511119276461527,-0.09616576250637823]","[1,1,1]","[0.04580798275582485,-0.17125949524656225]","[-1,-1,-1]","[-0.1513415417275208,0.12389969333802296]","[-1,-1,-1]","[-0.04659325020307975,-0.13910551255026446]","[-1,-1,-1]","[0.0875355076742375,-0.17225334047377713]","[1,1,1]","[-0.1532890266528757,-0.08143722350671094]","[-1,-1,-1]","[0.013212940584947604,-0.195263831828505]","[-1,-1,-1]","[-0.010184780114755801,-0.05572446589454875]","[1,1,1]","[0.02,0.02]",143.2531,0,34,34,101,1,,,,,,,
,,,,,,,67b602e2e2bfcaa2a6c901ed,682f0fd011c131d7b751cca5,2025-05-22_14h07.53.056,cuing_paradigm_dot,2024.1.5,Win32,60.24096386,682d573fa47f1360d1451895,,,,,,,,,,,143.2546,143.7532,,,144.0077,144.5035,left,0.4731,,,,,,,,,0.55,,,,,,143.7533,144.0076,144.5036,"[0.10775751059699591,0.05968331043567187]","[-1,-1,-1]","[-0.11771217413235677,-0.14571093120687303]","[1,1,1]","[0.1635862966181965,0.019808847754304533]","[1,1,1]","[-0.06556663402221305,0.13358384407432805]","[1,1,1]","[0.09651320918084733,-0.05933633855116768]","[1,1,1]","[-0.12352387462175353,-0.07000474345929009]","[1,1,1]","[0.10815101417391197,0.12927874838574654]","[-1,-1,-1]","[0.007660570035431183,0.021344271615673573]","[-1,-1,-1]","[-0.026625992511357652,-0.15988091419325948]","[1,1,1]","[-0.16660960317540727,-0.013828925125859037]","[-1,-1,-1]","[0.007201874481389679,-0.05016823847964891]","[1,1,1]","[0.12016450819329585,-0.12918536950242882]","[-1,-1,-1]","[0.0004661223995158609,0.1937131857312696]","[-1,-1,-1]","[0.07313075938719418,-0.17327992810968476]","[-1,-1,-1]","[0.02328385466444298,0.14879471590871957]","[1,1,1]","[-0.052010475667214964,-0.01638740937366746]","[-1,-1,-1]","[-0.169205504022471,-0.08928678628897836]","[-1,-1,-1]","[-0.17406321040442568,0.09826220870134343]","[-1,-1,-1]","[0.16779641407321477,-0.02454673122659975]","[1,1,1]","[0.039663931363876116,0.07903961490171049]","[-1,-1,-1]","[-0.12570268187331518,0.1420296878002581]","[-1,-1,-1]","[-0.04618645847105255,-0.09899005476284453]","[1,1,1]","[0.1692256079619098,-0.0701743431924925]","[-1,-1,-1]","[0.05389586849015759,-0.08111843281356286]","[1,1,1]","[0.07052439875761693,-0.027475857896683706]","[1,1,1]","[0.014129481456083521,-0.19585163774526385]","[1,1,1]","[-0.020837076046492927,0.12276869433594625]","[1,1,1]","[-0.006868666573891077,-0.09060591627780677]","[1,1,1]","[0.04169512091610392,0.18760910758131416]","[1,1,1]","[0.07197854248811991,-0.12597064239352632]","[-1,-1,-1]","[0.08221022946115894,0.09174864447379329]","[1,1,1]","[-0.038617195913717595,0.17624765597696726]","[1,1,1]","[0.02,0.02]",145.6031,0,35,35,145,1,,,,,,,
,,,,,,,67b602e2e2bfcaa2a6c901ed,682f0fd011c131d7b751cca5,2025-05-22_14h07.53.056,cuing_paradigm_dot,2024.1.5,Win32,60.24096386,682d573fa47f1360d1451895,,,,,,,,,,,145.6047,146.1037,,,146.3572,146.6706,left,0.2876,,,,,,,,,0.9,,,,,,146.1038,146.3571,146.6708,"[0.0022295148179635937,0.06020654722876469]","[1,1,1]","[0.05785609282314886,-0.1455830875251536]","[-1,-1,-1]","[0.04349721932276279,0.08760801405507222]","[1,1,1]","[-0.09099456804199962,0.07823841401600196]","[1,1,1]","[0.01327369259137508,-0.09812696843104061]","[-1,-1,-1]","[0.03171623267129162,0.13459366954089497]","[1,1,1]","[-0.08726381974167613,-0.07940390715680391]","[1,1,1]","[-0.058018072090926305,0.17956652641465326]","[1,1,1]","[0.17451366772636578,-0.0857206888663775]","[1,1,1]","[0.11578315753858687,-0.15498788386319876]","[1,1,1]","[-0.08159605858546072,-0.16349086213642525]","[1,1,1]","[-0.18038071075673295,0.06680158643283647]","[1,1,1]","[-0.1878551589253967,-0.03916101938464855]","[1,1,1]","[0.040655650752617074,-0.002391028618654961]","[1,1,1]","[-0.007084850241067386,0.007948430418855524]","[1,1,1]","[0.17396205819705984,0.08070237853091897]","[1,1,1]","[0.10311124961171775,0.17069886228352216]","[1,1,1]","[-0.17116603460337707,-0.09736633743377043]","[1,1,1]","[-0.02273214750836743,-0.03368465822131783]","[1,1,1]","[0.14933268402675903,0.11963426250310759]","[1,1,1]","[0.12049503522348838,0.020080944959334112]","[1,1,1]","[0.051849161196206,0.04049981197481316]","[1,1,1]","[-0.0911251494122385,0.12050588787415993]","[1,1,1]","[-0.08099185211828502,0.025416031176851733]","[1,1,1]","[-0.13079397985375366,-0.14158619689981666]","[1,1,1]","[0.1801605787025129,0.00012860138593797453]","[1,1,1]","[0.11801761150873721,0.06630039963556235]","[1,1,1]","[-0.13194079453023275,0.0863862273423786]","[1,1,1]","[-0.02147887395440638,-0.1358736632960664]","[1,1,1]","[0.05504997760497633,-0.05586227665034901]","[-1,-1,-1]","[-0.009731714925712268,0.17374861183681006]","[1,1,1]","[-0.13764644163932635,-0.06657089086340741]","[1,1,1]","[0.02,0.02]",147.7696,0,36,36,205,1,,,,,,,
,,,,,,,67b602e2e2bfcaa2a6c901ed,682f0fd011c131d7b751cca5,2025-05-22_14h07.53.056,cuing_paradigm_dot,2024.1.5,Win32,60.24096386,682d573fa47f1360d1451895,,,,,,,,,,,147.7711,148.2704,,,148.5203,148.8031,right,0.269,,,,,,,,,0.1,,,,,,148.2706,148.5202,148.8032,"[0.13326614490073505,0.01137719757652527]","[-1,-1,-1]","[-0.06376536954944653,0.1695513727669963]","[-1,-1,-1]","[-0.13687126219261095,0.06604954761659097]","[-1,-1,-1]","[0.1272409270972111,0.07996234772567994]","[-1,-1,-1]","[0.11394634900544809,-0.10121673548981143]","[-1,-1,-1]","[0.187207706789936,-0.024414211911320056]","[-1,-1,-1]","[-0.17884531648619392,-0.0740402335359612]","[-1,-1,-1]","[-0.0517227002502343,0.011565656656889139]","[-1,-1,-1]","[-0.17911792589804118,0.019928620726283538]","[-1,-1,-1]","[0.018378405324005677,0.10425872405528012]","[-1,-1,-1]","[-0.15965120379868294,0.11676674977243132]","[-1,-1,-1]","[0.005450925998572288,-0.10441416270001318]","[-1,-1,-1]","[0.17059983278786786,0.03397241573722872]","[-1,-1,-1]","[0.047901487454258006,-0.1359844742741988]","[-1,-1,-1]","[-0.09589776651863192,0.14568508381249143]","[-1,-1,-1]","[-0.11032136149643858,-0.1363144478190696]","[-1,-1,-1]","[-0.008539078153259029,-0.1776085590102677]","[-1,-1,-1]","[-0.03140354412904442,0.0793481783527182]","[-1,-1,-1]","[-0.09678398109747555,-0.08218696977906705]","[-1,-1,-1]","[0.15525625821124076,0.11886761157068418]","[-1,-1,-1]","[0.06347141237715086,0.04956642597520888]","[-1,-1,-1]","[-0.016388399345856546,-0.06038947292690359]","[-1,-1,-1]","[0.057703927795351356,0.1623717064617528]","[-1,-1,-1]","[0.16445781702182186,-0.07321512579738748]","[-1,-1,-1]","[0.013220860475334134,0.031659193122271924]","[-1,-1,-1]","[-0.06422234891184117,-0.0388708006229112]","[-1,-1,-1]","[-0.09366869278856849,0.07582383268973202]","[1,1,1]","[-0.12252871093374035,-0.03540634754884857]","[1,1,1]","[0.04389674191050891,-0.01915189479128136]","[1,1,1]","[-0.008147325122354408,0.13643985039239773]","[-1,-1,-1]","[0.05223488461842797,-0.06240766828688094]","[-1,-1,-1]","[0.12086049237867175,-0.15134147748565732]","[-1,-1,-1]","[0.02,0.02]",149.9026,0,37,37,16,1,,,,,,,
,,,,,,,67b602e2e2bfcaa2a6c901ed,682f0fd011c131d7b751cca5,2025-05-22_14h07.53.056,cuing_paradigm_dot,2024.1.5,Win32,60.24096386,682d573fa47f1360d1451895,,,,,,,,,,,149.9043,150.4027,,,150.6539,151.3196,left,0.6527,,,,,,,,,0.9,,,,,,150.4028,150.6537,151.3197,"[-0.07617824066157618,0.12146506167395203]","[1,1,1]","[0.02212385876379532,-0.033477838329009454]","[1,1,1]","[-0.029946174571284033,-0.028963667588586515]","[1,1,1]","[-0.012314008492863711,0.060523339361981746]","[1,1,1]","[0.031927532102397065,0.039407983453972]","[1,1,1]","[0.005747543755620531,-0.17982601226949613]","[1,1,1]","[-0.14120483575356318,-0.13261723030110634]","[1,1,1]","[0.10205375976455186,0.08522722380321889]","[1,1,1]","[0.1186608745418739,-0.015613193181636901]","[1,1,1]","[0.0682614360114669,-0.003297515424920351]","[1,1,1]","[-0.16548403113504145,0.0731157591373162]","[1,1,1]","[0.08475135589993311,0.03977732162839935]","[1,1,1]","[0.16076160536498194,-0.04698903964995942]","[1,1,1]","[-0.08095870026535021,0.008337171918770342]","[1,1,1]","[-0.11736778113073362,0.0289225785764121]","[1,1,1]","[-0.03205592953562098,-0.14460951812666448]","[-1,-1,-1]","[-0.18021887587818228,0.011185119703707629]","[1,1,1]","[-0.046930389568263606,0.14900016630804458]","[1,1,1]","[-0.06099067857123188,-0.059860063515699904]","[1,1,1]","[0.07733700057210464,-0.15064877621115277]","[1,1,1]","[0.08290815384838399,-0.09066204771203866]","[1,1,1]","[-0.11591922699422087,-0.06692779816013494]","[1,1,1]","[-0.1337791804812535,0.13489563819747424]","[1,1,1]","[-0.0886709539020934,-0.1461560817545347]","[1,1,1]","[-0.02400562920037541,-0.09645935653861777]","[1,1,1]","[0.059321672905674805,0.12492916761281203]","[1,1,1]","[-0.17678131838566302,-0.057997190843883016]","[1,1,1]","[0.14347992952082192,0.03548462668148082]","[-1,-1,-1]","[-0.032525131631740804,0.1950158737692961]","[1,1,1]","[0.18966594365279707,0.04666829633085071]","[-1,-1,-1]","[0.060875547263792115,-0.053723777701324825]","[1,1,1]","[0.10662005056153455,-0.05447371393872811]","[1,1,1]","[0.02,0.02]",152.4192,0,38,38,207,1,,,,,,,
,,,,,,,67b602e2e2bfcaa2a6c901ed,682f0fd011c131d7b751cca5,2025-05-22_14h07.53.056,cuing_paradigm_dot,2024.1.5,Win32,60.24096386,682d573fa47f1360d1451895,,,,,,,,,,,152.4205,152.9182,,,153.1705,153.6529,right,0.4668,,,,,,,,,0.1,,,,,,152.9183,153.1703,153.6531,"[-0.01827309441083472,0.003026109469100159]","[-1,-1,-1]","[0.136407985725451,0.11234484571408801]","[1,1,1]","[-0.15789995654601538,-0.06260085233857249]","[-1,-1,-1]","[-0.012250945916655537,-0.18794032951172088]","[-1,-1,-1]","[0.051860919030192104,-0.04294542349852218]","[-1,-1,-1]","[-0.1846840024719256,0.05171491502927318]","[-1,-1,-1]","[0.007506878038347249,0.07402638811351622]","[1,1,1]","[-0.13139881546726292,0.08211231500070858]","[-1,-1,-1]","[0.01967772344334122,-0.018523777466962335]","[-1,-1,-1]","[-0.04090198089200323,-0.14937700307856597]","[-1,-1,-1]","[-0.06427681155714472,0.11040313739477711]","[-1,-1,-1]","[-0.051422440737420236,-0.07713369401980563]","[1,1,1]","[0.0769401902671099,0.03672317453129207]","[-1,-1,-1]","[0.16921011234028824,-0.05018615733037496]","[-1,-1,-1]","[-0.047243897737283186,0.19364292836371066]","[-1,-1,-1]","[-0.13956481750895902,0.01740667887469384]","[-1,-1,-1]","[0.14767664370985653,0.024457719025992565]","[-1,-1,-1]","[0.10973764073334565,-0.08843543623149769]","[-1,-1,-1]","[-0.0067587037382839275,0.13843226509347914]","[-1,-1,-1]","[0.08140106751461589,0.15801146353489287]","[-1,-1,-1]","[0.12328169324756448,-0.15606555990651]","[-1,-1,-1]","[0.039972582085834776,-0.19048968123251847]","[-1,-1,-1]","[-0.1042292775930551,0.1659842265643318]","[-1,-1,-1]","[0.09003740672886162,-0.028643055666667906]","[-1,-1,-1]","[0.12120134882928373,0.1512398819957289]","[-1,-1,-1]","[-0.06431975125876219,-0.03604751373631437]","[-1,-1,-1]","[-0.0851414540697591,-0.14471952848444644]","[-1,-1,-1]","[-0.05613779813822233,0.05199570880939335]","[-1,-1,-1]","[-0.10625504301220415,-0.07580423295493198]","[-1,-1,-1]","[-0.12326570397927451,0.12909560715496526]","[-1,-1,-1]","[-0.1872903717917373,-0.01034420744091547]","[-1,-1,-1]","[0.04648411298851819,-0.11422134753472284]","[-1,-1,-1]","[0.02,0.02]",154.7524,0,39,39,0,1,,,,,,,
,,,,,,,67b602e2e2bfcaa2a6c901ed,682f0fd011c131d7b751cca5,2025-05-22_14h07.53.056,cuing_paradigm_dot,2024.1.5,Win32,60.24096386,682d573fa47f1360d1451895,,,,,,,,,,,154.7537,155.2524,,,155.5034,155.936,right,0.4199,,,,,,,,,0.6,,,,,,155.2526,155.5034,155.9365,"[0.1461558633909814,-0.11548518763377748]","[1,1,1]","[0.0985845997033705,0.03665405687309706]","[-1,-1,-1]","[0.14300314072656983,0.03020020523968701]","[1,1,1]","[-0.047244380558678065,0.05373559865166444]","[-1,-1,-1]","[-0.017969447891103867,-0.04428730804227073]","[-1,-1,-1]","[-0.05251617347046576,-0.08077756437758532]","[-1,-1,-1]","[0.059093090943003496,-0.18003812820226933]","[1,1,1]","[0.012683720571878625,0.19844976102456863]","[1,1,1]","[-0.19479728008625724,-0.011566876435777324]","[-1,-1,-1]","[-0.14944832494155424,-0.019825234410274013]","[-1,-1,-1]","[-0.0004712237315198952,-0.1911513133151206]","[-1,-1,-1]","[0.03616356121694514,-0.05343448465360984]","[-1,-1,-1]","[0.0744047183874942,-0.10206830806648659]","[-1,-1,-1]","[-0.17419697907773085,-0.0866617773935983]","[1,1,1]","[0.040315686871732766,-0.006013591077655899]","[1,1,1]","[0.11837991510601062,0.15950650532346758]","[1,1,1]","[-0.05692066878097771,-0.13795966888183575]","[1,1,1]","[-0.06404127626992336,0.14953727863811542]","[-1,-1,-1]","[0.11145852514908214,-0.16584559712178207]","[-1,-1,-1]","[0.08001980436182039,-0.02475351497302882]","[1,1,1]","[-0.14874438791513941,0.109887732968959]","[1,1,1]","[-0.17294133181536267,0.04622831284247118]","[1,1,1]","[-0.06080756013367857,-0.18378152459438665]","[1,1,1]","[-0.07992920206449566,-0.04859373446559892]","[-1,-1,-1]","[-0.1438103089441319,-0.1265185509629239]","[1,1,1]","[-0.11589994299297887,0.15685926828852495]","[1,1,1]","[-0.016231825158725496,-0.13974368328422593]","[1,1,1]","[0.12231887961422548,-0.06943236261572813]","[1,1,1]","[-0.012120337527366314,0.1160640635389194]","[-1,-1,-1]","[0.003586903973707943,0.03667879162178869]","[1,1,1]","[-0.054768796913331176,0.0128337157149306]","[1,1,1]","[0.037604367432085575,0.06868667464065419]","[1,1,1]","[0.02,0.02]",157.0353,0,40,40,164,1,,,,,,,
,,,,,,,67b602e2e2bfcaa2a6c901ed,682f0fd011c131d7b751cca5,2025-05-22_14h07.53.056,cuing_paradigm_dot,2024.1.5,Win32,60.24096386,682d573fa47f1360d1451895,,,,,,,,,,,157.0371,157.5359,,,157.7874,158.6025,right,0.8055,,,,,,,,,0.6,,,,,,157.5363,157.7873,158.6028,"[0.036186072979073516,0.06492795157938265]","[-1,-1,-1]","[-0.01834124253996094,0.0027678263530940732]","[-1,-1,-1]","[-0.10621309472220787,-0.1416618789891787]","[1,1,1]","[-0.1470430333600843,-0.013348305652953437]","[1,1,1]","[-0.08007866292879509,0.004134021957211131]","[1,1,1]","[0.062026253459305576,-0.10019383624889197]","[-1,-1,-1]","[0.11344297007965395,-0.08371719627377734]","[1,1,1]","[-0.10888414951205529,-0.09189604728278235]","[-1,-1,-1]","[0.019513915942799578,-0.07131247562104404]","[1,1,1]","[0.014493895302933565,-0.16627920147989322]","[-1,-1,-1]","[-0.14697095086313616,0.06571953481413705]","[-1,-1,-1]","[-0.09102510422354552,0.17237466034885154]","[1,1,1]","[-0.055647444789654485,-0.06258321909834003]","[1,1,1]","[-0.1850894760723421,-0.030160160429464032]","[1,1,1]","[0.08672721764669782,-0.01165148617016959]","[1,1,1]","[0.09305458611372626,-0.15859365147328616]","[1,1,1]","[0.07208535675548348,0.14803115955624743]","[1,1,1]","[-0.16259714262808556,-0.09400809970499543]","[1,1,1]","[-0.05867607967438758,-0.18375602983279088]","[-1,-1,-1]","[-0.13568870216679332,0.10690985584935636]","[1,1,1]","[0.14829862455538406,-0.0000483898772684288]","[-1,-1,-1]","[0.02215180831559082,0.1685554371716835]","[-1,-1,-1]","[0.13577013654283174,-0.12551142251687647]","[-1,-1,-1]","[0.019806736539610875,-0.11735608275608249]","[1,1,1]","[0.11595228217609808,0.12618951456731337]","[-1,-1,-1]","[-0.043590783999880006,0.05582586012703785]","[1,1,1]","[0.18184969684095673,0.02302935587349054]","[1,1,1]","[-0.04347688623585611,0.17790889057039386]","[1,1,1]","[0.08952543241276674,0.09192863263554193]","[1,1,1]","[-0.17592676038427488,0.01987501139107598]","[-1,-1,-1]","[0.047944862257378935,0.009608773873852136]","[-1,-1,-1]","[-0.022418267610282008,0.1325393575224272]","[1,1,1]","[0.02,0.02]",159.7024,0,41,41,158,1,,,,,,,
,,,,,,,67b602e2e2bfcaa2a6c901ed,682f0fd011c131d7b751cca5,2025-05-22_14h07.53.056,cuing_paradigm_dot,2024.1.5,Win32,60.24096386,682d573fa47f1360d1451895,,,,,,,,,,,159.7041,160.202,,,160.4519,161.0218,right,0.5624,,,,,,,,,0.45,,,,,,160.2022,160.4518,161.0218,"[0.1475498014302411,0.02608266284425349]","[1,1,1]","[-0.09089960267699283,0.05383446861242427]","[-1,-1,-1]","[0.15263632390242635,0.09983581544537791]","[-1,-1,-1]","[0.023047469199975402,-0.17318568817403424]","[-1,-1,-1]","[-0.10082975756282866,-0.054596135465498914]","[-1,-1,-1]","[-0.0780499668970251,0.1779821775228132]","[-1,-1,-1]","[0.16655511097586234,-0.10094649582830047]","[-1,-1,-1]","[0.007922298860353312,-0.08513350976750814]","[1,1,1]","[0.020095756964239698,-0.018122227163443753]","[1,1,1]","[0.01757316198281312,0.11360375701772261]","[1,1,1]","[0.045823634603192984,-0.13729023609685265]","[1,1,1]","[-0.06884668168921787,-0.14419282093283722]","[-1,-1,-1]","[0.006043923420467442,0.023943500931069676]","[1,1,1]","[0.02526275912937224,0.17716049973667336]","[1,1,1]","[-0.14078689950761142,0.12353728587324145]","[-1,-1,-1]","[0.12353061668154379,-0.10888944251356251]","[-1,-1,-1]","[-0.11331186740022309,0.008584741733065268]","[1,1,1]","[-0.15918587732321735,-0.04353924655018253]","[-1,-1,-1]","[0.09214605770871914,0.13645675568805635]","[-1,-1,-1]","[-0.009131933661706799,0.1473155193872573]","[1,1,1]","[0.1849708065062577,0.04147791121461617]","[-1,-1,-1]","[0.06708099408824876,0.0363533054670039]","[1,1,1]","[0.04597200970959268,0.08002092632270913]","[-1,-1,-1]","[-0.13462570678598254,-0.13630597242819986]","[-1,-1,-1]","[-0.02737837411200272,-0.009100276211078707]","[-1,-1,-1]","[-0.026845872386630224,-0.19048407537018425]","[1,1,1]","[-0.15892543402911333,-0.08633492298565487]","[1,1,1]","[-0.17591527953242508,0.03397492067927457]","[-1,-1,-1]","[-0.1289993252655242,0.06959224654404321]","[1,1,1]","[0.10987132308356093,0.0032331988128572763]","[-1,-1,-1]","[0.09436269448590014,-0.03525899128773231]","[1,1,1]","[-0.012580697443401916,0.193888595988103]","[-1,-1,-1]","[0.02,0.02]",162.1195,0,42,42,81,1,,,,,,,
,,,,,,,67b602e2e2bfcaa2a6c901ed,682f0fd011c131d7b751cca5,2025-05-22_14h07.53.056,cuing_paradigm_dot,2024.1.5,Win32,60.24096386,682d573fa47f1360d1451895,,,,,,,,,,,162.1214,162.6192,,,162.8697,163.2691,left,0.382,,,,,,,,,0.45,,,,,,162.6194,162.8696,163.2692,"[-0.05940797362464952,-0.07674008566206439]","[-1,-1,-1]","[0.1641405688239437,-0.09830727909775522]","[-1,-1,-1]","[-0.05045517519603045,-0.1602981689086654]","[1,1,1]","[-0.04197986150266725,0.024382508473592655]","[-1,-1,-1]","[0.12555908100961974,0.06649237563927474]","[1,1,1]","[0.16936487268498784,-0.05808860572679619]","[1,1,1]","[0.04637588625815858,0.148286351078583]","[-1,-1,-1]","[0.031239919260547807,0.07368332688930312]","[-1,-1,-1]","[0.040281295217661654,-0.12289811425721489]","[-1,-1,-1]","[-0.19541120352020647,-0.029923835990680422]","[1,1,1]","[0.0828559131202575,-0.03781308613369399]","[-1,-1,-1]","[-0.1491337990374623,-0.06621862261480876]","[1,1,1]","[-0.16576338175967764,0.05785322458713696]","[1,1,1]","[-0.08919568353543593,0.06089155493284845]","[-1,-1,-1]","[-0.006355847155218948,-0.0962756877528252]","[-1,-1,-1]","[0.04021774445945988,-0.022457386350456385]","[-1,-1,-1]","[0.0001762015865036942,-0.025084176793321974]","[1,1,1]","[0.030692243031110678,-0.19676298205406784]","[1,1,1]","[-0.11850427508589659,-0.15430585352132645]","[1,1,1]","[0.1006868303023068,-0.11314424106718948]","[-1,-1,-1]","[-0.11294677313580519,0.11775405757518843]","[1,1,1]","[-0.023378410691522394,0.16914137541754104]","[-1,-1,-1]","[0.12246806456809362,-0.026982463907434813]","[-1,-1,-1]","[-0.08731064157708793,-0.03935767889028814]","[1,1,1]","[0.05223521124004522,-0.07899283080698737]","[-1,-1,-1]","[0.08749499508267582,0.002592819963018911]","[-1,-1,-1]","[-0.16616423064681007,0.09891149802747222]","[-1,-1,-1]","[-0.07276990023125583,0.15217235752932418]","[1,1,1]","[0.1504325502372273,0.12848012946520307]","[-1,-1,-1]","[-0.062411773433428894,0.10927588542486032]","[1,1,1]","[0.07888033043419089,-0.18213272191361154]","[1,1,1]","[-0.14977718740060142,-0.12229339886377204]","[-1,-1,-1]","[0.02,0.02]",164.3687,0,43,43,78,1,,,,,,,
,,,,,,,67b602e2e2bfcaa2a6c901ed,682f0fd011c131d7b751cca5,2025-05-22_14h07.53.056,cuing_paradigm_dot,2024.1.5,Win32,60.24096386,682d573fa47f1360d1451895,,,,,,,,,,,164.3703,164.8689,,,165.1226,165.8077,right,0.6682,,,,,,,,,0.4,,,,,,164.8691,165.1225,165.8078,"[-0.1314918172893627,-0.08788837673024834]","[-1,-1,-1]","[-0.038535131706651175,-0.028404650359702084]","[-1,-1,-1]","[0.1465425242763608,-0.009827129000728303]","[-1,-1,-1]","[-0.10477757265339424,-0.024856204173260458]","[-1,-1,-1]","[0.07040144814720997,-0.12990438756535128]","[-1,-1,-1]","[-0.0805911840715407,-0.12101879976976056]","[-1,-1,-1]","[0.1550372380238318,0.0654445064175926]","[1,1,1]","[-0.014034097605155485,0.1618604164187512]","[1,1,1]","[-0.06539082211103302,-0.15904530351899743]","[-1,-1,-1]","[0.11332990229441098,-0.08998313116214343]","[-1,-1,-1]","[-0.09919220065173001,0.053496772756742555]","[-1,-1,-1]","[0.04389669081113768,-0.16099406167131938]","[-1,-1,-1]","[0.011222213337158447,-0.0748962394368569]","[-1,-1,-1]","[-0.004154110736088399,0.08801043932037675]","[1,1,1]","[0.11630978512036702,0.10430251669600855]","[-1,-1,-1]","[0.01767863450616121,-0.12071828831986957]","[1,1,1]","[0.05468999011441463,0.1903634334707631]","[1,1,1]","[0.0319892326823062,-0.037026845980710425]","[1,1,1]","[0.15661815527117787,-0.07725594395053192]","[1,1,1]","[0.05472010280830535,0.008991675088252426]","[-1,-1,-1]","[-0.12550037929271804,0.08376747869605147]","[-1,-1,-1]","[-0.08472069077501876,-0.07982673656111716]","[-1,-1,-1]","[0.09636663684331419,-0.027620312330061708]","[1,1,1]","[0.0032593192778347605,-0.17865657302507162]","[1,1,1]","[-0.1785697756748284,-0.006435213487780879]","[1,1,1]","[0.19768469461364002,0.023752675082075323]","[1,1,1]","[0.07947695884391758,-0.06569040963526786]","[-1,-1,-1]","[-0.033357547165191084,-0.10526273145989003]","[1,1,1]","[-0.04416024763898126,0.03684194500897056]","[1,1,1]","[-0.17814624069769144,-0.0703274711894914]","[-1,-1,-1]","[-0.09422480366274504,0.11951310427164102]","[-1,-1,-1]","[-0.15691242324829638,0.11684702167869662]","[-1,-1,-1]","[0.02,0.02]",166.9056,0,44,44,55,1,,,,,,,
