right,left,explain.started,explain.stopped,key_resp_3.keys,key_resp_3.rt,key_resp_3.duration,participant,session,date,expName,psychopyVersion,OS,frameRate,study_id,explain_2.started,explain_2.stopped,key_resp_4.keys,key_resp_4.rt,key_resp_4.duration,explain_3.started,explain_3.stopped,key_resp_5.keys,key_resp_5.rt,key_resp_5.duration,fixation.started,fixation.stopped,practice.started,practice.stopped,response.started,response.stopped,key_resp.keys,key_resp.rt,key_resp.duration,feedback.started,feedback.stopped,trials_2.thisRepN,trials_2.thisTrialN,trials_2.thisN,trials_2.thisIndex,trials_2.ran,white_ratio,explain_4.started,explain_4.stopped,key_resp_6.keys,key_resp_6.rt,key_resp_6.duration,dotDisplay.started,dotDisplay.stopped,ITI.started,polygon_1.pos,polygon_1.color,polygon_2.pos,polygon_2.color,polygon_3.pos,polygon_3.color,polygon_4.pos,polygon_4.color,polygon_5.pos,polygon_5.color,polygon_6.pos,polygon_6.color,polygon_7.pos,polygon_7.color,polygon_8.pos,polygon_8.color,polygon_9.pos,polygon_9.color,polygon_10.pos,polygon_10.color,polygon_11.pos,polygon_11.color,polygon_12.pos,polygon_12.color,polygon_13.pos,polygon_13.color,polygon_14.pos,polygon_14.color,polygon_15.pos,polygon_15.color,polygon_16.pos,polygon_16.color,polygon_17.pos,polygon_17.color,polygon_18.pos,polygon_18.color,polygon_19.pos,polygon_19.color,polygon_20.pos,polygon_20.color,polygon_21.pos,polygon_21.color,polygon_22.pos,polygon_22.color,polygon_23.pos,polygon_23.color,polygon_24.pos,polygon_24.color,polygon_25.pos,polygon_25.color,polygon_26.pos,polygon_26.color,polygon_27.pos,polygon_27.color,polygon_28.pos,polygon_28.color,polygon_29.pos,polygon_29.color,polygon_30.pos,polygon_30.color,polygon_31.pos,polygon_31.color,polygon_32.pos,polygon_32.color,dot_size,ITI.stopped,trials.thisRepN,trials.thisTrialN,trials.thisN,trials.thisIndex,trials.ran,break_2.started,break_2.stopped,trials_3.thisRepN,trials_3.thisTrialN,trials_3.thisN,trials_3.thisIndex,trials_3.ran
subject chose black,subject chose white,0.0005,20.2288,space,5.2221,,67c3321da0a96b0538b4abbe,682f0fba87de0ca602a6113e,2025-05-22_12h51.49.530,cuing_paradigm_dot,2024.1.5,Win32,59.88023952,682d573fa47f1360d1451895,,,,,,,,,,,,,,,,,,,,,,,,,,,,,,,,,,,,,,,,,,,,,,,,,,,,,,,,,,,,,,,,,,,,,,,,,,,,,,,,,,,,,,,,,,,,,,,,,,,,,,,,,,,,,,,,,
,,,,,,,67c3321da0a96b0538b4abbe,682f0fba87de0ca602a6113e,2025-05-22_12h51.49.530,cuing_paradigm_dot,2024.1.5,Win32,59.88023952,682d573fa47f1360d1451895,20.229,53.6925,space,3.4488,,,,,,,,,,,,,,,,,,,,,,,,,,,,,,,,,,,,,,,,,,,,,,,,,,,,,,,,,,,,,,,,,,,,,,,,,,,,,,,,,,,,,,,,,,,,,,,,,,,,,,,,,,,,,
,,,,,,,67c3321da0a96b0538b4abbe,682f0fba87de0ca602a6113e,2025-05-22_12h51.49.530,cuing_paradigm_dot,2024.1.5,Win32,59.88023952,682d573fa47f1360d1451895,,,,,,53.6925,57.2803,space,0.5838,,,,,,,,,,,,,,,,,,,,,,,,,,,,,,,,,,,,,,,,,,,,,,,,,,,,,,,,,,,,,,,,,,,,,,,,,,,,,,,,,,,,,,,,,,,,,,,,,,,,,,,,
,,,,,,,67c3321da0a96b0538b4abbe,682f0fba87de0ca602a6113e,2025-05-22_12h51.49.530,cuing_paradigm_dot,2024.1.5,Win32,59.88023952,682d573fa47f1360d1451895,,,,,,,,,,,57.2943,57.7922,57.7928,58.0472,58.0473,59.0251,left,0.9441,,59.0251,60.1252,0,0,0,0,1,0.8,,,,,,,,,,,,,,,,,,,,,,,,,,,,,,,,,,,,,,,,,,,,,,,,,,,,,,,,,,,,,,,,,,,,,,,,,,,,,,,,,,,,,,
,,,,,,,67c3321da0a96b0538b4abbe,682f0fba87de0ca602a6113e,2025-05-22_12h51.49.530,cuing_paradigm_dot,2024.1.5,Win32,59.88023952,682d573fa47f1360d1451895,,,,,,,,,,,60.1257,60.6248,60.6248,60.8752,60.8753,61.1579,right,0.2646,,61.158,62.2583,0,1,1,1,1,0.2,,,,,,,,,,,,,,,,,,,,,,,,,,,,,,,,,,,,,,,,,,,,,,,,,,,,,,,,,,,,,,,,,,,,,,,,,,,,,,,,,,,,,,
,,,,,,,67c3321da0a96b0538b4abbe,682f0fba87de0ca602a6113e,2025-05-22_12h51.49.530,cuing_paradigm_dot,2024.1.5,Win32,59.88023952,682d573fa47f1360d1451895,,,,,,,,,,,,,,,,,,,,,,,,,,,,62.2588,67.2083,space,1.929,,,,,,,,,,,,,,,,,,,,,,,,,,,,,,,,,,,,,,,,,,,,,,,,,,,,,,,,,,,,,,,,,,,,,,,,,,,,,,,,,,
,,,,,,,67c3321da0a96b0538b4abbe,682f0fba87de0ca602a6113e,2025-05-22_12h51.49.530,cuing_paradigm_dot,2024.1.5,Win32,59.88023952,682d573fa47f1360d1451895,,,,,,,,,,,67.2167,67.7079,,,67.9585,68.6413,left,0.6624,,,,,,,,,0.55,,,,,,67.7084,67.9584,68.6417,"[-0.04820969743493544,-0.10785223680956156]","[1,1,1]","[-0.045163105337013065,0.043646912408847126]","[-1,-1,-1]","[0.07714189017366516,0.12409509790856664]","[1,1,1]","[0.13701373173776937,-0.12506519578236766]","[1,1,1]","[-0.1503632000741941,-0.1114095531433164]","[-1,-1,-1]","[0.08196909679780777,-0.06474178127764169]","[1,1,1]","[0.1279262092298041,-0.01782840879271688]","[-1,-1,-1]","[-0.1527442434324294,-0.03734811227234589]","[1,1,1]","[-0.0094627683485349,-0.1420169999038181]","[1,1,1]","[-0.054811513788507876,-0.03290155931643053]","[-1,-1,-1]","[-0.1838734552646925,0.008283321698247078]","[-1,-1,-1]","[-0.06598831813380875,0.14079356247148403]","[1,1,1]","[0.14013555421883808,-0.07061856224912641]","[1,1,1]","[0.12249700119337899,0.15163581060043804]","[1,1,1]","[-0.10214340793891262,0.04735468398743511]","[1,1,1]","[0.02086352119081396,-0.038068781275938025]","[1,1,1]","[0.05195686944862988,-0.190798502725761]","[-1,-1,-1]","[-0.0037280543385151844,0.10536786882531672]","[1,1,1]","[-0.1088512042762503,-0.13342675889962158]","[1,1,1]","[0.02066689395452276,-0.10022851387302122]","[1,1,1]","[-0.17043825195623735,0.04895204053706972]","[-1,-1,-1]","[0.007805543926968295,0.05955388465829629]","[-1,-1,-1]","[-0.14223248866350557,0.13252716672835313]","[-1,-1,-1]","[-0.10095524562030866,0.09632386581115993]","[1,1,1]","[0.12723965830841683,0.10713494856402729]","[-1,-1,-1]","[0.16936508979508028,0.0758151308079815]","[1,1,1]","[0.10996311186222789,0.019209088813444804]","[1,1,1]","[-0.017117486559678232,0.17361759297620455]","[-1,-1,-1]","[0.04246796682981091,0.0025264253492983855]","[-1,-1,-1]","[0.05446444460436477,-0.12409758873155127]","[-1,-1,-1]","[0.0559410437415331,0.07778523918676625]","[-1,-1,-1]","[-0.05888863287122752,-0.15507066494508503]","[1,1,1]","[0.02,0.02]",69.741,0,0,0,139,1,,,,,,,
,,,,,,,67c3321da0a96b0538b4abbe,682f0fba87de0ca602a6113e,2025-05-22_12h51.49.530,cuing_paradigm_dot,2024.1.5,Win32,59.88023952,682d573fa47f1360d1451895,,,,,,,,,,,69.7413,70.2415,,,70.4909,70.9408,left,0.4325,,,,,,,,,0.9,,,,,,70.2416,70.4909,70.9408,"[0.010523521051491054,0.18913200366012775]","[-1,-1,-1]","[0.08433310226301753,-0.16532025478420873]","[1,1,1]","[0.10131941629303926,0.06278297906714143]","[1,1,1]","[0.1565169417434562,0.003090150847802854]","[1,1,1]","[0.07067574361989226,0.022096286829474225]","[1,1,1]","[-0.02290585368264603,0.1265346752147645]","[1,1,1]","[0.03148301506918168,-0.11094975177018036]","[1,1,1]","[0.0765952072416772,-0.09871760500925449]","[1,1,1]","[-0.09006533696945322,-0.00554286234925623]","[1,1,1]","[-0.12120039032809145,-0.09765774851159686]","[1,1,1]","[-0.18816364673446193,-0.0121720632343961]","[1,1,1]","[0.15814872037953745,-0.039429078428320274]","[1,1,1]","[-0.00678971235769467,-0.06559845781747503]","[1,1,1]","[-0.09045841883762958,-0.14804150340599853]","[1,1,1]","[-0.12618432649252406,-0.038047171693564225]","[1,1,1]","[-0.07312554270834631,0.0691605228902843]","[1,1,1]","[0.01825183633064475,-0.16869269017405067]","[-1,-1,-1]","[-0.018214384349643193,-0.14327553215149946]","[1,1,1]","[-0.11317104979354788,0.06358154894751213]","[1,1,1]","[0.10048868339823182,0.10320027149478256]","[1,1,1]","[-0.1566668374571617,0.06215784215910211]","[1,1,1]","[-0.0735596080928406,-0.07139286792329658]","[1,1,1]","[0.15909508763662697,0.04630288692503145]","[1,1,1]","[-0.0075487388113588206,0.07053067394891434]","[-1,-1,-1]","[-0.15868441726267382,0.019056424959895825]","[1,1,1]","[-0.1390059191764717,0.13142417745745527]","[1,1,1]","[0.07412509774227688,0.1589595196488274]","[1,1,1]","[0.07101527242315073,-0.020148039463821255]","[1,1,1]","[0.13542143525991077,-0.13624885222934804]","[1,1,1]","[0.15136094594092744,0.09037406768218398]","[1,1,1]","[-0.043062371311818,-0.09743042685176247]","[1,1,1]","[0.11708447651191181,-0.055489984574277194]","[1,1,1]","[0.02,0.02]",72.0413,0,1,1,188,1,,,,,,,
,,,,,,,67c3321da0a96b0538b4abbe,682f0fba87de0ca602a6113e,2025-05-22_12h51.49.530,cuing_paradigm_dot,2024.1.5,Win32,59.88023952,682d573fa47f1360d1451895,,,,,,,,,,,72.0417,72.5413,,,72.7927,72.9584,right,0.1443,,,,,,,,,0.45,,,,,,72.5415,72.7926,72.9586,"[0.048942507075129725,-0.06172824666340843]","[-1,-1,-1]","[-0.054505492695228225,0.18460257672352928]","[-1,-1,-1]","[-0.04469398651759535,0.03281653966351321]","[1,1,1]","[0.018820326741076143,0.14853797918306205]","[1,1,1]","[0.04772851101857622,-0.14031603871045076]","[1,1,1]","[-0.09543360135212527,0.06687712731593831]","[1,1,1]","[-0.16051145089270952,-0.09243031349677117]","[1,1,1]","[0.13383814343946307,-0.12211871931978066]","[-1,-1,-1]","[0.1752828830051874,-0.0656726335297604]","[-1,-1,-1]","[-0.08208176445986033,-0.048412469768744706]","[1,1,1]","[0.14481413626060938,0.048906706954556664]","[-1,-1,-1]","[0.07793660090679656,0.02049591712846566]","[-1,-1,-1]","[0.1169903664666724,0.15906936415182987]","[1,1,1]","[0.0005884742726981066,-0.06586007810726979]","[1,1,1]","[-0.14072456720092902,0.019293791122833064]","[-1,-1,-1]","[0.05114331104312699,0.08622147211727094]","[-1,-1,-1]","[-0.10494323487537194,-0.1284532126470108]","[1,1,1]","[-0.0932130953889654,0.13160008908793838]","[1,1,1]","[-0.18688808951914626,-0.025515200500712563]","[-1,-1,-1]","[0.10861964218717766,-0.029246171394590296]","[-1,-1,-1]","[0.19593482705455104,-0.004908478927062282]","[1,1,1]","[-0.052953824268639295,-0.10718827467489292]","[1,1,1]","[0.07320116586302293,0.17333030296714988]","[-1,-1,-1]","[0.0031601505061883356,0.0920536507654247]","[-1,-1,-1]","[-0.13297356522387468,0.1453117720255392]","[-1,-1,-1]","[0.08332926205952765,-0.08896620290066297]","[1,1,1]","[-0.02181147067466261,-0.003848788630444388]","[-1,-1,-1]","[0.02326132528550361,-0.013768468265151174]","[-1,-1,-1]","[0.13969965658027061,0.09961070722073175]","[-1,-1,-1]","[0.08633091016872615,0.129949770872577]","[1,1,1]","[0.08131924500511828,-0.1701847292375386]","[-1,-1,-1]","[0.15044059244155855,0.0006961007839522676]","[-1,-1,-1]","[0.02,0.02]",74.0579,0,2,2,60,1,,,,,,,
,,,,,,,67c3321da0a96b0538b4abbe,682f0fba87de0ca602a6113e,2025-05-22_12h51.49.530,cuing_paradigm_dot,2024.1.5,Win32,59.88023952,682d573fa47f1360d1451895,,,,,,,,,,,74.0583,74.5583,,,74.8087,75.1242,right,0.2939,,,,,,,,,0.5,,,,,,74.5583,74.8086,75.1242,"[-0.07229923505525786,0.17009567170796033]","[-1,-1,-1]","[-0.056295604869886856,-0.10764707928181137]","[1,1,1]","[-0.15805572894980127,-0.0705914957213281]","[-1,-1,-1]","[0.07449619397694421,-0.16128016226787728]","[-1,-1,-1]","[-0.13240124859844304,0.110232564791994]","[1,1,1]","[-0.048225838151926124,0.050975604515576034]","[-1,-1,-1]","[-0.18676417350045102,0.04094646926745476]","[1,1,1]","[0.03755750982619645,-0.1420752589451457]","[-1,-1,-1]","[0.0026517826302321947,0.16522538865514352]","[1,1,1]","[0.06910534027979681,0.18248115338518814]","[-1,-1,-1]","[-0.12911495015060148,-0.003825265072686659]","[1,1,1]","[-0.02567702134958905,-0.020308123584606527]","[-1,-1,-1]","[-0.13911435682973924,-0.12734302494845703]","[1,1,1]","[-0.08956311055272011,0.047064695423640154]","[-1,-1,-1]","[0.1031471696479372,0.12020959844819779]","[1,1,1]","[0.11022531935714219,-0.07614234513197193]","[1,1,1]","[0.13240563963842705,-0.004177349799856387]","[1,1,1]","[0.03857416283565489,0.13508420452079087]","[1,1,1]","[-0.08792788258884493,-0.13279241350040735]","[1,1,1]","[0.08458342308332305,0.031016970700156687]","[-1,-1,-1]","[0.004456965965981311,0.03723011244311982]","[-1,-1,-1]","[0.1822201164215426,-0.0296248361787943]","[-1,-1,-1]","[-0.1017671577350749,-0.049374519950257004]","[-1,-1,-1]","[-0.05710696382205123,-0.17571638725286684]","[1,1,1]","[0.16653913936256554,0.025225315420502915]","[1,1,1]","[0.04106063743257289,-0.05143209515991568]","[-1,-1,-1]","[0.007346604298118103,-0.1820144407331467]","[1,1,1]","[-0.01469230244160696,-0.09575546601865875]","[-1,-1,-1]","[0.10149417921334433,-0.12725975579944038]","[-1,-1,-1]","[-0.03502334618454461,0.11886227108027522]","[1,1,1]","[-0.0024461263814528947,-0.13962439745689142]","[-1,-1,-1]","[0.10299256715165694,0.07687188383747523]","[1,1,1]","[0.02,0.02]",76.2249,0,3,3,90,1,,,,,,,
,,,,,,,67c3321da0a96b0538b4abbe,682f0fba87de0ca602a6113e,2025-05-22_12h51.49.530,cuing_paradigm_dot,2024.1.5,Win32,59.88023952,682d573fa47f1360d1451895,,,,,,,,,,,76.2252,76.7243,,,76.9747,77.208,left,0.2044,,,,,,,,,0.55,,,,,,76.7244,76.9747,77.2081,"[0.1119504672479834,-0.10745422170978794]","[-1,-1,-1]","[-0.07962021287206557,0.1703843280904535]","[-1,-1,-1]","[-0.11788502032205311,0.14000868371333602]","[1,1,1]","[0.009033686761781585,-0.00010261191430218982]","[1,1,1]","[-0.06486635817539875,0.08469659415804777]","[1,1,1]","[-0.15205875378096154,0.05212224552486663]","[1,1,1]","[0.13406678101184077,0.11184754693572536]","[1,1,1]","[0.0769622850228435,-0.04961790439919696]","[1,1,1]","[-0.15783383369774007,0.11671568019037216]","[-1,-1,-1]","[0.02799736907999473,0.19574988375461966]","[1,1,1]","[-0.09325319374908542,-0.14092018375503254]","[1,1,1]","[0.07142111934994201,0.16770244729328854]","[-1,-1,-1]","[0.14691017937632828,-0.007001346433455829]","[-1,-1,-1]","[0.11643080200090662,0.07586197479494]","[-1,-1,-1]","[0.1802075437230782,0.03911089363772727]","[-1,-1,-1]","[0.051517418593655114,-0.010971734489068333]","[-1,-1,-1]","[0.05692095669545068,-0.1292917179455047]","[1,1,1]","[-0.003956613141325105,-0.03928698946482396]","[-1,-1,-1]","[-0.017658078798081765,-0.12972447877080015]","[1,1,1]","[0.1661572245779415,-0.06281050852459698]","[1,1,1]","[0.020765733881841553,-0.15425763977998494]","[-1,-1,-1]","[0.05369259630429321,-0.08412543248483961]","[-1,-1,-1]","[-0.19259372237505165,0.03289278911349728]","[1,1,1]","[-0.02631672125977459,-0.19074624326552017]","[-1,-1,-1]","[0.05615875216123055,0.08475809069600476]","[-1,-1,-1]","[-0.026736444207546107,0.1633264578283882]","[1,1,1]","[-0.06519740297906083,-0.09741925096013435]","[1,1,1]","[0.1264031241043513,-0.1451685303990712]","[1,1,1]","[0.08378297698132954,-0.16653299412639316]","[-1,-1,-1]","[-0.14805749323430778,-0.04771498201338971]","[1,1,1]","[-0.022976853673496188,0.07403560510131726]","[1,1,1]","[-0.06511762927504201,0.0016585697197053547]","[1,1,1]","[0.02,0.02]",78.3076,0,4,4,145,1,,,,,,,
,,,,,,,67c3321da0a96b0538b4abbe,682f0fba87de0ca602a6113e,2025-05-22_12h51.49.530,cuing_paradigm_dot,2024.1.5,Win32,59.88023952,682d573fa47f1360d1451895,,,,,,,,,,,78.308,78.808,,,79.0583,79.3244,right,0.2334,,,,,,,,,0.55,,,,,,78.8081,79.0582,79.3244,"[-0.03711698182238697,0.08819148418546849]","[1,1,1]","[0.03835314831081028,-0.12228310570585435]","[1,1,1]","[0.013404860998203715,0.16553499617887474]","[-1,-1,-1]","[0.11207875873105355,-0.014040155190070042]","[1,1,1]","[-0.024585781466857696,-0.15269610583739324]","[1,1,1]","[-0.1076639287820068,0.07199786198932703]","[-1,-1,-1]","[0.10564140506935632,0.14314907046272474]","[1,1,1]","[-0.18564184573753034,0.022475407597074625]","[-1,-1,-1]","[-0.11989488775505508,0.010996034035162623]","[-1,-1,-1]","[-0.11997767746708386,-0.1050145305848005]","[1,1,1]","[-0.16238525618652816,0.08151433371961163]","[-1,-1,-1]","[0.12126960057915244,-0.15732235857973503]","[1,1,1]","[-0.022439201463289937,0.008876175377188867]","[-1,-1,-1]","[-0.046362258644262064,-0.07961141030930725]","[1,1,1]","[0.18653405792978425,-0.016057340793242614]","[1,1,1]","[-0.13739333384037533,0.1289695303094585]","[1,1,1]","[0.02753624244244442,-0.17879927311273863]","[1,1,1]","[0.16937383657073177,0.05827013427767149]","[1,1,1]","[-0.06373052906991618,-0.027917418092791142]","[1,1,1]","[-0.08151326137039636,-0.13385234335447244]","[-1,-1,-1]","[0.0341758729696694,0.10572120494051583]","[1,1,1]","[0.17157978233874996,-0.08687619012663181]","[1,1,1]","[0.005798235687893334,-0.09124503217438915]","[-1,-1,-1]","[0.13623915984496396,0.03454958829394095]","[-1,-1,-1]","[-0.1327254587614541,-0.04958837104112359]","[-1,-1,-1]","[0.09231556704305476,0.04543172952642986]","[1,1,1]","[-0.05983063034590179,0.18788141564989005]","[-1,-1,-1]","[0.06769289695592334,0.0016551833684445856]","[1,1,1]","[0.07874777287466748,-0.05374429875168337]","[-1,-1,-1]","[-0.07115068094243747,-0.17312467311717197]","[-1,-1,-1]","[0.12425582845163043,-0.0893124774781329]","[1,1,1]","[-0.05164047949649099,0.04519442954275805]","[-1,-1,-1]","[0.02,0.02]",80.4242,0,5,5,140,1,,,,,,,
,,,,,,,67c3321da0a96b0538b4abbe,682f0fba87de0ca602a6113e,2025-05-22_12h51.49.530,cuing_paradigm_dot,2024.1.5,Win32,59.88023952,682d573fa47f1360d1451895,,,,,,,,,,,80.4245,80.9241,,,81.1749,81.5077,left,0.2998,,,,,,,,,0.5,,,,,,80.9242,81.1749,81.5078,"[0.04013797631292705,0.07572073921534116]","[1,1,1]","[-0.044413060251427536,0.09751830786719903]","[-1,-1,-1]","[-0.10336816479465921,0.16402960625602853]","[-1,-1,-1]","[0.13992228932393327,0.13213190698172084]","[1,1,1]","[-0.015218606016702293,-0.04509555307339997]","[-1,-1,-1]","[0.1573992005720825,0.06799189844464923]","[1,1,1]","[-0.13626642987928778,-0.11435341173783775]","[1,1,1]","[-0.07250877656410759,-0.1637549314860038]","[-1,-1,-1]","[0.12922715315668354,-0.14224268291033626]","[1,1,1]","[0.07764057896330498,-0.046072088873825405]","[-1,-1,-1]","[-0.19401306121596623,-0.04820313114811599]","[1,1,1]","[-0.1186129465419981,0.1034567021265237]","[1,1,1]","[0.15489836493000725,-0.0139471758908452]","[-1,-1,-1]","[-0.051597126463764464,-0.08434437033630308]","[-1,-1,-1]","[-0.01575591853155974,0.009125601585347093]","[-1,-1,-1]","[-0.17814806253406149,0.03218974178841931]","[1,1,1]","[-0.04170665010043754,0.15571606885558206]","[-1,-1,-1]","[0.0024783552436118345,0.058312661756353516]","[1,1,1]","[0.09527245960094438,-0.08491375385692683]","[-1,-1,-1]","[-0.025363368020937405,-0.1622015526019001]","[-1,-1,-1]","[0.07352978455333832,-0.1277485708286431]","[1,1,1]","[-0.1102455570830611,0.03700247692460144]","[1,1,1]","[0.07745641928658992,0.055183447416293545]","[-1,-1,-1]","[0.10308651587095893,0.002878513352811589]","[1,1,1]","[0.034516321156627255,0.0341998137460109]","[-1,-1,-1]","[0.05747163641472089,0.13749857162730136]","[-1,-1,-1]","[-0.06379397920376396,0.18933842393800196]","[1,1,1]","[0.0250881025848432,-0.02530147715181545]","[-1,-1,-1]","[0.14266237579767757,-0.08527587903921517]","[1,1,1]","[0.025083693977997056,-0.09859665276950164]","[1,1,1]","[-0.08242736683869413,0.1279041749620388]","[1,1,1]","[-0.08083945705353193,-0.0007110796790333149]","[-1,-1,-1]","[0.02,0.02]",82.6074,0,6,6,96,1,,,,,,,
,,,,,,,67c3321da0a96b0538b4abbe,682f0fba87de0ca602a6113e,2025-05-22_12h51.49.530,cuing_paradigm_dot,2024.1.5,Win32,59.88023952,682d573fa47f1360d1451895,,,,,,,,,,,82.6077,83.1074,,,83.3579,83.5745,right,0.1846,,,,,,,,,0.55,,,,,,83.1075,83.3579,83.5746,"[0.02041251421652534,-0.054431021334484686]","[1,1,1]","[0.028101324335593897,-0.014465992181994234]","[1,1,1]","[0.012168371118323652,0.18117283266303807]","[1,1,1]","[0.1280107914967308,-0.13868313300688023]","[-1,-1,-1]","[-0.005579414364439131,0.07104684168740616]","[1,1,1]","[-0.04657093252483774,-0.1414877766941363]","[-1,-1,-1]","[-0.1461151112488008,-0.09525872806764855]","[1,1,1]","[-0.09819297794526934,0.12362095204312752]","[-1,-1,-1]","[0.01508722240058712,-0.1299289595705024]","[-1,-1,-1]","[-0.02587943220134117,0.1449235276287984]","[1,1,1]","[-0.1837031959614534,-0.05167477338254318]","[-1,-1,-1]","[0.026148503716552734,0.13400751432025926]","[1,1,1]","[0.16155450714944158,-0.05174422420382404]","[1,1,1]","[0.07265538435938602,-0.10995797831873891]","[1,1,1]","[-0.11277783166061654,-0.12096020946954017]","[1,1,1]","[-0.15791111950291306,0.11216178908476386]","[1,1,1]","[-0.12191224845695077,0.07284350255220179]","[1,1,1]","[0.10979032850597988,-0.04209189691813747]","[1,1,1]","[0.12555825105808502,0.08818453337855653]","[1,1,1]","[-0.07250315863629314,0.018380025207986678]","[1,1,1]","[0.04837470771572726,0.03993805137936049]","[-1,-1,-1]","[-0.03125533807769198,-0.07089957266335672]","[1,1,1]","[-0.1279622139388253,0.004753847917306895]","[-1,-1,-1]","[-0.039201613305258995,-0.012040995061191143]","[-1,-1,-1]","[0.09611777543884356,0.17473722800694738]","[-1,-1,-1]","[0.09200550368812713,0.06403021348736142]","[-1,-1,-1]","[0.09202509379477246,0.12430957560470567]","[-1,-1,-1]","[0.14958327629372598,0.03217093452879954]","[-1,-1,-1]","[-0.17362964854244178,0.0011815686220006975]","[-1,-1,-1]","[-0.03067154803020051,-0.18142978196509785]","[-1,-1,-1]","[0.13159190411579422,0.13760654709851622]","[1,1,1]","[-0.007844948508128623,0.016948887916554647]","[1,1,1]","[0.02,0.02]",84.6742,0,7,7,130,1,,,,,,,
,,,,,,,67c3321da0a96b0538b4abbe,682f0fba87de0ca602a6113e,2025-05-22_12h51.49.530,cuing_paradigm_dot,2024.1.5,Win32,59.88023952,682d573fa47f1360d1451895,,,,,,,,,,,84.6746,85.174,,,85.4242,85.6741,right,0.2333,,,,,,,,,0.45,,,,,,85.174,85.4241,85.6742,"[0.16266971449436896,-0.04258754121848177]","[-1,-1,-1]","[0.05223596332796598,0.17155941544636105]","[-1,-1,-1]","[-0.06641767955099492,-0.05634729384304163]","[-1,-1,-1]","[-0.1141610401287744,0.10656053079278499]","[-1,-1,-1]","[0.08235672217108052,-0.07422620751897839]","[-1,-1,-1]","[0.11532410189568569,-0.16192000943053428]","[-1,-1,-1]","[0.022122380684239388,-0.13994764311832986]","[-1,-1,-1]","[-0.030752162338741975,-0.0825268912334027]","[1,1,1]","[0.019627305794721432,-0.02138389793486771]","[1,1,1]","[0.14807283958149242,0.089965782149563]","[-1,-1,-1]","[-0.009214831455220958,0.030261938518039485]","[-1,-1,-1]","[-0.06285921240824673,0.12037115321619851]","[1,1,1]","[-0.16815315583662951,0.05187886884270718]","[1,1,1]","[-0.13559419130629197,-0.1058903951110698]","[1,1,1]","[0.021788826689521763,-0.07972943987159029]","[-1,-1,-1]","[-0.06688872432278016,-0.16048809612567597]","[-1,-1,-1]","[0.08673952413385595,-0.0005455874926046919]","[1,1,1]","[-0.015782667926341167,-0.1810497829761779]","[-1,-1,-1]","[-0.05024979321279319,0.033993720585628676]","[1,1,1]","[0.09627575420710305,-0.12429017088436843]","[-1,-1,-1]","[0.0037543206342537405,0.0846137183599173]","[1,1,1]","[0.07363801268468724,0.06686001843995613]","[1,1,1]","[-0.14284820760876576,-0.025733282599364644]","[-1,-1,-1]","[0.18203415633873987,0.012122053357714659]","[1,1,1]","[0.04045255915716701,0.11864410857892248]","[-1,-1,-1]","[0.14686143215713682,-0.0929966471219886]","[-1,-1,-1]","[-0.0211626529831231,0.18361372614972765]","[-1,-1,-1]","[-0.09395301858777948,-0.017492169447492805]","[-1,-1,-1]","[0.03464403068259799,0.030757836431722627]","[1,1,1]","[-0.19193782046624983,-0.031444315797847254]","[1,1,1]","[-0.06603133377102423,0.17515188183342756]","[1,1,1]","[-0.17009733391709794,-0.0694791386865035]","[1,1,1]","[0.02,0.02]",86.7741,0,8,8,64,1,,,,,,,
,,,,,,,67c3321da0a96b0538b4abbe,682f0fba87de0ca602a6113e,2025-05-22_12h51.49.530,cuing_paradigm_dot,2024.1.5,Win32,59.88023952,682d573fa47f1360d1451895,,,,,,,,,,,86.7744,87.2743,,,87.525,87.8092,left,0.2681,,,,,,,,,0.5,,,,,,87.2743,87.5249,87.8093,"[0.0952721917628452,0.03471300893790136]","[1,1,1]","[0.08119304929148065,-0.1694926107184782]","[-1,-1,-1]","[-0.1240943693806737,0.07776779938697487]","[-1,-1,-1]","[-0.0539688937867973,0.0778911800645993]","[-1,-1,-1]","[0.005090456822461402,0.06292894689810279]","[1,1,1]","[-0.005697954977403524,0.16229516538456848]","[1,1,1]","[0.1493667887110006,0.011073165693249344]","[-1,-1,-1]","[-0.184256959663795,0.050707147380753576]","[1,1,1]","[-0.08225365246972781,0.16361710678273694]","[1,1,1]","[-0.07710791661547997,-0.05380978028646944]","[1,1,1]","[-0.07719871167970048,-0.09949107482734869]","[1,1,1]","[-0.03463406493995782,-0.02326070008681329]","[1,1,1]","[0.10909725226825144,0.13611111073277288]","[1,1,1]","[0.07033853178331735,0.09446622081556148]","[-1,-1,-1]","[0.12940587652442873,-0.0860306000315714]","[1,1,1]","[-0.027893390184610966,-0.14804692042577466]","[1,1,1]","[0.13562295066194277,0.10274890777057415]","[-1,-1,-1]","[-0.12390178386391776,-0.13861713394870004]","[-1,-1,-1]","[-0.09993629258681455,-0.01713432323113817]","[-1,-1,-1]","[0.0273976669755842,0.12558371937815066]","[-1,-1,-1]","[0.04390177403409081,0.026129152779148925]","[-1,-1,-1]","[0.0191801169365825,-0.13222455281872164]","[-1,-1,-1]","[0.07848772222199393,-0.09653930480232918]","[1,1,1]","[0.0038872474935293623,0.01846319763364645]","[-1,-1,-1]","[-0.09061332033469857,0.02694396469447739]","[1,1,1]","[-0.07823682874473213,-0.15448379083782235]","[1,1,1]","[0.02561088732614765,-0.18665904481557444]","[-1,-1,-1]","[0.1750085147751318,-0.08838971235967615]","[-1,-1,-1]","[0.07607832519935319,0.1769731616026717]","[-1,-1,-1]","[0.134160335186473,0.06181373291433725]","[1,1,1]","[0.030272184775477072,-0.06216524882731052]","[1,1,1]","[0.127053517867278,-0.04022268190687231]","[-1,-1,-1]","[0.02,0.02]",88.9101,0,9,9,94,1,,,,,,,
,,,,,,,67c3321da0a96b0538b4abbe,682f0fba87de0ca602a6113e,2025-05-22_12h51.49.530,cuing_paradigm_dot,2024.1.5,Win32,59.88023952,682d573fa47f1360d1451895,,,,,,,,,,,88.9106,89.4103,,,89.6614,89.9279,right,0.2497,,,,,,,,,0.1,,,,,,89.4103,89.6614,89.9279,"[-0.11663224665458942,-0.06181322203281673]","[-1,-1,-1]","[0.11412256391581574,0.11069780761694592]","[1,1,1]","[0.16623680224785906,-0.07540650348118524]","[-1,-1,-1]","[0.1354863947457564,-0.029526762355481993]","[-1,-1,-1]","[-0.023381690761016573,0.1838631240990191]","[-1,-1,-1]","[0.04571747484586959,-0.05316920456646263]","[-1,-1,-1]","[0.1022017057396821,-0.1379263804035481]","[-1,-1,-1]","[0.07708114088213476,-0.18240452028918414]","[-1,-1,-1]","[-0.025223356475726776,-0.16215253511494637]","[-1,-1,-1]","[0.14212481148937597,0.03496744217393067]","[1,1,1]","[-0.1806367581002077,-0.014836389564134371]","[-1,-1,-1]","[-0.13738322488898644,0.021395626839614688]","[-1,-1,-1]","[0.019542321483017454,-0.1615870424536209]","[-1,-1,-1]","[-0.08069491234139226,0.054927109524277734]","[-1,-1,-1]","[0.18385738541194013,0.05129273857223502]","[-1,-1,-1]","[0.1115633965660014,-0.07278904917236668]","[-1,-1,-1]","[0.10322702786107663,0.00914379228835881]","[-1,-1,-1]","[0.02633779857836011,0.07296770096012034]","[-1,-1,-1]","[0.08368522564230932,-0.034068075444231426]","[-1,-1,-1]","[0.004911630752528489,-0.03255057050225464]","[-1,-1,-1]","[0.020097135144030078,0.1573208538972074]","[-1,-1,-1]","[0.18127318180260696,-0.02161039022427109]","[1,1,1]","[-0.09108227976673743,-0.10446272382145252]","[-1,-1,-1]","[-0.04010144283829052,0.03953555069468475]","[-1,-1,-1]","[-0.09189788393103589,0.0083523312587891]","[-1,-1,-1]","[-0.0007039049128457455,0.12066341366306134]","[-1,-1,-1]","[0.07100707762121967,0.035718629078020384]","[-1,-1,-1]","[-0.05689873907884369,-0.07354402603992596]","[-1,-1,-1]","[-0.04858516369236116,-0.02747761024078092]","[-1,-1,-1]","[0.020144509129341025,-0.0943849697997725]","[-1,-1,-1]","[-0.17232048140187975,0.08886515558346456]","[-1,-1,-1]","[-0.19058560778669537,0.027260150406408994]","[-1,-1,-1]","[0.02,0.02]",91.029,0,10,10,1,1,,,,,,,
,,,,,,,67c3321da0a96b0538b4abbe,682f0fba87de0ca602a6113e,2025-05-22_12h51.49.530,cuing_paradigm_dot,2024.1.5,Win32,59.88023952,682d573fa47f1360d1451895,,,,,,,,,,,91.0293,91.5286,,,91.7802,92.1636,left,0.3672,,,,,,,,,0.9,,,,,,91.5287,91.78,92.1637,"[-0.16447552046340883,-0.0939041955826477]","[1,1,1]","[-0.18980431085123228,0.02345963198708511]","[1,1,1]","[0.08562668236410474,0.08405338448884]","[1,1,1]","[-0.17246513715005318,0.08559624142274658]","[1,1,1]","[-0.1487780209944666,-0.05643146711629016]","[-1,-1,-1]","[0.021986240672919953,-0.021490248474637912]","[1,1,1]","[-0.09475444905066922,-0.11568087248428303]","[1,1,1]","[0.07321812118616962,0.007873974867504045]","[1,1,1]","[0.11962848964235478,-0.10217421663138876]","[1,1,1]","[-0.059571168295226455,0.16705293308044653]","[1,1,1]","[0.08708987686841065,0.13404718157367487]","[1,1,1]","[0.1340186278057932,-0.045106589368105306]","[1,1,1]","[-0.1026399767426533,0.023770911422637903]","[-1,-1,-1]","[-0.04551622957068588,0.05987576216744533]","[-1,-1,-1]","[-0.11790205501694313,-0.15458282693127862]","[1,1,1]","[0.01013885566832571,0.05818498666441956]","[1,1,1]","[0.08448067576845927,-0.07258646031458857]","[1,1,1]","[-0.0553390703869276,0.0992277006559868]","[1,1,1]","[0.03585303930584289,0.1274565102691434]","[1,1,1]","[0.16765776648885314,0.0802546192807105]","[1,1,1]","[-0.07943310695693426,-0.018207194720999093]","[1,1,1]","[0.15101515947738506,0.036696722137049304]","[1,1,1]","[0.06526190663184249,-0.033516997675889025]","[1,1,1]","[-0.024825111226530684,-0.18844781486392284]","[1,1,1]","[-0.012130829863149435,-0.12521047335070357]","[1,1,1]","[0.026642657197085567,-0.08633619696112926]","[1,1,1]","[-0.031891283891960394,0.016452748719030665]","[1,1,1]","[-0.07126767360655584,-0.15378711096616912]","[1,1,1]","[-0.10920780786247442,0.13242821674432229]","[1,1,1]","[0.01340064781263298,0.18171267717350378]","[1,1,1]","[0.009898849129645804,-0.1665325698322507]","[1,1,1]","[-0.09712241715054078,-0.07025514866608903]","[1,1,1]","[0.02,0.02]",93.2648,0,11,11,184,1,,,,,,,
,,,,,,,67c3321da0a96b0538b4abbe,682f0fba87de0ca602a6113e,2025-05-22_12h51.49.530,cuing_paradigm_dot,2024.1.5,Win32,59.88023952,682d573fa47f1360d1451895,,,,,,,,,,,93.2652,93.7647,,,94.0162,94.3335,left,0.3013,,,,,,,,,0.9,,,,,,93.7647,94.0162,94.3335,"[0.15881076570405192,-0.06562655027759351]","[1,1,1]","[-0.08420968771676489,-0.04436346388524389]","[1,1,1]","[-0.07693400287354796,0.09942240627498046]","[1,1,1]","[0.047056893322599075,0.17444106334906398]","[1,1,1]","[-0.08016270617941401,-0.09692856712361643]","[1,1,1]","[0.06865447282415606,-0.01679269311027018]","[1,1,1]","[0.03120506745311572,-0.08152596087785642]","[1,1,1]","[-0.04579980461238852,0.07331863137599784]","[1,1,1]","[0.11111749754536139,-0.16424706139223902]","[1,1,1]","[-0.017462622278542887,0.14311920525711339]","[-1,-1,-1]","[0.1710523666949576,-0.00101690517677636]","[1,1,1]","[0.031989016017981035,0.06184056072681464]","[1,1,1]","[0.07427383246084233,0.13082030480659912]","[1,1,1]","[0.004835987677343172,-0.1899666696923847]","[1,1,1]","[-0.1605064107877084,0.022276446458433116]","[1,1,1]","[0.11074817830538009,-0.09315811289041301]","[-1,-1,-1]","[-0.15942396678072762,0.06324480977959868]","[1,1,1]","[-0.013546858153114296,0.04220840632007988]","[1,1,1]","[-0.04164072959347284,-0.11638112348086675]","[1,1,1]","[0.07470446868451211,-0.11757045922263003]","[1,1,1]","[0.005537791960655032,-0.024325551852034607]","[1,1,1]","[-0.16288207756035752,-0.07223738803019855]","[1,1,1]","[-0.10656815129237818,0.0037140631713829812]","[1,1,1]","[-0.12073405694435224,-0.12299699730512234]","[1,1,1]","[0.17640926592973522,0.054090107462296394]","[1,1,1]","[-0.08912759450999351,0.04884443119559789]","[1,1,1]","[-0.04272498479729624,-0.004810980446917298]","[1,1,1]","[0.13830513382187443,0.03976376632903038]","[1,1,1]","[0.03308782255746718,0.11154510686027451]","[1,1,1]","[-0.0029653457809877683,0.18877967493972278]","[1,1,1]","[0.03553817749847283,-0.14497851867896114]","[-1,-1,-1]","[0.12006499399869425,-0.011058698705450495]","[1,1,1]","[0.02,0.02]",95.4336,0,12,12,197,1,,,,,,,
,,,,,,,67c3321da0a96b0538b4abbe,682f0fba87de0ca602a6113e,2025-05-22_12h51.49.530,cuing_paradigm_dot,2024.1.5,Win32,59.88023952,682d573fa47f1360d1451895,,,,,,,,,,,95.4339,95.9338,,,96.185,96.6189,right,0.4176,,,,,,,,,0.55,,,,,,95.9338,96.1849,96.6189,"[0.19339801651444047,0.03807196231928377]","[-1,-1,-1]","[-0.15140957439117206,-0.08904013882925485]","[-1,-1,-1]","[-0.03079274743601634,-0.14151263865028252]","[-1,-1,-1]","[-0.01976655578883129,0.18943239220236682]","[1,1,1]","[0.15245540110672418,0.12479193495171494]","[1,1,1]","[-0.020054769654610262,-0.01835973245731697]","[-1,-1,-1]","[-0.049716204950512995,-0.09263722332984654]","[1,1,1]","[-0.04396551165944738,0.08205654533659505]","[-1,-1,-1]","[-0.1562613337524463,-0.013945914332433767]","[1,1,1]","[0.029243163119643773,0.15886074391510743]","[-1,-1,-1]","[0.05366114887562632,-0.14021963599116696]","[1,1,1]","[0.1478865255082933,0.006924348293017672]","[-1,-1,-1]","[-0.06847334953069571,-0.1850268315352739]","[-1,-1,-1]","[-0.019791902476896984,0.11459615795427104]","[1,1,1]","[-0.09452526746432012,-0.13349750335085098]","[1,1,1]","[0.012491415650367719,0.047638689950925024]","[-1,-1,-1]","[0.09575652292941149,0.07094702518197608]","[1,1,1]","[-0.09457065859118848,0.06089856707879745]","[1,1,1]","[-0.1052619490749759,0.10904764312511665]","[-1,-1,-1]","[-0.14436725833260758,0.13134665634824017]","[1,1,1]","[0.14974893972792244,-0.0687430203164475]","[-1,-1,-1]","[0.11452333470294489,0.1393951839622002]","[1,1,1]","[-0.06463686025814942,0.15741480487095588]","[1,1,1]","[0.06703419778735745,0.1063103809716491]","[1,1,1]","[0.04152461405091812,-0.0850888998431526]","[-1,-1,-1]","[0.09565419102524676,-0.12094183275492236]","[-1,-1,-1]","[0.0326937099987927,-0.1743881911917148]","[1,1,1]","[0.08685246517436687,-0.0025853495293193538]","[1,1,1]","[-0.025559458257626854,0.022451275935037866]","[1,1,1]","[-0.18771448220867568,0.06759539151821159]","[1,1,1]","[-0.1529262942669112,0.028034295827473483]","[1,1,1]","[0.11462721970934471,-0.04776260923377652]","[-1,-1,-1]","[0.02,0.02]",97.7193,0,13,13,146,1,,,,,,,
,,,,,,,67c3321da0a96b0538b4abbe,682f0fba87de0ca602a6113e,2025-05-22_12h51.49.530,cuing_paradigm_dot,2024.1.5,Win32,59.88023952,682d573fa47f1360d1451895,,,,,,,,,,,97.7196,98.2189,,,98.4703,98.9534,left,0.4669,,,,,,,,,0.6,,,,,,98.2189,98.4703,98.9534,"[0.1494449496506875,0.0657225707270579]","[1,1,1]","[-0.03218397839935389,-0.166933386806334]","[-1,-1,-1]","[0.08171965925992379,-0.008628781121356387]","[1,1,1]","[0.13568534673768223,-0.10701362750266792]","[1,1,1]","[0.04096476880514244,-0.0502309995212259]","[1,1,1]","[-0.08499078326843129,0.007847654580407256]","[-1,-1,-1]","[0.08077039478452429,0.15015201815541773]","[-1,-1,-1]","[0.06683492276252179,-0.1050169284947298]","[1,1,1]","[-0.07987754930351688,-0.04635853633404932]","[-1,-1,-1]","[0.02484474655012366,0.06562996370762579]","[-1,-1,-1]","[0.04050481089009436,-0.1470854657517825]","[1,1,1]","[-0.029323536342728367,0.07058566857826859]","[1,1,1]","[-0.053954107300626664,-0.100242338935724]","[1,1,1]","[-0.02122445691955147,0.010499292401592242]","[1,1,1]","[-0.12269684568966988,0.03946834806517157]","[1,1,1]","[-0.16473706998247278,0.0014349292559939564]","[1,1,1]","[0.1661125624980658,-0.02061546375847437]","[-1,-1,-1]","[-0.1268615496714969,0.11607867852653085]","[1,1,1]","[-0.13729474403557715,-0.03775282414809585]","[-1,-1,-1]","[-0.07045284992716544,0.1549097253316566]","[1,1,1]","[0.12379840778558467,-0.0027011881830311156]","[-1,-1,-1]","[0.09041903302256958,-0.05150666153973797]","[-1,-1,-1]","[0.0018797649046775348,0.12166820622538495]","[1,1,1]","[-0.12928726959211276,-0.11948864534908575]","[-1,-1,-1]","[0.15099106166364695,0.12624389886099271]","[-1,-1,-1]","[0.13268284728009605,-0.14905555904238008]","[-1,-1,-1]","[-0.1841177476071027,-0.05846128089610416]","[1,1,1]","[-0.05759661306097202,0.03920593329059863]","[1,1,1]","[-0.07804443664961225,-0.15359626561078443]","[1,1,1]","[0.03213995624075441,0.16092700943479515]","[1,1,1]","[-0.0953067239536968,0.087890401773886]","[1,1,1]","[-0.1578562490151665,0.08982192436376682]","[-1,-1,-1]","[0.02,0.02]",100.0539,0,14,14,157,1,,,,,,,
,,,,,,,67c3321da0a96b0538b4abbe,682f0fba87de0ca602a6113e,2025-05-22_12h51.49.530,cuing_paradigm_dot,2024.1.5,Win32,59.88023952,682d573fa47f1360d1451895,,,,,,,,,,,100.0542,100.5557,,,100.8073,101.0571,right,0.2162,,,,,,,,,0.5,,,,,,100.5557,100.8073,101.0572,"[0.12158071712764162,0.12941323157206214]","[-1,-1,-1]","[-0.05219489846236641,0.0005912033487673826]","[1,1,1]","[0.1558386982965612,-0.0780895691490002]","[-1,-1,-1]","[-0.030870021389292467,-0.1509226223736215]","[-1,-1,-1]","[0.18091354098851226,-0.0007763774318259003]","[1,1,1]","[0.08696975390999194,-0.09055956102577441]","[-1,-1,-1]","[-0.16822081333225428,-0.015403581081640833]","[1,1,1]","[-0.0684621874699166,0.08818128003437208]","[1,1,1]","[-0.04920882450106429,0.048649768234838554]","[-1,-1,-1]","[0.1374450519416445,0.045488386352191074]","[1,1,1]","[0.13620872775235326,-0.017167807131046747]","[-1,-1,-1]","[0.014108281352662339,0.02268486142773458]","[1,1,1]","[-0.005546003412464826,0.10853012630260375]","[1,1,1]","[0.009634026099413483,-0.11832054705792568]","[1,1,1]","[-0.01891119794991299,0.16578846761766744]","[-1,-1,-1]","[0.006200661259655908,-0.17668167215885072]","[1,1,1]","[0.08623254029682999,0.002893846234017316]","[1,1,1]","[-0.10444035314249958,-0.04769359040787133]","[-1,-1,-1]","[-0.12661456164357246,0.0847121138049436]","[-1,-1,-1]","[0.11767391490800577,-0.15636783186573566]","[1,1,1]","[-0.13306958973463295,0.043002534830995795]","[-1,-1,-1]","[-0.11256303065210663,-0.09490826527902634]","[1,1,1]","[0.12010391801065035,-0.11370049991033562]","[-1,-1,-1]","[0.13075195590563787,0.08808526743541656]","[-1,-1,-1]","[0.02009389686981906,0.19344123607556132]","[-1,-1,-1]","[-0.06635706609498292,-0.12310534382244981]","[1,1,1]","[0.0023843628268328454,-0.06550221656899537]","[-1,-1,-1]","[-0.14879919056659804,-0.1315999682710295]","[1,1,1]","[-0.08813762716061624,0.03480942883714807]","[-1,-1,-1]","[-0.02836564149025853,-0.036710230503292786]","[1,1,1]","[0.07000841450528855,-0.04321975738076271]","[-1,-1,-1]","[0.04940291710844792,0.12273179125238234]","[1,1,1]","[0.02,0.02]",102.1574,0,15,15,92,1,,,,,,,
,,,,,,,67c3321da0a96b0538b4abbe,682f0fba87de0ca602a6113e,2025-05-22_12h51.49.530,cuing_paradigm_dot,2024.1.5,Win32,59.88023952,682d573fa47f1360d1451895,,,,,,,,,,,102.1577,102.6571,,,102.9076,103.3574,left,0.4447,,,,,,,,,0.55,,,,,,102.6572,102.9076,103.3575,"[0.05435665880618629,-0.1450063677982857]","[1,1,1]","[-0.15099239557920258,-0.01601891434337373]","[1,1,1]","[-0.05030872460797404,-0.10560948543274808]","[1,1,1]","[0.13581696996355946,-0.08177798417736275]","[-1,-1,-1]","[-0.05846220948982517,0.09981171592863036]","[1,1,1]","[-0.041933105200689096,-0.16264314330988258]","[1,1,1]","[0.06809210934104325,-0.09490653706523847]","[-1,-1,-1]","[-0.15132707807377538,0.09138622627861026]","[-1,-1,-1]","[0.10120728479219784,0.1638601081101363]","[-1,-1,-1]","[-0.0005644761553946363,0.16210412660847695]","[1,1,1]","[0.19067670592383845,-0.043037494621706834]","[1,1,1]","[0.02391901631228085,0.00037749608609228516]","[-1,-1,-1]","[-0.11503015102486844,-0.1306630722771319]","[1,1,1]","[-0.09630029066985,-0.07439678439849987]","[-1,-1,-1]","[0.017540740427356268,-0.06423941328604386]","[1,1,1]","[0.03372285576334411,0.1952997965528941]","[1,1,1]","[0.04621721961595979,0.07706840458503503]","[1,1,1]","[-0.16371666456110992,-0.11340646549330745]","[-1,-1,-1]","[-0.008755577144809974,-0.11771359098494821]","[1,1,1]","[0.10569372887215342,-0.04767028540157027]","[-1,-1,-1]","[-0.045113530293532614,-0.009574773776336318]","[-1,-1,-1]","[-0.05542277174700162,0.17976195618771693]","[1,1,1]","[0.1595682940438998,0.10287593482225281]","[-1,-1,-1]","[0.09642964470206611,0.10924949387373759]","[-1,-1,-1]","[-0.18673535821605658,0.04765315462073006]","[1,1,1]","[-0.10452381389213714,0.03219837766303205]","[1,1,1]","[-0.02458723443562639,-0.04834068853741567]","[-1,-1,-1]","[0.01950756272813907,0.10850617712055224]","[1,1,1]","[0.09315759284951995,-0.16283716529526876]","[-1,-1,-1]","[-0.015312049250201609,0.028275902360126514]","[-1,-1,-1]","[-0.1397266457302673,0.13301692094211362]","[1,1,1]","[0.14869116304824828,0.033480627130063105]","[1,1,1]","[0.02,0.02]",104.457,0,16,16,123,1,,,,,,,
,,,,,,,67c3321da0a96b0538b4abbe,682f0fba87de0ca602a6113e,2025-05-22_12h51.49.530,cuing_paradigm_dot,2024.1.5,Win32,59.88023952,682d573fa47f1360d1451895,,,,,,,,,,,104.4574,104.9569,,,105.2081,105.6746,left,0.4415,,,,,,,,,0.55,,,,,,104.957,105.208,105.6747,"[-0.0750931519527672,-0.13272984503582125]","[-1,-1,-1]","[-0.08794563874334042,0.048041011150873274]","[1,1,1]","[-0.12616073433971156,-0.1354519731180647]","[-1,-1,-1]","[-0.1449661052092936,0.09947035292314314]","[1,1,1]","[0.010033577512382192,-0.0008841020935266518]","[-1,-1,-1]","[0.06916144352233723,0.035972646414067305]","[1,1,1]","[-0.13667384452018247,0.053106209296016484]","[-1,-1,-1]","[0.05843541666172985,-0.04040277537282954]","[-1,-1,-1]","[-0.13504012912719443,-0.055518296025955996]","[-1,-1,-1]","[-0.05324415877873735,0.0683416939546106]","[-1,-1,-1]","[0.1093804961187383,0.13487578862876534]","[-1,-1,-1]","[-0.07840262661138986,-0.18281872950432845]","[1,1,1]","[0.14743981120726768,0.10632081900537323]","[1,1,1]","[-0.011154263049055788,-0.19635754296032126]","[1,1,1]","[-0.003148821103911116,-0.09392603924987727]","[1,1,1]","[0.02134493195975359,0.14733172733119396]","[1,1,1]","[0.17449324576545241,0.07626160463658373]","[-1,-1,-1]","[0.03990615784053625,-0.1090827290288255]","[1,1,1]","[0.10702920358126307,0.022310757220952524]","[1,1,1]","[0.017475715399220923,-0.15855567735693069]","[1,1,1]","[-0.10908244620844172,-0.019278574885421562]","[1,1,1]","[0.1932665871997745,-0.04732828807990112]","[1,1,1]","[-0.05849901185757046,-0.03949283728274443]","[1,1,1]","[0.02407655944162289,0.09009488618154243]","[-1,-1,-1]","[0.17873342994441088,0.006539262266905618]","[1,1,1]","[0.13082141588892823,-0.10590034823592848]","[1,1,1]","[0.10301690253396854,-0.043134376464248045]","[-1,-1,-1]","[-0.006308485749950314,0.05398239135286703]","[1,1,1]","[0.09186792710829662,-0.09048972134470101]","[-1,-1,-1]","[-0.051192458134376215,-0.09323812533614198]","[-1,-1,-1]","[0.1522075309504143,-0.033517844094898004]","[1,1,1]","[-0.07831425194596361,0.16261888920692766]","[-1,-1,-1]","[0.02,0.02]",106.7739,0,17,17,143,1,,,,,,,
,,,,,,,67c3321da0a96b0538b4abbe,682f0fba87de0ca602a6113e,2025-05-22_12h51.49.530,cuing_paradigm_dot,2024.1.5,Win32,59.88023952,682d573fa47f1360d1451895,,,,,,,,,,,106.7747,107.2742,,,107.5242,107.6911,right,0.1346,,,,,,,,,0.1,,,,,,107.2743,107.5241,107.6911,"[-0.09787832657779723,0.09291651461523528]","[-1,-1,-1]","[-0.035943706775437616,-0.13678890533771024]","[-1,-1,-1]","[-0.10912646177523118,-0.012385079997865048]","[-1,-1,-1]","[0.07554170552652588,0.025703985620811623]","[-1,-1,-1]","[0.0916438485984471,-0.1328472432286239]","[-1,-1,-1]","[0.12601705235441218,0.03405581010590674]","[-1,-1,-1]","[-0.007693788847202679,-0.0951924904354544]","[-1,-1,-1]","[-0.014037252546277627,0.1199482869984631]","[-1,-1,-1]","[0.1790817157232539,-0.08579802461340687]","[1,1,1]","[-0.029994459032834805,0.03848519117140081]","[-1,-1,-1]","[0.02517979976416471,0.14100128221267336]","[-1,-1,-1]","[0.10091333930172271,0.1117238662095561]","[-1,-1,-1]","[-0.09364865829018218,-0.14089784325175467]","[-1,-1,-1]","[-0.1517562645161562,-0.11506683278434691]","[-1,-1,-1]","[-0.019542716127746888,0.1802537187413303]","[-1,-1,-1]","[0.07573762800022046,-0.1779071425675978]","[-1,-1,-1]","[0.03702315736526621,-0.02155179297225422]","[-1,-1,-1]","[0.12142918231729419,-0.017956060090290906]","[-1,-1,-1]","[-0.18572768818851412,0.059665782270863915]","[-1,-1,-1]","[0.1788379523444187,0.05445762772264827]","[1,1,1]","[0.022368649625223735,-0.18349331046124265]","[-1,-1,-1]","[-0.12117391226298765,-0.056987484478680205]","[-1,-1,-1]","[0.13305199125589268,0.13877827654496183]","[-1,-1,-1]","[-0.17557715128271906,-0.006578615462468086]","[-1,-1,-1]","[-0.06778629677453193,0.055095996025826925]","[-1,-1,-1]","[0.052586483310414205,0.09499472690305844]","[-1,-1,-1]","[-0.0075885139589612636,0.07446536243878134]","[-1,-1,-1]","[0.06004477049919379,-0.05851090023598855]","[1,1,1]","[-0.09512641816093333,-0.09887518249523074]","[-1,-1,-1]","[-0.02924396117360441,-0.18957370688188332]","[-1,-1,-1]","[0.007400625484660043,-0.13233312243784778]","[-1,-1,-1]","[0.17372188403905656,-0.017686866798474036]","[-1,-1,-1]","[0.02,0.02]",108.7906,0,18,18,22,1,,,,,,,
,,,,,,,67c3321da0a96b0538b4abbe,682f0fba87de0ca602a6113e,2025-05-22_12h51.49.530,cuing_paradigm_dot,2024.1.5,Win32,59.88023952,682d573fa47f1360d1451895,,,,,,,,,,,108.7911,109.2905,,,109.5408,110.0578,right,0.5036,,,,,,,,,0.5,,,,,,109.2905,109.5408,110.0579,"[0.17387470349405504,-0.006582106561076301]","[1,1,1]","[0.1510339693080764,0.12746560933710777]","[-1,-1,-1]","[-0.05183025406648297,0.05057476844197043]","[-1,-1,-1]","[0.006753694230637788,-0.12119840001754252]","[-1,-1,-1]","[-0.013194846953822987,-0.08187963910571744]","[1,1,1]","[-0.06371971700772973,0.0026607828546322356]","[1,1,1]","[-0.1711302714091218,-0.05351453509322036]","[1,1,1]","[-0.12402869235516922,-0.007872928701229066]","[-1,-1,-1]","[-0.04251118517002524,0.09445903699354417]","[1,1,1]","[0.08275520482558181,0.14446488874423022]","[1,1,1]","[0.11255480846304121,0.032483481349000184]","[1,1,1]","[0.04754662326852661,0.12072221891883145]","[-1,-1,-1]","[-0.09203907342371251,-0.14742876046561584]","[1,1,1]","[0.017774807214734657,-0.005144915689140069]","[-1,-1,-1]","[-0.02982112901100843,0.1646842669786271]","[-1,-1,-1]","[0.032594245173231014,-0.19204974666044994]","[1,1,1]","[0.15603592563439117,-0.05055918666452776]","[-1,-1,-1]","[0.03422018477990148,0.19679764591176835]","[1,1,1]","[0.0857214284459088,-0.07493128726923545]","[-1,-1,-1]","[-0.012585383447032873,0.03556600511882711]","[-1,-1,-1]","[0.1357682761164026,-0.13638019235682888]","[1,1,1]","[-0.03953356442019912,-0.1712172684781993]","[1,1,1]","[-0.17975676113381214,0.06849799891450573]","[-1,-1,-1]","[-0.14744823628753317,0.03564055712980737]","[1,1,1]","[0.05296235317480619,0.06473571647022663]","[-1,-1,-1]","[0.08862762344984539,0.09574575965487714]","[-1,-1,-1]","[-0.05292871522300444,-0.06773139616798786]","[-1,-1,-1]","[0.12361276190921247,-0.014349389486762947]","[1,1,1]","[0.13548899883791757,0.06732281815837267]","[-1,-1,-1]","[-0.1423855798248469,0.1278790010623794]","[1,1,1]","[-0.13048254729010814,-0.06977217407782202]","[-1,-1,-1]","[0.06344439402578532,-0.13033171176282882]","[1,1,1]","[0.02,0.02]",111.1576,0,19,19,110,1,,,,,,,
,,,,,,,67c3321da0a96b0538b4abbe,682f0fba87de0ca602a6113e,2025-05-22_12h51.49.530,cuing_paradigm_dot,2024.1.5,Win32,59.88023952,682d573fa47f1360d1451895,,,,,,,,,,,111.1579,111.6577,,,111.9002,112.424,left,0.5138,,,,,,,,,0.4,,,,,,111.6578,111.9002,112.4241,"[-0.16788555892462603,-0.0784197921227762]","[-1,-1,-1]","[0.006598476825187902,0.04886255111069582]","[-1,-1,-1]","[-0.1972949871845868,-0.015254465739581032]","[-1,-1,-1]","[0.025870230202497246,-0.14618767104546895]","[-1,-1,-1]","[-0.05627558031864253,0.14359806436884434]","[-1,-1,-1]","[0.04527662853902487,0.06094139031280328]","[1,1,1]","[0.09029432537886821,0.0452091361240333]","[-1,-1,-1]","[0.15590975751080433,-0.05886184343082324]","[-1,-1,-1]","[0.09868171444209858,-0.008995497062318825]","[-1,-1,-1]","[-0.0252560139122182,-0.1095901841402778]","[1,1,1]","[-0.12781137771680504,0.004645010375455599]","[1,1,1]","[-0.13931254082931968,0.12063313455733521]","[-1,-1,-1]","[0.08980622272050216,-0.08354410032495461]","[-1,-1,-1]","[-0.06902013113578138,-0.06454035691918114]","[1,1,1]","[-0.135116368254072,-0.13569382164752364]","[-1,-1,-1]","[-0.14322747819641268,-0.04153769740638026]","[1,1,1]","[-0.16559375021834732,0.05600901029931578]","[1,1,1]","[-0.04868188314250321,-0.17455572206165226]","[1,1,1]","[-0.0922039530350256,0.029418054262837227]","[1,1,1]","[0.17493869008218216,0.07134180703702346]","[1,1,1]","[-0.09979480714401977,-0.10691399315134514]","[-1,-1,-1]","[0.1991764926242926,-0.01723667619796657]","[1,1,1]","[0.07444205566112934,0.17782161451603137]","[1,1,1]","[0.06725840931184761,-0.1547574147838333]","[-1,-1,-1]","[0.010254274559689351,-0.09006600063953388]","[-1,-1,-1]","[-0.05373537764694992,0.18831107914559714]","[1,1,1]","[0.023577851672290203,0.16091370144026704]","[-1,-1,-1]","[-0.024479657428757375,-0.061774850036422614]","[1,1,1]","[0.1281344950088284,0.05916474172122242]","[-1,-1,-1]","[0.12814129053736406,0.14867705825467878]","[-1,-1,-1]","[0.04137984653772998,-0.006723501156637858]","[-1,-1,-1]","[-0.05246582808759005,0.021480890751642896]","[-1,-1,-1]","[0.02,0.02]",113.5239,0,20,20,58,1,,,,,,,
,,,,,,,67c3321da0a96b0538b4abbe,682f0fba87de0ca602a6113e,2025-05-22_12h51.49.530,cuing_paradigm_dot,2024.1.5,Win32,59.88023952,682d573fa47f1360d1451895,,,,,,,,,,,113.5243,114.0238,,,114.274,114.7904,left,0.4847,,,,,,,,,0.55,,,,,,114.0239,114.274,114.7905,"[-0.049470820578743954,0.11138217173511178]","[1,1,1]","[0.04989623877950227,-0.046755873323606034]","[-1,-1,-1]","[-0.07060073449868037,-0.06026003877874092]","[1,1,1]","[-0.15196143269319476,0.05496435896300692]","[1,1,1]","[-0.11293688744300348,-0.16282619915272034]","[-1,-1,-1]","[0.18210644368778217,-0.07771356107063256]","[-1,-1,-1]","[0.06351403191646748,-0.16139942957192094]","[-1,-1,-1]","[-0.05177786590154119,0.02319872338770027]","[1,1,1]","[-0.0069824304071592035,-0.10387712162455696]","[1,1,1]","[0.14960367416269646,0.11366587255088348]","[-1,-1,-1]","[0.034985849343063743,0.10762897818800764]","[-1,-1,-1]","[-0.07079804570006906,0.1731618800956593]","[1,1,1]","[0.10091755477904499,0.07535036780452387]","[1,1,1]","[-0.15499329314917112,0.122072614445571]","[-1,-1,-1]","[0.14112204193377512,0.05957133347991648]","[1,1,1]","[-0.08679597443315722,-0.012156347365960638]","[-1,-1,-1]","[0.006180234305709745,-0.16225353000978915]","[1,1,1]","[0.007162728867410636,0.0572047898049909]","[1,1,1]","[0.09196947829552134,-0.00331937330848135]","[1,1,1]","[0.1938514129582484,-0.0029076422306829972]","[1,1,1]","[0.006808405099623853,0.1869325180577407]","[1,1,1]","[-0.17435288984913663,-0.006163917941054632]","[-1,-1,-1]","[0.07933226323751241,0.1467260415950917]","[-1,-1,-1]","[-0.016822539574228697,-0.060528296676384694]","[1,1,1]","[0.144175872477975,0.01281882447495892]","[1,1,1]","[-0.03641601521674839,-0.17244309535870983]","[1,1,1]","[-0.14476252102014212,-0.05455905454299251]","[1,1,1]","[0.04771666215216957,0.18289235499245637]","[-1,-1,-1]","[0.032924554302271605,-0.19536727658868322]","[1,1,1]","[0.13361864541013882,-0.04864573529157368]","[-1,-1,-1]","[0.15030482786956526,-0.10482882616012378]","[-1,-1,-1]","[0.051741531384547526,0.037911929387886796]","[-1,-1,-1]","[0.02,0.02]",115.8907,0,21,21,124,1,,,,,,,
,,,,,,,67c3321da0a96b0538b4abbe,682f0fba87de0ca602a6113e,2025-05-22_12h51.49.530,cuing_paradigm_dot,2024.1.5,Win32,59.88023952,682d573fa47f1360d1451895,,,,,,,,,,,115.8912,116.3904,,,116.6405,116.9071,right,0.2522,,,,,,,,,0.4,,,,,,116.3904,116.6405,116.9071,"[0.08663768832181226,0.07537384060026746]","[-1,-1,-1]","[0.18509692004743905,-0.027888126832537292]","[-1,-1,-1]","[0.06817086700686835,-0.019213066772745764]","[-1,-1,-1]","[-0.0057664624275790095,0.07048882269777604]","[-1,-1,-1]","[0.10951041729610751,0.1268075275950464]","[-1,-1,-1]","[0.033288259083423435,-0.18540211143358704]","[-1,-1,-1]","[-0.05278264438712315,0.17105765157039135]","[1,1,1]","[-0.025845109637816308,-0.13388386187394483]","[-1,-1,-1]","[0.03401414440542856,0.006756061681219905]","[1,1,1]","[-0.14281390841584873,0.12304546058134427]","[1,1,1]","[-0.06461808090143925,0.11060717883180171]","[-1,-1,-1]","[-0.15965053355810402,0.08489687158250188]","[1,1,1]","[-0.08091646608713181,-0.11740111809217502]","[-1,-1,-1]","[-0.1596425081369307,-0.046360178608549525]","[-1,-1,-1]","[-0.13000502365303718,-0.12488930964892044]","[1,1,1]","[0.1373072653029535,0.029928790937489187]","[1,1,1]","[0.12338695050224795,-0.04061964808758068]","[-1,-1,-1]","[-0.12184385297418372,0.06906498918220746]","[-1,-1,-1]","[-0.08408787320728331,-0.004850574201559852]","[1,1,1]","[-0.09101771218972582,-0.16003731181583353]","[-1,-1,-1]","[-0.05871754659533615,0.06280753672517972]","[1,1,1]","[0.05185632176079764,-0.1101625401404572]","[-1,-1,-1]","[0.07849085668452081,-0.06426151774347132]","[1,1,1]","[0.1289635632907821,-0.13814002824354882]","[-1,-1,-1]","[-0.017238776469615965,0.11127802672036416]","[-1,-1,-1]","[0.014718290857876484,0.16687169732441748]","[1,1,1]","[-0.11982727935819622,0.02889696896080434]","[1,1,1]","[0.045915053061648496,0.10317300463175208]","[1,1,1]","[0.16758437927526512,0.08139339485762578]","[-1,-1,-1]","[0.17662426900555186,-0.08202418996939546]","[1,1,1]","[-0.021758304651615743,-0.045618668200177605]","[-1,-1,-1]","[0.035137516850232156,0.0599744232498336]","[-1,-1,-1]","[0.02,0.02]",118.007,0,22,22,43,1,,,,,,,
,,,,,,,67c3321da0a96b0538b4abbe,682f0fba87de0ca602a6113e,2025-05-22_12h51.49.530,cuing_paradigm_dot,2024.1.5,Win32,59.88023952,682d573fa47f1360d1451895,,,,,,,,,,,118.0074,118.5069,,,118.7569,119.0569,left,0.2825,,,,,,,,,0.1,,,,,,118.5069,118.7569,119.0569,"[-0.05830278952512531,0.03315321889767717]","[-1,-1,-1]","[-0.06429550729204203,0.1789840639880806]","[1,1,1]","[0.01770293533002279,-0.13594194336916177]","[-1,-1,-1]","[-0.0859314841668324,0.000722270944236748]","[-1,-1,-1]","[0.0652250221108113,0.007504990368305581]","[-1,-1,-1]","[0.09918315136698588,-0.1606989669312782]","[-1,-1,-1]","[0.09109842361756679,0.16478373894490217]","[-1,-1,-1]","[-0.025861157066699288,-0.06433840375023331]","[-1,-1,-1]","[-0.0339824678745784,-0.023243092844777526]","[-1,-1,-1]","[-0.10653364412291551,-0.12023437522875553]","[-1,-1,-1]","[0.02114942474379475,0.17460487110857043]","[-1,-1,-1]","[0.11033714204283857,0.10967233395690439]","[-1,-1,-1]","[0.014506376148747538,-0.08096418528047952]","[-1,-1,-1]","[0.16266873988783895,-0.07991400726238387]","[-1,-1,-1]","[-0.15573001868392297,-0.022340926671964315]","[-1,-1,-1]","[0.04262221099978816,0.08742580068185016]","[-1,-1,-1]","[0.05064383930177043,0.143801112845814]","[1,1,1]","[0.15335834371788148,-0.017625018850671106]","[-1,-1,-1]","[-0.0005490192076728401,0.13982205924123664]","[-1,-1,-1]","[0.1211035013413787,-0.09192927484996691]","[-1,-1,-1]","[0.08878384333619818,0.057593681201869834]","[-1,-1,-1]","[-0.0813696222728954,-0.06499749802254487]","[-1,-1,-1]","[-0.017247877091587288,0.19584191116266633]","[-1,-1,-1]","[-0.14356822020701715,-0.07846791602053176]","[-1,-1,-1]","[0.09695484708379766,-0.029288882265347243]","[-1,-1,-1]","[-0.17976103131854382,0.04165212964197473]","[-1,-1,-1]","[0.023111036339859364,-0.028380902605929226]","[-1,-1,-1]","[-0.07265238850702035,-0.15548212602413364]","[-1,-1,-1]","[-0.14831806105755294,0.12093078954268313]","[-1,-1,-1]","[0.18695153150405575,0.05763907563624047]","[1,1,1]","[0.12562602207940365,0.020535551015633882]","[-1,-1,-1]","[-0.11250854788617994,0.15689526609215562]","[-1,-1,-1]","[0.02,0.02]",120.1574,0,23,23,14,1,,,,,,,
,,,,,,,67c3321da0a96b0538b4abbe,682f0fba87de0ca602a6113e,2025-05-22_12h51.49.530,cuing_paradigm_dot,2024.1.5,Win32,59.88023952,682d573fa47f1360d1451895,,,,,,,,,,,120.1581,120.6574,,,120.9086,121.6438,left,0.7199,,,,,,,,,0.4,,,,,,120.6574,120.9086,121.6438,"[-0.16102608488638126,0.018021248078910302]","[-1,-1,-1]","[0.13250527925290218,0.023340839672699357]","[-1,-1,-1]","[-0.14361207200742052,0.1352855028803539]","[1,1,1]","[0.07657639331905482,0.055973792179455445]","[-1,-1,-1]","[-0.13875916084644005,-0.05918666771864686]","[-1,-1,-1]","[0.0717866906925908,0.13369370958716115]","[-1,-1,-1]","[0.010922349467202636,-0.06660020582470777]","[-1,-1,-1]","[0.027057914153241908,-0.17224399364702092]","[1,1,1]","[-0.09975654326814667,-0.00833321865648704]","[-1,-1,-1]","[-0.10088015561376842,0.07997602177572855]","[-1,-1,-1]","[0.056303234956724936,-0.08584131138722306]","[1,1,1]","[0.0071078272250797055,0.061080158612325915]","[1,1,1]","[0.1787028747960175,0.05141188078345939]","[-1,-1,-1]","[0.005320532431051059,-0.018992094238405945]","[1,1,1]","[-0.16063541319822797,0.08282846639534094]","[-1,-1,-1]","[0.16316563770512327,-0.1052456274738063]","[-1,-1,-1]","[-0.00490452307182769,-0.14526209311392152]","[1,1,1]","[0.1338018108666552,-0.07085665817809678]","[1,1,1]","[-0.03080757353432074,-0.09206958103433968]","[-1,-1,-1]","[0.10316641857416552,0.16694156669198293]","[-1,-1,-1]","[0.10193160252296635,-0.15091343752426523]","[-1,-1,-1]","[-0.1499680892101391,-0.1174046111295964]","[1,1,1]","[-0.0465067612653026,0.1710626996889727]","[1,1,1]","[-0.04108574202214565,-0.052642462474598195]","[-1,-1,-1]","[-0.05144605634982542,-0.0046991957648632055]","[-1,-1,-1]","[-0.12366816025394033,0.0349776242995047]","[1,1,1]","[-0.0968543152212033,-0.10355364401308162]","[1,1,1]","[0.12829269144919395,0.07483999732436786]","[-1,-1,-1]","[0.05740912139857534,0.1767442703266234]","[-1,-1,-1]","[0.07552615949748073,0.01571380560037818]","[1,1,1]","[-0.0591434508551472,0.08979996881953578]","[-1,-1,-1]","[-0.06248725212655352,0.04036961232793181]","[1,1,1]","[0.02,0.02]",122.7448,0,24,24,38,1,,,,,,,
,,,,,,,67c3321da0a96b0538b4abbe,682f0fba87de0ca602a6113e,2025-05-22_12h51.49.530,cuing_paradigm_dot,2024.1.5,Win32,59.88023952,682d573fa47f1360d1451895,,,,,,,,,,,122.745,123.2438,,,123.4945,123.695,right,0.1843,,,,,,,,,0.1,,,,,,123.2438,123.4945,123.695,"[-0.04358740489221301,0.06790200803604744]","[1,1,1]","[0.1554027759987219,0.07129661756246844]","[-1,-1,-1]","[-0.006531996229874773,0.13997760402229334]","[-1,-1,-1]","[-0.14175664531747098,-0.01480112815917753]","[-1,-1,-1]","[-0.14779883128237514,-0.05952326917632648]","[-1,-1,-1]","[0.14257122887533444,-0.04399617436319323]","[-1,-1,-1]","[-0.0031661798358809954,-0.018608983173844015]","[-1,-1,-1]","[0.05200306827389037,-0.025843399540367993]","[1,1,1]","[0.00608829031244043,-0.12347461823297459]","[-1,-1,-1]","[0.05582122466700794,0.0871529488656413]","[-1,-1,-1]","[-0.08308358963398778,-0.17369711606831184]","[-1,-1,-1]","[-0.05574318764337585,-0.1106014367159044]","[-1,-1,-1]","[-0.10217848667362583,0.009450363990317106]","[-1,-1,-1]","[-0.04986197768018292,0.12259360857736223]","[-1,-1,-1]","[0.06267285212698694,0.042863119555236535]","[-1,-1,-1]","[-0.17302211210164434,0.056448612336111925]","[-1,-1,-1]","[-0.0032366431532717507,0.06660078629836633]","[-1,-1,-1]","[0.049706404602046145,-0.14174840629888436]","[-1,-1,-1]","[-0.11082849838397013,-0.08566853942833422]","[-1,-1,-1]","[-0.06591735774019186,0.18130490664558876]","[-1,-1,-1]","[0.13398984093409563,-0.09224238582244089]","[1,1,1]","[0.12799538350528988,0.030848412444570376]","[-1,-1,-1]","[-0.15602135686694438,-0.10333870037600601]","[-1,-1,-1]","[-0.07076985873699469,-0.03316700544616785]","[-1,-1,-1]","[0.0505492285183001,-0.08243547454598008]","[-1,-1,-1]","[0.1862134668418971,0.01903451238133401]","[-1,-1,-1]","[-0.030157267795396764,-0.19021324693075387]","[-1,-1,-1]","[0.14441622397225035,0.13736485623524453]","[-1,-1,-1]","[0.042349739342704015,0.16954309208513882]","[-1,-1,-1]","[0.01780956953390986,-0.1798044278001434]","[-1,-1,-1]","[0.09749190521925812,0.13503631355986723]","[-1,-1,-1]","[-0.02394225825396363,0.18712026665441067]","[-1,-1,-1]","[0.02,0.02]",124.7952,0,25,25,12,1,,,,,,,
,,,,,,,67c3321da0a96b0538b4abbe,682f0fba87de0ca602a6113e,2025-05-22_12h51.49.530,cuing_paradigm_dot,2024.1.5,Win32,59.88023952,682d573fa47f1360d1451895,,,,,,,,,,,124.7956,125.2967,,,125.5469,125.7635,right,0.2004,,,,,,,,,0.1,,,,,,125.2967,125.5469,125.7635,"[0.11545123888318386,0.06218169556423368]","[-1,-1,-1]","[-0.13078619051695214,0.011933016129810755]","[-1,-1,-1]","[0.0007336690169222788,0.17317976206910554]","[1,1,1]","[-0.0598504685665304,0.07182381144365604]","[-1,-1,-1]","[0.06750815792456591,0.020239313470671875]","[1,1,1]","[-0.15472794036640172,-0.06679207383385961]","[-1,-1,-1]","[-0.08548673761979154,-0.06517387656636595]","[-1,-1,-1]","[-0.036773793900005354,-0.09725631541424547]","[-1,-1,-1]","[0.06756580158963275,0.18407891275885355]","[-1,-1,-1]","[0.09269830297808515,-0.1228565842364383]","[-1,-1,-1]","[-0.09679088982371932,-0.013676016930226461]","[-1,-1,-1]","[-0.060352093973729634,0.18641151910690712]","[-1,-1,-1]","[0.011461024555140713,-0.027046064885625085]","[-1,-1,-1]","[0.053094373266672455,-0.10830264739935441]","[-1,-1,-1]","[-0.044748905029955766,0.14692962695557865]","[-1,-1,-1]","[-0.09763400599657901,-0.1687095733280278]","[-1,-1,-1]","[0.1019431055357787,0.10843535604586169]","[-1,-1,-1]","[0.05747862070479786,-0.18236282221430297]","[-1,-1,-1]","[0.1780273598631814,0.0485434293233377]","[-1,-1,-1]","[-0.16232212033385532,-0.020875185155173115]","[-1,-1,-1]","[0.008157553574525057,-0.16465823771456073]","[-1,-1,-1]","[-0.18380712173106586,0.017560860068345355]","[-1,-1,-1]","[0.07052018321121796,0.13875846051536722]","[-1,-1,-1]","[-0.16256886836685203,-0.10632727716185679]","[-1,-1,-1]","[0.1644535905373505,0.1084527971610694]","[-1,-1,-1]","[-0.02712401394095661,-0.14332625501562876]","[-1,-1,-1]","[0.10024503881783875,-0.015590657226709478]","[-1,-1,-1]","[-0.02634331733839997,-0.007650169789355026]","[-1,-1,-1]","[-0.015925576949254557,0.10119427930004424]","[-1,-1,-1]","[-0.09443665256980002,-0.1042225406108151]","[1,1,1]","[-0.1266044198894131,0.07064146535267359]","[-1,-1,-1]","[0.03216290462832782,0.09193399569722165]","[-1,-1,-1]","[0.02,0.02]",126.8639,0,26,26,29,1,,,,,,,
,,,,,,,67c3321da0a96b0538b4abbe,682f0fba87de0ca602a6113e,2025-05-22_12h51.49.530,cuing_paradigm_dot,2024.1.5,Win32,59.88023952,682d573fa47f1360d1451895,,,,,,,,,,,126.8641,127.3654,,,127.6147,127.8819,right,0.2506,,,,,,,,,0.1,,,,,,127.3655,127.6147,127.8819,"[-0.005639960894132316,-0.19221315334129005]","[-1,-1,-1]","[-0.14398104489292748,0.11429175609139082]","[-1,-1,-1]","[-0.07496404492239675,0.0743991549856609]","[-1,-1,-1]","[0.011789685527625451,-0.09987684506867103]","[-1,-1,-1]","[-0.17111967775610043,0.06299594751362425]","[-1,-1,-1]","[-0.015625845681426085,0.1922383776353376]","[-1,-1,-1]","[0.056005684540746205,0.07128049160680054]","[1,1,1]","[0.14690287083521456,-0.001224392139008288]","[-1,-1,-1]","[0.05924294663729695,-0.0346077050856386]","[-1,-1,-1]","[0.0894188694108018,0.12836639016765372]","[-1,-1,-1]","[0.0809285326103699,-0.17414948824790513]","[-1,-1,-1]","[-0.1078781810975297,0.13331889105367956]","[-1,-1,-1]","[0.0480598679976481,0.016372223091606727]","[-1,-1,-1]","[-0.12794172790644406,-0.018319246688890102]","[-1,-1,-1]","[-0.13518945086486242,-0.12679849827853265]","[-1,-1,-1]","[-0.03750694556431253,-0.1676612590218983]","[-1,-1,-1]","[0.15685623081264635,0.04482717682107731]","[-1,-1,-1]","[-0.08906021831172163,-0.09973344032547062]","[-1,-1,-1]","[-0.012857740405144119,-0.007838706969272295]","[-1,-1,-1]","[0.13660984770194895,0.13895409433820846]","[-1,-1,-1]","[-0.02716343024597773,0.05302648971943638]","[-1,-1,-1]","[-0.16197603210397613,-0.05807124337188491]","[-1,-1,-1]","[0.14322397886242957,-0.12714515689704978]","[1,1,1]","[0.09487245901842362,-0.0766698169670066]","[-1,-1,-1]","[-0.050546568811614685,0.11173355597197608]","[-1,-1,-1]","[-0.059086271170319636,-0.03460766448478422]","[-1,-1,-1]","[0.019036679894836733,-0.15540603543941]","[-1,-1,-1]","[0.02728901991530704,0.15429864495885554]","[-1,-1,-1]","[-0.107687803761869,-0.15735340292858052]","[-1,-1,-1]","[0.16974963958093497,-0.07189053058527736]","[-1,-1,-1]","[-0.08317533452035593,0.029233558012944357]","[1,1,1]","[-0.04712189517295551,-0.10156464824763689]","[-1,-1,-1]","[0.02,0.02]",128.9835,0,27,27,17,1,,,,,,,
,,,,,,,67c3321da0a96b0538b4abbe,682f0fba87de0ca602a6113e,2025-05-22_12h51.49.530,cuing_paradigm_dot,2024.1.5,Win32,59.88023952,682d573fa47f1360d1451895,,,,,,,,,,,128.9838,129.4839,,,129.7346,129.9354,left,0.1837,,,,,,,,,0.9,,,,,,129.484,129.7346,129.9354,"[-0.055488099837542916,0.08672763922274221]","[1,1,1]","[0.03725687576126862,-0.0864486416733684]","[1,1,1]","[-0.013739062065135007,-0.08801934559879337]","[1,1,1]","[0.04804527663374559,-0.02516963725740805]","[1,1,1]","[0.0791302347066726,-0.1040651899645123]","[1,1,1]","[-0.0018968469908349195,0.07780405905771051]","[1,1,1]","[-0.1288036139806804,0.05485522635320891]","[1,1,1]","[0.08071583178005126,0.03320923252169096]","[1,1,1]","[-0.16959357489883906,0.015139868986747278]","[1,1,1]","[-0.12488920122999735,0.14033972041874518]","[1,1,1]","[-0.05354722482153138,-0.164513620065341]","[1,1,1]","[-0.08909326037718658,-0.042449529105190426]","[1,1,1]","[0.08459053268860799,0.15194989442901385]","[1,1,1]","[0.1897027134737923,0.04387638249577554]","[1,1,1]","[-0.17480984698640983,-0.08256412298512414]","[1,1,1]","[-0.045832047581636344,-0.12075872015342087]","[1,1,1]","[0.03812183493902881,0.10402235451536272]","[1,1,1]","[0.02891316287680369,-0.18149941530044486]","[1,1,1]","[-0.11784303863820507,-0.1414461397772053]","[1,1,1]","[-0.065957225890402,0.038567053396846816]","[1,1,1]","[-0.06179531383953957,0.1355068738686752]","[-1,-1,-1]","[0.004148977500633274,0.017322609761895178]","[1,1,1]","[0.030809622640887224,0.0480102614837617]","[1,1,1]","[0.002271824062762177,0.15804617287659858]","[1,1,1]","[0.0627156143341641,-0.1483361667816458]","[1,1,1]","[0.12582542311535994,0.0851212906930482]","[-1,-1,-1]","[0.13801570905146132,0.03794830974393031]","[1,1,1]","[0.18755804284414807,-0.06404522944496631]","[1,1,1]","[0.16089240378420133,0.11845604277383766]","[-1,-1,-1]","[-0.15123567826010823,-0.030778563485173136]","[1,1,1]","[-0.08926887598332048,0.1684658732739665]","[1,1,1]","[-0.1148868792972532,0.0033747964219670115]","[1,1,1]","[0.02,0.02]",131.0237,0,28,28,202,1,,,,,,,
,,,,,,,67c3321da0a96b0538b4abbe,682f0fba87de0ca602a6113e,2025-05-22_12h51.49.530,cuing_paradigm_dot,2024.1.5,Win32,59.88023952,682d573fa47f1360d1451895,,,,,,,,,,,131.024,131.5233,,,131.7735,132.457,left,0.6504,,,,,,,,,0.5,,,,,,131.5234,131.7735,132.457,"[0.004172339184783867,0.17541374831634862]","[1,1,1]","[-0.13653488115850926,-0.10243651719355086]","[1,1,1]","[0.12288124752700946,-0.11198259219474542]","[-1,-1,-1]","[-0.12551638610762458,0.14870101251354342]","[1,1,1]","[0.15899956125743242,-0.05056889196632347]","[1,1,1]","[0.0002694252695544317,0.08072189029166137]","[1,1,1]","[0.017673909858661095,-0.14962757928098833]","[1,1,1]","[0.05269972461723047,-0.07352975907220287]","[-1,-1,-1]","[-0.10169933839747096,0.014241692980872626]","[1,1,1]","[0.17631615125575287,0.06031697531913062]","[-1,-1,-1]","[-0.14901853245185315,0.03113265797290087]","[-1,-1,-1]","[-0.027862439217128058,-0.15636218958605325]","[1,1,1]","[0.08557000596156203,-0.16983728759239589]","[1,1,1]","[0.13214846663255755,0.12289360641796315]","[-1,-1,-1]","[-0.07907325537609387,-0.11673671617861428]","[1,1,1]","[-0.1938894641117222,-0.019998229020326233]","[-1,-1,-1]","[0.06672660899857777,0.004674258320870731]","[1,1,1]","[0.07819819444946684,0.07894483255791192]","[-1,-1,-1]","[-0.14122077328704835,-0.015898538817883293]","[1,1,1]","[-0.049444626114377443,0.15022492508394747]","[1,1,1]","[-0.09934279589138953,-0.05390679389194186]","[-1,-1,-1]","[-0.0009973487459779687,-0.04272047550241534]","[-1,-1,-1]","[0.17930827164852262,0.004693671343593851]","[-1,-1,-1]","[0.09505443425704134,-0.07491536868192125]","[-1,-1,-1]","[0.01976704702298414,0.026921831537819782]","[-1,-1,-1]","[-0.021319417521322735,-0.10783945294359285]","[-1,-1,-1]","[0.10597885621544674,0.028424212928992235]","[1,1,1]","[-0.05126368021849953,0.03409970116579447]","[-1,-1,-1]","[-0.169856940257242,0.0803084246044644]","[-1,-1,-1]","[-0.1075389594136839,0.07003336692768634]","[1,1,1]","[-0.02234148061156681,0.0023316594670668256]","[-1,-1,-1]","[0.09349337951641468,0.14509583910457413]","[1,1,1]","[0.02,0.02]",133.5566,0,29,29,102,1,,,,,,,
,,,,,,,67c3321da0a96b0538b4abbe,682f0fba87de0ca602a6113e,2025-05-22_12h51.49.530,cuing_paradigm_dot,2024.1.5,Win32,59.88023952,682d573fa47f1360d1451895,,,,,,,,,,,133.557,134.0566,,,134.3066,134.7235,right,0.385,,,,,,,,,0.55,,,,,,134.0566,134.3066,134.7236,"[-0.09447315102275877,-0.10240452596658325]","[1,1,1]","[-0.171743632101536,-0.05260186248948072]","[1,1,1]","[-0.0932442124394605,0.10903200010215022]","[-1,-1,-1]","[0.09120326663468381,-0.1426730287780652]","[1,1,1]","[0.02714737002068092,0.0799876363235267]","[1,1,1]","[-0.029189386472676382,-0.09387569193727714]","[-1,-1,-1]","[-0.09117156288232574,0.011658585823197957]","[1,1,1]","[-0.054472224890844946,-0.0528950632624013]","[1,1,1]","[-0.026116621257948957,0.17093858226220326]","[1,1,1]","[0.00923976931060306,0.19133651640049928]","[1,1,1]","[-0.12233780432147569,-0.030673710376740704]","[1,1,1]","[0.18304940280171783,-0.04929521028790648]","[-1,-1,-1]","[0.009806298968630722,0.11924844526610895]","[1,1,1]","[-0.13858041860914336,0.10650564261257824]","[1,1,1]","[0.04848251189692507,-0.12148350400604335]","[1,1,1]","[0.17670723702393168,0.03201780689061531]","[-1,-1,-1]","[-0.006413514123390879,-0.13570525395182767]","[-1,-1,-1]","[0.0829881812091878,0.11128496591292157]","[-1,-1,-1]","[0.13906404733015762,0.12356312631343641]","[1,1,1]","[0.04673194292699001,-0.04310623780510012]","[1,1,1]","[-0.08098589503227631,0.06723139817961332]","[-1,-1,-1]","[-0.03201530941048663,0.07639096842584321]","[1,1,1]","[-0.176802341935607,0.036974785929065966]","[-1,-1,-1]","[-0.06259710157817913,-0.15776102997017966]","[-1,-1,-1]","[0.13744295973937504,-0.009612515056396721]","[1,1,1]","[-0.10592046599155319,-0.15318281687802696]","[1,1,1]","[0.1052426251993449,0.02642660676710025]","[-1,-1,-1]","[0.07970573093624886,0.16373227255652964]","[1,1,1]","[0.058727389544800584,0.040256605715609795]","[-1,-1,-1]","[0.07049896382831014,-0.18580240165463113]","[-1,-1,-1]","[-0.08875075778499401,0.16275218248458792]","[-1,-1,-1]","[0.033644379661504305,-0.003265750593245576]","[-1,-1,-1]","[0.02,0.02]",135.8233,0,30,30,148,1,,,,,,,
,,,,,,,67c3321da0a96b0538b4abbe,682f0fba87de0ca602a6113e,2025-05-22_12h51.49.530,cuing_paradigm_dot,2024.1.5,Win32,59.88023952,682d573fa47f1360d1451895,,,,,,,,,,,135.8236,136.3237,,,136.5738,137.092,left,0.5022,,,,,,,,,0.5,,,,,,136.3237,136.5738,137.092,"[0.13693027978938535,0.09965323406100181]","[-1,-1,-1]","[-0.08848819163932681,0.11417733434482308]","[1,1,1]","[0.00902698619293264,-0.08747811662075862]","[-1,-1,-1]","[0.0900389692052441,0.11814685021732357]","[-1,-1,-1]","[-0.1353892760968497,-0.0575113987330849]","[1,1,1]","[0.1831977497488784,-0.05255448829621695]","[-1,-1,-1]","[0.12866305187607122,-0.14239000599449794]","[1,1,1]","[0.049978898820703034,-0.019701113396348374]","[1,1,1]","[-0.1340803132822724,0.06345323507098106]","[1,1,1]","[-0.06445883675422774,-0.0029713157922524663]","[-1,-1,-1]","[-0.16173503000781253,0.1049018405257807]","[1,1,1]","[-0.05960357060937046,-0.11900441249435263]","[1,1,1]","[0.05015817834556928,-0.06908461761025664]","[-1,-1,-1]","[0.08665041073109,0.01064553248049795]","[-1,-1,-1]","[-0.07495332236152041,-0.0706052783971834]","[-1,-1,-1]","[-0.1533276485474728,-0.01488169121025384]","[1,1,1]","[0.08157980520891167,-0.12006501328624718]","[1,1,1]","[0.0011895052730773541,-0.02977223602435163]","[1,1,1]","[0.11422428135248086,0.05766903431504323]","[-1,-1,-1]","[-0.09392098117172933,0.027628685226675945]","[-1,-1,-1]","[-0.0847047597208212,-0.15171314501597674]","[-1,-1,-1]","[-0.03185517875774983,0.15188364475642044]","[1,1,1]","[-0.1996370656370947,-0.007445296504939306]","[1,1,1]","[-0.17514170398463846,0.03556267070223606]","[1,1,1]","[-0.1234270156721647,-0.10349208726565377]","[1,1,1]","[-0.0486476046211581,0.06442884920855743]","[-1,-1,-1]","[0.1749104450267758,0.011720865209841192]","[-1,-1,-1]","[0.15148942529093762,-0.07858482581829834]","[1,1,1]","[0.07369468134763625,0.0558106462379253]","[-1,-1,-1]","[-0.1375838139989477,-0.14458206680011723]","[-1,-1,-1]","[0.018730806274869338,0.09852465430818967]","[1,1,1]","[0.06356338383524404,0.18733522311220424]","[-1,-1,-1]","[0.02,0.02]",138.193,0,31,31,116,1,,,,,,,
,,,,,,,67c3321da0a96b0538b4abbe,682f0fba87de0ca602a6113e,2025-05-22_12h51.49.530,cuing_paradigm_dot,2024.1.5,Win32,59.88023952,682d573fa47f1360d1451895,,,,,,,,,,,138.1933,138.6931,,,138.9434,139.6615,left,0.7009,,,,,,,,,0.45,,,,,,138.6931,138.9433,139.6616,"[-0.17161902568216306,0.023807455478482845]","[1,1,1]","[-0.03448892579255032,0.0941683699290614]","[1,1,1]","[0.09362131032866625,-0.12886874606652768]","[-1,-1,-1]","[0.07322443410168385,0.07591608384030914]","[1,1,1]","[0.19488544156885332,-0.03537785454467375]","[-1,-1,-1]","[0.033289367030170026,0.13900649247943891]","[-1,-1,-1]","[-0.01811950851563325,-0.09284556137878523]","[1,1,1]","[0.02793963778106614,-0.12271999586607775]","[1,1,1]","[-0.10998972397319828,0.03678130457029039]","[-1,-1,-1]","[-0.06020472964346812,0.009299546619657307]","[-1,-1,-1]","[0.1633843405501555,0.012844088101411294]","[1,1,1]","[0.07802458210970338,0.13795073775565225]","[-1,-1,-1]","[0.12757549834425408,-0.09186982511190277]","[-1,-1,-1]","[-0.030518450170699273,0.04106247817019099]","[1,1,1]","[-0.1671867218271031,-0.10679781905036823]","[-1,-1,-1]","[-0.034319001430495856,0.1780635969719382]","[-1,-1,-1]","[-0.14474690833045573,0.06623331148008513]","[-1,-1,-1]","[-0.1726097228757368,-0.04095937224927485]","[1,1,1]","[-0.019349938232897167,-0.17820183907484763]","[1,1,1]","[-0.054096810457954204,-0.030806194698464993]","[-1,-1,-1]","[0.06647259978037946,-0.17799617335362358]","[1,1,1]","[0.1170979413860581,0.010144349348377848]","[-1,-1,-1]","[-0.13444339105011427,-0.005860691778869135]","[1,1,1]","[0.0704130679871639,-0.05432231183912517]","[-1,-1,-1]","[-0.07246254767621797,-0.10123765175037963]","[-1,-1,-1]","[-0.08542991579333527,-0.14272867565803174]","[1,1,1]","[0.018339533801862293,0.08329967456028742]","[1,1,1]","[0.06742458251759526,-0.013047797933855652]","[-1,-1,-1]","[-0.1164622217640144,-0.08018000857498342]","[-1,-1,-1]","[0.10553214041108645,0.10274550834125504]","[-1,-1,-1]","[0.17590079005451664,-0.07915437063562626]","[-1,-1,-1]","[0.03199472355235563,0.04198083933801182]","[1,1,1]","[0.02,0.02]",140.7625,0,32,32,81,1,,,,,,,
,,,,,,,67c3321da0a96b0538b4abbe,682f0fba87de0ca602a6113e,2025-05-22_12h51.49.530,cuing_paradigm_dot,2024.1.5,Win32,59.88023952,682d573fa47f1360d1451895,,,,,,,,,,,140.7628,141.2618,,,141.512,141.7635,right,0.2348,,,,,,,,,0.45,,,,,,141.2618,141.512,141.7636,"[0.0776582689175556,-0.14846217447967971]","[-1,-1,-1]","[0.04685649909451835,-0.060905563330778845]","[-1,-1,-1]","[0.12536097166772706,0.05331498677537222]","[-1,-1,-1]","[-0.15410171715716536,0.018049637343445238]","[1,1,1]","[-0.07071581626590377,0.016716251326242115]","[1,1,1]","[0.06281541645550151,0.07809123332824619]","[-1,-1,-1]","[-0.15177740769643736,-0.026314472957741787]","[1,1,1]","[-0.10521479026332052,-0.15398971930628894]","[1,1,1]","[0.050863526405081516,-0.17874129640428424]","[-1,-1,-1]","[0.04558782666324772,-0.0013610775062256925]","[-1,-1,-1]","[0.12376888793191172,0.13830156871468255]","[1,1,1]","[-0.15582828776691474,-0.10026696294081738]","[-1,-1,-1]","[-0.04521997717890475,0.14818629602104455]","[1,1,1]","[-0.012890896187851728,-0.08255957495733578]","[-1,-1,-1]","[-0.09750240426173652,-0.029109943981769273]","[1,1,1]","[-0.08449778793796801,0.11710861363603921]","[-1,-1,-1]","[0.0811042493752819,0.14269708521258118]","[-1,-1,-1]","[-0.048000444397754666,-0.037460357002888016]","[-1,-1,-1]","[0.1933102712791119,0.013071779449612356]","[1,1,1]","[-0.0696749169052736,-0.10563866577922192]","[-1,-1,-1]","[0.17167019760558958,-0.05179276269973315]","[1,1,1]","[-0.018967196160436836,-0.18299020964769386]","[1,1,1]","[-0.13006693412654258,0.08119413829405164]","[-1,-1,-1]","[-0.11511145302693963,-0.09299450193802362]","[-1,-1,-1]","[-0.03695780627405199,0.0394322849583255]","[1,1,1]","[-0.1841167835183087,0.04828916650991614]","[-1,-1,-1]","[0.01163657408148955,0.1013094323841537]","[-1,-1,-1]","[0.12892925013630305,-0.04525569163425748]","[1,1,1]","[0.1149739838429938,-0.10744406120173454]","[-1,-1,-1]","[0.03860225636452576,-0.12617313895840593]","[1,1,1]","[0.10463670930763488,0.09939534209300753]","[1,1,1]","[-0.06323705307908445,-0.1794981931182469]","[-1,-1,-1]","[0.02,0.02]",142.8642,0,33,33,66,1,,,,,,,
,,,,,,,67c3321da0a96b0538b4abbe,682f0fba87de0ca602a6113e,2025-05-22_12h51.49.530,cuing_paradigm_dot,2024.1.5,Win32,59.88023952,682d573fa47f1360d1451895,,,,,,,,,,,142.8645,143.3648,,,143.614,144.2162,left,0.5862,,,,,,,,,0.55,,,,,,143.3648,143.614,144.2162,"[-0.1791399744476119,0.08403716273961513]","[-1,-1,-1]","[0.05781796649678476,-0.0840753752947391]","[1,1,1]","[0.14221004642829158,-0.1370254766681322]","[-1,-1,-1]","[-0.008913424810749406,0.010235847860392904]","[-1,-1,-1]","[0.03095914029710239,0.11625080595274001]","[-1,-1,-1]","[0.014594288352588572,-0.1637075722682423]","[-1,-1,-1]","[-0.11481514165136826,0.11244413782798132]","[1,1,1]","[0.06615165794612896,0.009862884355097926]","[1,1,1]","[-0.0767136437049371,-0.13555727156470532]","[1,1,1]","[0.014150140691235855,0.1540867265305983]","[-1,-1,-1]","[0.08823225419512737,-0.1513380097456094]","[1,1,1]","[-0.14452351550554876,-0.09445375258443162]","[1,1,1]","[-0.14481504706778114,-0.0329863656411427]","[1,1,1]","[0.11843328296144635,-0.10469495381290102]","[1,1,1]","[-0.15667068548784535,0.12297179520599255]","[1,1,1]","[0.13893149625221982,0.1355549635603164]","[1,1,1]","[-0.13710125175362953,-0.14525443422185172]","[1,1,1]","[0.09450223882213198,-0.06726478314184885]","[-1,-1,-1]","[-0.07939512174676917,0.011288897267750855]","[-1,-1,-1]","[-0.02883981301434678,-0.1635226681679267]","[1,1,1]","[0.16405518029947685,0.07545929850567745]","[-1,-1,-1]","[-0.11802291479925127,0.04739645000402734]","[-1,-1,-1]","[0.06347057006571197,0.06743136357552547]","[-1,-1,-1]","[0.0951094969998047,0.09848164797319486]","[1,1,1]","[-0.1906004720602367,0.03632027287571129]","[1,1,1]","[-0.010614175521305684,-0.07233363135764681]","[-1,-1,-1]","[0.19314171288371892,0.014551935271179456]","[1,1,1]","[-0.049472017684683754,0.11024614259899071]","[-1,-1,-1]","[-0.08015577119899557,0.16395641954310594]","[1,1,1]","[-0.08142121339685876,-0.06679337249605888]","[-1,-1,-1]","[0.12746632909774222,0.059164298488312735]","[1,1,1]","[0.16667733486908143,-0.04297579047167694]","[1,1,1]","[0.02,0.02]",145.3158,0,34,34,136,1,,,,,,,
,,,,,,,67c3321da0a96b0538b4abbe,682f0fba87de0ca602a6113e,2025-05-22_12h51.49.530,cuing_paradigm_dot,2024.1.5,Win32,59.88023952,682d573fa47f1360d1451895,,,,,,,,,,,145.3161,145.8163,,,146.0669,146.4852,left,0.4023,,,,,,,,,0.6,,,,,,145.8163,146.0668,146.4853,"[-0.02496356172671161,-0.136046330017202]","[1,1,1]","[-0.07935021491563185,-0.01324354555929397]","[-1,-1,-1]","[-0.0807432275449858,-0.1147808112016462]","[1,1,1]","[-0.1144386528185638,0.11007386859060682]","[1,1,1]","[0.008032319651777763,0.016222746850902435]","[-1,-1,-1]","[0.07579435733333525,0.10331740124097046]","[-1,-1,-1]","[-0.14503106984825753,-0.12317418444309522]","[1,1,1]","[0.05664555423567256,-0.062348840251252424]","[-1,-1,-1]","[-0.11952117462265266,-0.1598135827938742]","[1,1,1]","[-0.027057824866513095,-0.027279272707298203]","[-1,-1,-1]","[-0.08727505743622051,-0.07136713757008475]","[-1,-1,-1]","[-0.1736477618021397,-0.02972492383492987]","[-1,-1,-1]","[-0.010111417216398404,0.0594896874870069]","[1,1,1]","[-0.16218862904428463,0.06523198052800708]","[1,1,1]","[0.1422241801555525,-0.12415451479813792]","[-1,-1,-1]","[0.16093722509681663,-0.08851437125705029]","[-1,-1,-1]","[-0.008370206524605383,0.16772088943606636]","[1,1,1]","[0.0765686887852786,0.014450772074819814]","[1,1,1]","[-0.06955659375531206,-0.15782540710571882]","[1,1,1]","[0.09934838549069683,0.15785844281167935]","[1,1,1]","[-0.03269928259814252,-0.08635000174892844]","[1,1,1]","[0.17864788857639025,0.05612463298482655]","[-1,-1,-1]","[-0.18284338010814596,0.025004128452048056]","[-1,-1,-1]","[-0.11843777802205806,-0.029593751087143776]","[1,1,1]","[-0.07939948288352158,0.0872916655411896]","[1,1,1]","[0.07202510520212617,-0.18504460314018106]","[-1,-1,-1]","[0.12537860480329527,0.1032836744107876]","[-1,-1,-1]","[-0.1088927516200899,0.0348119563122035]","[1,1,1]","[0.12315970094442477,-0.010122837484600659]","[1,1,1]","[0.035129361646473865,-0.11365143137726237]","[1,1,1]","[0.08103254399085874,0.06322661246157418]","[1,1,1]","[-0.06072512036746425,0.039287274811481365]","[1,1,1]","[0.02,0.02]",147.5855,0,35,35,171,1,,,,,,,
,,,,,,,67c3321da0a96b0538b4abbe,682f0fba87de0ca602a6113e,2025-05-22_12h51.49.530,cuing_paradigm_dot,2024.1.5,Win32,59.88023952,682d573fa47f1360d1451895,,,,,,,,,,,147.5857,148.0862,,,148.3368,148.8531,left,0.5002,,,,,,,,,0.5,,,,,,148.0863,148.3368,148.8531,"[-0.11770610489441874,-0.09791697876754371]","[1,1,1]","[-0.07649685013244784,0.10177443979394413]","[-1,-1,-1]","[-0.021242067201309885,0.17147166256627616]","[1,1,1]","[0.09928738169103714,-0.031764684637136546]","[-1,-1,-1]","[-0.05909641591874248,-0.013443638232313418]","[-1,-1,-1]","[-0.00502220255276725,-0.09829306751760404]","[1,1,1]","[0.07190298629053346,0.18171159772260387]","[1,1,1]","[-0.1559237038478786,0.07089545447783172]","[-1,-1,-1]","[0.011034632202326589,-0.15077928457942144]","[-1,-1,-1]","[-0.0930122896219548,0.03583826419347601]","[1,1,1]","[0.10164216348522283,0.14753207938221372]","[1,1,1]","[0.03807815399196803,-0.009612623277076236]","[-1,-1,-1]","[0.07612431595743775,0.04627509124563158]","[1,1,1]","[0.03902089122118586,-0.10992591069474612]","[-1,-1,-1]","[-0.016968968529457205,-0.03758948363634372]","[-1,-1,-1]","[0.08800883332311556,0.09359489943488745]","[-1,-1,-1]","[-0.05849884752150534,-0.1351200442787467]","[-1,-1,-1]","[-0.050958892641586526,-0.06139339186829938]","[1,1,1]","[0.15942671119285443,0.08925096542109032]","[-1,-1,-1]","[-0.17967884859621794,-0.026834871461757115]","[-1,-1,-1]","[-0.040860930377445086,-0.18853246988346636]","[1,1,1]","[0.12930722631662817,-0.13028608630843383]","[-1,-1,-1]","[0.02039141144992911,0.045206718348187125]","[1,1,1]","[-0.18388129297347375,0.02051077083998868]","[1,1,1]","[-0.09886541976433433,0.13844055823775855]","[1,1,1]","[-0.03416384398590672,0.1055801766568449]","[1,1,1]","[0.14014879973992264,-0.07930431715056438]","[-1,-1,-1]","[0.12262298359145868,0.008024038152077239]","[1,1,1]","[0.027707745490952725,0.1326499530638339]","[-1,-1,-1]","[-0.13117060860524596,0.000006022764441777188]","[1,1,1]","[-0.04656815718181375,0.0652898420343091]","[1,1,1]","[-0.16432321269337008,-0.1092950417336382]","[-1,-1,-1]","[0.02,0.02]",149.9549,0,36,36,119,1,,,,,,,
,,,,,,,67c3321da0a96b0538b4abbe,682f0fba87de0ca602a6113e,2025-05-22_12h51.49.530,cuing_paradigm_dot,2024.1.5,Win32,59.88023952,682d573fa47f1360d1451895,,,,,,,,,,,149.9552,150.4548,,,150.7063,151.2565,right,0.517,,,,,,,,,0.4,,,,,,150.4549,150.7063,151.2565,"[-0.14823951774084143,0.09438414181811214]","[-1,-1,-1]","[0.14724823024755235,-0.07448353587503029]","[1,1,1]","[-0.01547614592182587,-0.10610745746562841]","[-1,-1,-1]","[-0.09769085001581868,-0.060312249686974864]","[-1,-1,-1]","[-0.09571314183470286,0.05912827770389741]","[-1,-1,-1]","[-0.02920508190968369,-0.004287504228142385]","[1,1,1]","[-0.0546231293946137,0.18045592855544226]","[1,1,1]","[0.1576672919684165,0.002967939940662166]","[-1,-1,-1]","[0.08262060984122677,0.11125195063555127]","[1,1,1]","[0.07714464750008787,-0.16842964538986416]","[-1,-1,-1]","[-0.12321213728666368,-0.10037734414748932]","[-1,-1,-1]","[0.071810485994024,-0.0450818251718054]","[-1,-1,-1]","[-0.17939597189370124,-0.030673695956207028]","[-1,-1,-1]","[-0.0075443945521992874,0.03176311142021088]","[1,1,1]","[-0.03533753902420275,-0.045707467362154815]","[1,1,1]","[-0.11743515244253042,0.13384267366268793]","[-1,-1,-1]","[-0.07544526442756141,-0.005328014549707155]","[1,1,1]","[-0.03210555937421501,0.13481292984917326]","[-1,-1,-1]","[0.05262973604470588,-0.0005561426214277306]","[1,1,1]","[0.08669421681817087,0.17773531783967103]","[-1,-1,-1]","[0.03217687006980775,-0.08929354418176971]","[-1,-1,-1]","[-0.13701757610414858,-0.04788970457903147]","[-1,-1,-1]","[0.008660868739590677,0.07885165388021219]","[1,1,1]","[-0.17827093086951967,0.04333371585498576]","[1,1,1]","[-0.09305408226548714,-0.17368675491735358]","[-1,-1,-1]","[-0.0656499673686987,-0.10534585828874841]","[-1,-1,-1]","[-0.019061468098960907,-0.15906808451883994]","[-1,-1,-1]","[-0.1320317800478661,-0.14706156401126266]","[1,1,1]","[0.14868643565287715,0.046114653566223796]","[1,1,1]","[-0.05048701473520306,0.09543989614151649]","[-1,-1,-1]","[0.05057048003283483,-0.13797690936046705]","[-1,-1,-1]","[0.1504145298178196,0.10979914799902264]","[1,1,1]","[0.02,0.02]",152.3563,0,37,37,30,1,,,,,,,
,,,,,,,67c3321da0a96b0538b4abbe,682f0fba87de0ca602a6113e,2025-05-22_12h51.49.530,cuing_paradigm_dot,2024.1.5,Win32,59.88023952,682d573fa47f1360d1451895,,,,,,,,,,,152.3566,152.8569,,,153.1065,153.6243,left,0.5013,,,,,,,,,0.6,,,,,,152.8569,153.1065,153.6244,"[0.11018299636308859,-0.15587973442261047]","[1,1,1]","[-0.08119237920701941,0.09834777839089127]","[-1,-1,-1]","[-0.04410618432996329,0.04956766804754871]","[1,1,1]","[0.025451867540352818,-0.06167444002522527]","[-1,-1,-1]","[0.1265613362171665,0.10463912243791916]","[-1,-1,-1]","[-0.01545914873737749,-0.028254759545656614]","[1,1,1]","[0.0766773809791898,0.042765115383583664]","[-1,-1,-1]","[0.14877223185928953,0.03138992082045886]","[1,1,1]","[0.1634618652842011,-0.10199084197353869]","[1,1,1]","[-0.11773161611573295,-0.10721871111017811]","[1,1,1]","[-0.19400826111601527,-0.03765020726876377]","[1,1,1]","[0.04475809992212047,-0.1301956550991415]","[1,1,1]","[-0.05611229658585382,-0.19038393121616284]","[-1,-1,-1]","[-0.052013579859168074,0.15098663404971285]","[1,1,1]","[-0.08930450776559395,-0.035343416328689106]","[-1,-1,-1]","[0.02982457474197309,0.1258460802903651]","[1,1,1]","[0.03661699838997146,0.1823656330160875]","[-1,-1,-1]","[0.1761996654017116,-0.020237062964557434]","[1,1,1]","[-0.12777953278112952,-0.019158498791778934]","[1,1,1]","[-0.14458228721483524,0.01747520232300236]","[1,1,1]","[0.012412852688421277,-0.17139853537998442]","[-1,-1,-1]","[0.11377833446129158,-0.042408306409916996]","[1,1,1]","[-0.05645091366919913,-0.072772615358324]","[1,1,1]","[0.004909061476469253,-0.10075533889063155]","[1,1,1]","[-0.12861364513410592,-0.14753196395078724]","[-1,-1,-1]","[0.17828577094148734,0.08334535690651529]","[-1,-1,-1]","[-0.01672926410310657,0.19575800552039682]","[1,1,1]","[0.07230633105637714,-0.006521690266958985]","[-1,-1,-1]","[-0.1876023923081713,0.025417387908896416]","[-1,-1,-1]","[0.06673657765816321,0.08260917990783427]","[-1,-1,-1]","[0.015028258739704436,0.00573374142381547]","[1,1,1]","[-0.10353513428407266,0.016899915498775953]","[1,1,1]","[0.02,0.02]",154.7256,0,38,38,174,1,,,,,,,
,,,,,,,67c3321da0a96b0538b4abbe,682f0fba87de0ca602a6113e,2025-05-22_12h51.49.530,cuing_paradigm_dot,2024.1.5,Win32,59.88023952,682d573fa47f1360d1451895,,,,,,,,,,,154.7259,155.2255,,,155.4771,156.0621,right,0.5685,,,,,,,,,0.45,,,,,,155.2256,155.4771,156.0621,"[-0.0636458253374651,0.18823040886244982]","[1,1,1]","[-0.03738955741985891,0.062255729804288125]","[1,1,1]","[0.09176772737694378,-0.08763393344420592]","[1,1,1]","[0.06236924093883191,0.030013038945547674]","[-1,-1,-1]","[-0.007077716861027943,0.1271430357162792]","[1,1,1]","[-0.1336723238380759,-0.00024216520264259885]","[1,1,1]","[0.06108714202227921,-0.03558404851019905]","[1,1,1]","[0.13553780825068737,0.021020380597859056]","[-1,-1,-1]","[-0.1324283475588722,-0.05904168242736077]","[1,1,1]","[0.02769122877424395,0.10440042056378192]","[-1,-1,-1]","[-0.05582948509287471,-0.09333818606604763]","[-1,-1,-1]","[-0.13628640953046275,-0.13647105502485618]","[-1,-1,-1]","[-0.0784664770149272,0.07736560370009751]","[-1,-1,-1]","[0.02100742393145061,-0.15207750334142625]","[-1,-1,-1]","[-0.1064869866966585,0.1558801278519672]","[-1,-1,-1]","[-0.0554256708313177,-0.13779914656888825]","[-1,-1,-1]","[-0.03853902485069981,0.019180239714603274]","[-1,-1,-1]","[0.028272517562680725,-0.06063826921829035]","[-1,-1,-1]","[-0.19707247769545463,0.024153223299442743]","[-1,-1,-1]","[-0.08188487052101372,-0.17389802878269375]","[-1,-1,-1]","[-0.05497160389545774,-0.04780236170196375]","[1,1,1]","[0.04848366363187637,0.14367127747068925]","[1,1,1]","[0.0631342536419407,-0.17049864653806743]","[1,1,1]","[-0.01738112258704397,-0.07469874802181088]","[1,1,1]","[0.12338327043265973,-0.1399724500420698]","[1,1,1]","[-0.09552097151701848,-0.020262318196805917]","[-1,-1,-1]","[0.10608913693679807,0.1391935114342689]","[-1,-1,-1]","[-0.16323839159254427,0.06301764840960991]","[-1,-1,-1]","[-0.1859481304320945,-0.058611027068394723]","[-1,-1,-1]","[-0.12361568799549881,0.10458118423424147]","[-1,-1,-1]","[0.1768667302943816,-0.000055993391169646476]","[1,1,1]","[0.06877432397668644,-0.12379535403463872]","[1,1,1]","[0.02,0.02]",157.1621,0,39,39,82,1,,,,,,,
,,,,,,,67c3321da0a96b0538b4abbe,682f0fba87de0ca602a6113e,2025-05-22_12h51.49.530,cuing_paradigm_dot,2024.1.5,Win32,59.88023952,682d573fa47f1360d1451895,,,,,,,,,,,157.1625,157.663,,,157.9122,158.28,left,0.3515,,,,,,,,,0.9,,,,,,157.663,157.9121,158.28,"[-0.08963653198263356,-0.019413893681502627]","[1,1,1]","[-0.0911270836452835,0.053082593702855986]","[1,1,1]","[0.14427896559290446,0.05664428865653037]","[1,1,1]","[-0.06780959636984037,-0.08835682873085532]","[1,1,1]","[-0.14067779976883465,-0.032502414412656895]","[1,1,1]","[-0.10343942260423555,0.15901781669861145]","[1,1,1]","[0.0282767149137062,0.06148952534392832]","[1,1,1]","[-0.18660973897711922,0.05041922402640923]","[1,1,1]","[0.09410897467388232,-0.15104721144986435]","[-1,-1,-1]","[-0.01448637299548994,0.10986183893949172]","[1,1,1]","[0.11274400627158854,-0.08484511089090982]","[-1,-1,-1]","[-0.0429750335803538,-0.1693164656219057]","[1,1,1]","[0.07506713451501494,-0.11550470739891835]","[1,1,1]","[0.0217264722762271,-0.09131725468989414]","[1,1,1]","[0.031188416944766928,-0.1586532156599184]","[1,1,1]","[0.1374315605248255,-0.12417799118150451]","[1,1,1]","[-0.14122280106360385,0.12359871606627738]","[1,1,1]","[0.09067363932583834,0.021022125268033688]","[1,1,1]","[-0.10921521417158069,-0.0915697366692812]","[1,1,1]","[0.10430356346026454,0.1045009497622847]","[1,1,1]","[0.002676108401266978,0.17177912315337884]","[1,1,1]","[0.008106880626829235,-0.04576608639647352]","[1,1,1]","[0.08098504178756871,-0.038480322874890685]","[1,1,1]","[-0.13464516071090651,0.05880174190620537]","[-1,-1,-1]","[-0.042171891267571544,-0.017264409427473332]","[1,1,1]","[0.19595533979199797,0.004461974474866424]","[1,1,1]","[0.0926734548680223,0.15930852994342834]","[1,1,1]","[-0.16288532155919894,-0.06739145526215184]","[1,1,1]","[0.04761674683348708,0.1858995404808334]","[1,1,1]","[-0.05110255953621052,0.06097934058426001]","[1,1,1]","[0.1363019469004665,0.002512378943033137]","[1,1,1]","[0.04327701459666014,0.10914525513504489]","[1,1,1]","[0.02,0.02]",159.3806,0,40,40,185,1,,,,,,,
,,,,,,,67c3321da0a96b0538b4abbe,682f0fba87de0ca602a6113e,2025-05-22_12h51.49.530,cuing_paradigm_dot,2024.1.5,Win32,59.88023952,682d573fa47f1360d1451895,,,,,,,,,,,159.3809,159.8803,,,160.1311,160.9324,left,0.7853,,,,,,,,,0.45,,,,,,159.8803,160.1311,160.9325,"[-0.1546261247742082,0.010457255295371594]","[-1,-1,-1]","[0.12042409403012157,0.012631822534812518]","[1,1,1]","[-0.03451853345664233,0.1840952409012573]","[-1,-1,-1]","[-0.029360664450460667,-0.16997541475769856]","[1,1,1]","[-0.13193394070464612,-0.0334548025409427]","[-1,-1,-1]","[-0.028541923647532327,-0.03569948803448781]","[-1,-1,-1]","[0.00013005334714988662,0.0878114076769858]","[1,1,1]","[0.05312296512120527,0.1682824776328629]","[1,1,1]","[-0.040931870323621264,-0.09453947407487032]","[-1,-1,-1]","[0.04771502684922308,-0.16854233256169862]","[-1,-1,-1]","[-0.11756640183667023,-0.11052538707036189]","[-1,-1,-1]","[0.05482977247393621,-0.06923828336894797]","[-1,-1,-1]","[0.1771034549980528,-0.075791092638263]","[1,1,1]","[0.15798929959459376,0.07965510768875803]","[1,1,1]","[0.010949933999219,-0.01672486626291928]","[-1,-1,-1]","[0.09174589515027548,-0.04282434685373991]","[1,1,1]","[0.17187003438497872,-0.026070414340708975]","[-1,-1,-1]","[0.0549465635914596,0.06693952567027807]","[1,1,1]","[-0.15016332116821007,-0.07175994589878104]","[-1,-1,-1]","[0.0341596791965123,0.02681690905332727]","[-1,-1,-1]","[0.0892326611963257,0.12611387016469042]","[1,1,1]","[0.13829010926554444,-0.08655901051868407]","[-1,-1,-1]","[-0.08466349836366169,-0.042653875626158945]","[1,1,1]","[0.009844584948087239,-0.1923156931899587]","[-1,-1,-1]","[-0.09326868770832379,0.03607037545079585]","[1,1,1]","[-0.1341301505743031,0.11375959068372461]","[1,1,1]","[0.11555513092533198,-0.1280583441941864]","[-1,-1,-1]","[0.1477215852369879,0.1219439840602378]","[-1,-1,-1]","[-0.057159923781488584,0.10847901048118332]","[-1,-1,-1]","[-0.13987122956852274,0.06547645202180118]","[1,1,1]","[-0.0008524022444828809,-0.12667012067426914]","[-1,-1,-1]","[0.07999839680734118,-0.10425004406625016]","[1,1,1]","[0.02,0.02]",162.0332,0,41,41,85,1,,,,,,,
,,,,,,,67c3321da0a96b0538b4abbe,682f0fba87de0ca602a6113e,2025-05-22_12h51.49.530,cuing_paradigm_dot,2024.1.5,Win32,59.88023952,682d573fa47f1360d1451895,,,,,,,,,,,162.0335,162.5341,,,162.7834,163.1338,right,0.3342,,,,,,,,,0.1,,,,,,162.5341,162.7834,163.1339,"[-0.037811557930434586,-0.015501540874034095]","[-1,-1,-1]","[0.1336932931343877,-0.018531947788571417]","[-1,-1,-1]","[-0.15769890607551781,-0.06731829412971033]","[-1,-1,-1]","[-0.059377104367881885,-0.06273730456791787]","[-1,-1,-1]","[-0.10567259231869752,-0.04871066226512327]","[-1,-1,-1]","[-0.10679567262985046,-0.09388563423690566]","[-1,-1,-1]","[-0.07642049768159076,0.13880764318370692]","[-1,-1,-1]","[0.14985137379935012,0.10532165598771902]","[-1,-1,-1]","[-0.009283874640021762,0.11875660478768395]","[-1,-1,-1]","[-0.034900379130739075,0.06816386926676662]","[-1,-1,-1]","[0.17931206334977248,-0.07209480012686027]","[-1,-1,-1]","[0.010378353884138457,-0.13654610722843336]","[-1,-1,-1]","[-0.18597777470889687,0.024907762818553655]","[-1,-1,-1]","[0.09082410421006694,0.10048347643993959]","[-1,-1,-1]","[0.043519562066196414,0.037994034563934985]","[1,1,1]","[-0.14224413104738748,0.11033746963311954]","[1,1,1]","[0.18314176123372447,-0.00030778611789517637]","[-1,-1,-1]","[-0.025872065322908602,-0.08952554800478861]","[-1,-1,-1]","[-0.07898139143474758,0.09782018031945602]","[1,1,1]","[-0.18281750778863579,-0.03177726867621158]","[-1,-1,-1]","[0.048737685622059726,-0.07677076140476959]","[-1,-1,-1]","[0.13185806024857022,-0.1342483563104647]","[-1,-1,-1]","[0.14050455360075564,0.049194517260627894]","[-1,-1,-1]","[0.07579867803756746,-0.1401554668299826]","[-1,-1,-1]","[-0.11950514759835254,-0.13683299361490336]","[-1,-1,-1]","[-0.03267433188850549,-0.14238874389858724]","[-1,-1,-1]","[0.05309102721148895,0.1574924659613619]","[-1,-1,-1]","[0.12663054424359774,-0.08151284858515248]","[-1,-1,-1]","[-0.024933560440187033,0.17856916505113027]","[-1,-1,-1]","[-0.06801097832839191,0.043301254340727596]","[-1,-1,-1]","[0.007560167966241906,0.07004540928570278]","[-1,-1,-1]","[-0.10810584175768537,0.1634370726254396]","[-1,-1,-1]","[0.02,0.02]",164.2351,0,42,42,18,1,,,,,,,
,,,,,,,67c3321da0a96b0538b4abbe,682f0fba87de0ca602a6113e,2025-05-22_12h51.49.530,cuing_paradigm_dot,2024.1.5,Win32,59.88023952,682d573fa47f1360d1451895,,,,,,,,,,,164.2353,164.7361,,,164.9863,165.5196,right,0.5164,,,,,,,,,0.45,,,,,,164.7361,164.9862,165.5197,"[0.19695488365965222,-0.02355465615207269]","[-1,-1,-1]","[-0.11030911429930379,0.056824010831283626]","[-1,-1,-1]","[-0.041006723775345505,0.10680369623992812]","[-1,-1,-1]","[-0.10246374595649348,-0.03482300333419311]","[-1,-1,-1]","[-0.008981897346729724,-0.19352674299112524]","[-1,-1,-1]","[0.07035752673677928,-0.1363689211344027]","[-1,-1,-1]","[-0.03533460082492596,-0.011056684549457635]","[-1,-1,-1]","[-0.09493035236069797,-0.08124531827628584]","[-1,-1,-1]","[0.07021361662214834,0.04365501823785287]","[1,1,1]","[0.17886857044245094,0.07128361342294781]","[1,1,1]","[0.14815162626314815,-0.038132359310040755]","[1,1,1]","[-0.13063562864550596,-0.11569099170868634]","[1,1,1]","[-0.09073939605452057,0.16331917297214038]","[-1,-1,-1]","[0.044743278652097,-0.06471213679457258]","[-1,-1,-1]","[-0.1591065098925169,0.014737510135874453]","[1,1,1]","[0.1125677194660735,-0.06584199879285377]","[-1,-1,-1]","[0.12105365982186513,-0.10936065655192403]","[1,1,1]","[0.10395206061245475,0.12676494013538236]","[-1,-1,-1]","[0.12871945337821594,0.042125479158980385]","[-1,-1,-1]","[-0.04982910158407558,-0.1857197033436412]","[1,1,1]","[0.07818600947345804,0.1749318327620489]","[-1,-1,-1]","[0.056528786848895375,-0.015659204566388057]","[-1,-1,-1]","[0.008745668480163582,-0.020998433883487346]","[-1,-1,-1]","[0.04462158578296083,0.14859155681753683]","[1,1,1]","[0.11168050216289908,-0.011285884743818676]","[1,1,1]","[0.008496390815262806,0.05086467270281804]","[-1,-1,-1]","[-0.05211804065273229,0.054786362394442886]","[-1,-1,-1]","[-0.10171973087134639,0.10034865167689225]","[1,1,1]","[-0.02155982914820209,0.15023585400803582]","[1,1,1]","[0.020376780191796156,0.08922004206913843]","[1,1,1]","[0.06679276088721366,-0.17893233226237043]","[1,1,1]","[0.012245180751590978,-0.12235158711306317]","[1,1,1]","[0.02,0.02]",166.6213,0,43,43,69,1,,,,,,,
,,,,,,,67c3321da0a96b0538b4abbe,682f0fba87de0ca602a6113e,2025-05-22_12h51.49.530,cuing_paradigm_dot,2024.1.5,Win32,59.88023952,682d573fa47f1360d1451895,,,,,,,,,,,166.6216,167.1219,,,167.373,167.99,left,0.5844,,,,,,,,,0.55,,,,,,167.1219,167.373,167.9901,"[-0.1350983221219327,-0.12601964915029157]","[1,1,1]","[0.04200963101326503,-0.11618746178605488]","[1,1,1]","[0.1737680175173669,-0.09459992590063979]","[1,1,1]","[-0.13677272911198318,0.016896566081062877]","[1,1,1]","[0.08207751759670132,0.17108879307188649]","[1,1,1]","[0.04063126237645897,0.12009263123752098]","[-1,-1,-1]","[0.1964393977228657,-0.028595017297655043]","[1,1,1]","[0.0840063234446845,0.0820450578762763]","[-1,-1,-1]","[0.05447145839309953,-0.004383133220375853]","[-1,-1,-1]","[-0.09915346785785668,-0.07490006460242157]","[1,1,1]","[0.0014383599407236365,-0.03971100409187395]","[-1,-1,-1]","[-0.030641657549318052,-0.12204637919947409]","[1,1,1]","[-0.06441976112466292,0.17831597547701541]","[1,1,1]","[-0.16235099132411684,-0.05512247885544361]","[1,1,1]","[-0.01897481503776203,0.18244069625191192]","[1,1,1]","[0.12271669155989098,-0.09565148800939825]","[-1,-1,-1]","[0.07195129873605972,0.041199782433451675]","[-1,-1,-1]","[0.012394569643160788,-0.19136694845292282]","[-1,-1,-1]","[-0.12311590894306416,0.06634367815084895]","[1,1,1]","[-0.07374811875706969,0.10652989046838]","[-1,-1,-1]","[0.13322886985995164,-0.05537256737910781]","[1,1,1]","[0.147349245193197,0.08662338708667797]","[1,1,1]","[-0.17418023865230003,-0.002746797549452071]","[1,1,1]","[0.03154210406364731,0.17651538050826854]","[1,1,1]","[-0.17735876939984152,0.06331946575018049]","[-1,-1,-1]","[-0.05966950304184029,-0.061787958009653164]","[1,1,1]","[-0.14684177554221933,0.12426689567726752]","[-1,-1,-1]","[-0.004938274239355307,0.1384498790763024]","[1,1,1]","[-0.00011988441427711213,0.03560351371281391]","[-1,-1,-1]","[-0.02105371900567345,0.08340320919461128]","[-1,-1,-1]","[0.12290561418909826,0.0009962540240900956]","[-1,-1,-1]","[-0.08466079501016197,-0.0020496209477767775]","[-1,-1,-1]","[0.02,0.02]",169.0897,0,44,44,141,1,,,,,,,
