right,left,explain.started,explain.stopped,key_resp_3.keys,key_resp_3.rt,key_resp_3.duration,participant,session,date,expName,psychopyVersion,OS,frameRate,study_id,explain_2.started,explain_2.stopped,key_resp_4.keys,key_resp_4.rt,key_resp_4.duration,explain_3.started,explain_3.stopped,key_resp_5.keys,key_resp_5.rt,key_resp_5.duration,fixation.started,fixation.stopped,practice.started,practice.stopped,response.started,response.stopped,key_resp.keys,feedback.started,feedback.stopped,trials_2.thisRepN,trials_2.thisTrialN,trials_2.thisN,trials_2.thisIndex,trials_2.ran,white_ratio,key_resp.rt,key_resp.duration,explain_4.started,explain_4.stopped,key_resp_6.keys,key_resp_6.rt,key_resp_6.duration,dotDisplay.started,dotDisplay.stopped,ITI.started,polygon_1.pos,polygon_1.color,polygon_2.pos,polygon_2.color,polygon_3.pos,polygon_3.color,polygon_4.pos,polygon_4.color,polygon_5.pos,polygon_5.color,polygon_6.pos,polygon_6.color,polygon_7.pos,polygon_7.color,polygon_8.pos,polygon_8.color,polygon_9.pos,polygon_9.color,polygon_10.pos,polygon_10.color,polygon_11.pos,polygon_11.color,polygon_12.pos,polygon_12.color,polygon_13.pos,polygon_13.color,polygon_14.pos,polygon_14.color,polygon_15.pos,polygon_15.color,polygon_16.pos,polygon_16.color,polygon_17.pos,polygon_17.color,polygon_18.pos,polygon_18.color,polygon_19.pos,polygon_19.color,polygon_20.pos,polygon_20.color,polygon_21.pos,polygon_21.color,polygon_22.pos,polygon_22.color,polygon_23.pos,polygon_23.color,polygon_24.pos,polygon_24.color,polygon_25.pos,polygon_25.color,polygon_26.pos,polygon_26.color,polygon_27.pos,polygon_27.color,polygon_28.pos,polygon_28.color,polygon_29.pos,polygon_29.color,polygon_30.pos,polygon_30.color,polygon_31.pos,polygon_31.color,polygon_32.pos,polygon_32.color,dot_size,ITI.stopped,trials.thisRepN,trials.thisTrialN,trials.thisN,trials.thisIndex,trials.ran,break_2.started,break_2.stopped,trials_3.thisRepN,trials_3.thisTrialN,trials_3.thisN,trials_3.thisIndex,trials_3.ran
subject chose black,subject chose white,0.0007,107.3296,space,92.3197,,67cd50f22f22938860f85a66,682f0fe1c7a887b5c4e2f766,2025-05-22_13h59.55.130,cuing_paradigm_dot,2024.1.5,Win32,59.88023952,682d573fa47f1360d1451895,,,,,,,,,,,,,,,,,,,,,,,,,,,,,,,,,,,,,,,,,,,,,,,,,,,,,,,,,,,,,,,,,,,,,,,,,,,,,,,,,,,,,,,,,,,,,,,,,,,,,,,,,,,,,,,,,
,,,,,,,67cd50f22f22938860f85a66,682f0fe1c7a887b5c4e2f766,2025-05-22_13h59.55.130,cuing_paradigm_dot,2024.1.5,Win32,59.88023952,682d573fa47f1360d1451895,107.33,165.3985,space,28.0578,,,,,,,,,,,,,,,,,,,,,,,,,,,,,,,,,,,,,,,,,,,,,,,,,,,,,,,,,,,,,,,,,,,,,,,,,,,,,,,,,,,,,,,,,,,,,,,,,,,,,,,,,,,,,
,,,,,,,67cd50f22f22938860f85a66,682f0fe1c7a887b5c4e2f766,2025-05-22_13h59.55.130,cuing_paradigm_dot,2024.1.5,Win32,59.88023952,682d573fa47f1360d1451895,,,,,,165.3988,170.898,space,2.4763,,,,,,,,,,,,,,,,,,,,,,,,,,,,,,,,,,,,,,,,,,,,,,,,,,,,,,,,,,,,,,,,,,,,,,,,,,,,,,,,,,,,,,,,,,,,,,,,,,,,,,,,
,,,,,,,67cd50f22f22938860f85a66,682f0fe1c7a887b5c4e2f766,2025-05-22_13h59.55.130,cuing_paradigm_dot,2024.1.5,Win32,59.88023952,682d573fa47f1360d1451895,,,,,,,,,,,170.9287,171.4142,171.4146,171.6647,171.6649,173.1558,,173.156,174.2539,0,0,0,1,1,0.2,,,,,,,,,,,,,,,,,,,,,,,,,,,,,,,,,,,,,,,,,,,,,,,,,,,,,,,,,,,,,,,,,,,,,,,,,,,,,,,,,,,,,,,,
,,,,,,,67cd50f22f22938860f85a66,682f0fe1c7a887b5c4e2f766,2025-05-22_13h59.55.130,cuing_paradigm_dot,2024.1.5,Win32,59.88023952,682d573fa47f1360d1451895,,,,,,,,,,,174.255,174.7517,174.7517,174.998,174.9981,175.2476,right,175.2477,176.3474,0,1,1,0,1,0.8,0.2342,,,,,,,,,,,,,,,,,,,,,,,,,,,,,,,,,,,,,,,,,,,,,,,,,,,,,,,,,,,,,,,,,,,,,,,,,,,,,,,,,,,,,,,
,,,,,,,67cd50f22f22938860f85a66,682f0fe1c7a887b5c4e2f766,2025-05-22_13h59.55.130,cuing_paradigm_dot,2024.1.5,Win32,59.88023952,682d573fa47f1360d1451895,,,,,,,,,,,,,,,,,,,,,,,,,,,,176.348,188.3475,space,8.9755,,,,,,,,,,,,,,,,,,,,,,,,,,,,,,,,,,,,,,,,,,,,,,,,,,,,,,,,,,,,,,,,,,,,,,,,,,,,,,,,,,
,,,,,,,67cd50f22f22938860f85a66,682f0fe1c7a887b5c4e2f766,2025-05-22_13h59.55.130,cuing_paradigm_dot,2024.1.5,Win32,59.88023952,682d573fa47f1360d1451895,,,,,,,,,,,188.3701,188.8634,,,189.1142,189.4467,right,,,,,,,,0.1,0.3198,,,,,,,188.8639,189.1142,189.4472,"[-0.06035938703641086,0.17548448070480888]","[-1,-1,-1]","[0.04105535288278324,0.10024396400363286]","[-1,-1,-1]","[-0.0763904010243019,-0.15046827246270347]","[-1,-1,-1]","[-0.012121452299817367,0.034741340954236824]","[-1,-1,-1]","[-0.041100919491408656,0.10072512445950699]","[-1,-1,-1]","[0.1597172423245431,0.0034148470128370118]","[-1,-1,-1]","[-0.007392362958554265,-0.09193554791709997]","[-1,-1,-1]","[0.0981996181739172,-0.04221521026331717]","[-1,-1,-1]","[-0.07393682491849587,0.0070203622447197345]","[-1,-1,-1]","[0.14478962454023506,0.08663251669061606]","[-1,-1,-1]","[-0.010975464244921306,0.19504218051662417]","[-1,-1,-1]","[-0.12098698963272489,0.031381086510079655]","[1,1,1]","[-0.14403987787836894,0.10704248925596374]","[-1,-1,-1]","[0.1932548669701183,-0.042598502428948325]","[-1,-1,-1]","[-0.01575473436942296,-0.14639751284667235]","[-1,-1,-1]","[0.18289172095589204,0.03721658962641739]","[-1,-1,-1]","[-0.033839484966594106,-0.026156997909134738]","[-1,-1,-1]","[0.07332492079186638,-0.169622318324573]","[-1,-1,-1]","[-0.04013848819399078,-0.19163539102323138]","[-1,-1,-1]","[-0.12389355789203085,-0.05586427905107576]","[-1,-1,-1]","[-0.17145347435598654,0.007268573695853772]","[-1,-1,-1]","[0.03050953709788084,-0.0017568559124180774]","[-1,-1,-1]","[-0.009339918225375297,0.15451190856295918]","[1,1,1]","[-0.10821151771935202,-0.09823377640103119]","[1,1,1]","[0.10036982156821136,-0.12589123698437327]","[-1,-1,-1]","[-0.14968321703003923,-0.09198091572706732]","[-1,-1,-1]","[0.10678416842079529,0.12347375259655842]","[-1,-1,-1]","[0.11796832764160711,0.05664603950291308]","[-1,-1,-1]","[-0.07903365859683495,-0.043795196853797826]","[-1,-1,-1]","[0.0680832121862642,0.04811608246713378]","[-1,-1,-1]","[0.12079173324303585,-0.07781972721346764]","[-1,-1,-1]","[0.16210888955302324,-0.0777002266085707]","[-1,-1,-1]","[0.02,0.02]",190.547,0,0,0,4,1,,,,,,,
,,,,,,,67cd50f22f22938860f85a66,682f0fe1c7a887b5c4e2f766,2025-05-22_13h59.55.130,cuing_paradigm_dot,2024.1.5,Win32,59.88023952,682d573fa47f1360d1451895,,,,,,,,,,,190.5475,191.0467,,,191.2971,191.73,right,,,,,,,,0.4,0.4176,,,,,,,191.0468,191.2971,191.7301,"[-0.06250027661794058,0.07592345929158342]","[1,1,1]","[0.13066197101741903,-0.10734226589384575]","[-1,-1,-1]","[0.084367546374792,0.024498600210978466]","[1,1,1]","[-0.14623574512782167,-0.053282939983203124]","[1,1,1]","[0.09924334311404606,-0.17102986204526702]","[1,1,1]","[-0.16210137331776822,-0.09838012563983105]","[1,1,1]","[-0.18124625524497073,0.01593268833495882]","[1,1,1]","[-0.0486599553620003,-0.1221961448565879]","[1,1,1]","[0.028959779055833922,0.1506378707761255]","[-1,-1,-1]","[0.04146162635982175,0.0013606871353748554]","[-1,-1,-1]","[-0.11697286411543725,0.0328457791974968]","[1,1,1]","[0.18944793988236408,-0.047172554849564376]","[1,1,1]","[-0.02843433656978624,-0.06498989836416395]","[1,1,1]","[0.10960685353690414,0.10326192647837906]","[-1,-1,-1]","[0.08471812931525463,0.1482792922718801]","[1,1,1]","[0.14643653499819367,0.08512718238016702]","[1,1,1]","[-0.08519874091813061,-0.08243211291147348]","[-1,-1,-1]","[-0.0597582202130241,0.12518261070978498]","[-1,-1,-1]","[-0.039952020471063096,0.03996434530759557]","[-1,-1,-1]","[0.03706586565371034,-0.09131890073948405]","[1,1,1]","[0.0019865964527156312,0.015283169291262827]","[-1,-1,-1]","[0.0933971073874304,-0.07921089164590785]","[-1,-1,-1]","[0.13992013723038416,0.13291169227832106]","[-1,-1,-1]","[-0.01020034096057395,0.09531046286592167]","[-1,-1,-1]","[0.06506161628064534,-0.14646053232369155]","[-1,-1,-1]","[-0.08443102769253436,-0.14436165662351738]","[-1,-1,-1]","[0.018367708167020748,-0.19864318811700174]","[-1,-1,-1]","[0.010401845845495025,-0.03480170492345536]","[-1,-1,-1]","[-0.012671783404749143,0.1867445708178074]","[-1,-1,-1]","[0.17238885977025895,-0.004093414629153493]","[-1,-1,-1]","[-0.13257804851317304,0.09931411777417903]","[-1,-1,-1]","[-0.06365363272070343,-0.018647518107328773]","[-1,-1,-1]","[0.02,0.02]",192.8302,0,1,1,45,1,,,,,,,
,,,,,,,67cd50f22f22938860f85a66,682f0fe1c7a887b5c4e2f766,2025-05-22_13h59.55.130,cuing_paradigm_dot,2024.1.5,Win32,59.88023952,682d573fa47f1360d1451895,,,,,,,,,,,192.8307,193.33,,,193.5804,193.8299,left,,,,,,,,0.45,0.2341,,,,,,,193.33,193.5804,193.83,"[0.10953006101269681,0.08544804045896616]","[1,1,1]","[-0.10757399570265963,-0.1047097057683642]","[-1,-1,-1]","[-0.10706220475022951,0.11782957749933565]","[-1,-1,-1]","[0.03612699544837245,0.010144296364645547]","[-1,-1,-1]","[-0.010967734453616696,0.0935167165903029]","[1,1,1]","[0.07852372738184363,0.16494173615882396]","[-1,-1,-1]","[0.018768996097550526,-0.06652478344328641]","[-1,-1,-1]","[-0.03914059247131357,-0.08642266879592626]","[-1,-1,-1]","[0.1448172440351745,-0.06808189944775797]","[1,1,1]","[-0.09334749310403052,-0.037639947445545045]","[1,1,1]","[-0.039815305706063495,-0.020577674232968378]","[-1,-1,-1]","[-0.11165034973034715,0.0635738098334028]","[-1,-1,-1]","[-0.003816251978818981,-0.1583249763045222]","[-1,-1,-1]","[-0.014232336177826826,0.19743695577385842]","[-1,-1,-1]","[0.15716038339797803,0.022954726114416787]","[1,1,1]","[0.029514242204857714,0.09708740058392025]","[-1,-1,-1]","[0.0685933140703601,-0.1456674541698021]","[1,1,1]","[-0.18061198645700066,-0.05435563126129383]","[1,1,1]","[0.13021353523127052,-0.14411548003212254]","[-1,-1,-1]","[-0.10091419373665936,-0.16138794402791182]","[-1,-1,-1]","[-0.08773803067046226,0.023089046982664337]","[-1,-1,-1]","[0.040934825538454095,-0.18302518717186883]","[1,1,1]","[-0.14274083247704708,0.023413905203197104]","[-1,-1,-1]","[0.012445658334125826,-0.10632355463994723]","[1,1,1]","[-0.021634099364439822,-0.195990601679964]","[1,1,1]","[0.02498628169744376,0.17669158998030504]","[1,1,1]","[-0.13783726277727942,-0.018721571519086475]","[1,1,1]","[0.12848696463305273,-0.02950231402993984]","[1,1,1]","[-0.037759380885658465,0.060419419230614356]","[-1,-1,-1]","[-0.16631896814596356,-0.09909935884648076]","[1,1,1]","[0.08621811920433758,0.02386850492021776]","[-1,-1,-1]","[-0.05387910237556674,-0.15117880119372706]","[-1,-1,-1]","[0.02,0.02]",194.9297,0,2,2,66,1,,,,,,,
,,,,,,,67cd50f22f22938860f85a66,682f0fe1c7a887b5c4e2f766,2025-05-22_13h59.55.130,cuing_paradigm_dot,2024.1.5,Win32,59.88023952,682d573fa47f1360d1451895,,,,,,,,,,,194.9303,195.4299,,,195.6804,195.9465,right,,,,,,,,0.55,0.2511,,,,,,,195.4299,195.6803,195.9465,"[0.004446579228601579,0.14050912798845844]","[1,1,1]","[-0.10640686889027237,-0.15721988577676793]","[1,1,1]","[-0.07216385168950311,0.12117367692718743]","[-1,-1,-1]","[-0.05849992890144393,0.17543131727846145]","[1,1,1]","[0.04334566653940048,0.07160620797146634]","[-1,-1,-1]","[-0.11889999226325365,0.015536510641600904]","[1,1,1]","[0.025393416016373148,-0.05154915731190901]","[1,1,1]","[-0.009525846505539405,-0.07131430740023907]","[1,1,1]","[0.12458639899203901,-0.10027078559907847]","[1,1,1]","[-0.19516104322556116,-0.015069571259336197]","[-1,-1,-1]","[0.06843703810886392,-0.003721449410497605]","[1,1,1]","[-0.048990888886849326,-0.033356505133754336]","[-1,-1,-1]","[0.07422208408220801,-0.16101197656908653]","[1,1,1]","[-0.14607712388387695,-0.05441395554769582]","[-1,-1,-1]","[0.0696392542513005,0.11523522635516793]","[1,1,1]","[-0.17957053599589998,-0.08099141701764616]","[-1,-1,-1]","[0.07872472709577864,0.03749142002255953]","[1,1,1]","[-0.11517639437233658,0.16295122553602234]","[-1,-1,-1]","[0.05059502871669747,0.18952029638617204]","[-1,-1,-1]","[0.12983144333565527,0.008038586313206211]","[1,1,1]","[-0.03620599239348539,-0.195251301373756]","[-1,-1,-1]","[0.18530459733114454,-0.07374427613945735]","[1,1,1]","[0.015939827552408834,-0.1654754789968678]","[1,1,1]","[-0.10039016666486998,0.08961945363599585]","[-1,-1,-1]","[0.09991902738614857,0.17160466233113797]","[-1,-1,-1]","[0.1409551186405917,0.06910098409581743]","[1,1,1]","[0.09546888266382338,-0.03719280075911841]","[-1,-1,-1]","[-0.1809760208709263,0.02411864577027591]","[1,1,1]","[-0.06804224071244361,-0.12428113823782005]","[-1,-1,-1]","[-0.18552064855309217,0.06805876016237329]","[1,1,1]","[0.05656767760057476,-0.11569355599674198]","[-1,-1,-1]","[0.0026046554918774116,-0.0009482541686718788]","[1,1,1]","[0.02,0.02]",197.0465,0,3,3,123,1,,,,,,,
,,,,,,,67cd50f22f22938860f85a66,682f0fe1c7a887b5c4e2f766,2025-05-22_13h59.55.130,cuing_paradigm_dot,2024.1.5,Win32,59.88023952,682d573fa47f1360d1451895,,,,,,,,,,,197.047,197.5464,,,197.7966,197.9969,right,,,,,,,,0.4,0.1909,,,,,,,197.5466,197.7966,197.997,"[-0.11444360511091642,0.03560407202513945]","[-1,-1,-1]","[-0.12103983033505117,0.11287445732514306]","[-1,-1,-1]","[0.005335500283076256,0.14079445037316707]","[1,1,1]","[-0.01870532403147609,0.17419479201548818]","[-1,-1,-1]","[0.07818917776080854,-0.007643688350332952]","[-1,-1,-1]","[-0.053028595415488114,0.11344064819526901]","[-1,-1,-1]","[0.04981978692407775,0.08207371923225926]","[-1,-1,-1]","[-0.10233847562422184,0.16985604686152062]","[-1,-1,-1]","[0.04896489775050888,0.14830493829026972]","[-1,-1,-1]","[0.020297289218154716,-0.15749755381573957]","[-1,-1,-1]","[-0.0693666575871252,-0.023218063192937684]","[-1,-1,-1]","[-0.09900325391424392,-0.15938336405280992]","[1,1,1]","[-0.1517976652198133,0.0012970741441809903]","[-1,-1,-1]","[0.18538646177713627,-0.06093623721750537]","[-1,-1,-1]","[0.09094644173822222,0.06200569566619828]","[1,1,1]","[-0.009236982810143951,-0.010052498171402215]","[1,1,1]","[-0.16999207877740793,0.0529408764599941]","[1,1,1]","[0.12047039223027559,-0.029104753876000738]","[1,1,1]","[-0.07148001126861828,0.02052736463570247]","[-1,-1,-1]","[-0.04628865927742578,-0.13596937584602845]","[1,1,1]","[-0.15048818117701623,-0.09930665972592176]","[-1,-1,-1]","[0.14383894081864734,0.08309324841235072]","[1,1,1]","[0.19029703144099833,0.03876550230810037]","[1,1,1]","[0.13025446135766205,0.12962549474128307]","[-1,-1,-1]","[0.05477865745009351,-0.08377030483221988]","[-1,-1,-1]","[0.1442431323248999,0.02173966726190016]","[1,1,1]","[0.003060147164585571,-0.10862054434601769]","[1,1,1]","[0.043276735035333636,0.03834622107289664]","[1,1,1]","[0.18199810197050706,-0.008398001689100036]","[1,1,1]","[-0.18359243772382933,-0.04712553331040403]","[-1,-1,-1]","[-0.07050197138855278,0.07186421620876102]","[-1,-1,-1]","[-0.0868038287137956,-0.06644621778885236]","[-1,-1,-1]","[0.02,0.02]",199.0964,0,4,4,43,1,,,,,,,
,,,,,,,67cd50f22f22938860f85a66,682f0fe1c7a887b5c4e2f766,2025-05-22_13h59.55.130,cuing_paradigm_dot,2024.1.5,Win32,59.88023952,682d573fa47f1360d1451895,,,,,,,,,,,199.0968,199.5962,,,199.8472,200.0143,right,,,,,,,,0.1,0.1507,,,,,,,199.5964,199.8472,200.0144,"[0.1591037907245804,0.10577378749748383]","[-1,-1,-1]","[0.09907339626438863,0.1305744195784633]","[-1,-1,-1]","[0.10169760334842846,0.08800130055924621]","[-1,-1,-1]","[0.009386612678742669,0.08168455208826764]","[-1,-1,-1]","[0.09195648963369325,-0.051281269582844985]","[-1,-1,-1]","[0.10141599426520329,-0.11064803598516575]","[-1,-1,-1]","[-0.07653366274672208,0.166347661146993]","[-1,-1,-1]","[-0.13849555246490408,0.05465409508523029]","[1,1,1]","[-0.04314425879690391,0.08272669664011341]","[-1,-1,-1]","[-0.11145643883821871,-0.11064267779007483]","[-1,-1,-1]","[0.016517787976613945,0.1333404872766718]","[-1,-1,-1]","[0.06970717517179187,0.004679166217513074]","[-1,-1,-1]","[-0.10126937904999318,0.12457307970899753]","[-1,-1,-1]","[-0.12074555124379359,-0.048966718187779666]","[-1,-1,-1]","[-0.17534644554659945,-0.05870181409623068]","[-1,-1,-1]","[0.027049863935301715,-0.15778311821453908]","[-1,-1,-1]","[-0.10685281390605202,0.023089445091351513]","[-1,-1,-1]","[-0.0531736715188747,-0.13458276223998258]","[-1,-1,-1]","[0.03952759021904493,-0.09773022307591518]","[-1,-1,-1]","[-0.037576174191827745,0.18759629948896994]","[-1,-1,-1]","[0.19375996880032662,0.042474651748390026]","[-1,-1,-1]","[-0.010499114176625801,-0.0697282647262832]","[-1,-1,-1]","[-0.19059861791265065,-0.01955091251920492]","[-1,-1,-1]","[-0.03556088640780107,0.14583037933079426]","[-1,-1,-1]","[-0.05171765232506648,-0.001301569267404058]","[-1,-1,-1]","[-0.009413999274150537,0.03126448633760082]","[1,1,1]","[0.13011209018174763,-0.14421976238174228]","[-1,-1,-1]","[0.18050257099289677,-0.009552932289930921]","[1,1,1]","[0.027507445321436206,-0.01377458115497428]","[-1,-1,-1]","[0.14865314599200344,-0.08793749116451366]","[-1,-1,-1]","[0.11918117907137364,0.020259270249983075]","[-1,-1,-1]","[0.043123133026196685,0.18350774706560252]","[-1,-1,-1]","[0.02,0.02]",201.113,0,5,5,29,1,,,,,,,
,,,,,,,67cd50f22f22938860f85a66,682f0fe1c7a887b5c4e2f766,2025-05-22_13h59.55.130,cuing_paradigm_dot,2024.1.5,Win32,59.88023952,682d573fa47f1360d1451895,,,,,,,,,,,201.1134,201.613,,,201.8634,202.2471,right,,,,,,,,0.4,0.3712,,,,,,,201.613,201.8634,202.2472,"[-0.006880578938397613,-0.13809486312965677]","[1,1,1]","[-0.03155244171552946,0.09454203451369723]","[-1,-1,-1]","[-0.17303536842384368,0.08272114832148951]","[-1,-1,-1]","[-0.18495847604439608,-0.045615838981572836]","[-1,-1,-1]","[-0.0705831331604737,0.0687225188530486]","[-1,-1,-1]","[0.08765411159766447,-0.16198600215835543]","[-1,-1,-1]","[-0.10451988250659737,-0.11653535228066207]","[1,1,1]","[0.1321985086044898,0.14743164524178434]","[-1,-1,-1]","[-0.07032369842002419,-0.14423185449601988]","[-1,-1,-1]","[0.14987372030207594,-0.11280650443803825]","[1,1,1]","[0.07531910880546559,0.08628231680338518]","[-1,-1,-1]","[0.07472860914083154,-0.05918380942733566]","[1,1,1]","[0.010573356339226628,0.14216575153536432]","[-1,-1,-1]","[0.17777025746092753,-0.0604889688565738]","[-1,-1,-1]","[0.16467504444617828,0.033543698411706485]","[-1,-1,-1]","[0.03312810206670985,-0.03610788314211243]","[1,1,1]","[0.16502528887352017,0.09906173305332153]","[1,1,1]","[-0.0920477802499271,0.10589639209983692]","[1,1,1]","[-0.1690967822949741,-0.08463700716370341]","[1,1,1]","[-0.1038157102300096,0.14445922961039268]","[1,1,1]","[-0.0025998383168874544,-0.07902853482988391]","[-1,-1,-1]","[0.040019808415965016,0.10693636316584612]","[1,1,1]","[0.04062290604628516,0.04959005859236237]","[-1,-1,-1]","[-0.060995864017457185,-0.08366595762409848]","[1,1,1]","[-0.045108568781988274,0.1670560466375502]","[-1,-1,-1]","[0.11388733947317697,-0.07468337851990217]","[-1,-1,-1]","[0.05395207850796971,-0.12239075722983601]","[-1,-1,-1]","[-0.06147136965232249,0.028485252683664627]","[1,1,1]","[-0.017159197027958453,-0.012343053104129562]","[-1,-1,-1]","[0.12090845566395624,0.010434971599862918]","[-1,-1,-1]","[0.06195658719648823,0.007451876563848845]","[1,1,1]","[-0.15831000711715362,0.029901737269805946]","[-1,-1,-1]","[0.02,0.02]",203.3462,0,6,6,53,1,,,,,,,
,,,,,,,67cd50f22f22938860f85a66,682f0fe1c7a887b5c4e2f766,2025-05-22_13h59.55.130,cuing_paradigm_dot,2024.1.5,Win32,59.88023952,682d573fa47f1360d1451895,,,,,,,,,,,203.3467,203.8461,,,204.0965,204.3295,left,,,,,,,,0.55,0.2185,,,,,,,203.8461,204.0964,204.3295,"[0.1271199612966171,0.11157868262539508]","[1,1,1]","[-0.09949708460661252,-0.040105618790619996]","[-1,-1,-1]","[0.06361583293113869,-0.1698170692911074]","[1,1,1]","[-0.07108236083886851,0.11082059110971569]","[1,1,1]","[0.03432186636499017,0.07011486183005637]","[1,1,1]","[0.14865247362941628,-0.06665050688162001]","[-1,-1,-1]","[-0.036706875493989065,0.17142959435864027]","[-1,-1,-1]","[0.038899712390731186,-0.021655926499918963]","[1,1,1]","[0.12208047471390271,-0.004783358886228067]","[-1,-1,-1]","[-0.03582168540323138,0.031632529530131986]","[1,1,1]","[0.09408765403821018,0.02922536142123314]","[-1,-1,-1]","[-0.0795948063131398,0.05102427661364553]","[-1,-1,-1]","[0.15188463874178068,0.04746714457989427]","[1,1,1]","[-0.1621180044530971,0.08227446994156971]","[-1,-1,-1]","[-0.15638494553101345,-0.11767161690565482]","[1,1,1]","[-0.0665248764266636,-0.1285295345738782]","[1,1,1]","[-0.029161133578884113,-0.1922243902702715]","[1,1,1]","[-0.09453697114499679,-0.08387566282808855]","[-1,-1,-1]","[0.09766108105725352,-0.11677779847378539]","[-1,-1,-1]","[0.0014893358770478053,0.15713471450386146]","[-1,-1,-1]","[0.1877549142205601,0.01579060710981206]","[1,1,1]","[-0.11048333413866375,0.09276757325873002]","[1,1,1]","[-0.011054661077855325,0.09596230883729409]","[-1,-1,-1]","[-0.16858540219175927,-0.05596509722545463]","[-1,-1,-1]","[0.017876722266918405,-0.08654553755173965]","[-1,-1,-1]","[0.10661101913518098,0.15698481634562367]","[1,1,1]","[0.1632791156806659,-0.11187632620172995]","[1,1,1]","[0.08039412022240622,-0.03596972325107321]","[1,1,1]","[-0.0014267160472337152,-0.011177049229293247]","[1,1,1]","[-0.03622387273931658,-0.08696192642935276]","[-1,-1,-1]","[-0.09455077969361987,-0.16878232582534575]","[1,1,1]","[0.02336047498368921,-0.18915661966781122]","[1,1,1]","[0.02,0.02]",205.4294,0,7,7,127,1,,,,,,,
,,,,,,,67cd50f22f22938860f85a66,682f0fe1c7a887b5c4e2f766,2025-05-22_13h59.55.130,cuing_paradigm_dot,2024.1.5,Win32,59.88023952,682d573fa47f1360d1451895,,,,,,,,,,,205.4299,205.9291,,,206.1797,206.4135,left,,,,,,,,0.5,0.2189,,,,,,,205.9293,206.1797,206.4135,"[0.0029414896716305023,-0.13633779398127133]","[-1,-1,-1]","[0.08008008634347348,0.02589435412096953]","[-1,-1,-1]","[-0.094568869832616,-0.10993211294758884]","[1,1,1]","[0.03822519936560653,-0.10337401213348171]","[-1,-1,-1]","[0.04382215544127914,0.05011718717995976]","[1,1,1]","[0.042414551703006065,-0.04899073090211279]","[1,1,1]","[0.11420801007919888,0.111950796093827]","[1,1,1]","[0.09341724772365274,-0.04160033949749127]","[-1,-1,-1]","[-0.1105984361160986,0.0009254354791393449]","[-1,-1,-1]","[-0.019410507946390536,-0.02676095556502183]","[-1,-1,-1]","[-0.14511331325544372,0.07560755676615795]","[1,1,1]","[-0.02421750913937126,-0.09404113290118422]","[-1,-1,-1]","[-0.04348259816748692,0.05883298815954501]","[-1,-1,-1]","[-0.06777016580960579,0.10223926384688936]","[1,1,1]","[0.06371226597194438,-0.15159706561195638]","[1,1,1]","[0.17099068541931206,-0.02461079419789435]","[-1,-1,-1]","[-0.06317840002151748,-0.07237927589723152]","[1,1,1]","[0.1034174428132315,0.16210298130542278]","[-1,-1,-1]","[0.02744911458904672,0.11516916031192928]","[1,1,1]","[0.13095881629255574,-0.0015424735646321853]","[1,1,1]","[0.1269581140567146,-0.10338406391520795]","[1,1,1]","[-0.05900356542992996,0.15747034938701118]","[1,1,1]","[-0.12274958583068059,0.15131171525995513]","[-1,-1,-1]","[-0.16164913678201115,-0.06826507064827991]","[-1,-1,-1]","[-0.0983158003322704,0.05690174201426788]","[1,1,1]","[-0.0522793048109862,-0.1731823311465668]","[1,1,1]","[-0.001750040495073332,0.16912926255256033]","[1,1,1]","[0.12053666612957609,0.07056158998665525]","[-1,-1,-1]","[0.1384618780053203,-0.0597833967582154]","[-1,-1,-1]","[-0.06648142775873105,-0.02244694705338036]","[1,1,1]","[0.17542282612899077,0.022414318311963916]","[-1,-1,-1]","[-0.14520086395017337,-0.10979171650502023]","[-1,-1,-1]","[0.02,0.02]",207.5127,0,8,8,94,1,,,,,,,
,,,,,,,67cd50f22f22938860f85a66,682f0fe1c7a887b5c4e2f766,2025-05-22_13h59.55.130,cuing_paradigm_dot,2024.1.5,Win32,59.88023952,682d573fa47f1360d1451895,,,,,,,,,,,207.5131,208.0124,,,208.2628,208.4628,right,,,,,,,,0.45,0.1872,,,,,,,208.0126,208.2628,208.4628,"[-0.020917758117950613,0.07355935376960698]","[1,1,1]","[0.1499571718627409,-0.02302359939905614]","[-1,-1,-1]","[0.028643488432179204,0.06758181413683688]","[1,1,1]","[0.1195955928075231,-0.15829980625681414]","[-1,-1,-1]","[-0.02906123371608608,-0.08992407969824541]","[1,1,1]","[0.0231073244543597,-0.1514362400169116]","[-1,-1,-1]","[0.12538562612417573,-0.0791107175754969]","[-1,-1,-1]","[0.14843960540880993,0.05201375315524843]","[1,1,1]","[-0.12830342131201028,0.0372095898619675]","[-1,-1,-1]","[-0.10290636099564869,-0.09353304595329819]","[1,1,1]","[-0.08543538363102812,0.09257351426294019]","[-1,-1,-1]","[0.17446064551192514,-0.07488733545828041]","[1,1,1]","[0.027083965205474105,0.11774660321620758]","[1,1,1]","[-0.09855357708062927,-0.035579443481878345]","[-1,-1,-1]","[0.04953077737463911,0.01194746931264093]","[1,1,1]","[0.07636999860221073,-0.07804631830975439]","[-1,-1,-1]","[0.0069124337880036415,0.18268566089551655]","[-1,-1,-1]","[-0.155711568619925,-0.11195757865025675]","[-1,-1,-1]","[-0.052876212759231746,-0.022838001249630924]","[1,1,1]","[-0.03517299321832477,0.024603232814264454]","[-1,-1,-1]","[-0.09431892132922222,0.14831614921804426]","[-1,-1,-1]","[0.0523667361239609,-0.12145822851577939]","[-1,-1,-1]","[-0.14510380710411158,-0.06364593933885077]","[1,1,1]","[0.024611549464206354,-0.025942630718404223]","[-1,-1,-1]","[-0.03644349130226424,-0.16015584563147353]","[1,1,1]","[0.004470884253994073,-0.1959992594100648]","[-1,-1,-1]","[-0.13656624956366883,0.12930143420349613]","[-1,-1,-1]","[-0.12339138887114205,-0.15688316805610977]","[1,1,1]","[-0.1830265587273545,0.05972083710064913]","[1,1,1]","[0.07518876386200508,0.11023407999344466]","[1,1,1]","[-0.06978339534348157,0.04734713109707379]","[-1,-1,-1]","[0.10602772040401338,0.06585870115405906]","[-1,-1,-1]","[0.02,0.02]",209.5625,0,9,9,89,1,,,,,,,
,,,,,,,67cd50f22f22938860f85a66,682f0fe1c7a887b5c4e2f766,2025-05-22_13h59.55.130,cuing_paradigm_dot,2024.1.5,Win32,59.88023952,682d573fa47f1360d1451895,,,,,,,,,,,209.5629,210.0625,,,210.313,210.546,right,,,,,,,,0.6,0.2187,,,,,,,210.0626,210.313,210.546,"[0.09490643471896057,0.0001768228226006585]","[1,1,1]","[-0.006358394387625197,-0.06444089923272119]","[1,1,1]","[0.11895456490621446,-0.041924975466740184]","[-1,-1,-1]","[0.014377266360097122,0.12721824126056308]","[1,1,1]","[-0.025349604416355316,0.024206227594851915]","[1,1,1]","[0.14388556731708033,-0.10612954526122746]","[1,1,1]","[0.09362694481752998,0.05875685081838416]","[1,1,1]","[-0.13902901619405036,0.1367980107607046]","[1,1,1]","[0.005220406687862062,-0.10867549214614916]","[-1,-1,-1]","[0.11495346395325501,-0.15741185070174477]","[-1,-1,-1]","[0.049579922412223774,0.0057275104719499235]","[1,1,1]","[0.14395963279369553,-0.0022765963755738508]","[-1,-1,-1]","[-0.18855487883156408,-0.007254282779983267]","[1,1,1]","[0.11160260091680868,0.16030941502120413]","[1,1,1]","[0.02990999193203719,-0.17119407308060375]","[1,1,1]","[-0.09642172167728268,-0.16538248965936225]","[1,1,1]","[-0.034235921884484224,-0.029720549357906308]","[-1,-1,-1]","[-0.1634895019719714,0.062233377559011205]","[-1,-1,-1]","[0.005425632378390053,0.1903604164668873]","[1,1,1]","[-0.04798972899987217,-0.07877356690000317]","[-1,-1,-1]","[0.1239759315442082,0.08912909955753004]","[1,1,1]","[-0.14523178871871578,0.005317518944925246]","[-1,-1,-1]","[-0.15802245314532085,-0.10081280159613124]","[1,1,1]","[0.012244497491505628,0.07428429976225256]","[1,1,1]","[-0.049966314911785915,0.07676250089152131]","[-1,-1,-1]","[-0.04568132720119028,0.12553917992715272]","[-1,-1,-1]","[-0.03464130523678953,-0.1378950218725563]","[1,1,1]","[-0.10197147544140282,-0.0843657242234204]","[1,1,1]","[-0.08756245438387042,-0.026205805845044425]","[-1,-1,-1]","[0.05556362637155492,-0.07083505031993208]","[-1,-1,-1]","[0.17151759152130358,0.0853167682540754]","[1,1,1]","[-0.10712844354453886,0.053071672828068905]","[-1,-1,-1]","[0.02,0.02]",211.6459,0,10,10,158,1,,,,,,,
,,,,,,,67cd50f22f22938860f85a66,682f0fe1c7a887b5c4e2f766,2025-05-22_13h59.55.130,cuing_paradigm_dot,2024.1.5,Win32,59.88023952,682d573fa47f1360d1451895,,,,,,,,,,,211.6464,212.1456,,,212.3961,212.5641,right,,,,,,,,0.6,0.1593,,,,,,,212.1456,212.396,212.5642,"[-0.023140751048205437,-0.025773306081906738]","[1,1,1]","[0.10734678916533487,-0.11064877885647045]","[-1,-1,-1]","[0.030197759473049937,0.08902906433767675]","[1,1,1]","[-0.08211086184700679,-0.009624380084727744]","[-1,-1,-1]","[-0.028346877808253047,-0.19750722367924345]","[1,1,1]","[0.09174444281113545,0.05645486418970387]","[1,1,1]","[0.015681892734512367,-0.14377964079074282]","[1,1,1]","[0.0020796954907908566,0.19463574962281177]","[1,1,1]","[-0.026639604521454318,0.06386452011183998]","[1,1,1]","[-0.1809955285767785,0.04996128821298287]","[-1,-1,-1]","[0.03833309940759437,0.007612801296802328]","[-1,-1,-1]","[0.12072510514664614,0.09992987305349296]","[-1,-1,-1]","[-0.1704223299043862,0.004832245876914499]","[-1,-1,-1]","[-0.09154040749901352,0.15956723352944552]","[1,1,1]","[-0.13123030931493707,0.08650480552101976]","[1,1,1]","[-0.10979440604925794,0.025969166320610228]","[1,1,1]","[-0.07545741732333475,0.09115567570903409]","[-1,-1,-1]","[0.1570087850099031,-0.05892113338523712]","[-1,-1,-1]","[0.07687545755116154,-0.07282330045119802]","[-1,-1,-1]","[-0.09082899742550929,-0.07169562855863232]","[-1,-1,-1]","[-0.08301225560935803,-0.15060218382324286]","[1,1,1]","[-0.01432814512718795,0.1289185275501726]","[1,1,1]","[0.12415928016965942,0.01744796367158725]","[1,1,1]","[-0.13185012106895178,-0.13852522042966933]","[1,1,1]","[-0.15182839089937725,-0.055576464177839555]","[-1,-1,-1]","[0.06983400747214147,0.10721390024666905]","[1,1,1]","[-0.013302496244183313,0.014702411226250486]","[1,1,1]","[0.07193209283177203,-0.14218325468140997]","[-1,-1,-1]","[0.18087821092744313,-0.025067426184117544]","[1,1,1]","[0.10905702470745342,-0.0447412101704232]","[-1,-1,-1]","[0.08197485562143121,0.0038665871911073998]","[1,1,1]","[-0.007076036453786227,-0.1099146733805999]","[1,1,1]","[0.02,0.02]",213.6624,0,11,11,172,1,,,,,,,
,,,,,,,67cd50f22f22938860f85a66,682f0fe1c7a887b5c4e2f766,2025-05-22_13h59.55.130,cuing_paradigm_dot,2024.1.5,Win32,59.88023952,682d573fa47f1360d1451895,,,,,,,,,,,213.6629,214.1623,,,214.4128,214.5458,left,,,,,,,,0.45,0.1176,,,,,,,214.1624,214.4127,214.5459,"[-0.11693739850505444,0.1068533099346633]","[-1,-1,-1]","[-0.0946893995871338,0.031170418154139765]","[1,1,1]","[-0.15304479985601813,0.04267206333692107]","[-1,-1,-1]","[-0.012419793044212321,0.0337260655974595]","[-1,-1,-1]","[0.05910540678073881,0.13266263471296236]","[1,1,1]","[0.02409627471024259,-0.1008874352828583]","[-1,-1,-1]","[0.003848188781343354,-0.03933740781644732]","[-1,-1,-1]","[0.08873345755662893,-0.011273444302294097]","[-1,-1,-1]","[-0.05779113802746648,0.1776898202522402]","[1,1,1]","[0.014924659557107115,0.1037472241139447]","[-1,-1,-1]","[-0.07555053925123674,-0.07946348406912553]","[-1,-1,-1]","[-0.09345150147439267,-0.1470379179893257]","[1,1,1]","[-0.16916990557442277,-0.06711039179252956]","[-1,-1,-1]","[0.1534431810618674,-0.08442466364780525]","[1,1,1]","[0.05983133119522503,0.09032904671242743]","[1,1,1]","[0.08035265674020568,-0.0730316178800508]","[-1,-1,-1]","[0.0015063144199931673,-0.18017634132164315]","[-1,-1,-1]","[-0.1201571773100234,-0.07962879531395739]","[1,1,1]","[-0.1749393926593306,-0.02028636767079362]","[-1,-1,-1]","[-0.00007751493844515254,0.1633732403136352]","[-1,-1,-1]","[-0.053379480944439575,0.009270655093003042]","[-1,-1,-1]","[0.13891058411195828,0.11693259145420264]","[1,1,1]","[0.03986204665264018,0.04285797426928897]","[-1,-1,-1]","[0.1153563207396898,-0.15086189639154807]","[-1,-1,-1]","[0.06747264804514878,0.17703882550655628]","[1,1,1]","[-0.03662051897174312,-0.14542237314048484]","[1,1,1]","[-0.061492437192849594,-0.18693614133199554]","[1,1,1]","[0.18440356317643208,0.0751206108562032]","[1,1,1]","[-0.04566191141098185,0.06809942432971479]","[1,1,1]","[0.11365909275077361,0.03540421422046241]","[-1,-1,-1]","[-0.04773901549406968,0.1307584499759678]","[-1,-1,-1]","[0.12053613815910863,0.07705859243558552]","[1,1,1]","[0.02,0.02]",215.6456,0,12,12,62,1,,,,,,,
,,,,,,,67cd50f22f22938860f85a66,682f0fe1c7a887b5c4e2f766,2025-05-22_13h59.55.130,cuing_paradigm_dot,2024.1.5,Win32,59.88023952,682d573fa47f1360d1451895,,,,,,,,,,,215.646,216.1454,,,216.3965,216.5957,right,,,,,,,,0.4,0.1842,,,,,,,216.1455,216.3964,216.5957,"[-0.10173310537387115,-0.03577149536947814]","[1,1,1]","[-0.016806988396459475,0.09210614580738687]","[1,1,1]","[-0.09624568298633271,-0.09802646097054249]","[-1,-1,-1]","[0.14696585293715417,-0.128620131708271]","[-1,-1,-1]","[0.14618331994975925,-0.05730355913265165]","[-1,-1,-1]","[0.12232335033616595,0.028531846881338748]","[1,1,1]","[-0.05412173060327404,0.025343137079217093]","[1,1,1]","[-0.1778869445891774,0.021458079582375125]","[1,1,1]","[-0.04394075128998507,-0.16796718196921342]","[-1,-1,-1]","[0.08427905084135978,-0.12590802476530388]","[-1,-1,-1]","[-0.1348081226860662,0.03588668950973386]","[-1,-1,-1]","[0.1882047975102266,0.011334617030760935]","[1,1,1]","[0.08682682562489862,0.13753545697883232]","[1,1,1]","[-0.10639286298662554,-0.16207567037901477]","[-1,-1,-1]","[0.05990933462242294,-0.07901943491704067]","[1,1,1]","[0.06160093732820801,-0.02136633778351982]","[1,1,1]","[0.009798645790368,0.14894401818448713]","[-1,-1,-1]","[0.006345675544961063,0.000029442304241953937]","[-1,-1,-1]","[0.03781459578104476,-0.1579198124239774]","[1,1,1]","[-0.07742229174675429,0.11513497703425492]","[-1,-1,-1]","[0.03744150574900714,0.08945552269380388]","[1,1,1]","[-0.06165779404874582,-0.1258938417108484]","[-1,-1,-1]","[-0.004172033844107788,-0.07111206561119518]","[-1,-1,-1]","[-0.15644460861499546,-0.10565511925699228]","[-1,-1,-1]","[0.03672070266616977,0.03988880435815972]","[-1,-1,-1]","[-0.08993612449398915,0.17303992576372357]","[-1,-1,-1]","[-0.032170553227215265,0.17337343828671303]","[1,1,1]","[-0.1729808159328155,0.06920986288249349]","[1,1,1]","[0.08117304014301664,0.06301721942500861]","[-1,-1,-1]","[0.02966029109688538,-0.11090194808083177]","[-1,-1,-1]","[-0.16514698118745008,0.10885312898458545]","[-1,-1,-1]","[0.13833301625167427,0.12623621833273943]","[-1,-1,-1]","[0.02,0.02]",217.6955,0,13,13,31,1,,,,,,,
,,,,,,,67cd50f22f22938860f85a66,682f0fe1c7a887b5c4e2f766,2025-05-22_13h59.55.130,cuing_paradigm_dot,2024.1.5,Win32,59.88023952,682d573fa47f1360d1451895,,,,,,,,,,,217.6959,218.1954,,,218.4459,218.8455,right,,,,,,,,0.5,0.3899,,,,,,,218.1955,218.4458,218.8455,"[-0.15881502390947116,-0.07868950176015183]","[1,1,1]","[-0.07905437280739565,0.015321861391519273]","[1,1,1]","[0.15108279152277734,-0.01163412118685186]","[1,1,1]","[-0.0597217818509375,-0.1478791255080112]","[-1,-1,-1]","[-0.016451764488767336,0.06672610873132592]","[-1,-1,-1]","[-0.0024843995497371464,0.179573436683805]","[1,1,1]","[0.043919259041222,-0.02414951353375534]","[-1,-1,-1]","[0.07951253323810852,0.1364410737312289]","[1,1,1]","[-0.10966863215974088,-0.13740178718980578]","[-1,-1,-1]","[0.17532277302455032,-0.08364369555995188]","[-1,-1,-1]","[0.003832688900304326,-0.1462461555099184]","[1,1,1]","[0.08894043400645227,0.0020754522691235574]","[-1,-1,-1]","[0.11889543968243663,0.14965877401077313]","[-1,-1,-1]","[0.1494115223357356,0.037942910604000644]","[1,1,1]","[-0.1076660073713094,0.07691707658057872]","[-1,-1,-1]","[0.033245486364484815,0.07158157783545638]","[-1,-1,-1]","[-0.044056262814623805,0.114937274719177]","[1,1,1]","[0.12704121303769103,-0.059835276838081534]","[-1,-1,-1]","[-0.061895151406444374,0.07533098290715086]","[-1,-1,-1]","[-0.13919699443788722,0.019138316213638307]","[-1,-1,-1]","[-0.09553865809583544,-0.06792044798472814]","[1,1,1]","[0.06931104848918024,-0.17362948776293569]","[1,1,1]","[-0.16671948616088278,0.09013242833596564]","[-1,-1,-1]","[0.05422954168146152,0.1707727141442853]","[1,1,1]","[-0.09845690377031684,0.16947450636539602]","[-1,-1,-1]","[0.1234574565181043,-0.1503528422101144]","[1,1,1]","[0.1721393514910492,0.08000413810033036]","[1,1,1]","[-0.015658459559145937,-0.19290178588982781]","[-1,-1,-1]","[0.023085643401531575,-0.09134452492950715]","[-1,-1,-1]","[-0.0385184283042574,-0.06464300978709879]","[1,1,1]","[-0.06809644360682734,-0.030876749668933015]","[1,1,1]","[-0.17886731457658656,-0.028707260517126756]","[1,1,1]","[0.02,0.02]",219.9453,0,14,14,111,1,,,,,,,
,,,,,,,67cd50f22f22938860f85a66,682f0fe1c7a887b5c4e2f766,2025-05-22_13h59.55.130,cuing_paradigm_dot,2024.1.5,Win32,59.88023952,682d573fa47f1360d1451895,,,,,,,,,,,219.9458,220.4455,,,220.6958,220.8627,right,,,,,,,,0.6,0.1509,,,,,,,220.4455,220.6957,220.8628,"[0.1760357016355556,-0.01767588180571355]","[1,1,1]","[0.020888193403456642,0.16869909177290915]","[-1,-1,-1]","[0.14121718632238398,0.12871570364539237]","[1,1,1]","[-0.18156387484667488,-0.07184782876584747]","[-1,-1,-1]","[-0.11975107143285604,0.015298206225690546]","[1,1,1]","[0.12545021812413482,-0.10350002308677957]","[-1,-1,-1]","[-0.055508616619779794,-0.098067597226979]","[-1,-1,-1]","[-0.048175240269644606,-0.04055507650309371]","[-1,-1,-1]","[0.03642867196012445,0.10046131621217724]","[1,1,1]","[0.05417402695456018,-0.028631017602741875]","[-1,-1,-1]","[-0.09468458839072433,0.04728040297336041]","[1,1,1]","[-0.14429215342557467,0.051554868852280826]","[1,1,1]","[-0.10681883935458673,0.11560329729084012]","[1,1,1]","[-0.008962008999420968,-0.052524266793130214]","[-1,-1,-1]","[-0.03801101296202239,0.1705350783544469]","[-1,-1,-1]","[0.009899612651033281,-0.09230665469421957]","[1,1,1]","[-0.07769224432339256,0.0036589143750702423]","[1,1,1]","[-0.17224897063702316,-0.010867867432803414]","[1,1,1]","[-0.015269781969884981,-0.12395472086880183]","[1,1,1]","[-0.10076559834921531,-0.06034164821495141]","[1,1,1]","[0.05700736493299397,0.05225317326416308]","[-1,-1,-1]","[-0.12696806920283743,-0.1113895937127338]","[-1,-1,-1]","[-0.08766746209355945,-0.14006946190632463]","[1,1,1]","[-0.06189804978569998,0.07033765636312088]","[1,1,1]","[0.0644367629054555,-0.14859856346845235]","[1,1,1]","[0.027905573919145686,-0.1823266971968994]","[-1,-1,-1]","[0.1510821254741212,0.08833481680556754]","[1,1,1]","[0.0936705105964604,0.07636287771327123]","[1,1,1]","[0.17815177224337755,-0.08099526156038278]","[-1,-1,-1]","[0.1278751232942488,0.020901515597998663]","[1,1,1]","[0.1051412486969431,-0.16202689450614874]","[1,1,1]","[-0.030836707415101555,-0.1951131824884476]","[-1,-1,-1]","[0.02,0.02]",221.962,0,15,15,177,1,,,,,,,
,,,,,,,67cd50f22f22938860f85a66,682f0fe1c7a887b5c4e2f766,2025-05-22_13h59.55.130,cuing_paradigm_dot,2024.1.5,Win32,59.88023952,682d573fa47f1360d1451895,,,,,,,,,,,221.9623,222.4619,,,222.7123,222.9954,right,,,,,,,,0.1,0.2718,,,,,,,222.462,222.7122,222.9954,"[-0.15507876542188131,-0.04151218801236237]","[-1,-1,-1]","[-0.14302449290486058,0.07618045779025528]","[-1,-1,-1]","[0.1551385120817312,0.09983548711778782]","[-1,-1,-1]","[0.008711349020037808,-0.06467612979670842]","[-1,-1,-1]","[-0.0483648213741999,-0.153535780652149]","[-1,-1,-1]","[-0.12482652718322951,0.013668056918445375]","[1,1,1]","[0.14137160749415803,-0.13683783639011243]","[-1,-1,-1]","[-0.16372472927812418,-0.09517494582861429]","[-1,-1,-1]","[0.16750030560512516,-0.032474554490930896]","[-1,-1,-1]","[0.18880650073617047,0.037000850714854164]","[-1,-1,-1]","[0.051166741305311854,0.17294437184375072]","[-1,-1,-1]","[-0.026647101871064262,0.19783102815400125]","[-1,-1,-1]","[-0.09733817397419917,0.09557084400208488]","[-1,-1,-1]","[0.06563299185642947,-0.09259553976108802]","[-1,-1,-1]","[-0.09762711453476501,0.15916538843260095]","[-1,-1,-1]","[0.12292425684271435,0.044740102769877735]","[-1,-1,-1]","[-0.03462770628283439,0.09389136440803802]","[-1,-1,-1]","[0.031975205278430494,-0.1320190923527703]","[1,1,1]","[0.07316708084220572,0.12795969463014012]","[-1,-1,-1]","[-0.19611499753663292,-0.022877719543843354]","[-1,-1,-1]","[0.01481396051533964,0.14779335874772045]","[-1,-1,-1]","[0.010434349437903105,0.08270004004542107]","[-1,-1,-1]","[-0.038570337175975675,-0.009117976990643848]","[-1,-1,-1]","[-0.08739153080868725,-0.06416339901088008]","[-1,-1,-1]","[0.017042017837274333,0.19586075781055043]","[-1,-1,-1]","[-0.017372652709071047,0.02915996285258191]","[-1,-1,-1]","[-0.12977578581641602,-0.14537603842865854]","[1,1,1]","[0.09674639551295867,-0.0375226726662332]","[-1,-1,-1]","[-0.04225138173296332,-0.09007806675001323]","[-1,-1,-1]","[-0.07852443000287189,0.0022910016871167246]","[-1,-1,-1]","[0.0323407414973422,0.01901084327281507]","[-1,-1,-1]","[0.13995514906407439,-0.07048416781198535]","[-1,-1,-1]","[0.02,0.02]",224.0952,0,16,16,9,1,,,,,,,
,,,,,,,67cd50f22f22938860f85a66,682f0fe1c7a887b5c4e2f766,2025-05-22_13h59.55.130,cuing_paradigm_dot,2024.1.5,Win32,59.88023952,682d573fa47f1360d1451895,,,,,,,,,,,224.0955,224.595,,,224.8455,224.9952,left,,,,,,,,0.9,0.1345,,,,,,,224.5951,224.8454,224.9953,"[0.09585073076068834,0.06568025993633574]","[1,1,1]","[-0.06728980495939933,-0.1309728615840427]","[1,1,1]","[-0.04543355131956552,0.1851100957666828]","[-1,-1,-1]","[0.09379121700068267,0.11247011596849558]","[1,1,1]","[-0.013877418702492811,-0.1325870049547952]","[1,1,1]","[0.13229788315877591,-0.12564867743162206]","[1,1,1]","[-0.08998315343411903,-0.027949468447838965]","[1,1,1]","[0.05815475720442343,-0.18339424646557492]","[1,1,1]","[0.11796783005366716,-0.03021320974771124]","[1,1,1]","[0.15637045137599964,-0.0434625210734573]","[1,1,1]","[0.05293979515300406,-0.060377000030528004]","[1,1,1]","[-0.0627481159204686,0.013516767574073258]","[1,1,1]","[0.008607747561929599,0.015238105960963092]","[1,1,1]","[0.1389864724530636,0.04557860284336249]","[-1,-1,-1]","[0.08110102706345645,0.012779885995998254]","[1,1,1]","[-0.024751236818011772,0.038419737316417124]","[1,1,1]","[-0.1781092315246338,0.04213375098487624]","[1,1,1]","[0.18902332716951964,0.0486929157447504]","[1,1,1]","[-0.03944757386454372,0.09251981615864271]","[-1,-1,-1]","[-0.14888576201847795,-0.0008789732733014059]","[1,1,1]","[0.13567101025256667,0.13301278237247083]","[1,1,1]","[0.0074747073531163015,0.07156124188309115]","[1,1,1]","[-0.07192688204240973,0.12591766214615033]","[1,1,1]","[0.07201380025554209,-0.1265622916080647]","[1,1,1]","[-0.13881299557234614,-0.08738691520699442]","[1,1,1]","[-0.08048188321431407,0.05653758557805992]","[1,1,1]","[-0.11915263096310995,-0.15198478249021208]","[1,1,1]","[-0.13800207750458626,0.08886024882298793]","[1,1,1]","[-0.11705162597335847,0.03514460004310443]","[1,1,1]","[-0.01779505157637559,-0.03838654795253679]","[1,1,1]","[-0.10146891825669849,0.15723879215729822]","[1,1,1]","[-0.005772060391475068,0.17359735056270592]","[1,1,1]","[0.02,0.02]",226.0951,0,17,17,204,1,,,,,,,
,,,,,,,67cd50f22f22938860f85a66,682f0fe1c7a887b5c4e2f766,2025-05-22_13h59.55.130,cuing_paradigm_dot,2024.1.5,Win32,59.88023952,682d573fa47f1360d1451895,,,,,,,,,,,226.0955,226.5951,,,226.8455,227.0952,right,,,,,,,,0.1,0.2358,,,,,,,226.5952,226.8454,227.0952,"[-0.09817673769820108,-0.1325413966871572]","[-1,-1,-1]","[-0.16245766555100216,-0.0011630128225818862]","[-1,-1,-1]","[0.08320647798602299,0.07975779335056403]","[-1,-1,-1]","[-0.14169905433755856,-0.1000136202375345]","[-1,-1,-1]","[-0.14099264680589657,0.13907193952152871]","[-1,-1,-1]","[-0.006913946838814856,0.11430009816363379]","[-1,-1,-1]","[-0.09329837253217813,0.01657412418520748]","[-1,-1,-1]","[0.10403659232207639,-0.03354439302923043]","[-1,-1,-1]","[0.057853824129048624,-0.02591225847296593]","[-1,-1,-1]","[0.11935107429829347,0.03412166488899115]","[-1,-1,-1]","[0.028130421860945155,0.18617672184935247]","[-1,-1,-1]","[-0.16603250885864393,0.10495304757058828]","[-1,-1,-1]","[-0.1696508383680044,0.03991846886554141]","[-1,-1,-1]","[-0.01475164347395676,-0.06114886309568002]","[1,1,1]","[-0.15847600704082535,-0.04885545393855994]","[-1,-1,-1]","[0.03863872147730944,0.10643518701770537]","[-1,-1,-1]","[0.14463843132419796,0.07653724729887477]","[-1,-1,-1]","[0.050600137691898986,-0.11787933574974911]","[-1,-1,-1]","[0.16772099337050406,0.027364847558007176]","[-1,-1,-1]","[0.07117308195026417,-0.16129935701825898]","[-1,-1,-1]","[-0.08876940495217255,0.06906444183397271]","[-1,-1,-1]","[-0.05102936265690873,0.08710967456200443]","[-1,-1,-1]","[-0.03600162164237308,0.18945035125879228]","[-1,-1,-1]","[-0.040244343527721674,0.14719354689044312]","[-1,-1,-1]","[0.05565576254468446,0.04805033629036175]","[-1,-1,-1]","[0.12901826392438512,-0.14448723816347894]","[-1,-1,-1]","[0.09774822780503421,-0.10972987711661483]","[1,1,1]","[-0.051625847243968584,-0.1383484012739359]","[-1,-1,-1]","[-0.10495576806412811,-0.023078012689735777]","[-1,-1,-1]","[-0.0328505899771101,-0.19347176760142668]","[1,1,1]","[0.03474657857538602,-0.07436249464267328]","[-1,-1,-1]","[0.147651306060208,-0.04808450147119926]","[-1,-1,-1]","[0.02,0.02]",228.1953,0,18,18,5,1,,,,,,,
,,,,,,,67cd50f22f22938860f85a66,682f0fe1c7a887b5c4e2f766,2025-05-22_13h59.55.130,cuing_paradigm_dot,2024.1.5,Win32,59.88023952,682d573fa47f1360d1451895,,,,,,,,,,,228.1958,228.695,,,228.9455,229.1282,right,,,,,,,,0.55,0.1729,,,,,,,228.695,228.9454,229.1282,"[0.16839810977499647,-0.05065577420185715]","[-1,-1,-1]","[-0.007868772370208974,-0.1388208966421712]","[-1,-1,-1]","[-0.05195049746244508,0.00009996171503943124]","[1,1,1]","[0.02117484739546228,0.13795246725466961]","[1,1,1]","[0.1909271905410764,-0.016586734070819877]","[1,1,1]","[-0.06580307866659194,-0.06374046885001872]","[-1,-1,-1]","[0.16359539865319406,0.06347950085473272]","[1,1,1]","[0.020167275322252542,0.07311567125752591]","[1,1,1]","[0.0436093135640821,-0.13706431358972848]","[-1,-1,-1]","[-0.13802964939007703,-0.00914004854750732]","[1,1,1]","[-0.12597648196835587,-0.06412065808889413]","[-1,-1,-1]","[-0.15278024685747335,-0.09502731135504291]","[1,1,1]","[-0.05735644518486875,0.18502274357813475]","[1,1,1]","[0.1416319120012902,-0.08043043988426991]","[-1,-1,-1]","[0.03406568142096221,-0.040918492115986374]","[-1,-1,-1]","[0.10824911725959702,-0.1282306273668383]","[-1,-1,-1]","[-0.05039338010198356,-0.16565818611469363]","[-1,-1,-1]","[0.0053484498550519,-0.007330385998022114]","[1,1,1]","[-0.09088663926015801,-0.15162609493635174]","[1,1,1]","[0.1124498977308611,0.04371144546243816]","[1,1,1]","[0.10589943079757247,-0.047542296188638165]","[1,1,1]","[0.0870808215810236,0.0018151134635880958]","[1,1,1]","[0.033032278785028256,-0.09739444159148417]","[-1,-1,-1]","[-0.151174886533752,0.062370204019520814]","[1,1,1]","[-0.1827136892921029,0.02370914141072372]","[-1,-1,-1]","[0.12409127832743105,0.14435664057673483]","[-1,-1,-1]","[-0.023810687148791705,-0.0759432994680733]","[1,1,1]","[0.040101498040565724,0.188769725295221]","[-1,-1,-1]","[0.0562500523330915,0.05486712158264558]","[1,1,1]","[-0.13147192205757868,0.14375600750310838]","[1,1,1]","[-0.09226021173075993,-0.10410511270227357]","[1,1,1]","[-0.09545684432747979,0.12261642383790454]","[-1,-1,-1]","[0.02,0.02]",230.2282,0,19,19,129,1,,,,,,,
,,,,,,,67cd50f22f22938860f85a66,682f0fe1c7a887b5c4e2f766,2025-05-22_13h59.55.130,cuing_paradigm_dot,2024.1.5,Win32,59.88023952,682d573fa47f1360d1451895,,,,,,,,,,,230.2286,230.7283,,,230.9784,231.445,right,,,,,,,,0.5,0.4558,,,,,,,230.7283,230.9784,231.445,"[-0.13896486996991264,-0.04518601925351468]","[1,1,1]","[0.03987625679366802,-0.07666465657426946]","[1,1,1]","[0.001916330934407688,-0.03267202455995033]","[1,1,1]","[0.07184641413798648,0.17226501183457557]","[1,1,1]","[0.00009672986461937775,-0.19445815401792046]","[-1,-1,-1]","[0.026319572211126487,-0.11897197931530092]","[-1,-1,-1]","[0.18346678343385034,0.05056504489965429]","[1,1,1]","[-0.14053104821198636,-0.12647956089290457]","[-1,-1,-1]","[-0.010121814842662344,0.1756528826225933]","[1,1,1]","[-0.06906884370313443,0.08553584726216218]","[-1,-1,-1]","[0.12752847525250793,-0.13623616601870672]","[-1,-1,-1]","[0.1365263369612423,-0.08138192840345063]","[1,1,1]","[-0.009863109825283666,-0.07133483574856776]","[1,1,1]","[-0.11132827184916735,0.13257222215331554]","[-1,-1,-1]","[-0.0298844083342852,-0.11972006070651087]","[1,1,1]","[0.04402440601088974,0.11234369047196838]","[-1,-1,-1]","[-0.05529048008877159,0.01511445467707179]","[-1,-1,-1]","[0.07040876978875088,-0.14438259912459794]","[1,1,1]","[-0.1821461386273651,0.007842407872527504]","[1,1,1]","[0.05200902456976972,-0.0054520500834112015]","[-1,-1,-1]","[-0.10282989544536614,0.06075312697867883]","[-1,-1,-1]","[0.10974008833990782,-0.012384846076770348]","[1,1,1]","[-0.17521648236633075,0.09131371645364118]","[-1,-1,-1]","[-0.06629821089826342,0.14084223681507949]","[1,1,1]","[0.09687174680111682,0.11899059324321624]","[1,1,1]","[0.1882757845146663,-0.012671923121532081]","[1,1,1]","[-0.04612002250547558,-0.04046344440575479]","[1,1,1]","[-0.00929507773313058,0.10411297531493975]","[-1,-1,-1]","[0.026402425527718865,0.07573910791512901]","[-1,-1,-1]","[-0.1000023885102049,-0.16413597942831634]","[-1,-1,-1]","[0.12860459958146417,0.027968745073089236]","[-1,-1,-1]","[0.13719388357183934,0.07343527319893797]","[-1,-1,-1]","[0.02,0.02]",232.5449,0,20,20,117,1,,,,,,,
,,,,,,,67cd50f22f22938860f85a66,682f0fe1c7a887b5c4e2f766,2025-05-22_13h59.55.130,cuing_paradigm_dot,2024.1.5,Win32,59.88023952,682d573fa47f1360d1451895,,,,,,,,,,,232.5453,233.0448,,,233.2951,233.9449,right,,,,,,,,0.4,0.6355,,,,,,,233.0449,233.295,233.9449,"[0.014833596461813032,-0.0680638118326351]","[-1,-1,-1]","[-0.08708859266623294,-0.06731997260512303]","[1,1,1]","[-0.07290632238555514,0.174668820423743]","[1,1,1]","[0.06834289376040069,0.05843598634437133]","[-1,-1,-1]","[0.06744077793779157,-0.16051215077818534]","[-1,-1,-1]","[-0.010220416271225378,-0.03450196128853971]","[1,1,1]","[0.1197719586983967,-0.08107845587092406]","[-1,-1,-1]","[-0.08324158682532926,-0.1281727291305595]","[1,1,1]","[-0.05926761528282244,-0.03672675357128695]","[1,1,1]","[0.11454597038842565,0.056210184301399777]","[-1,-1,-1]","[0.024644459153832284,0.1537848326921585]","[-1,-1,-1]","[0.0009657923853741892,0.07831884857030688]","[-1,-1,-1]","[0.17184157706962302,-0.009126447460900067]","[1,1,1]","[-0.09839467194948581,0.08959301631123025]","[-1,-1,-1]","[-0.0611227132824149,0.04723600504164575]","[-1,-1,-1]","[-0.18068606840815832,-0.05993254139750162]","[-1,-1,-1]","[-0.13047700976718155,-0.024650299601528765]","[-1,-1,-1]","[0.09322762703263437,0.01218926968086309]","[1,1,1]","[-0.11302793480982067,-0.1595797068601564]","[-1,-1,-1]","[0.007165927214910868,-0.17067850853019856]","[1,1,1]","[-0.028119555490960214,0.1594086325606249]","[1,1,1]","[0.15665268895124865,0.08209306196476586]","[-1,-1,-1]","[-0.04346838389444631,-0.1855715131735957]","[-1,-1,-1]","[-0.18486209062554532,0.06513916231747621]","[1,1,1]","[0.17375737880707876,-0.05794634561222728]","[1,1,1]","[0.08991669445080866,0.17380540763105504]","[-1,-1,-1]","[-0.1295196093736939,-0.09717605977891362]","[1,1,1]","[0.06706956745640487,-0.11308513137714518]","[-1,-1,-1]","[0.07809283877495776,0.1063225383866924]","[-1,-1,-1]","[0.12070516466202684,-0.15520743770650244]","[-1,-1,-1]","[0.19029935198069473,0.030801428129147643]","[-1,-1,-1]","[-0.021203618274119745,0.00586938767482553]","[1,1,1]","[0.02,0.02]",235.0444,0,21,21,49,1,,,,,,,
,,,,,,,67cd50f22f22938860f85a66,682f0fe1c7a887b5c4e2f766,2025-05-22_13h59.55.130,cuing_paradigm_dot,2024.1.5,Win32,59.88023952,682d573fa47f1360d1451895,,,,,,,,,,,235.0448,235.5445,,,235.7952,236.2276,left,,,,,,,,0.45,0.4232,,,,,,,235.5445,235.7951,236.2278,"[-0.017779991209910397,0.09583126410989222]","[-1,-1,-1]","[0.012218326213378181,-0.18937111575843588]","[-1,-1,-1]","[0.11458380549821494,-0.1036135072494841]","[-1,-1,-1]","[0.10870210554319897,-0.0505403570061536]","[-1,-1,-1]","[0.18261069064363958,0.03902586389363248]","[-1,-1,-1]","[-0.19559450080196988,0.026722861503154966]","[1,1,1]","[0.09938951693705164,0.07437641423778886]","[1,1,1]","[-0.044948174172796077,0.1713654292203919]","[1,1,1]","[-0.012462840782975727,-0.03699546218450609]","[-1,-1,-1]","[-0.14042409096415387,0.07478779135354272]","[-1,-1,-1]","[-0.06445762512209943,-0.023829842026511634]","[-1,-1,-1]","[-0.1177849440438046,0.013287013931356256]","[1,1,1]","[-0.03796122243234065,0.011615993366586348]","[-1,-1,-1]","[0.08374581033143746,0.005343046272904717]","[1,1,1]","[-0.11125730144735359,0.14626834622027607]","[1,1,1]","[0.17414530729420624,-0.07678538704684282]","[1,1,1]","[-0.07543593739775317,-0.10324986423064453]","[1,1,1]","[0.05733935446931347,-0.11454043013507847]","[-1,-1,-1]","[-0.0006433440087908543,-0.14459636881099977]","[-1,-1,-1]","[-0.079765529235693,0.027553587289751106]","[-1,-1,-1]","[0.05307026422663673,0.06695165536694996]","[1,1,1]","[-0.10516575932081904,-0.15982935332708384]","[-1,-1,-1]","[-0.18788891539248073,-0.0558111036682065]","[-1,-1,-1]","[0.025657295920354838,-0.020316915133094277]","[-1,-1,-1]","[0.11230724938283926,-0.16158927465886241]","[1,1,1]","[-0.1742214349728617,-0.09377377662588812]","[-1,-1,-1]","[0.12094559348366507,0.14679365766502672]","[1,1,1]","[0.002013084752245866,0.17695294657846777]","[1,1,1]","[0.138530729560022,0.0023891587532828286]","[-1,-1,-1]","[0.14283729267527462,0.08540524343944976]","[1,1,1]","[-0.10533399202466603,-0.030203288051692655]","[1,1,1]","[0.02047118363118034,0.13528283822327858]","[-1,-1,-1]","[0.02,0.02]",237.3277,0,22,22,75,1,,,,,,,
,,,,,,,67cd50f22f22938860f85a66,682f0fe1c7a887b5c4e2f766,2025-05-22_13h59.55.130,cuing_paradigm_dot,2024.1.5,Win32,59.88023952,682d573fa47f1360d1451895,,,,,,,,,,,237.3282,237.8277,,,238.0782,238.6281,right,,,,,,,,0.45,0.5343,,,,,,,237.8277,238.0781,238.6281,"[-0.14041105462599035,0.018259022584398533]","[1,1,1]","[0.15714742550602048,-0.049831333017961235]","[1,1,1]","[-0.0693708675912448,0.15944483917211158]","[1,1,1]","[-0.14326742571385753,-0.08555694125779284]","[1,1,1]","[0.1539362693558761,0.0848102464695908]","[-1,-1,-1]","[0.10385785300969111,0.11392127933454496]","[-1,-1,-1]","[-0.030722969081082466,0.11737171300443397]","[-1,-1,-1]","[0.10590412152978912,-0.08697875568725118]","[1,1,1]","[-0.15468049925783714,-0.0437202596003464]","[-1,-1,-1]","[-0.08683765030144404,-0.12599887515971184]","[-1,-1,-1]","[-0.01961444327938574,0.035985715264991315]","[-1,-1,-1]","[0.08181131411627406,0.07434781139144471]","[1,1,1]","[-0.1520072313451052,0.05726517658239173]","[1,1,1]","[-0.042928200670931456,-0.04441200291716769]","[1,1,1]","[0.12274016981448978,0.026086108912832088]","[-1,-1,-1]","[0.03579287661265727,0.01888871843756975]","[-1,-1,-1]","[0.028607834154188848,0.19169712955826526]","[-1,-1,-1]","[-0.08761101236531037,0.0024755574668505346]","[-1,-1,-1]","[-0.10461078076209314,0.1302516989887495]","[1,1,1]","[-0.0424209527283276,-0.14832853385379177]","[1,1,1]","[-0.06064836038521911,-0.09487616160096544]","[-1,-1,-1]","[0.05241079157197516,-0.12247513509835457]","[-1,-1,-1]","[0.04667181750047647,0.09954147112641354]","[-1,-1,-1]","[-0.18920049737407268,-0.010312689497402803]","[1,1,1]","[0.05373892541121367,-0.17730319573347936]","[1,1,1]","[0.03206460042753993,-0.07759092913739782]","[-1,-1,-1]","[-0.04836463366397337,0.08047980384198587]","[-1,-1,-1]","[-0.009255190814469709,-0.17993417450143065]","[-1,-1,-1]","[0.05610551110751335,0.15156377417155337]","[1,1,1]","[0.19991316844541407,-0.004965813760412094]","[-1,-1,-1]","[0.005856267744794519,-0.1306385704501411]","[1,1,1]","[-0.09683972731449605,-0.16784462119367655]","[-1,-1,-1]","[0.02,0.02]",239.7275,0,23,23,79,1,,,,,,,
,,,,,,,67cd50f22f22938860f85a66,682f0fe1c7a887b5c4e2f766,2025-05-22_13h59.55.130,cuing_paradigm_dot,2024.1.5,Win32,59.88023952,682d573fa47f1360d1451895,,,,,,,,,,,239.7279,240.2279,,,240.4779,241.2948,right,,,,,,,,0.45,0.8019,,,,,,,240.2279,240.4779,241.2949,"[0.018787785958481358,-0.09650245259545781]","[1,1,1]","[-0.1306504839153156,0.12159792040488256]","[1,1,1]","[0.11288902361548525,0.06724530206450142]","[-1,-1,-1]","[0.11640848669251551,-0.16097148536287822]","[-1,-1,-1]","[-0.07862308233783344,0.14626934729349683]","[1,1,1]","[0.06291059428352819,-0.11021137725579616]","[-1,-1,-1]","[0.12749030021220387,-0.0581761563875873]","[1,1,1]","[0.1572226235381639,-0.020546589810481426]","[-1,-1,-1]","[0.06839687679761917,-0.041106432045935205]","[1,1,1]","[0.12023611566317263,0.13048522059950965]","[-1,-1,-1]","[-0.0940474883575099,-0.029917739025829133]","[-1,-1,-1]","[-0.0012934475648182083,-0.004552629913804027]","[-1,-1,-1]","[0.18697447502034512,-0.0700130049547528]","[1,1,1]","[-0.15292895140476306,0.05714700984214254]","[-1,-1,-1]","[-0.17302214374826816,-0.020561684508409665]","[1,1,1]","[0.054563506193849295,0.05640575556380489]","[-1,-1,-1]","[-0.13596955989707962,0.014957081224145458]","[-1,-1,-1]","[-0.09631977779205407,-0.12208778451147081]","[-1,-1,-1]","[0.03999234274251153,0.01815439035322733]","[1,1,1]","[-0.04880120376027452,-0.06845577272923463]","[1,1,1]","[-0.041980952641686345,0.1852306324730647]","[-1,-1,-1]","[0.061691748262390635,-0.18674729965242343]","[-1,-1,-1]","[0.14053390524085568,-0.12242486555066479]","[1,1,1]","[-0.07154719194852723,-0.16215130393121446]","[1,1,1]","[-0.02908645066433751,-0.1758480109399208]","[1,1,1]","[0.006625310912399828,0.08628651290276589]","[-1,-1,-1]","[-0.06073553730342942,0.11037463603116235]","[1,1,1]","[0.006842167324931508,0.1629747528842227]","[1,1,1]","[0.0756775527123434,0.15817553352675434]","[-1,-1,-1]","[0.17390160277170624,0.040737408136844504]","[-1,-1,-1]","[-0.0776678119917024,0.07280939720938483]","[-1,-1,-1]","[0.10676494755261347,0.013616935531498228]","[-1,-1,-1]","[0.02,0.02]",242.3941,0,24,24,76,1,,,,,,,
,,,,,,,67cd50f22f22938860f85a66,682f0fe1c7a887b5c4e2f766,2025-05-22_13h59.55.130,cuing_paradigm_dot,2024.1.5,Win32,59.88023952,682d573fa47f1360d1451895,,,,,,,,,,,242.3945,242.8942,,,243.1443,243.7611,left,,,,,,,,0.9,0.604,,,,,,,242.8944,243.1443,243.7611,"[0.06977391049874819,0.03091527092092717]","[1,1,1]","[0.05661556107969361,-0.18996088773082054]","[1,1,1]","[-0.010700994697757739,-0.19497225014946304]","[1,1,1]","[-0.03490626453528157,-0.0781268457670332]","[1,1,1]","[0.013534197413761703,0.07919407642990886]","[1,1,1]","[0.08958881184677495,-0.08800480081898587]","[1,1,1]","[-0.06516885926331442,0.014974765012296144]","[1,1,1]","[-0.013613797055740224,0.1629383057961401]","[1,1,1]","[-0.10558379672997432,0.1489742130922451]","[1,1,1]","[0.03385277492082354,-0.021826633934886725]","[1,1,1]","[-0.11247406115741516,-0.033331305382354744]","[1,1,1]","[-0.13039070014307957,0.01726232009793456]","[1,1,1]","[-0.037142117564797336,0.10122944170545159]","[1,1,1]","[-0.0036470718494140803,-0.10396746688024523]","[1,1,1]","[0.026399943061643102,-0.0732066772077655]","[1,1,1]","[0.1427823679721658,0.07155956184543573]","[1,1,1]","[-0.04067160821348919,-0.028636800824665014]","[-1,-1,-1]","[-0.17090165158559337,0.03703036310901481]","[1,1,1]","[0.19094143370800884,0.008013839349497552]","[1,1,1]","[0.13539178696905996,-0.028079728033949668]","[1,1,1]","[0.12348229443339662,-0.14001791126580074]","[1,1,1]","[-0.15525990862883285,-0.09871109747302038]","[1,1,1]","[-0.06481365541971196,-0.14448789603870618]","[1,1,1]","[-0.055780850458465425,0.16447139508280098]","[-1,-1,-1]","[-0.09058847251835805,0.10130902815608843]","[1,1,1]","[-0.00790998753545528,-0.1542545488526096]","[1,1,1]","[0.036233720477255156,0.12744587547163141]","[-1,-1,-1]","[0.11374923199768544,0.11173356948891996]","[1,1,1]","[-0.00561132063776828,-0.0015088310520206302]","[1,1,1]","[-0.1604047129308453,-0.02240022025854895]","[1,1,1]","[0.08007423332963157,-0.016591419342403203]","[1,1,1]","[-0.1425605560158695,0.10465226941051325]","[1,1,1]","[0.02,0.02]",244.8614,0,25,25,203,1,,,,,,,
,,,,,,,67cd50f22f22938860f85a66,682f0fe1c7a887b5c4e2f766,2025-05-22_13h59.55.130,cuing_paradigm_dot,2024.1.5,Win32,59.88023952,682d573fa47f1360d1451895,,,,,,,,,,,244.8618,245.3607,,,245.6113,246.1277,left,,,,,,,,0.6,0.5011,,,,,,,245.3608,245.6112,246.1278,"[0.05369279227837985,-0.17313103388893836]","[1,1,1]","[0.09615200353022604,-0.15891243863987897]","[1,1,1]","[-0.01702628307150396,-0.015927520803266995]","[-1,-1,-1]","[0.18815788256619723,-0.03696599989366255]","[-1,-1,-1]","[0.12438621399501577,0.05908628727132935]","[1,1,1]","[-0.10486156365098445,0.03607481969219814]","[1,1,1]","[0.12964266725115756,-0.11603280893760273]","[1,1,1]","[-0.0847250122448508,-0.16701424913970475]","[-1,-1,-1]","[0.12423347172698063,0.010961042996549954]","[-1,-1,-1]","[0.03246760124368498,0.10721239633552065]","[-1,-1,-1]","[0.0798095060800627,0.026789185830679782]","[1,1,1]","[0.000046817638644168164,0.059994756019870664]","[-1,-1,-1]","[0.0812797167994043,-0.12025154421864986]","[1,1,1]","[-0.0570456279029537,0.12979142276988642]","[-1,-1,-1]","[0.05681501539431563,0.1655055425566148]","[-1,-1,-1]","[-0.05271600864076251,0.050552360918491406]","[1,1,1]","[-0.10442945676250498,0.08074513348845616]","[1,1,1]","[0.02732066402615118,-0.0644494902520732]","[-1,-1,-1]","[-0.14475212334835444,-0.05958236426471888]","[1,1,1]","[-0.017541062377840068,-0.09138913504656629]","[1,1,1]","[0.12685736401057254,-0.03027699568364077]","[1,1,1]","[-0.10665902333127078,-0.09957776363831802]","[-1,-1,-1]","[-0.14837163485337607,-0.12944076661774806]","[1,1,1]","[-0.1758243067149312,0.0244464157459007]","[-1,-1,-1]","[-0.17494223932115258,-0.028677155834567692]","[-1,-1,-1]","[-0.087059575456948,-0.058037991153084695]","[1,1,1]","[-0.004142484867551041,0.1993277679175359]","[-1,-1,-1]","[0.04443995640254583,-0.0005441990964064237]","[1,1,1]","[0.11285969648801963,0.14665289809680498]","[1,1,1]","[-0.07283335683426283,0.17954718786995694]","[1,1,1]","[0.16561985067731277,0.04189819952539209]","[1,1,1]","[-0.1510781142440926,0.06480772775320263]","[1,1,1]","[0.02,0.02]",247.2273,0,26,26,161,1,,,,,,,
,,,,,,,67cd50f22f22938860f85a66,682f0fe1c7a887b5c4e2f766,2025-05-22_13h59.55.130,cuing_paradigm_dot,2024.1.5,Win32,59.88023952,682d573fa47f1360d1451895,,,,,,,,,,,247.2277,247.7275,,,247.9781,248.6775,right,,,,,,,,0.45,0.6837,,,,,,,247.7276,247.978,248.6776,"[-0.0905955714950913,-0.017885134762577134]","[-1,-1,-1]","[0.056432747648442146,0.14908889817308776]","[1,1,1]","[-0.15184674821080751,-0.1057975043006607]","[-1,-1,-1]","[0.16304089123139215,0.10364913816664705]","[1,1,1]","[-0.11673489639359647,0.1326877525210616]","[-1,-1,-1]","[-0.027962836267738142,0.12404103433839812]","[-1,-1,-1]","[0.07733647425737003,-0.0628283019152253]","[-1,-1,-1]","[0.04649338797632845,-0.18776534649685775]","[1,1,1]","[0.12097651003238374,0.12370224349040644]","[-1,-1,-1]","[0.02457122774496234,0.19100505146915445]","[-1,-1,-1]","[-0.04570367039156377,-0.12944880622118218]","[1,1,1]","[-0.13058273379844215,-0.025618858903161457]","[-1,-1,-1]","[-0.15868909006467288,0.04278699656094073]","[-1,-1,-1]","[-0.07611472005202614,-0.09722658636278488]","[-1,-1,-1]","[0.12355067921754675,0.03010997817613711]","[-1,-1,-1]","[-0.12972633774471812,0.08436122686141666]","[-1,-1,-1]","[-0.031016757219794917,0.07916484287551932]","[1,1,1]","[0.06666647350317266,-0.01471377560340679]","[-1,-1,-1]","[0.17237508055997158,0.014018227498500782]","[1,1,1]","[0.05142255546459991,0.06330901115010536]","[-1,-1,-1]","[-0.0005801792652400984,-0.1868849422539587]","[1,1,1]","[-0.00031484200444898466,-0.011747472911752422]","[1,1,1]","[-0.11852067227749978,-0.138409288609415]","[-1,-1,-1]","[0.11336372577330622,-0.08236511879693964]","[1,1,1]","[-0.06930065772185777,0.045597340830793615]","[1,1,1]","[0.06002097405931166,-0.10283737483045581]","[-1,-1,-1]","[0.1695753438163409,-0.07536434463741737]","[1,1,1]","[-0.1059179956198078,0.02098690262906875]","[1,1,1]","[0.019392214268578626,0.09908159984507732]","[1,1,1]","[-0.018849288323381206,0.1792614997444699]","[-1,-1,-1]","[0.0013257840744020203,-0.13852087358692403]","[-1,-1,-1]","[-0.1618278807536272,-0.051852858322587056]","[1,1,1]","[0.02,0.02]",249.777,0,27,27,65,1,,,,,,,
,,,,,,,67cd50f22f22938860f85a66,682f0fe1c7a887b5c4e2f766,2025-05-22_13h59.55.130,cuing_paradigm_dot,2024.1.5,Win32,59.88023952,682d573fa47f1360d1451895,,,,,,,,,,,249.7777,250.2774,,,250.5273,251.2939,left,,,,,,,,0.45,0.7553,,,,,,,250.2775,250.5272,251.2939,"[-0.030210518420722882,0.08889896402274855]","[-1,-1,-1]","[-0.05450088970657232,0.16551757503881476]","[-1,-1,-1]","[0.10885457012775539,-0.06854856378634736]","[-1,-1,-1]","[-0.0911081431380773,-0.013171483333881455]","[-1,-1,-1]","[0.077478439561003,0.03885579700421209]","[1,1,1]","[-0.16626815519771557,-0.05481479956535616]","[1,1,1]","[-0.08948608294173946,0.14434808042442185]","[-1,-1,-1]","[-0.16640310442628298,0.0654300038278124]","[-1,-1,-1]","[0.1900298324489124,-0.061555359563098856]","[-1,-1,-1]","[0.012959016262776714,-0.16483412661566288]","[1,1,1]","[-0.0845943943374086,-0.16352430669657808]","[1,1,1]","[0.019463252862551784,0.044623165343320295]","[1,1,1]","[0.1872429076335922,0.04310566693273529]","[1,1,1]","[0.03194367214085554,-0.08021790309562446]","[-1,-1,-1]","[0.07812795545732196,0.1665685211585234]","[-1,-1,-1]","[0.12021732793288581,0.13869762551158482]","[1,1,1]","[0.06872010388149348,-0.040701384002324446]","[-1,-1,-1]","[-0.12828321366843173,0.1234981101773186]","[1,1,1]","[0.08464325650214409,-0.12104510097473858]","[1,1,1]","[-0.05569608507263054,-0.08178842340590947]","[-1,-1,-1]","[-0.03316832851969372,0.025044868840556893]","[-1,-1,-1]","[-0.017082236528951213,-0.11020289791931996]","[1,1,1]","[-0.12581730242214378,0.04108565438622659]","[-1,-1,-1]","[-0.17942502486562031,0.004979587366507615]","[-1,-1,-1]","[0.16065849271221674,0.009975895993996365]","[1,1,1]","[0.0498403611291617,-0.14515216800244543]","[1,1,1]","[0.12756600682779873,0.047710273937740764]","[-1,-1,-1]","[-0.07960535341773846,0.07601451466629901]","[-1,-1,-1]","[-0.13046990963662086,-0.0014856858078993685]","[-1,-1,-1]","[0.01626915359109741,0.17679823924518184]","[1,1,1]","[-0.1434583108083954,-0.13036394363750178]","[1,1,1]","[0.12838760700874702,-0.11432285096442227]","[-1,-1,-1]","[0.02,0.02]",252.3936,0,28,28,88,1,,,,,,,
,,,,,,,67cd50f22f22938860f85a66,682f0fe1c7a887b5c4e2f766,2025-05-22_13h59.55.130,cuing_paradigm_dot,2024.1.5,Win32,59.88023952,682d573fa47f1360d1451895,,,,,,,,,,,252.3941,252.8937,,,253.1443,254.044,left,,,,,,,,0.55,0.8849,,,,,,,252.8938,253.1442,254.044,"[-0.11818822786869253,-0.12086713904844695]","[-1,-1,-1]","[-0.08889490674576343,0.12292057718735962]","[-1,-1,-1]","[-0.10922290415296028,0.15970563396389525]","[1,1,1]","[-0.13203975204801352,0.050010867944087024]","[-1,-1,-1]","[-0.1673408293316301,0.0115329109252999]","[1,1,1]","[0.1824176310560368,0.06488234015869426]","[-1,-1,-1]","[-0.005302889089010112,-0.06817950930986338]","[1,1,1]","[-0.19280613796902193,-0.05184655504819331]","[-1,-1,-1]","[0.08622398939462753,0.03770085492153323]","[1,1,1]","[0.050824818270087564,-0.1671614615281211]","[1,1,1]","[0.0687842940698532,-0.09310756475066705]","[-1,-1,-1]","[0.14655523033674944,-0.09427738375097418]","[-1,-1,-1]","[-0.054161624582121176,-0.09546720688761284]","[1,1,1]","[0.023191745978799354,0.19582738197543684]","[1,1,1]","[-0.07699366684266785,0.184522279613981]","[1,1,1]","[0.12545146015247205,0.06558385842462332]","[-1,-1,-1]","[-0.15897988936783497,-0.11460562191797959]","[-1,-1,-1]","[0.026872858665740337,0.09207751694782972]","[1,1,1]","[-0.0369919483576029,-0.1779105879924823]","[-1,-1,-1]","[0.08214922692147728,-0.022918835768435317]","[-1,-1,-1]","[0.12596268949312633,-0.14172832794645082]","[1,1,1]","[0.17031609760919458,-0.026655284355117152]","[-1,-1,-1]","[0.13859871205407936,0.005357985501246686]","[1,1,1]","[-0.08959100973074545,-0.16823649750581418]","[-1,-1,-1]","[-0.13475146398928978,-0.03434999795167026]","[-1,-1,-1]","[-0.10033440646394975,-0.07162310991838207]","[1,1,1]","[-0.034318866407906316,0.09355418923587194]","[1,1,1]","[-0.045852286163148286,0.012524087277780227]","[1,1,1]","[0.07230271698517617,0.09653031175701299]","[1,1,1]","[0.07636781908185543,0.14471116974448395]","[1,1,1]","[0.0057385026585617125,0.016543804292934897]","[1,1,1]","[-0.13659877847494376,0.10773090364104673]","[1,1,1]","[0.02,0.02]",255.1439,0,29,29,149,1,,,,,,,
,,,,,,,67cd50f22f22938860f85a66,682f0fe1c7a887b5c4e2f766,2025-05-22_13h59.55.130,cuing_paradigm_dot,2024.1.5,Win32,59.88023952,682d573fa47f1360d1451895,,,,,,,,,,,255.1444,255.6436,,,255.8941,256.9772,left,,,,,,,,0.5,1.0694,,,,,,,255.6437,255.8941,256.9772,"[-0.07094653752083793,-0.12515276218158786]","[1,1,1]","[0.04030272235137734,0.1825692634870292]","[1,1,1]","[-0.1433947555192447,0.11266724696045365]","[1,1,1]","[-0.03121565742538836,0.010240318857026568]","[1,1,1]","[-0.16962889537766243,-0.024159865992312544]","[-1,-1,-1]","[-0.012877460606378038,-0.037672114725159286]","[-1,-1,-1]","[0.10750919202672389,0.14727602320733188]","[-1,-1,-1]","[0.07253170785314002,-0.06732009033904025]","[1,1,1]","[0.05013260495302043,0.0310003740221431]","[1,1,1]","[0.13747092532827532,0.090975664447853]","[1,1,1]","[-0.1113933644001386,-0.06346588038384655]","[-1,-1,-1]","[0.15005822026435797,-0.11628777516490585]","[1,1,1]","[-0.06966228359285942,0.05808040154793584]","[-1,-1,-1]","[-0.010113624551922376,0.10631921020598539]","[1,1,1]","[0.10819760433410186,0.011605087942637633]","[1,1,1]","[0.007165625939904161,-0.1425448649096998]","[-1,-1,-1]","[0.10648808863571492,-0.04069846329659598]","[-1,-1,-1]","[-0.1630149177016537,-0.1154963481560788]","[-1,-1,-1]","[0.03924987531219403,-0.04268567768837064]","[1,1,1]","[0.19303633136674228,-0.02963038209408306]","[-1,-1,-1]","[-0.13887114671990577,0.0426414729143628]","[-1,-1,-1]","[-0.051071321865757566,0.14275838747506644]","[-1,-1,-1]","[0.004148539548256066,-0.1865485365667148]","[-1,-1,-1]","[0.032250472415719,0.07280693943455803]","[1,1,1]","[0.042333100036341574,-0.12202361278147983]","[1,1,1]","[-0.10121706533416995,0.11745284867249414]","[-1,-1,-1]","[-0.04407286161720449,-0.1938225866063088]","[-1,-1,-1]","[-0.07820566533234526,0.012183115188547559]","[1,1,1]","[-0.12164794747140563,-0.12482555001641557]","[-1,-1,-1]","[0.017820059671899022,-0.08300805637258826]","[1,1,1]","[0.0632572138930772,0.1133002662711125]","[-1,-1,-1]","[-0.18570736765363524,0.06813192487088923]","[1,1,1]","[0.02,0.02]",258.0769,0,30,30,100,1,,,,,,,
,,,,,,,67cd50f22f22938860f85a66,682f0fe1c7a887b5c4e2f766,2025-05-22_13h59.55.130,cuing_paradigm_dot,2024.1.5,Win32,59.88023952,682d573fa47f1360d1451895,,,,,,,,,,,258.0774,258.577,,,258.8272,259.5435,left,,,,,,,,0.45,0.7036,,,,,,,258.577,258.8272,259.5435,"[0.1377092520106562,-0.036485770384334246]","[-1,-1,-1]","[0.03408144446010288,0.11628012871408669]","[1,1,1]","[0.10227390165502953,-0.0001755367502397226]","[1,1,1]","[-0.014951920581935866,-0.09740097488272227]","[1,1,1]","[0.05687160676081142,-0.18388407171073823]","[-1,-1,-1]","[-0.1480429070941309,-0.0758595783029388]","[1,1,1]","[0.16967500302226665,0.07780411611115096]","[1,1,1]","[-0.012902378449705595,-0.055429565897222005]","[1,1,1]","[-0.03659984561173304,0.18144143289053988]","[1,1,1]","[0.12783020429466893,0.031828892588137085]","[-1,-1,-1]","[0.15145563016524544,-0.10477942371361235]","[1,1,1]","[0.006484040569370163,-0.1539147025522346]","[-1,-1,-1]","[0.07494761012715219,0.10591101682812414]","[-1,-1,-1]","[-0.15590269442029614,0.0839450547717994]","[1,1,1]","[-0.011002628177096485,0.07811941055180462]","[-1,-1,-1]","[0.06584525033075607,-0.08929969758788822]","[-1,-1,-1]","[-0.07466801545169029,0.03854784341055834]","[-1,-1,-1]","[-0.14674530635348573,-0.12121342161817793]","[1,1,1]","[0.033104120072099515,0.16586531751406314]","[-1,-1,-1]","[-0.0720943195881095,0.13618553390885554]","[-1,-1,-1]","[-0.005509366020013367,0.1449557899721752]","[-1,-1,-1]","[0.19511297500502628,-0.04181335496063561]","[1,1,1]","[0.07530696952648112,0.15584569757552125]","[1,1,1]","[-0.18582699758526688,-0.002784080978524195]","[-1,-1,-1]","[0.10289777625848832,-0.13120893451312762]","[-1,-1,-1]","[0.028857751215432277,0.028175092337816725]","[1,1,1]","[-0.09249134331854561,-0.04645787503546768]","[-1,-1,-1]","[-0.06781693931601102,-0.17362456768532636]","[-1,-1,-1]","[-0.11554544488731817,0.03473243574341917]","[-1,-1,-1]","[-0.10569761605432923,-0.13731213705227685]","[-1,-1,-1]","[-0.039769415588765594,-0.007291349674794071]","[1,1,1]","[0.1313782713923041,0.10796993765030141]","[-1,-1,-1]","[0.02,0.02]",260.6435,0,31,31,68,1,,,,,,,
,,,,,,,67cd50f22f22938860f85a66,682f0fe1c7a887b5c4e2f766,2025-05-22_13h59.55.130,cuing_paradigm_dot,2024.1.5,Win32,59.88023952,682d573fa47f1360d1451895,,,,,,,,,,,260.644,261.1439,,,261.3939,262.4604,right,,,,,,,,0.6,1.0532,,,,,,,261.1439,261.3938,262.4604,"[0.034493239371014346,0.07089605796906233]","[1,1,1]","[-0.08708249200344469,-0.09743941886643204]","[1,1,1]","[-0.03712656915005773,-0.07599784238567035]","[-1,-1,-1]","[0.07611595830254256,-0.01191135289630433]","[-1,-1,-1]","[-0.13390970031671917,-0.02809183518796519]","[1,1,1]","[-0.0982555873697217,0.006098461689376047]","[-1,-1,-1]","[0.05344606637345879,-0.1894681379243012]","[1,1,1]","[0.074181050440777,0.04141571440664494]","[-1,-1,-1]","[0.016351602987455926,-0.029820648117566004]","[-1,-1,-1]","[0.06168147287898737,-0.09429643202419834]","[1,1,1]","[0.17105797116560054,-0.03540935104606867]","[1,1,1]","[0.11307859730373448,0.018364640060650063]","[1,1,1]","[0.1320845248378986,-0.1433121157738717]","[-1,-1,-1]","[-0.16620469703640403,0.0679532763900057]","[-1,-1,-1]","[-0.013248560674805803,0.03700267290296923]","[1,1,1]","[0.0014649170698745986,-0.09505885009788995]","[1,1,1]","[0.07027860845029875,-0.13993172306253673]","[-1,-1,-1]","[-0.050605787194699554,-0.1781524762294941]","[1,1,1]","[-0.03093292243589425,0.11997485464908246]","[1,1,1]","[0.054383494362935186,0.16475190195960218]","[-1,-1,-1]","[-0.025053876642958273,-0.012452725272794387]","[1,1,1]","[-0.08344567633130587,0.1655063827530658]","[1,1,1]","[-0.0706610680978664,-0.028494614737834087]","[-1,-1,-1]","[0.17071318607988828,0.08082100353034609]","[1,1,1]","[-0.1256945283319407,0.07662228518496857]","[1,1,1]","[0.024951676226077243,0.02434383352492828]","[1,1,1]","[-0.002466484918104724,0.16504132912019684]","[1,1,1]","[0.0944803085437535,0.17192163235571645]","[-1,-1,-1]","[-0.14198038152323803,0.1140358981099847]","[1,1,1]","[-0.035998507753046104,-0.12491184916898172]","[-1,-1,-1]","[-0.08568845798642435,0.06101216303650459]","[1,1,1]","[0.11008957531770029,-0.09272671072417464]","[-1,-1,-1]","[0.02,0.02]",263.5601,0,32,32,166,1,,,,,,,
,,,,,,,67cd50f22f22938860f85a66,682f0fe1c7a887b5c4e2f766,2025-05-22_13h59.55.130,cuing_paradigm_dot,2024.1.5,Win32,59.88023952,682d573fa47f1360d1451895,,,,,,,,,,,263.5605,264.0602,,,264.3104,265.1433,right,,,,,,,,0.45,0.8232,,,,,,,264.0602,264.3104,265.1434,"[-0.07780969036054988,-0.13359501120275494]","[1,1,1]","[-0.06799141639439008,-0.0926781510363594]","[1,1,1]","[-0.08825670647310452,-0.007866599474003352]","[1,1,1]","[0.03292100115468581,-0.09984931304071591]","[-1,-1,-1]","[-0.10474118750907045,0.11880891626169193]","[-1,-1,-1]","[-0.03499112300690654,0.09208298124106466]","[1,1,1]","[0.13259491185263572,0.0070043939298853695]","[-1,-1,-1]","[-0.11465925154458055,-0.08607075117115852]","[1,1,1]","[0.02311597713697142,-0.1663385612849885]","[-1,-1,-1]","[0.125221153350878,0.10856364113132956]","[-1,-1,-1]","[-0.018663674068252048,0.00843300631465605]","[-1,-1,-1]","[0.012421308468241878,0.1573326023943642]","[1,1,1]","[-0.19082678401222397,0.008460669724553184]","[-1,-1,-1]","[0.008866148787164409,0.09355963815655248]","[1,1,1]","[0.08217996905537306,-0.13510728911551567]","[-1,-1,-1]","[-0.1533949347098208,-0.02699989617850162]","[1,1,1]","[-0.022444372554017874,-0.04028986491437549]","[-1,-1,-1]","[-0.09772452721222069,0.06553830578251182]","[-1,-1,-1]","[0.09633666367947555,-0.026272805561865807]","[-1,-1,-1]","[-0.14513355506362607,-0.12376950538131716]","[1,1,1]","[0.059591465780156894,0.04040819927470503]","[-1,-1,-1]","[0.0398722298672604,0.1252327028417567]","[-1,-1,-1]","[0.11291196737180417,-0.10226628238068264]","[-1,-1,-1]","[0.05966914036786805,0.08536214549090529]","[-1,-1,-1]","[-0.07528284132320374,-0.175148741951025]","[1,1,1]","[-0.03258278351287857,-0.14804726556568645]","[-1,-1,-1]","[-0.06762646962063268,0.18377978873994602]","[1,1,1]","[0.1475597199625869,-0.07417555426049931]","[1,1,1]","[0.012563560955220258,-0.017573589346549973]","[-1,-1,-1]","[0.04183303050871869,-0.05440827764175226]","[1,1,1]","[-0.1742162382286265,0.082879558514685]","[1,1,1]","[-0.05684920025156881,0.024581826656041264]","[-1,-1,-1]","[0.02,0.02]",266.2434,0,33,33,67,1,,,,,,,
,,,,,,,67cd50f22f22938860f85a66,682f0fe1c7a887b5c4e2f766,2025-05-22_13h59.55.130,cuing_paradigm_dot,2024.1.5,Win32,59.88023952,682d573fa47f1360d1451895,,,,,,,,,,,266.2438,266.7432,,,266.9936,267.728,left,,,,,,,,0.55,0.7258,,,,,,,266.7432,266.9935,267.7281,"[0.028797766389623367,-0.14528650527836326]","[1,1,1]","[-0.006071040023193414,0.147968397398559]","[-1,-1,-1]","[0.18859186758469298,-0.03790441212428725]","[-1,-1,-1]","[0.09028724984448452,0.16140417354184414]","[1,1,1]","[-0.15752773653423585,0.08877192166446546]","[1,1,1]","[0.005701583145182607,0.19189120005241356]","[1,1,1]","[-0.0802160740776288,-0.16662229380866087]","[-1,-1,-1]","[0.049613412525993425,-0.011562349733537338]","[1,1,1]","[0.05775076044632481,0.10660073230118786]","[-1,-1,-1]","[0.17023650299827592,-0.08620121638819554]","[-1,-1,-1]","[-0.08916616305795604,0.030059240762838488]","[1,1,1]","[-0.03361727132881804,-0.08634151716119948]","[1,1,1]","[-0.17113565366916875,-0.0511162997159549]","[1,1,1]","[0.12773144640723136,0.02048725453320541]","[-1,-1,-1]","[-0.08313108766897402,0.1463190245373007]","[-1,-1,-1]","[-0.09321653147602801,0.0785703219950824]","[1,1,1]","[0.10971437914977954,0.06614976018301266]","[1,1,1]","[0.01118715664378445,-0.18161551746476018]","[-1,-1,-1]","[0.009518421109192285,-0.07617137225054048]","[1,1,1]","[-0.14728895134995743,0.03932156069342352]","[-1,-1,-1]","[-0.03587259742671167,0.02358302703436454]","[1,1,1]","[-0.09315160784887398,-0.1119212794595046]","[1,1,1]","[-0.046827371442617165,0.09187001830925288]","[1,1,1]","[-0.050223781041861794,0.18423607977317547]","[1,1,1]","[0.06827423535571367,0.04804900301006543]","[-1,-1,-1]","[0.01517989735604867,0.01949712281338536]","[-1,-1,-1]","[-0.146321515996657,0.1303144329123079]","[-1,-1,-1]","[-0.05350396644222103,-0.023258757084599922]","[-1,-1,-1]","[0.14040652873541287,-0.025171829522536042]","[1,1,1]","[0.0955896562754958,-0.04398438502852688]","[1,1,1]","[0.11722083931644076,0.11791600904942096]","[-1,-1,-1]","[0.05623277517146354,-0.10786579268989192]","[1,1,1]","[0.02,0.02]",268.8265,0,34,34,138,1,,,,,,,
,,,,,,,67cd50f22f22938860f85a66,682f0fe1c7a887b5c4e2f766,2025-05-22_13h59.55.130,cuing_paradigm_dot,2024.1.5,Win32,59.88023952,682d573fa47f1360d1451895,,,,,,,,,,,268.827,269.3266,,,269.5769,270.8765,left,,,,,,,,0.55,1.284,,,,,,,269.3266,269.5768,270.8766,"[-0.00943278495748631,0.05500857267780428]","[1,1,1]","[0.10021105190346864,0.023080532393001806]","[1,1,1]","[-0.03645119823765217,-0.012150220728773406]","[1,1,1]","[0.001984849151666781,0.18024284585373754]","[-1,-1,-1]","[-0.046638622025305596,-0.14178192914377516]","[1,1,1]","[-0.11360356942244677,-0.05089499761133182]","[-1,-1,-1]","[0.046161909953260055,0.18133213354982444]","[-1,-1,-1]","[-0.08003708658807723,-0.1668387377250329]","[-1,-1,-1]","[0.01727524956656214,-0.0262539381317581]","[1,1,1]","[0.09881821185864549,0.07803112922152998]","[-1,-1,-1]","[0.059079620016002914,0.06520816711051597]","[-1,-1,-1]","[-0.12441273178551107,0.021169475575777114]","[1,1,1]","[-0.16821557859581274,0.004240191439702661]","[-1,-1,-1]","[0.1836925051208038,0.07586179723835404]","[-1,-1,-1]","[0.0405295479879835,-0.10603598549787357]","[-1,-1,-1]","[0.15398731110608738,-0.06865002188114566]","[1,1,1]","[-0.0863081924551482,-0.01809653004361272]","[-1,-1,-1]","[0.10188034290996387,0.1493583086169456]","[-1,-1,-1]","[0.0006684734811564262,0.11786733081118844]","[-1,-1,-1]","[-0.04015238136433304,0.08617351087826247]","[1,1,1]","[-0.023062689104166107,-0.18455444255853978]","[1,1,1]","[0.11139213095431105,-0.08715382149527937]","[-1,-1,-1]","[-0.17474223715607695,-0.046385346292033024]","[1,1,1]","[0.09242480310658646,-0.01854337135630342]","[1,1,1]","[0.04571662449119123,0.10320256172616696]","[1,1,1]","[0.034730390195724985,-0.15267060117026074]","[1,1,1]","[-0.1419787571738654,-0.09833195893679744]","[1,1,1]","[-0.02748176322058796,-0.0994090815843473]","[1,1,1]","[0.025600364697506983,-0.06611777867607678]","[1,1,1]","[-0.047445401412034134,-0.06042819344369066]","[1,1,1]","[-0.1242027697659798,0.07043527593529235]","[1,1,1]","[-0.1641556737140526,0.1123982468001306]","[-1,-1,-1]","[0.02,0.02]",271.9764,0,35,35,121,1,,,,,,,
,,,,,,,67cd50f22f22938860f85a66,682f0fe1c7a887b5c4e2f766,2025-05-22_13h59.55.130,cuing_paradigm_dot,2024.1.5,Win32,59.88023952,682d573fa47f1360d1451895,,,,,,,,,,,271.9768,272.4763,,,272.7263,273.6929,right,,,,,,,,0.5,0.9508,,,,,,,272.4765,272.7262,273.693,"[-0.0427903016206081,0.10181165567050661]","[-1,-1,-1]","[0.021446332157061758,0.14365111734334485]","[1,1,1]","[-0.0348269362047564,0.15313082818054358]","[-1,-1,-1]","[-0.15097903919249658,0.1175485447535989]","[-1,-1,-1]","[-0.09204323864923405,0.026333654737918655]","[1,1,1]","[0.12200490481836952,0.11490325356830593]","[-1,-1,-1]","[0.10955183068007886,-0.10582172299469003]","[-1,-1,-1]","[-0.12745746090209492,-0.046938744040372786]","[1,1,1]","[0.050760801098322074,-0.006795072175209468]","[1,1,1]","[0.0515332939230263,-0.09204421814737043]","[1,1,1]","[-0.06882405850985908,-0.0635643020179627]","[-1,-1,-1]","[0.17538009713937738,-0.054339051699660974]","[1,1,1]","[-0.13365497878509378,0.012074424470803983]","[-1,-1,-1]","[-0.055079327154908424,-0.17492760214178307]","[-1,-1,-1]","[-0.13233306436024198,-0.09419014522557358]","[-1,-1,-1]","[0.1144647769203308,0.03872729499183724]","[-1,-1,-1]","[-0.17315330526178976,-0.0523720418006323]","[-1,-1,-1]","[-0.10304956982253713,0.1058937892458953]","[1,1,1]","[0.03612607045885241,-0.16682825282633687]","[-1,-1,-1]","[0.008393703788430266,0.09140032751913418]","[-1,-1,-1]","[0.15300820126220852,0.06346034494647443]","[-1,-1,-1]","[0.08802756807418277,-0.04820710538674477]","[-1,-1,-1]","[-0.10148734072010417,-0.1588353728513156]","[1,1,1]","[-0.03946162482161831,-0.009110779453484964]","[1,1,1]","[0.07066353103611214,0.14489052313753434]","[1,1,1]","[0.02596514131355444,-0.04669781630038774]","[-1,-1,-1]","[-0.18488357705184727,0.06750346501106794]","[1,1,1]","[-0.19222324395633272,0.02499346144326853]","[1,1,1]","[0.09085861661191548,-0.002320558903747723]","[1,1,1]","[-0.00458481083952193,-0.17048582289609487]","[1,1,1]","[0.06957273080301932,-0.13128473246502909]","[1,1,1]","[0.1433023076236414,-0.0023437536528129865]","[1,1,1]","[0.02,0.02]",274.7931,0,36,36,93,1,,,,,,,
,,,,,,,67cd50f22f22938860f85a66,682f0fe1c7a887b5c4e2f766,2025-05-22_13h59.55.130,cuing_paradigm_dot,2024.1.5,Win32,59.88023952,682d573fa47f1360d1451895,,,,,,,,,,,274.7935,275.2929,,,275.5431,276.4763,left,,,,,,,,0.6,0.9172,,,,,,,275.293,275.5431,276.4764,"[-0.08329189048539089,-0.1136580476773942]","[1,1,1]","[0.02363772613052179,0.18160399168312544]","[-1,-1,-1]","[0.09512173978732204,0.14260019117584574]","[-1,-1,-1]","[-0.1175146543542637,0.022076828945169803]","[1,1,1]","[0.051656888459327546,0.08535150424471208]","[1,1,1]","[0.13795785902278776,-0.07579776772006758]","[1,1,1]","[-0.055533365316050805,-0.040235456383762774]","[1,1,1]","[-0.17457553371432177,-0.0031207584337215404]","[1,1,1]","[-0.15668624447507462,-0.10265750713216712]","[-1,-1,-1]","[-0.051654460064574206,0.027684797917756514]","[1,1,1]","[0.0008131016577349626,-0.10655024967014792]","[1,1,1]","[-0.1616863234275229,0.07043428100843367]","[1,1,1]","[0.17919825663476133,-0.005175648732386962]","[-1,-1,-1]","[-0.16956125169700062,-0.04465778332321008]","[-1,-1,-1]","[0.05088216017519304,-0.09586480835157901]","[1,1,1]","[-0.11652771570172005,0.11451090887583466]","[-1,-1,-1]","[-0.09193936678835715,0.15728076992173912]","[-1,-1,-1]","[0.07575228104521695,-0.028395514839510094]","[-1,-1,-1]","[0.08417393225789442,0.04676251387645655]","[-1,-1,-1]","[-0.10952912272650862,-0.06436672123148696]","[1,1,1]","[0.05236712268683474,-0.19136289906319254]","[1,1,1]","[-0.0337924437119344,0.14081468799840013]","[-1,-1,-1]","[0.1020129506415793,-0.11482756249968191]","[-1,-1,-1]","[-0.08300983937600223,-0.1666995078766166]","[1,1,1]","[0.16672996576847482,0.04730241843698155]","[-1,-1,-1]","[0.00701348728412125,0.021165187190702206]","[1,1,1]","[0.04643403259042193,-0.13996980603774564]","[-1,-1,-1]","[-0.054363661301983425,0.08055104175582799]","[1,1,1]","[0.12672625439186416,-0.017959000941474842]","[1,1,1]","[0.010800611769368584,0.07028159561648724]","[1,1,1]","[0.005681775312881039,-0.17621160582536208]","[1,1,1]","[-0.11155418227302039,-0.018021830601274196]","[1,1,1]","[0.02,0.02]",277.5761,0,37,37,154,1,,,,,,,
,,,,,,,67cd50f22f22938860f85a66,682f0fe1c7a887b5c4e2f766,2025-05-22_13h59.55.130,cuing_paradigm_dot,2024.1.5,Win32,59.88023952,682d573fa47f1360d1451895,,,,,,,,,,,277.5765,278.0759,,,278.3265,279.5096,right,,,,,,,,0.45,1.1675,,,,,,,278.0759,278.3264,279.5096,"[0.011969266681916937,0.01192730681700048]","[1,1,1]","[-0.06345864966177826,0.051020276193677376]","[-1,-1,-1]","[-0.0038777626587722445,0.07606766590981304]","[-1,-1,-1]","[-0.14145509934756506,0.06869078525289773]","[-1,-1,-1]","[0.11754656603381054,0.02102636881743897]","[-1,-1,-1]","[-0.11083565488132364,-0.1463941662479769]","[-1,-1,-1]","[0.10303932456110156,-0.16258411970308548]","[-1,-1,-1]","[0.18142745103217695,-0.02719741326238202]","[1,1,1]","[0.10707862805367356,0.08556295346065204]","[1,1,1]","[0.15780338947931302,0.011029930172139168]","[-1,-1,-1]","[0.04587675436904416,-0.16230651500771756]","[-1,-1,-1]","[0.12575705943494725,-0.09462641128915399]","[-1,-1,-1]","[0.04465110438095332,0.0900144228826836]","[-1,-1,-1]","[-0.06571697874998664,-0.13701243186346013]","[-1,-1,-1]","[-0.017503828681615013,0.1300431474779802]","[-1,-1,-1]","[0.02167716705325223,-0.08584468844427065]","[1,1,1]","[0.06519253714089869,-0.03020045406966603]","[1,1,1]","[-0.12409224558458155,0.0064335917819077475]","[-1,-1,-1]","[-0.02681654471121139,-0.06045202458344126]","[-1,-1,-1]","[0.026634139576974157,0.12605973168124235]","[1,1,1]","[0.0676499340199759,0.013636394638718968]","[1,1,1]","[-0.02222385638703949,0.17216102444972867]","[1,1,1]","[0.1109093138454499,-0.05035460575404247]","[1,1,1]","[-0.06686375486292022,-0.02085938383450286]","[-1,-1,-1]","[0.19767665841191714,0.0184480254649867]","[1,1,1]","[-0.16584653551166273,-0.06868776664208122]","[-1,-1,-1]","[0.0592266613443855,0.16176713661650152]","[1,1,1]","[-0.09584149586547029,0.10275533313048922]","[-1,-1,-1]","[0.0006815872961397876,-0.1412891917376513]","[-1,-1,-1]","[-0.13263116603781264,0.14600711114416373]","[1,1,1]","[-0.028660875951720344,-0.17968097047292728]","[1,1,1]","[-0.078394099354009,-0.17962171050031556]","[1,1,1]","[0.02,0.02]",280.6093,0,38,38,82,1,,,,,,,
,,,,,,,67cd50f22f22938860f85a66,682f0fe1c7a887b5c4e2f766,2025-05-22_13h59.55.130,cuing_paradigm_dot,2024.1.5,Win32,59.88023952,682d573fa47f1360d1451895,,,,,,,,,,,280.6098,281.1109,,,281.3596,282.3111,left,,,,,,,,0.55,0.9425,,,,,,,281.1109,281.3595,282.3112,"[-0.05959033950631217,-0.16704604878583623]","[-1,-1,-1]","[-0.12758004845617374,0.15083483859505015]","[-1,-1,-1]","[0.052445804521481926,-0.13477713062168287]","[1,1,1]","[0.06481187077424577,0.08046486490586023]","[-1,-1,-1]","[0.13222567515377404,0.07572561104724669]","[1,1,1]","[0.11997654565085736,0.01701831589914]","[1,1,1]","[0.001724986950865439,-0.1869548458685719]","[1,1,1]","[0.012427593872246807,-0.04612635528060741]","[-1,-1,-1]","[-0.057524902899515847,0.05075964954910067]","[-1,-1,-1]","[-0.09902698480497664,-0.08839354396129949]","[-1,-1,-1]","[-0.18135660028581116,-0.02168847236819531]","[1,1,1]","[-0.14399402165524533,-0.04636289255648601]","[-1,-1,-1]","[0.16704013534822537,-0.10306182554338836]","[1,1,1]","[-0.08934612931826942,0.08077551253156467]","[1,1,1]","[-0.003212980998094438,-0.1429267161631627]","[-1,-1,-1]","[-0.13330573245926192,-0.14287332382660634]","[1,1,1]","[-0.097307783842383,-0.020285617663733928]","[1,1,1]","[0.18352300438923214,0.05144079808636299]","[-1,-1,-1]","[-0.04504817842669083,-0.10381898801016225]","[1,1,1]","[-0.017449604184349418,0.11769772282992776]","[1,1,1]","[-0.04965171052130856,-0.01133925141806248]","[1,1,1]","[0.03990712870324129,0.12548963568819765]","[1,1,1]","[0.046334443878133035,-0.09280928986988354]","[1,1,1]","[-0.035508936188095086,-0.04896768279226334]","[1,1,1]","[0.09313056541104978,-0.09807472417965368]","[-1,-1,-1]","[-0.0038473148280984697,0.1658717342244801]","[-1,-1,-1]","[-0.14139436977722528,0.01849140219241304]","[-1,-1,-1]","[0.11299012084076313,0.1328070873743778]","[-1,-1,-1]","[0.1508194107715654,0.11948772201688697]","[1,1,1]","[0.19111809859975085,-0.05766624776667909]","[-1,-1,-1]","[-0.003110915222922337,0.017620047527569106]","[1,1,1]","[0.00954345317745091,0.05926076983247154]","[1,1,1]","[0.02,0.02]",283.4105,0,39,39,143,1,,,,,,,
,,,,,,,67cd50f22f22938860f85a66,682f0fe1c7a887b5c4e2f766,2025-05-22_13h59.55.130,cuing_paradigm_dot,2024.1.5,Win32,59.88023952,682d573fa47f1360d1451895,,,,,,,,,,,283.411,283.9094,,,284.1596,284.776,left,,,,,,,,0.6,0.6047,,,,,,,283.9095,284.1595,284.776,"[0.045504484740636994,-0.1307617582001243]","[1,1,1]","[-0.12235257498127934,0.1433166571204148]","[-1,-1,-1]","[-0.04506587764515358,-0.11400850213680094]","[1,1,1]","[-0.15382491296319542,0.005616056741172835]","[-1,-1,-1]","[0.05279541625867399,0.12503641923450792]","[-1,-1,-1]","[0.035662190148816185,-0.029903411254390007]","[-1,-1,-1]","[0.1467150833861795,-0.02758797644400823]","[-1,-1,-1]","[-0.05233384002231602,-0.07424517693716771]","[1,1,1]","[-0.1818803726759029,-0.07212176970537891]","[1,1,1]","[-0.07739746658050511,0.1600665553077263]","[1,1,1]","[0.08116856563222047,-0.007490140722045247]","[1,1,1]","[0.022103601362233476,-0.08402945836084426]","[1,1,1]","[0.013709657494155748,0.02865816013920471]","[-1,-1,-1]","[-0.0255022929490507,-0.024554197265788853]","[1,1,1]","[0.07325061321869109,0.0482580985697418]","[1,1,1]","[0.0015944027767524824,0.15009847575439447]","[1,1,1]","[-0.19380300052226934,-0.002476637945484372]","[1,1,1]","[-0.0854747459272304,-0.17520607207348712]","[-1,-1,-1]","[0.1199867345466977,0.0997986083112986]","[-1,-1,-1]","[-0.12231234013049098,0.07249001556586843]","[-1,-1,-1]","[0.1550841170437753,-0.07714981072963902]","[1,1,1]","[-0.03053715286159392,0.11576980240569167]","[-1,-1,-1]","[-0.02617970547110233,-0.1563867396196561]","[-1,-1,-1]","[0.022697762077214783,-0.16975397447261653]","[1,1,1]","[0.13603260821617996,-0.11448423917565487]","[1,1,1]","[-0.07629519112168691,0.09725497306900208]","[1,1,1]","[0.019582925132412214,0.06847749732450568]","[-1,-1,-1]","[-0.1463009953218126,0.10544191551018951]","[-1,-1,-1]","[-0.1763097209924525,0.05269180878945559]","[1,1,1]","[-0.09088428852756691,-0.02576166688635486]","[1,1,1]","[-0.14637275114783982,-0.034872367129842145]","[1,1,1]","[-0.13341388710267899,-0.14674692307719128]","[1,1,1]","[0.02,0.02]",285.8756,0,40,40,174,1,,,,,,,
,,,,,,,67cd50f22f22938860f85a66,682f0fe1c7a887b5c4e2f766,2025-05-22_13h59.55.130,cuing_paradigm_dot,2024.1.5,Win32,59.88023952,682d573fa47f1360d1451895,,,,,,,,,,,285.876,286.3757,,,286.6261,287.2093,left,,,,,,,,0.9,0.5685,,,,,,,286.3758,286.6261,287.2093,"[0.01283743268077692,0.12968495437481023]","[1,1,1]","[0.02602567445387687,-0.047976094967147616]","[1,1,1]","[-0.12643594350696372,0.11082851564095035]","[1,1,1]","[-0.10600878820974663,0.1480129887435708]","[-1,-1,-1]","[-0.12477018661799102,-0.022118298196066217]","[1,1,1]","[0.14522811139472477,-0.0746832247947111]","[1,1,1]","[0.10786214477976368,-0.09142757801260838]","[1,1,1]","[-0.04772763392002248,0.11111118163992245]","[1,1,1]","[-0.026779784003562738,0.05580832098617291]","[1,1,1]","[-0.042285143339830744,-0.17521135282177325]","[1,1,1]","[-0.1708991120835162,-0.08643158029476618]","[1,1,1]","[0.1311096605428935,0.13057756695043074]","[1,1,1]","[-0.052035695106083184,-0.07358588867309165]","[1,1,1]","[0.1696889558430933,0.009279406407626018]","[-1,-1,-1]","[0.0014471246776953809,-0.15740001840330775]","[1,1,1]","[-0.040904581070318254,-0.013821282136806808]","[1,1,1]","[0.080385714076718,0.1736822450060217]","[1,1,1]","[-0.1905584418359101,-0.016682547200143238]","[1,1,1]","[-0.0013995243381678057,0.00662288359184484]","[1,1,1]","[-0.13308058716758758,-0.123308748629812]","[1,1,1]","[-0.04488135400385085,-0.12382595459757904]","[1,1,1]","[0.06845855140548694,0.13371598848366106]","[1,1,1]","[-0.17804278927094278,0.051784734405175996]","[1,1,1]","[0.07545154803882272,0.03892111574182747]","[-1,-1,-1]","[0.04940913693537884,-0.12416799739281079]","[1,1,1]","[0.09859998109645056,0.005531823084166102]","[1,1,1]","[0.11468520292636615,0.0803347182070851]","[1,1,1]","[-0.09220789035153847,-0.10155011877072781]","[1,1,1]","[0.039042114916166853,0.09868346558437799]","[1,1,1]","[-0.09396275823622373,0.04348288208044029]","[1,1,1]","[-0.024368065282308726,0.17183455318452967]","[1,1,1]","[0.020805985793957146,-0.19581403848164403]","[1,1,1]","[0.02,0.02]",288.3089,0,41,41,208,1,,,,,,,
,,,,,,,67cd50f22f22938860f85a66,682f0fe1c7a887b5c4e2f766,2025-05-22_13h59.55.130,cuing_paradigm_dot,2024.1.5,Win32,59.88023952,682d573fa47f1360d1451895,,,,,,,,,,,288.3093,288.8088,,,289.0595,290.293,right,,,,,,,,0.5,1.2247,,,,,,,288.8089,289.0595,290.2931,"[0.1056418335012191,-0.06586524853464754]","[-1,-1,-1]","[-0.07646958768590734,0.08305199617677379]","[1,1,1]","[0.03133875195189936,0.10516293462227744]","[1,1,1]","[-0.06196269910505742,0.1229269450392529]","[-1,-1,-1]","[0.015915019179140073,0.06689168568801969]","[1,1,1]","[0.021625609792968303,-0.06146021216860073]","[1,1,1]","[0.14313187423122475,0.12709318145894608]","[-1,-1,-1]","[0.1738712474306765,-0.034639956946024786]","[-1,-1,-1]","[0.11486910007513187,-0.013402564203457892]","[-1,-1,-1]","[0.16237779553853396,0.09137897449906686]","[1,1,1]","[-0.002211629683364501,-0.18389770399672337]","[-1,-1,-1]","[0.037843693718669476,-0.10810290151369091]","[-1,-1,-1]","[-0.05998069017230139,-0.18057304276505987]","[1,1,1]","[-0.02176549710096508,0.18702350812614135]","[1,1,1]","[-0.19166559996440422,-0.010345351435157914]","[1,1,1]","[0.010099896624575548,-0.02097027921303338]","[-1,-1,-1]","[-0.008458077046592275,-0.10155857361534253]","[1,1,1]","[-0.04633723594917739,-0.014587629149308353]","[1,1,1]","[-0.1454061182962896,-0.025560075273256825]","[-1,-1,-1]","[-0.12025411250711282,0.14496946517547213]","[1,1,1]","[0.04401220007461829,0.03481571033271696]","[1,1,1]","[0.06675119809131641,0.17235388276863012]","[-1,-1,-1]","[0.03816774699637678,-0.19032311027606658]","[1,1,1]","[-0.08605688474551083,-0.08504586427099982]","[1,1,1]","[-0.07093807148072488,0.16402623234627559]","[1,1,1]","[-0.17854409076640726,0.06407704586738813]","[-1,-1,-1]","[0.19551236068877373,0.014203103193752932]","[-1,-1,-1]","[-0.012863628378502339,0.1191734891164876]","[-1,-1,-1]","[-0.16316975290026256,-0.10513678106613554]","[-1,-1,-1]","[-0.09810369717393683,-0.009183941931883833]","[-1,-1,-1]","[-0.13891371808989197,0.09111952122302253]","[-1,-1,-1]","[0.07502067456369882,-0.0932986573305384]","[1,1,1]","[0.02,0.02]",291.392,0,42,42,102,1,,,,,,,
,,,,,,,67cd50f22f22938860f85a66,682f0fe1c7a887b5c4e2f766,2025-05-22_13h59.55.130,cuing_paradigm_dot,2024.1.5,Win32,59.88023952,682d573fa47f1360d1451895,,,,,,,,,,,291.3925,291.8921,,,292.1424,292.792,right,,,,,,,,0.1,0.6339,,,,,,,291.8922,292.1424,292.7921,"[0.014895619499846972,0.09293520726905409]","[-1,-1,-1]","[-0.10747183882235638,0.03583176897466338]","[1,1,1]","[-0.051138844178760315,0.06697288890288741]","[-1,-1,-1]","[0.0070600781614353755,0.00523990192133178]","[-1,-1,-1]","[0.17252427998328768,0.053614795373396765]","[-1,-1,-1]","[0.05535517020195891,-0.14468372497869542]","[-1,-1,-1]","[-0.01884458883695729,-0.09978953927738536]","[-1,-1,-1]","[0.1227456869882809,-0.0205005204208491]","[-1,-1,-1]","[0.107255213841238,-0.1216054062307754]","[-1,-1,-1]","[-0.0642153555722835,0.11521767727613158]","[-1,-1,-1]","[0.08172971962998231,-0.010963636106850022]","[-1,-1,-1]","[0.086443263598489,0.11912211052811418]","[-1,-1,-1]","[-0.12476859232418806,-0.0859988306450661]","[-1,-1,-1]","[0.10640963892374451,0.15827926213402654]","[1,1,1]","[0.16401470922258826,-0.031065021707468592]","[1,1,1]","[0.009138204704447447,0.18298312373652417]","[-1,-1,-1]","[-0.15511286583713746,-0.05870031826474038]","[-1,-1,-1]","[-0.1841841025521425,0.06048331530789581]","[-1,-1,-1]","[-0.1527241432529242,-0.011475362025536421]","[-1,-1,-1]","[0.0746705451160809,-0.08396181795402055]","[-1,-1,-1]","[0.031538083386311755,-0.10784369952832389]","[-1,-1,-1]","[-0.02474229832932909,-0.1714379753279737]","[-1,-1,-1]","[0.14726376493944787,-0.12432097988183476]","[-1,-1,-1]","[-0.10519490481808104,-0.04565738641702459]","[-1,-1,-1]","[-0.04837180612345729,-0.12945387602408698]","[-1,-1,-1]","[-0.12592879783461333,0.13228938290150985]","[-1,-1,-1]","[0.09582198472722589,0.07541937005134826]","[-1,-1,-1]","[-0.13115678000099829,-0.1466919558850825]","[-1,-1,-1]","[-0.09210400803382059,0.16801686222848608]","[-1,-1,-1]","[0.18157437068355683,-0.07040116192597543]","[-1,-1,-1]","[0.052832691510598905,0.15999452478596984]","[-1,-1,-1]","[-0.053495406050009575,-0.014989253674853842]","[-1,-1,-1]","[0.02,0.02]",293.8921,0,43,43,28,1,,,,,,,
,,,,,,,67cd50f22f22938860f85a66,682f0fe1c7a887b5c4e2f766,2025-05-22_13h59.55.130,cuing_paradigm_dot,2024.1.5,Win32,59.88023952,682d573fa47f1360d1451895,,,,,,,,,,,293.8925,294.3921,,,294.6423,295.2421,right,,,,,,,,0.1,0.5892,,,,,,,294.3921,294.6423,295.2421,"[0.0318704136719453,0.1570864031120175]","[-1,-1,-1]","[0.026777259553649187,-0.150932065632143]","[-1,-1,-1]","[-0.06416621777315387,-0.04868902765865939]","[-1,-1,-1]","[0.154631626087946,0.03991480732205188]","[-1,-1,-1]","[-0.1251011881023254,0.0022306317994371322]","[-1,-1,-1]","[-0.07292385916072872,-0.17472202551048824]","[-1,-1,-1]","[-0.064334950279268,0.10611750061836536]","[-1,-1,-1]","[-0.07963578127033369,0.02876125134467977]","[-1,-1,-1]","[0.11115488743146892,-0.09861880963386148]","[1,1,1]","[0.036074032490209476,0.02104780115397444]","[-1,-1,-1]","[0.08183205234376154,-0.1361680647061995]","[-1,-1,-1]","[-0.11851268961890496,-0.06807149317999912]","[-1,-1,-1]","[-0.02683348588857664,0.15926115050021297]","[-1,-1,-1]","[0.02073388601847476,0.10851438336947736]","[-1,-1,-1]","[0.10024507063138959,0.006703045556918517]","[-1,-1,-1]","[0.04453067240398273,-0.029358733808533946]","[-1,-1,-1]","[-0.19697690058400769,0.03163854248113655]","[-1,-1,-1]","[0.16992317541171612,-0.04985314463142175]","[-1,-1,-1]","[0.08241156839999515,-0.06259006684963046]","[1,1,1]","[-0.16946863816577654,0.10446463469296581]","[-1,-1,-1]","[-0.024257452161408587,0.09127929805375394]","[-1,-1,-1]","[0.11562685061372724,0.1485477209871444]","[-1,-1,-1]","[0.004837891591292666,-0.04904780039671868]","[-1,-1,-1]","[-0.02623565771722312,0.04787714133501423]","[1,1,1]","[-0.07049498961964108,0.1510220697372063]","[-1,-1,-1]","[-0.10018592273769858,-0.1067415422897047]","[-1,-1,-1]","[0.14627456760928603,0.10651184378840893]","[-1,-1,-1]","[0.008456295026163227,-0.19634031000672517]","[-1,-1,-1]","[-0.13660436341685006,0.06778454803783573]","[-1,-1,-1]","[0.014521356376249347,0.06325355071983352]","[-1,-1,-1]","[-0.17471014814575134,-0.06430834772615081]","[-1,-1,-1]","[-0.04390234191451268,-0.10949071032287377]","[-1,-1,-1]","[0.02,0.02]",296.3419,0,44,44,7,1,,,,,,,
