right,left,explain.started,explain.stopped,key_resp_3.keys,key_resp_3.rt,key_resp_3.duration,participant,session,date,expName,psychopyVersion,OS,frameRate,study_id,explain_2.started,explain_2.stopped,key_resp_4.keys,key_resp_4.rt,key_resp_4.duration,explain_3.started,explain_3.stopped,key_resp_5.keys,key_resp_5.rt,key_resp_5.duration,fixation.started,fixation.stopped,practice.started,practice.stopped,response.started,response.stopped,key_resp.keys,key_resp.rt,key_resp.duration,feedback.started,feedback.stopped,trials_2.thisRepN,trials_2.thisTrialN,trials_2.thisN,trials_2.thisIndex,trials_2.ran,white_ratio,explain_4.started,explain_4.stopped,key_resp_6.keys,key_resp_6.rt,key_resp_6.duration,dotDisplay.started,dotDisplay.stopped,ITI.started,polygon_1.pos,polygon_1.color,polygon_2.pos,polygon_2.color,polygon_3.pos,polygon_3.color,polygon_4.pos,polygon_4.color,polygon_5.pos,polygon_5.color,polygon_6.pos,polygon_6.color,polygon_7.pos,polygon_7.color,polygon_8.pos,polygon_8.color,polygon_9.pos,polygon_9.color,polygon_10.pos,polygon_10.color,polygon_11.pos,polygon_11.color,polygon_12.pos,polygon_12.color,polygon_13.pos,polygon_13.color,polygon_14.pos,polygon_14.color,polygon_15.pos,polygon_15.color,polygon_16.pos,polygon_16.color,polygon_17.pos,polygon_17.color,polygon_18.pos,polygon_18.color,polygon_19.pos,polygon_19.color,polygon_20.pos,polygon_20.color,polygon_21.pos,polygon_21.color,polygon_22.pos,polygon_22.color,polygon_23.pos,polygon_23.color,polygon_24.pos,polygon_24.color,polygon_25.pos,polygon_25.color,polygon_26.pos,polygon_26.color,polygon_27.pos,polygon_27.color,polygon_28.pos,polygon_28.color,polygon_29.pos,polygon_29.color,polygon_30.pos,polygon_30.color,polygon_31.pos,polygon_31.color,polygon_32.pos,polygon_32.color,dot_size,ITI.stopped,trials.thisRepN,trials.thisTrialN,trials.thisN,trials.thisIndex,trials.ran,break_2.started,break_2.stopped,trials_3.thisRepN,trials_3.thisTrialN,trials_3.thisN,trials_3.thisIndex,trials_3.ran
subject chose white,subject chose black,0.0003,33.9487,space,18.9253,,67d005119524a1e1d28a2699,682db417c31a43bad456356e,2025-05-21_13h27.05.109,cuing_paradigm_dot,2024.1.5,Win32,59.88023952,682d556593cb38ad0a074487,,,,,,,,,,,,,,,,,,,,,,,,,,,,,,,,,,,,,,,,,,,,,,,,,,,,,,,,,,,,,,,,,,,,,,,,,,,,,,,,,,,,,,,,,,,,,,,,,,,,,,,,,,,,,,,,,
,,,,,,,67d005119524a1e1d28a2699,682db417c31a43bad456356e,2025-05-21_13h27.05.109,cuing_paradigm_dot,2024.1.5,Win32,59.88023952,682d556593cb38ad0a074487,33.9495,65.4297,space,1.4659,,,,,,,,,,,,,,,,,,,,,,,,,,,,,,,,,,,,,,,,,,,,,,,,,,,,,,,,,,,,,,,,,,,,,,,,,,,,,,,,,,,,,,,,,,,,,,,,,,,,,,,,,,,,,
,,,,,,,67d005119524a1e1d28a2699,682db417c31a43bad456356e,2025-05-21_13h27.05.109,cuing_paradigm_dot,2024.1.5,Win32,59.88023952,682d556593cb38ad0a074487,,,,,,65.4301,78.7263,space,10.2923,,,,,,,,,,,,,,,,,,,,,,,,,,,,,,,,,,,,,,,,,,,,,,,,,,,,,,,,,,,,,,,,,,,,,,,,,,,,,,,,,,,,,,,,,,,,,,,,,,,,,,,,
,,,,,,,67d005119524a1e1d28a2699,682db417c31a43bad456356e,2025-05-21_13h27.05.109,cuing_paradigm_dot,2024.1.5,Win32,59.88023952,682d556593cb38ad0a074487,,,,,,,,,,,78.763,79.2434,79.2441,79.4772,79.4774,80.7504,left,1.2241,,80.7507,81.8455,0,0,0,1,1,0.2,,,,,,,,,,,,,,,,,,,,,,,,,,,,,,,,,,,,,,,,,,,,,,,,,,,,,,,,,,,,,,,,,,,,,,,,,,,,,,,,,,,,,,
,,,,,,,67d005119524a1e1d28a2699,682db417c31a43bad456356e,2025-05-21_13h27.05.109,cuing_paradigm_dot,2024.1.5,Win32,59.88023952,682d556593cb38ad0a074487,,,,,,,,,,,81.8466,82.3456,82.3457,82.6019,82.602,84.0145,right,1.3862,,84.0147,85.1153,0,1,1,0,1,0.8,,,,,,,,,,,,,,,,,,,,,,,,,,,,,,,,,,,,,,,,,,,,,,,,,,,,,,,,,,,,,,,,,,,,,,,,,,,,,,,,,,,,,,
,,,,,,,67d005119524a1e1d28a2699,682db417c31a43bad456356e,2025-05-21_13h27.05.109,cuing_paradigm_dot,2024.1.5,Win32,59.88023952,682d556593cb38ad0a074487,,,,,,,,,,,,,,,,,,,,,,,,,,,,85.1163,88.3856,space,0.2561,,,,,,,,,,,,,,,,,,,,,,,,,,,,,,,,,,,,,,,,,,,,,,,,,,,,,,,,,,,,,,,,,,,,,,,,,,,,,,,,,,
,,,,,,,67d005119524a1e1d28a2699,682db417c31a43bad456356e,2025-05-21_13h27.05.109,cuing_paradigm_dot,2024.1.5,Win32,59.88023952,682d556593cb38ad0a074487,,,,,,,,,,,88.4079,88.9021,,,89.1536,90.0536,right,0.8774,,,,,,,,,0.6,,,,,,88.903,89.1534,90.0545,"[0.02934106090406014,-0.11883550648663417]","[1,1,1]","[-0.04091413297466165,0.0641494729046191]","[1,1,1]","[-0.06959497158637724,0.12888099718340026]","[1,1,1]","[-0.07957087691742681,-0.009137264260117305]","[1,1,1]","[-0.14017410126365695,0.1127340391158481]","[-1,-1,-1]","[0.013954635043573685,0.1787737504334124]","[1,1,1]","[0.07721409884652719,0.01450512471529591]","[1,1,1]","[0.0803372632637944,-0.07744148704764779]","[1,1,1]","[-0.16991343066372733,-0.06046855415502663]","[-1,-1,-1]","[-0.025869114959393362,0.1966363011084202]","[1,1,1]","[0.024632493471124887,0.024881174398434822]","[-1,-1,-1]","[-0.13104380742219573,-0.03378379531298862]","[-1,-1,-1]","[0.1661505152205749,0.027445899319603805]","[1,1,1]","[-0.11264648458209853,-0.15134776215976525]","[1,1,1]","[-0.021235863427103062,-0.029856233049056154]","[1,1,1]","[0.12241805209042819,0.025990560812655095]","[-1,-1,-1]","[-0.16846281466908125,0.06713338056248568]","[-1,-1,-1]","[0.04951626361784256,0.10138091251657379]","[-1,-1,-1]","[0.051718118704089426,-0.1801140141527106]","[1,1,1]","[-0.060110875411223466,-0.09329363353719487]","[-1,-1,-1]","[-0.09382735348674415,0.09242814675813661]","[-1,-1,-1]","[0.07075986743491462,-0.1246931157105047]","[1,1,1]","[0.12374651583853913,-0.03024184020129471]","[1,1,1]","[0.10693343099165907,0.14781051408544157]","[-1,-1,-1]","[-0.1790530632193782,-0.02047503184096312]","[1,1,1]","[-0.1207322212157676,0.1534127266545825]","[-1,-1,-1]","[0.13213995466388623,0.06823970515109472]","[1,1,1]","[-0.021050468684253584,-0.1043157440148306]","[1,1,1]","[0.010642741716119541,-0.06500716957185858]","[-1,-1,-1]","[0.140009961429853,-0.09147520181823542]","[1,1,1]","[0.12573142273157287,-0.14720727611855564]","[1,1,1]","[-0.06976691274199932,0.18134451519823463]","[-1,-1,-1]","[0.02,0.02]",91.155,0,0,0,152,1,,,,,,,
,,,,,,,67d005119524a1e1d28a2699,682db417c31a43bad456356e,2025-05-21_13h27.05.109,cuing_paradigm_dot,2024.1.5,Win32,59.88023952,682d556593cb38ad0a074487,,,,,,,,,,,91.156,91.655,,,91.906,92.6564,left,0.7186,,,,,,,,,0.5,,,,,,91.6552,91.9059,92.6567,"[-0.04308986790803103,-0.14356751617232505]","[1,1,1]","[0.02695233044585536,-0.09165940371865132]","[-1,-1,-1]","[-0.12143018027874351,0.058463003463386516]","[1,1,1]","[-0.1070885430642137,-0.06812437972797596]","[-1,-1,-1]","[0.09286223084080598,-0.12873948911095803]","[-1,-1,-1]","[0.038546133188304736,-0.004248261490989082]","[1,1,1]","[0.012127133355535384,0.04071795544666418]","[-1,-1,-1]","[0.14465816950372595,-0.09333723546276786]","[1,1,1]","[0.06731299047373089,0.15388175957869843]","[1,1,1]","[0.15214071180222277,0.06406258256438349]","[1,1,1]","[-0.05826173781694539,0.1608539317481486]","[-1,-1,-1]","[0.12936688883991057,0.14437843825951416]","[-1,-1,-1]","[-0.16195976037470114,0.10862936135460359]","[1,1,1]","[0.018513247138901925,0.13562913692509582]","[1,1,1]","[0.10757100100464798,-0.038539370151382826]","[1,1,1]","[-0.017785940615339633,-0.1964395110262969]","[1,1,1]","[-0.022770652869554847,-0.08980562574157225]","[-1,-1,-1]","[0.02892581385493156,-0.15559417208160747]","[-1,-1,-1]","[-0.02119912796177963,0.19870466918696233]","[-1,-1,-1]","[-0.03512718753112656,0.051009774866962974]","[1,1,1]","[-0.17856928256953825,-0.008941500932394453]","[1,1,1]","[-0.13777482076215744,-0.0025217361600343648]","[1,1,1]","[-0.02725067900926392,0.10823600206564364]","[-1,-1,-1]","[-0.18754513659746466,-0.05836661256191114]","[-1,-1,-1]","[0.12127905233660077,0.013062115038414158]","[-1,-1,-1]","[-0.1158244320873894,0.12908127394096908]","[1,1,1]","[0.1653229670314018,-0.050266209452491994]","[1,1,1]","[0.06248536490796031,-0.1879712789538661]","[-1,-1,-1]","[-0.09622174204099053,-0.002785354601026539]","[1,1,1]","[-0.07731297666510703,0.039895300132311795]","[-1,-1,-1]","[0.05767316492594024,-0.04850245973994056]","[-1,-1,-1]","[0.16159522181140545,-0.005426786166428288]","[-1,-1,-1]","[0.02,0.02]",93.7574,0,1,1,100,1,,,,,,,
,,,,,,,67d005119524a1e1d28a2699,682db417c31a43bad456356e,2025-05-21_13h27.05.109,cuing_paradigm_dot,2024.1.5,Win32,59.88023952,682d556593cb38ad0a074487,,,,,,,,,,,93.7583,94.2578,,,94.5131,95.3427,left,0.8024,,,,,,,,,0.1,,,,,,94.2579,94.5131,95.3428,"[0.04849662813245888,0.09694759567930747]","[1,1,1]","[-0.08063321988747017,0.09834479684150878]","[-1,-1,-1]","[-0.005330549534309281,-0.039713640700668476]","[1,1,1]","[0.16755243164450415,-0.10561226753269125]","[-1,-1,-1]","[-0.07368177736192184,-0.1525185064246597]","[-1,-1,-1]","[0.12201048954448372,0.1526329092354059]","[-1,-1,-1]","[0.0568204844126909,-0.04801661007759762]","[-1,-1,-1]","[-0.03564477418640787,-0.06977859407670937]","[-1,-1,-1]","[-0.05975674924981591,0.0021239857254717947]","[-1,-1,-1]","[0.04273280066348155,-0.09597235008469956]","[-1,-1,-1]","[0.13395547176291356,-0.044459987048819836]","[-1,-1,-1]","[0.06646141557007872,-0.00442718778364075]","[-1,-1,-1]","[-0.031075838257054646,-0.1475423902780101]","[-1,-1,-1]","[-0.10432782844446074,0.16715018454425637]","[-1,-1,-1]","[0.17548394588516245,-0.026055108980519385]","[-1,-1,-1]","[-0.17683365235093793,-0.07622572576467007]","[-1,-1,-1]","[-0.10976234573721977,-0.11467875004452982]","[-1,-1,-1]","[0.0023467301802198915,0.020833768303164194]","[-1,-1,-1]","[0.09387129249304094,-0.0968034985906161]","[-1,-1,-1]","[0.07676495410724646,0.06075857865073386]","[-1,-1,-1]","[-0.028767972729103815,0.08783921178722659]","[-1,-1,-1]","[0.05905158624444124,-0.13788080817545]","[-1,-1,-1]","[-0.172064398046365,0.07005202507286107]","[-1,-1,-1]","[0.08001205356384762,0.17059824602048126]","[-1,-1,-1]","[-0.13818938376801865,-0.012110383932094404]","[-1,-1,-1]","[-0.0557659292901459,0.1335919024794554]","[-1,-1,-1]","[0.15682085523418834,0.07546440612349045]","[-1,-1,-1]","[-0.1353437912659862,0.11918230530393598]","[-1,-1,-1]","[0.12566060813561647,-0.13603493943623354]","[-1,-1,-1]","[0.12508527106613643,0.017599944061976146]","[-1,-1,-1]","[-0.06435337437284827,0.04235965911829377]","[-1,-1,-1]","[-0.02226915882117677,0.17631649926865411]","[1,1,1]","[0.02,0.02]",96.4434,0,2,2,18,1,,,,,,,
,,,,,,,67d005119524a1e1d28a2699,682db417c31a43bad456356e,2025-05-21_13h27.05.109,cuing_paradigm_dot,2024.1.5,Win32,59.88023952,682d556593cb38ad0a074487,,,,,,,,,,,96.4443,96.9436,,,97.1948,97.8615,left,0.6435,,,,,,,,,0.6,,,,,,96.9437,97.1948,97.8616,"[0.13142663566887647,-0.05862596775401536]","[-1,-1,-1]","[0.012841368087319395,0.07760080882960069]","[1,1,1]","[0.08416934788295426,0.08385565716505099]","[-1,-1,-1]","[0.1773962456738725,0.01791495523420159]","[1,1,1]","[-0.12660559866491689,0.025063853005680092]","[1,1,1]","[-0.0970214480337028,-0.10217505159374435]","[-1,-1,-1]","[0.09443596237671957,-0.11565316072795799]","[-1,-1,-1]","[-0.08042490138039178,-0.17076621874587986]","[1,1,1]","[0.16282284179917655,0.09363146590309261]","[1,1,1]","[0.06770100843108512,0.03757285774880637]","[1,1,1]","[-0.02590830197614036,-0.09611406310261358]","[-1,-1,-1]","[0.12215997657491019,0.03296505561530683]","[1,1,1]","[-0.05559897969324499,-0.06381907086395686]","[1,1,1]","[-0.18911376127136556,-0.01356436421168874]","[1,1,1]","[-0.16596046201744674,-0.06338146973295805]","[-1,-1,-1]","[-0.0737492046778201,0.0009166445340107214]","[-1,-1,-1]","[-0.03257447844002108,0.09911878277773527]","[-1,-1,-1]","[-0.005022857765810704,0.17674245969569358]","[1,1,1]","[-0.15015073715686922,0.13094651110098876]","[1,1,1]","[0.05945757438661548,-0.15556104733569112]","[1,1,1]","[-0.06367647527305305,0.14118393834853268]","[1,1,1]","[0.0365454103999917,-0.10474719309390926]","[-1,-1,-1]","[-0.13173102024174224,-0.031663535589797884]","[1,1,1]","[-0.1322620017542315,-0.14282173774057016]","[-1,-1,-1]","[-0.004328662602007259,0.005027669162927831]","[1,1,1]","[0.13199192957860065,0.14830506972393284]","[1,1,1]","[-0.13678983376051784,0.08066626574455957]","[-1,-1,-1]","[0.07220329722446027,0.14584207485325687]","[1,1,1]","[0.07479632811700085,-0.06355440328074384]","[1,1,1]","[0.17353247322053839,-0.08384903719261778]","[1,1,1]","[0.028148878486945125,-0.01861911054410124]","[-1,-1,-1]","[-0.08760084627779716,0.09451025435983]","[-1,-1,-1]","[0.02,0.02]",98.9621,0,3,3,171,1,,,,,,,
,,,,,,,67d005119524a1e1d28a2699,682db417c31a43bad456356e,2025-05-21_13h27.05.109,cuing_paradigm_dot,2024.1.5,Win32,59.88023952,682d556593cb38ad0a074487,,,,,,,,,,,98.963,99.4627,,,99.7165,100.3472,right,0.6044,,,,,,,,,0.5,,,,,,99.4628,99.7164,100.3473,"[-0.0711957645516592,0.1159590536819145]","[-1,-1,-1]","[0.0539286442965894,0.13386476401571581]","[1,1,1]","[-0.06916334644682043,-0.1649891354649443]","[1,1,1]","[-0.13524915284492753,0.10094223737126302]","[1,1,1]","[0.07141371777630524,0.05593791220481327]","[-1,-1,-1]","[-0.10619562590483773,-0.124609586416539]","[-1,-1,-1]","[0.012874260656005825,-0.016898688404736257]","[1,1,1]","[-0.008405544738175294,0.06531771398875472]","[-1,-1,-1]","[0.10875966194124263,0.07492632561276048]","[1,1,1]","[0.13261055161428015,0.13006492340846296]","[1,1,1]","[-0.06118064372983638,0.18031120500557427]","[-1,-1,-1]","[0.040175138352707945,0.08624043634171237]","[-1,-1,-1]","[0.05058914965714953,-0.1864327871139514]","[1,1,1]","[-0.06348184667776464,-0.10425753015761695]","[-1,-1,-1]","[0.0293442569568284,-0.10070586390309362]","[1,1,1]","[-0.1423170638180141,-0.005455895604341325]","[1,1,1]","[-0.15571323270227608,0.05056910957552189]","[1,1,1]","[-0.009692881349836886,-0.08602176527867195]","[1,1,1]","[0.09329124786295097,-0.024360799131619086]","[-1,-1,-1]","[-0.17982724004347805,-0.025792939679044315]","[-1,-1,-1]","[0.04660280980796438,0.019315262088592116]","[-1,-1,-1]","[0.16874075596428212,0.03177769508669341]","[-1,-1,-1]","[-0.1342928825121332,-0.05771761176070742]","[-1,-1,-1]","[-0.10626064836384974,0.06452406520462005]","[1,1,1]","[0.16492388929430787,-0.07358995631452]","[-1,-1,-1]","[0.13229991525141205,-0.1229886292501163]","[-1,-1,-1]","[0.18100200566285332,-0.011794790434594695]","[1,1,1]","[0.010173147251644027,0.1522067850945232]","[-1,-1,-1]","[-0.028005380333313963,-0.025945205284251392]","[1,1,1]","[0.09058525698012874,-0.09887470523455455]","[-1,-1,-1]","[-0.10214963105423079,0.15912507176111085]","[1,1,1]","[-0.09075381232807261,-0.03636949293782693]","[1,1,1]","[0.02,0.02]",101.4479,0,4,4,114,1,,,,,,,
,,,,,,,67d005119524a1e1d28a2699,682db417c31a43bad456356e,2025-05-21_13h27.05.109,cuing_paradigm_dot,2024.1.5,Win32,59.88023952,682d556593cb38ad0a074487,,,,,,,,,,,101.4488,101.9486,,,102.1994,102.9832,right,0.7583,,,,,,,,,0.55,,,,,,101.9486,102.1993,102.9833,"[0.005789418788335964,-0.15233673106183654]","[1,1,1]","[0.1261049965792107,0.02584853543455585]","[-1,-1,-1]","[-0.05941677869732756,-0.17431611795338484]","[1,1,1]","[0.06319641494938587,0.08829962124171618]","[1,1,1]","[0.12834732757366066,-0.13108416636334438]","[1,1,1]","[0.036412646858085235,0.14748954022399832]","[1,1,1]","[-0.013595281260649994,0.08312688277490642]","[1,1,1]","[-0.08344949817331239,0.14461756783428217]","[1,1,1]","[0.04115313446170903,-0.052674930734106194]","[1,1,1]","[0.13634553374539618,0.10628316733318319]","[1,1,1]","[-0.13508660534297257,-0.12385454817045005]","[1,1,1]","[-0.14069104378288955,-0.0714711895472022]","[-1,-1,-1]","[-0.03622683891979588,-0.042152179806296985]","[1,1,1]","[-0.059315644461423477,-0.09853133974093722]","[-1,-1,-1]","[-0.08867134574022362,0.03134525710105105]","[1,1,1]","[-0.009860393642804386,0.01967689021924548]","[1,1,1]","[0.07741873179116877,0.039396344832581365]","[-1,-1,-1]","[0.04589154464352653,-0.13569456698122928]","[1,1,1]","[0.17281753367563107,-0.019386718726868424]","[-1,-1,-1]","[-0.1820039817795606,-0.031428266941372386]","[-1,-1,-1]","[0.0076981026418900915,-0.08891766242890725]","[-1,-1,-1]","[-0.16055084066268355,0.027803734013001482]","[-1,-1,-1]","[0.08831485328422407,0.1582606247584536]","[1,1,1]","[-0.12445675830227708,0.12602433619795794]","[-1,-1,-1]","[-0.07477646585395868,0.09148959280247818]","[-1,-1,-1]","[-0.04013083815815013,0.17673081744774263]","[-1,-1,-1]","[0.06377846022072568,-0.01805043130066809]","[-1,-1,-1]","[0.11960805353846922,-0.07884814628835621]","[-1,-1,-1]","[-0.09801519867482326,-0.07667082915472018]","[1,1,1]","[-0.14207446008668048,-0.01226576671020083]","[1,1,1]","[-0.08309903045078702,-0.13574988728103285]","[-1,-1,-1]","[0.1901711151117498,0.06125893998657417]","[1,1,1]","[0.02,0.02]",104.084,0,5,5,137,1,,,,,,,
,,,,,,,67d005119524a1e1d28a2699,682db417c31a43bad456356e,2025-05-21_13h27.05.109,cuing_paradigm_dot,2024.1.5,Win32,59.88023952,682d556593cb38ad0a074487,,,,,,,,,,,104.0847,104.5842,,,104.8238,105.6861,right,0.8554,,,,,,,,,0.9,,,,,,104.5842,104.8238,105.6862,"[-0.10838288343861152,0.1193367663692777]","[1,1,1]","[-0.1885148913466812,-0.04660622019691485]","[1,1,1]","[-0.0418744613801974,0.05715598232548061]","[1,1,1]","[0.00876776734500118,-0.10956534282372114]","[1,1,1]","[0.15265001662960553,-0.00011414694187387207]","[-1,-1,-1]","[0.029437360653536422,0.09220554732306474]","[-1,-1,-1]","[-0.16977672513496603,0.08130772861167818]","[1,1,1]","[0.05761644301371205,-0.03567131400355981]","[1,1,1]","[0.09420139866739431,0.06331825650781671]","[1,1,1]","[-0.09082483811328591,-0.07866217570719541]","[1,1,1]","[0.14095546265691253,0.09149635184388359]","[1,1,1]","[-0.17682993914111184,0.026974703944194604]","[1,1,1]","[0.05277645379510335,-0.15125646435752435]","[1,1,1]","[0.09452084002502137,-0.12386746762892688]","[1,1,1]","[-0.026907352612646047,0.17118552231025105]","[1,1,1]","[-0.0785510649013218,-0.1554157004341219]","[1,1,1]","[-0.13924785769003986,-0.023958151208588286]","[1,1,1]","[0.19197309468687562,-0.008170544047937054]","[1,1,1]","[0.12509090220050087,-0.029676183354355318]","[1,1,1]","[0.012216268372372422,-0.05104297947920755]","[1,1,1]","[-0.053187429913175585,0.13065986212734498]","[1,1,1]","[-0.04883692590247856,-0.12028837657086143]","[1,1,1]","[0.03348721945814297,0.03559123336674607]","[1,1,1]","[0.14894073955622594,-0.09510371394798593]","[1,1,1]","[-0.06996731922961863,-0.03532264110179848]","[1,1,1]","[-0.12316375429457153,-0.12117521606233173]","[1,1,1]","[-0.03897231387446547,-0.17588112584150742]","[1,1,1]","[0.014755064670316937,0.16081007186307847]","[-1,-1,-1]","[-0.12157124717740268,0.036510607341982394]","[1,1,1]","[0.07393285437706708,0.16356036825900588]","[1,1,1]","[0.14995342369233156,0.045874412670360507]","[1,1,1]","[0.12237513360027485,0.15668226655626633]","[1,1,1]","[0.02,0.02]",106.7871,0,6,6,180,1,,,,,,,
,,,,,,,67d005119524a1e1d28a2699,682db417c31a43bad456356e,2025-05-21_13h27.05.109,cuing_paradigm_dot,2024.1.5,Win32,59.88023952,682d556593cb38ad0a074487,,,,,,,,,,,106.7879,107.287,,,107.5381,107.9212,right,0.3511,,,,,,,,,0.9,,,,,,107.2871,107.538,107.9213,"[-0.18894998512452194,0.026621492303918012]","[1,1,1]","[0.021737806782733144,0.13537445489599187]","[1,1,1]","[-0.17939952617243204,0.07788527876986934]","[1,1,1]","[0.10704547659038774,-0.10725460459122865]","[1,1,1]","[0.010601486829551414,-0.07746520719066399]","[1,1,1]","[0.15097496588753093,0.11024498238293526]","[1,1,1]","[-0.06810992713670112,-0.10590201544530968]","[1,1,1]","[-0.16129065204722776,-0.010435694438308437]","[1,1,1]","[-0.04738540318978907,0.12245028222024432]","[1,1,1]","[-0.07649375306403952,0.04655444775406457]","[1,1,1]","[0.09287296150251681,0.005411192948016314]","[1,1,1]","[-0.1313394483868182,-0.07587679521805477]","[1,1,1]","[0.04830104024408963,0.0366882524228639]","[1,1,1]","[-0.00651865173574104,0.19184283243209968]","[1,1,1]","[0.06283705725402347,-0.09903951988867407]","[-1,-1,-1]","[0.11041369427752826,0.04556494864701686]","[1,1,1]","[0.012763911372167253,0.059282773332588065]","[-1,-1,-1]","[-0.13408221090702221,0.0505116291039812]","[1,1,1]","[0.1507941606821333,-0.11472613752686758]","[1,1,1]","[-0.11050954593448906,-0.14555699587528548]","[1,1,1]","[-0.02445168729264248,0.07413060670922463]","[1,1,1]","[0.07852441901504194,0.18328883996133333]","[1,1,1]","[0.03036032134470327,-0.14493749477571954]","[1,1,1]","[0.03698286625035829,-0.030834764626895154]","[-1,-1,-1]","[0.09958762310575409,0.104123251373656]","[1,1,1]","[-0.1915458200832038,-0.04501901930809502]","[1,1,1]","[-0.1046827526824599,0.16417923811625776]","[1,1,1]","[0.16495303605070818,0.06867397181051728]","[1,1,1]","[-0.0031653717529619768,-0.16855604672834182]","[1,1,1]","[-0.07572507374270401,0.09387625732291914]","[1,1,1]","[0.18616979392308255,-0.020582216334555786]","[1,1,1]","[0.06586322866878812,0.1427336196259141]","[1,1,1]","[0.02,0.02]",109.0225,0,7,7,195,1,,,,,,,
,,,,,,,67d005119524a1e1d28a2699,682db417c31a43bad456356e,2025-05-21_13h27.05.109,cuing_paradigm_dot,2024.1.5,Win32,59.88023952,682d556593cb38ad0a074487,,,,,,,,,,,109.0232,109.5227,,,109.7737,110.1738,left,0.3685,,,,,,,,,0.1,,,,,,109.5228,109.7735,110.174,"[-0.09796726904003528,-0.07323815043378412]","[-1,-1,-1]","[-0.14857535689963366,-0.13064622335707068]","[-1,-1,-1]","[0.15329926320531376,0.12744877943526983]","[-1,-1,-1]","[-0.008990291050627841,-0.14128250833790687]","[-1,-1,-1]","[-0.09939803077551965,-0.0047948295775900015]","[-1,-1,-1]","[0.023148068360973315,0.06213471694713433]","[-1,-1,-1]","[-0.03334608233923267,-0.05278651008356609]","[-1,-1,-1]","[0.046914097642913696,0.005898050519404004]","[-1,-1,-1]","[0.032229490612805466,-0.17880465834743364]","[-1,-1,-1]","[0.04286448671830154,0.1707956337264436]","[-1,-1,-1]","[-0.09822579196894828,0.035308997440665214]","[-1,-1,-1]","[0.13625716913796315,-0.06620419853020114]","[1,1,1]","[0.11848120092116768,-0.016774152263449416]","[-1,-1,-1]","[0.0030212871140648453,0.19275440225553553]","[-1,-1,-1]","[0.03190309493989781,0.1044625196122803]","[-1,-1,-1]","[-0.15351655523021643,-0.08646170209671537]","[-1,-1,-1]","[-0.04041478625939331,0.11327463482323505]","[-1,-1,-1]","[0.09798467529552415,-0.09813878576428964]","[1,1,1]","[0.13572022915877982,-0.13299116524979965]","[-1,-1,-1]","[-0.01966978581526071,0.1502481528983054]","[-1,-1,-1]","[0.1598453157599805,0.07526352353157147]","[-1,-1,-1]","[-0.08090285575915311,-0.12685735124345876]","[-1,-1,-1]","[-0.1709595796295086,0.06585607197993684]","[-1,-1,-1]","[0.11046623382397396,0.12103548680643676]","[1,1,1]","[0.07906667598084804,-0.03736382981777121]","[-1,-1,-1]","[-0.049071551422044044,0.1777659196354143]","[-1,-1,-1]","[-0.13662897431200371,0.14049906909206988]","[-1,-1,-1]","[0.00457735765879506,-0.06682224972621732]","[-1,-1,-1]","[0.06858438729140112,0.13136373836752147]","[-1,-1,-1]","[-0.0003551020034168134,-0.00613652965685426]","[-1,-1,-1]","[0.17723393784344482,-0.04994685501611713]","[-1,-1,-1]","[0.07638234197496574,-0.136832347723412]","[-1,-1,-1]","[0.02,0.02]",111.2747,0,8,8,1,1,,,,,,,
,,,,,,,67d005119524a1e1d28a2699,682db417c31a43bad456356e,2025-05-21_13h27.05.109,cuing_paradigm_dot,2024.1.5,Win32,59.88023952,682d556593cb38ad0a074487,,,,,,,,,,,111.2758,111.7751,,,112.0262,112.7588,left,0.7075,,,,,,,,,0.45,,,,,,111.7751,112.0261,112.7589,"[-0.03586523389720613,0.030711967315211103]","[1,1,1]","[0.10459402486956175,-0.11877052490625689]","[1,1,1]","[0.1215728933384998,0.023227934123769514]","[1,1,1]","[-0.13553386433143935,0.13797698424218716]","[-1,-1,-1]","[0.011218372359306053,0.17859858993923874]","[-1,-1,-1]","[-0.0659249563406152,0.06905873764845882]","[1,1,1]","[-0.035160481024801724,-0.15185996845054142]","[1,1,1]","[0.1693125845094647,-0.00953914784073781]","[-1,-1,-1]","[0.0617168860767074,0.04565915985205964]","[-1,-1,-1]","[-0.005329434793598309,-0.10796123587704592]","[-1,-1,-1]","[-0.1650732425574788,-0.09158627782173334]","[-1,-1,-1]","[-0.0991449700041065,0.028250979700136857]","[-1,-1,-1]","[0.010380450768647334,0.026020152524908285]","[1,1,1]","[0.07800160780006557,-0.17389954189305373]","[-1,-1,-1]","[-0.030400830125450074,0.09881708159023907]","[-1,-1,-1]","[0.12550827361240735,0.09025018594321291]","[-1,-1,-1]","[0.14571582986535184,-0.04206608091923518]","[-1,-1,-1]","[-0.06825907318487778,-0.05122477722903317]","[-1,-1,-1]","[0.10683060624205415,-0.0522689886301505]","[-1,-1,-1]","[-0.055568914734412334,0.13414135926370538]","[1,1,1]","[0.013286453210644754,-0.18085577549013646]","[-1,-1,-1]","[-0.057025961286212526,-0.10975615183834378]","[1,1,1]","[-0.17122458588751044,-0.027906666188335177]","[1,1,1]","[-0.1708235348669364,0.01656900553357148]","[1,1,1]","[0.1796131832966911,0.03087361660162488]","[1,1,1]","[-0.06597658646217534,0.001811018890903136]","[-1,-1,-1]","[-0.1643208755290867,0.08915045388482071]","[1,1,1]","[-0.027106199766230413,-0.07018737632812505]","[-1,-1,-1]","[0.14845750769254304,-0.09347470203101302]","[1,1,1]","[0.09368560500375815,0.13357968412575735]","[-1,-1,-1]","[-0.13106908763764874,-0.1400070901691737]","[-1,-1,-1]","[0.037891776111782766,-0.12530889506688284]","[1,1,1]","[0.02,0.02]",113.8606,0,9,9,87,1,,,,,,,
,,,,,,,67d005119524a1e1d28a2699,682db417c31a43bad456356e,2025-05-21_13h27.05.109,cuing_paradigm_dot,2024.1.5,Win32,59.88023952,682d556593cb38ad0a074487,,,,,,,,,,,113.8616,114.3611,,,114.6125,115.763,right,1.1191,,,,,,,,,0.55,,,,,,114.3612,114.6123,115.7631,"[0.09121094670815309,0.17600599621628132]","[-1,-1,-1]","[0.03125374876306007,-0.1606037619665987]","[1,1,1]","[-0.10424104212772693,-0.018451855740746547]","[-1,-1,-1]","[-0.09620957184661494,0.1666918844550161]","[1,1,1]","[-0.038617442542202396,0.17317417154434592]","[1,1,1]","[0.041485874241514765,-0.01038705704666147]","[-1,-1,-1]","[0.05295559436866359,0.13541541834412543]","[-1,-1,-1]","[-0.16864303555481014,-0.09424657431666385]","[1,1,1]","[0.09791476885411399,0.018123076737022705]","[1,1,1]","[0.004626382157292443,0.13069943890736666]","[-1,-1,-1]","[-0.09052071758223533,0.10024252899989736]","[1,1,1]","[0.1376955560438478,0.13414309174042852]","[-1,-1,-1]","[0.1328429462518337,-0.07421955900897105]","[-1,-1,-1]","[-0.15694879431745135,-0.005931798127391494]","[1,1,1]","[0.14341853765782234,-0.13619855622098878]","[1,1,1]","[-0.12439654934431897,0.036158488535947275]","[-1,-1,-1]","[-0.029589921271770684,-0.0016502770761878814]","[1,1,1]","[-0.10607528464463103,-0.09798286951448154]","[1,1,1]","[-0.14552982496051603,-0.1349683307642279]","[1,1,1]","[-0.0565309342702272,0.02824541332077885]","[1,1,1]","[-0.006604409475347991,-0.06316095680652936]","[-1,-1,-1]","[0.17012614877816054,-0.05961672320243827]","[-1,-1,-1]","[0.14354292025567827,0.08186832974415996]","[-1,-1,-1]","[-0.021836930287598498,-0.12397732781777313]","[1,1,1]","[0.04512380415653633,-0.09583262034351789]","[1,1,1]","[0.09996361205453504,0.08515563710148433]","[-1,-1,-1]","[-0.09818169924576564,-0.16743531514297197]","[-1,-1,-1]","[0.18132009376987104,-0.0004644113440383439]","[-1,-1,-1]","[-0.033093515562931164,0.07810839200255636]","[1,1,1]","[0.03258091176241252,0.03222040844131574]","[1,1,1]","[-0.1319837038069573,0.09272211378957822]","[1,1,1]","[-0.07238264867538276,-0.12202869001079598]","[1,1,1]","[0.02,0.02]",116.8638,0,10,10,135,1,,,,,,,
,,,,,,,67d005119524a1e1d28a2699,682db417c31a43bad456356e,2025-05-21_13h27.05.109,cuing_paradigm_dot,2024.1.5,Win32,59.88023952,682d556593cb38ad0a074487,,,,,,,,,,,116.8647,117.3643,,,117.6151,118.332,left,0.6871,,,,,,,,,0.55,,,,,,117.3644,117.615,118.3322,"[0.0445165796814355,-0.049532372133972234]","[-1,-1,-1]","[0.00020163838979054101,0.13135457478324797]","[-1,-1,-1]","[-0.13644047799907078,0.1350825946922497]","[1,1,1]","[0.14865486310695683,-0.033273159779559455]","[1,1,1]","[0.11269640383509347,0.143239518539093]","[1,1,1]","[0.02849630343678653,0.178703815202678]","[1,1,1]","[-0.11077370820228254,-0.02578036475975581]","[-1,-1,-1]","[0.13091459289929483,0.06662164084423329]","[1,1,1]","[-0.17933152575295686,0.00914332272288768]","[-1,-1,-1]","[-0.025151555909667715,-0.08571773838100163]","[-1,-1,-1]","[-0.11033368855284596,-0.10825912951388574]","[1,1,1]","[-0.13425961850780116,-0.07156714283537693]","[-1,-1,-1]","[0.027132199519437596,-0.1220464623322574]","[1,1,1]","[0.08834117023067153,0.05470094545220943]","[-1,-1,-1]","[-0.049467484114828375,-0.12173088434195381]","[1,1,1]","[0.007400813726954573,-0.16822113081069692]","[1,1,1]","[-0.02163646260948074,0.05369469766800878]","[1,1,1]","[0.049130277305932724,0.10601304115048207]","[1,1,1]","[0.06403866702995589,0.1506721473506727]","[1,1,1]","[-0.050011715447779395,-0.036215258693991816]","[1,1,1]","[-0.05239523483217983,0.015587188874617007]","[1,1,1]","[-0.11454683939847025,0.0316064439844915]","[-1,-1,-1]","[0.10731878896213162,-0.00014206386766341472]","[1,1,1]","[0.041099077076861924,-0.19297266859441523]","[-1,-1,-1]","[0.02665135014798655,0.04404208438045917]","[1,1,1]","[-0.04204768984282327,0.16125389054316536]","[-1,-1,-1]","[-0.06038693202428537,0.10559535733917577]","[-1,-1,-1]","[0.10813394561872654,-0.05930181871565952]","[-1,-1,-1]","[0.1293441587564122,-0.11054088962874678]","[-1,-1,-1]","[0.07866317156712482,-0.14775741502144918]","[-1,-1,-1]","[-0.158243390208574,0.10144680450569137]","[1,1,1]","[0.1886663460639027,-0.019837688215966563]","[1,1,1]","[0.02,0.02]",119.4325,0,11,11,123,1,,,,,,,
,,,,,,,67d005119524a1e1d28a2699,682db417c31a43bad456356e,2025-05-21_13h27.05.109,cuing_paradigm_dot,2024.1.5,Win32,59.88023952,682d556593cb38ad0a074487,,,,,,,,,,,119.4334,119.9333,,,120.1845,121.1345,right,0.9189,,,,,,,,,0.6,,,,,,119.9334,120.1844,121.1346,"[0.02742397556866024,0.1618346460826665]","[-1,-1,-1]","[0.04641008092499358,0.02835437749528418]","[1,1,1]","[0.009938509536396438,-0.0735640957378464]","[1,1,1]","[-0.07479738818633389,-0.014836161920355473]","[-1,-1,-1]","[-0.10656143951354333,-0.04804749421615958]","[1,1,1]","[0.15085901496006945,0.0008083780885268641]","[1,1,1]","[-0.10226251070547014,-0.09833935808484597]","[-1,-1,-1]","[0.04031051721252132,0.11752499281387412]","[1,1,1]","[-0.14974512123973843,-0.07440242636275171]","[-1,-1,-1]","[-0.013630617467085797,0.0407668924063948]","[1,1,1]","[0.13048243928644954,-0.04757889711422688]","[1,1,1]","[0.15743040714469178,-0.11404032265246353]","[1,1,1]","[-0.16009466197778227,0.05246086005613241]","[-1,-1,-1]","[0.12746602910760058,0.1034067669420814]","[1,1,1]","[-0.032853338611358036,0.1830063859139532]","[-1,-1,-1]","[-0.03267633365466419,-0.005454216574375189]","[1,1,1]","[0.060288707761369346,-0.10903315102473943]","[-1,-1,-1]","[-0.042687888753365724,0.10600189437173739]","[-1,-1,-1]","[-0.07466338506856375,0.17277456825876475]","[-1,-1,-1]","[0.008208910423741406,-0.18989084445803756]","[-1,-1,-1]","[0.010403532778691398,-0.004786620889780959]","[1,1,1]","[0.06682087999681376,-0.01237790241312693]","[1,1,1]","[-0.026049463102358013,-0.12331336063429121]","[1,1,1]","[0.11333774009019379,0.041709785990247855]","[1,1,1]","[-0.1279618254589209,-0.010086658263187475]","[-1,-1,-1]","[-0.11971763878182291,0.06682752917819457]","[-1,-1,-1]","[0.11500919607629805,-0.0857676949948328]","[1,1,1]","[-0.06302512516959483,0.05771755414843399]","[1,1,1]","[-0.052206241017748144,-0.18995372835260324]","[1,1,1]","[-0.15501293199301097,0.09616850528353454]","[1,1,1]","[0.1056692291023565,-0.12850365631245442]","[1,1,1]","[0.07159799614109466,-0.1815465046330332]","[-1,-1,-1]","[0.02,0.02]",122.2356,0,12,12,159,1,,,,,,,
,,,,,,,67d005119524a1e1d28a2699,682db417c31a43bad456356e,2025-05-21_13h27.05.109,cuing_paradigm_dot,2024.1.5,Win32,59.88023952,682d556593cb38ad0a074487,,,,,,,,,,,122.2365,122.7361,,,122.9872,123.7707,left,0.7555,,,,,,,,,0.5,,,,,,122.7362,122.9872,123.7708,"[0.044317730981299805,0.019188725260972556]","[-1,-1,-1]","[-0.08535540485490838,-0.06383372265989573]","[-1,-1,-1]","[0.17936125617704207,0.0632623982124717]","[1,1,1]","[-0.019459564740236537,-0.09683760866701996]","[1,1,1]","[0.12648128572906828,0.06751861059600109]","[1,1,1]","[-0.13988335787238543,-0.059045387359530514]","[1,1,1]","[-0.10512511679007609,0.1357082357110809]","[1,1,1]","[-0.09597275126642192,0.01960333330712608]","[-1,-1,-1]","[0.03245308354887525,-0.09200400142353936]","[1,1,1]","[0.07101819450117657,-0.0323609757514832]","[-1,-1,-1]","[0.17811155780951632,0.022081897138146376]","[-1,-1,-1]","[0.007590573974107482,0.044597250380182314]","[1,1,1]","[0.07647158187245248,-0.13225177686578646]","[1,1,1]","[-0.11733860237952497,0.06429529623596002]","[-1,-1,-1]","[0.13744799013038478,-0.07565443134639599]","[-1,-1,-1]","[-0.150329912037645,0.09214405629793558]","[-1,-1,-1]","[-0.17407572026477125,0.0336840932547267]","[-1,-1,-1]","[-0.03942264634687991,-0.1476753209869142]","[1,1,1]","[0.10206080744758272,0.16832168945947337]","[-1,-1,-1]","[-0.03342671030220288,0.1885232875707545]","[-1,-1,-1]","[0.005532436688492392,0.10840395373812702]","[-1,-1,-1]","[0.12638852181955507,0.13368562384114133]","[-1,-1,-1]","[-0.036402773232042815,0.13062153647456062]","[1,1,1]","[0.08000005846154788,0.11439386475765678]","[-1,-1,-1]","[0.0974854056174194,0.0018645290980777508]","[1,1,1]","[0.023627613253320037,-0.025238021305334455]","[-1,-1,-1]","[0.06557753063345889,-0.17483428399702108]","[1,1,1]","[0.1792173003732033,-0.018283737542910388]","[1,1,1]","[0.11943778989801658,-0.1589853779986629]","[1,1,1]","[-0.16785875668408892,-0.024095663147144897]","[1,1,1]","[-0.08185490430644943,-0.16713712807500467]","[-1,-1,-1]","[-0.11953219144246348,-0.12060387214546824]","[1,1,1]","[0.02,0.02]",124.8716,0,13,13,96,1,,,,,,,
,,,,,,,67d005119524a1e1d28a2699,682db417c31a43bad456356e,2025-05-21_13h27.05.109,cuing_paradigm_dot,2024.1.5,Win32,59.88023952,682d556593cb38ad0a074487,,,,,,,,,,,124.8724,125.3723,,,125.6231,126.2069,left,0.5515,,,,,,,,,0.4,,,,,,125.3724,125.623,126.2071,"[-0.10812409767008084,0.0077537654344044405]","[1,1,1]","[-0.04743239706168609,0.04891506622144957]","[1,1,1]","[0.10009528851082236,0.1326674395566928]","[1,1,1]","[-0.1508931681391487,0.11299946180495274]","[-1,-1,-1]","[0.09751908165179093,0.012215661377927012]","[-1,-1,-1]","[0.12845363182424793,0.04994962489611506]","[-1,-1,-1]","[0.020141046503526355,-0.10631043005733089]","[1,1,1]","[-0.06698062814781956,-0.006246314829605784]","[1,1,1]","[0.18559811877207114,-0.057140293553930285]","[1,1,1]","[0.11194383726938689,-0.15118649529381986]","[-1,-1,-1]","[-0.14665357958340652,-0.10027330751885821]","[1,1,1]","[-0.01877988474461633,-0.05651918292643551]","[-1,-1,-1]","[-0.036484258765797334,-0.1829088050525212]","[1,1,1]","[-0.003713232030666989,0.1979830366769964]","[-1,-1,-1]","[-0.138272912027178,0.06595631175906941]","[1,1,1]","[0.1432558903408447,0.13163305878870116]","[-1,-1,-1]","[-0.05977922688592534,0.1596444294593015]","[1,1,1]","[0.04757893132815954,-0.1667662068686386]","[-1,-1,-1]","[0.1800214072556253,0.0010540472214187083]","[1,1,1]","[0.07676367367899821,-0.04760137930323139]","[-1,-1,-1]","[-0.07069043617112929,-0.11873951749965274]","[-1,-1,-1]","[-0.15469875892767943,-0.047943593322765966]","[-1,-1,-1]","[0.057369772446222975,0.07176423435079662]","[-1,-1,-1]","[0.03470556528528017,-0.036447924232051745]","[-1,-1,-1]","[-0.06900807346208801,-0.0743698934339728]","[-1,-1,-1]","[0.05597114161137177,0.020168261067771788]","[-1,-1,-1]","[0.1724333352907676,0.06438952654517884]","[1,1,1]","[0.12172391525324076,-0.10619927076979502]","[-1,-1,-1]","[-0.005006269634460612,0.1272467693107278]","[-1,-1,-1]","[-0.00005866290723117837,0.07436846595938228]","[1,1,1]","[0.002251046174795505,-0.19650282832085095]","[-1,-1,-1]","[0.12694091197652005,-0.017498232185126014]","[-1,-1,-1]","[0.02,0.02]",127.3072,0,14,14,31,1,,,,,,,
,,,,,,,67d005119524a1e1d28a2699,682db417c31a43bad456356e,2025-05-21_13h27.05.109,cuing_paradigm_dot,2024.1.5,Win32,59.88023952,682d556593cb38ad0a074487,,,,,,,,,,,127.308,127.808,,,128.0479,128.609,left,0.5348,,,,,,,,,0.55,,,,,,127.8081,128.0477,128.6091,"[-0.019111681629086323,0.083640814606696]","[1,1,1]","[0.07746838135307813,0.025987753877814764]","[1,1,1]","[-0.12435283180399473,0.0627065212729953]","[-1,-1,-1]","[-0.060170556680936974,-0.1234046677624931]","[-1,-1,-1]","[-0.0925766526517017,0.16531804790384963]","[1,1,1]","[-0.18282192550254128,-0.07277787518565308]","[1,1,1]","[-0.11620406666406022,-0.0987737046511453]","[1,1,1]","[0.1252575285630182,0.10610875825737774]","[1,1,1]","[0.12654645249466986,0.14883495056496998]","[-1,-1,-1]","[0.024736899793664117,0.1694098107171751]","[-1,-1,-1]","[-0.06859823041296417,-0.0012901148343594866]","[-1,-1,-1]","[0.19601244496337597,0.013929053870870286]","[1,1,1]","[0.16972562578797307,0.07103637594624615]","[1,1,1]","[0.09170245931728531,-0.1198874499992809]","[1,1,1]","[0.10825884546537103,-0.008505223013647931]","[-1,-1,-1]","[0.03795233678678064,-0.12823226821257297]","[-1,-1,-1]","[-0.037129371846104486,0.03427395848043288]","[-1,-1,-1]","[-0.18115331571321927,0.07842595483599502]","[-1,-1,-1]","[-0.012517453745388821,-0.019359824460723336]","[1,1,1]","[-0.11106909691709717,-0.0001689289120147685]","[-1,-1,-1]","[0.14178401138302135,-0.12469300588949382]","[1,1,1]","[-0.007385769163848273,-0.09355750013035677]","[-1,-1,-1]","[-0.15246745908478407,-0.01095716459827531]","[1,1,1]","[-0.08976348769957414,0.09059846097692859]","[1,1,1]","[0.06704790885751434,-0.044244083603814884]","[-1,-1,-1]","[0.14405846758914187,0.037688978919461644]","[1,1,1]","[-0.05672092529149347,-0.19090685960983286]","[1,1,1]","[-0.018073501413681584,-0.16099768178403456]","[-1,-1,-1]","[0.166630629379116,-0.016921249601535102]","[-1,-1,-1]","[0.12828448161526976,-0.05497083262949823]","[1,1,1]","[-0.05290566835407814,0.12551869555880815]","[1,1,1]","[0.03671193579359806,0.07112756582716888]","[1,1,1]","[0.02,0.02]",129.7095,0,15,15,147,1,,,,,,,
,,,,,,,67d005119524a1e1d28a2699,682db417c31a43bad456356e,2025-05-21_13h27.05.109,cuing_paradigm_dot,2024.1.5,Win32,59.88023952,682d556593cb38ad0a074487,,,,,,,,,,,129.7106,130.2097,,,130.4608,130.961,right,0.468,,,,,,,,,0.55,,,,,,130.2098,130.4608,130.9611,"[0.10820122413434892,0.15589727818906798]","[1,1,1]","[0.11822050080233436,-0.09623874780695008]","[1,1,1]","[-0.18310041189966877,0.018638280340081158]","[-1,-1,-1]","[0.10325619211705032,-0.022873017061250746]","[1,1,1]","[-0.08465483565329258,0.1480192760343103]","[-1,-1,-1]","[-0.005018424894213905,0.1585628041771314]","[1,1,1]","[-0.002118665324032462,0.08228248808638237]","[-1,-1,-1]","[0.039520974754721855,0.16285553872463931]","[-1,-1,-1]","[-0.14128526220612903,-0.10430599508569281]","[1,1,1]","[-0.11819986465720768,0.031954591343163675]","[-1,-1,-1]","[0.14638807207745927,0.07026309235039477]","[-1,-1,-1]","[0.049590722893322774,0.07425037737783681]","[1,1,1]","[-0.1344281225681568,-0.008257350829776218]","[1,1,1]","[0.005428916019146036,-0.1538205510526979]","[-1,-1,-1]","[-0.07895975281983098,0.1073971438359908]","[-1,-1,-1]","[0.15957498191306044,-0.08356429344541544]","[-1,-1,-1]","[0.10206172482360343,0.0514063925677611]","[-1,-1,-1]","[-0.1840144392118386,-0.043059177573505435]","[1,1,1]","[-0.00987749459173586,0.024580096284928476]","[1,1,1]","[-0.10658278258765104,-0.15846733169295452]","[1,1,1]","[0.04034087600749369,0.02791949481283043]","[1,1,1]","[-0.037931810531900444,-0.16049585323474358]","[1,1,1]","[0.05727014386231056,-0.09345261435315375]","[1,1,1]","[-0.13698921063729427,0.12855663346322518]","[1,1,1]","[0.0669515045127883,-0.050282180809508165]","[-1,-1,-1]","[0.004759122386956727,-0.03868662300556809]","[-1,-1,-1]","[-0.03359396591165791,0.11810304456617951]","[1,1,1]","[0.08428714281951674,0.09575704229589041]","[1,1,1]","[-0.05507369776482517,0.012285566554364656]","[1,1,1]","[0.17871469779328164,-0.028158763281384617]","[-1,-1,-1]","[0.13399577123854484,0.12066524840586461]","[1,1,1]","[0.14098286587720937,0.009865722104723019]","[-1,-1,-1]","[0.02,0.02]",132.0618,0,16,16,131,1,,,,,,,
,,,,,,,67d005119524a1e1d28a2699,682db417c31a43bad456356e,2025-05-21_13h27.05.109,cuing_paradigm_dot,2024.1.5,Win32,59.88023952,682d556593cb38ad0a074487,,,,,,,,,,,132.0625,132.5621,,,132.8135,133.6302,left,0.785,,,,,,,,,0.4,,,,,,132.5622,132.8133,133.6303,"[0.13428211236537263,-0.011590083348468424]","[1,1,1]","[-0.17906669184169294,-0.051852001394072714]","[-1,-1,-1]","[0.19442369383161,0.034262108003537795]","[-1,-1,-1]","[-0.013227444312569801,-0.05011807116276117]","[-1,-1,-1]","[-0.1304828497724263,-0.11503905795553124]","[-1,-1,-1]","[0.03267058797107789,-0.18845392518195908]","[-1,-1,-1]","[-0.021063348233008535,-0.12771467957401678]","[1,1,1]","[-0.07055560076838838,-0.16588845501960256]","[-1,-1,-1]","[0.1474626852463082,0.028914566322103073]","[-1,-1,-1]","[-0.03693060707244378,0.039650199791307135]","[-1,-1,-1]","[-0.03438403848248009,0.10736161707261642]","[1,1,1]","[0.15230107309783492,-0.10209540504838516]","[1,1,1]","[0.11911454867562692,-0.0776357549827281]","[-1,-1,-1]","[-0.004010789115441499,0.06557680371702658]","[1,1,1]","[-0.03362350165518344,0.18668329203912143]","[-1,-1,-1]","[0.12927017251980566,-0.13554893663290482]","[-1,-1,-1]","[0.12672504227473463,0.06733091288856967]","[-1,-1,-1]","[0.051593301886397526,0.16903934576173898]","[-1,-1,-1]","[-0.01557360465213209,-0.17191410580683697]","[1,1,1]","[0.07984630989226252,0.031066897660079057]","[1,1,1]","[-0.10787030030406844,0.0935109224022156]","[1,1,1]","[0.04954936663338027,-0.010604789990397186]","[-1,-1,-1]","[0.04118968753816546,-0.09600150727770346]","[-1,-1,-1]","[-0.08643964612867959,-0.023561481564867613]","[-1,-1,-1]","[-0.1246782255031445,-0.03884115947096898]","[-1,-1,-1]","[0.011314345888640602,0.1447560450542967]","[1,1,1]","[-0.09486929626531429,-0.07652259652816566]","[1,1,1]","[0.047993840188833806,0.07658513963191069]","[1,1,1]","[-0.11723430275672538,0.04673445537847963]","[-1,-1,-1]","[-0.15889648422880076,0.0421963616767399]","[-1,-1,-1]","[-0.15467196101120476,0.1126851430105987]","[1,1,1]","[-0.17815815568151103,-0.011269930556347302]","[1,1,1]","[0.02,0.02]",134.731,0,17,17,48,1,,,,,,,
,,,,,,,67d005119524a1e1d28a2699,682db417c31a43bad456356e,2025-05-21_13h27.05.109,cuing_paradigm_dot,2024.1.5,Win32,59.88023952,682d556593cb38ad0a074487,,,,,,,,,,,134.7318,135.2315,,,135.4827,136.1997,left,0.6913,,,,,,,,,0.45,,,,,,135.2316,135.4825,136.1998,"[0.09131386966965564,0.1262355901823964]","[-1,-1,-1]","[-0.11570171026694853,-0.07949042805781574]","[-1,-1,-1]","[-0.035275064804881615,0.021496574957078185]","[-1,-1,-1]","[-0.11499124946461725,0.0571017973396101]","[-1,-1,-1]","[0.11594174603311647,-0.055482600285252585]","[1,1,1]","[-0.0420766634881172,-0.0978564145404222]","[-1,-1,-1]","[-0.02104933915775133,0.13985036330917913]","[1,1,1]","[0.10061727133470466,0.16741917401470244]","[1,1,1]","[0.019514911930298407,0.07356066038563706]","[1,1,1]","[-0.04879306610368269,0.06729957321218102]","[-1,-1,-1]","[0.05422791699646146,-0.18502076314739874]","[-1,-1,-1]","[0.1556919205092161,-0.10021708219292429]","[-1,-1,-1]","[0.12121620593268198,-0.1282861249993062]","[1,1,1]","[-0.08776022374629598,-0.17735086748015372]","[1,1,1]","[0.07794592122430707,-0.008977676736115261]","[1,1,1]","[-0.09840170469188819,0.1279125602345204]","[1,1,1]","[-0.058554127350198895,0.18969443693552185]","[-1,-1,-1]","[0.1967110531764356,0.034729997429638455]","[1,1,1]","[0.08960130441545411,0.05809050486680533]","[-1,-1,-1]","[-0.18467624453680875,-0.03957031981284192]","[-1,-1,-1]","[0.03574131036964958,0.13113691370774297]","[-1,-1,-1]","[-0.006077121939904198,-0.009141885441407446]","[1,1,1]","[0.06155931208227176,-0.10521642634001911]","[1,1,1]","[-0.13430940263296448,0.021903160503097267]","[-1,-1,-1]","[-0.003228788349245593,-0.07047584267274298]","[-1,-1,-1]","[-0.08535549431911597,0.020203352270905646]","[-1,-1,-1]","[-0.003195432171135729,-0.11573703111999388]","[1,1,1]","[-0.01924682972017232,-0.18416244150263142]","[-1,-1,-1]","[0.15835978901039088,0.062226545346523256]","[-1,-1,-1]","[0.029302721256782197,-0.04240659021745995]","[1,1,1]","[0.057551477094188445,0.18931234809187167]","[-1,-1,-1]","[-0.061275886101404074,-0.026732791619538947]","[1,1,1]","[0.02,0.02]",137.3002,0,18,18,83,1,,,,,,,
,,,,,,,67d005119524a1e1d28a2699,682db417c31a43bad456356e,2025-05-21_13h27.05.109,cuing_paradigm_dot,2024.1.5,Win32,59.88023952,682d556593cb38ad0a074487,,,,,,,,,,,137.3009,137.8007,,,138.0516,138.7528,right,0.6692,,,,,,,,,0.4,,,,,,137.8008,138.0516,138.753,"[-0.07297869625596827,-0.12759038717960944]","[1,1,1]","[-0.023309269223148157,0.027465659383844366]","[1,1,1]","[-0.10933547886945554,0.12400537917919427]","[-1,-1,-1]","[0.06918579989328465,-0.08964312784058906]","[1,1,1]","[0.11761963279404823,0.02126210866246173]","[1,1,1]","[0.09027442026411504,0.14526766787420953]","[-1,-1,-1]","[-0.04665210976836889,0.10578686562805481]","[-1,-1,-1]","[-0.04086138538975449,-0.06336955955325094]","[1,1,1]","[0.10052846424056316,-0.11959482337982726]","[-1,-1,-1]","[-0.1428828842399345,-0.015461670675754557]","[-1,-1,-1]","[0.166857786006001,-0.023068963016038637]","[-1,-1,-1]","[-0.12974042509449216,-0.06652022831376121]","[1,1,1]","[0.11303333300311642,-0.06793117116269318]","[1,1,1]","[-0.01927085516925421,-0.13973971132824498]","[-1,-1,-1]","[-0.12550858804076762,0.025249265931256256]","[1,1,1]","[-0.048575059095193135,-0.18929303549608043]","[-1,-1,-1]","[0.05858225679100374,0.07316786282009757]","[1,1,1]","[0.1498912989445066,0.04583647290963772]","[-1,-1,-1]","[0.01058019399158637,-0.18763001232601742]","[1,1,1]","[0.021588046524173513,0.19658221059474446]","[-1,-1,-1]","[-0.18176721436963975,-0.003359919053168317]","[-1,-1,-1]","[-0.12492234642113731,-0.12077045410428544]","[-1,-1,-1]","[0.0024637814124884123,-0.08170192570386707]","[-1,-1,-1]","[0.05517978740340861,-0.13285268693472282]","[-1,-1,-1]","[-0.05761025104598584,0.18699210413307088]","[-1,-1,-1]","[0.056373941587082824,-0.04397673746560273]","[1,1,1]","[-0.0863802784173446,-0.033960852499232926]","[-1,-1,-1]","[0.0315859687598437,-0.00020086001947310515]","[1,1,1]","[-0.17385058747955964,-0.06229058306209426]","[-1,-1,-1]","[0.19392442336368615,0.03432675125119528]","[1,1,1]","[-0.003439659920137828,0.10841452559816321]","[-1,-1,-1]","[0.12574736017904875,0.11459561057250649]","[-1,-1,-1]","[0.02,0.02]",139.8532,0,19,19,37,1,,,,,,,
,,,,,,,67d005119524a1e1d28a2699,682db417c31a43bad456356e,2025-05-21_13h27.05.109,cuing_paradigm_dot,2024.1.5,Win32,59.88023952,682d556593cb38ad0a074487,,,,,,,,,,,139.8541,140.3533,,,140.6051,141.2718,left,0.6418,,,,,,,,,0.1,,,,,,140.3535,140.6049,141.2719,"[0.1739283498807465,0.07810658373031278]","[-1,-1,-1]","[-0.09968736015794179,0.1621444434101278]","[-1,-1,-1]","[0.0555402112821737,0.007543276719737763]","[-1,-1,-1]","[-0.06573907939244207,0.06348476381648496]","[-1,-1,-1]","[0.03139957230741115,0.1636552202468389]","[-1,-1,-1]","[0.13865777768022583,-0.04712022376090478]","[-1,-1,-1]","[-0.01949080541440543,0.0705333489466194]","[-1,-1,-1]","[0.022377899189301786,-0.1319416540125052]","[1,1,1]","[-0.003257470393123491,-0.005451892018160347]","[-1,-1,-1]","[-0.1709411767644875,-0.07465919382952303]","[-1,-1,-1]","[0.09576007341511707,0.08117862006685976]","[-1,-1,-1]","[-0.04385613502716226,-0.14603363229704722]","[-1,-1,-1]","[-0.14849794249300238,0.05402777991530026]","[-1,-1,-1]","[-0.19222367229001736,0.000978789078310362]","[-1,-1,-1]","[0.07187636537976992,0.14058972887976065]","[-1,-1,-1]","[0.13797404249442385,0.09589518247592635]","[-1,-1,-1]","[-0.1342300963312738,-0.12867152021667666]","[-1,-1,-1]","[0.03894713233364246,-0.1830845434238988]","[-1,-1,-1]","[-0.13040236582920525,0.00008181478979352828]","[-1,-1,-1]","[0.08173947653546992,-0.07310427462410736]","[-1,-1,-1]","[-0.11785891169953903,0.11998736233974579]","[-1,-1,-1]","[0.041938226136470594,0.1121367954172388]","[-1,-1,-1]","[0.010218239855186672,-0.0937158589930334]","[-1,-1,-1]","[-0.041389807316424915,0.12489008983636057]","[-1,-1,-1]","[0.18828863646404145,-0.06540367525371979]","[-1,-1,-1]","[-0.08436987758836492,-0.032562324250497966]","[-1,-1,-1]","[0.16475548387822075,-0.10218092675637974]","[-1,-1,-1]","[0.05302315576307051,0.0627793113826957]","[-1,-1,-1]","[-0.041800649412194156,-0.07688622677467626]","[1,1,1]","[0.11870886120541152,0.13585373171871382]","[-1,-1,-1]","[0.19480292349273137,0.04274454038450256]","[-1,-1,-1]","[-0.14955886717900574,0.09494979749989098]","[1,1,1]","[0.02,0.02]",142.3721,0,20,20,21,1,,,,,,,
,,,,,,,67d005119524a1e1d28a2699,682db417c31a43bad456356e,2025-05-21_13h27.05.109,cuing_paradigm_dot,2024.1.5,Win32,59.88023952,682d556593cb38ad0a074487,,,,,,,,,,,142.3729,142.8728,,,143.1296,143.8577,left,0.7018,,,,,,,,,0.45,,,,,,142.8729,143.1295,143.8579,"[-0.007019420459132324,-0.1812067347879682]","[-1,-1,-1]","[0.17029815763610415,0.07232726756832415]","[1,1,1]","[-0.011332244313588525,0.1677636875506487]","[-1,-1,-1]","[-0.008709524361944932,0.08871866480325605]","[-1,-1,-1]","[0.04308769493014523,0.08900692651404822]","[1,1,1]","[-0.1193573521798922,0.06430756501321869]","[1,1,1]","[-0.11663336486860786,-0.013895480303356838]","[-1,-1,-1]","[-0.0469940231591911,-0.12387645489912297]","[1,1,1]","[0.19845117799044418,0.010246405827782756]","[-1,-1,-1]","[0.12688826576470041,0.014357018571894021]","[-1,-1,-1]","[0.046360780703935796,-0.12499405344790718]","[1,1,1]","[0.12279896556121202,0.07025326645759683]","[-1,-1,-1]","[-0.04783130037667846,-0.08061845025669738]","[-1,-1,-1]","[-0.0388807430055661,-0.02187593712932458]","[-1,-1,-1]","[-0.13198118055554794,-0.14533091510348584]","[1,1,1]","[-0.17424831183444506,-0.09453779856762627]","[-1,-1,-1]","[-0.10346064009539843,0.13976551376623816]","[-1,-1,-1]","[-0.05361649639543544,0.1344046061999111]","[1,1,1]","[0.14972567728353253,0.1085401045900085]","[-1,-1,-1]","[0.12340414375892964,0.1570413154501138]","[1,1,1]","[-0.1261901843528298,0.10646883819045967]","[-1,-1,-1]","[0.1152357253540887,-0.10246144443919751]","[1,1,1]","[0.17769247228504625,-0.03478271243491515]","[-1,-1,-1]","[0.055179108698755024,-0.07605861158469476]","[1,1,1]","[0.08623116737680582,0.1719647028078644]","[1,1,1]","[0.016411918040194966,0.12008237328655522]","[1,1,1]","[-0.007442221753384492,-0.13727270306469716]","[1,1,1]","[-0.16604513233430457,0.024526837850845924]","[-1,-1,-1]","[-0.06579160767138031,0.01744023056196725]","[1,1,1]","[-0.006877224420144078,-0.08857124749343001]","[-1,-1,-1]","[-0.019488634218681425,0.04437276030331984]","[-1,-1,-1]","[0.015806412159572205,-0.03563310231005315]","[-1,-1,-1]","[0.02,0.02]",144.9582,0,21,21,89,1,,,,,,,
,,,,,,,67d005119524a1e1d28a2699,682db417c31a43bad456356e,2025-05-21_13h27.05.109,cuing_paradigm_dot,2024.1.5,Win32,59.88023952,682d556593cb38ad0a074487,,,,,,,,,,,144.9593,145.4593,,,145.7096,146.5767,left,0.8351,,,,,,,,,0.5,,,,,,145.4594,145.7096,146.5769,"[0.10113580532023472,0.10773131648036573]","[1,1,1]","[0.03146524938231837,-0.19623258991615788]","[-1,-1,-1]","[0.07833839676246723,-0.07603099858259546]","[-1,-1,-1]","[-0.08523974492202127,-0.007363775914543908]","[-1,-1,-1]","[-0.028047066590279612,-0.1555300224902011]","[1,1,1]","[0.1476043937111748,-0.019742517738776475]","[-1,-1,-1]","[0.13164664091608588,0.03871376875920577]","[-1,-1,-1]","[0.14758572418596816,-0.07962074890843895]","[-1,-1,-1]","[-0.05798657531141757,0.15685743938172775]","[1,1,1]","[0.19316434035261357,0.02981999783469952]","[1,1,1]","[-0.08152420435119107,-0.06539821187994165]","[-1,-1,-1]","[-0.03520063289122097,0.09955667295350079]","[1,1,1]","[-0.030261244091536535,-0.01865696813103508]","[1,1,1]","[-0.17371705573204427,-0.0714460196244407]","[-1,-1,-1]","[0.16662157228304145,0.08262047559818049]","[-1,-1,-1]","[0.005589197661617776,-0.06200775877912261]","[1,1,1]","[0.03962820217685905,0.10802159970437071]","[-1,-1,-1]","[0.04517716872316371,-0.024992673129162545]","[-1,-1,-1]","[0.03361460854903737,-0.12181960059740951]","[1,1,1]","[-0.07022415089987769,-0.11564765368412143]","[1,1,1]","[-0.10512014389476795,0.06259481876603773]","[1,1,1]","[-0.05491969599279894,0.0238943523364872]","[1,1,1]","[0.011896951835766032,0.1792187643752474]","[-1,-1,-1]","[0.0517761756758397,0.16150489635932405]","[1,1,1]","[-0.1523654439559022,-0.007591904625466601]","[-1,-1,-1]","[-0.18051620660009407,0.047177965782711814]","[1,1,1]","[-0.15721842655225496,0.12228809315996184]","[-1,-1,-1]","[0.14918645283344137,-0.12603516400868586]","[-1,-1,-1]","[-0.006549071246652636,0.037700009441787107]","[1,1,1]","[0.09019210274998678,0.06579969463501761]","[1,1,1]","[0.09708319418313566,-0.15358267844244367]","[-1,-1,-1]","[-0.09333128662792813,0.11621499549725169]","[1,1,1]","[0.02,0.02]",147.6778,0,22,22,97,1,,,,,,,
,,,,,,,67d005119524a1e1d28a2699,682db417c31a43bad456356e,2025-05-21_13h27.05.109,cuing_paradigm_dot,2024.1.5,Win32,59.88023952,682d556593cb38ad0a074487,,,,,,,,,,,147.6786,148.1783,,,148.4292,149.4128,left,0.961,,,,,,,,,0.45,,,,,,148.1784,148.4292,149.4128,"[0.08658797306145317,0.04125831531834383]","[1,1,1]","[0.10190009459748288,0.13590097349416885]","[-1,-1,-1]","[0.1845756372495201,0.04363932456155987]","[-1,-1,-1]","[-0.013656636366144597,-0.035587043899074876]","[-1,-1,-1]","[0.055590838323080226,-0.18866396132580765]","[-1,-1,-1]","[0.1448998971847669,-0.10489044453722246]","[-1,-1,-1]","[-0.08519388559880484,-0.17822802448291272]","[-1,-1,-1]","[0.059182213026153764,-0.01677466826321347]","[1,1,1]","[-0.04238048664293531,0.11075032439078908]","[-1,-1,-1]","[0.15056776599179572,-0.046614384102740214]","[-1,-1,-1]","[-0.17527940183181254,0.06889872075703941]","[1,1,1]","[-0.1352692166610744,0.12129162008229535]","[-1,-1,-1]","[-0.10241738866329497,0.15701967323660124]","[1,1,1]","[-0.021343360717528473,0.02291514151463491]","[1,1,1]","[-0.009093674835593169,-0.10305315931556544]","[1,1,1]","[-0.07613079375485013,0.04287918155225769]","[1,1,1]","[0.00035518783887892425,0.09284180146534678]","[-1,-1,-1]","[-0.11776802893655014,0.06109390277575967]","[-1,-1,-1]","[0.005578731659864648,0.16677554175078999]","[1,1,1]","[0.1161473402037183,0.002459061196606657]","[-1,-1,-1]","[-0.07137567470442605,-0.03108735558401082]","[-1,-1,-1]","[0.04697589326327272,0.05831193651957934]","[-1,-1,-1]","[0.058061002365618994,0.18006020324543545]","[1,1,1]","[-0.06710242903140422,-0.07481326407874787]","[1,1,1]","[0.08636950546094425,-0.050142712769105015]","[-1,-1,-1]","[0.1064205961337419,0.0926894643424135]","[1,1,1]","[-0.1045500160852166,0.009945444962366453]","[1,1,1]","[0.030297734913706603,-0.14208418600600597]","[1,1,1]","[0.119352265339926,-0.1493429107814729]","[-1,-1,-1]","[-0.12847822594037261,-0.05133303544261422]","[-1,-1,-1]","[-0.012573978982428635,-0.16869693702585786]","[-1,-1,-1]","[0.19346103400147915,-0.025617511121016987]","[1,1,1]","[0.02,0.02]",150.5138,0,23,23,82,1,,,,,,,
,,,,,,,67d005119524a1e1d28a2699,682db417c31a43bad456356e,2025-05-21_13h27.05.109,cuing_paradigm_dot,2024.1.5,Win32,59.88023952,682d556593cb38ad0a074487,,,,,,,,,,,150.5147,151.0143,,,151.2655,151.9985,right,0.7016,,,,,,,,,0.9,,,,,,151.0144,151.2653,151.9987,"[-0.08017349858967462,-0.0942520882128348]","[1,1,1]","[0.0441162681554741,0.013016084591689524]","[1,1,1]","[0.03825238128451865,-0.14665424612425448]","[1,1,1]","[0.19245087660175644,0.035692292461760255]","[1,1,1]","[0.050688347399437596,-0.06922356946109465]","[1,1,1]","[-0.11414033365903038,0.09769273442918897]","[1,1,1]","[-0.10833216038530835,-0.04572878783015304]","[1,1,1]","[0.008665204203977265,0.1372552091345595]","[1,1,1]","[0.08132521535980954,0.13327418990680448]","[-1,-1,-1]","[0.016084907307071888,0.05426381036428138]","[1,1,1]","[-0.11827096821074821,0.009955829645448834]","[1,1,1]","[-0.037609204553822405,0.09087421658188485]","[1,1,1]","[-0.1479278732871451,-0.02255021044318764]","[1,1,1]","[0.15597143287119672,-0.08180342709024836]","[1,1,1]","[-0.024904087414529534,0.16790918982920125]","[1,1,1]","[-0.1607717777293453,-0.0918343815229728]","[1,1,1]","[-0.048187540280175,0.019571965417258915]","[1,1,1]","[-0.013175228549544074,-0.11109949954181872]","[1,1,1]","[-0.05924964350328207,-0.15125895608122938]","[1,1,1]","[0.10198149586931562,-0.11702092118900234]","[1,1,1]","[0.07276007094977573,0.06752026430990295]","[1,1,1]","[-0.19697065336766048,-0.01887828540809198]","[1,1,1]","[0.11415627518197667,-0.03646815775352908]","[1,1,1]","[0.13014693395706578,0.029145721080195922]","[1,1,1]","[0.17248818611547645,-0.03723960429310684]","[1,1,1]","[0.06257999054715856,-0.18929058296617823]","[1,1,1]","[-0.07177080574327233,0.06923445801859932]","[1,1,1]","[-0.11750359330276124,0.1543064203928556]","[1,1,1]","[-0.004483044298796872,-0.17250475962088033]","[1,1,1]","[-0.0034967106572687643,0.011389854035776572]","[1,1,1]","[-0.14247444893976088,0.05452833284885283]","[-1,-1,-1]","[0.023354708996560457,-0.023350169690589357]","[-1,-1,-1]","[0.02,0.02]",153.0991,0,24,24,193,1,,,,,,,
,,,,,,,67d005119524a1e1d28a2699,682db417c31a43bad456356e,2025-05-21_13h27.05.109,cuing_paradigm_dot,2024.1.5,Win32,59.88023952,682d556593cb38ad0a074487,,,,,,,,,,,153.0996,153.5998,,,153.8504,154.6515,right,0.7875,,,,,,,,,0.4,,,,,,153.5998,153.8504,154.6516,"[-0.07193439036114634,-0.10029079240522033]","[1,1,1]","[0.1801684427912139,0.07534943137200334]","[-1,-1,-1]","[0.07767720376082572,0.15956262522278658]","[-1,-1,-1]","[-0.1483163316293368,0.05974631589004639]","[-1,-1,-1]","[-0.15772083714819737,-0.005503008163534266]","[-1,-1,-1]","[-0.05380213194978477,0.14940044386078297]","[1,1,1]","[0.04800448305432993,-0.031380563553888366]","[1,1,1]","[0.04953562667759178,0.0545937858660148]","[-1,-1,-1]","[0.14345725255084396,-0.11664697803641413]","[-1,-1,-1]","[-0.10629011553020466,0.10885409158621788]","[-1,-1,-1]","[-0.029165663912638678,-0.11345095473063442]","[-1,-1,-1]","[-0.010335113391692203,0.16196560145751557]","[1,1,1]","[-0.003046389197555635,-0.08195702949256194]","[1,1,1]","[0.1050605302103039,-0.07478943147863157]","[-1,-1,-1]","[-0.028593628236045065,0.0987374809499312]","[-1,-1,-1]","[-0.09034097996857514,-0.14373315835789408]","[-1,-1,-1]","[0.1642648149209058,-0.039269597001155856]","[-1,-1,-1]","[0.08623076858682939,-0.15448611765355974]","[-1,-1,-1]","[0.08635291868114547,0.11337834801905897]","[1,1,1]","[-0.0031323555776203472,0.021214007895036385]","[1,1,1]","[0.06499393606014885,-0.08404538737001568]","[1,1,1]","[0.04572563218509031,-0.16395340315868343]","[-1,-1,-1]","[0.12065838917222906,0.015825089127345048]","[-1,-1,-1]","[-0.1214006487991933,-0.11045590398415533]","[-1,-1,-1]","[-0.05879531811372533,0.010448507902076487]","[1,1,1]","[-0.019665734263280665,-0.021252738703782005]","[-1,-1,-1]","[-0.09769250532697346,-0.006487825143851951]","[-1,-1,-1]","[-0.08591329258712625,0.04888151056392236]","[1,1,1]","[-0.13499339803264324,-0.06396488658312013]","[1,1,1]","[0.10190970732898992,-0.024009399976379565]","[1,1,1]","[0.02819618328912952,0.13725744413442328]","[-1,-1,-1]","[0.10501986682801422,0.05923651149636631]","[1,1,1]","[0.02,0.02]",155.7523,0,25,25,53,1,,,,,,,
,,,,,,,67d005119524a1e1d28a2699,682db417c31a43bad456356e,2025-05-21_13h27.05.109,cuing_paradigm_dot,2024.1.5,Win32,59.88023952,682d556593cb38ad0a074487,,,,,,,,,,,155.7531,156.2527,,,156.4918,157.1704,left,0.6633,,,,,,,,,0.1,,,,,,156.2529,156.4917,157.1705,"[0.05370631144639433,-0.11240515770867865]","[1,1,1]","[0.06304094611995778,0.15985989736026443]","[-1,-1,-1]","[-0.10357708890361687,0.11636506821135567]","[-1,-1,-1]","[-0.10912681307218014,-0.0627280405366219]","[-1,-1,-1]","[-0.12242766811614086,0.040130850227862905]","[-1,-1,-1]","[0.12318219961827304,-0.14267372730666608]","[-1,-1,-1]","[0.0678011788976025,0.10482273475455428]","[-1,-1,-1]","[0.1037679431195014,-0.04523751718241725]","[-1,-1,-1]","[0.005647431743193509,-0.03938415707641342]","[-1,-1,-1]","[0.02306691240254094,-0.18988333546779756]","[-1,-1,-1]","[0.040199465790926064,0.04397012218555909]","[-1,-1,-1]","[0.11417053061968241,-0.09594089049204181]","[-1,-1,-1]","[-0.017626901713734898,-0.10202594460213542]","[-1,-1,-1]","[0.11359448561866885,0.13416577963951903]","[1,1,1]","[-0.15602666675331367,0.11062429474215402]","[-1,-1,-1]","[-0.06448044589223119,0.006361106479793185]","[-1,-1,-1]","[-0.044433040420008264,0.1557678426375505]","[-1,-1,-1]","[-0.18157308525836355,-0.05512194212299034]","[1,1,1]","[-0.04120566358050888,-0.0410991977392944]","[-1,-1,-1]","[0.0877032538867244,0.06467481915304438]","[-1,-1,-1]","[-0.16083903959536117,-0.11578016817752616]","[-1,-1,-1]","[0.17278505841051003,0.08577070404080202]","[-1,-1,-1]","[0.1808364658067759,-0.07394309194105456]","[-1,-1,-1]","[0.023997209176703123,-0.07830366086418515]","[-1,-1,-1]","[0.029719757770697686,-0.1471262733946756]","[-1,-1,-1]","[0.0010242185140104246,0.010584547029902303]","[-1,-1,-1]","[-0.07206168444020201,-0.09062538505022748]","[-1,-1,-1]","[0.15799758416604073,0.022300053039973507]","[-1,-1,-1]","[0.06498176893466234,-0.05882369955933291]","[-1,-1,-1]","[-0.031587250414226685,0.19654616242837183]","[-1,-1,-1]","[-0.02181592795810588,0.07641621470433317]","[-1,-1,-1]","[-0.01010803677446258,-0.1613256634510846]","[-1,-1,-1]","[0.02,0.02]",158.2713,0,26,26,28,1,,,,,,,
,,,,,,,67d005119524a1e1d28a2699,682db417c31a43bad456356e,2025-05-21_13h27.05.109,cuing_paradigm_dot,2024.1.5,Win32,59.88023952,682d556593cb38ad0a074487,,,,,,,,,,,158.2722,158.7718,,,159.0228,159.7067,right,0.6551,,,,,,,,,0.6,,,,,,158.7719,159.0227,159.7067,"[0.12646957182442362,-0.018301542035974835]","[1,1,1]","[0.03041182589443628,-0.05182646287301512]","[1,1,1]","[0.13913510748177677,0.04721683215969863]","[-1,-1,-1]","[-0.021950198601284897,0.18553821690444927]","[-1,-1,-1]","[-0.1320420049706819,-0.031913678703109176]","[1,1,1]","[-0.10084716437667322,-0.003950303885824392]","[1,1,1]","[-0.08832905969282356,-0.14906680747712728]","[1,1,1]","[-0.1521487553973187,0.020038422405145945]","[1,1,1]","[0.09789819154769933,0.12027579918077506]","[1,1,1]","[-0.011954105142880036,-0.050995932867151074]","[1,1,1]","[-0.027229678503451548,-0.09960620164157226]","[1,1,1]","[0.043853874693835,0.0449468412605312]","[-1,-1,-1]","[0.04955019370166538,0.1420884854221932]","[1,1,1]","[-0.1343750269234415,-0.07519676120510146]","[-1,-1,-1]","[0.05268369220251045,-0.13016898818599917]","[1,1,1]","[-0.17932870845984203,0.08375791293565685]","[-1,-1,-1]","[-0.12428923889513067,0.10880453937394031]","[-1,-1,-1]","[-0.024117630275651607,0.14253063966771717]","[1,1,1]","[0.13769868196728605,-0.07162574164203964]","[1,1,1]","[-0.17518731931200104,-0.03730296662418795]","[-1,-1,-1]","[0.023615792960267803,-0.19212317490092334]","[1,1,1]","[-0.07182129774921803,0.10314918231736657]","[-1,-1,-1]","[-0.0952136255032919,0.15882564371685748]","[1,1,1]","[0.16992143256735995,0.013228320011051495]","[1,1,1]","[-0.021089697264716684,-0.19276000723345796]","[1,1,1]","[-0.13165045120237046,-0.12582642745082281]","[-1,-1,-1]","[0.11263977982451212,-0.11821449713129736]","[1,1,1]","[0.08657252682227823,-0.16366778099140533]","[-1,-1,-1]","[-0.049369792936644244,0.01795678962542207]","[-1,-1,-1]","[0.07456451435931295,-0.009308051661305947]","[-1,-1,-1]","[0.009200275825105712,0.01566602815248227]","[1,1,1]","[-0.08565792460565816,-0.09006734179974377]","[-1,-1,-1]","[0.02,0.02]",160.8073,0,27,27,162,1,,,,,,,
,,,,,,,67d005119524a1e1d28a2699,682db417c31a43bad456356e,2025-05-21_13h27.05.109,cuing_paradigm_dot,2024.1.5,Win32,59.88023952,682d556593cb38ad0a074487,,,,,,,,,,,160.8084,161.3077,,,161.5587,162.559,left,0.9681,,,,,,,,,0.45,,,,,,161.3078,161.5585,162.5591,"[0.07714416029046825,-0.1319838742182171]","[1,1,1]","[-0.12019737083971538,0.0956669153599475]","[-1,-1,-1]","[-0.0533950776424001,-0.13308714719537298]","[1,1,1]","[-0.086007834413019,-0.08711685202357645]","[-1,-1,-1]","[-0.017795264936267385,0.12650229401104982]","[-1,-1,-1]","[-0.19728517513962235,0.02166496551313813]","[1,1,1]","[-0.11022595491101828,0.04697022685765935]","[-1,-1,-1]","[0.1165639170612235,0.1345136395048098]","[-1,-1,-1]","[0.18003497797738172,-0.04937996579060868]","[1,1,1]","[-0.049670913034853936,0.034494917886213575]","[1,1,1]","[-0.015070590129894434,-0.084974779244013]","[-1,-1,-1]","[0.011834983868007524,0.17480699762418575]","[1,1,1]","[-0.03769509002084449,-0.01618387373198559]","[-1,-1,-1]","[0.021743351895394038,0.05509534156761364]","[-1,-1,-1]","[0.03079461167288587,-0.11483118901444556]","[1,1,1]","[-0.1866004368168304,-0.06371965475560912]","[1,1,1]","[0.16495195578505495,-0.08664816167702105]","[1,1,1]","[0.023664338776403032,-0.04075967040089844]","[1,1,1]","[0.1091422772155858,-0.1609013443628218]","[-1,-1,-1]","[0.16792086326292532,0.029697188515490202]","[1,1,1]","[0.09054522250163559,-0.07215547943416559]","[-1,-1,-1]","[0.07806201550433332,0.10763747965804245]","[-1,-1,-1]","[-0.1168506439934109,-0.14669026243611272]","[-1,-1,-1]","[0.07566068320939122,-0.022227776345863866]","[-1,-1,-1]","[0.1204400464622405,0.022424953163578492]","[1,1,1]","[-0.09829255050307818,-0.01821912614616479]","[-1,-1,-1]","[0.12167486320211768,-0.10897608965702923]","[1,1,1]","[0.05887931811976566,0.019986505054754695]","[-1,-1,-1]","[-0.053981240703525286,0.18177181287896663]","[-1,-1,-1]","[0.07845046022907293,0.06420209710692741]","[1,1,1]","[-0.17418290914742807,0.09352514546597313]","[-1,-1,-1]","[-0.03144003761155749,0.07509833484500651]","[-1,-1,-1]","[0.02,0.02]",163.66,0,28,28,74,1,,,,,,,
,,,,,,,67d005119524a1e1d28a2699,682db417c31a43bad456356e,2025-05-21_13h27.05.109,cuing_paradigm_dot,2024.1.5,Win32,59.88023952,682d556593cb38ad0a074487,,,,,,,,,,,163.6609,164.1602,,,164.4113,165.0953,right,0.6584,,,,,,,,,0.9,,,,,,164.1604,164.4112,165.0954,"[0.06344995591928594,-0.0005683211873673218]","[1,1,1]","[-0.022051875818070506,0.12941704786872474]","[1,1,1]","[0.0032422431561567808,0.04848800484067919]","[1,1,1]","[-0.1484975926605778,0.08638360440331669]","[1,1,1]","[0.14435412694696562,-0.0515720710890946]","[1,1,1]","[-0.04356014721361916,0.04834368382303376]","[-1,-1,-1]","[0.168400787466014,-0.019342994001550994]","[1,1,1]","[-0.054476928603159155,-0.11867538587132681]","[1,1,1]","[0.018816888687830435,-0.025356215232758935]","[1,1,1]","[0.10084657476507454,-0.02960115303267162]","[1,1,1]","[-0.053351156004217214,0.09307106845202902]","[1,1,1]","[0.03721214408179379,0.11586000354179]","[1,1,1]","[0.1057227704537822,0.08974690410753226]","[1,1,1]","[0.15831170032394948,-0.09139137309346196]","[1,1,1]","[-0.008699746639898337,-0.1087193709349847]","[1,1,1]","[-0.06506631449833622,-0.07722428302992819]","[1,1,1]","[-0.08666984721738825,-0.17710647518768374]","[-1,-1,-1]","[-0.02583297827337126,0.18140232427067315]","[1,1,1]","[-0.0804592043565292,-0.035029324806752984]","[1,1,1]","[0.14759790634664055,0.052316816345671674]","[1,1,1]","[-0.04072031148122598,-0.16000508946962813]","[1,1,1]","[-0.19562903004516413,-0.008903936232321495]","[1,1,1]","[-0.10206084538333791,0.03902308039024878]","[1,1,1]","[-0.03907196353891112,-0.028048443563974155]","[-1,-1,-1]","[0.0454002118818517,-0.1730448598666616]","[1,1,1]","[-0.1733562746594349,0.03509083731610805]","[1,1,1]","[-0.11629783570650884,-0.0068614588731915754]","[1,1,1]","[0.05016944650576076,-0.08382822041868881]","[1,1,1]","[0.09856025115043901,0.14439240090018451]","[1,1,1]","[0.05987399252087922,0.07670358119657832]","[1,1,1]","[-0.12211786637129773,0.15140081702513888]","[1,1,1]","[-0.08519916677736734,0.17866009338976402]","[1,1,1]","[0.02,0.02]",166.1959,0,29,29,189,1,,,,,,,
,,,,,,,67d005119524a1e1d28a2699,682db417c31a43bad456356e,2025-05-21_13h27.05.109,cuing_paradigm_dot,2024.1.5,Win32,59.88023952,682d556593cb38ad0a074487,,,,,,,,,,,166.1969,166.6968,,,166.9476,167.9649,right,0.9869,,,,,,,,,0.55,,,,,,166.6969,166.9476,167.965,"[0.0408634942196521,-0.19143678988416105]","[-1,-1,-1]","[0.03372354417771528,-0.07487903134071604]","[-1,-1,-1]","[-0.04079419621787968,0.17697038594238979]","[1,1,1]","[0.03192132159957227,0.04732812700854435]","[1,1,1]","[0.09189569548529695,0.06509986796350188]","[1,1,1]","[-0.034306048504303244,-0.15173047027851033]","[-1,-1,-1]","[0.12001844336161896,-0.012539268944380486]","[1,1,1]","[0.08052695502801832,-0.14529535166852087]","[-1,-1,-1]","[0.17758478387956597,0.07501247444561555]","[1,1,1]","[-0.1506928072402237,0.06854491428945503]","[-1,-1,-1]","[-0.16309580802038642,-0.09635240016740632]","[1,1,1]","[-0.01361614825191248,-0.03884008873287843]","[1,1,1]","[-0.04056628663140764,0.10123973547474951]","[1,1,1]","[-0.1215009465061316,-0.04994985845962887]","[-1,-1,-1]","[-0.09396787353826569,-0.13492574077361336]","[1,1,1]","[0.04829453731545649,-0.018456088824343516]","[-1,-1,-1]","[-0.12277934377179647,0.02395174430548063]","[1,1,1]","[-0.07435897540178808,-0.08627089718581002]","[1,1,1]","[-0.17846108136040287,0.012513146828023588]","[1,1,1]","[0.06075689362417398,0.13573850814889765]","[-1,-1,-1]","[0.17688490112310656,-0.057434954947719996]","[1,1,1]","[0.008470900592280325,0.12601843615199346]","[-1,-1,-1]","[0.05467089602743857,0.19159795253560058]","[1,1,1]","[0.1229292167793843,-0.055598732955150665]","[-1,-1,-1]","[-0.050715913355164524,0.004492812374587249]","[1,1,1]","[0.16988534661543012,0.027460084489781104]","[-1,-1,-1]","[0.10520604796586477,-0.10354263388209281]","[1,1,1]","[0.10208378849123448,0.13874228007057665]","[-1,-1,-1]","[-0.008951385021805409,-0.19183517734278918]","[1,1,1]","[-0.09931800118533801,0.09931311419744128]","[-1,-1,-1]","[-0.09001234955310501,0.04805260802618231]","[1,1,1]","[0.0570891136154026,0.09476529861824064]","[-1,-1,-1]","[0.02,0.02]",169.0652,0,30,30,120,1,,,,,,,
,,,,,,,67d005119524a1e1d28a2699,682db417c31a43bad456356e,2025-05-21_13h27.05.109,cuing_paradigm_dot,2024.1.5,Win32,59.88023952,682d556593cb38ad0a074487,,,,,,,,,,,169.0658,169.5661,,,169.8165,170.5341,right,0.6937,,,,,,,,,0.6,,,,,,169.5663,169.8164,170.5341,"[-0.1807053863122366,0.012047096102644348]","[1,1,1]","[-0.10116831244771395,-0.05957035764844163]","[1,1,1]","[0.05315171871782467,0.1306293745256915]","[-1,-1,-1]","[-0.14757253707305926,-0.11020252712024417]","[1,1,1]","[-0.06766192189232656,-0.025030742737580904]","[1,1,1]","[-0.01493545049157086,-0.0887289105363222]","[1,1,1]","[0.10543946269227662,-0.1098063132205328]","[1,1,1]","[0.09828756024197155,0.061495997147149]","[1,1,1]","[0.15362484910450383,0.012009831937624723]","[-1,-1,-1]","[-0.14359887235625424,0.12448800364773338]","[-1,-1,-1]","[0.029690007677533985,0.1655094398544909]","[1,1,1]","[0.05117545947140212,0.07006527304503685]","[-1,-1,-1]","[0.09491185275276154,-0.029020367523128227]","[1,1,1]","[-0.1432166955562533,0.07847283982700776]","[1,1,1]","[-0.10622255408352507,0.020141882892307124]","[-1,-1,-1]","[-0.03877417025909648,0.10187040294183715]","[1,1,1]","[-0.04105656503374307,-0.18693157829634044]","[1,1,1]","[0.10627860950114221,0.1592424183194385]","[1,1,1]","[-0.035348788187582185,0.18284825358471593]","[-1,-1,-1]","[-0.0059728025744658795,0.07852015795106257]","[1,1,1]","[-0.007274928725972205,-0.048558233219864126]","[-1,-1,-1]","[0.058445559825312646,-0.06008283128060052]","[1,1,1]","[0.029975772972842055,0.002946750375953145]","[1,1,1]","[0.06841414202240002,-0.1735851480088988]","[1,1,1]","[0.12057266355739853,-0.14979631953650785]","[-1,-1,-1]","[-0.09320115302502556,-0.137702338490991]","[-1,-1,-1]","[-0.06465362902034096,-0.08837250151649514]","[-1,-1,-1]","[-0.18609072854580952,-0.07016970927081345]","[1,1,1]","[0.01975503708192032,-0.1811579620078202]","[-1,-1,-1]","[-0.14064159024056425,-0.019241676455244886]","[-1,-1,-1]","[0.1794192283409661,-0.06542266605221864]","[1,1,1]","[0.14956355930329482,0.08720416554516755]","[-1,-1,-1]","[0.02,0.02]",171.635,0,31,31,150,1,,,,,,,
,,,,,,,67d005119524a1e1d28a2699,682db417c31a43bad456356e,2025-05-21_13h27.05.109,cuing_paradigm_dot,2024.1.5,Win32,59.88023952,682d556593cb38ad0a074487,,,,,,,,,,,171.6361,172.1354,,,172.3919,173.069,right,0.662,,,,,,,,,0.9,,,,,,172.1356,172.3919,173.0691,"[0.0009269390771736684,0.07261976157747531]","[1,1,1]","[0.14624402747163667,-0.05406697327542152]","[1,1,1]","[0.152209812696274,0.0857354072297291]","[1,1,1]","[-0.08141434363444727,0.0668839193967852]","[1,1,1]","[-0.18433229383384842,0.0047396901313193985]","[1,1,1]","[0.011093075321110698,0.13520690395655965]","[1,1,1]","[-0.10025003163924931,0.15139199969112074]","[1,1,1]","[0.07338860382440263,-0.10030645255178577]","[1,1,1]","[0.11782409067714106,-0.15519006329532445]","[1,1,1]","[-0.11419855625863662,0.11316430871800967]","[-1,-1,-1]","[-0.059428198119646794,0.0019339947316239325]","[1,1,1]","[0.0005801927585177152,-0.19262453245051273]","[1,1,1]","[-0.012104508770736712,0.008946737833409157]","[1,1,1]","[-0.1562966022607315,0.09655758609494572]","[1,1,1]","[-0.14536782437819643,0.054098078607407916]","[1,1,1]","[0.12146233393336069,0.025973489805298747]","[1,1,1]","[-0.11490410159820194,-0.1569413071077485]","[1,1,1]","[0.02506148771808597,-0.1175372411898477]","[1,1,1]","[0.02905326975619133,-0.012753071314892792]","[1,1,1]","[0.19523848947226155,0.021949305334835596]","[1,1,1]","[-0.1373686080495193,-0.05759299462587472]","[1,1,1]","[0.08508736732865128,0.15652831511533735]","[1,1,1]","[0.1060716328956836,-0.05729618730826653]","[-1,-1,-1]","[0.1695277566974541,-0.09894343697404226]","[1,1,1]","[-0.04129018624314857,0.0393036376345974]","[-1,-1,-1]","[-0.06364486612474651,-0.1326968983129752]","[1,1,1]","[-0.15727082490809083,-0.10562785126740216]","[1,1,1]","[0.10888347830499528,0.08237913459964995]","[1,1,1]","[0.052083557923820974,-0.15587791058490932]","[1,1,1]","[0.02130130252787445,0.17702261248089826]","[1,1,1]","[-0.08109522839352526,-0.0872682427044778]","[1,1,1]","[0.021434416159207215,-0.05591945159868274]","[1,1,1]","[0.02,0.02]",174.1701,0,32,32,185,1,,,,,,,
,,,,,,,67d005119524a1e1d28a2699,682db417c31a43bad456356e,2025-05-21_13h27.05.109,cuing_paradigm_dot,2024.1.5,Win32,59.88023952,682d556593cb38ad0a074487,,,,,,,,,,,174.1707,174.6706,,,174.9215,176.0562,left,1.1082,,,,,,,,,0.45,,,,,,174.6706,174.9214,176.0563,"[-0.17326172765786144,0.061529672082164054]","[1,1,1]","[0.09358996766793588,-0.0027150616529995858]","[1,1,1]","[-0.07255012238356641,-0.04341711180939914]","[-1,-1,-1]","[0.11446413951887509,-0.11289521491589075]","[1,1,1]","[-0.14519619679951165,-0.020788681403359256]","[-1,-1,-1]","[-0.10168223546578396,-0.10743305951793032]","[1,1,1]","[0.018031672760637184,-0.12417164480485678]","[-1,-1,-1]","[-0.020648907394033203,-0.07677280486085382]","[-1,-1,-1]","[0.14687178566469014,0.0792744481363426]","[-1,-1,-1]","[-0.07965739481424869,0.016249904242154466]","[-1,-1,-1]","[0.1070766309318082,0.1004906813896988]","[-1,-1,-1]","[-0.03097893975453846,-0.19473753296584584]","[-1,-1,-1]","[-0.07217011054048957,-0.17319289242117067]","[1,1,1]","[0.012608444436743783,0.1608996224634371]","[-1,-1,-1]","[0.08409542535331402,-0.05203343448021188]","[1,1,1]","[0.0695032832144358,0.07190707078401393]","[-1,-1,-1]","[0.16833567053103302,-0.06563918375660384]","[-1,-1,-1]","[-0.02974569693392174,0.06494506219142734]","[1,1,1]","[-0.03235003111900782,0.17933689214344076]","[1,1,1]","[-0.011733076761339334,-0.005191964381922087]","[-1,-1,-1]","[0.1930936117624586,-0.020942222437990224]","[-1,-1,-1]","[0.06001546381134155,-0.133189175612673]","[1,1,1]","[-0.1873624808654348,-0.03367786720217475]","[1,1,1]","[-0.10478358646946477,0.1552649995917174]","[-1,-1,-1]","[0.044520803641477535,0.03117380011020506]","[-1,-1,-1]","[0.09383256931588779,0.15304181937092262]","[1,1,1]","[0.00832526710142349,0.08462547742498376]","[1,1,1]","[-0.1799875728486246,0.01932390819762965]","[1,1,1]","[0.13505182613773506,-0.020016225485584748]","[1,1,1]","[-0.10674624156962853,0.1073855634003823]","[-1,-1,-1]","[0.05441101443480793,0.13389351743883973]","[-1,-1,-1]","[0.1558054591839971,0.022242207215784075]","[-1,-1,-1]","[0.02,0.02]",177.1572,0,33,33,61,1,,,,,,,
,,,,,,,67d005119524a1e1d28a2699,682db417c31a43bad456356e,2025-05-21_13h27.05.109,cuing_paradigm_dot,2024.1.5,Win32,59.88023952,682d556593cb38ad0a074487,,,,,,,,,,,177.1581,177.6579,,,177.8974,178.6422,left,0.7296,,,,,,,,,0.1,,,,,,177.658,177.8974,178.6424,"[0.04452330479224266,-0.06314013293346116]","[-1,-1,-1]","[0.026357059569093656,0.19573053421363407]","[-1,-1,-1]","[-0.030494438891087283,-0.10327198317111877]","[-1,-1,-1]","[-0.11043168757606057,-0.02848448486224222]","[-1,-1,-1]","[-0.06160450987578324,-0.003763454064090342]","[-1,-1,-1]","[0.09763559573036454,-0.13754013657303987]","[1,1,1]","[0.14242740819011043,-0.007752229811221107]","[-1,-1,-1]","[-0.1792145203376488,-0.046568952378893386]","[-1,-1,-1]","[-0.021818108739054515,0.010389639033537615]","[1,1,1]","[-0.08689960068069863,0.07109533954632447]","[-1,-1,-1]","[-0.11112979989252135,-0.12567092605452626]","[-1,-1,-1]","[0.11944704993707483,0.09974526949136762]","[-1,-1,-1]","[0.13724997377581388,-0.07230861508606028]","[-1,-1,-1]","[0.058830005294858614,0.07830683729593037]","[-1,-1,-1]","[-0.05374274587818273,0.15414026592279828]","[-1,-1,-1]","[0.1394525541505352,-0.1341937263445924]","[-1,-1,-1]","[0.09906351776356005,0.15205118182293992]","[-1,-1,-1]","[-0.029429679240096745,0.09585714134229233]","[-1,-1,-1]","[0.07679049544727132,-0.027529544998819926]","[-1,-1,-1]","[-0.08453018580592907,-0.17847725273506024]","[-1,-1,-1]","[0.028033524700347055,-0.1551949414323424]","[-1,-1,-1]","[-0.12311974490944247,-0.08094197860195267]","[-1,-1,-1]","[0.056804248283060396,0.13215474001246788]","[-1,-1,-1]","[0.1913544347088825,0.05665720619544069]","[1,1,1]","[-0.16032894330970193,-0.0987585800120479]","[-1,-1,-1]","[-0.00923132250675816,-0.17770839527003035]","[-1,-1,-1]","[-0.07484845242319738,0.11797160979812416]","[-1,-1,-1]","[0.18602415585162424,-0.009128730473345248]","[-1,-1,-1]","[-0.17272795501964452,0.09529520206008407]","[-1,-1,-1]","[-0.0289332878390808,-0.05126144963099101]","[-1,-1,-1]","[0.04047931753274159,-0.11016031417589195]","[-1,-1,-1]","[0.1538331894220868,0.036808761790396737]","[-1,-1,-1]","[0.02,0.02]",179.7431,0,34,34,7,1,,,,,,,
,,,,,,,67d005119524a1e1d28a2699,682db417c31a43bad456356e,2025-05-21_13h27.05.109,cuing_paradigm_dot,2024.1.5,Win32,59.88023952,682d556593cb38ad0a074487,,,,,,,,,,,179.7441,180.2436,,,180.4941,181.111,left,0.5917,,,,,,,,,0.9,,,,,,180.2437,180.494,181.1112,"[0.13211830066819924,-0.08631259598455208]","[-1,-1,-1]","[0.01747368007774498,-0.047017563075822166]","[1,1,1]","[-0.13844394609275018,0.09913834668621545]","[1,1,1]","[0.10607540521547361,-0.03901002894026062]","[-1,-1,-1]","[0.10124881148316155,0.1017887384905977]","[-1,-1,-1]","[-0.16972960100966708,0.04045474664862204]","[1,1,1]","[-0.015948478127531456,0.09692065842569425]","[1,1,1]","[0.04995617826979401,0.13690231806070458]","[1,1,1]","[0.00584448853252644,-0.1013987113835905]","[1,1,1]","[-0.07101957590042801,0.014526390580257923]","[1,1,1]","[0.04994677532086423,-0.15883874636547396]","[1,1,1]","[0.054049650694312466,0.18579549699411171]","[1,1,1]","[0.07633452328330331,-0.09128515690678639]","[1,1,1]","[-0.11418314600055172,0.024205644368631724]","[1,1,1]","[0.1914756180742565,0.005980120700341478]","[1,1,1]","[-0.10772180601378448,-0.16564257040396535]","[1,1,1]","[-0.08617969799830297,0.1725446447982972]","[1,1,1]","[0.13908367008980724,0.12691671201610075]","[1,1,1]","[-0.060587477175836894,0.06411541330047657]","[1,1,1]","[-0.1742400695001715,-0.05111013947075134]","[1,1,1]","[-0.12459593753899925,-0.020400752350430672]","[1,1,1]","[0.04641813801117109,0.03894553216480555]","[1,1,1]","[0.18278026121154486,-0.051563456606387705]","[1,1,1]","[-0.17484491767311466,-0.0007929656390393247]","[1,1,1]","[0.08672026454978986,0.1587907949790985]","[1,1,1]","[0.09547978310511727,0.024902145979012056]","[1,1,1]","[0.013762023898456538,0.012666755400567001]","[1,1,1]","[0.15357810896219026,0.03238999360263565]","[1,1,1]","[0.10519310838155779,-0.12619745280076566]","[1,1,1]","[-0.10682702379742165,0.1261105484948468]","[1,1,1]","[0.08203127812485515,0.06318882855438104]","[1,1,1]","[-0.03270381890130052,-0.1615662258065249]","[1,1,1]","[0.02,0.02]",182.2122,0,35,35,196,1,,,,,,,
,,,,,,,67d005119524a1e1d28a2699,682db417c31a43bad456356e,2025-05-21_13h27.05.109,cuing_paradigm_dot,2024.1.5,Win32,59.88023952,682d556593cb38ad0a074487,,,,,,,,,,,182.2129,182.7127,,,182.963,183.9468,right,0.9541,,,,,,,,,0.5,,,,,,182.7128,182.9629,183.9468,"[-0.10243059077249139,-0.01235977487330093]","[-1,-1,-1]","[0.10499840665368373,-0.10986862867366655]","[-1,-1,-1]","[-0.10682773110753793,-0.09244526964037816]","[-1,-1,-1]","[-0.00010144073195192174,-0.08665303435907193]","[-1,-1,-1]","[-0.1754593360079337,0.07894490809610694]","[-1,-1,-1]","[0.12603092090479243,0.027922351864206135]","[1,1,1]","[0.17751177347248218,-0.0866013163214673]","[1,1,1]","[0.07466795129413938,-0.0015293789248142745]","[-1,-1,-1]","[-0.004841787491917583,0.03788310506404343]","[1,1,1]","[0.054449897444858855,0.15702432841057376]","[-1,-1,-1]","[0.02747383617520729,0.011754309349553106]","[-1,-1,-1]","[0.046380104221460695,0.06132154960622689]","[1,1,1]","[0.0835200980998186,0.07834769147579555]","[1,1,1]","[-0.018654324002490095,-0.04733500352934615]","[1,1,1]","[-0.10542103901840696,0.15903672159186105]","[-1,-1,-1]","[-0.053658823006060216,0.15937311258418757]","[1,1,1]","[0.1697720380975128,-0.0013001206140891867]","[1,1,1]","[0.08587641645753243,-0.05101613489933675]","[1,1,1]","[-0.046231533576136324,-0.15009835304178648]","[-1,-1,-1]","[-0.05518801793240257,-0.19083967290720774]","[1,1,1]","[-0.06962736535174302,0.033608397485191135]","[1,1,1]","[0.11449798583838086,0.15953338482431825]","[1,1,1]","[-0.14376463709396395,0.10863907817150416]","[-1,-1,-1]","[0.020874175612041194,0.0960084980296235]","[-1,-1,-1]","[0.010847783607715624,0.1425786251772552]","[-1,-1,-1]","[-0.03324435648895304,0.003149392741471605]","[1,1,1]","[-0.16396725662889006,0.04002819292130739]","[1,1,1]","[-0.12320831493992893,-0.13024574230326819]","[-1,-1,-1]","[0.1401671206439913,0.12710868823701257]","[-1,-1,-1]","[-0.16421505582355203,-0.10647870138264529]","[-1,-1,-1]","[-0.19467404763551385,-0.0046966070026677725]","[1,1,1]","[-0.04109176601635685,-0.09411648914379321]","[1,1,1]","[0.02,0.02]",185.0485,0,36,36,116,1,,,,,,,
,,,,,,,67d005119524a1e1d28a2699,682db417c31a43bad456356e,2025-05-21_13h27.05.109,cuing_paradigm_dot,2024.1.5,Win32,59.88023952,682d556593cb38ad0a074487,,,,,,,,,,,185.0493,185.549,,,185.7995,186.967,left,1.1423,,,,,,,,,0.55,,,,,,185.5491,185.7994,186.9671,"[0.02424587718889684,0.06705103728100516]","[1,1,1]","[0.1166159210833956,-0.07921195649780978]","[-1,-1,-1]","[0.013926608174306854,0.11917536830883657]","[-1,-1,-1]","[0.014600700252500794,-0.03171327119807381]","[-1,-1,-1]","[0.10617015950538877,0.1440449353950855]","[1,1,1]","[0.018055620148406237,-0.17081388875137513]","[1,1,1]","[-0.07428663349480638,0.15195261754975434]","[1,1,1]","[-0.18410529676002377,0.013844442214028814]","[1,1,1]","[-0.07625634763229777,0.052700739213421416]","[1,1,1]","[-0.048081638654174134,-0.04909791537808435]","[-1,-1,-1]","[0.13331750687530683,-0.028002797693057902]","[-1,-1,-1]","[-0.04428122752433748,-0.17485041448868802]","[1,1,1]","[0.101162402734008,0.09692967079655312]","[-1,-1,-1]","[-0.10322485388241662,0.007954340427504602]","[1,1,1]","[-0.012789141247427735,-0.11458038758978743]","[-1,-1,-1]","[-0.035644807556129685,0.05113015651225682]","[1,1,1]","[0.08368186072686412,-0.17155968024227022]","[1,1,1]","[-0.1483789479112455,0.09792355203183886]","[-1,-1,-1]","[-0.11227269358495075,-0.1102475561264978]","[-1,-1,-1]","[-0.07288632044298803,-0.14577740330706407]","[-1,-1,-1]","[0.07788704112852288,-0.06599445192197174]","[-1,-1,-1]","[-0.06164874409146343,-0.0004829845742427858]","[1,1,1]","[0.06526671619364637,0.04892459132024014]","[1,1,1]","[0.0733138110991835,-0.12242543479826512]","[-1,-1,-1]","[-0.18490122695024247,-0.0503987323366126]","[-1,-1,-1]","[0.15544804123314224,0.08442307764688331]","[1,1,1]","[-0.1660289038879721,-0.0968536833499979]","[1,1,1]","[-0.10723084249588981,0.08388613801473037]","[-1,-1,-1]","[0.15861196715564152,-0.12041413765024914]","[1,1,1]","[0.18253292867471038,-0.05661837967162175]","[1,1,1]","[0.15161741175252672,0.02589112274433628]","[1,1,1]","[-0.10047237198852303,-0.03862458057849349]","[1,1,1]","[0.02,0.02]",188.0678,0,37,37,138,1,,,,,,,
,,,,,,,67d005119524a1e1d28a2699,682db417c31a43bad456356e,2025-05-21_13h27.05.109,cuing_paradigm_dot,2024.1.5,Win32,59.88023952,682d556593cb38ad0a074487,,,,,,,,,,,188.0688,188.5682,,,188.8191,189.8699,right,1.0192,,,,,,,,,0.5,,,,,,188.5682,188.819,189.87,"[-0.13225864489546477,-0.03652718644467139]","[1,1,1]","[0.09535568192778855,-0.006127535372221899]","[1,1,1]","[-0.08517037199227433,0.10620783372921289]","[1,1,1]","[-0.10071951272248549,0.16414902548550098]","[1,1,1]","[0.1754834424710217,-0.03168592392715951]","[1,1,1]","[-0.0918014899765111,0.04828727690248482]","[-1,-1,-1]","[-0.02876656344517622,0.1579383278772279]","[-1,-1,-1]","[0.18962007911212767,0.054951653683695936]","[1,1,1]","[-0.016172291518261654,0.04624579973921823]","[-1,-1,-1]","[0.0542063603006006,0.09027562302241225]","[1,1,1]","[-0.040755777521097505,-0.008230527299878432]","[-1,-1,-1]","[0.13634849436747387,-0.006662541225299259]","[-1,-1,-1]","[0.15154408147501883,-0.07693786960526475]","[-1,-1,-1]","[-0.06448087945943858,-0.14266548552508615]","[-1,-1,-1]","[0.09321787203896335,-0.10128226798421168]","[1,1,1]","[0.008821361218280243,-0.031940412563424385]","[-1,-1,-1]","[0.04091914171808639,0.03434471410558162]","[1,1,1]","[-0.01859202647816945,-0.188774637577545]","[-1,-1,-1]","[-0.1380380501242359,0.006384072327660382]","[1,1,1]","[-0.1689158941418761,0.09916909222368274]","[-1,-1,-1]","[0.013600850030207954,0.14747956707556212]","[1,1,1]","[0.04967493319526303,-0.17162644342274838]","[1,1,1]","[-0.09043358994026299,-0.07997603697181163]","[1,1,1]","[-0.08446994476527767,-0.0214834878956939]","[-1,-1,-1]","[-0.13679020539573344,-0.09393325368544227]","[-1,-1,-1]","[0.13125258622853214,-0.15063793402804868]","[-1,-1,-1]","[0.08883985767312254,0.1248880691635007]","[-1,-1,-1]","[0.15997617919166815,0.08303899478391091]","[1,1,1]","[0.022613926402545562,-0.06983169806680276]","[1,1,1]","[0.11722284740242059,0.08627243617043925]","[-1,-1,-1]","[0.1271745759511453,0.15203924353454165]","[1,1,1]","[-0.17840099483065758,-0.029517552357428905]","[-1,-1,-1]","[0.02,0.02]",190.9707,0,38,38,101,1,,,,,,,
,,,,,,,67d005119524a1e1d28a2699,682db417c31a43bad456356e,2025-05-21_13h27.05.109,cuing_paradigm_dot,2024.1.5,Win32,59.88023952,682d556593cb38ad0a074487,,,,,,,,,,,190.9717,191.471,,,191.7221,192.6388,left,0.8847,,,,,,,,,0.4,,,,,,191.4711,191.7219,192.639,"[-0.0230175220213395,0.1782722675893252]","[1,1,1]","[0.09222244816498293,-0.03447487907201817]","[-1,-1,-1]","[-0.08585703533157807,0.05207068141655448]","[-1,-1,-1]","[0.1681151382579217,-0.07829596271252502]","[1,1,1]","[0.07211538543626349,-0.1338790207069648]","[1,1,1]","[0.18743714971107556,0.015016465091317885]","[-1,-1,-1]","[0.04681605321973897,-0.1707656902795571]","[-1,-1,-1]","[-0.12994968151020922,0.03808498081594537]","[-1,-1,-1]","[0.008188490609127838,-0.1036136625963467]","[-1,-1,-1]","[-0.04897716760468332,0.14611073798417024]","[1,1,1]","[-0.018139523498300107,-0.005395176240955519]","[-1,-1,-1]","[0.01710643019745827,0.1552664065921804]","[1,1,1]","[0.11349954187706313,0.1538354155628676]","[1,1,1]","[-0.1713953413139763,0.07618894170428413]","[-1,-1,-1]","[-0.16142107546435128,-0.06568207490062024]","[-1,-1,-1]","[-0.039253206318534864,-0.12400223559672968]","[-1,-1,-1]","[-0.025933031750693076,-0.07925590880833797]","[1,1,1]","[0.07028904990844627,0.177943700282497]","[-1,-1,-1]","[0.13585601011575188,-0.03997942484582988]","[1,1,1]","[0.026066147871245504,0.014660631584894335]","[1,1,1]","[0.12650770827062602,0.011067846395621922]","[1,1,1]","[0.16647958295204016,0.08009793017150725]","[1,1,1]","[0.06628975782147122,0.021474268880261885]","[-1,-1,-1]","[-0.09103967747486541,-0.1034295751931167]","[-1,-1,-1]","[0.09385199946913277,-0.09437123022149833]","[1,1,1]","[-0.09424649598566008,-0.0539042236198179]","[-1,-1,-1]","[0.0869535900066519,0.06167695033779901]","[1,1,1]","[-0.15979098395234748,-0.0018092734728769595]","[-1,-1,-1]","[0.047611794865352296,-0.03120554655655447]","[-1,-1,-1]","[-0.10053908045795354,0.11476120411937939]","[-1,-1,-1]","[0.15072663297049083,-0.11609062380928345]","[-1,-1,-1]","[0.06422707464931814,0.10125454649843027]","[-1,-1,-1]","[0.02,0.02]",193.7397,0,39,39,50,1,,,,,,,
,,,,,,,67d005119524a1e1d28a2699,682db417c31a43bad456356e,2025-05-21_13h27.05.109,cuing_paradigm_dot,2024.1.5,Win32,59.88023952,682d556593cb38ad0a074487,,,,,,,,,,,193.7402,194.2402,,,194.491,195.9589,right,1.4585,,,,,,,,,0.9,,,,,,194.2403,194.4909,195.9589,"[-0.03289327878563279,-0.07472908070586474]","[1,1,1]","[-0.10913277586399152,-0.025776404764140167]","[1,1,1]","[0.05837152271935819,0.006698503341832286]","[1,1,1]","[-0.04651409125487299,0.18495060463009272]","[1,1,1]","[-0.08365586538120111,0.013098480241619104]","[1,1,1]","[0.0969591411931189,0.021252867826268368]","[1,1,1]","[-0.07169052648995239,0.052469410188389284]","[1,1,1]","[-0.16957566410328187,0.01789648218595529]","[1,1,1]","[0.19421465559706616,-0.03609213496616217]","[1,1,1]","[-0.01151630963937976,0.15785337724483722]","[1,1,1]","[0.03285359314024981,0.04992264509125471]","[1,1,1]","[-0.0279771647413255,0.09277457755823587]","[1,1,1]","[0.06050206604506223,-0.12507106091123615]","[1,1,1]","[-0.07245670006003714,-0.06507348841218455]","[1,1,1]","[-0.16013445086803368,-0.03974719170329532]","[1,1,1]","[0.11814356558155778,-0.09770051404634461]","[1,1,1]","[-0.15351624026545707,0.11094787864473966]","[-1,-1,-1]","[0.0014540420835842452,-0.19940125847855422]","[1,1,1]","[0.04020318691192848,0.11446147392006929]","[1,1,1]","[-0.08632657779713854,-0.13269426112085506]","[-1,-1,-1]","[-0.16690132690169737,0.06405844540944476]","[1,1,1]","[-0.1332006273067269,-0.08066685712059954]","[1,1,1]","[0.09489639386836836,0.07202793512899244]","[1,1,1]","[0.050894381404339,-0.17777655779690674]","[1,1,1]","[0.020365186819055126,-0.1382249895977717]","[1,1,1]","[0.06054921620744507,-0.06891667506118974]","[1,1,1]","[-0.03518745785190586,-0.0283152199363113]","[1,1,1]","[-0.025301015622338267,-0.11900407266789421]","[1,1,1]","[0.09771273669445597,0.15997182520544362]","[1,1,1]","[0.1310879794892923,-0.13710379477796958]","[1,1,1]","[-0.020405102958828115,0.017005844912795488]","[1,1,1]","[0.1702967591827612,0.047811988633029594]","[-1,-1,-1]","[0.02,0.02]",197.0596,0,40,40,197,1,,,,,,,
,,,,,,,67d005119524a1e1d28a2699,682db417c31a43bad456356e,2025-05-21_13h27.05.109,cuing_paradigm_dot,2024.1.5,Win32,59.88023952,682d556593cb38ad0a074487,,,,,,,,,,,197.0602,197.5601,,,197.8108,198.4788,left,0.6354,,,,,,,,,0.4,,,,,,197.5602,197.8108,198.479,"[0.10281226576669975,-0.03797623500977287]","[-1,-1,-1]","[0.048790842948708314,-0.06647851344940496]","[1,1,1]","[0.16686439982884782,-0.05961977078050954]","[1,1,1]","[0.030488052435376885,-0.1858319419157496]","[1,1,1]","[0.026570689430897153,-0.1350123723263769]","[-1,-1,-1]","[-0.049014314462881764,-0.09766583247884597]","[-1,-1,-1]","[-0.17372263359308085,0.023678375055537552]","[-1,-1,-1]","[0.006765522764278823,0.02122823107050376]","[-1,-1,-1]","[-0.0616568798777213,0.006928079991366224]","[-1,-1,-1]","[-0.12094865775644219,-0.12349286436091891]","[-1,-1,-1]","[-0.08164366378588259,-0.13720273358539367]","[1,1,1]","[-0.14837791179500656,0.08888746420581346]","[-1,-1,-1]","[0.034376813133115455,0.1230365779596317]","[1,1,1]","[-0.011307577865627668,-0.16566952468656587]","[1,1,1]","[-0.1512861921408128,-0.08097076998060963]","[-1,-1,-1]","[-0.11604963234642432,-0.052467294282466576]","[1,1,1]","[0.14256958351187993,-0.10798435684488042]","[-1,-1,-1]","[-0.014534035073206617,0.18078557894438463]","[-1,-1,-1]","[-0.06942862851569301,0.09295337135746617]","[-1,-1,-1]","[-0.09050604164218505,0.04891799555523994]","[-1,-1,-1]","[-0.12227609110763692,0.0010534269713968238]","[1,1,1]","[0.15421173101394703,0.03558679147594052]","[-1,-1,-1]","[0.07673183800311988,-0.006199563365666318]","[-1,-1,-1]","[-0.015134610553113312,0.13309551026467992]","[1,1,1]","[-0.0016398686273810291,-0.08689831627083221]","[-1,-1,-1]","[-0.020925150586032268,-0.04142112235275546]","[1,1,1]","[-0.1668363756126764,-0.025513416848862495]","[-1,-1,-1]","[0.16121272638479078,0.08824384313645522]","[1,1,1]","[0.07736590756034485,0.17129445299110393]","[-1,-1,-1]","[0.07456702612563432,-0.1326698818010269]","[-1,-1,-1]","[0.03512145084422407,-0.02012279097974684]","[1,1,1]","[0.11605745858043608,0.04817873099525703]","[1,1,1]","[0.02,0.02]",199.5789,0,41,41,35,1,,,,,,,
,,,,,,,67d005119524a1e1d28a2699,682db417c31a43bad456356e,2025-05-21_13h27.05.109,cuing_paradigm_dot,2024.1.5,Win32,59.88023952,682d556593cb38ad0a074487,,,,,,,,,,,199.5796,200.0794,,,200.3304,200.9307,right,0.5683,,,,,,,,,0.9,,,,,,200.0795,200.3304,200.9309,"[0.17088273903281043,-0.029782108854695476]","[1,1,1]","[0.08527036741922231,0.049051021775356404]","[1,1,1]","[0.058520031086770175,0.13868360531553933]","[1,1,1]","[0.08409164262786696,-0.18077404210692183]","[1,1,1]","[-0.044571680291836446,-0.18441097486734473]","[-1,-1,-1]","[-0.001310303205131744,0.18034154121467166]","[1,1,1]","[-0.06713914163405851,0.11005357324318679]","[1,1,1]","[-0.029474042184513046,0.1341814404628607]","[1,1,1]","[0.0005533084174421184,-0.19506024135206126]","[-1,-1,-1]","[0.05552940065100091,-0.1476626238455371]","[1,1,1]","[-0.12176019324998419,0.0380396580184571]","[1,1,1]","[-0.05426460379099463,-0.10585482479451486]","[1,1,1]","[0.014725446028290717,-0.08957002388965937]","[1,1,1]","[0.08697940012865304,-0.07793341702466265]","[1,1,1]","[0.0023366533553972396,0.0779831947286889]","[1,1,1]","[0.1494209671653047,0.05533536738586404]","[-1,-1,-1]","[-0.08149288985783477,-0.06500273054942782]","[1,1,1]","[-0.12488778541095459,0.12788680474342162]","[1,1,1]","[-0.15822514538239102,0.10442886504770167]","[1,1,1]","[0.11050329750232012,0.007197983607356235]","[1,1,1]","[0.02620900636831152,0.01775441948009691]","[1,1,1]","[-0.13270952258920574,-0.06860981471681223]","[1,1,1]","[0.16198606278429056,-0.08121166042482109]","[1,1,1]","[0.15057317577151189,0.12043393617119728]","[1,1,1]","[0.04721683950929077,-0.06619871657875061]","[1,1,1]","[-0.13208557634163073,-0.014685727095993265]","[1,1,1]","[0.1100907661489417,-0.0347221248688568]","[1,1,1]","[-0.09696745431917783,-0.10709988058319414]","[1,1,1]","[-0.026004553611405763,0.042378903783982604]","[1,1,1]","[-0.06729264399074462,0.04689653673037732]","[1,1,1]","[-0.028468517137901522,-0.056306777592616104]","[1,1,1]","[0.19057676544299085,0.04030633709535]","[1,1,1]","[0.02,0.02]",202.0313,0,42,42,183,1,,,,,,,
,,,,,,,67d005119524a1e1d28a2699,682db417c31a43bad456356e,2025-05-21_13h27.05.109,cuing_paradigm_dot,2024.1.5,Win32,59.88023952,682d556593cb38ad0a074487,,,,,,,,,,,202.0317,202.5324,,,202.7832,203.3168,right,0.5016,,,,,,,,,0.9,,,,,,202.5325,202.7832,203.3169,"[0.13010613665108392,-0.09958727807053896]","[1,1,1]","[0.17799508756666796,0.05934082013781486]","[1,1,1]","[-0.01281434722186348,0.035879409104222486]","[1,1,1]","[0.001988276882610314,-0.12221155989522862]","[1,1,1]","[-0.11470471573419229,0.15368209295700722]","[1,1,1]","[-0.1539656188810429,0.023162653342731356]","[1,1,1]","[-0.036404112575221276,0.18501109891811174]","[-1,-1,-1]","[0.03732881481214947,0.16456433428293957]","[1,1,1]","[0.067691182902218,-0.16047953557334266]","[1,1,1]","[-0.08037977839849389,-0.05081293748475467]","[1,1,1]","[0.019224482321515045,-0.006911890779588541]","[1,1,1]","[-0.13716007791841472,-0.09135850529554705]","[1,1,1]","[-0.024647145379188055,-0.06606263892434087]","[1,1,1]","[-0.04350552288082152,-0.1223738883606349]","[1,1,1]","[0.1092544123645842,0.10784799277388324]","[1,1,1]","[0.14265654459409646,0.034491400593671964]","[1,1,1]","[0.052936825074143,0.0529756205939491]","[1,1,1]","[0.17327267136705082,-0.07960505012821986]","[1,1,1]","[0.08133648647571905,0.14221449922789903]","[-1,-1,-1]","[0.02555063050271585,-0.08776413263822617]","[1,1,1]","[0.05999914259645672,-0.01611401241592524]","[1,1,1]","[0.10503254384063367,-0.044603317076508484]","[1,1,1]","[0.15527526963574448,0.09342838853370114]","[1,1,1]","[-0.11025808546823458,0.08265744861144281]","[1,1,1]","[0.0943883905756002,0.05305531741298126]","[1,1,1]","[-0.10032338117922357,-0.17243949282063964]","[1,1,1]","[-0.021696235261851115,-0.16235467419031202]","[1,1,1]","[-0.03155818403378909,-0.019462797452992977]","[1,1,1]","[0.15767677450307122,-0.01663450413992358]","[1,1,1]","[0.03219895799874131,-0.19691445265099444]","[-1,-1,-1]","[0.10359958819196881,0.006862406298213044]","[1,1,1]","[0.031651060912707224,0.11247216775804944]","[1,1,1]","[0.02,0.02]",204.4175,0,43,43,203,1,,,,,,,
,,,,,,,67d005119524a1e1d28a2699,682db417c31a43bad456356e,2025-05-21_13h27.05.109,cuing_paradigm_dot,2024.1.5,Win32,59.88023952,682d556593cb38ad0a074487,,,,,,,,,,,204.4185,204.918,,,205.169,205.6686,left,0.4768,,,,,,,,,0.5,,,,,,204.9182,205.1689,205.6687,"[0.021412880555486926,-0.19819883349329723]","[-1,-1,-1]","[-0.06660470673880994,-0.12460978517669924]","[-1,-1,-1]","[-0.12898438804843335,0.05088755931005516]","[-1,-1,-1]","[0.08364569675247208,-0.07231419025672314]","[1,1,1]","[0.08451498518466956,0.02804465045562387]","[-1,-1,-1]","[-0.036807918149319566,0.195485547344362]","[-1,-1,-1]","[-0.06358881412565091,-0.16961538850256114]","[1,1,1]","[0.07445788629324035,-0.13322819453668316]","[1,1,1]","[0.1360576327676005,0.09269451745581687]","[1,1,1]","[-0.15942420621683898,0.02323164942643162]","[1,1,1]","[0.009341444378591178,-0.12221133348138465]","[-1,-1,-1]","[0.15735175299065987,-0.0953376653016152]","[1,1,1]","[-0.005848440057919242,0.10851570077809161]","[-1,-1,-1]","[-0.0729357217039041,0.12538701185990883]","[1,1,1]","[-0.1942383266034667,-0.0022896594052148386]","[-1,-1,-1]","[-0.023370941680641293,0.06854884942015263]","[-1,-1,-1]","[0.03336185026375471,-0.15934162188551512]","[-1,-1,-1]","[-0.11190068879277686,-0.11925512634108702]","[-1,-1,-1]","[0.1298986910362271,0.15110246335899497]","[1,1,1]","[-0.07939650634236463,0.06048435507088284]","[-1,-1,-1]","[-0.01885997498823127,-0.09029508591600809]","[-1,-1,-1]","[-0.01685810458824204,-0.18507638000181628]","[-1,-1,-1]","[-0.15597209984204277,-0.08720042977066868]","[1,1,1]","[0.07727503507962541,-0.030562162704225963]","[-1,-1,-1]","[0.14300763075934023,0.0045054359056066594]","[1,1,1]","[-0.11195476044781094,-0.004696113420071655]","[1,1,1]","[0.06805505610542784,0.1381429773373183]","[1,1,1]","[0.026875514076059637,0.04354378391433387]","[1,1,1]","[-0.14827157346709877,0.09828035311605211]","[-1,-1,-1]","[0.1616034806405507,-0.04608298673250702]","[1,1,1]","[-0.033813268572560874,-0.021924547627392068]","[1,1,1]","[0.18843887586420982,0.024609611960540772]","[1,1,1]","[0.02,0.02]",206.7695,0,44,44,109,1,,,,,,,
