right,left,explain.started,explain.stopped,key_resp_3.keys,key_resp_3.rt,key_resp_3.duration,participant,session,date,expName,psychopyVersion,OS,frameRate,study_id,explain_2.started,explain_2.stopped,key_resp_4.keys,key_resp_4.rt,key_resp_4.duration,explain_3.started,explain_3.stopped,key_resp_5.keys,key_resp_5.rt,key_resp_5.duration,fixation.started,fixation.stopped,practice.started,practice.stopped,response.started,response.stopped,key_resp.keys,feedback.started,feedback.stopped,trials_2.thisRepN,trials_2.thisTrialN,trials_2.thisN,trials_2.thisIndex,trials_2.ran,white_ratio,key_resp.rt,key_resp.duration,explain_4.started,explain_4.stopped,key_resp_6.keys,key_resp_6.rt,key_resp_6.duration,dotDisplay.started,dotDisplay.stopped,ITI.started,polygon_1.pos,polygon_1.color,polygon_2.pos,polygon_2.color,polygon_3.pos,polygon_3.color,polygon_4.pos,polygon_4.color,polygon_5.pos,polygon_5.color,polygon_6.pos,polygon_6.color,polygon_7.pos,polygon_7.color,polygon_8.pos,polygon_8.color,polygon_9.pos,polygon_9.color,polygon_10.pos,polygon_10.color,polygon_11.pos,polygon_11.color,polygon_12.pos,polygon_12.color,polygon_13.pos,polygon_13.color,polygon_14.pos,polygon_14.color,polygon_15.pos,polygon_15.color,polygon_16.pos,polygon_16.color,polygon_17.pos,polygon_17.color,polygon_18.pos,polygon_18.color,polygon_19.pos,polygon_19.color,polygon_20.pos,polygon_20.color,polygon_21.pos,polygon_21.color,polygon_22.pos,polygon_22.color,polygon_23.pos,polygon_23.color,polygon_24.pos,polygon_24.color,polygon_25.pos,polygon_25.color,polygon_26.pos,polygon_26.color,polygon_27.pos,polygon_27.color,polygon_28.pos,polygon_28.color,polygon_29.pos,polygon_29.color,polygon_30.pos,polygon_30.color,polygon_31.pos,polygon_31.color,polygon_32.pos,polygon_32.color,dot_size,ITI.stopped,trials.thisRepN,trials.thisTrialN,trials.thisN,trials.thisIndex,trials.ran,break_2.started,break_2.stopped,trials_3.thisRepN,trials_3.thisTrialN,trials_3.thisN,trials_3.thisIndex,trials_3.ran
subject chose white,subject chose black,0.0006,38.7411,space,23.4754,0.2366,67d00193ba74882f03dc0820,682db4dcacd16069811f1e13,2025-05-21_13h21.45.514,cuing_paradigm_dot,2024.1.5,Win32,30.12048193,682d556593cb38ad0a074487,,,,,,,,,,,,,,,,,,,,,,,,,,,,,,,,,,,,,,,,,,,,,,,,,,,,,,,,,,,,,,,,,,,,,,,,,,,,,,,,,,,,,,,,,,,,,,,,,,,,,,,,,,,,,,,,,
,,,,,,,67d00193ba74882f03dc0820,682db4dcacd16069811f1e13,2025-05-21_13h21.45.514,cuing_paradigm_dot,2024.1.5,Win32,30.12048193,682d556593cb38ad0a074487,38.742,72.3431,space,3.5933,,,,,,,,,,,,,,,,,,,,,,,,,,,,,,,,,,,,,,,,,,,,,,,,,,,,,,,,,,,,,,,,,,,,,,,,,,,,,,,,,,,,,,,,,,,,,,,,,,,,,,,,,,,,,
,,,,,,,67d00193ba74882f03dc0820,682db4dcacd16069811f1e13,2025-05-21_13h21.45.514,cuing_paradigm_dot,2024.1.5,Win32,30.12048193,682d556593cb38ad0a074487,,,,,,72.3433,88.2127,space,12.861,,,,,,,,,,,,,,,,,,,,,,,,,,,,,,,,,,,,,,,,,,,,,,,,,,,,,,,,,,,,,,,,,,,,,,,,,,,,,,,,,,,,,,,,,,,,,,,,,,,,,,,,
,,,,,,,67d00193ba74882f03dc0820,682db4dcacd16069811f1e13,2025-05-21_13h21.45.514,cuing_paradigm_dot,2024.1.5,Win32,30.12048193,682d556593cb38ad0a074487,,,,,,,,,,,88.558,88.7299,88.7303,89.0838,89.084,90.471,,90.4715,91.5709,0,0,0,1,1,0.2,,,,,,,,,,,,,,,,,,,,,,,,,,,,,,,,,,,,,,,,,,,,,,,,,,,,,,,,,,,,,,,,,,,,,,,,,,,,,,,,,,,,,,,,
,,,,,,,67d00193ba74882f03dc0820,682db4dcacd16069811f1e13,2025-05-21_13h21.45.514,cuing_paradigm_dot,2024.1.5,Win32,30.12048193,682d556593cb38ad0a074487,,,,,,,,,,,91.5731,92.0704,92.0706,92.2778,92.2778,93.1776,right,93.1779,94.2774,0,1,1,0,1,0.8,0.8875,,,,,,,,,,,,,,,,,,,,,,,,,,,,,,,,,,,,,,,,,,,,,,,,,,,,,,,,,,,,,,,,,,,,,,,,,,,,,,,,,,,,,,,
,,,,,,,67d00193ba74882f03dc0820,682db4dcacd16069811f1e13,2025-05-21_13h21.45.514,cuing_paradigm_dot,2024.1.5,Win32,30.12048193,682d556593cb38ad0a074487,,,,,,,,,,,,,,,,,,,,,,,,,,,,94.2779,101.5926,space,4.2913,,,,,,,,,,,,,,,,,,,,,,,,,,,,,,,,,,,,,,,,,,,,,,,,,,,,,,,,,,,,,,,,,,,,,,,,,,,,,,,,,,
,,,,,,,67d00193ba74882f03dc0820,682db4dcacd16069811f1e13,2025-05-21_13h21.45.514,cuing_paradigm_dot,2024.1.5,Win32,30.12048193,682d556593cb38ad0a074487,,,,,,,,,,,101.6964,102.1177,,,102.3595,103.2752,right,,,,,,,,0.45,0.9008,,,,,,,102.1185,102.3593,103.2756,"[-0.09404066528470463,0.11122604153379145]","[-1,-1,-1]","[0.0980268349143187,0.0948619691560679]","[1,1,1]","[-0.06195590558590836,0.14378663268636901]","[-1,-1,-1]","[0.04141504225462283,-0.009902379693479933]","[-1,-1,-1]","[0.11166225699491349,-0.07924902562372499]","[-1,-1,-1]","[0.08294142529255868,0.01889290841487029]","[-1,-1,-1]","[-0.05266771622931684,-0.12572740129923335]","[1,1,1]","[0.019935376340993856,0.1812943003325217]","[-1,-1,-1]","[-0.1738547611264337,0.06644286250536334]","[-1,-1,-1]","[0.1212694275361002,0.03374321799961968]","[-1,-1,-1]","[0.05528135177816339,-0.14878488656117864]","[-1,-1,-1]","[-0.1707184791358588,-0.0973449708283512]","[-1,-1,-1]","[-0.08007283023683838,-0.04601325612356002]","[1,1,1]","[0.16640494472386744,-0.014204901391798423]","[1,1,1]","[-0.12435084528543036,-0.02162443040296775]","[1,1,1]","[-0.059801513804723844,-0.005283847103216717]","[-1,-1,-1]","[-0.05806802494999771,-0.18190213617681433]","[-1,-1,-1]","[0.006317775431645771,-0.15722533624414697]","[1,1,1]","[-0.12597418511075503,0.0784653770592663]","[-1,-1,-1]","[-0.03451338110126132,0.03724045110708813]","[1,1,1]","[0.0831756735299294,-0.10805295898793624]","[-1,-1,-1]","[0.006117434452648779,-0.06792833592818479]","[-1,-1,-1]","[0.050842979430923696,0.05503420625260895]","[1,1,1]","[0.06675357809471108,0.1419047321905475]","[1,1,1]","[0.16532252385410767,0.06338960561621002]","[1,1,1]","[-0.009590932257063287,0.10666442607242162]","[1,1,1]","[-0.16270293396282856,0.013474186540953158]","[-1,-1,-1]","[0.10817972562418714,0.1637836318045714]","[1,1,1]","[-0.09761397389174926,-0.11593803692193028]","[1,1,1]","[0.08262469810951553,-0.03488559289487441]","[1,1,1]","[-0.1869981941040021,-0.05078345152520197]","[-1,-1,-1]","[0.1492547201247569,0.1323584560299698]","[-1,-1,-1]","[0.02,0.02]",104.3748,0,0,0,76,1,,,,,,,
,,,,,,,67d00193ba74882f03dc0820,682db4dcacd16069811f1e13,2025-05-21_13h21.45.514,cuing_paradigm_dot,2024.1.5,Win32,30.12048193,682d556593cb38ad0a074487,,,,,,,,,,,104.3759,104.8747,,,105.1267,105.7748,right,,,,,,,,0.55,0.6344,,,,,,,104.8748,105.1267,105.7748,"[0.04213896633291952,-0.038681113605233124]","[-1,-1,-1]","[-0.09704361482146895,0.057742286317015244]","[1,1,1]","[0.022240797681103132,0.06898153788474394]","[-1,-1,-1]","[-0.05961472051952451,-0.17519792112403204]","[1,1,1]","[0.13187099592312512,-0.11254053053128776]","[-1,-1,-1]","[-0.07819130277674852,0.09608875600124506]","[-1,-1,-1]","[-0.10452449163418528,-0.06526252287762051]","[1,1,1]","[-0.003384895499147587,0.014760985088928728]","[-1,-1,-1]","[-0.11663765365658438,0.14814775501723418]","[-1,-1,-1]","[0.05328096799381309,0.018481718222495024]","[1,1,1]","[0.15987779042645117,0.000946362690047279]","[1,1,1]","[0.0791810558884891,-0.012196443996504526]","[1,1,1]","[0.02984751454140231,0.11604913026513411]","[-1,-1,-1]","[0.10054910619857012,-0.14943928372198376]","[1,1,1]","[0.17417389838522007,-0.06115440205177621]","[-1,-1,-1]","[0.10315665634964952,0.1697259875485124]","[1,1,1]","[-0.10386321186806616,-0.0022469864382847855]","[1,1,1]","[0.019362056300477958,0.1972268320954495]","[-1,-1,-1]","[0.14829695257356112,0.13276754827247664]","[-1,-1,-1]","[-0.16044753361669473,0.010043490942264607]","[1,1,1]","[0.1251867612762651,-0.05425953448486012]","[-1,-1,-1]","[0.11160423616619289,0.11264250351335137]","[1,1,1]","[0.0726651885861553,0.07287061569369756]","[1,1,1]","[-0.15108581355414874,0.11455762423755264]","[1,1,1]","[-0.02242692910205972,-0.13616353885729993]","[-1,-1,-1]","[-0.02713534711534898,0.09346132867950217]","[1,1,1]","[-0.12165921745228422,-0.12203899991433119]","[-1,-1,-1]","[-0.05778891109206644,-0.10312858699406939]","[1,1,1]","[-0.05861140912937953,0.14007434040418304]","[-1,-1,-1]","[-0.04567306177229471,0.044018282126387656]","[1,1,1]","[-0.17447954326849371,0.07849032963032644]","[1,1,1]","[0.007445723338524942,-0.16745179391508588]","[1,1,1]","[0.02,0.02]",106.874,0,1,1,125,1,,,,,,,
,,,,,,,67d00193ba74882f03dc0820,682db4dcacd16069811f1e13,2025-05-21_13h21.45.514,cuing_paradigm_dot,2024.1.5,Win32,30.12048193,682d556593cb38ad0a074487,,,,,,,,,,,106.8744,107.3739,,,107.6245,107.9408,left,,,,,,,,0.1,0.3011,,,,,,,107.374,107.6245,107.9409,"[0.029775857158343504,0.06222452568331869]","[-1,-1,-1]","[-0.08415275397524666,0.09039409093500808]","[-1,-1,-1]","[-0.09331318710579066,-0.13945879603659034]","[-1,-1,-1]","[0.19131506819801178,-0.02532410041274412]","[-1,-1,-1]","[-0.02604432352720889,-0.030969803676366384]","[1,1,1]","[-0.13371252567959194,0.0004759589804185879]","[1,1,1]","[-0.041170779014600326,0.1595795972318173]","[-1,-1,-1]","[0.09699626255461088,0.16807345405803073]","[-1,-1,-1]","[0.17285031418210467,0.031028467554649213]","[-1,-1,-1]","[0.05876048077807201,-0.07694282484783933]","[-1,-1,-1]","[-0.02335459539763152,-0.16016800423432417]","[-1,-1,-1]","[-0.13305514973044405,0.05992662860445358]","[-1,-1,-1]","[-0.05156710718920959,-0.07919151876868845]","[-1,-1,-1]","[-0.07125380457711021,-0.009856470960926433]","[-1,-1,-1]","[0.15098405644568832,-0.024094746669458614]","[-1,-1,-1]","[-0.17379272266406462,0.03977233070167771]","[-1,-1,-1]","[0.12204254613281545,0.032012380211898256]","[-1,-1,-1]","[-0.0024992228688474204,0.1965338120032799]","[-1,-1,-1]","[0.07027101410111647,-0.15442251721568673]","[-1,-1,-1]","[0.10977415212446541,0.10859459194306721]","[-1,-1,-1]","[0.047765138304641366,0.15203035093055375]","[-1,-1,-1]","[-0.0807208741189946,0.1760502826151773]","[-1,-1,-1]","[-0.16419307380629045,0.10729522652668283]","[-1,-1,-1]","[0.050957491265333,-0.037391244854167484]","[-1,-1,-1]","[0.13949131716316263,-0.09668999406925259]","[-1,-1,-1]","[0.0206881783427829,0.009197306842115224]","[-1,-1,-1]","[-0.1273434070846158,-0.051891521829933354]","[-1,-1,-1]","[0.03671494501844309,-0.11537484687736278]","[-1,-1,-1]","[0.10573066271527713,-0.05469472509035382]","[-1,-1,-1]","[-0.03835926624099119,0.10663529448466087]","[-1,-1,-1]","[0.1698126053906061,-0.0699531846744256]","[1,1,1]","[-0.025984078656383486,0.0583227318753882]","[-1,-1,-1]","[0.02,0.02]",109.0402,0,2,2,24,1,,,,,,,
,,,,,,,67d00193ba74882f03dc0820,682db4dcacd16069811f1e13,2025-05-21_13h21.45.514,cuing_paradigm_dot,2024.1.5,Win32,30.12048193,682d556593cb38ad0a074487,,,,,,,,,,,109.0406,109.5404,,,109.7909,110.1071,left,,,,,,,,0.1,0.2993,,,,,,,109.5405,109.7908,110.1071,"[-0.19010848805183694,-0.018450936360301304]","[-1,-1,-1]","[0.04789679566756052,0.014989391704061819]","[-1,-1,-1]","[-0.03978736647717418,-0.0600740276835703]","[-1,-1,-1]","[0.019256094953072588,-0.19091424201755489]","[-1,-1,-1]","[-0.044394809148145135,0.10502063621030903]","[-1,-1,-1]","[0.14859860397419272,-0.11914448841750297]","[-1,-1,-1]","[0.07887227778466296,-0.10936331572998953]","[-1,-1,-1]","[-0.1435037939445947,0.027949226157687048]","[1,1,1]","[-0.10384182278703347,-0.09431067368048511]","[-1,-1,-1]","[0.15099498090226612,-0.06159124871080623]","[1,1,1]","[0.09159520641737923,0.09818213766306258]","[-1,-1,-1]","[0.18406653077272805,0.03925461944704243]","[-1,-1,-1]","[-0.03830860260722507,0.16064985816401217]","[-1,-1,-1]","[-0.12849864031451405,0.12422774450379394]","[-1,-1,-1]","[0.09380636484127679,-0.024567927660994297]","[-1,-1,-1]","[0.05844208331107307,-0.16294844443988485]","[-1,-1,-1]","[-0.015999923237521713,-0.024782157597132926]","[-1,-1,-1]","[0.026014586038656265,0.12953050549813308]","[-1,-1,-1]","[0.16465957022618907,-0.0018709828941573352]","[-1,-1,-1]","[-0.1495883276075257,0.07586927653140094]","[-1,-1,-1]","[0.049400148047371306,0.055012076141230416]","[-1,-1,-1]","[-0.06073491068498708,-0.01168665807200914]","[-1,-1,-1]","[0.009577273034871261,0.18457955241981774]","[-1,-1,-1]","[-0.18180134275496496,-0.07629838901555328]","[-1,-1,-1]","[-0.05513363374708293,-0.16288631974128703]","[-1,-1,-1]","[-0.013059603868331948,0.047733876671946694]","[-1,-1,-1]","[0.17628537658338156,0.08147496488911943]","[-1,-1,-1]","[-0.13353305799854212,-0.040974944201280734]","[-1,-1,-1]","[-0.08390196323278422,0.16640907043457295]","[-1,-1,-1]","[0.0975899274646994,0.1660420987617309]","[-1,-1,-1]","[-0.013161991954055872,-0.15877749688691886]","[-1,-1,-1]","[-0.08310284122636749,-0.13236022761100588]","[1,1,1]","[0.02,0.02]",111.2065,0,3,3,13,1,,,,,,,
,,,,,,,67d00193ba74882f03dc0820,682db4dcacd16069811f1e13,2025-05-21_13h21.45.514,cuing_paradigm_dot,2024.1.5,Win32,30.12048193,682d556593cb38ad0a074487,,,,,,,,,,,111.2072,111.7062,,,111.9565,112.3227,left,,,,,,,,0.1,0.3559,,,,,,,111.7063,111.9565,112.3228,"[-0.060036080892634354,0.03826522287364969]","[-1,-1,-1]","[-0.16387827565793445,0.08799905043972124]","[-1,-1,-1]","[-0.009075867451973035,0.030921750156810576]","[-1,-1,-1]","[0.0799540390087267,0.1469557919736758]","[-1,-1,-1]","[-0.03147062558309155,0.11216787405698427]","[-1,-1,-1]","[0.08316768112739789,-0.16420523727351288]","[-1,-1,-1]","[-0.05939794184085481,-0.17349170032457809]","[-1,-1,-1]","[0.032349799713315655,-0.12360228336037545]","[-1,-1,-1]","[-0.09729574372662658,-0.05730446086402701]","[-1,-1,-1]","[-0.1299533825383164,-0.01679931469067378]","[-1,-1,-1]","[-0.14899949031719575,-0.09284174283530781]","[-1,-1,-1]","[0.1223134267984413,-0.01692940166936851]","[-1,-1,-1]","[0.029823301553349228,0.17156722306274652]","[-1,-1,-1]","[0.000577494403494041,-0.05848329407490944]","[-1,-1,-1]","[0.16623453478625536,0.09227120488500312]","[-1,-1,-1]","[-0.03903853149113965,-0.037234924588251034]","[-1,-1,-1]","[-0.09259550460347585,-0.11347456051069404]","[-1,-1,-1]","[0.022668129848615468,0.07760161009373859]","[-1,-1,-1]","[-0.11420828783616901,0.07494267126866146]","[-1,-1,-1]","[0.19126234015893134,-0.03911781326596444]","[1,1,1]","[-0.0783954135180241,0.16871654892482604]","[-1,-1,-1]","[0.16288672705436621,0.028662291934927406]","[-1,-1,-1]","[-0.1513749941374438,0.04075272949393911]","[-1,-1,-1]","[-0.19126770379814428,0.05224863745577158]","[-1,-1,-1]","[-0.011601989496416283,-0.15213206360177672]","[-1,-1,-1]","[0.02983491585350197,0.12423243944454654]","[-1,-1,-1]","[-0.1256682620216456,0.11703378291398743]","[-1,-1,-1]","[0.09741324176746943,0.08794988366795817]","[1,1,1]","[0.13582794095556966,-0.13596387783725056]","[1,1,1]","[0.039468866071270606,0.00203408316012549]","[-1,-1,-1]","[0.07268779807172082,-0.07321911547748214]","[-1,-1,-1]","[0.029897438375091456,-0.18649169826675296]","[-1,-1,-1]","[0.02,0.02]",113.423,0,4,4,21,1,,,,,,,
,,,,,,,67d00193ba74882f03dc0820,682db4dcacd16069811f1e13,2025-05-21_13h21.45.514,cuing_paradigm_dot,2024.1.5,Win32,30.12048193,682d556593cb38ad0a074487,,,,,,,,,,,113.4234,113.9223,,,114.165,115.0089,left,,,,,,,,0.5,0.8264,,,,,,,113.9224,114.1649,115.0091,"[0.08727947956972724,0.093913187275451]","[-1,-1,-1]","[0.16812026693791535,0.09909016531796158]","[1,1,1]","[-0.12545402626417065,0.1100618874629498]","[1,1,1]","[0.15626460985885127,-0.11707006283216798]","[1,1,1]","[-0.05066975320690809,-0.012029810108648233]","[-1,-1,-1]","[0.012178805397882337,0.15739395049933153]","[-1,-1,-1]","[0.10709385554633127,-0.06676465260120396]","[-1,-1,-1]","[-0.13183939736940578,0.032541200461772724]","[1,1,1]","[-0.1335542765971376,-0.11500722937118345]","[1,1,1]","[-0.15297109877788875,-0.02299999165102185]","[-1,-1,-1]","[0.07586406015526155,-0.11776701253218348]","[-1,-1,-1]","[0.14542706220914872,0.05234630298790488]","[1,1,1]","[-0.016921850908367113,-0.07635382125596604]","[1,1,1]","[-0.08611714880963935,-0.14818601484869667]","[1,1,1]","[-0.17129853941582532,0.07453020815833178]","[-1,-1,-1]","[0.01692416931389535,-0.17175604925464819]","[-1,-1,-1]","[0.10388845345831496,0.1537939164643398]","[-1,-1,-1]","[-0.04312946899478394,0.09938726411829335]","[1,1,1]","[0.1900011195910779,-0.04644490646670831]","[1,1,1]","[0.0751677397169785,-0.18264494185714933]","[-1,-1,-1]","[-0.06547941244500277,-0.09860620161212695]","[-1,-1,-1]","[0.042824340078784544,-0.028896360397969337]","[-1,-1,-1]","[0.07837228950085347,0.04438430350089755]","[1,1,1]","[-0.11230091631453208,-0.040161743718384886]","[1,1,1]","[0.11626802778442857,-0.0159705118706005]","[-1,-1,-1]","[-0.08594265922814869,0.07516854159424073]","[-1,-1,-1]","[0.1884127546705641,0.05709872714904122]","[1,1,1]","[0.06685624679267825,-0.07697780313583064]","[1,1,1]","[0.027931115939291675,0.1181811357148301]","[-1,-1,-1]","[0.13136755785109122,0.12380526337601788]","[-1,-1,-1]","[0.0042175278273053176,0.05919823803711444]","[1,1,1]","[0.004497445135647763,-0.006366608464043743]","[1,1,1]","[0.02,0.02]",116.098,0,5,5,92,1,,,,,,,
,,,,,,,67d00193ba74882f03dc0820,682db4dcacd16069811f1e13,2025-05-21_13h21.45.514,cuing_paradigm_dot,2024.1.5,Win32,30.12048193,682d556593cb38ad0a074487,,,,,,,,,,,116.0988,116.5974,,,116.8483,117.3819,left,,,,,,,,0.4,0.5174,,,,,,,116.5976,116.8482,117.382,"[0.14301279008160522,-0.11964716683306136]","[-1,-1,-1]","[-0.14679459908936368,0.06344268435956137]","[1,1,1]","[0.07657787186417982,-0.05404782823328794]","[-1,-1,-1]","[0.11333349254934286,0.15508134422454434]","[-1,-1,-1]","[0.03407558570992113,0.188445508023443]","[-1,-1,-1]","[0.1737683820352821,-0.0654465025977048]","[-1,-1,-1]","[-0.10267532962560275,-0.04682563805075882]","[-1,-1,-1]","[0.05783500269159036,-0.08996718920820945]","[1,1,1]","[-0.019466187156069657,0.06560383849287237]","[1,1,1]","[0.09269513699834261,0.09236430077319681]","[-1,-1,-1]","[0.08690388942929518,0.007103138798903593]","[-1,-1,-1]","[-0.09458845738134818,0.1442999501026472]","[1,1,1]","[-0.15132127832325742,-0.1047949950189189]","[-1,-1,-1]","[-0.08507872642037846,-0.1603826529367294]","[1,1,1]","[-0.047121854161333854,-0.19394577423862644]","[1,1,1]","[0.13133450046751424,0.06789422150915662]","[-1,-1,-1]","[-0.02880655361196624,0.16128538173492496]","[-1,-1,-1]","[-0.030534099615288593,-0.14155946951329723]","[1,1,1]","[-0.0070135763734689265,-0.1025967217071964]","[-1,-1,-1]","[-0.06531634928543906,0.031017010475379334]","[-1,-1,-1]","[0.17532383221512843,0.053871087068817894]","[1,1,1]","[-0.021596887273590937,0.014237427806178772]","[-1,-1,-1]","[0.05604167892072246,-0.18542208637007573]","[1,1,1]","[-0.0037675665656301226,0.1081272920527639]","[-1,-1,-1]","[0.03251735324810929,0.018463323545028727]","[1,1,1]","[-0.1962435361961405,0.03550579012075686]","[1,1,1]","[0.006880579230643091,-0.16835572787454464]","[1,1,1]","[0.07322784929781595,-0.13861969366688293]","[1,1,1]","[0.05210814765143585,0.06162652217607916]","[-1,-1,-1]","[-0.05948740331561228,0.09844165719013515]","[-1,-1,-1]","[-0.09659687752714079,-0.12067289193291454]","[-1,-1,-1]","[-0.05670080226187644,-0.05118162592857884]","[-1,-1,-1]","[0.02,0.02]",118.4563,0,6,6,35,1,,,,,,,
,,,,,,,67d00193ba74882f03dc0820,682db4dcacd16069811f1e13,2025-05-21_13h21.45.514,cuing_paradigm_dot,2024.1.5,Win32,30.12048193,682d556593cb38ad0a074487,,,,,,,,,,,118.4575,118.955,,,119.2056,119.9715,right,,,,,,,,0.45,0.7509,,,,,,,118.9551,119.2056,119.9715,"[0.09973304527909141,-0.02090437155277578]","[-1,-1,-1]","[0.12089283499158415,0.12312960568237828]","[-1,-1,-1]","[0.179092744369792,0.03751930316025143]","[-1,-1,-1]","[-0.04198464745191057,-0.10038236888281923]","[1,1,1]","[0.1899054933268177,-0.05534529281833509]","[-1,-1,-1]","[0.13082203468450207,-0.059717284881719325]","[1,1,1]","[0.012763541078108445,-0.085168203994045]","[1,1,1]","[-0.13175518234113875,-0.12990844045023828]","[-1,-1,-1]","[-0.1380635267703285,0.0852523757016905]","[1,1,1]","[-0.01843270626640742,0.07604908107845665]","[1,1,1]","[-0.010427579590105476,-0.040085485919474285]","[1,1,1]","[-0.15474417704717436,0.12487776200807812]","[1,1,1]","[-0.1719949029286078,-0.06817866402481829]","[1,1,1]","[0.022953510725437408,0.07833034446027692]","[1,1,1]","[-0.05325348250754058,0.05628269288094951]","[-1,-1,-1]","[-0.007342169681229163,0.15893566900413716]","[1,1,1]","[-0.05009294568865393,-0.033743939166359344]","[-1,-1,-1]","[-0.048684712449541014,0.011473444613705292]","[-1,-1,-1]","[0.06072491735561565,-0.009333032073299457]","[-1,-1,-1]","[0.021019394074551823,0.1988533266232281]","[1,1,1]","[-0.06642187522674788,-0.15468336660436727]","[1,1,1]","[-0.09303093363254672,0.10617913076419302]","[-1,-1,-1]","[0.05501572319509191,-0.051245147760042846]","[-1,-1,-1]","[-0.08505415561685836,-0.07813507685394956]","[-1,-1,-1]","[0.0599484576614508,0.04737766151787863]","[-1,-1,-1]","[-0.18845746375444855,0.06619336397831403]","[-1,-1,-1]","[0.003443657531409244,-0.12454112636495433]","[-1,-1,-1]","[0.11121472965810478,-0.0982393443044927]","[1,1,1]","[-0.10968780389208342,0.02348902265764801]","[-1,-1,-1]","[0.1419830468342854,-0.000382372503358363]","[1,1,1]","[-0.004106945410552915,0.11408790293137422]","[-1,-1,-1]","[0.08327332807506105,0.1532931100373748]","[-1,-1,-1]","[0.02,0.02]",121.073,0,7,7,61,1,,,,,,,
,,,,,,,67d00193ba74882f03dc0820,682db4dcacd16069811f1e13,2025-05-21_13h21.45.514,cuing_paradigm_dot,2024.1.5,Win32,30.12048193,682d556593cb38ad0a074487,,,,,,,,,,,121.0734,121.5716,,,121.8161,122.3302,right,,,,,,,,0.9,0.5003,,,,,,,121.5716,121.816,122.3303,"[0.03394732062690666,0.09040386938876063]","[1,1,1]","[0.0446512904813869,-0.02481554585488407]","[1,1,1]","[-0.17101295704173744,0.08151877352561047]","[1,1,1]","[0.05431150016557614,0.016401962098198955]","[1,1,1]","[0.1309528087089627,0.09755425922375446]","[1,1,1]","[-0.09380414356950188,-0.14811095330842536]","[1,1,1]","[0.13191596205529235,0.05460794601770438]","[-1,-1,-1]","[-0.06303169518049019,-0.004925217223495225]","[1,1,1]","[-0.08497263446005139,0.14750159970123689]","[-1,-1,-1]","[0.030477332976907797,-0.06426649770035382]","[1,1,1]","[0.01494126999560644,0.17842486523607665]","[1,1,1]","[0.008625771796073066,0.015565729881017063]","[1,1,1]","[-0.13095707021158598,-0.06226827678309465]","[1,1,1]","[-0.16881105681319006,-0.10351639926303093]","[1,1,1]","[0.1914796934513279,-0.0074897444163831844]","[1,1,1]","[0.11874883433832872,-0.10684019469617217]","[1,1,1]","[0.08744858565342692,0.08190371713197386]","[1,1,1]","[-0.031015199060146333,-0.03622731466939831]","[1,1,1]","[-0.06470402642862463,0.08288547034982649]","[1,1,1]","[0.06894776387025973,0.1773317264260531]","[1,1,1]","[0.09878101873350022,-0.15101588184739245]","[1,1,1]","[-0.08803336275050841,-0.08341573408428482]","[-1,-1,-1]","[0.026438403536461375,-0.1853850770287005]","[1,1,1]","[0.1476956792672868,-0.02854416082799981]","[1,1,1]","[-0.011622348619509622,0.06302178323159538]","[1,1,1]","[-0.055766867778770456,-0.1626200013711207]","[1,1,1]","[0.07617544620777482,-0.05326709890811579]","[1,1,1]","[0.19428745214791474,0.036348783900570183]","[1,1,1]","[-0.16202296961553173,0.020667995998617815]","[1,1,1]","[0.03353946955862822,-0.1448237459916422]","[1,1,1]","[-0.1070158692424621,0.024657710198851712]","[1,1,1]","[-0.12850295951850504,-0.014289548091645425]","[1,1,1]","[0.02,0.02]",123.429,0,8,8,203,1,,,,,,,
,,,,,,,67d00193ba74882f03dc0820,682db4dcacd16069811f1e13,2025-05-21_13h21.45.514,cuing_paradigm_dot,2024.1.5,Win32,30.12048193,682d556593cb38ad0a074487,,,,,,,,,,,123.4295,123.9214,,,124.172,124.687,left,,,,,,,,0.45,0.5013,,,,,,,123.9215,124.1719,124.6871,"[-0.10159290974200529,-0.053093700477151964]","[-1,-1,-1]","[0.07436521883749121,0.17646402176356282]","[-1,-1,-1]","[-0.10680165496779803,0.016561377616161815]","[-1,-1,-1]","[-0.12042665400968906,-0.10156330045974914]","[1,1,1]","[-0.10606999952652205,0.1075569418203007]","[-1,-1,-1]","[-0.06082078781845954,0.00844750518550015]","[-1,-1,-1]","[0.08433893156343729,-0.0770931109560567]","[-1,-1,-1]","[-0.1849822846236473,-0.05098667245967868]","[1,1,1]","[0.08147486676719513,0.13492445504312817]","[-1,-1,-1]","[0.1523476169155274,0.126388113458726]","[1,1,1]","[-0.050659580720539735,0.15147821188823524]","[-1,-1,-1]","[0.010943735482595232,-0.10818073653225256]","[-1,-1,-1]","[-0.08273794897529257,0.06257352151152974]","[-1,-1,-1]","[0.07216351170758391,-0.03502599983135299]","[-1,-1,-1]","[-0.019970629426397334,0.10020146681010213]","[1,1,1]","[0.13951158357385654,0.0841102586481556]","[1,1,1]","[0.03486364331630595,-0.1677611834364265]","[-1,-1,-1]","[0.1252226730906965,-0.026799233142449128]","[-1,-1,-1]","[0.04254711493062372,0.06989198594870805]","[-1,-1,-1]","[0.03370160261681546,0.1350323918972058]","[-1,-1,-1]","[0.14428818735348758,0.03298498101138129]","[-1,-1,-1]","[-0.17219128048655435,0.06118904083537095]","[1,1,1]","[0.057627345621992065,-0.132876600807659]","[1,1,1]","[0.08513671452055026,0.06498210052201821]","[1,1,1]","[0.13294912674369988,-0.1177475255722584]","[1,1,1]","[0.05680631546646407,0.009834829784805935]","[1,1,1]","[-0.05733126972451614,-0.06610052649662838]","[1,1,1]","[0.1770517320323877,-0.027702787877158703]","[1,1,1]","[-0.06209177695753622,-0.12423361148762174]","[1,1,1]","[0.10263122126454455,-0.16927051272458632]","[1,1,1]","[-0.028767724101725258,-0.17180272012282435]","[-1,-1,-1]","[0.17455609190306817,-0.09284113421174656]","[-1,-1,-1]","[0.02,0.02]",125.7863,0,9,9,71,1,,,,,,,
,,,,,,,67d00193ba74882f03dc0820,682db4dcacd16069811f1e13,2025-05-21_13h21.45.514,cuing_paradigm_dot,2024.1.5,Win32,30.12048193,682d556593cb38ad0a074487,,,,,,,,,,,125.7867,126.2798,,,126.5289,127.0655,right,,,,,,,,0.55,0.521,,,,,,,126.2799,126.5288,127.0656,"[-0.11162700995019699,0.11586568523230294]","[-1,-1,-1]","[0.009852361859989377,-0.055334011581034556]","[-1,-1,-1]","[0.056484864574251836,-0.11598757022818654]","[1,1,1]","[0.08389663474010801,0.042650107467363876]","[1,1,1]","[0.011180456310501734,-0.1152087073096874]","[-1,-1,-1]","[-0.0618232291945643,-0.12105072170232185]","[1,1,1]","[-0.1330393732520321,0.06360932685143508]","[1,1,1]","[0.13860963664071127,0.026468516373757644]","[1,1,1]","[-0.1500855374797357,0.02152017105033806]","[1,1,1]","[-0.042021049053685665,-0.055087963755775016]","[1,1,1]","[-0.07645697068949443,0.13979398581072291]","[-1,-1,-1]","[0.17340307228473698,0.09795729423011504]","[-1,-1,-1]","[0.0745494196354062,0.11237126657024776]","[-1,-1,-1]","[0.012727626432883363,0.08853968108854532]","[1,1,1]","[-0.16326973822494545,-0.07963099880559785]","[-1,-1,-1]","[-0.05539795038894539,0.015530637178328633]","[-1,-1,-1]","[-0.01983687260485429,0.15860084286104564]","[1,1,1]","[0.05486524101486322,0.0021809592042100747]","[1,1,1]","[0.18420199263745154,-0.05404710072521903]","[-1,-1,-1]","[-0.11969635937755023,-0.020045317563670135]","[1,1,1]","[0.18214850982511316,0.04634499682253869]","[1,1,1]","[0.11461377016771822,0.13634447470838412]","[-1,-1,-1]","[0.004836312335103932,0.0056743580133629175]","[-1,-1,-1]","[-0.0745991573281331,-0.17805130629999583]","[1,1,1]","[-0.03686471652769308,0.09020260992702382]","[1,1,1]","[0.09146875237126355,-0.08667242762695831]","[-1,-1,-1]","[0.09920220842973965,-0.030087873293126902]","[1,1,1]","[0.12456442679698033,-0.1255252089247843]","[1,1,1]","[-0.05102351335192536,0.19268977162893683]","[-1,-1,-1]","[-0.1597595167483151,0.0982226213595374]","[1,1,1]","[-0.1280425127450894,-0.12138348518094287]","[-1,-1,-1]","[0.02353787017538394,-0.1685095056151248]","[1,1,1]","[0.02,0.02]",128.1625,0,10,10,132,1,,,,,,,
,,,,,,,67d00193ba74882f03dc0820,682db4dcacd16069811f1e13,2025-05-21_13h21.45.514,cuing_paradigm_dot,2024.1.5,Win32,30.12048193,682d556593cb38ad0a074487,,,,,,,,,,,128.1639,128.653,,,128.8951,129.515,right,,,,,,,,0.5,0.6025,,,,,,,128.653,128.895,129.5151,"[-0.005811653033171448,0.18573562081754438]","[1,1,1]","[-0.011507406409090785,0.1250640209353548]","[1,1,1]","[-0.12934783517022422,-0.04790951212317615]","[1,1,1]","[-0.05409918754106419,-0.057972241344963774]","[1,1,1]","[0.08374546455265117,-0.05681914322966507]","[-1,-1,-1]","[0.0761796010420053,-0.1470598751611573]","[-1,-1,-1]","[0.013461457144448928,-0.07289797728448526]","[-1,-1,-1]","[0.0603471170706906,0.027153398408952614]","[1,1,1]","[0.12943966952329136,0.1307463601348562]","[-1,-1,-1]","[-0.10975129490464398,-0.0010459024773800565]","[-1,-1,-1]","[-0.07119060807242926,0.11666693805318923]","[1,1,1]","[0.13272317937917383,0.06947908222097979]","[-1,-1,-1]","[-0.09028511775527405,-0.09664804144721527]","[1,1,1]","[-0.05337554070074989,0.016872690442547703]","[-1,-1,-1]","[0.17334040363790462,-0.06388292772961403]","[1,1,1]","[-0.019129392401986554,-0.008617583708483003]","[1,1,1]","[-0.09931444269043531,0.08613025988989027]","[-1,-1,-1]","[0.0382260186330256,0.06637487542312961]","[-1,-1,-1]","[0.13353478446209222,-0.11601255058436193]","[1,1,1]","[0.1491878622332863,-0.005246535336087563]","[-1,-1,-1]","[0.049166659897491055,0.17216125938524351]","[1,1,1]","[0.04546808472446202,-0.17585948147973346]","[-1,-1,-1]","[-0.1732526746529303,0.006062871282804661]","[-1,-1,-1]","[-0.1532761308842825,0.07840212081554876]","[-1,-1,-1]","[-0.10274614646250613,-0.16790063846777162]","[1,1,1]","[-0.06317894808371946,-0.18645474576043783]","[-1,-1,-1]","[0.1902868651337174,-0.016808387217706968]","[-1,-1,-1]","[-0.002134313251492716,-0.19443701570795707]","[1,1,1]","[-0.14530020601848948,-0.13684393469113681]","[1,1,1]","[0.06977690620395688,-0.10138802780941428]","[1,1,1]","[-0.0167073289346278,-0.1496968657898255]","[-1,-1,-1]","[0.011994183153920944,0.02791758842042853]","[1,1,1]","[0.02,0.02]",130.619,0,11,11,117,1,,,,,,,
,,,,,,,67d00193ba74882f03dc0820,682db4dcacd16069811f1e13,2025-05-21_13h21.45.514,cuing_paradigm_dot,2024.1.5,Win32,30.12048193,682d556593cb38ad0a074487,,,,,,,,,,,130.6198,131.1188,,,131.3626,131.8838,right,,,,,,,,0.6,0.5054,,,,,,,131.119,131.3625,131.8838,"[0.076685978781133,0.016925372976477258]","[1,1,1]","[-0.0930065822514035,0.02928405872860764]","[-1,-1,-1]","[0.04050145788337417,-0.12611230203564158]","[1,1,1]","[-0.16141942457041603,-0.06538047605112758]","[-1,-1,-1]","[-0.005000136809668453,0.028792709254032975]","[1,1,1]","[-0.03545795885677878,0.19002358928760638]","[-1,-1,-1]","[-0.05857439533400677,-0.029233760472235033]","[1,1,1]","[-0.09183632769797102,-0.09872925267382308]","[-1,-1,-1]","[-0.0019133393518858395,-0.019349508618734666]","[1,1,1]","[-0.1570832696933379,-0.024787228427181167]","[1,1,1]","[0.19456892001234036,-0.03412124327166112]","[1,1,1]","[-0.0634677826257862,0.07217962864369387]","[1,1,1]","[-0.09482724877373826,0.16116574752915558]","[-1,-1,-1]","[0.06202824283532451,-0.03338328181002982]","[1,1,1]","[0.049774859463381664,0.048955684328913215]","[-1,-1,-1]","[0.08931814181697455,0.06006748352266085]","[1,1,1]","[0.17294828878185955,0.07907373119260895]","[-1,-1,-1]","[-0.10095512282208981,-0.1719612732296384]","[-1,-1,-1]","[-0.03456640411186904,-0.10828420966459722]","[1,1,1]","[0.11054774848488776,-0.027449358938337838]","[1,1,1]","[0.13312951538131673,0.05297489430512669]","[-1,-1,-1]","[-0.1492605350266516,0.05315898991467752]","[1,1,1]","[0.12953984031648597,0.12797743433018033]","[-1,-1,-1]","[-0.0829050475722571,0.10876450068016906]","[1,1,1]","[-0.01029534967813755,-0.07097168166509474]","[1,1,1]","[-0.02287785259234916,0.09705337640992076]","[1,1,1]","[0.04621898971604776,0.0892060753995874]","[-1,-1,-1]","[0.18867390989800428,0.03253774798129049]","[1,1,1]","[0.08584349255428154,0.162595876697028]","[1,1,1]","[-0.16026841571250744,0.09420261685113819]","[1,1,1]","[0.08262560461699384,0.11462992993948584]","[-1,-1,-1]","[-0.023561644182171503,-0.18966426829828315]","[-1,-1,-1]","[0.02,0.02]",132.977,0,12,12,178,1,,,,,,,
,,,,,,,67d00193ba74882f03dc0820,682db4dcacd16069811f1e13,2025-05-21_13h21.45.514,cuing_paradigm_dot,2024.1.5,Win32,30.12048193,682d556593cb38ad0a074487,,,,,,,,,,,132.9777,133.4766,,,133.7266,134.6033,right,,,,,,,,0.6,0.86,,,,,,,133.4766,133.7266,134.6034,"[0.11173300390729692,-0.047972302466450054]","[-1,-1,-1]","[0.011058999828692871,-0.13961712798037917]","[1,1,1]","[-0.09097441975605929,-0.09278225659859632]","[-1,-1,-1]","[0.022045421881402547,-0.028922910036797474]","[-1,-1,-1]","[-0.03863802513188867,-0.14684456149665195]","[1,1,1]","[0.10172363507210845,0.09722438210766098]","[1,1,1]","[-0.030345496682004237,-0.07903254702276247]","[-1,-1,-1]","[0.06458993086425252,0.017832403411111718]","[-1,-1,-1]","[0.10679304066383635,-0.08932647594863093]","[-1,-1,-1]","[-0.17165876547235007,-0.10170481142889355]","[-1,-1,-1]","[0.07511104231695476,-0.14666655502849393]","[1,1,1]","[0.002855624905506591,0.023118721406575886]","[-1,-1,-1]","[-0.09385323108669283,0.13789231239378505]","[1,1,1]","[0.001641302616453598,0.1070643690602789]","[1,1,1]","[-0.05047564341195379,-0.01534226954716965]","[1,1,1]","[-0.13067952693778026,0.0024583099462019476]","[1,1,1]","[-0.04104065988817768,0.15210445439073703]","[1,1,1]","[0.1482010345632644,0.007285675791101329]","[1,1,1]","[-0.0958426172312529,-0.036511450004322696]","[-1,-1,-1]","[0.03271030558803852,0.14220481245737557]","[-1,-1,-1]","[0.05198629675392734,0.1848094642680049]","[-1,-1,-1]","[-0.12197012989986177,0.07875325984065695]","[1,1,1]","[0.13809117240800023,0.07954174198996643]","[-1,-1,-1]","[-0.07269824494895907,0.06396224991575666]","[-1,-1,-1]","[-0.1733189185112481,-0.0105177047897824]","[1,1,1]","[0.18251719052677953,0.03292585943851486]","[1,1,1]","[-0.16856789339433997,0.03920447484572719]","[1,1,1]","[0.15537625234408284,0.1166609105981643]","[1,1,1]","[0.023309218077139728,0.05970406173643461]","[1,1,1]","[0.16861522951066943,-0.07400623006910327]","[1,1,1]","[-0.14786913341389432,-0.0686293224396763]","[1,1,1]","[0.06145458881583328,-0.041205215465401346]","[1,1,1]","[0.02,0.02]",135.6183,0,13,13,157,1,,,,,,,
,,,,,,,67d00193ba74882f03dc0820,682db4dcacd16069811f1e13,2025-05-21_13h21.45.514,cuing_paradigm_dot,2024.1.5,Win32,30.12048193,682d556593cb38ad0a074487,,,,,,,,,,,135.6202,136.1172,,,136.5315,137.0946,right,,,,,,,,0.6,0.5521,,,,,,,136.1173,136.5314,137.0947,"[-0.13221449991007178,-0.08106434452624686]","[1,1,1]","[-0.07129960133082706,-0.1737175652887409]","[-1,-1,-1]","[0.17150848937431964,0.0026343323932409594]","[-1,-1,-1]","[-0.07426727468732766,0.08207895688517153]","[1,1,1]","[0.050257407166614594,0.1484807715239378]","[1,1,1]","[0.11882905321490637,0.08701093515434886]","[1,1,1]","[0.008488724157773063,0.06155779344322141]","[1,1,1]","[0.02091015190612401,0.015434112455702201]","[-1,-1,-1]","[-0.0006666596354289158,-0.1724257289357679]","[1,1,1]","[-0.1951921786699469,0.02454217646595176]","[-1,-1,-1]","[0.0280573962075321,0.10887061878113638]","[1,1,1]","[-0.12993311400089874,-0.1272542986922886]","[1,1,1]","[0.1604068309185395,-0.07487896776708433]","[-1,-1,-1]","[-0.0364231318921862,0.06459436677088762]","[-1,-1,-1]","[-0.037369877896969,0.11890648366919523]","[1,1,1]","[-0.1095615586494069,0.003316487218553593]","[-1,-1,-1]","[-0.062378395590067054,0.17627489947424213]","[1,1,1]","[0.12264866960908868,0.15770527473039866]","[-1,-1,-1]","[-0.12486235559385399,0.12953417735919434]","[-1,-1,-1]","[0.0623614133513446,0.02494417647650717]","[1,1,1]","[-0.004290480457331872,0.1490338543831303]","[1,1,1]","[-0.1323517334888119,0.06517775014942565]","[1,1,1]","[0.1129568599296517,-0.06329377274592023]","[1,1,1]","[0.004764816844067466,-0.10964449868583714]","[-1,-1,-1]","[0.17863370138424595,0.058843904550438135]","[-1,-1,-1]","[-0.13473915275716614,-0.03130019752280401]","[1,1,1]","[0.0274666110434416,-0.061341023468765056]","[1,1,1]","[0.08546290807119965,0.06023565793619475]","[1,1,1]","[0.09207740708093869,-0.13136833500557077]","[1,1,1]","[0.04052022798533388,-0.1854511182320263]","[1,1,1]","[0.1156526363621539,-0.018972104292355612]","[-1,-1,-1]","[-0.05376735308999826,-0.10278250429218756]","[-1,-1,-1]","[0.02,0.02]",138.1841,0,14,14,154,1,,,,,,,
,,,,,,,67d00193ba74882f03dc0820,682db4dcacd16069811f1e13,2025-05-21_13h21.45.514,cuing_paradigm_dot,2024.1.5,Win32,30.12048193,682d556593cb38ad0a074487,,,,,,,,,,,138.1848,138.6833,,,138.9348,139.35,right,,,,,,,,0.5,0.4009,,,,,,,138.6834,138.9348,139.35,"[0.06318762361739695,0.1173437594966065]","[-1,-1,-1]","[0.11973151736543258,-0.14003188944191053]","[-1,-1,-1]","[-0.021504992746204286,-0.16011348628339364]","[1,1,1]","[0.03216550349196592,0.08978157069459866]","[1,1,1]","[-0.09920610703061288,-0.14200481213534327]","[-1,-1,-1]","[-0.131066441130452,0.03632385631226503]","[-1,-1,-1]","[-0.00808782953445462,-0.010790959258249714]","[1,1,1]","[-0.14460617868546552,0.1267956399820684]","[1,1,1]","[-0.09375714093321294,0.1525463061872567]","[1,1,1]","[0.008523036630540277,0.043801164025427976]","[1,1,1]","[-0.061828496342694515,-0.0778381129884002]","[1,1,1]","[0.014206323807164904,0.13157261185207794]","[1,1,1]","[-0.13653815630635197,-0.10267940701374319]","[1,1,1]","[0.05931545828522234,-0.12798820149742754]","[-1,-1,-1]","[0.08646438659458992,0.012483180562824584]","[1,1,1]","[-0.09259440572432848,0.10639183462029041]","[1,1,1]","[0.10676634172814096,0.08501959296200995]","[1,1,1]","[0.11016689686194645,0.1571626876465087]","[1,1,1]","[0.12514132950770454,0.04644368885479533]","[-1,-1,-1]","[-0.12625760046933113,-0.06063318540269467]","[-1,-1,-1]","[0.12840089301052485,-0.0228959855259915]","[1,1,1]","[0.17164887441860802,0.09836695711029204]","[-1,-1,-1]","[0.055007961999328496,-0.021820089365874942]","[1,1,1]","[-0.17878479328027597,0.03776694727354571]","[-1,-1,-1]","[0.16685035954424948,0.013865364088420658]","[-1,-1,-1]","[0.17618484121737385,-0.08168615103649345]","[-1,-1,-1]","[-0.01351308458204068,0.08945529584407144]","[-1,-1,-1]","[-0.07741734438549695,-0.027185268012067658]","[-1,-1,-1]","[0.006501827378007426,-0.11746071227106165]","[-1,-1,-1]","[-0.009329250175036786,0.19464705579978028]","[-1,-1,-1]","[-0.03395535023045225,0.03769919523149114]","[1,1,1]","[0.19327946669994767,-0.03750988701821434]","[-1,-1,-1]","[0.02,0.02]",140.4495,0,15,15,113,1,,,,,,,
,,,,,,,67d00193ba74882f03dc0820,682db4dcacd16069811f1e13,2025-05-21_13h21.45.514,cuing_paradigm_dot,2024.1.5,Win32,30.12048193,682d556593cb38ad0a074487,,,,,,,,,,,140.4504,140.9416,,,141.1922,141.5929,right,,,,,,,,0.9,0.3849,,,,,,,140.9417,141.1922,141.593,"[0.1674244007798007,-0.05395930276517154]","[1,1,1]","[-0.06401927690181466,0.018798278136512633]","[1,1,1]","[-0.15657139835366146,-0.1238541106417115]","[1,1,1]","[0.08478513155213484,-0.07501740604800275]","[1,1,1]","[0.13424413849554695,0.13972977827670083]","[1,1,1]","[-0.11111214721545183,0.06137032532956795]","[1,1,1]","[0.08792926060618736,0.07734294180541657]","[1,1,1]","[0.13155789710293464,0.0893441342839113]","[1,1,1]","[-0.08568735521056206,0.17037207745014873]","[-1,-1,-1]","[0.11712268469493163,-0.13941317032707853]","[1,1,1]","[0.1641101577365691,0.01914233575144799]","[-1,-1,-1]","[0.024723612362057418,0.014149783001538411]","[1,1,1]","[-0.1326333587238072,-0.08626599399411072]","[1,1,1]","[-0.117261499495906,-0.15453019913222335]","[1,1,1]","[-0.001789461932748477,0.13368785035849848]","[1,1,1]","[0.039497433869752546,-0.03746016337381997]","[1,1,1]","[-0.15494441957471894,-0.033513554563338765]","[1,1,1]","[-0.022346433166533074,0.0815924349266362]","[1,1,1]","[-0.1525519766558347,0.11444261075743362]","[1,1,1]","[-0.013425669680872056,-0.1642583242315873]","[1,1,1]","[0.1001395415108344,0.1664088377747178]","[1,1,1]","[0.10714049230279804,0.024478037219697525]","[-1,-1,-1]","[0.05997001150440359,-0.11147710454402478]","[1,1,1]","[0.021055856305726657,-0.08543877571089772]","[1,1,1]","[0.06125643159579487,0.14754616497109163]","[1,1,1]","[-0.04926333727281409,0.1881360749213637]","[1,1,1]","[-0.1621707138152556,0.010524754706029201]","[1,1,1]","[0.1463150861407559,-0.09531955181352368]","[1,1,1]","[-0.04907338615642831,-0.02151881892263058]","[1,1,1]","[0.02981908161204288,-0.18065356430479215]","[1,1,1]","[-0.0645204673123469,-0.08363281502552433]","[1,1,1]","[-0.15161650331307572,0.049740903953025134]","[1,1,1]","[0.02,0.02]",142.6849,0,16,16,182,1,,,,,,,
,,,,,,,67d00193ba74882f03dc0820,682db4dcacd16069811f1e13,2025-05-21_13h21.45.514,cuing_paradigm_dot,2024.1.5,Win32,30.12048193,682d556593cb38ad0a074487,,,,,,,,,,,142.6857,143.1841,,,143.4878,143.8081,left,,,,,,,,0.1,0.2997,,,,,,,143.1841,143.4878,143.8081,"[-0.04531730563898122,-0.1339654404617091]","[-1,-1,-1]","[-0.1231031587286796,0.1039118516725773]","[-1,-1,-1]","[0.07248946288594037,-0.0525534838073315]","[-1,-1,-1]","[-0.06434036687657259,0.11931783973571218]","[-1,-1,-1]","[0.15461772102067795,0.11386503238081137]","[-1,-1,-1]","[-0.15574079240560232,-0.09782064867084118]","[1,1,1]","[-0.0386771632278072,-0.08399086308705385]","[-1,-1,-1]","[-0.009631354028577146,-0.004024568113390119]","[-1,-1,-1]","[-0.08119011441856912,0.06816050357120128]","[1,1,1]","[0.08335866584065062,0.08583121730157059]","[-1,-1,-1]","[-0.027552570635974192,0.036547721432240735]","[-1,-1,-1]","[0.01168687415527538,0.19735137827694132]","[-1,-1,-1]","[-0.09619977857221476,-0.16334054164910758]","[-1,-1,-1]","[-0.16313563178803037,0.06061696232156937]","[-1,-1,-1]","[0.15590709467449496,-0.0005819920141355155]","[-1,-1,-1]","[0.05208559582473598,0.11079200756033239]","[-1,-1,-1]","[0.1384388632670687,-0.05801703026385458]","[-1,-1,-1]","[-0.09680808841865798,-0.12265669168926269]","[-1,-1,-1]","[0.10391331859033373,0.1676578740804817]","[-1,-1,-1]","[0.015860830828649294,-0.07269803541412628]","[-1,-1,-1]","[-0.11556182808651337,-0.0444891892683365]","[-1,-1,-1]","[-0.08596471462248477,0.005088015674216562]","[-1,-1,-1]","[-0.17635899670025393,-0.05369573887579117]","[-1,-1,-1]","[0.04787567214527471,-0.16552442311202434]","[-1,-1,-1]","[0.11176971878587352,-0.130932481561163]","[-1,-1,-1]","[-0.0762912566843044,0.17638750144866078]","[-1,-1,-1]","[0.06625068827655121,0.020897911318582783]","[-1,-1,-1]","[0.10407818149354271,-0.02655685680844055]","[-1,-1,-1]","[0.01956017482629745,0.1449475694189676]","[1,1,1]","[0.02849594965032934,-0.12379480076394277]","[-1,-1,-1]","[0.07063006810390798,-0.10326474493973874]","[-1,-1,-1]","[0.00683185322433217,-0.16065884855851056]","[-1,-1,-1]","[0.02,0.02]",144.9084,0,17,17,4,1,,,,,,,
,,,,,,,67d00193ba74882f03dc0820,682db4dcacd16069811f1e13,2025-05-21_13h21.45.514,cuing_paradigm_dot,2024.1.5,Win32,30.12048193,682d556593cb38ad0a074487,,,,,,,,,,,144.9098,145.4076,,,145.6494,146.1334,right,,,,,,,,0.5,0.4622,,,,,,,145.4078,145.6493,146.1335,"[0.029545328587604145,-0.17745612625449989]","[-1,-1,-1]","[-0.06646798850941035,-0.04190407898489782]","[-1,-1,-1]","[-0.1459476324268781,-0.12768357913001496]","[-1,-1,-1]","[0.15085759935670298,-0.039926972183999244]","[1,1,1]","[0.06874286686819346,-0.013801720862904234]","[-1,-1,-1]","[-0.024915066643752936,-0.01737320958772168]","[1,1,1]","[0.1426749419681478,0.10483066527011121]","[-1,-1,-1]","[0.09707142803669953,0.08862949032276111]","[1,1,1]","[-0.09412819915997427,-0.010869034366034199]","[1,1,1]","[-0.046485384193806475,-0.12031832922867311]","[-1,-1,-1]","[-0.05462505721483592,0.13603467943498299]","[-1,-1,-1]","[-0.0026261618222267057,0.09135664163243556]","[1,1,1]","[0.04920997885902951,0.059540940883218534]","[-1,-1,-1]","[-0.05452999298302404,-0.18405217791137754]","[-1,-1,-1]","[0.10218224648610844,0.1628622849793288]","[1,1,1]","[-0.11545983965892409,0.03773845641299988]","[-1,-1,-1]","[-0.07185579575369437,0.09840065174319379]","[1,1,1]","[-0.1693564888807862,0.018130561175593442]","[1,1,1]","[-0.013840425741090975,-0.18552391958173017]","[-1,-1,-1]","[-0.10773944873328027,0.07888858176805719]","[-1,-1,-1]","[-0.1407184952789899,-0.013702882666495322]","[1,1,1]","[0.1394632986047967,-0.1148283467260905]","[1,1,1]","[0.13996584894858255,0.012847179114914264]","[-1,-1,-1]","[-0.0440206478764984,0.054456281471892416]","[1,1,1]","[0.012322040340822408,-0.12359226975135378]","[1,1,1]","[0.0837951568641092,-0.06876758071619528]","[1,1,1]","[-0.0912245652874886,-0.13426741151731483]","[-1,-1,-1]","[-0.11260433081146752,0.1329502194720791]","[-1,-1,-1]","[0.02345265575342042,0.13823371193641706]","[1,1,1]","[0.07760275697346744,-0.11711799882572697]","[1,1,1]","[-0.17145904073039708,0.09541494457759891]","[1,1,1]","[0.02058640541423095,-0.044603545237710596]","[-1,-1,-1]","[0.02,0.02]",147.224,0,18,18,93,1,,,,,,,
,,,,,,,67d00193ba74882f03dc0820,682db4dcacd16069811f1e13,2025-05-21_13h21.45.514,cuing_paradigm_dot,2024.1.5,Win32,30.12048193,682d556593cb38ad0a074487,,,,,,,,,,,147.2248,147.7244,,,147.9744,148.5319,left,,,,,,,,0.45,0.5346,,,,,,,147.7245,147.9744,148.5319,"[-0.08867535205841406,0.03321486663500984]","[-1,-1,-1]","[0.1684182551950732,-0.0489934211879051]","[-1,-1,-1]","[0.14897735352249414,0.09178347180730649]","[-1,-1,-1]","[0.12237285076895252,-0.0012758740651376934]","[1,1,1]","[0.1036635729621664,0.10453457340056933]","[1,1,1]","[0.061491057975307795,-0.11229478820796905]","[-1,-1,-1]","[-0.03861932660144537,0.061094790439914774]","[1,1,1]","[-0.10791919371297647,0.16137167821408058]","[1,1,1]","[-0.17806298039735333,0.004825521724849037]","[1,1,1]","[0.1056132258925505,0.06430730056985992]","[-1,-1,-1]","[-0.012634744951629343,-0.020132729949030728]","[-1,-1,-1]","[0.05907638120358398,-0.02266274255860531]","[1,1,1]","[-0.09073156044191552,-0.11744154906735296]","[-1,-1,-1]","[0.0001384103194908994,-0.07752546349066156]","[-1,-1,-1]","[0.011745118009909798,0.07991008895450777]","[1,1,1]","[0.04173382709429437,0.1500411134105546]","[1,1,1]","[-0.07823504329447319,-0.0636932227275615]","[-1,-1,-1]","[0.14994252171541078,-0.11574040969784813]","[1,1,1]","[-0.006943480123503767,0.13649063819645332]","[1,1,1]","[-0.028267856639209044,-0.18388724283265398]","[-1,-1,-1]","[-0.14057900382829555,0.04037701820349376]","[-1,-1,-1]","[-0.048252462002130674,-0.11128725834435808]","[-1,-1,-1]","[-0.1746757445153416,-0.05007726136063566]","[-1,-1,-1]","[-0.014015907865994874,0.1806128328798082]","[-1,-1,-1]","[-0.09936647731696592,-0.1622835969174928]","[-1,-1,-1]","[0.06570929019671032,-0.0717120513715653]","[-1,-1,-1]","[-0.15677329521385644,0.08752340268219287]","[-1,-1,-1]","[0.1625473630025256,0.037827792932534354]","[1,1,1]","[0.01986517495986123,-0.19080093291271139]","[1,1,1]","[0.07921925610173255,0.01817373797608546]","[1,1,1]","[0.06054454016535798,-0.1619319478517438]","[-1,-1,-1]","[0.043239814869482696,0.19478236521138179]","[1,1,1]","[0.02,0.02]",149.6243,0,19,19,72,1,,,,,,,
,,,,,,,67d00193ba74882f03dc0820,682db4dcacd16069811f1e13,2025-05-21_13h21.45.514,cuing_paradigm_dot,2024.1.5,Win32,30.12048193,682d556593cb38ad0a074487,,,,,,,,,,,149.6248,150.102,,,150.7095,150.8439,right,,,,,,,,0.55,0.1229,,,,,,,150.102,150.7094,150.844,"[0.12140123318695967,0.11863575577652295]","[1,1,1]","[0.10647925864090863,-0.031602933748989065]","[1,1,1]","[-0.015541357901249395,-0.16516841691879053]","[-1,-1,-1]","[0.14475601199646898,-0.12452820188068496]","[1,1,1]","[0.06832736010851212,-0.007600829973767005]","[1,1,1]","[-0.12079555403431103,0.12828476383729906]","[1,1,1]","[-0.17307575323276025,0.03043776102731198]","[-1,-1,-1]","[-0.025357680707621785,0.03166046152758714]","[-1,-1,-1]","[0.10812815796916797,-0.156989765383614]","[1,1,1]","[0.0057229068815286945,-0.12511906115548896]","[1,1,1]","[-0.1627201845271937,0.09280808178046576]","[-1,-1,-1]","[-0.12115376430345613,0.02265957454482438]","[1,1,1]","[-0.07599665868016256,0.09965991374806048]","[1,1,1]","[0.028908245619138524,0.053593887324944]","[1,1,1]","[0.012932339160839369,0.12342321519300017]","[-1,-1,-1]","[0.009125208123619704,-0.031066348611659553]","[-1,-1,-1]","[-0.11450622801411937,0.07639207893791271]","[1,1,1]","[0.03311996365186776,-0.07036954155921166]","[1,1,1]","[-0.07158557733285623,0.004193188399324879]","[1,1,1]","[-0.05434749380900679,0.17386769346341527]","[1,1,1]","[-0.12213236856380698,-0.030113111791058557]","[-1,-1,-1]","[0.04423368125999181,0.18852201866740298]","[1,1,1]","[0.04771953421531454,-0.12005672048232206]","[1,1,1]","[-0.011174841720015179,0.07814965082959434]","[-1,-1,-1]","[-0.07499803182972428,-0.1031394462904853]","[-1,-1,-1]","[0.06654882264556411,0.038337419493828226]","[-1,-1,-1]","[0.08740449470976296,0.08286714211766247]","[-1,-1,-1]","[-0.09792375890264501,0.16196970271786648]","[-1,-1,-1]","[-0.18279821867500756,-0.04117043975754626]","[1,1,1]","[-0.06100315006761697,-0.1774517745775235]","[1,1,1]","[0.07084696478845941,0.13280861738263602]","[-1,-1,-1]","[0.19148815552860726,0.025968614248296457]","[-1,-1,-1]","[0.02,0.02]",151.9318,0,20,20,134,1,,,,,,,
,,,,,,,67d00193ba74882f03dc0820,682db4dcacd16069811f1e13,2025-05-21_13h21.45.514,cuing_paradigm_dot,2024.1.5,Win32,30.12048193,682d556593cb38ad0a074487,,,,,,,,,,,151.9327,152.4393,,,152.6905,153.4325,left,,,,,,,,0.45,0.7216,,,,,,,152.4393,152.6905,153.4325,"[-0.0447700003284309,-0.10419456014230422]","[1,1,1]","[-0.18048117640560454,-0.0806985891888785]","[1,1,1]","[-0.11202287765399169,0.10177467346784919]","[1,1,1]","[0.18223149064590125,-0.06324248624431512]","[-1,-1,-1]","[-0.06478261374802213,0.03228194275372837]","[-1,-1,-1]","[0.09668053525825644,-0.16815977167775942]","[1,1,1]","[0.010737188021874474,-0.14159380304403363]","[-1,-1,-1]","[-0.06755805615837142,-0.06842600082833394]","[-1,-1,-1]","[0.1580344989041449,0.01940955225243158]","[1,1,1]","[0.043951945158094786,0.10703779185556417]","[-1,-1,-1]","[-0.1527476372389543,-0.01640164449507628]","[-1,-1,-1]","[0.09270987424401012,-0.06477299835083052]","[-1,-1,-1]","[0.05028576622110159,-0.17118782240061878]","[1,1,1]","[0.050665253460428814,0.06460989000522487]","[-1,-1,-1]","[0.0911499564656772,-0.007059803626664831]","[1,1,1]","[-0.132061178911989,-0.12001503017198534]","[-1,-1,-1]","[-0.033311309399602196,0.1255853708505583]","[-1,-1,-1]","[0.15160378461102952,0.08096225033649743]","[1,1,1]","[0.01687570922260575,-0.03850765290151114]","[-1,-1,-1]","[-0.10733174120795239,0.004212654442512023]","[-1,-1,-1]","[0.1442934231103539,-0.047985266127365866]","[-1,-1,-1]","[-0.05214878999543924,0.08564665861796075]","[1,1,1]","[-0.11224027760411476,-0.055973626171969396]","[-1,-1,-1]","[0.009930890962037345,-0.18474019686534818]","[1,1,1]","[-0.19930467535026097,0.0019230710366381096]","[-1,-1,-1]","[0.045791012757112844,-0.07092512925864858]","[1,1,1]","[-0.168088871273746,0.04128171886775934]","[1,1,1]","[-0.08380181507464543,-0.13235090250282347]","[-1,-1,-1]","[-0.17366749747645127,0.09661301816088261]","[1,1,1]","[-0.03468681666654757,-0.16898248178696065]","[-1,-1,-1]","[0.19756688817381063,-0.002850892954444866]","[1,1,1]","[0.12277674418346905,-0.13613032874442155]","[-1,-1,-1]","[0.02,0.02]",154.5326,0,21,21,82,1,,,,,,,
,,,,,,,67d00193ba74882f03dc0820,682db4dcacd16069811f1e13,2025-05-21_13h21.45.514,cuing_paradigm_dot,2024.1.5,Win32,30.12048193,682d556593cb38ad0a074487,,,,,,,,,,,154.534,155.0304,,,155.28,156.3297,left,,,,,,,,0.6,1.0342,,,,,,,155.0305,155.2798,156.3298,"[0.09127934986292462,-0.07183125076804225]","[1,1,1]","[0.11505213416674308,-0.1404516825695867]","[1,1,1]","[-0.061115477056212925,-0.07596148719320704]","[-1,-1,-1]","[-0.0335930493343416,-0.15889474745550075]","[1,1,1]","[-0.023631341427107034,-0.03756039262768747]","[1,1,1]","[0.10197907258952252,0.034432672692284845]","[1,1,1]","[-0.05508207345781617,0.17667093226944797]","[-1,-1,-1]","[0.05354193485104759,-0.1402369742741681]","[1,1,1]","[0.17179545022606996,0.09634733245864723]","[-1,-1,-1]","[-0.16834646945842469,0.06298121874064712]","[-1,-1,-1]","[0.02691223977977502,0.03280149431245876]","[1,1,1]","[0.18392022542070607,-0.014556258657621828]","[1,1,1]","[-0.18624575405886326,-0.04113582231619084]","[1,1,1]","[0.1109718634594904,0.09889911568494586]","[-1,-1,-1]","[0.07417377485310238,0.13136447958390193]","[-1,-1,-1]","[-0.16145553142946265,-0.11399178749411636]","[1,1,1]","[0.039018851976126985,-0.044568680975528456]","[1,1,1]","[-0.11970697139273008,-0.15765080877393514]","[-1,-1,-1]","[-0.010839465416684478,0.1824963992790436]","[-1,-1,-1]","[-0.018033492066341132,-0.12173555158580594]","[1,1,1]","[-0.03939693847188643,0.09014829068820028]","[-1,-1,-1]","[-0.08926489388126761,-0.03596271582701272]","[1,1,1]","[0.16813690481900528,0.030665572146022852]","[-1,-1,-1]","[-0.14685054248909632,0.003940464699510454]","[1,1,1]","[-0.13244563237936144,-0.06404179966729137]","[1,1,1]","[-0.06435671692415594,0.05394345812461155]","[-1,-1,-1]","[0.01608838432180956,-0.09045614912966417]","[1,1,1]","[-0.08167285142685514,0.012696573228535192]","[-1,-1,-1]","[0.007514590782700964,-0.19500514581049858]","[1,1,1]","[-0.13060349354391218,0.11588986187701614]","[-1,-1,-1]","[0.1528155176089137,-0.04166466491861756]","[1,1,1]","[0.16398073808266564,-0.11411769366581563]","[1,1,1]","[0.02,0.02]",157.4316,0,22,22,161,1,,,,,,,
,,,,,,,67d00193ba74882f03dc0820,682db4dcacd16069811f1e13,2025-05-21_13h21.45.514,cuing_paradigm_dot,2024.1.5,Win32,30.12048193,682d556593cb38ad0a074487,,,,,,,,,,,157.4329,157.9295,,,158.1892,158.7805,right,,,,,,,,0.1,0.5747,,,,,,,157.9296,158.1891,158.7806,"[0.10612685201216379,0.02204920321865429]","[-1,-1,-1]","[-0.003363137360922775,-0.03547471789338388]","[1,1,1]","[0.01277966859281238,0.04011996850858856]","[-1,-1,-1]","[-0.005194171719864925,-0.15919370038674302]","[-1,-1,-1]","[0.11474019807415356,-0.05767737184983775]","[-1,-1,-1]","[0.048190643162788066,-0.04294455223734701]","[-1,-1,-1]","[0.17433437500034957,-0.050661119198852564]","[-1,-1,-1]","[-0.05389419702378046,0.1580601638157893]","[-1,-1,-1]","[-0.09328959453226159,0.003345170273996887]","[-1,-1,-1]","[-0.13115391303429874,0.11147803414786603]","[-1,-1,-1]","[0.07988614183467532,0.16962018837570275]","[-1,-1,-1]","[-0.08670905171919051,-0.06855902737434473]","[-1,-1,-1]","[0.08434717737849672,-0.12864080154570728]","[-1,-1,-1]","[0.1192457678971981,0.06171580505441215]","[-1,-1,-1]","[-0.14088739635056122,-0.04064398568537381]","[-1,-1,-1]","[0.04315217267455476,-0.12390189688524687]","[-1,-1,-1]","[-0.1170594279729652,-0.15312033211915313]","[-1,-1,-1]","[-0.09704805441095397,0.14414224061500913]","[-1,-1,-1]","[-0.1333776530443621,-0.10974987302312059]","[1,1,1]","[0.1629265125921818,-0.11044055532386486]","[-1,-1,-1]","[0.006299878252876626,0.16153236837299617]","[-1,-1,-1]","[-0.16904835650689523,-0.011254712504025427]","[-1,-1,-1]","[-0.0516940871728983,-0.02250673732256879]","[-1,-1,-1]","[0.06894565858773889,0.0466624125481465]","[-1,-1,-1]","[-0.06644155708726296,-0.18022469777313269]","[-1,-1,-1]","[0.16681924127909398,0.039124953566466794]","[1,1,1]","[0.051622737129651694,0.10822209339892509]","[-1,-1,-1]","[-0.04238827129238357,0.0720072677080662]","[-1,-1,-1]","[-0.054675418060952566,-0.12299392175522422]","[-1,-1,-1]","[-0.0906592221476675,0.05417944386737097]","[-1,-1,-1]","[0.19555927385036034,-0.01612168376609704]","[-1,-1,-1]","[-0.13625924579974477,0.06605055782827413]","[-1,-1,-1]","[0.02,0.02]",159.8804,0,23,23,26,1,,,,,,,
,,,,,,,67d00193ba74882f03dc0820,682db4dcacd16069811f1e13,2025-05-21_13h21.45.514,cuing_paradigm_dot,2024.1.5,Win32,30.12048193,682d556593cb38ad0a074487,,,,,,,,,,,159.8812,160.3793,,,160.6296,161.1794,right,,,,,,,,0.45,0.5346,,,,,,,160.3794,160.6296,161.1795,"[-0.022166601175903702,0.08260800961044125]","[1,1,1]","[0.08004982851565585,-0.07108806237282866]","[-1,-1,-1]","[0.006488275048975398,0.03273598182033822]","[1,1,1]","[-0.08385679356533113,-0.056719209618205216]","[-1,-1,-1]","[0.072850867418353,-0.012663576018020897]","[-1,-1,-1]","[0.17940911664211046,0.023705996301724094]","[1,1,1]","[0.04681884505745187,0.1155164695338576]","[1,1,1]","[0.07690585941514633,-0.16407378533463643]","[1,1,1]","[0.0028640203933725026,-0.1229252129629611]","[-1,-1,-1]","[-0.11623972195463998,0.1317375609559739]","[-1,-1,-1]","[-0.07808812739541217,-0.0018982855185709913]","[1,1,1]","[-0.11985457519507821,0.025445959816281918]","[-1,-1,-1]","[0.12554171761618754,-0.0010131371640400414]","[1,1,1]","[-0.017770173061727446,0.14057135409909016]","[-1,-1,-1]","[0.14309789828539846,0.10667199033470964]","[-1,-1,-1]","[-0.06634248631080533,0.12607984383592413]","[-1,-1,-1]","[-0.103911717896854,-0.12403739195317444]","[1,1,1]","[0.1561460451330428,-0.08404003542345571]","[-1,-1,-1]","[-0.04423871040549552,-0.16423634630966702]","[-1,-1,-1]","[0.08291897697310116,0.15259781672132294]","[1,1,1]","[-0.11855095724155412,0.06831588799195464]","[1,1,1]","[-0.050692552705631166,0.17986269979451497]","[1,1,1]","[0.15014790576414203,0.052000795800454185]","[-1,-1,-1]","[0.03151440001854157,-0.028074036991843177]","[-1,-1,-1]","[-0.18432648429218138,-0.07208640401063199]","[-1,-1,-1]","[-0.1937989757340826,0.01701672861428323]","[1,1,1]","[0.013777178672520929,0.19279464315891737]","[-1,-1,-1]","[-0.027078303320944873,-0.06792968001432365]","[-1,-1,-1]","[-0.16095103531254923,0.08091501217462349]","[1,1,1]","[0.07965269180154211,0.06789937743470874]","[1,1,1]","[0.03127191014174554,-0.09183686857470398]","[-1,-1,-1]","[-0.13695119555815113,-0.055857853247010356]","[-1,-1,-1]","[0.02,0.02]",162.2803,0,24,24,60,1,,,,,,,
,,,,,,,67d00193ba74882f03dc0820,682db4dcacd16069811f1e13,2025-05-21_13h21.45.514,cuing_paradigm_dot,2024.1.5,Win32,30.12048193,682d556593cb38ad0a074487,,,,,,,,,,,162.2809,162.7795,,,163.0291,163.3795,left,,,,,,,,0.1,0.3352,,,,,,,162.7796,163.0291,163.3796,"[-0.08748348222659863,-0.15430967362568207]","[-1,-1,-1]","[-0.056448103563367255,-0.11238015352681681]","[-1,-1,-1]","[0.18768925599847877,-0.029797158747554706]","[-1,-1,-1]","[-0.01613120918621892,-0.13432924840642024]","[-1,-1,-1]","[0.16547878090823226,-0.09351092686887806]","[-1,-1,-1]","[0.046787800671168715,-0.09650947981704738]","[1,1,1]","[0.12637384891900735,0.026657997605161136]","[-1,-1,-1]","[0.004829753669758032,-0.05508771300959622]","[-1,-1,-1]","[0.12036494543354956,-0.09409792548020916]","[-1,-1,-1]","[-0.02479654670749662,0.16336792599796707]","[-1,-1,-1]","[-0.08484781992891831,-0.07238778468445471]","[-1,-1,-1]","[-0.03531638231993775,0.10931830769695765]","[-1,-1,-1]","[0.052749457803531186,0.10332161980057712]","[1,1,1]","[0.04756853862431748,-0.15041099307525313]","[-1,-1,-1]","[-0.12451427082025515,-0.1234378269679286]","[-1,-1,-1]","[-0.027172239899220445,0.039820656511174335]","[-1,-1,-1]","[-0.1884937903726927,0.011441531683271259]","[-1,-1,-1]","[0.03313456271612661,-0.00012844699539392527]","[-1,-1,-1]","[-0.06806291226057319,0.1587210196166072]","[-1,-1,-1]","[0.19023375492334066,0.016618320281499777]","[-1,-1,-1]","[0.07489413819291968,-0.17999598639462586]","[-1,-1,-1]","[0.1271277289773003,-0.023148505435461566]","[-1,-1,-1]","[0.1288127883831803,0.10455029757719621]","[1,1,1]","[-0.13373198675128214,0.02648717892323803]","[-1,-1,-1]","[0.09805831020976966,0.13188874945392734]","[-1,-1,-1]","[-0.11584832688134938,-0.04304668734862998]","[-1,-1,-1]","[-0.005858652568791056,-0.198091968701853]","[-1,-1,-1]","[0.00553555999261774,0.19054294663467944]","[-1,-1,-1]","[-0.042556621615114955,-0.052818174807124134]","[-1,-1,-1]","[0.05654024991914432,0.1800622344077425]","[-1,-1,-1]","[-0.1819858834740564,-0.0659441511485985]","[-1,-1,-1]","[-0.08775399014349844,0.0323908251148247]","[-1,-1,-1]","[0.02,0.02]",164.481,0,25,25,18,1,,,,,,,
,,,,,,,67d00193ba74882f03dc0820,682db4dcacd16069811f1e13,2025-05-21_13h21.45.514,cuing_paradigm_dot,2024.1.5,Win32,30.12048193,682d556593cb38ad0a074487,,,,,,,,,,,164.4818,164.9778,,,165.8993,166.7374,,,,,,,,,0.6,,,,,,,,164.9778,165.8992,166.7377,"[0.013813776968227809,0.18767120461076106]","[1,1,1]","[0.0100717194721662,0.002402348311479584]","[-1,-1,-1]","[-0.010431530486710052,-0.18569271466116544]","[-1,-1,-1]","[0.032634442669317455,-0.11782369472072014]","[-1,-1,-1]","[-0.14545544683932424,-0.09061772566376215]","[1,1,1]","[0.12666180630477358,0.09771387208516495]","[1,1,1]","[-0.007884764294383763,-0.13790314046478994]","[-1,-1,-1]","[-0.13122700476507584,-0.04136174682463078]","[1,1,1]","[0.08754240237073346,-0.009480510246783565]","[1,1,1]","[0.003235195458534321,0.08783602905742029]","[-1,-1,-1]","[-0.1642901106428608,0.07746111258121877]","[1,1,1]","[-0.186921620994637,-0.020783808450751468]","[-1,-1,-1]","[-0.023911103235740784,0.15829575095343854]","[1,1,1]","[0.05133686399576107,-0.1744360600056829]","[1,1,1]","[0.18074021090000408,-0.00167210272723942]","[1,1,1]","[-0.07139014627529518,0.1496814841360072]","[-1,-1,-1]","[0.12257222172030864,0.026573354427402485]","[1,1,1]","[0.17065278827942235,0.05769700015986681]","[-1,-1,-1]","[-0.1253130705639664,-0.14695543893546975]","[-1,-1,-1]","[-0.11327828596552696,0.14783089447623046]","[1,1,1]","[0.14070482997224065,-0.03573018570560793]","[1,1,1]","[0.15730449181770165,-0.07568631629664026]","[1,1,1]","[0.0836243547966314,0.10512414358948606]","[1,1,1]","[0.046904359915890315,-0.07686074134027489]","[1,1,1]","[-0.10842784943692711,0.01552400361210406]","[1,1,1]","[-0.03691324649779046,0.11238623836672097]","[-1,-1,-1]","[-0.06710016490434878,-0.0698800704218436]","[1,1,1]","[-0.06899362489619836,-0.17369478391177437]","[-1,-1,-1]","[-0.048999961062653065,0.053431983747216874]","[1,1,1]","[-0.03590318392275112,-0.010840380214238611]","[1,1,1]","[0.08558297310133015,0.14530055515825815]","[-1,-1,-1]","[0.14826474178982282,-0.1341068379317778]","[-1,-1,-1]","[0.02,0.02]",167.8375,0,26,26,167,1,,,,,,,
,,,,,,,67d00193ba74882f03dc0820,682db4dcacd16069811f1e13,2025-05-21_13h21.45.514,cuing_paradigm_dot,2024.1.5,Win32,30.12048193,682d556593cb38ad0a074487,,,,,,,,,,,167.8382,168.3361,,,168.5786,169.1272,right,,,,,,,,0.55,0.5341,,,,,,,168.3362,168.5786,169.1273,"[-0.056003966883991146,0.049193224221813076]","[-1,-1,-1]","[0.10188281085917898,-0.06206225087036529]","[1,1,1]","[-0.06215344421690474,-0.012855664462016627]","[-1,-1,-1]","[0.13907141884736016,-0.08993101484368045]","[-1,-1,-1]","[-0.18109562547740798,-0.02148020228129766]","[-1,-1,-1]","[-0.015267956575878797,0.03940472299235081]","[1,1,1]","[-0.03964138900027395,0.17689314127268974]","[-1,-1,-1]","[0.11673229049479146,0.04464775908190587]","[1,1,1]","[0.0950734066787775,-0.1332393296888552]","[-1,-1,-1]","[-0.14875469045091202,0.009081898668771326]","[1,1,1]","[0.029166389925638893,-0.15919616476247014]","[1,1,1]","[-0.11104217128680034,0.035485307837618815]","[-1,-1,-1]","[0.05737083234776226,0.05601668561654135]","[-1,-1,-1]","[-0.07532788351106427,-0.05613931526135343]","[-1,-1,-1]","[-0.0849864653728272,0.15019375232679108]","[1,1,1]","[-0.043169815319387864,-0.0974299503734908]","[1,1,1]","[0.11657296914302971,0.13149031219723345]","[1,1,1]","[-0.18016998143474985,0.08464474530298303]","[1,1,1]","[-0.13935762538468086,0.077054003542292]","[1,1,1]","[-0.1619021782543219,-0.0694396063878225]","[1,1,1]","[0.060675564622531576,-0.03172040700677668]","[1,1,1]","[0.02601969218712035,0.011465827537583302]","[1,1,1]","[0.1745037359691244,-0.012630756661873414]","[1,1,1]","[0.01862119668186218,0.07099096623398235]","[1,1,1]","[-0.05358520453349857,-0.1679615961542556]","[1,1,1]","[-0.00015414311217660208,-0.19432720876610776]","[1,1,1]","[0.023967358923703396,-0.11073196127155574]","[-1,-1,-1]","[0.1584720965227559,0.108208867237268]","[1,1,1]","[-0.11266922404841058,-0.09256075049107629]","[-1,-1,-1]","[-0.15190445639652705,0.12425097585224427]","[-1,-1,-1]","[-0.014676815211538139,0.13186928646273166]","[-1,-1,-1]","[0.14353371133483492,-0.1348029800879311]","[-1,-1,-1]","[0.02,0.02]",170.2269,0,27,27,120,1,,,,,,,
,,,,,,,67d00193ba74882f03dc0820,682db4dcacd16069811f1e13,2025-05-21_13h21.45.514,cuing_paradigm_dot,2024.1.5,Win32,30.12048193,682d556593cb38ad0a074487,,,,,,,,,,,170.2273,170.7269,,,170.9703,171.4187,right,,,,,,,,0.9,0.4338,,,,,,,170.7271,170.9701,171.4187,"[-0.08017617395920434,0.08213299648358231]","[1,1,1]","[0.030997217927571243,0.1072245642606957]","[1,1,1]","[0.04515454121650249,-0.1300068767558661]","[1,1,1]","[0.14020426777577852,0.11337688890398616]","[1,1,1]","[0.11761113184208828,-0.15483436531732295]","[-1,-1,-1]","[-0.09257373521423078,0.15260279346254246]","[1,1,1]","[-0.09196918561759414,-0.06383261788315613]","[-1,-1,-1]","[0.005917258266239702,0.19946497947410569]","[1,1,1]","[0.16968058897962712,-0.0028199717127243]","[1,1,1]","[-0.15026404474708968,0.09502072739483602]","[1,1,1]","[0.08549743403650209,0.12938813194727394]","[1,1,1]","[0.06558476177595983,-0.18181711583411125]","[1,1,1]","[-0.047107341554696765,-0.14299605222056247]","[1,1,1]","[-0.09366677298056841,0.003979034015831229]","[1,1,1]","[0.18117809601639517,0.07585545866225779]","[1,1,1]","[0.052146834240920314,-0.0025503380953837]","[1,1,1]","[-0.18286046760937516,0.06989697166908106]","[-1,-1,-1]","[-0.1737300386892952,-0.062436249778553235]","[1,1,1]","[-0.1097353272993105,-0.16134468107920527]","[1,1,1]","[0.09133629732543203,0.08969232558473889]","[1,1,1]","[0.00962414128541158,-0.19407849109883496]","[1,1,1]","[-0.01861585607254626,0.14805435782977264]","[1,1,1]","[-0.0038907564813943888,-0.06774907882684478]","[1,1,1]","[0.04109515212323781,-0.0631149960380682]","[1,1,1]","[0.06410738078294761,0.16355499481649022]","[1,1,1]","[0.11485705113581096,-0.11035248291231436]","[1,1,1]","[-0.1277027310499405,-0.022890674540994787]","[1,1,1]","[-0.03534302200772743,0.06718972669123949]","[1,1,1]","[-0.07639783661248957,-0.10569905193561575]","[1,1,1]","[0.03702300365413716,0.04173122907606905]","[1,1,1]","[-0.13639991868769363,-0.09121511442476746]","[1,1,1]","[0.09729052629937521,0.04310112214021975]","[1,1,1]","[0.02,0.02]",172.509,0,28,28,185,1,,,,,,,
,,,,,,,67d00193ba74882f03dc0820,682db4dcacd16069811f1e13,2025-05-21_13h21.45.514,cuing_paradigm_dot,2024.1.5,Win32,30.12048193,682d556593cb38ad0a074487,,,,,,,,,,,172.5102,173.0087,,,173.2591,173.6595,right,,,,,,,,0.6,0.3843,,,,,,,173.0087,173.259,173.6595,"[0.1499405888636896,-0.11014750905376544]","[-1,-1,-1]","[0.047238847289057945,-0.1296252543471094]","[-1,-1,-1]","[0.09398261837140885,-0.006768742371413397]","[1,1,1]","[-0.07152918963439082,-0.1310231056617461]","[1,1,1]","[0.0638470106663052,0.08470871487128659]","[1,1,1]","[-0.14598374314420656,0.06749986666874647]","[-1,-1,-1]","[0.08625450779317563,-0.10006871448364908]","[-1,-1,-1]","[-0.061305360764580805,0.15560202638421322]","[1,1,1]","[-0.052565830825145606,-0.05760915198817533]","[1,1,1]","[0.15214200706291647,-0.06306883478161955]","[1,1,1]","[0.03479815328090831,0.007704251480263487]","[1,1,1]","[0.12207648684701564,0.09880135466321084]","[-1,-1,-1]","[0.021824354950629368,0.07147115913439733]","[1,1,1]","[0.16411712143151036,-0.001325494046723554]","[-1,-1,-1]","[-0.12308717260347224,-0.033136070859086236]","[1,1,1]","[-0.1572313502012838,-0.11036828776877008]","[1,1,1]","[-0.05290136716982907,0.03147660879940669]","[-1,-1,-1]","[-0.0642516135163518,0.10586169850335213]","[-1,-1,-1]","[0.0286851838192706,-0.06585927926093217]","[-1,-1,-1]","[0.1066698372970331,0.058089993132458446]","[-1,-1,-1]","[-0.17918209744263985,0.039913788653016195]","[-1,-1,-1]","[-0.09610547300447131,-0.1712229733224656]","[1,1,1]","[0.08433581023452101,0.12451987207177]","[1,1,1]","[0.06706714095398067,0.18254090058552241]","[-1,-1,-1]","[0.09849265022766167,-0.16478941588902182]","[1,1,1]","[-0.10501475090487485,0.1082622988378658]","[1,1,1]","[-0.19452295043505077,-0.02593700980645798]","[1,1,1]","[0.19156619733970143,0.05657319224315025]","[-1,-1,-1]","[-0.027892706155177947,0.06867394220455339]","[1,1,1]","[0.038480153277868474,0.147485336070654]","[1,1,1]","[-0.01570277656991652,-0.13076395328024681]","[1,1,1]","[-0.05208041270262651,-0.17833425985313314]","[1,1,1]","[0.02,0.02]",174.7588,0,29,29,160,1,,,,,,,
,,,,,,,67d00193ba74882f03dc0820,682db4dcacd16069811f1e13,2025-05-21_13h21.45.514,cuing_paradigm_dot,2024.1.5,Win32,30.12048193,682d556593cb38ad0a074487,,,,,,,,,,,174.7596,175.2593,,,175.716,175.96,right,,,,,,,,0.55,0.2288,,,,,,,175.2593,175.7159,175.96,"[0.05086867572623789,-0.08996785757108652]","[1,1,1]","[0.07534230756904772,-0.17765513045043238]","[-1,-1,-1]","[-0.0347771942709551,-0.12559361829114396]","[-1,-1,-1]","[0.026815380988326042,0.07820236476474789]","[-1,-1,-1]","[-0.06512437813428984,0.04939617430182328]","[-1,-1,-1]","[-0.01635293057599274,-0.08141784052679318]","[-1,-1,-1]","[-0.05802254816745507,0.09561854062672905]","[-1,-1,-1]","[-0.09995598084159431,0.029176686568653767]","[-1,-1,-1]","[-0.017916491632161385,-0.026624673854915158]","[1,1,1]","[0.12173132357391024,0.03524003371315843]","[1,1,1]","[-0.01408261116870662,0.03128109075807795]","[1,1,1]","[-0.12134372071856557,-0.12098731915409991]","[-1,-1,-1]","[0.09019277974364132,-0.11904611712157893]","[1,1,1]","[0.12609697326139024,0.14445818072941025]","[-1,-1,-1]","[0.06912407806367671,0.017171361397502576]","[1,1,1]","[-0.02569493412187011,0.19564567071914038]","[1,1,1]","[-0.10120877559446052,0.13676338337437827]","[-1,-1,-1]","[0.07378392248845267,0.18303105779947187]","[1,1,1]","[-0.11259327436318764,-0.021992162840156135]","[-1,-1,-1]","[-0.17129476273015562,0.00005438113850882193]","[1,1,1]","[0.17999047294009712,-0.05590041668294414]","[1,1,1]","[-0.18428935629943105,0.07016570670449655]","[1,1,1]","[0.16463852216678734,0.07044519099579652]","[-1,-1,-1]","[0.021578628954908446,0.1788679117235101]","[1,1,1]","[0.07359982018031827,0.11372164082625284]","[1,1,1]","[-0.1502879067242525,-0.0810790520614273]","[1,1,1]","[0.09243000500084003,-0.0294915567750065]","[1,1,1]","[-0.058040357442959704,-0.1829960623013861]","[1,1,1]","[0.03443968926220193,-0.12831432210208857]","[-1,-1,-1]","[0.01600598668077738,-0.05224060031026882]","[1,1,1]","[-0.09892011480118028,-0.07097932147342301]","[1,1,1]","[0.020830539810509606,0.1331351257244981]","[-1,-1,-1]","[0.02,0.02]",177.0582,0,30,30,130,1,,,,,,,
,,,,,,,67d00193ba74882f03dc0820,682db4dcacd16069811f1e13,2025-05-21_13h21.45.514,cuing_paradigm_dot,2024.1.5,Win32,30.12048193,682d556593cb38ad0a074487,,,,,,,,,,,177.0588,177.5592,,,177.8085,178.2911,right,,,,,,,,0.6,0.4677,,,,,,,177.5592,177.8085,178.2912,"[0.008248683893303625,0.020549009328602263]","[1,1,1]","[-0.15613301277515265,-0.08325938399907036]","[1,1,1]","[-0.031235319467796417,0.19636004510599886]","[-1,-1,-1]","[-0.1169947577182475,-0.058817270478052464]","[-1,-1,-1]","[0.10177180867928068,-0.13300092718492845]","[1,1,1]","[-0.10595446095945017,-0.10807867411077791]","[1,1,1]","[-0.09768279376819451,0.08327295593798383]","[1,1,1]","[0.020335652302094272,-0.08675986635991804]","[1,1,1]","[-0.042610010876578897,0.05796514227963058]","[1,1,1]","[-0.07331755101033965,-0.15951821299617844]","[1,1,1]","[-0.10399447080837894,0.15421509390457686]","[-1,-1,-1]","[0.06450219829270555,0.1554561599141765]","[-1,-1,-1]","[-0.14343321473021378,0.10861603786436451]","[-1,-1,-1]","[-0.10374759097250122,0.02030821797852076]","[1,1,1]","[-0.0008637025858832704,0.11304414308821245]","[1,1,1]","[-0.02530806193899063,-0.050673283934326206]","[1,1,1]","[-0.17949406059714898,0.02999346022807565]","[-1,-1,-1]","[0.01912204086019646,0.1861911049350737]","[1,1,1]","[-0.010162767767543955,-0.14435613126169797]","[1,1,1]","[0.13608857009870323,-0.05718497567503956]","[1,1,1]","[0.12456420069288392,0.06857978883467654]","[-1,-1,-1]","[0.10992159510527895,0.1648722925534604]","[-1,-1,-1]","[0.056787731004590225,0.0222946739620914]","[-1,-1,-1]","[0.0757180673141952,0.08763530959999928]","[-1,-1,-1]","[-0.1322297929418181,-0.016453681844350292]","[1,1,1]","[0.1905442404560108,-0.015413030857875945]","[1,1,1]","[-0.17812552178442354,-0.020381800231339783]","[-1,-1,-1]","[0.10402305749348374,0.02636281363658926]","[-1,-1,-1]","[0.05288955164241913,-0.05360661332525287]","[-1,-1,-1]","[-0.0854508716138468,-0.03337501756882531]","[1,1,1]","[0.09772232360930318,-0.0828173233818083]","[1,1,1]","[-0.05848532043024139,0.15867690094437722]","[1,1,1]","[0.02,0.02]",179.3912,0,31,31,165,1,,,,,,,
,,,,,,,67d00193ba74882f03dc0820,682db4dcacd16069811f1e13,2025-05-21_13h21.45.514,cuing_paradigm_dot,2024.1.5,Win32,30.12048193,682d556593cb38ad0a074487,,,,,,,,,,,179.3916,179.891,,,180.1417,181.0413,left,,,,,,,,0.4,0.8843,,,,,,,179.8911,180.1417,181.0414,"[0.18274099386653733,-0.026828809051688055]","[-1,-1,-1]","[0.11118061156716594,-0.08611824747858648]","[1,1,1]","[-0.13409970273347877,-0.09321349977703101]","[1,1,1]","[-0.11678592870807003,0.05769090321768227]","[-1,-1,-1]","[-0.09742968309574533,0.13463439933755708]","[-1,-1,-1]","[0.0982023252793264,-0.046962955944482056]","[-1,-1,-1]","[0.024045939716431663,-0.11265409526840386]","[-1,-1,-1]","[-0.0755782236754067,0.0869440488426472]","[1,1,1]","[-0.038523225109476755,0.06536718794880003]","[-1,-1,-1]","[0.06286285537866453,0.11693038930191409]","[-1,-1,-1]","[0.13313851638942675,0.07394892040195326]","[1,1,1]","[0.05680800740986919,-0.0058651632469920055]","[-1,-1,-1]","[-0.016366512992010515,0.19630513384117348]","[-1,-1,-1]","[0.16897340280247602,0.04431699393844291]","[1,1,1]","[-0.0434063367278879,-0.06999850999743967]","[-1,-1,-1]","[-0.09666885079059027,-0.15678469554021357]","[-1,-1,-1]","[0.030966912023243028,0.07601239366365359]","[1,1,1]","[0.020096599932691202,-0.15585736575907683]","[1,1,1]","[-0.056192399346048895,0.15839535322452145]","[1,1,1]","[0.07324617516712317,-0.17677704263561025]","[-1,-1,-1]","[-0.02012129132764805,-0.12193113998682213]","[1,1,1]","[-0.07750849369107225,0.04114811207956499]","[-1,-1,-1]","[-0.1668201106924362,0.05512650805054223]","[1,1,1]","[-0.09142734646330972,-0.09278265969672421]","[1,1,1]","[0.08428923649652674,0.1614935524624071]","[-1,-1,-1]","[-0.1700313178624067,-0.06783653869522341]","[-1,-1,-1]","[0.006818800835568459,-0.06077832906773649]","[-1,-1,-1]","[-0.032264390839671746,0.020565664929630908]","[-1,-1,-1]","[0.07538644167959935,0.05619441025569711]","[1,1,1]","[-0.15209068568226958,0.11105480742388983]","[1,1,1]","[-0.037272068703995444,-0.0227023674563945]","[-1,-1,-1]","[0.10307501043416335,-0.006060206614822949]","[-1,-1,-1]","[0.02,0.02]",182.1331,0,32,32,46,1,,,,,,,
,,,,,,,67d00193ba74882f03dc0820,682db4dcacd16069811f1e13,2025-05-21_13h21.45.514,cuing_paradigm_dot,2024.1.5,Win32,30.12048193,682d556593cb38ad0a074487,,,,,,,,,,,182.1338,182.6234,,,182.8668,183.5069,right,,,,,,,,0.4,0.6186,,,,,,,182.6234,182.8667,183.5069,"[-0.0586201476269672,0.06496423157608236]","[1,1,1]","[0.00806524491501691,0.09059994457798418]","[1,1,1]","[-0.16428324774782063,-0.09436078896500215]","[1,1,1]","[-0.010789056297555513,-0.004082221670080136]","[-1,-1,-1]","[-0.18397081173008245,0.05945240800704007]","[1,1,1]","[0.09603531648729458,-0.019511104693722955]","[1,1,1]","[0.05613866053434055,0.04766761191097842]","[1,1,1]","[-0.0049838936155420415,0.13946801719040716]","[-1,-1,-1]","[0.13913328135783265,0.08311192538279853]","[1,1,1]","[0.13731912745138736,-0.0881474793003059]","[-1,-1,-1]","[-0.11655449344862995,0.02754058649875938]","[-1,-1,-1]","[-0.126087873800273,-0.024068271028932248]","[-1,-1,-1]","[-0.00714145302021323,-0.1212135980117362]","[-1,-1,-1]","[0.15444857767959747,0.029646107950521184]","[-1,-1,-1]","[0.09557074401065278,-0.12360997499224259]","[-1,-1,-1]","[0.052658042085599266,-0.046474393789646705]","[-1,-1,-1]","[0.006274191560045425,0.03608035111235044]","[1,1,1]","[-0.004269611012198482,-0.06239009685543039]","[-1,-1,-1]","[-0.10933011272178547,0.12051141904779364]","[-1,-1,-1]","[0.052685258989956414,-0.12856007218533033]","[-1,-1,-1]","[-0.1108429314088708,0.1657334874965962]","[-1,-1,-1]","[-0.04571046268149697,-0.09260688850443877]","[-1,-1,-1]","[-0.10418673473315758,-0.1503819466596366]","[-1,-1,-1]","[0.10885730975901775,0.13756920102186432]","[1,1,1]","[0.14301408226389484,-0.02010184525780586]","[1,1,1]","[0.06029464701278065,0.14757261338130406]","[1,1,1]","[-0.13942784527589624,0.09255890042130938]","[-1,-1,-1]","[-0.06864577699899835,0.11986025077927376]","[-1,-1,-1]","[-0.07580205826629391,0.02554318774015342]","[-1,-1,-1]","[0.09189393021429562,-0.06256211325097905]","[1,1,1]","[-0.08151927570710743,-0.06031871738171936]","[1,1,1]","[-0.16713011197630137,-0.014935717653359241]","[-1,-1,-1]","[0.02,0.02]",184.6066,0,33,33,32,1,,,,,,,
,,,,,,,67d00193ba74882f03dc0820,682db4dcacd16069811f1e13,2025-05-21_13h21.45.514,cuing_paradigm_dot,2024.1.5,Win32,30.12048193,682d556593cb38ad0a074487,,,,,,,,,,,184.607,185.1066,,,185.3579,186.2235,left,,,,,,,,0.45,0.8522,,,,,,,185.1066,185.3577,186.2235,"[-0.047295303676744685,0.17391674559945047]","[-1,-1,-1]","[0.10257740341616245,-0.09996708687974759]","[1,1,1]","[0.014174757966145354,-0.014886511573977097]","[-1,-1,-1]","[0.016852224618488065,-0.14568734568026773]","[-1,-1,-1]","[0.01869041302109858,0.0818951228860411]","[-1,-1,-1]","[-0.061759272349772305,0.09035456871866206]","[-1,-1,-1]","[-0.04531777082432916,0.010997047331502264]","[-1,-1,-1]","[-0.06946277199345173,0.13701302649865485]","[1,1,1]","[-0.07099092154501034,-0.0876901901722249]","[1,1,1]","[-0.09067092293132428,0.016659588066653835]","[1,1,1]","[0.0031867639004518307,-0.06695324245367153]","[1,1,1]","[-0.0657325999001555,-0.023652338688497997]","[1,1,1]","[0.038502753172502166,0.1614704576088107]","[1,1,1]","[0.09548974065808068,0.04247969872643118]","[-1,-1,-1]","[-0.14304549145793927,-0.09499618917404908]","[1,1,1]","[-0.01673915148681046,0.042735102095844656]","[1,1,1]","[-0.15322045505154736,0.07076054267874207]","[1,1,1]","[-0.13388761464573018,0.10587416317705549]","[-1,-1,-1]","[0.18934969877938895,-0.009484703301662458]","[1,1,1]","[0.054183731044783356,-0.06192581474129913]","[1,1,1]","[-0.06352121791549092,-0.13921400790081936]","[1,1,1]","[0.10553318326848272,-0.15673020942226903]","[-1,-1,-1]","[0.11765093396829504,0.089292730538251]","[-1,-1,-1]","[0.13761310045917538,0.12663381812595215]","[-1,-1,-1]","[-0.10500561107414358,-0.12115299421665342]","[-1,-1,-1]","[0.054976129994219594,0.0184112630553945]","[-1,-1,-1]","[0.09924900077990059,-0.01767422720100863]","[-1,-1,-1]","[0.16332570059199644,-0.09248459123829315]","[1,1,1]","[0.18098797352036675,0.04285130439687888]","[-1,-1,-1]","[-0.1651938587532819,-0.0010974860210194203]","[-1,-1,-1]","[0.07131706410538644,0.13121347662055383]","[-1,-1,-1]","[0.058609628321773966,-0.15941186119530318]","[-1,-1,-1]","[0.02,0.02]",187.3228,0,34,34,77,1,,,,,,,
,,,,,,,67d00193ba74882f03dc0820,682db4dcacd16069811f1e13,2025-05-21_13h21.45.514,cuing_paradigm_dot,2024.1.5,Win32,30.12048193,682d556593cb38ad0a074487,,,,,,,,,,,187.3242,187.7417,,,187.9896,188.3719,left,,,,,,,,0.1,0.3707,,,,,,,187.7417,187.9896,188.3721,"[0.07343882369396433,0.08891832520954261]","[-1,-1,-1]","[0.01916375293233557,-0.0103242733387337]","[-1,-1,-1]","[0.12463159148068693,-0.15110001729612813]","[-1,-1,-1]","[-0.1430820027674062,-0.07148479516546968]","[-1,-1,-1]","[0.11475877084775597,-0.03829010956692712]","[-1,-1,-1]","[0.11853063157100681,0.13002819638993934]","[-1,-1,-1]","[0.01931980821058705,0.05135872594792046]","[-1,-1,-1]","[0.044290297635414595,0.1455046171098177]","[1,1,1]","[-0.12094720411518367,-0.10790451506708376]","[-1,-1,-1]","[0.1341305021456816,0.07294546748669303]","[-1,-1,-1]","[-0.08155568009712348,-0.0467151175539333]","[-1,-1,-1]","[0.04522709343745664,0.1867798014842249]","[-1,-1,-1]","[-0.0694687999645443,0.10796672738137193]","[-1,-1,-1]","[-0.036671298234788464,-0.03126086356045654]","[1,1,1]","[0.057755401131562474,0.03896420293554551]","[-1,-1,-1]","[0.03777037990109749,-0.19579650720174926]","[-1,-1,-1]","[-0.16955325755424266,0.051372198159792465]","[-1,-1,-1]","[-0.09808479278389395,-0.16165784664758953]","[-1,-1,-1]","[-0.12239782447588649,0.00526079399046191]","[-1,-1,-1]","[0.18760637791414822,-0.04101107171891337]","[-1,-1,-1]","[0.08183834000186697,0.1636034510766327]","[-1,-1,-1]","[0.19607244679725816,0.029688037105782644]","[-1,-1,-1]","[-0.15782414531817412,0.1000094970232044]","[-1,-1,-1]","[-0.012933352699366692,-0.10010484824876131]","[-1,-1,-1]","[-0.07607409918662507,-0.08654207667163075]","[-1,-1,-1]","[0.1335901646026139,0.007549092855090181]","[-1,-1,-1]","[-0.011803212784796086,0.14826641528646087]","[-1,-1,-1]","[0.14565975707920256,-0.10770855786055568]","[-1,-1,-1]","[-0.09073913116954234,0.17030196697218933]","[-1,-1,-1]","[-0.044350584149348865,-0.14776387251269196]","[1,1,1]","[0.08346262413838128,-0.10915943579325665]","[-1,-1,-1]","[0.14938481332284342,-0.06512747963833647]","[-1,-1,-1]","[0.02,0.02]",189.4818,0,35,35,20,1,,,,,,,
,,,,,,,67d00193ba74882f03dc0820,682db4dcacd16069811f1e13,2025-05-21_13h21.45.514,cuing_paradigm_dot,2024.1.5,Win32,30.12048193,682d556593cb38ad0a074487,,,,,,,,,,,189.4826,189.9804,,,190.2311,190.6988,right,,,,,,,,0.9,0.4519,,,,,,,189.9804,190.2309,190.6988,"[0.029716464449796164,-0.16089246212830527]","[1,1,1]","[-0.15534411174001214,0.04390357100847005]","[-1,-1,-1]","[0.022614777329519303,0.036394240370273945]","[1,1,1]","[-0.032849915045071426,0.03378284933579586]","[1,1,1]","[-0.016285071391617525,-0.0488169929173161]","[1,1,1]","[0.09351664213212674,-0.08987262752718006]","[1,1,1]","[0.10332351340461889,0.16537608849750232]","[1,1,1]","[0.14528253747117867,-0.07680468331626339]","[1,1,1]","[0.04825451281016072,0.1912936269425996]","[1,1,1]","[0.15136657655332894,0.08188220614416399]","[1,1,1]","[0.14502119722351672,0.1310106781181705]","[1,1,1]","[0.14046793367733898,-0.12828844447053409]","[-1,-1,-1]","[0.005074009813404317,-0.19427165193763307]","[1,1,1]","[-0.052173279695622965,-0.137029261906715]","[1,1,1]","[0.0765378100577174,0.10675537474864798]","[1,1,1]","[0.13701494821915747,0.03783830116091569]","[1,1,1]","[-0.10664142039772936,0.00370011942049849]","[1,1,1]","[0.08940204647632859,-0.04331889196075696]","[1,1,1]","[-0.15127458155565227,-0.01378593984238671]","[1,1,1]","[0.0010151083900846517,0.19297476645739275]","[1,1,1]","[-0.09803159313153285,-0.16510078185926916]","[1,1,1]","[-0.18936984111962224,-0.062396761615902685]","[-1,-1,-1]","[-0.05143221627573863,-0.08011778369511594]","[1,1,1]","[0.056109449488365576,0.061311079597015296]","[1,1,1]","[-0.04230204815980887,0.0732253253279912]","[1,1,1]","[-0.12090808405918037,-0.07647306232507835]","[1,1,1]","[0.06956198699626356,-0.17145685829599353]","[1,1,1]","[0.027968158029936803,0.13021375065161647]","[1,1,1]","[0.016147912332828595,-0.014888246020457012]","[1,1,1]","[-0.10501169658283989,0.07833328959236364]","[1,1,1]","[-0.04361379177231459,0.12092855911024815]","[1,1,1]","[-0.13711422425818787,0.11771681021811022]","[1,1,1]","[0.02,0.02]",191.7965,0,36,36,180,1,,,,,,,
,,,,,,,67d00193ba74882f03dc0820,682db4dcacd16069811f1e13,2025-05-21_13h21.45.514,cuing_paradigm_dot,2024.1.5,Win32,30.12048193,682d556593cb38ad0a074487,,,,,,,,,,,191.7973,192.2966,,,192.5381,193.3218,right,,,,,,,,0.4,0.7687,,,,,,,192.2966,192.5381,193.3219,"[0.19532644400528246,0.026155609902856647]","[-1,-1,-1]","[-0.033906175732114026,0.18699058607863162]","[-1,-1,-1]","[0.08774124450808513,-0.17395346118185104]","[-1,-1,-1]","[0.059424411743286526,0.14000425305618247]","[1,1,1]","[0.045772542629455557,-0.07862589255109824]","[-1,-1,-1]","[-0.10249401352371475,-0.14768862456314627]","[-1,-1,-1]","[-0.11354322555190188,0.09854844344915145]","[-1,-1,-1]","[0.0006166886061412259,0.05286053630442815]","[-1,-1,-1]","[0.120708340786453,-0.05131774095548382]","[1,1,1]","[-0.11340444683282826,0.15695515697308607]","[-1,-1,-1]","[-0.07222360784462696,0.060995680512762704]","[-1,-1,-1]","[-0.06395071388990073,-0.10813980823095355]","[1,1,1]","[-0.17711880991037576,-0.04864836468547203]","[-1,-1,-1]","[0.0347098787967236,0.002005860371219909]","[-1,-1,-1]","[-0.013389530693353602,0.14814660554826456]","[1,1,1]","[-0.11252656268550884,-0.015097446259173334]","[1,1,1]","[0.015550826200832145,0.09916263809283288]","[-1,-1,-1]","[0.0768317264239253,0.017547207033424602]","[1,1,1]","[0.11541753120198506,0.08762394935926036]","[-1,-1,-1]","[-0.16774167744614024,-0.10109905474198375]","[1,1,1]","[0.11646134983217184,0.04649828184716857]","[1,1,1]","[0.1251509725611738,-0.005050714462870026]","[-1,-1,-1]","[-0.06629381150607602,0.13429288191890942]","[1,1,1]","[-0.18126464546036133,0.008413889086135674]","[1,1,1]","[-0.12781955912391416,0.03719752823752614]","[-1,-1,-1]","[0.03499910398152851,-0.11852458694280606]","[-1,-1,-1]","[0.10983814267568295,0.14135914242496708]","[1,1,1]","[0.018133185198778372,-0.18362371223266485]","[-1,-1,-1]","[0.17729258211636106,0.07094807029984901]","[-1,-1,-1]","[-0.01298561049326204,-0.1272820840038944]","[-1,-1,-1]","[-0.03412398243986741,-0.028640534923161244]","[1,1,1]","[0.03530349570143311,-0.03894234367080008]","[1,1,1]","[0.02,0.02]",194.4205,0,37,37,55,1,,,,,,,
,,,,,,,67d00193ba74882f03dc0820,682db4dcacd16069811f1e13,2025-05-21_13h21.45.514,cuing_paradigm_dot,2024.1.5,Win32,30.12048193,682d556593cb38ad0a074487,,,,,,,,,,,194.421,194.9203,,,196.1177,196.6895,,,,,,,,,0.4,,,,,,,,194.9204,196.1176,196.6895,"[0.0030351369980425673,-0.13133149973693276]","[-1,-1,-1]","[-0.09752107230983903,0.11552900058248193]","[-1,-1,-1]","[0.16990965592286705,0.07857551406548531]","[1,1,1]","[-0.049207075627842836,0.162269168114455]","[1,1,1]","[-0.11508046774562967,0.023944754036353225]","[1,1,1]","[0.12217033752889107,0.04711915984641534]","[1,1,1]","[0.08843308983208172,-0.010669628515860773]","[-1,-1,-1]","[0.09534755688353536,0.08708169712604663]","[1,1,1]","[-0.19623566350365548,-0.028538130524959883]","[1,1,1]","[0.014267309952033565,0.05282447688491748]","[-1,-1,-1]","[0.15508299264764214,-0.061614243533435954]","[1,1,1]","[-0.01151027542523035,-0.019474996765895456]","[-1,-1,-1]","[-0.12033103207888333,-0.12608516181271323]","[1,1,1]","[-0.057219385135502454,0.08081991196924991]","[1,1,1]","[-0.029349174158148007,-0.06427665942968318]","[-1,-1,-1]","[0.06032590115156076,-0.05487047567108872]","[-1,-1,-1]","[0.03946252972459702,-0.10766684549633863]","[-1,-1,-1]","[0.07324981077148184,0.04354497027951224]","[-1,-1,-1]","[0.13033056893450448,0.135683466279137]","[1,1,1]","[-0.0902140941454225,-0.0539362750443757]","[1,1,1]","[-0.13033108724734335,-0.04816566945218472]","[-1,-1,-1]","[-0.12524023368024473,0.08173811244881822]","[-1,-1,-1]","[0.10913160562733194,-0.11974064632726011]","[-1,-1,-1]","[-0.08804105825812836,-0.15725356955587957]","[-1,-1,-1]","[-0.021909695649892008,-0.16478107485079543]","[-1,-1,-1]","[0.04567318815185707,-0.006103988429778158]","[-1,-1,-1]","[0.053146891968775575,0.15848722153971226]","[1,1,1]","[-0.03809913227557526,0.12228219117945797]","[1,1,1]","[0.1940167583717842,-0.045347787081524954]","[-1,-1,-1]","[0.15900735817486908,0.02829512656390017]","[-1,-1,-1]","[0.03715649638423125,-0.19201007810122306]","[-1,-1,-1]","[0.05839252453632291,0.10259697597747679]","[-1,-1,-1]","[0.02,0.02]",197.7784,0,38,38,52,1,,,,,,,
,,,,,,,67d00193ba74882f03dc0820,682db4dcacd16069811f1e13,2025-05-21_13h21.45.514,cuing_paradigm_dot,2024.1.5,Win32,30.12048193,682d556593cb38ad0a074487,,,,,,,,,,,197.7788,198.2789,,,198.5207,198.9041,left,,,,,,,,0.1,0.3682,,,,,,,198.2789,198.5207,198.9041,"[-0.07061773370618797,0.09199580637188912]","[1,1,1]","[-0.003782038128788818,-0.007995393634332312]","[-1,-1,-1]","[0.16177604760726863,-0.06169850082849225]","[-1,-1,-1]","[-0.07029637954924382,-0.029294496844406753]","[1,1,1]","[-0.03134494473536488,-0.07286776902812248]","[-1,-1,-1]","[0.1455748427095497,-0.11483075208017683]","[-1,-1,-1]","[-0.009604004958685658,0.03250492103477873]","[-1,-1,-1]","[-0.12242344217318767,0.0755275417510648]","[-1,-1,-1]","[-0.0073879555933769065,0.14638877491254426]","[-1,-1,-1]","[-0.10761221921224447,-0.05997859113697401]","[-1,-1,-1]","[0.008314289021563129,0.10294209363072335]","[-1,-1,-1]","[-0.15354042875960316,0.11500685867739902]","[-1,-1,-1]","[-0.08754403638290069,0.1742932207868035]","[-1,-1,-1]","[-0.068408690850155,-0.14074404951674546]","[-1,-1,-1]","[0.0601115487100033,0.07197215902618266]","[-1,-1,-1]","[-0.17549182347492695,-0.01973588268813731]","[-1,-1,-1]","[-0.03432612932668901,-0.16502015510122964]","[-1,-1,-1]","[0.1253483253827542,0.06931563915581279]","[-1,-1,-1]","[0.11455519220971976,-0.013517337453490874]","[-1,-1,-1]","[0.02908561391365852,-0.15908210387014035]","[-1,-1,-1]","[-0.12603466249251047,-0.11520830767126367]","[-1,-1,-1]","[0.09031252592631439,-0.1520659881115915]","[-1,-1,-1]","[-0.08483081483447952,0.027875931367187506]","[-1,-1,-1]","[-0.17409739619252718,0.07455148372099608]","[-1,-1,-1]","[0.057172446239285725,0.1763523257676986]","[-1,-1,-1]","[0.11180854607908611,0.10947726025171943]","[-1,-1,-1]","[-0.18661535487881703,0.03632450375136806]","[-1,-1,-1]","[0.02400200747795025,-0.08308415556979158]","[1,1,1]","[0.09974399380091445,-0.06763191193131193]","[-1,-1,-1]","[-0.013903974405354465,-0.11161890975859225]","[-1,-1,-1]","[-0.0036544117064416354,-0.19564868938475755]","[-1,-1,-1]","[0.17257149192030433,0.09472371555355856]","[-1,-1,-1]","[0.02,0.02]",200.0886,0,39,39,1,1,,,,,,,
,,,,,,,67d00193ba74882f03dc0820,682db4dcacd16069811f1e13,2025-05-21_13h21.45.514,cuing_paradigm_dot,2024.1.5,Win32,30.12048193,682d556593cb38ad0a074487,,,,,,,,,,,200.0893,200.5204,,,200.771,201.3367,right,,,,,,,,0.9,0.5506,,,,,,,200.5204,200.771,201.3367,"[-0.07353138338122629,-0.1842342134882083]","[1,1,1]","[0.09336011100448126,0.028417603535392365]","[1,1,1]","[0.0454530873602098,-0.002558865361826312]","[1,1,1]","[-0.15613612351159695,0.006326480069040045]","[1,1,1]","[0.024004843392287232,0.035709834090250324]","[1,1,1]","[0.1466412991621763,-0.020871044019835815]","[1,1,1]","[0.1277421221473025,-0.10522321083911597]","[1,1,1]","[0.06714952655389773,-0.12284789592136006]","[1,1,1]","[-0.07989263485195008,0.17074789923457218]","[1,1,1]","[-0.17214051834966307,0.06096963315136588]","[1,1,1]","[-0.030904086682062452,-0.07258524925277646]","[1,1,1]","[-0.046329974938825035,0.1330020738261512]","[1,1,1]","[0.09096603372307803,0.15096842283568454]","[1,1,1]","[0.03296624406633186,0.11851374953602273]","[-1,-1,-1]","[-0.13751153011098702,0.10664965351580813]","[1,1,1]","[-0.07208351187265359,-0.0589727546160011]","[1,1,1]","[0.1318636155966058,0.040003894682401606]","[1,1,1]","[0.10152663772279477,-0.03559640248916668]","[1,1,1]","[-0.14225170060566436,-0.07887812717323656]","[1,1,1]","[-0.028421589741220044,0.05682576994902153]","[1,1,1]","[0.0901139345024277,0.0963095477408614]","[-1,-1,-1]","[0.03205412929907733,-0.057938385278797015]","[1,1,1]","[-0.020992115143942735,-0.016283960458092918]","[1,1,1]","[0.012475036194621616,0.17349933098385242]","[1,1,1]","[0.17117024582022758,-0.07632227615659382]","[1,1,1]","[0.16987186347844113,0.08733173868848132]","[1,1,1]","[-0.18467302858668455,-0.06719284319238372]","[1,1,1]","[-0.08554087062254177,-0.12312507976406725]","[1,1,1]","[0.19600030967799248,0.01571134973234018]","[1,1,1]","[-0.13297369834519168,-0.13785393022593828]","[-1,-1,-1]","[-0.04135165346904108,-0.15052847548977136]","[1,1,1]","[-0.10780656548276023,-0.026837327497893988]","[1,1,1]","[0.02,0.02]",202.437,0,40,40,202,1,,,,,,,
,,,,,,,67d00193ba74882f03dc0820,682db4dcacd16069811f1e13,2025-05-21_13h21.45.514,cuing_paradigm_dot,2024.1.5,Win32,30.12048193,682d556593cb38ad0a074487,,,,,,,,,,,202.4375,202.9377,,,203.1869,204.2364,right,,,,,,,,0.6,0.9648,,,,,,,202.9378,203.1868,204.2366,"[-0.06383508543804609,-0.05915436258774573]","[-1,-1,-1]","[0.13586652234539606,0.06532645030651747]","[-1,-1,-1]","[-0.13157670774391558,0.10087404815843042]","[1,1,1]","[-0.12928337674114215,0.011445507724024175]","[1,1,1]","[0.02779683250637511,-0.002267972290038923]","[1,1,1]","[-0.08683624280596619,0.024929580480323097]","[-1,-1,-1]","[0.008166963852816138,0.17418958003332552]","[-1,-1,-1]","[0.18308536312129928,0.003076944205893839]","[1,1,1]","[-0.16246987611267255,-0.05345466215683398]","[-1,-1,-1]","[-0.03546225005693804,0.014877354178189806]","[1,1,1]","[0.06724349889458378,-0.12097139003784615]","[1,1,1]","[0.0008098508967269103,0.12846308017649552]","[1,1,1]","[0.13030843380909168,0.10804926876938374]","[1,1,1]","[-0.011685973589106436,-0.15435244008025775]","[1,1,1]","[-0.06287550496176894,-0.15431624078452352]","[1,1,1]","[0.08346661657839809,-0.17013915223776707]","[-1,-1,-1]","[0.08552414205051047,0.1796193978776898]","[1,1,1]","[0.15943345733018932,-0.08835026886219823]","[1,1,1]","[-0.003881365875579068,0.04423439212509248]","[-1,-1,-1]","[0.14173701057782814,0.0023155357057566502]","[-1,-1,-1]","[0.04910911281748375,0.11985606822669628]","[-1,-1,-1]","[0.121811219739172,0.15084781647821593]","[1,1,1]","[0.0412991365742456,0.059797181362321046]","[-1,-1,-1]","[-0.0334783272851345,0.09292170811891982]","[1,1,1]","[-0.18882767155171523,0.06486983579095382]","[1,1,1]","[-0.008293099752669229,-0.10606500562648374]","[-1,-1,-1]","[-0.15252062877040354,-0.1108595849739222]","[1,1,1]","[-0.11303682261820053,-0.08508104672564498]","[-1,-1,-1]","[0.1513751288643483,-0.041939830983233437]","[-1,-1,-1]","[0.03483211844233153,-0.09155633796767905]","[1,1,1]","[-0.07554929957966479,0.0904090557275264]","[1,1,1]","[0.005217677801035113,-0.04904295510325029]","[1,1,1]","[0.02,0.02]",205.3356,0,41,41,171,1,,,,,,,
,,,,,,,67d00193ba74882f03dc0820,682db4dcacd16069811f1e13,2025-05-21_13h21.45.514,cuing_paradigm_dot,2024.1.5,Win32,30.12048193,682d556593cb38ad0a074487,,,,,,,,,,,205.3364,205.8358,,,206.0857,206.871,left,,,,,,,,0.55,0.776,1E-04,,,,,,205.8358,206.0856,206.8712,"[-0.028064649880209104,-0.08144572773055637]","[1,1,1]","[-0.06259658682060662,0.017396331203193206]","[-1,-1,-1]","[-0.1780705316804701,-0.04736476501963737]","[1,1,1]","[-0.16647046859688125,-0.0013945179702753525]","[1,1,1]","[0.15851692307518214,0.049968794924765254]","[1,1,1]","[0.19701733921532857,0.01555807041078743]","[-1,-1,-1]","[0.10157859665930923,0.12843207004834448]","[-1,-1,-1]","[0.02695380483335111,-0.08435414268922312]","[-1,-1,-1]","[-0.056653221089450964,0.08085741350826857]","[1,1,1]","[-0.04367435724104816,-0.03815939993379237]","[-1,-1,-1]","[-0.09894790691199411,0.09477580041023329]","[1,1,1]","[-0.12476016702721278,0.15034680038553866]","[1,1,1]","[-0.09536641771318753,-0.06307051272453428]","[1,1,1]","[-0.07938265956753102,0.16662542083055162]","[1,1,1]","[-0.09958021912177673,-0.16590558613375672]","[1,1,1]","[0.03290338573458466,-0.03196886944264113]","[1,1,1]","[-0.15954619118193622,0.0729579590966314]","[-1,-1,-1]","[0.020274281437048083,0.08941891664051888]","[-1,-1,-1]","[-0.032351469160324844,-0.18548865526714753]","[-1,-1,-1]","[0.10768598681513813,-0.12078478453319488]","[-1,-1,-1]","[0.14736504415753984,-0.03015546524344983]","[-1,-1,-1]","[0.16212460032314446,-0.08004497005351409]","[1,1,1]","[-0.04789477767489995,-0.12534374137799068]","[-1,-1,-1]","[0.06987740973513767,-0.01126842348184107]","[1,1,1]","[0.058685025629932074,0.18020764584316729]","[1,1,1]","[-0.016515964771585026,-0.0050624749711535915]","[-1,-1,-1]","[0.10011111958640205,-0.04208955790344687]","[1,1,1]","[0.06475908751491756,-0.10435947163493456]","[-1,-1,-1]","[-0.02413551191522245,0.11775877455907309]","[1,1,1]","[0.19253611464708575,-0.02849434774965934]","[1,1,1]","[-0.11372612229736415,0.01127955512435759]","[-1,-1,-1]","[0.009036549471639226,0.1788532177907729]","[1,1,1]","[0.02,0.02]",207.9679,0,42,42,143,1,,,,,,,
,,,,,,,67d00193ba74882f03dc0820,682db4dcacd16069811f1e13,2025-05-21_13h21.45.514,cuing_paradigm_dot,2024.1.5,Win32,30.12048193,682d556593cb38ad0a074487,,,,,,,,,,,207.9683,208.4508,,,208.7015,209.5019,right,,,,,,,,0.9,0.7851,,,,,,,208.4508,208.7014,209.5019,"[-0.08903534215571052,0.05807208795142075]","[1,1,1]","[0.06929365071143566,-0.16058999897650958]","[1,1,1]","[-0.030464421542148738,0.16689874517632622]","[1,1,1]","[0.054181435479368045,0.14934857943952173]","[1,1,1]","[-0.08368484577971037,-0.1532279094116302]","[1,1,1]","[-0.15192124929961226,-0.09068249106424421]","[1,1,1]","[-0.17295963293654382,0.010318912134662695]","[1,1,1]","[0.08803344217670202,-0.060958111041564504]","[1,1,1]","[0.16711071481585368,-0.03362172253140347]","[1,1,1]","[-0.07336099149408593,-0.04499711144315221]","[1,1,1]","[0.12034791912215939,-0.009223032597908982]","[-1,-1,-1]","[-0.02399759109766374,-0.11883770493384958]","[1,1,1]","[-0.18794048135085661,-0.04048717116162714]","[1,1,1]","[0.13546268099178083,0.08775203925567913]","[1,1,1]","[0.0719404293731517,0.04731937857998119]","[1,1,1]","[-0.04914235677121355,0.030864972013078293]","[1,1,1]","[0.17592457824967592,0.06875521116469653]","[1,1,1]","[-0.05329562729717235,-0.19161945588009754]","[1,1,1]","[-0.07843149753607936,0.14789037103399208]","[1,1,1]","[0.17192852174766343,-0.09460539950383888]","[-1,-1,-1]","[-0.145574989583395,0.133850331336604]","[1,1,1]","[0.03867092898020092,-0.07648532739161733]","[1,1,1]","[0.19767605974370053,0.018306526952380633]","[1,1,1]","[0.00756928074394612,0.045202061460752174]","[1,1,1]","[0.012499224167747368,0.0007319257236478737]","[-1,-1,-1]","[0.039006421341967294,0.08081307894357766]","[1,1,1]","[0.03640417542041179,-0.03452105916947413]","[1,1,1]","[0.0011799658300653776,-0.17448359365648405]","[1,1,1]","[0.09823928784621923,0.10740724776754249]","[1,1,1]","[-0.14466147873600432,0.0830863553334807]","[1,1,1]","[-0.12244742006654263,0.023497884062751065]","[1,1,1]","[0.13038282826749995,-0.052382992678837156]","[1,1,1]","[0.02,0.02]",210.6023,0,43,43,188,1,,,,,,,
,,,,,,,67d00193ba74882f03dc0820,682db4dcacd16069811f1e13,2025-05-21_13h21.45.514,cuing_paradigm_dot,2024.1.5,Win32,30.12048193,682d556593cb38ad0a074487,,,,,,,,,,,210.603,211.0939,,,211.334,212.2853,right,,,,,,,,0.4,0.9405,,,,,,,211.094,211.3339,212.2853,"[-0.15431655597440558,0.03891251361748704]","[-1,-1,-1]","[-0.07984919014344385,-0.013552647293509596]","[1,1,1]","[-0.04131364928598881,0.14679486359130006]","[-1,-1,-1]","[-0.04269333987272754,0.007251748379001818]","[1,1,1]","[-0.04870560362758149,-0.0998380380204662]","[1,1,1]","[0.14944842880725573,0.0911658678026314]","[-1,-1,-1]","[0.07211208539370016,-0.07901762128554891]","[1,1,1]","[-0.14640366521921622,0.13545979462503008]","[1,1,1]","[0.0068478668358612,-0.1541108883703982]","[1,1,1]","[0.030122603808277415,0.173059614744884]","[-1,-1,-1]","[0.10064683939006432,0.057155624543208904]","[-1,-1,-1]","[0.0015824657329257456,0.11920442336107503]","[1,1,1]","[0.11037390625121549,-0.12317092717624983]","[-1,-1,-1]","[-0.0377108634817582,0.0942026345180579]","[1,1,1]","[0.10305141260042816,0.012442664714832742]","[-1,-1,-1]","[0.06656523539992007,0.12885077797940916]","[-1,-1,-1]","[-0.12531446073392627,-0.08451525532656781]","[-1,-1,-1]","[-0.18021809817487222,0.08240620589437939]","[1,1,1]","[-0.07736371081586095,0.04854571695785532]","[-1,-1,-1]","[0.013885861965165084,-0.011673713889627943]","[-1,-1,-1]","[0.15852333654500209,-0.03312946717385186]","[-1,-1,-1]","[-0.0012545330113308117,-0.0919390764782407]","[-1,-1,-1]","[0.13384685325484838,0.12943474261085078]","[1,1,1]","[0.07292984316860929,-0.14427097325047217]","[-1,-1,-1]","[-0.08578039500505434,-0.1521206303545983]","[-1,-1,-1]","[-0.15866997423855136,-0.033116209797325984]","[-1,-1,-1]","[0.04880298428238235,0.06656051832391734]","[1,1,1]","[-0.0835007151064578,0.1570830291847738]","[-1,-1,-1]","[-0.021762033103387906,0.04572438942703934]","[-1,-1,-1]","[0.06242700032490004,-0.037908484673574085]","[-1,-1,-1]","[-0.10151565315937965,0.11048240328825278]","[1,1,1]","[0.18210171791378757,0.05782473780194424]","[1,1,1]","[0.02,0.02]",213.4685,0,44,44,38,1,,,,,,,
