right,left,explain.started,explain.stopped,key_resp_3.keys,key_resp_3.rt,key_resp_3.duration,participant,session,date,expName,psychopyVersion,OS,frameRate,study_id,explain_2.started,explain_2.stopped,key_resp_4.keys,key_resp_4.rt,key_resp_4.duration,explain_3.started,explain_3.stopped,key_resp_5.keys,key_resp_5.rt,key_resp_5.duration,fixation.started,fixation.stopped,practice.started,practice.stopped,response.started,response.stopped,key_resp.keys,feedback.started,feedback.stopped,trials_2.thisRepN,trials_2.thisTrialN,trials_2.thisN,trials_2.thisIndex,trials_2.ran,white_ratio,key_resp.rt,key_resp.duration,explain_4.started,explain_4.stopped,key_resp_6.keys,key_resp_6.rt,key_resp_6.duration,dotDisplay.started,dotDisplay.stopped,ITI.started,polygon_1.pos,polygon_1.color,polygon_2.pos,polygon_2.color,polygon_3.pos,polygon_3.color,polygon_4.pos,polygon_4.color,polygon_5.pos,polygon_5.color,polygon_6.pos,polygon_6.color,polygon_7.pos,polygon_7.color,polygon_8.pos,polygon_8.color,polygon_9.pos,polygon_9.color,polygon_10.pos,polygon_10.color,polygon_11.pos,polygon_11.color,polygon_12.pos,polygon_12.color,polygon_13.pos,polygon_13.color,polygon_14.pos,polygon_14.color,polygon_15.pos,polygon_15.color,polygon_16.pos,polygon_16.color,polygon_17.pos,polygon_17.color,polygon_18.pos,polygon_18.color,polygon_19.pos,polygon_19.color,polygon_20.pos,polygon_20.color,polygon_21.pos,polygon_21.color,polygon_22.pos,polygon_22.color,polygon_23.pos,polygon_23.color,polygon_24.pos,polygon_24.color,polygon_25.pos,polygon_25.color,polygon_26.pos,polygon_26.color,polygon_27.pos,polygon_27.color,polygon_28.pos,polygon_28.color,polygon_29.pos,polygon_29.color,polygon_30.pos,polygon_30.color,polygon_31.pos,polygon_31.color,polygon_32.pos,polygon_32.color,dot_size,ITI.stopped,trials.thisRepN,trials.thisTrialN,trials.thisN,trials.thisIndex,trials.ran,break_2.started,break_2.stopped,trials_3.thisRepN,trials_3.thisTrialN,trials_3.thisN,trials_3.thisIndex,trials_3.ran
subject chose black,subject chose white,0.0004,83.497,space,68.4869,,67d479b71ef9f4c14f6bb2da,682f0fbd802cd567ee126fab,2025-05-22_13h52.36.916,cuing_paradigm_dot,2024.1.5,Win32,60.24096386,682d573fa47f1360d1451895,,,,,,,,,,,,,,,,,,,,,,,,,,,,,,,,,,,,,,,,,,,,,,,,,,,,,,,,,,,,,,,,,,,,,,,,,,,,,,,,,,,,,,,,,,,,,,,,,,,,,,,,,,,,,,,,,
,,,,,,,67d479b71ef9f4c14f6bb2da,682f0fbd802cd567ee126fab,2025-05-22_13h52.36.916,cuing_paradigm_dot,2024.1.5,Win32,60.24096386,682d573fa47f1360d1451895,83.4973,142.9933,space,29.4866,,,,,,,,,,,,,,,,,,,,,,,,,,,,,,,,,,,,,,,,,,,,,,,,,,,,,,,,,,,,,,,,,,,,,,,,,,,,,,,,,,,,,,,,,,,,,,,,,,,,,,,,,,,,,
,,,,,,,67d479b71ef9f4c14f6bb2da,682f0fbd802cd567ee126fab,2025-05-22_13h52.36.916,cuing_paradigm_dot,2024.1.5,Win32,60.24096386,682d573fa47f1360d1451895,,,,,,142.9934,146.6058,space,0.5937,,,,,,,,,,,,,,,,,,,,,,,,,,,,,,,,,,,,,,,,,,,,,,,,,,,,,,,,,,,,,,,,,,,,,,,,,,,,,,,,,,,,,,,,,,,,,,,,,,,,,,,,
,,,,,,,67d479b71ef9f4c14f6bb2da,682f0fbd802cd567ee126fab,2025-05-22_13h52.36.916,cuing_paradigm_dot,2024.1.5,Win32,60.24096386,682d573fa47f1360d1451895,,,,,,,,,,,146.6339,147.1208,147.1212,147.3643,147.3645,148.8687,,148.8689,149.9675,0,0,0,1,1,0.2,,,,,,,,,,,,,,,,,,,,,,,,,,,,,,,,,,,,,,,,,,,,,,,,,,,,,,,,,,,,,,,,,,,,,,,,,,,,,,,,,,,,,,,,
,,,,,,,67d479b71ef9f4c14f6bb2da,682f0fbd802cd567ee126fab,2025-05-22_13h52.36.916,cuing_paradigm_dot,2024.1.5,Win32,60.24096386,682d573fa47f1360d1451895,,,,,,,,,,,149.9686,150.4666,150.4667,150.7328,150.7329,151.5743,left,151.5743,152.6702,0,1,1,0,1,0.8,0.7959,,,,,,,,,,,,,,,,,,,,,,,,,,,,,,,,,,,,,,,,,,,,,,,,,,,,,,,,,,,,,,,,,,,,,,,,,,,,,,,,,,,,,,,
,,,,,,,67d479b71ef9f4c14f6bb2da,682f0fbd802cd567ee126fab,2025-05-22_13h52.36.916,cuing_paradigm_dot,2024.1.5,Win32,60.24096386,682d573fa47f1360d1451895,,,,,,,,,,,,,,,,,,,,,,,,,,,,152.6708,163.9347,space,8.2412,,,,,,,,,,,,,,,,,,,,,,,,,,,,,,,,,,,,,,,,,,,,,,,,,,,,,,,,,,,,,,,,,,,,,,,,,,,,,,,,,,
,,,,,,,67d479b71ef9f4c14f6bb2da,682f0fbd802cd567ee126fab,2025-05-22_13h52.36.916,cuing_paradigm_dot,2024.1.5,Win32,60.24096386,682d573fa47f1360d1451895,,,,,,,,,,,164.0442,164.4503,,,164.7202,165.0005,right,,,,,,,,0.1,0.2645,,,,,,,164.4508,164.7201,165.0009,"[0.14211838957346828,-0.0822801771796483]","[-1,-1,-1]","[0.05352895732303551,0.046157330420423213]","[-1,-1,-1]","[0.15945463496540607,0.05859460721431019]","[-1,-1,-1]","[0.09068071653445052,0.14691863603149025]","[-1,-1,-1]","[0.004511105240425287,-0.09106576418445579]","[-1,-1,-1]","[0.1105361367065399,-0.054431401151760775]","[-1,-1,-1]","[0.07942949656129426,-0.08694000914607133]","[-1,-1,-1]","[0.05096848228326834,-0.16570746368523817]","[1,1,1]","[-0.13370779197671506,-0.05090025509425211]","[-1,-1,-1]","[-0.1878892362051778,0.048647538891173986]","[-1,-1,-1]","[-0.1756852144917451,0.0000933225513460413]","[-1,-1,-1]","[-0.001310775256395955,-0.14161903698942807]","[-1,-1,-1]","[-0.025982957164354562,0.09857195191249975]","[-1,-1,-1]","[0.022644674750688175,-0.012900498705170543]","[-1,-1,-1]","[-0.07524997337284435,-0.04997365380428392]","[-1,-1,-1]","[-0.04574522816546241,-0.18474774982485195]","[-1,-1,-1]","[-0.07862711475733485,0.08670925234167477]","[-1,-1,-1]","[-0.08718450299072632,-0.08847002312237252]","[-1,-1,-1]","[-0.08879099429459468,0.04767782219407939]","[-1,-1,-1]","[-0.10893773672397543,-0.14019886012739083]","[-1,-1,-1]","[-0.14333942887905932,0.05606474007455469]","[-1,-1,-1]","[-0.03381749804969701,-0.008372602383567664]","[-1,-1,-1]","[0.050327504419194945,0.13270883079192858]","[-1,-1,-1]","[-0.05681341649537395,0.15285529324771024]","[-1,-1,-1]","[0.1400214873644821,0.13859767409319865]","[-1,-1,-1]","[0.10076264319594753,-0.15536432143056075]","[-1,-1,-1]","[0.015479732626777017,0.06260396118130711]","[-1,-1,-1]","[0.05968445755790969,0.17479594082264352]","[1,1,1]","[0.18326826164415622,-0.03209330383937012]","[-1,-1,-1]","[0.19873251148919044,0.015577726868931326]","[1,1,1]","[0.06083980164275247,0.08792003818035884]","[-1,-1,-1]","[-0.13127706697651897,0.11698103439688022]","[-1,-1,-1]","[0.02,0.02]",166.0991,0,0,0,26,1,,,,,,,
,,,,,,,67d479b71ef9f4c14f6bb2da,682f0fbd802cd567ee126fab,2025-05-22_13h52.36.916,cuing_paradigm_dot,2024.1.5,Win32,60.24096386,682d573fa47f1360d1451895,,,,,,,,,,,166.0996,166.5981,,,166.8483,167.2979,right,,,,,,,,0.5,0.4359,,,,,,,166.5981,166.8482,167.2979,"[0.04001640785311254,0.09099486698134326]","[-1,-1,-1]","[-0.17619910180402645,0.01196814072040146]","[-1,-1,-1]","[0.05238555810487642,-0.01234249287708587]","[-1,-1,-1]","[-0.16213497616169104,0.11465725955921491]","[1,1,1]","[-0.13067259427964312,-0.01725165645781456]","[-1,-1,-1]","[0.1404158039956718,-0.07937714236668447]","[1,1,1]","[-0.06377581330336818,0.13409854382875386]","[-1,-1,-1]","[-0.01826845107205269,0.07283313726924581]","[-1,-1,-1]","[0.051675391500048455,-0.10316039125217237]","[1,1,1]","[0.11203007523795613,-0.05042304478728626]","[-1,-1,-1]","[0.014118299743156995,-0.06933820376812154]","[1,1,1]","[0.1299113811837655,0.14741319146471357]","[1,1,1]","[0.07494234537758171,-0.1633814010608031]","[1,1,1]","[-0.007217500812993039,0.009692492936986622]","[-1,-1,-1]","[0.010076449416057433,-0.17271092620890924]","[1,1,1]","[-0.08491293040903318,-0.07692107433546497]","[-1,-1,-1]","[0.15129284504219132,0.1092288417275452]","[-1,-1,-1]","[-0.05595839586383025,-0.13668429078049177]","[1,1,1]","[-0.045361004893900506,-0.03505742622628291]","[-1,-1,-1]","[-0.13710965003444486,0.05682570935274685]","[-1,-1,-1]","[0.12604899650458706,0.05807999037331883]","[1,1,1]","[-0.025136957506747687,0.18705250425410258]","[1,1,1]","[-0.018611530414422716,-0.10304610559353529]","[1,1,1]","[0.02400277969592007,0.14576856657721246]","[1,1,1]","[-0.08162967981957941,0.06352091633159727]","[1,1,1]","[-0.04346713239604715,0.034394907925419084]","[-1,-1,-1]","[-0.09846319568200065,0.02719467955413421]","[1,1,1]","[-0.06875829305177865,0.18610061457779217]","[-1,-1,-1]","[-0.13469800402516097,-0.13288427947997913]","[-1,-1,-1]","[-0.18076053064155465,-0.037280153043373246]","[1,1,1]","[-0.05006159519002668,-0.18654631879746364]","[1,1,1]","[0.15630400025992078,-0.02784173161968704]","[-1,-1,-1]","[0.02,0.02]",168.3969,0,1,1,106,1,,,,,,,
,,,,,,,67d479b71ef9f4c14f6bb2da,682f0fbd802cd567ee126fab,2025-05-22_13h52.36.916,cuing_paradigm_dot,2024.1.5,Win32,60.24096386,682d573fa47f1360d1451895,,,,,,,,,,,168.3972,168.8957,,,169.1458,169.5279,left,,,,,,,,0.55,0.3668,,,,,,,168.8957,169.1458,169.528,"[0.023961772808737115,0.05795297899789898]","[1,1,1]","[-0.1078953121633192,0.0988872230134559]","[-1,-1,-1]","[0.07047307011903399,-0.1671635607432887]","[1,1,1]","[-0.08227439317527664,0.18107660895252722]","[-1,-1,-1]","[0.10526399073837493,-0.004294666570829216]","[-1,-1,-1]","[-0.027063409037364712,0.09914855089063729]","[-1,-1,-1]","[-0.07978956750086265,-0.16587684047206253]","[-1,-1,-1]","[-0.17070051797803806,0.024153141921929844]","[-1,-1,-1]","[0.1405587951067653,-0.06979438130731434]","[-1,-1,-1]","[0.09599413443167067,0.03805006997474589]","[1,1,1]","[0.0746703463424908,-0.08441272728052553]","[1,1,1]","[0.07242653151458234,-0.12568200919738334]","[1,1,1]","[0.10656971695516074,0.07734950749847502]","[1,1,1]","[-0.15400876324616172,-0.12367605640964605]","[1,1,1]","[-0.04974334386361853,-0.09444169326703367]","[-1,-1,-1]","[0.03517978027991919,0.13961210691520348]","[1,1,1]","[-0.19172689579336447,-0.021354939509606752]","[1,1,1]","[-0.13686459539927823,-0.0823872127476071]","[-1,-1,-1]","[0.03283912014367934,-0.02969317860418278]","[1,1,1]","[0.1585036565030985,0.065009677018793]","[1,1,1]","[-0.019145833740677073,-0.1719737066226668]","[1,1,1]","[-0.011112711108715019,-0.015208969978709614]","[-1,-1,-1]","[0.08717689075161637,0.17019801909724624]","[-1,-1,-1]","[0.02876552994129969,-0.08985484710742526]","[1,1,1]","[-0.0041610811130826575,0.18238279244663633]","[1,1,1]","[-0.01010001845940318,-0.11086730664843425]","[-1,-1,-1]","[-0.07366648765786375,0.0670794346155861]","[1,1,1]","[0.02702352276119178,-0.19599630689192032]","[-1,-1,-1]","[0.17850631953275495,-0.04758679252786903]","[1,1,1]","[-0.11009077754086354,-0.016625149996553217]","[1,1,1]","[-0.057605573165861186,0.021464731956217314]","[-1,-1,-1]","[-0.054585127118198414,0.13060012838960466]","[1,1,1]","[0.02,0.02]",170.627,0,2,2,136,1,,,,,,,
,,,,,,,67d479b71ef9f4c14f6bb2da,682f0fbd802cd567ee126fab,2025-05-22_13h52.36.916,cuing_paradigm_dot,2024.1.5,Win32,60.24096386,682d573fa47f1360d1451895,,,,,,,,,,,170.6275,171.1262,,,171.3689,171.6157,left,,,,,,,,0.55,0.2308,,,,,,,171.1263,171.3689,171.6157,"[0.039417606771529515,-0.10372344170470504]","[-1,-1,-1]","[-0.0390169334498738,0.07650489387934438]","[1,1,1]","[0.1379536529273827,0.010872114545234346]","[1,1,1]","[0.05701665201103395,0.09041972987462672]","[-1,-1,-1]","[-0.053236024222673435,-0.002136216395325666]","[-1,-1,-1]","[0.17736578140658457,0.058855592723619815]","[1,1,1]","[-0.02968338815306023,-0.10003877811267102]","[1,1,1]","[-0.18029896042016105,-0.047702764313398385]","[1,1,1]","[-0.024761016512216925,0.027168129177085918]","[1,1,1]","[0.13750784995725684,0.13150881650038626]","[-1,-1,-1]","[-0.03878166812982805,0.16231523281660787]","[-1,-1,-1]","[0.013184723816233498,-0.06014419133816217]","[-1,-1,-1]","[0.049736104344839105,-0.007420410268000685]","[-1,-1,-1]","[0.13079990784762457,-0.118029393289834]","[-1,-1,-1]","[0.06780623718884415,-0.1454159588489961]","[-1,-1,-1]","[-0.08288051748516811,0.13118067116580445]","[1,1,1]","[-0.08397896494994285,-0.09260619396240402]","[-1,-1,-1]","[0.0783396299452955,0.04113990851566676]","[1,1,1]","[-0.007846151189364286,-0.1628936553555275]","[1,1,1]","[-0.1847589757480766,0.07373524869990995]","[1,1,1]","[0.03668809994661277,0.14359494219006005]","[1,1,1]","[-0.13520136394038215,0.10006410348176338]","[-1,-1,-1]","[0.027679343772771346,0.053444219235191624]","[-1,-1,-1]","[-0.117019498726264,-0.05392561883021481]","[1,1,1]","[0.08970631809933773,0.12174466968563359]","[1,1,1]","[0.11926016208238154,-0.027635859398840144]","[-1,-1,-1]","[-0.06642629852669392,0.036101468553544985]","[1,1,1]","[-0.1394120686331295,-0.11168787777298012]","[1,1,1]","[0.07796822309122704,0.18123371332165816]","[1,1,1]","[-0.14475742451629026,0.052891600935495414]","[1,1,1]","[0.08823974434101299,-0.08139733039234637]","[1,1,1]","[-0.1836842968593553,0.021998593420507136]","[-1,-1,-1]","[0.02,0.02]",172.7077,0,3,3,134,1,,,,,,,
,,,,,,,67d479b71ef9f4c14f6bb2da,682f0fbd802cd567ee126fab,2025-05-22_13h52.36.916,cuing_paradigm_dot,2024.1.5,Win32,60.24096386,682d573fa47f1360d1451895,,,,,,,,,,,172.7085,173.2004,,,173.4505,173.8172,right,,,,,,,,0.4,0.3506,,,,,,,173.2006,173.4505,173.8172,"[0.1237572963106435,-0.060348299810196376]","[1,1,1]","[-0.10348334646802934,-0.0028895784578998347]","[1,1,1]","[0.029543978612112047,-0.11305806996958927]","[-1,-1,-1]","[-0.059403592495335146,-0.13558525501929017]","[-1,-1,-1]","[0.03395577193498179,0.029872176814973422]","[-1,-1,-1]","[0.0043804438630910625,-0.05634498798433043]","[-1,-1,-1]","[-0.10048067932248714,-0.06288235817981422]","[-1,-1,-1]","[0.1490502449420192,-0.13040789170136316]","[1,1,1]","[0.0823612203453012,-0.15252152347142808]","[-1,-1,-1]","[0.00646680805304889,0.08628748118988123]","[1,1,1]","[0.15525775334677605,-0.08630263715274647]","[-1,-1,-1]","[0.1638165217563528,-0.0040159759317321036]","[-1,-1,-1]","[-0.1696671053265936,-0.07569072725353289]","[1,1,1]","[-0.020055217816818117,-0.148531517660353]","[-1,-1,-1]","[0.10811685267291418,0.1162285875893042]","[1,1,1]","[-0.015671897761268556,-0.002446729384009041]","[1,1,1]","[0.019064827632727908,0.17420512701860127]","[-1,-1,-1]","[-0.05454480584005658,0.14443534673058978]","[-1,-1,-1]","[0.010963521034758693,-0.1846080272511712]","[-1,-1,-1]","[-0.16946739147580658,0.019446697040759797]","[1,1,1]","[-0.06075665325016127,-0.17887766041267736]","[1,1,1]","[0.13943642277741614,0.06811338516309386]","[-1,-1,-1]","[-0.0973375913045659,0.15885162140416378]","[-1,-1,-1]","[-0.044399167438321445,-0.05725311004512327]","[-1,-1,-1]","[-0.04322617576323451,0.09449733229816433]","[-1,-1,-1]","[-0.16001349751689087,0.06881270856762631]","[1,1,1]","[0.07845381400310882,-0.06191328006907125]","[1,1,1]","[-0.08152376282765926,0.0639635175221298]","[-1,-1,-1]","[0.09255754693651387,0.01078593711461598]","[-1,-1,-1]","[0.14791255174133605,0.10948896648428565]","[-1,-1,-1]","[0.06982033128764871,0.14562151878386856]","[1,1,1]","[0.18069240340594458,0.04698373093503463]","[1,1,1]","[0.02,0.02]",174.9148,0,4,4,53,1,,,,,,,
,,,,,,,67d479b71ef9f4c14f6bb2da,682f0fbd802cd567ee126fab,2025-05-22_13h52.36.916,cuing_paradigm_dot,2024.1.5,Win32,60.24096386,682d573fa47f1360d1451895,,,,,,,,,,,174.9157,175.4102,,,175.6315,175.9808,left,,,,,,,,0.9,0.337,,,,,,,175.4103,175.6314,175.9808,"[0.03873494297201419,0.02467942504077433]","[1,1,1]","[-0.05954935926552609,0.021672917534453415]","[1,1,1]","[-0.07335581493753433,0.14506906463877944]","[1,1,1]","[0.1855331819775268,-0.07252255966174946]","[1,1,1]","[0.1501852744269211,-0.09550853947295224]","[1,1,1]","[0.15286803461297127,-0.035234530331712026]","[1,1,1]","[-0.16136843010551283,-0.0070089991051360935]","[1,1,1]","[0.049867665494324066,0.1383335038134237]","[1,1,1]","[0.0741262542182891,-0.09312047658512468]","[1,1,1]","[-0.07525141062231015,-0.15013725451698712]","[-1,-1,-1]","[0.12527015634380406,0.12059215523746088]","[1,1,1]","[-0.09022830447332841,0.05533061885119851]","[1,1,1]","[-0.03377153547718286,-0.17047895317491935]","[1,1,1]","[-0.1161156083560836,-0.007224203971504072]","[1,1,1]","[0.030351164751725748,0.08020858122781717]","[1,1,1]","[-0.12196417749634822,-0.09779482986008595]","[1,1,1]","[-0.1718884704140467,0.07373182205613403]","[1,1,1]","[-0.012685912253365605,0.04510956566947415]","[1,1,1]","[0.18364786075009282,0.07195265646998639]","[1,1,1]","[-0.0019675356536573182,-0.19786116886762684]","[1,1,1]","[-0.0003942689764179295,0.11022091172050956]","[-1,-1,-1]","[0.06846011398081031,-0.019099422935912568]","[1,1,1]","[-0.03852363387551752,0.17649154776982937]","[1,1,1]","[-0.01914738748025773,-0.044898087750429146]","[1,1,1]","[0.01741514833869849,-0.06278141586902129]","[1,1,1]","[-0.12685936757818236,0.08912574742297051]","[1,1,1]","[0.12071846801895766,0.006912507384794119]","[1,1,1]","[0.07730815063908313,0.04445027884707671]","[-1,-1,-1]","[0.05627799859707298,-0.16999715160767678]","[1,1,1]","[-0.14074872693698096,0.13419853909209037]","[1,1,1]","[0.17846302751731832,-0.0018016190820276136]","[1,1,1]","[-0.18627504918653726,-0.05812434675707647]","[1,1,1]","[0.02,0.02]",177.0751,0,5,5,188,1,,,,,,,
,,,,,,,67d479b71ef9f4c14f6bb2da,682f0fbd802cd567ee126fab,2025-05-22_13h52.36.916,cuing_paradigm_dot,2024.1.5,Win32,60.24096386,682d573fa47f1360d1451895,,,,,,,,,,,177.0759,177.5742,,,177.8199,178.1343,left,,,,,,,,0.6,0.3007,,,,,,,177.5742,177.8199,178.1343,"[-0.10261285471491505,0.05097250882205909]","[-1,-1,-1]","[-0.10894078774537486,-0.05670353561021279]","[-1,-1,-1]","[0.15956962740135336,-0.07057699841662281]","[1,1,1]","[-0.0015360458293027775,0.06047644354909259]","[1,1,1]","[0.17252620742470925,0.06348953212186087]","[1,1,1]","[0.05893250759977424,0.09708566574144616]","[1,1,1]","[-0.015040605693171685,0.1961188410828731]","[1,1,1]","[0.019269737604373907,0.11570565563140912]","[1,1,1]","[0.07689794991070859,-0.031892468045407116]","[1,1,1]","[0.08272611587530151,0.059325445106028364]","[1,1,1]","[-0.0037410697381535843,-0.017133212935637566]","[-1,-1,-1]","[0.008573005241359356,0.1630149938872381]","[-1,-1,-1]","[-0.06688322693164295,-0.06036688472707065]","[-1,-1,-1]","[0.1203911676353966,0.0746427323868261]","[1,1,1]","[0.09106190281451683,0.17175974794273818]","[1,1,1]","[-0.14192252073245254,0.09074676364756405]","[-1,-1,-1]","[0.16343869632875455,0.011543602985534331]","[1,1,1]","[-0.1771527825222651,-0.07014388985057002]","[-1,-1,-1]","[-0.12764950085936502,0.017916360034718627]","[1,1,1]","[-0.05555485970359916,-0.17666413530393793]","[1,1,1]","[0.11093813312991971,-0.1370799189344429]","[1,1,1]","[0.012572437971247439,-0.11193516816949929]","[-1,-1,-1]","[-0.04646541086956397,0.14693796296419895]","[-1,-1,-1]","[-0.15158469617140402,-0.033648434499052145]","[1,1,1]","[0.04416193670763601,-0.1505191387178258]","[-1,-1,-1]","[-0.03129703206042177,-0.10846167086172379]","[1,1,1]","[-0.07882487054629436,-0.10969579831519781]","[1,1,1]","[0.06639039785754916,-0.08994565511423624]","[-1,-1,-1]","[-0.14403925092918973,-0.12409330040101255]","[1,1,1]","[-0.02867610129206037,0.09407697026826649]","[1,1,1]","[0.05824009287952155,0.13822477636171862]","[-1,-1,-1]","[0.00013886918161417583,-0.18551455323369598]","[-1,-1,-1]","[0.02,0.02]",179.2328,0,6,6,163,1,,,,,,,
,,,,,,,67d479b71ef9f4c14f6bb2da,682f0fbd802cd567ee126fab,2025-05-22_13h52.36.916,cuing_paradigm_dot,2024.1.5,Win32,60.24096386,682d573fa47f1360d1451895,,,,,,,,,,,179.2336,179.7323,,,179.9761,180.2918,left,,,,,,,,0.5,0.2995,,,,,,,179.7323,179.976,180.2919,"[0.050650975042177394,-0.1263681057522519]","[1,1,1]","[0.11154406374817188,-0.13469408997119928]","[1,1,1]","[-0.09018581594056278,-0.11698091820394095]","[1,1,1]","[-0.11505644566430194,-0.020600800618475575]","[-1,-1,-1]","[0.18155409372318485,-0.02206824819506443]","[1,1,1]","[-0.005263316859841957,-0.0750267743859001]","[-1,-1,-1]","[-0.13987107928455353,-0.07744074854737393]","[1,1,1]","[0.03740595826018512,0.16973939072293592]","[-1,-1,-1]","[-0.04975336131439168,-0.04503274508029641]","[1,1,1]","[0.16928938162204787,0.029652415761305735]","[-1,-1,-1]","[0.014390149702374726,0.04288519733465545]","[-1,-1,-1]","[0.0906876998959941,-0.17703486204726854]","[1,1,1]","[0.08613796367160753,0.11654365276978741]","[1,1,1]","[0.05202905624008114,-0.06484572597932836]","[-1,-1,-1]","[0.004107450367759904,-0.14424364073108725]","[-1,-1,-1]","[-0.18379840853864932,-0.02108703001344317]","[1,1,1]","[0.06249252075275457,-0.013229339707777423]","[-1,-1,-1]","[0.0711481393947876,0.07187234801371112]","[-1,-1,-1]","[0.14379587025384205,-0.04161278008108474]","[-1,-1,-1]","[0.14672787111445415,0.12176386699833508]","[1,1,1]","[0.033500110351688664,0.08775085320503216]","[-1,-1,-1]","[0.17250001908900084,0.09115153235019272]","[-1,-1,-1]","[-0.13462327399766838,-0.13930487675598552]","[1,1,1]","[-0.09991819338219204,0.14270883222388892]","[1,1,1]","[-0.06810925886018547,0.03414652602204622]","[1,1,1]","[-0.057036995393594594,-0.18349133186690528]","[-1,-1,-1]","[0.16085653898004604,-0.10078966237085492]","[-1,-1,-1]","[0.097266853444701,0.16994331120919393]","[1,1,1]","[-0.1641384534578336,0.03620575931774031]","[1,1,1]","[0.040497586593276326,-0.17008607430321337]","[-1,-1,-1]","[-0.011069548092456978,0.17988294552291526]","[-1,-1,-1]","[0.10361733052490057,0.021541802261037742]","[1,1,1]","[0.02,0.02]",181.3908,0,7,7,94,1,,,,,,,
,,,,,,,67d479b71ef9f4c14f6bb2da,682f0fbd802cd567ee126fab,2025-05-22_13h52.36.916,cuing_paradigm_dot,2024.1.5,Win32,60.24096386,682d573fa47f1360d1451895,,,,,,,,,,,181.3917,181.8798,,,182.1226,182.1895,right,,,,,,,,0.6,0.0508,,,,,,,181.8799,182.1226,182.1896,"[0.1049687565994604,-0.09000673533184796]","[-1,-1,-1]","[0.10046105281043226,0.16430619686180617]","[1,1,1]","[-0.07350250805733402,0.09878817602559828]","[-1,-1,-1]","[0.14182609195594997,0.057643493121622306]","[-1,-1,-1]","[-0.1938143390964368,-0.04374553332971635]","[1,1,1]","[-0.016858075232256728,0.018198487013967455]","[-1,-1,-1]","[-0.054229400458662105,0.15345214847574415]","[-1,-1,-1]","[-0.07149145366419553,-0.15172522653059856]","[-1,-1,-1]","[0.11553193759734194,-0.048316368831744595]","[1,1,1]","[-0.10461454975757734,-0.01098727576711227]","[1,1,1]","[-0.15424613056257946,0.06406316675016013]","[1,1,1]","[0.05337364941004524,-0.003574390518598553]","[1,1,1]","[0.16585436672126347,-0.0026490365311375576]","[-1,-1,-1]","[-0.13313026356741486,-0.06956674713950796]","[1,1,1]","[0.19339599113338146,-0.039773886347315136]","[1,1,1]","[-0.03192608271120808,-0.11368234444861514]","[1,1,1]","[-0.007841203116436178,0.08432492042586871]","[-1,-1,-1]","[0.16760916093115202,0.09669544384785624]","[1,1,1]","[0.11634845623135978,0.011265150107929655]","[-1,-1,-1]","[-0.07553730183148283,-0.05060326848585041]","[-1,-1,-1]","[0.0017607544645603648,0.14147717858601705]","[1,1,1]","[-0.014044126666808496,-0.18665683683228237]","[-1,-1,-1]","[0.17099207262206184,-0.07483093254623273]","[1,1,1]","[0.0381158561513685,-0.17259682168539228]","[1,1,1]","[-0.11622904815181588,0.08546666936753418]","[1,1,1]","[-0.09019530538217674,0.028069170248611285]","[1,1,1]","[0.07537672446857614,0.1090382813012657]","[1,1,1]","[-0.06056524193581921,-0.000655317596820998]","[-1,-1,-1]","[0.028338295562050055,-0.10704909114127449]","[1,1,1]","[-0.11033864457107907,-0.16321353533247845]","[1,1,1]","[0.005368142469672899,-0.04831846303491241]","[-1,-1,-1]","[0.023003316673761945,0.17714253061938762]","[1,1,1]","[0.02,0.02]",183.2777,0,8,8,156,1,,,,,,,
,,,,,,,67d479b71ef9f4c14f6bb2da,682f0fbd802cd567ee126fab,2025-05-22_13h52.36.916,cuing_paradigm_dot,2024.1.5,Win32,60.24096386,682d573fa47f1360d1451895,,,,,,,,,,,183.2785,183.7673,,,184.0219,184.3209,right,,,,,,,,0.1,0.2813,,,,,,,183.7673,184.0218,184.3209,"[0.11259640429247772,0.06981043270287043]","[-1,-1,-1]","[-0.15312074558666225,-0.005138416444526674]","[-1,-1,-1]","[0.051601105494384375,-0.16993808910753821]","[-1,-1,-1]","[-0.08102894939476607,0.11224544914003844]","[-1,-1,-1]","[-0.1735054036702921,-0.0737427599888436]","[-1,-1,-1]","[0.005158961794398533,0.08982763281133944]","[-1,-1,-1]","[-0.0974457202836436,0.16317492825665209]","[-1,-1,-1]","[0.06345175450240145,0.07571795177567431]","[-1,-1,-1]","[0.06020502914791482,-0.09456723471831745]","[-1,-1,-1]","[-0.055208979646350125,-0.0527679161120907]","[-1,-1,-1]","[0.087884541916704,0.03236835895279074]","[-1,-1,-1]","[-0.06639703918552894,0.05267679762080613]","[-1,-1,-1]","[0.006278753573818596,-0.08167396383258764]","[-1,-1,-1]","[0.06307029287889777,0.16824856088802706]","[-1,-1,-1]","[-0.12038777347420959,0.10017044400333822]","[-1,-1,-1]","[-0.1965365347022138,0.035987837938928235]","[-1,-1,-1]","[0.15544079156865742,0.09069635258415243]","[-1,-1,-1]","[0.10708734727341662,0.16431407513651095]","[-1,-1,-1]","[-0.10192248607802346,-0.02958618377120722]","[-1,-1,-1]","[-0.001863320162061935,-0.15447595535286657]","[1,1,1]","[0.15439365709795852,-0.05977319042955664]","[-1,-1,-1]","[-0.13231730355043542,-0.11867596503588414]","[1,1,1]","[-0.07512793585994598,-0.15240621196477352]","[1,1,1]","[0.0979363100383107,-0.07882658405617297]","[-1,-1,-1]","[-0.007093926272487555,-0.021265885159714653]","[-1,-1,-1]","[0.15763782573330717,-0.013029627217893637]","[-1,-1,-1]","[-0.1334663189342017,-0.07753945434685569]","[-1,-1,-1]","[-0.039752785687318756,0.09913105227119422]","[-1,-1,-1]","[-0.03453479588650669,-0.1840444336192587]","[-1,-1,-1]","[0.12515562745216738,-0.11357523672799301]","[-1,-1,-1]","[0.18101078912001783,0.05597351495245825]","[-1,-1,-1]","[0.05712496368964789,-0.05452439486898615]","[-1,-1,-1]","[0.02,0.02]",185.4185,0,9,9,28,1,,,,,,,
,,,,,,,67d479b71ef9f4c14f6bb2da,682f0fbd802cd567ee126fab,2025-05-22_13h52.36.916,cuing_paradigm_dot,2024.1.5,Win32,60.24096386,682d573fa47f1360d1451895,,,,,,,,,,,185.4193,185.9184,,,186.1689,186.1869,left,,,,,,,,0.1,0.0014,,,,,,,185.9185,186.1689,186.187,"[-0.13107585600252378,0.01419018887936344]","[-1,-1,-1]","[0.08445810683282932,0.16341188663761552]","[-1,-1,-1]","[0.0015363518847284678,-0.19852027698197486]","[-1,-1,-1]","[-0.09961211790714494,0.1300643958443894]","[-1,-1,-1]","[0.12835207569254117,-0.1520066585506387]","[-1,-1,-1]","[0.07319983086463241,-0.06106221777281233]","[-1,-1,-1]","[-0.053681157170022364,0.10859621382492088]","[1,1,1]","[-0.1030277999488859,-0.13474685206831544]","[-1,-1,-1]","[0.18701748971512164,-0.012980627795083785]","[-1,-1,-1]","[0.041693658878657926,0.18398715107336092]","[-1,-1,-1]","[-0.058951480785101915,-0.12761426854087207]","[-1,-1,-1]","[0.02522398599171121,0.033356769907703726]","[-1,-1,-1]","[-0.03171295732278871,-0.07255438781295777]","[-1,-1,-1]","[0.16073181491223898,0.04457637765171848]","[-1,-1,-1]","[0.15181551626269213,-0.05671878938029059]","[-1,-1,-1]","[0.1607933976817521,-0.11785409797321507]","[-1,-1,-1]","[-0.008450742340060206,-0.11400630348753077]","[-1,-1,-1]","[-0.1554200448266741,0.0967856569487694]","[-1,-1,-1]","[-0.08493183691055954,0.17527992651369587]","[1,1,1]","[-0.16657112463867949,-0.07699228290060278]","[-1,-1,-1]","[0.014087435560498306,-0.011675503374918218]","[1,1,1]","[-0.030731315913799066,0.06459562445915909]","[-1,-1,-1]","[-0.023190963052912194,-0.16443993872446983]","[-1,-1,-1]","[-0.09775000596274556,0.06879104157762105]","[-1,-1,-1]","[0.10228266213256053,0.11789637759067208]","[-1,-1,-1]","[0.09296909702797695,-0.1748390920338515]","[-1,-1,-1]","[0.0075587984784334225,0.089556298922514]","[-1,-1,-1]","[-0.1019668779584715,-0.08410074095576743]","[-1,-1,-1]","[-0.1923699124680926,0.017690317537203994]","[-1,-1,-1]","[0.0992061066726048,-0.10406785610860123]","[-1,-1,-1]","[-0.023134885207015905,0.1798106030449758]","[-1,-1,-1]","[-0.07178422520712835,0.032422670404997744]","[-1,-1,-1]","[0.02,0.02]",187.29,0,10,10,20,1,,,,,,,
,,,,,,,67d479b71ef9f4c14f6bb2da,682f0fbd802cd567ee126fab,2025-05-22_13h52.36.916,cuing_paradigm_dot,2024.1.5,Win32,60.24096386,682d573fa47f1360d1451895,,,,,,,,,,,187.2909,187.7895,,,188.0033,188.059,right,,,,,,,,0.55,0.0484,,,,,,,187.7896,188.0032,188.059,"[-0.13737742797700514,-0.10967220293154732]","[-1,-1,-1]","[0.06358256973178722,-0.1291903267493034]","[-1,-1,-1]","[0.026238146855758024,-0.10487541771078657]","[-1,-1,-1]","[0.17686750574992752,0.04265809024675247]","[-1,-1,-1]","[-0.06755497464572909,0.08484641268530513]","[1,1,1]","[0.08009136559433627,0.17492576436103804]","[1,1,1]","[-0.12790232606184565,-0.14914955333664265]","[1,1,1]","[-0.19892368121609919,-0.01205647013733928]","[-1,-1,-1]","[-0.08367961787082118,0.021657582751305617]","[-1,-1,-1]","[0.07547274552951096,0.09204630874781167]","[1,1,1]","[-0.028426713257012674,-0.17646012126536442]","[1,1,1]","[0.007129690734960026,0.1610445052686845]","[1,1,1]","[0.11866155151551516,0.0007858270911802526]","[1,1,1]","[-0.07686101127709258,0.16454820019964328]","[1,1,1]","[-0.03456742718161066,0.1953864028020272]","[-1,-1,-1]","[-0.1857813419859151,0.04020837461226448]","[-1,-1,-1]","[0.011039415113192761,0.0423725873216097]","[1,1,1]","[0.047352364710138255,0.01678125447292205]","[1,1,1]","[0.06329112742674084,0.1303071926579495]","[1,1,1]","[-0.14768127509143422,0.054810488536465134]","[-1,-1,-1]","[0.024393301797692675,-0.06400231457873458]","[1,1,1]","[0.14138743850839489,-0.10425216281425911]","[1,1,1]","[-0.04511498567476628,-0.06809213610679468]","[-1,-1,-1]","[-0.11081903968593983,-0.045899958579373755]","[-1,-1,-1]","[0.14326712886326853,-0.055552464380519806]","[1,1,1]","[0.15913458602485417,-0.0010345280911032752]","[1,1,1]","[0.11704642345788994,0.11185488734484174]","[-1,-1,-1]","[-0.021745117451116236,0.009748977999593136]","[1,1,1]","[0.08789424004723946,-0.07617874629075964]","[-1,-1,-1]","[-0.15349489008428535,0.12710748144787506]","[1,1,1]","[0.0016549503944581166,0.08920750942978976]","[-1,-1,-1]","[-0.15378245077803931,-0.014529141592835908]","[1,1,1]","[0.02,0.02]",189.1555,0,11,11,131,1,,,,,,,
,,,,,,,67d479b71ef9f4c14f6bb2da,682f0fbd802cd567ee126fab,2025-05-22_13h52.36.916,cuing_paradigm_dot,2024.1.5,Win32,60.24096386,682d573fa47f1360d1451895,,,,,,,,,,,189.1559,189.6543,,,189.9048,189.9375,left,,,,,,,,0.9,0.0196,,,,,,,189.6543,189.9047,189.9377,"[-0.039143268389810505,0.17975327262807142]","[1,1,1]","[0.027467754884344116,0.19483964970983242]","[1,1,1]","[0.1927943139078931,0.025782747570712233]","[1,1,1]","[-0.11517307286173781,0.020822632890808105]","[1,1,1]","[-0.10848705663903474,0.13795569327984222]","[1,1,1]","[0.1299086427935202,-0.017648700648110922]","[-1,-1,-1]","[0.17842183369224543,-0.06567679469898059]","[1,1,1]","[0.07501251973392337,0.18532766194846031]","[1,1,1]","[0.01588351922780825,-0.040250639456991776]","[1,1,1]","[-0.1509085547739271,0.1293386115618099]","[1,1,1]","[-0.1560187523412348,-0.07983517308691601]","[1,1,1]","[0.03876134323700243,0.12503790015075913]","[-1,-1,-1]","[-0.08639970161086208,-0.16389072335749472]","[1,1,1]","[0.06666158015253092,-0.1350531165768974]","[-1,-1,-1]","[0.13822730453268314,0.023854369288185278]","[1,1,1]","[-0.028733399219868415,0.12855403840502994]","[1,1,1]","[-0.06085047085606499,-0.026799749209150944]","[1,1,1]","[-0.024697240786367695,-0.13257600096507868]","[1,1,1]","[0.13545739839887175,0.12203688570488198]","[1,1,1]","[0.03803328403896119,-0.19004382668960887]","[1,1,1]","[0.08330188623958205,-0.00628629123939076]","[1,1,1]","[-0.03418299477326518,0.08564777565643213]","[1,1,1]","[0.10858632642198852,0.15673139397716174]","[1,1,1]","[-0.17931399415896643,-0.011933765373619972]","[1,1,1]","[-0.12205715702499752,-0.042517515074217735]","[1,1,1]","[-0.026005693218377854,0.022695395569254862]","[1,1,1]","[-0.12051255167246047,0.08080198588588093]","[1,1,1]","[0.11731928339646211,-0.07402977319460248]","[1,1,1]","[-0.11501165785078864,-0.12150246029926429]","[1,1,1]","[0.08982131876121038,0.11568459778943596]","[1,1,1]","[0.1793094709903167,-0.015397505299764863]","[1,1,1]","[-0.15651266748654577,0.03614043680650461]","[1,1,1]","[0.02,0.02]",191.0362,0,12,12,200,1,,,,,,,
,,,,,,,67d479b71ef9f4c14f6bb2da,682f0fbd802cd567ee126fab,2025-05-22_13h52.36.916,cuing_paradigm_dot,2024.1.5,Win32,60.24096386,682d573fa47f1360d1451895,,,,,,,,,,,191.0366,191.5357,,,191.7857,191.8521,right,,,,,,,,0.4,0.0506,,,,,,,191.5357,191.7856,191.8522,"[0.05618697331794665,0.08634422205783562]","[-1,-1,-1]","[-0.18062323351900497,-0.014847962814786581]","[-1,-1,-1]","[0.08937896256470927,-0.17871103164562158]","[1,1,1]","[0.024370257668887993,-0.10876408771370237]","[1,1,1]","[-0.031668312081544664,0.10923955405729266]","[1,1,1]","[0.0012897765866412756,-0.16461815374659036]","[1,1,1]","[-0.14390228490936385,0.026604947951061334]","[-1,-1,-1]","[-0.03338449373263584,0.009079208644945403]","[1,1,1]","[0.03964044166211532,-0.05680721133734135]","[-1,-1,-1]","[0.013584378313006325,0.08732400592639852]","[-1,-1,-1]","[-0.17883083633494784,0.07196210969958536]","[1,1,1]","[-0.12590884848060532,-0.028102009563052005]","[1,1,1]","[0.11881808043267404,0.07722190763180076]","[1,1,1]","[0.021457421859082712,-0.014493369457172316]","[-1,-1,-1]","[-0.07764836718087906,0.015692129271150986]","[-1,-1,-1]","[0.10159451384201534,-0.04711173270636819]","[-1,-1,-1]","[0.18981845226790567,0.06280676843949333]","[1,1,1]","[0.16940697008382194,-0.032423358773790975]","[-1,-1,-1]","[-0.11014110375858197,0.15315709817732767]","[-1,-1,-1]","[0.10237062636803436,0.000672412489631704]","[1,1,1]","[0.0024567505121456173,0.17577545999014038]","[-1,-1,-1]","[-0.039176276687680214,-0.0768619379337239]","[-1,-1,-1]","[0.11103141009761272,-0.11410850937268692]","[1,1,1]","[-0.06788888940537789,0.06139105775482303]","[-1,-1,-1]","[0.14342973827642316,0.04014586090975459]","[-1,-1,-1]","[0.12678034143877684,0.15135727538590693]","[-1,-1,-1]","[-0.11539577042534252,-0.0881535766866001]","[-1,-1,-1]","[-0.07443035110978664,-0.15851064788989352]","[1,1,1]","[-0.11621564350293183,-0.14038544602521447]","[-1,-1,-1]","[-0.08062710756428083,0.11703137695939296]","[1,1,1]","[-0.01768684437538113,-0.11818788060465181]","[-1,-1,-1]","[0.00692040946745224,0.03728900687402481]","[-1,-1,-1]","[0.02,0.02]",192.9506,0,13,13,57,1,,,,,,,
,,,,,,,67d479b71ef9f4c14f6bb2da,682f0fbd802cd567ee126fab,2025-05-22_13h52.36.916,cuing_paradigm_dot,2024.1.5,Win32,60.24096386,682d573fa47f1360d1451895,,,,,,,,,,,192.951,193.4502,,,193.7003,193.7166,left,,,,,,,,0.6,0.0007,,,,,,,193.4503,193.7002,193.7166,"[0.06576838815736066,-0.06158174618315877]","[1,1,1]","[0.05857653288791101,0.07683703892277126]","[-1,-1,-1]","[-0.11072285184658287,-0.11825245999401235]","[1,1,1]","[0.19182907959536608,-0.04899122320413175]","[-1,-1,-1]","[0.003084106748179707,-0.038843335057201174]","[1,1,1]","[-0.04231974168192632,-0.0206014326367289]","[1,1,1]","[-0.0203691909438773,0.02476784122648728]","[1,1,1]","[0.029147024773855296,-0.1544485798480869]","[1,1,1]","[0.02537605996760925,-0.09918289548740021]","[1,1,1]","[0.06257522535599894,0.13539384637144952]","[-1,-1,-1]","[0.06097879283202485,0.001580637742838929]","[1,1,1]","[-0.04951335079052661,-0.15784502104212306]","[1,1,1]","[-0.013473285349532465,0.1503460127594906]","[-1,-1,-1]","[-0.07937240815332595,-0.05860675026136244]","[1,1,1]","[0.04715454292912166,0.1922247990075586]","[1,1,1]","[0.1098424876052385,-0.0175465030069767]","[1,1,1]","[-0.02136306403851823,-0.19657381264689966]","[-1,-1,-1]","[0.09285797215308497,-0.17377433462325592]","[1,1,1]","[-0.05436676062250902,0.16544780724472608]","[1,1,1]","[-0.19213571366785295,0.01834239858743854]","[1,1,1]","[-0.10461300203625568,0.0006507387064872613]","[1,1,1]","[-0.04188596265350568,0.1092424310567953]","[1,1,1]","[0.1490972318791464,-0.0005815834599466427]","[-1,-1,-1]","[-0.14701407770853397,0.02423520625672602]","[-1,-1,-1]","[0.005621640630143693,0.10294387067292372]","[-1,-1,-1]","[0.1478466052020173,0.08415333833645229]","[1,1,1]","[-0.11129687943984179,0.06104108802998604]","[-1,-1,-1]","[-0.12671879665417538,0.15441865207175476]","[-1,-1,-1]","[0.1118165013434559,0.15307567807335173]","[-1,-1,-1]","[-0.15069378991779064,-0.1075218689732695]","[-1,-1,-1]","[-0.16451862122133049,-0.057038008838765974]","[-1,-1,-1]","[0.15003123275225794,0.0427982534425885]","[1,1,1]","[0.02,0.02]",194.8152,0,14,14,159,1,,,,,,,
,,,,,,,67d479b71ef9f4c14f6bb2da,682f0fbd802cd567ee126fab,2025-05-22_13h52.36.916,cuing_paradigm_dot,2024.1.5,Win32,60.24096386,682d573fa47f1360d1451895,,,,,,,,,,,194.8156,195.3146,,,195.5643,195.6477,right,,,,,,,,0.4,0.0672,,,,,,,195.3146,195.5643,195.6478,"[-0.17269129585463933,-0.0076621287233605865]","[-1,-1,-1]","[0.1400687527623993,0.11691025208782155]","[1,1,1]","[-0.01947132645094195,0.00874253537623286]","[1,1,1]","[-0.05615871584802152,-0.12744024593870706]","[1,1,1]","[-0.11251118401451353,-0.038293441520896664]","[-1,-1,-1]","[-0.06033800330599708,0.023648027030032187]","[1,1,1]","[-0.012929538230249307,0.10989898360799255]","[-1,-1,-1]","[0.09458500794343942,-0.0012238880751503651]","[-1,-1,-1]","[0.04064550866339331,-0.11352569647880986]","[-1,-1,-1]","[0.10710303211236612,-0.0984179654818677]","[1,1,1]","[-0.07094808345907425,-0.05186119290112918]","[1,1,1]","[-0.1677964278741884,-0.08261120388512302]","[1,1,1]","[-0.08817454511800682,0.08892104196808925]","[-1,-1,-1]","[0.020540868900593628,0.148167223789386]","[-1,-1,-1]","[0.050961561238010725,0.012719017271041135]","[1,1,1]","[-0.023146319219831714,-0.10364799495270585]","[-1,-1,-1]","[-0.009468412979601862,-0.045847917602022906]","[1,1,1]","[-0.11118574698139143,-0.10321821486856726]","[-1,-1,-1]","[-0.07575454476602031,-0.1816556095645796]","[-1,-1,-1]","[-0.016815547691103667,-0.16571815607920498]","[-1,-1,-1]","[0.11840729910529668,-0.037983436121701054]","[1,1,1]","[0.05279916427024987,0.09588585701445877]","[-1,-1,-1]","[0.1851234348278936,-0.036338268428793334]","[-1,-1,-1]","[-0.172353616594385,0.08265029677967003]","[-1,-1,-1]","[-0.04514277889462453,0.0669956966656834]","[-1,-1,-1]","[0.18032010442881616,0.05724312242031296]","[-1,-1,-1]","[0.042749249677767845,-0.06818549698058546]","[1,1,1]","[0.1067798677577124,0.0778760095491326]","[-1,-1,-1]","[0.02400174340080987,-0.16394918514314305]","[1,1,1]","[-0.1175330505241686,-0.14371525977609415]","[-1,-1,-1]","[0.17976063092224254,0.009432432000143058]","[-1,-1,-1]","[-0.06589876495177245,0.14683033641268192]","[1,1,1]","[0.02,0.02]",196.7463,0,15,15,33,1,,,,,,,
,,,,,,,67d479b71ef9f4c14f6bb2da,682f0fbd802cd567ee126fab,2025-05-22_13h52.36.916,cuing_paradigm_dot,2024.1.5,Win32,60.24096386,682d573fa47f1360d1451895,,,,,,,,,,,196.7466,197.2458,,,197.4956,197.6952,left,,,,,,,,0.9,0.1839,,,,,,,197.2459,197.4956,197.6953,"[0.02551167595764544,-0.14155076851776932]","[1,1,1]","[-0.06663790439205954,-0.1637391464766512]","[1,1,1]","[-0.18970229057437282,0.009586816462309213]","[1,1,1]","[-0.09418913093394041,-0.08714637621970776]","[1,1,1]","[0.07537800611446833,0.16007213638898374]","[1,1,1]","[-0.07564492807151556,0.11388506028489728]","[1,1,1]","[0.12204303371814756,0.10197821470400767]","[1,1,1]","[-0.1402111271739691,-0.039291935302233724]","[1,1,1]","[0.10060097548526906,0.030168891371440836]","[1,1,1]","[0.08927043186739048,-0.06730111883144849]","[1,1,1]","[-0.13402921910178978,0.026512362619744833]","[1,1,1]","[-0.03538999777895222,0.16121555816747477]","[1,1,1]","[0.02582940908933798,0.1358797913111826]","[-1,-1,-1]","[-0.06447179883286727,0.052903895027819996]","[1,1,1]","[-0.012812719580732896,-0.17912294638370638]","[1,1,1]","[0.064403222054167,0.09000873446857084]","[1,1,1]","[-0.15125797524298376,-0.08566540257223725]","[1,1,1]","[0.1934750952314264,0.046369834696943016]","[1,1,1]","[0.06575799902692621,-0.15460998022800088]","[1,1,1]","[0.170307504801969,-0.09065868088016281]","[1,1,1]","[-0.03915905289730886,-0.10790069932442413]","[1,1,1]","[0.12872347473869267,-0.047837298313481255]","[1,1,1]","[-0.02829575091481724,0.11708995495735584]","[1,1,1]","[-0.14644920073734904,0.0986561039410092]","[1,1,1]","[0.010542541489740759,0.0382644199784678]","[1,1,1]","[-0.053995123560686295,-0.021605816727689478]","[1,1,1]","[0.14288490673138374,-0.13866471164154293]","[1,1,1]","[0.05626670796790094,-0.11495371907666252]","[1,1,1]","[0.039066420053044115,-0.03896658337013041]","[1,1,1]","[-0.0811173648258455,0.1640548396172676]","[-1,-1,-1]","[0.09731806140200917,-0.023000072934481166]","[1,1,1]","[0.002687714095541964,0.08188090606074631]","[-1,-1,-1]","[0.02,0.02]",198.7937,0,16,16,184,1,,,,,,,
,,,,,,,67d479b71ef9f4c14f6bb2da,682f0fbd802cd567ee126fab,2025-05-22_13h52.36.916,cuing_paradigm_dot,2024.1.5,Win32,60.24096386,682d573fa47f1360d1451895,,,,,,,,,,,198.7943,199.2935,,,199.5447,201.0412,,,,,,,,,0.5,,,,,,,,199.2936,199.5447,201.0412,"[-0.04756931366512517,0.09942393477164592]","[1,1,1]","[-0.003257133359017014,0.1934059051904608]","[-1,-1,-1]","[0.11355530708500947,0.07038095073306957]","[-1,-1,-1]","[-0.05791351021200493,-0.14183312136568485]","[-1,-1,-1]","[0.0938652638363215,0.02453446461553406]","[-1,-1,-1]","[-0.09724040766392358,0.09810541079212746]","[1,1,1]","[0.09560850669092553,-0.04134029995054023]","[1,1,1]","[0.10247569072311088,-0.1130030559790198]","[1,1,1]","[0.03718987011095933,-0.05175486777479866]","[-1,-1,-1]","[-0.042762473973170755,-0.04021706184054677]","[1,1,1]","[-0.08326764194907349,-0.07271150180652933]","[-1,-1,-1]","[-0.1662476222983209,0.018077179438677343]","[-1,-1,-1]","[-0.07188648219156556,0.04791244556534916]","[-1,-1,-1]","[0.1790318653811832,-0.052087791069362205]","[-1,-1,-1]","[-0.12043646189415966,0.02493979507868124]","[-1,-1,-1]","[-0.00680331729522619,-0.10684029952857711]","[1,1,1]","[0.021011504911645943,0.11861799619462417]","[1,1,1]","[0.1426015450739191,0.03566928840737821]","[1,1,1]","[0.17030503325217627,0.002263445199278087]","[-1,-1,-1]","[0.05263759535852439,0.1678093180756705]","[1,1,1]","[-0.15715595767526194,-0.109477474306365]","[1,1,1]","[0.135324252414885,-0.03242253018556918]","[1,1,1]","[-0.0652442678391728,-0.002359045013475658]","[-1,-1,-1]","[0.17571318655557436,0.08021100193628375]","[1,1,1]","[-0.18879313683573296,-0.0656186444554107]","[-1,-1,-1]","[0.02831690066576938,0.07389759175973086]","[-1,-1,-1]","[0.1445670117920076,-0.08147172705618208]","[1,1,1]","[0.1551979421544087,0.11988621825028443]","[-1,-1,-1]","[-0.14366303397039787,-0.04407453619715974]","[1,1,1]","[-0.06919800236718415,0.17388069169894585]","[1,1,1]","[-0.1019154425404157,-0.15131643816382706]","[-1,-1,-1]","[-0.0008111689294981426,-0.14669161687601925]","[1,1,1]","[0.02,0.02]",202.1399,0,17,17,99,1,,,,,,,
,,,,,,,67d479b71ef9f4c14f6bb2da,682f0fbd802cd567ee126fab,2025-05-22_13h52.36.916,cuing_paradigm_dot,2024.1.5,Win32,60.24096386,682d573fa47f1360d1451895,,,,,,,,,,,202.1402,202.6392,,,202.8891,202.9719,left,,,,,,,,0.6,0.0681,,,,,,,202.6393,202.8891,202.9719,"[-0.011866720437699237,0.07556056061621559]","[1,1,1]","[0.10227118017858762,-0.08591216945161918]","[1,1,1]","[-0.1264277976019335,-0.0032298445123430997]","[1,1,1]","[-0.1426571422536163,-0.1380763275934191]","[-1,-1,-1]","[-0.02255832843446057,0.036939232803784396]","[1,1,1]","[-0.16919652132114882,0.003693437153899562]","[1,1,1]","[0.05483047921687237,0.011338427485230979]","[1,1,1]","[-0.08827246928994104,0.05054380726823286]","[-1,-1,-1]","[0.052077947067985034,-0.1705946548989502]","[1,1,1]","[0.14628563460957736,0.001487274125092177]","[-1,-1,-1]","[-0.022803802931419218,0.19657604863404865]","[1,1,1]","[-0.057399525707725274,0.1280596108802017]","[-1,-1,-1]","[-0.017236683681671586,-0.10240076210369162]","[-1,-1,-1]","[0.031303544024830175,0.08920598718447187]","[1,1,1]","[-0.10463699360166534,-0.09086940566315736]","[-1,-1,-1]","[0.01937946233676872,-0.013339197540278326]","[-1,-1,-1]","[-0.009389381145178856,-0.1739994678539775]","[1,1,1]","[0.1432938718352454,-0.12950445517503192]","[1,1,1]","[-0.07907018207792142,-0.17908780685645478]","[1,1,1]","[0.06382278764045195,-0.040110189904208164]","[1,1,1]","[-0.06534909982506124,0.013123786211067722]","[1,1,1]","[-0.055246684300242446,0.07573699509419342]","[1,1,1]","[-0.08334122608170291,-0.03954111455875863]","[1,1,1]","[0.01328840588268582,0.17769750591878114]","[-1,-1,-1]","[0.08059412864022614,0.04304308223900387]","[-1,-1,-1]","[0.06486477521457791,0.1676273866863342]","[-1,-1,-1]","[0.18076026084149982,0.043449006577744094]","[-1,-1,-1]","[0.024401503236778487,-0.09819398232547542]","[-1,-1,-1]","[-0.1512116947803303,0.09624769916447586]","[-1,-1,-1]","[0.17945543766671476,-0.07347177580264824]","[1,1,1]","[0.08882947846781036,-0.14976707514231094]","[1,1,1]","[-0.19191328982243536,-0.04974301238221024]","[1,1,1]","[0.02,0.02]",204.0709,0,18,18,168,1,,,,,,,
,,,,,,,67d479b71ef9f4c14f6bb2da,682f0fbd802cd567ee126fab,2025-05-22_13h52.36.916,cuing_paradigm_dot,2024.1.5,Win32,60.24096386,682d573fa47f1360d1451895,,,,,,,,,,,204.0713,204.5703,,,204.8203,204.9034,right,,,,,,,,0.4,0.0671,,,,,,,204.5703,204.8203,204.9035,"[0.03559453632437556,0.0392711498229635]","[1,1,1]","[0.08484559882372977,-0.06665480130582366]","[-1,-1,-1]","[0.10435608665089385,0.007129737976379109]","[-1,-1,-1]","[-0.1458421427008847,-0.051225246538803434]","[-1,-1,-1]","[-0.01976918337504062,0.06555215419807388]","[-1,-1,-1]","[0.03661769534243063,0.08439050000466548]","[1,1,1]","[0.1626392118618213,0.0683625654932298]","[-1,-1,-1]","[0.008022519487788097,-0.063060814206389]","[1,1,1]","[0.08324521326511895,0.1614428524295513]","[1,1,1]","[-0.10147239820207633,0.1502114501462724]","[-1,-1,-1]","[0.13476031710204922,-0.04358287286958737]","[1,1,1]","[-0.03428572762767514,0.18628265708238667]","[-1,-1,-1]","[0.017099334790749036,0.1576674893437596]","[-1,-1,-1]","[-0.03953999385928015,-0.1249209681650293]","[1,1,1]","[-0.10126783139983432,-0.11466021755161528]","[-1,-1,-1]","[0.13930044867478716,-0.12364018269247484]","[-1,-1,-1]","[-0.1443634132541047,0.07455245251705678]","[1,1,1]","[0.1119511939546055,0.06557566073683908]","[-1,-1,-1]","[-0.08232130504523974,0.09824836839199155]","[1,1,1]","[0.027838550851453113,-0.16253882379547144]","[1,1,1]","[0.0778536157168742,-0.15659569166071366]","[-1,-1,-1]","[-0.16211157592069247,-0.11526590772741183]","[-1,-1,-1]","[0.025890314731209518,-0.11730290867499274]","[-1,-1,-1]","[-0.1520531402906837,0.003958931845501854]","[-1,-1,-1]","[-0.19826614983677848,0.017912207621358575]","[1,1,1]","[0.09168656637515363,-0.11804970938560298]","[-1,-1,-1]","[-0.02496054493818795,0.13721491601516234]","[-1,-1,-1]","[0.1554728816477427,0.11437974914559242]","[-1,-1,-1]","[-0.03471511783061873,-0.18429677612539655]","[-1,-1,-1]","[0.19478927058254655,-0.029837793924436733]","[1,1,1]","[-0.0976877000005151,0.03496234470071134]","[1,1,1]","[0.02941972731330516,-0.024928677476319317]","[1,1,1]","[0.02,0.02]",206.0016,0,19,19,48,1,,,,,,,
,,,,,,,67d479b71ef9f4c14f6bb2da,682f0fbd802cd567ee126fab,2025-05-22_13h52.36.916,cuing_paradigm_dot,2024.1.5,Win32,60.24096386,682d573fa47f1360d1451895,,,,,,,,,,,206.0021,206.5014,,,206.7512,206.7842,left,,,,,,,,0.6,0.0176,,,,,,,206.5015,206.7512,206.7843,"[0.05522660440770779,0.04782604927229568]","[1,1,1]","[0.024687670923053108,0.09534040085890058]","[1,1,1]","[-0.12004400464432041,0.043727175476311775]","[1,1,1]","[-0.06513977222660823,-0.1880343195157819]","[-1,-1,-1]","[0.013303539634244766,-0.04185313738596432]","[1,1,1]","[0.05757923426745668,-0.14443259083960122]","[1,1,1]","[-0.12413788120158877,-0.13714076786994547]","[-1,-1,-1]","[0.06258145223556912,-0.07236660592811107]","[-1,-1,-1]","[0.1250573253433308,0.011192898582928271]","[1,1,1]","[0.0808497783591762,0.1719734319387705]","[-1,-1,-1]","[0.019713881544525285,-0.19151775029179077]","[1,1,1]","[-0.19050750036465022,-0.0032362520889487856]","[1,1,1]","[-0.06297801133791328,-0.0829855921194351]","[1,1,1]","[0.05049261179613798,0.13105615945262195]","[-1,-1,-1]","[0.11614312905261741,-0.09133168824447083]","[-1,-1,-1]","[-0.020482837515294207,-0.17554424959182705]","[-1,-1,-1]","[-0.17068067415082777,0.07574779820822125]","[1,1,1]","[-0.1361617656387609,0.09837326306949332]","[-1,-1,-1]","[0.16663290556908797,-0.0012881738851354624]","[-1,-1,-1]","[-0.08155909924458776,-0.1301754306471688]","[-1,-1,-1]","[0.1434734305141861,0.05541989422762397]","[1,1,1]","[-0.0036075699644962595,0.1258452125678258]","[-1,-1,-1]","[-0.16409117880520535,-0.08202506486481477]","[-1,-1,-1]","[-0.09493476982905759,-0.010636527666752413]","[1,1,1]","[0.031338292790960634,0.18977880153411553]","[1,1,1]","[0.09423129848046093,-0.17514357473226655]","[1,1,1]","[-0.045787505731705654,0.019950856518259272]","[1,1,1]","[0.008984323598738476,-0.10744961382556284]","[1,1,1]","[0.0005109515235324876,0.03179837684612956]","[-1,-1,-1]","[0.09620286684561305,-0.03001489387227356]","[1,1,1]","[-0.08983081575574108,0.10286822772529967]","[1,1,1]","[0.033082504700881005,-0.0022608346835153513]","[1,1,1]","[0.02,0.02]",207.8835,0,20,20,158,1,,,,,,,
,,,,,,,67d479b71ef9f4c14f6bb2da,682f0fbd802cd567ee126fab,2025-05-22_13h52.36.916,cuing_paradigm_dot,2024.1.5,Win32,60.24096386,682d573fa47f1360d1451895,,,,,,,,,,,207.8841,208.3825,,,208.6325,208.6652,right,,,,,,,,0.55,0.0208,,,,,,,208.3825,208.6325,208.6653,"[0.07592120139287861,0.14768766561469987]","[-1,-1,-1]","[-0.0479044330648699,0.11592821625564871]","[-1,-1,-1]","[-0.04997305528774852,-0.12644170367068627]","[1,1,1]","[-0.06904068879446726,-0.17730182913450868]","[-1,-1,-1]","[0.05246665862688824,0.08421253061147475]","[-1,-1,-1]","[-0.08600324025348412,-0.05197192953523092]","[-1,-1,-1]","[-0.10203556043795782,0.13732036439637843]","[1,1,1]","[0.12456573647232447,-0.13379206649608724]","[1,1,1]","[-0.003951123548686784,0.0025146594940106404]","[1,1,1]","[0.019583197136296512,-0.09018760232389414]","[-1,-1,-1]","[0.16968203355343567,-0.07173766190753672]","[1,1,1]","[0.1331114653342528,0.06445008990739602]","[1,1,1]","[-0.1172904469559322,-0.1529888571217186]","[-1,-1,-1]","[0.015089823810776086,-0.033162128635469884]","[-1,-1,-1]","[-0.09920509264249387,0.05534012021382648]","[1,1,1]","[0.07476163702149159,0.01378881517503884]","[1,1,1]","[-0.0026598403563347288,0.11909694765820406]","[1,1,1]","[0.11878627314148504,-0.01590003180710248]","[1,1,1]","[0.10995131856778982,-0.08657393077169005]","[1,1,1]","[0.05178144108936555,0.19021051482680765]","[1,1,1]","[0.1828915900339639,0.04650430641970386]","[-1,-1,-1]","[-0.04878683046732357,0.019311995923655387]","[-1,-1,-1]","[-0.16622646946188382,0.10772666330324035]","[-1,-1,-1]","[0.09543263182609055,0.050748959792871064]","[1,1,1]","[0.05519493830704809,-0.16388094321925645]","[1,1,1]","[-0.02235529907815221,-0.05524850299483112]","[1,1,1]","[0.009369255549195562,0.06550521532115235]","[-1,-1,-1]","[-0.1637419815255049,-0.05762259713049329]","[1,1,1]","[-0.16786492103203798,-0.10660978705494252]","[1,1,1]","[-0.009222560802911391,-0.19697871280329213]","[1,1,1]","[-0.125520263168996,-0.04488708097104808]","[-1,-1,-1]","[0.17797325021515736,-0.008039276739020483]","[-1,-1,-1]","[0.02,0.02]",209.7639,0,21,21,129,1,,,,,,,
,,,,,,,67d479b71ef9f4c14f6bb2da,682f0fbd802cd567ee126fab,2025-05-22_13h52.36.916,cuing_paradigm_dot,2024.1.5,Win32,60.24096386,682d573fa47f1360d1451895,,,,,,,,,,,209.7644,210.2632,,,210.5141,210.6797,right,,,,,,,,0.4,0.1548,,,,,,,210.2633,210.514,210.6798,"[0.06890462955905487,-0.07568641386691219]","[-1,-1,-1]","[-0.13173352954101186,-0.03477395443553672]","[1,1,1]","[-0.04091200814371023,-0.007745764796997411]","[-1,-1,-1]","[-0.08612994319308055,-0.07976894294211319]","[-1,-1,-1]","[-0.046243870561977554,0.09359485766379629]","[-1,-1,-1]","[-0.06020184570451236,-0.117486977635354]","[-1,-1,-1]","[0.12814646870760216,-0.05840927919948216]","[1,1,1]","[-0.16220210585276215,-0.07539531819224186]","[-1,-1,-1]","[0.15632390460027212,-0.12184072337954627]","[-1,-1,-1]","[0.06888925266151753,-0.13823137607091807]","[1,1,1]","[0.04715610031795343,0.10867226332371048]","[-1,-1,-1]","[-0.03528098056953916,-0.1668325818821528]","[-1,-1,-1]","[0.01761698176000444,0.06231719951877033]","[-1,-1,-1]","[0.010494435301522042,0.18135172354086268]","[1,1,1]","[-0.13532640136877638,0.018834860455897304]","[1,1,1]","[-0.05223081116273102,0.043668120586200045]","[1,1,1]","[-0.1838219814818665,0.020494648033164344]","[-1,-1,-1]","[-0.01694993174959391,-0.1282252306646946]","[-1,-1,-1]","[-0.04624004369605047,-0.07566311745358703]","[1,1,1]","[0.10070648725742144,0.13360531873485879]","[-1,-1,-1]","[-0.09881329162424576,0.07008993278948325]","[1,1,1]","[-0.09521551783737392,0.12816110750940196]","[-1,-1,-1]","[0.19717806225500617,0.011548087033425206]","[-1,-1,-1]","[0.09454504210094931,0.048552303728010136]","[-1,-1,-1]","[0.15129268733739776,-0.005749270819747705]","[1,1,1]","[0.027627894750015567,-0.037744339885253754]","[-1,-1,-1]","[-0.04904214918344433,0.16768785646351952]","[-1,-1,-1]","[0.022859289039292307,-0.07925685241994632]","[1,1,1]","[0.022142451894024705,0.004603096224945394]","[1,1,1]","[0.1340492088170597,0.06306180056708957]","[1,1,1]","[-0.13295292549215518,0.14480541385135076]","[1,1,1]","[0.05215779396060473,-0.18693396875461232]","[-1,-1,-1]","[0.02,0.02]",211.7797,0,22,22,31,1,,,,,,,
,,,,,,,67d479b71ef9f4c14f6bb2da,682f0fbd802cd567ee126fab,2025-05-22_13h52.36.916,cuing_paradigm_dot,2024.1.5,Win32,60.24096386,682d573fa47f1360d1451895,,,,,,,,,,,211.7804,212.2779,,,212.529,212.711,right,,,,,,,,0.4,0.167,,,,,,,212.2779,212.529,212.711,"[0.06944378910597183,0.040488502797491735]","[-1,-1,-1]","[0.062044497952326326,0.12901887448231933]","[-1,-1,-1]","[-0.14588895557148615,-0.10497875625810732]","[-1,-1,-1]","[-0.002841399430929923,-0.16495899427558178]","[-1,-1,-1]","[-0.040475563149210886,0.10428114367406835]","[-1,-1,-1]","[-0.014557189741020143,0.05435703919833362]","[1,1,1]","[-0.04081810037508456,0.15922818711073117]","[-1,-1,-1]","[-0.10379330067807656,-0.04372375449368421]","[1,1,1]","[-0.17077632489758648,0.0062444236354406235]","[-1,-1,-1]","[0.08842771038994422,-0.0755455797052643]","[1,1,1]","[0.019810564244961245,-0.08921551859767364]","[1,1,1]","[0.07950858075471884,-0.13272934388777055]","[1,1,1]","[-0.03272046362192552,-0.08055501107141864]","[1,1,1]","[-0.08597506743927875,0.03917034161351905]","[-1,-1,-1]","[0.12121247738069169,0.02681672045755864]","[1,1,1]","[-0.11622820561906058,0.09252689154350992]","[-1,-1,-1]","[0.021601512973457252,0.18321462552122733]","[-1,-1,-1]","[-0.18426843175855506,-0.042816772007001645]","[-1,-1,-1]","[0.1432104212971913,-0.10433546560548017]","[1,1,1]","[0.03662241184969284,0.07344070439183514]","[1,1,1]","[0.06158144279558235,-0.01740118555196321]","[-1,-1,-1]","[-0.0020160987267818743,-0.03936981071810007]","[1,1,1]","[-0.044539254852495574,-0.1266849197380244]","[-1,-1,-1]","[0.03283251981084273,-0.12832356619274035]","[-1,-1,-1]","[0.1711736026425532,-0.06413745116535212]","[-1,-1,-1]","[0.17767458902822927,0.021019703626660752]","[-1,-1,-1]","[0.11330190267932858,0.13166309312543806]","[1,1,1]","[-0.16455856034424138,0.08297601958951217]","[-1,-1,-1]","[-0.10336936208214104,-0.10344468794442568]","[-1,-1,-1]","[-0.0877623691934426,-0.15987134988520454]","[1,1,1]","[0.10605680443530288,0.07978657343682176]","[1,1,1]","[0.05417670864894091,-0.17171650694353516]","[-1,-1,-1]","[0.02,0.02]",213.8095,0,23,23,34,1,,,,,,,
,,,,,,,67d479b71ef9f4c14f6bb2da,682f0fbd802cd567ee126fab,2025-05-22_13h52.36.916,cuing_paradigm_dot,2024.1.5,Win32,60.24096386,682d573fa47f1360d1451895,,,,,,,,,,,213.8098,214.3089,,,214.5586,214.6084,right,,,,,,,,0.6,0.0352,,,,,,,214.309,214.5585,214.6085,"[0.09715402356867724,-0.007534103241539939]","[1,1,1]","[-0.019217763819704296,0.03104303511812373]","[-1,-1,-1]","[0.14940221093895512,-0.08881563102884064]","[1,1,1]","[0.050288740302944404,-0.1217221687855978]","[-1,-1,-1]","[-0.08198593169389615,0.10798340985990407]","[-1,-1,-1]","[-0.0030024809471573405,-0.03567320863788468]","[1,1,1]","[0.1538528282540225,0.06871874488909134]","[-1,-1,-1]","[0.09673107949185773,-0.13912425105771795]","[-1,-1,-1]","[0.18943654974525537,-0.039255356079474356]","[1,1,1]","[0.02378109545136501,-0.08399327716365772]","[-1,-1,-1]","[-0.0960960852601711,-0.05763865809951883]","[-1,-1,-1]","[0.06990338193198534,0.17428656870889098]","[1,1,1]","[0.03437402090037642,0.04406213301665959]","[1,1,1]","[-0.1673789792291572,0.030338236717166085]","[-1,-1,-1]","[-0.04129938735084685,0.10611127476768828]","[-1,-1,-1]","[-0.1299380357360596,0.06951212152976916]","[1,1,1]","[0.051875049649336154,0.13338472189638428]","[1,1,1]","[0.049912005156099705,-0.040067644253926074]","[1,1,1]","[-0.08400977890145274,-0.014546608201868826]","[1,1,1]","[-0.08333165680614188,-0.11372175943007737]","[1,1,1]","[-0.06738701642688547,0.04648238759967518]","[1,1,1]","[0.026601680530519273,0.19081453735297618]","[1,1,1]","[0.13064098353634004,0.11400844057984566]","[-1,-1,-1]","[0.10508721000269013,0.06051844140080406]","[-1,-1,-1]","[-0.031184007611449696,0.15437165813024936]","[-1,-1,-1]","[-0.023919759114642537,-0.18432492396345965]","[1,1,1]","[0.15448530293468973,0.02860437288596635]","[1,1,1]","[0.08791417593737288,-0.07907383078482834]","[1,1,1]","[-0.17388505648014485,-0.052629760710098936]","[1,1,1]","[0.012269600759360948,0.07851620127844439]","[1,1,1]","[-0.0980800451102115,0.15331528058647242]","[-1,-1,-1]","[0.031796087436879006,-0.17226799251004182]","[1,1,1]","[0.02,0.02]",215.7072,0,24,24,177,1,,,,,,,
,,,,,,,67d479b71ef9f4c14f6bb2da,682f0fbd802cd567ee126fab,2025-05-22_13h52.36.916,cuing_paradigm_dot,2024.1.5,Win32,60.24096386,682d573fa47f1360d1451895,,,,,,,,,,,215.7076,216.2062,,,216.4565,216.5564,left,,,,,,,,0.5,0.0843,,,,,,,216.2063,216.4565,216.5565,"[0.009845756207946806,0.18055174312979963]","[1,1,1]","[0.07839504857711406,0.002473953703828783]","[1,1,1]","[-0.11682965441485424,0.023290704314169783]","[-1,-1,-1]","[0.11633631475857667,-0.04687677009352822]","[-1,-1,-1]","[-0.09041788834674044,-0.08658851094869566]","[-1,-1,-1]","[0.15097978807007642,0.005739393562040406]","[1,1,1]","[-0.00015904383749834982,-0.10152686075814049]","[-1,-1,-1]","[-0.15353555721748166,-0.10118622551886193]","[-1,-1,-1]","[-0.06253986513286468,0.016302739130822634]","[1,1,1]","[0.06908309691073476,0.18057056679428213]","[1,1,1]","[-0.01010292697381186,0.10701630524222003]","[1,1,1]","[0.000916045493025503,0.050985687645337036]","[-1,-1,-1]","[0.1412106281059226,0.09335687024199008]","[1,1,1]","[0.08717455543774233,-0.13719500082012562]","[-1,-1,-1]","[0.08678264327314218,0.13945921145550458]","[-1,-1,-1]","[0.03387476651843789,-0.05070835718007595]","[-1,-1,-1]","[-0.0299122284976306,-0.05628393962598383]","[1,1,1]","[-0.021762775613188397,-0.16582035623763824]","[1,1,1]","[-0.049870329740546074,-0.11170208560401224]","[-1,-1,-1]","[0.16316553702093115,-0.05620646542521264]","[-1,-1,-1]","[0.0390861541392417,0.1074182007600385]","[1,1,1]","[-0.09368206252684688,-0.041800168519326976]","[-1,-1,-1]","[0.06154577127751712,-0.18001792430699354]","[1,1,1]","[0.12805028066782564,-0.10878022637493445]","[1,1,1]","[0.1712886601231585,0.04611410059838651]","[-1,-1,-1]","[0.06120468444763101,-0.10271236495971152]","[-1,-1,-1]","[-0.11320078182699644,0.09429559239304171]","[1,1,1]","[-0.15403531134829185,0.05319773798955456]","[1,1,1]","[-0.1624832508077344,-0.004190164626407346]","[1,1,1]","[-0.053067962400221706,0.10586864370222068]","[1,1,1]","[-0.1921509628210759,0.030795497478586183]","[-1,-1,-1]","[0.014398128551169866,-0.0035581470412661713]","[-1,-1,-1]","[0.02,0.02]",217.6547,0,25,25,92,1,,,,,,,
,,,,,,,67d479b71ef9f4c14f6bb2da,682f0fbd802cd567ee126fab,2025-05-22_13h52.36.916,cuing_paradigm_dot,2024.1.5,Win32,60.24096386,682d573fa47f1360d1451895,,,,,,,,,,,217.6551,218.1542,,,218.4054,218.4874,left,,,,,,,,0.45,0.0672,,,,,,,218.1542,218.4053,218.4875,"[-0.07353433076597232,0.12967045452079506]","[1,1,1]","[-0.07874100818708729,-0.11931214870599106]","[-1,-1,-1]","[0.02095022867579615,-0.13715949438708053]","[-1,-1,-1]","[-0.1812625054254738,-0.05489928324170777]","[-1,-1,-1]","[-0.11742376193874213,0.15569149389855846]","[1,1,1]","[0.0488837210149309,0.16889378350198467]","[1,1,1]","[-0.13036623347204093,0.0522341967211884]","[1,1,1]","[-0.06377536558066633,0.0872610428802592]","[-1,-1,-1]","[0.1540565214656263,-0.05791330731981417]","[1,1,1]","[0.10089138559469345,0.03081832679624075]","[-1,-1,-1]","[0.18101790495587636,0.07799482801888591]","[-1,-1,-1]","[0.05671669001418969,-0.17718387449190318]","[1,1,1]","[0.019125143499733203,0.011119592987065188]","[-1,-1,-1]","[-0.043741908458029354,-0.1584081786715575]","[1,1,1]","[-0.1439979716265619,-0.11382719001174336]","[1,1,1]","[-0.034877588660179946,-0.0758056415337899]","[1,1,1]","[-0.0387389404031348,-0.03378149864499728]","[-1,-1,-1]","[-0.18395186616813847,0.03037813984408028]","[1,1,1]","[0.10577115492519222,-0.1012337804750385]","[-1,-1,-1]","[0.05721580035563529,0.08474085470986371]","[1,1,1]","[0.08774727408549086,-0.03497648585230096]","[-1,-1,-1]","[0.1914669930740342,-0.015641138895487454]","[1,1,1]","[-0.15177790012892373,-0.009231027383434197]","[1,1,1]","[0.08778553160194061,0.14971278480062775]","[-1,-1,-1]","[0.15615056906613214,0.008582946674938167]","[-1,-1,-1]","[-0.10627242516719777,-0.025845936250882284]","[-1,-1,-1]","[-0.06745622653646297,0.044105033396312145]","[-1,-1,-1]","[0.0631273059680661,-0.12485105892030142]","[-1,-1,-1]","[0.13418799459706324,0.14329451030855728]","[1,1,1]","[0.0664607856302424,0.003574217670042984]","[-1,-1,-1]","[-0.019359974397301673,0.13763861909213193]","[-1,-1,-1]","[0.10276851318655353,0.1057317472331174]","[-1,-1,-1]","[0.02,0.02]",219.586,0,26,26,66,1,,,,,,,
,,,,,,,67d479b71ef9f4c14f6bb2da,682f0fbd802cd567ee126fab,2025-05-22_13h52.36.916,cuing_paradigm_dot,2024.1.5,Win32,60.24096386,682d573fa47f1360d1451895,,,,,,,,,,,219.5865,220.0854,,,220.3355,221.6334,right,,,,,,,,0.55,1.2858,,,,,,,220.0855,220.3355,221.6335,"[-0.027914135688368997,0.16128752255464188]","[1,1,1]","[-0.08743529271043696,-0.11916724315012014]","[1,1,1]","[0.012992353878431817,-0.178086242375605]","[1,1,1]","[0.003340773738849454,0.059264212714685266]","[-1,-1,-1]","[0.12740975548493375,0.08132855460781546]","[1,1,1]","[0.12319794447909121,-0.1270804064618204]","[-1,-1,-1]","[-0.13397698350200035,-0.03904862970400603]","[1,1,1]","[-0.1035815331072859,0.09005447430983206]","[1,1,1]","[-0.09519955115562079,0.16343097551187374]","[-1,-1,-1]","[0.015395173956645688,-0.11314210433850211]","[-1,-1,-1]","[-0.04004769320144507,0.0825358224937567]","[-1,-1,-1]","[-0.0952027402536845,-0.01859815682838209]","[1,1,1]","[-0.13689977109753848,-0.09585295926929453]","[-1,-1,-1]","[-0.04133455890920095,0.0037240108724688305]","[-1,-1,-1]","[0.07514317064487942,0.0906043860906201]","[-1,-1,-1]","[0.02726381588340868,0.15102013101386222]","[-1,-1,-1]","[0.1691533010099812,0.08459632916267064]","[1,1,1]","[0.1352319934689051,0.03867299432396564]","[1,1,1]","[0.0026061812511703098,0.11459254339098462]","[1,1,1]","[-0.028924380087008015,-0.14206478942032075]","[1,1,1]","[-0.001398331319094499,0.007285079257349322]","[1,1,1]","[0.09767280816267808,-0.022551170412986234]","[1,1,1]","[0.06900706740661057,0.16591911193132192]","[1,1,1]","[-0.1770879268243119,-0.041338511812331634]","[1,1,1]","[-0.11092937153032348,0.03043072626945621]","[-1,-1,-1]","[-0.1615919048200608,0.08915729853762809]","[-1,-1,-1]","[-0.19969619270957603,-0.00556701784195105]","[1,1,1]","[0.18701850826417488,-0.031711378733188265]","[-1,-1,-1]","[-0.031230691037741565,-0.19741218775250458]","[-1,-1,-1]","[-0.05354440770386877,-0.06066723104360648]","[-1,-1,-1]","[0.08970235086448378,0.05254559601686917]","[1,1,1]","[0.0835207187553238,-0.10101284002434015]","[1,1,1]","[0.02,0.02]",223.3961,0,27,27,127,1,,,,,,,
,,,,,,,67d479b71ef9f4c14f6bb2da,682f0fbd802cd567ee126fab,2025-05-22_13h52.36.916,cuing_paradigm_dot,2024.1.5,Win32,60.24096386,682d573fa47f1360d1451895,,,,,,,,,,,223.3971,223.3972,,,223.4178,224.1649,right,,,,,,,,0.9,0.7377,,,,,,,223.3972,223.4177,224.1649,"[0.09561668586394283,0.034777862913739736]","[1,1,1]","[-0.0520151593428994,0.14227086718659548]","[1,1,1]","[0.1090994720760298,0.13651755394383447]","[1,1,1]","[-0.04129136140247453,-0.08736800699839062]","[1,1,1]","[0.07748867803694576,0.08422741727054081]","[1,1,1]","[-0.0946533105779518,0.14062393243961113]","[-1,-1,-1]","[0.1740786803107161,0.0025821982926676553]","[1,1,1]","[-0.027400313208267336,-0.13686153882765784]","[1,1,1]","[0.004336401807674754,0.02984128935664116]","[1,1,1]","[-0.10346984669770445,0.007012788193916237]","[1,1,1]","[0.10431027273479318,-0.16392426047430123]","[1,1,1]","[0.04600712724932168,-0.04504755627114367]","[1,1,1]","[-0.07508463371921846,-0.023389760176381513]","[1,1,1]","[-0.060883274837329436,0.01705717063018463]","[1,1,1]","[-0.08727325717336595,-0.06606406872435502]","[1,1,1]","[-0.10344939152533765,-0.1235397150573417]","[1,1,1]","[-0.13266956309641653,0.09622616912239174]","[1,1,1]","[0.12072150397169462,-0.02871475542494533]","[1,1,1]","[-0.14941674810847963,-0.0472134758930786]","[1,1,1]","[0.13856156498851085,-0.07202318864987724]","[1,1,1]","[-0.02968950830977893,-0.018449209302861355]","[-1,-1,-1]","[0.06418278093730645,0.1833983130154729]","[1,1,1]","[0.16753240131830535,0.05624492936837569]","[1,1,1]","[0.03385641907563894,0.09740627230406115]","[1,1,1]","[-0.007070937647746213,0.07518897652538693]","[1,1,1]","[-0.16847296424299202,0.04620199345737497]","[1,1,1]","[0.15602986037670694,-0.11668932849068071]","[-1,-1,-1]","[0.06318431023083353,-0.12611169084142793]","[1,1,1]","[-0.06524866576510421,0.08290535608844925]","[1,1,1]","[0.019788228809464285,0.1662364455418401]","[1,1,1]","[0.03887446614823279,0.000941355325436256]","[1,1,1]","[-0.19825564142418364,-0.00285030849635585]","[1,1,1]","[0.02,0.02]",225.2627,0,28,28,185,1,,,,,,,
,,,,,,,67d479b71ef9f4c14f6bb2da,682f0fbd802cd567ee126fab,2025-05-22_13h52.36.916,cuing_paradigm_dot,2024.1.5,Win32,60.24096386,682d573fa47f1360d1451895,,,,,,,,,,,225.263,225.7618,,,226.0056,226.3777,left,,,,,,,,0.45,0.3517,,,,,,,225.7618,226.0054,226.3777,"[0.017346486258095487,0.0026446822339550725]","[-1,-1,-1]","[-0.02960078960967736,0.10118305349787539]","[-1,-1,-1]","[-0.027472726164348798,-0.06504420849645737]","[1,1,1]","[0.07886890977612517,0.14948552975333398]","[1,1,1]","[0.17828969155261323,-0.04126608175143949]","[1,1,1]","[0.09842575355250195,-0.16170018373533146]","[-1,-1,-1]","[-0.10156489267688912,0.1021151671661393]","[-1,-1,-1]","[0.12034703926671073,-0.015035150038149493]","[-1,-1,-1]","[0.11515018756716079,-0.08363180770317638]","[-1,-1,-1]","[-0.0406119459385381,-0.009557803883635807]","[1,1,1]","[0.18359163747841922,0.000986301683221887]","[1,1,1]","[0.034551082001533874,-0.13506119635654443]","[-1,-1,-1]","[-0.1261757176497873,-0.047803178450019884]","[-1,-1,-1]","[-0.11832842274740284,0.14997139427811834]","[1,1,1]","[-0.0446201803554867,-0.17375724698783146]","[-1,-1,-1]","[0.15011912143344092,0.07640490306000032]","[1,1,1]","[-0.013702739077009727,0.14410092003722857]","[1,1,1]","[-0.08130547442973851,0.033922775166400104]","[-1,-1,-1]","[0.07351832390276458,-0.013486746924596778]","[-1,-1,-1]","[-0.10773733504529233,-0.15763848344085044]","[-1,-1,-1]","[0.07476559873107971,0.03534222583719197]","[-1,-1,-1]","[-0.06589070882965854,0.12115755323406702]","[1,1,1]","[0.021338248424737815,0.1712457687655432]","[1,1,1]","[0.02304849485029222,-0.19865643084632498]","[-1,-1,-1]","[-0.16624510444328477,-0.03249948115669266]","[1,1,1]","[0.0155437216785381,0.10253224043351007]","[-1,-1,-1]","[-0.0654702213201469,0.1780213790757865]","[-1,-1,-1]","[0.16399573295266828,-0.08781478544653269]","[-1,-1,-1]","[-0.016491110333861865,-0.13384844149066616]","[1,1,1]","[0.07442722285345967,-0.08169691058291847]","[1,1,1]","[-0.12247663745199978,-0.11136306789980527]","[1,1,1]","[0.0035588687952244754,0.059505399694647305]","[-1,-1,-1]","[0.02,0.02]",227.4772,0,29,29,88,1,,,,,,,
,,,,,,,67d479b71ef9f4c14f6bb2da,682f0fbd802cd567ee126fab,2025-05-22_13h52.36.916,cuing_paradigm_dot,2024.1.5,Win32,60.24096386,682d573fa47f1360d1451895,,,,,,,,,,,227.4779,227.9754,,,228.2256,228.4585,right,,,,,,,,0.4,0.2183,,,,,,,227.9754,228.2256,228.4585,"[-0.001748642103682123,-0.0975099356029131]","[-1,-1,-1]","[0.07222199379272862,0.10143410316477476]","[-1,-1,-1]","[0.12971212473427787,-0.14584708580050806]","[1,1,1]","[-0.031219809339268403,0.09292541522851439]","[1,1,1]","[-0.13837751734116344,-0.13196976221765355]","[-1,-1,-1]","[-0.04758110296770792,-0.156419635120401]","[-1,-1,-1]","[-0.10814032022932131,0.10872989689279788]","[1,1,1]","[0.18956387452724702,-0.04881485946925172]","[-1,-1,-1]","[0.19271195814481773,-0.004786357346408947]","[-1,-1,-1]","[0.021934630088649654,0.010589335970097487]","[-1,-1,-1]","[-0.09127315167096958,-0.16256006870261455]","[1,1,1]","[0.03637246701171224,0.1646516971431466]","[-1,-1,-1]","[-0.11551943774386697,0.03772293825007509]","[-1,-1,-1]","[-0.11624385658753118,-0.05383160652981579]","[1,1,1]","[-0.04948869339225531,-0.07697335992277902]","[-1,-1,-1]","[0.0672659214888803,-0.015745426633667056]","[1,1,1]","[-0.1251019884916178,0.14882504573608754]","[1,1,1]","[0.06040369750689213,-0.12820245509506217]","[1,1,1]","[0.14547010363791116,0.12423072268561333]","[-1,-1,-1]","[-0.016081570019933593,0.16419793838328248]","[1,1,1]","[0.16482747053632688,0.0425197794991029]","[1,1,1]","[-0.17632794992332054,-0.05470832873225145]","[-1,-1,-1]","[0.05584934071623753,0.04386637952551324]","[-1,-1,-1]","[-0.016702387831004122,-0.18718903138929563]","[1,1,1]","[-0.1706171626002273,0.0827784154620023]","[-1,-1,-1]","[-0.044934128899145255,-0.02601441257788928]","[-1,-1,-1]","[-0.08171211095990168,0.15677295646753206]","[-1,-1,-1]","[0.03188503673651013,0.08027157119938173]","[-1,-1,-1]","[-0.18476272542925956,0.005423868904420066]","[-1,-1,-1]","[-0.037109872639392805,0.02754248067253805]","[1,1,1]","[-0.13684499063415323,-0.017759813884252112]","[1,1,1]","[-0.0003914198499805827,-0.036670455326394236]","[-1,-1,-1]","[0.02,0.02]",229.557,0,30,30,40,1,,,,,,,
,,,,,,,67d479b71ef9f4c14f6bb2da,682f0fbd802cd567ee126fab,2025-05-22_13h52.36.916,cuing_paradigm_dot,2024.1.5,Win32,60.24096386,682d573fa47f1360d1451895,,,,,,,,,,,229.5577,230.0562,,,230.3065,230.4559,right,,,,,,,,0.55,0.1357,,,,,,,230.0562,230.3065,230.4559,"[0.17684465959073764,-0.029969413679129447]","[1,1,1]","[-0.022219997263893853,0.1653695667067437]","[1,1,1]","[-0.13855724101798705,0.11797153629611579]","[-1,-1,-1]","[0.012262349216314299,-0.11806434742917232]","[-1,-1,-1]","[0.015088993987264198,0.09802703364107682]","[-1,-1,-1]","[-0.08126696065202309,0.11077052328880378]","[1,1,1]","[0.1326067447342892,-0.003658467197202647]","[-1,-1,-1]","[-0.1395023560181097,-0.04775580078447022]","[-1,-1,-1]","[0.01563315471358167,-0.044611410970012054]","[1,1,1]","[-0.19717564738644494,0.02436690804090571]","[1,1,1]","[0.056927746737979935,-0.08782971439570758]","[1,1,1]","[0.02928533162640098,0.03465665453121679]","[1,1,1]","[0.1622113136411332,0.043789232957206256]","[-1,-1,-1]","[-0.17198199955576746,-0.08378358490544838]","[1,1,1]","[0.01949568989962295,-0.19348984243809528]","[1,1,1]","[0.06605991440030706,-0.03657250576195145]","[-1,-1,-1]","[-0.11406397002125317,-0.14685163157895742]","[-1,-1,-1]","[-0.13563366111456612,0.014088496381352502]","[-1,-1,-1]","[-0.019017639519978678,0.060490286997751844]","[1,1,1]","[-0.10144806991541104,-0.065073395452684]","[1,1,1]","[-0.03357306517397695,-0.19301314755245483]","[1,1,1]","[-0.06020882256754269,0.06727170475497701]","[1,1,1]","[-0.1015489986365209,0.15327020394664084]","[-1,-1,-1]","[0.09546597864513164,0.14212654658125454]","[1,1,1]","[0.174485127469026,-0.08959963943015664]","[1,1,1]","[-0.07371981077240185,-0.02288904652954079]","[1,1,1]","[-0.054832195736552215,-0.14476005857250018]","[-1,-1,-1]","[0.08022141914174526,0.06286366330690318]","[1,1,1]","[-0.021865165211949995,-0.022511436665297997]","[-1,-1,-1]","[0.07522008641115727,-0.14309542447430929]","[-1,-1,-1]","[0.11183279555706516,-0.1118318613029117]","[-1,-1,-1]","[0.030017103290832715,0.16050355077750067]","[1,1,1]","[0.02,0.02]",231.5545,0,31,31,133,1,,,,,,,
,,,,,,,67d479b71ef9f4c14f6bb2da,682f0fbd802cd567ee126fab,2025-05-22_13h52.36.916,cuing_paradigm_dot,2024.1.5,Win32,60.24096386,682d573fa47f1360d1451895,,,,,,,,,,,231.5552,232.0539,,,232.2966,232.3651,left,,,,,,,,0.6,0.0523,,,,,,,232.054,232.2966,232.3651,"[0.0034560423857105532,0.05073248320625142]","[1,1,1]","[0.11463924566221767,0.10156570953783312]","[-1,-1,-1]","[0.09332462462473913,0.02259293581464602]","[1,1,1]","[0.13432440070383408,-0.03953423649951893]","[1,1,1]","[-0.012330290488667218,-0.04866909279474825]","[1,1,1]","[-0.03196074573488142,-0.08871031042211536]","[1,1,1]","[-0.03264301695031195,-0.011272013434627214]","[-1,-1,-1]","[0.05878715223982967,0.11731702626467652]","[-1,-1,-1]","[-0.07114102735639832,-0.061841776096710814]","[1,1,1]","[-0.09638406279535915,0.007880257277413686]","[-1,-1,-1]","[-0.1430943584294094,-0.0837316622555556]","[-1,-1,-1]","[0.18969290495275323,-0.04443144748000497]","[1,1,1]","[-0.07331376937155377,0.18527837807537925]","[-1,-1,-1]","[-0.1086535437129733,0.11043149402315362]","[1,1,1]","[0.05142711041977088,-0.12323000319157895]","[-1,-1,-1]","[-0.1444309979563915,-0.03816411247410833]","[1,1,1]","[-0.16928906119380974,0.03683062963086491]","[-1,-1,-1]","[0.05801087524547417,-0.1717082772971161]","[1,1,1]","[-0.056980315180208324,0.026879391159688522]","[-1,-1,-1]","[-0.07440739191378033,-0.12363817476554617]","[1,1,1]","[0.06030172625338212,-0.04980630338105085]","[1,1,1]","[0.027335591490392563,0.14777689667072397]","[1,1,1]","[0.012748119885739331,0.09598158803758196]","[1,1,1]","[0.05177742171565087,0.021282712839166842]","[-1,-1,-1]","[-0.004706563239956442,0.17492846757450628]","[1,1,1]","[-0.13080549481242615,0.07357739344302647]","[1,1,1]","[-0.10146401002440893,-0.16523104943881878]","[-1,-1,-1]","[0.15303158948273257,-0.07785560544058427]","[-1,-1,-1]","[0.17467639732933604,0.08858345693215025]","[-1,-1,-1]","[-0.05217660952052922,0.10150656317699104]","[1,1,1]","[0.13142008201972294,-0.14324770517310367]","[1,1,1]","[0.027321694187220365,-0.08591252940077093]","[1,1,1]","[0.02,0.02]",233.4607,0,32,32,167,1,,,,,,,
,,,,,,,67d479b71ef9f4c14f6bb2da,682f0fbd802cd567ee126fab,2025-05-22_13h52.36.916,cuing_paradigm_dot,2024.1.5,Win32,60.24096386,682d573fa47f1360d1451895,,,,,,,,,,,233.4614,233.8355,,,234.0792,234.3124,left,,,,,,,,0.45,0.2168,,,,,,,233.8355,234.0792,234.3125,"[-0.06498211324813051,0.11538013360943306]","[1,1,1]","[-0.10715422933526687,-0.1094756555713241]","[-1,-1,-1]","[-0.16901632649902887,-0.03208972913966659]","[-1,-1,-1]","[0.04317911033522324,0.09611865737539105]","[1,1,1]","[-0.04468711701268016,0.02336782991251637]","[1,1,1]","[-0.018539173080330807,-0.09328850549801124]","[1,1,1]","[0.0917192710639103,-0.10762876622002121]","[-1,-1,-1]","[-0.0551657448071739,-0.06468076510231097]","[-1,-1,-1]","[0.0328022593278495,-0.15545836894562806]","[-1,-1,-1]","[0.06547072356304336,0.1357096454073191]","[-1,-1,-1]","[-0.042635102405566526,0.07500975296482203]","[-1,-1,-1]","[0.03130924912434408,-0.10622006624089161]","[1,1,1]","[-0.12328899474314657,0.10786081274962038]","[-1,-1,-1]","[0.05494280481787348,0.17830003576928544]","[-1,-1,-1]","[-0.024640615619619447,-0.1681766382389896]","[-1,-1,-1]","[-0.1863178692335255,0.013352150512296079]","[1,1,1]","[-0.002922495969515319,0.05797745627995329]","[1,1,1]","[-0.06830764643991508,-0.15593649649769006]","[1,1,1]","[0.12277284826923578,0.14503118056140502]","[-1,-1,-1]","[0.1700159293116265,-0.006221839709132542]","[-1,-1,-1]","[-0.013548596103263692,-0.028372623880577433]","[1,1,1]","[0.17746704902677612,0.06022646722304449]","[1,1,1]","[-0.0984445459250653,0.14486394057113985]","[-1,-1,-1]","[0.026056183275387838,-0.198206860395319]","[-1,-1,-1]","[0.1433536191964215,-0.1051295277648265]","[1,1,1]","[0.11721224926562349,0.09780389521741165]","[1,1,1]","[0.18565367440505676,-0.04630525527092246]","[-1,-1,-1]","[0.08807676880118019,-0.06694608468562248]","[-1,-1,-1]","[0.09401782094448886,-0.1758846657069126]","[1,1,1]","[0.12211768414655168,-0.019507113472434213]","[-1,-1,-1]","[-0.11067277765326439,-0.023412642453371275]","[-1,-1,-1]","[-0.09133519085780897,0.03813798048794767]","[1,1,1]","[0.02,0.02]",235.4089,0,33,33,89,1,,,,,,,
,,,,,,,67d479b71ef9f4c14f6bb2da,682f0fbd802cd567ee126fab,2025-05-22_13h52.36.916,cuing_paradigm_dot,2024.1.5,Win32,60.24096386,682d573fa47f1360d1451895,,,,,,,,,,,235.4092,235.9077,,,236.1601,236.2432,right,,,,,,,,0.4,0.0672,,,,,,,235.9077,236.1599,236.2432,"[-0.16280884438463464,-0.0426965925199159]","[-1,-1,-1]","[0.031403432303468155,-0.1028106396892089]","[-1,-1,-1]","[-0.026788286181796045,0.030072762817735868]","[1,1,1]","[-0.11089747479411347,0.16096581807595303]","[1,1,1]","[0.08247573186367607,-0.1032939313556088]","[-1,-1,-1]","[0.06252935997471196,-0.03243891878217496]","[1,1,1]","[0.07582989443614761,0.019825922936241698]","[-1,-1,-1]","[0.012781221776137717,-0.17469568924972528]","[-1,-1,-1]","[-0.06060740505659374,0.08403697131197592]","[1,1,1]","[-0.028813634663484737,-0.13131993987720036]","[-1,-1,-1]","[-0.16966006740798575,0.040386088536737474]","[-1,-1,-1]","[0.15579229331190425,0.09631481743044377]","[-1,-1,-1]","[-0.10982788586965832,0.06917604486722746]","[1,1,1]","[-0.07050236676592725,-0.024792056333219903]","[1,1,1]","[-0.050818022221284884,-0.18066326813613276]","[1,1,1]","[0.15347531000569695,-0.08292373412247726]","[-1,-1,-1]","[-0.07041068255761845,0.14878229700591114]","[1,1,1]","[-0.035872753871299984,-0.06252327182131844]","[-1,-1,-1]","[0.18006055280055427,0.020067529826304952]","[1,1,1]","[0.09144832484026337,0.1738666245060725]","[-1,-1,-1]","[0.08245917549473575,0.11800541771501963]","[-1,-1,-1]","[0.10763963181661888,0.05768519686356035]","[1,1,1]","[0.0059039841813301715,-0.03184572857801255]","[1,1,1]","[-0.14735632303694965,0.12476693842311902]","[-1,-1,-1]","[-0.1440100137545439,-0.1104818359332461]","[-1,-1,-1]","[-0.08185168678819467,-0.14430168633641588]","[-1,-1,-1]","[0.14370969776151024,-0.13446504992267425]","[-1,-1,-1]","[0.12171027878945856,-0.019645783618763384]","[-1,-1,-1]","[-0.09931393791475125,0.10833885643347418]","[1,1,1]","[0.049883978453220484,0.15087519900916815]","[-1,-1,-1]","[0.17832929275288084,-0.020645091342037396]","[1,1,1]","[-0.0229506259070599,0.14372864996852844]","[-1,-1,-1]","[0.02,0.02]",237.3414,0,34,34,54,1,,,,,,,
,,,,,,,67d479b71ef9f4c14f6bb2da,682f0fbd802cd567ee126fab,2025-05-22_13h52.36.916,cuing_paradigm_dot,2024.1.5,Win32,60.24096386,682d573fa47f1360d1451895,,,,,,,,,,,237.342,237.837,,,238.0908,238.2066,right,,,,,,,,0.5,0.1,,,,,,,237.8371,238.0908,238.2066,"[0.08340469412069368,0.08490743255737446]","[-1,-1,-1]","[-0.14378422569184818,0.06897553038981614]","[1,1,1]","[-0.024627089050829946,-0.10385292513996822]","[1,1,1]","[0.07119273992625723,-0.17895800579922347]","[-1,-1,-1]","[-0.10134488290461591,0.07859952636901497]","[-1,-1,-1]","[0.13944992729838543,0.09311232264072182]","[1,1,1]","[0.09300715972396185,-0.015207363751967554]","[-1,-1,-1]","[-0.029302810221443012,-0.17542618426442902]","[1,1,1]","[-0.11871312498527806,0.12167947506012071]","[1,1,1]","[0.12402959508939475,-0.12706348230624687]","[-1,-1,-1]","[-0.07154526301656856,-0.12688140127701555]","[-1,-1,-1]","[0.04453527564820936,0.09955295197639862]","[1,1,1]","[-0.06321642249164153,0.09626672542439459]","[-1,-1,-1]","[-0.17247595593345152,0.0032873537211899114]","[-1,-1,-1]","[-0.06754680800393124,-0.041714019912391105]","[-1,-1,-1]","[-0.04476241921805616,0.1779487069748185]","[-1,-1,-1]","[-0.020941857667483844,0.020312113977664914]","[1,1,1]","[-0.004449789047346067,0.16569513669024807]","[1,1,1]","[0.08541497723291627,-0.09295083586854057]","[1,1,1]","[0.02683320447701707,-0.08180472120536535]","[-1,-1,-1]","[0.004769085823766271,-0.13719015420036912]","[-1,-1,-1]","[-0.009329752370724668,0.06564098851095261]","[-1,-1,-1]","[0.16869507643655582,-0.036718154920094594]","[1,1,1]","[0.11909139988583788,-0.06463934849788888]","[1,1,1]","[0.06294818560439301,0.14853689060147998]","[1,1,1]","[0.06304163704762217,0.022355216742801616]","[-1,-1,-1]","[-0.12557489425663929,-0.061133831580192956]","[-1,-1,-1]","[-0.0014333353023885085,-0.02590601058342807]","[1,1,1]","[0.17164998034909953,-0.09497582976562069]","[1,1,1]","[0.03718504010907355,0.18451810630579124]","[-1,-1,-1]","[-0.12728755475535097,0.0008836715668752294]","[1,1,1]","[0.1291122992600099,0.039215365207194486]","[1,1,1]","[0.02,0.02]",239.3055,0,35,35,102,1,,,,,,,
,,,,,,,67d479b71ef9f4c14f6bb2da,682f0fbd802cd567ee126fab,2025-05-22_13h52.36.916,cuing_paradigm_dot,2024.1.5,Win32,60.24096386,682d573fa47f1360d1451895,,,,,,,,,,,239.3063,239.8257,,,240.0721,240.2052,left,,,,,,,,0.6,0.117,,,,,,,239.8257,240.0721,240.2053,"[-0.008117875687558465,-0.1865062331813682]","[-1,-1,-1]","[0.13312019593376884,0.04338938009698329]","[-1,-1,-1]","[0.07412493996126455,0.00667848899818156]","[-1,-1,-1]","[-0.09562064601613114,0.1055162331430717]","[1,1,1]","[-0.0007686748889960583,-0.12870645100166078]","[-1,-1,-1]","[0.0689522348676405,0.06707401873275641]","[-1,-1,-1]","[-0.08960404643344032,-0.004519617740280344]","[1,1,1]","[0.04485612809072581,-0.1057516859037762]","[-1,-1,-1]","[0.03396133591798134,0.09417939220809958]","[1,1,1]","[-0.10022657656343026,-0.12066410456122129]","[-1,-1,-1]","[0.14663874949939748,0.0910649043085447]","[1,1,1]","[0.09384002723426388,-0.047438538509257416]","[1,1,1]","[0.19305059732372043,-0.037001333815445694]","[-1,-1,-1]","[0.15777408685803118,-0.11414050844087746]","[1,1,1]","[-0.17058856326712604,0.028074260543386582]","[1,1,1]","[-0.0286928067013343,0.001655087501511426]","[1,1,1]","[0.004747755435135399,-0.08717602715418502]","[-1,-1,-1]","[0.05151910515256619,-0.030640867779920214]","[-1,-1,-1]","[-0.047722014468225674,0.12721421884991846]","[1,1,1]","[-0.040774036059938415,0.05721497560673679]","[-1,-1,-1]","[0.007561315073181271,0.193327843710152]","[1,1,1]","[-0.1731724140299099,0.07511797805371376]","[-1,-1,-1]","[-0.17877104594833532,-0.03939466214879979]","[1,1,1]","[0.15039217688643056,-0.05459014121868486]","[1,1,1]","[0.06340006576791529,0.16188429710367555]","[1,1,1]","[-0.09022600607112477,0.05516456416389884]","[1,1,1]","[-0.13742288170760616,-0.08332953840061687]","[1,1,1]","[0.04070157321522804,-0.15984730208771208]","[1,1,1]","[-0.03651565156425522,-0.07662035409604841]","[1,1,1]","[0.12124732950165767,0.0007094579991861835]","[1,1,1]","[-0.07842616061782186,0.16197902505542283]","[1,1,1]","[-0.05659073293150734,-0.15674383231147213]","[-1,-1,-1]","[0.02,0.02]",241.3013,0,36,36,157,1,,,,,,,
,,,,,,,67d479b71ef9f4c14f6bb2da,682f0fbd802cd567ee126fab,2025-05-22_13h52.36.916,cuing_paradigm_dot,2024.1.5,Win32,60.24096386,682d573fa47f1360d1451895,,,,,,,,,,,241.3021,241.7923,,,242.0362,242.2188,right,,,,,,,,0.1,0.1663,,,,,,,241.7924,242.0362,242.2189,"[-0.038526189898811194,-0.1453392715905238]","[-1,-1,-1]","[0.05311075638319906,0.1685495983843656]","[-1,-1,-1]","[0.029526273214364896,0.06527653590913378]","[-1,-1,-1]","[-0.11812335414758311,-0.16047010832002584]","[-1,-1,-1]","[0.09173095157399817,0.05389423457226434]","[-1,-1,-1]","[-0.06091168149621886,-0.06453804452148318]","[-1,-1,-1]","[-0.1703159463586,-0.048281546544583276]","[-1,-1,-1]","[-0.0847698998366799,-0.016609629195606896]","[-1,-1,-1]","[0.1617595794510192,-0.10731929909100345]","[-1,-1,-1]","[0.0009635233772515287,-0.024260494540465846]","[-1,-1,-1]","[-0.11166729074327297,0.12667444607202186]","[-1,-1,-1]","[-0.1359981918654471,0.040815418796030956]","[-1,-1,-1]","[-0.01849929359549251,0.042624036739293165]","[-1,-1,-1]","[0.17424950451084795,-0.03155495406591203]","[-1,-1,-1]","[-0.0024453552989735046,-0.08900858430464073]","[-1,-1,-1]","[0.09068025822475557,-0.1088955861919199]","[1,1,1]","[0.010859911725119083,0.14904467423961779]","[-1,-1,-1]","[-0.13674327108823986,-0.07778123281505402]","[1,1,1]","[-0.14608299765342758,0.10246741564092708]","[-1,-1,-1]","[-0.10057064000664019,0.08699886077681905]","[-1,-1,-1]","[0.13975958997230487,-0.007283439393782706]","[-1,-1,-1]","[0.10053851785887731,0.0026787522936239255]","[-1,-1,-1]","[0.13042600090983247,0.089185604304088]","[-1,-1,-1]","[0.09362555095612243,-0.059798975646348625]","[-1,-1,-1]","[-0.05318100016678478,0.16774825070813423]","[-1,-1,-1]","[-0.17427429190134353,-0.09678417294873189]","[-1,-1,-1]","[0.1181298607283097,-0.1460927979414887]","[-1,-1,-1]","[-0.031119258394267515,0.10440911345803768]","[-1,-1,-1]","[0.18296746057604554,0.0703708658565181]","[-1,-1,-1]","[0.09405655423060555,0.16881740954110264]","[1,1,1]","[-0.12864297237726252,-0.003920808895436949]","[-1,-1,-1]","[0.05043475390995305,-0.18805693261626522]","[-1,-1,-1]","[0.02,0.02]",243.3071,0,37,37,2,1,,,,,,,
,,,,,,,67d479b71ef9f4c14f6bb2da,682f0fbd802cd567ee126fab,2025-05-22_13h52.36.916,cuing_paradigm_dot,2024.1.5,Win32,60.24096386,682d573fa47f1360d1451895,,,,,,,,,,,243.3079,243.8123,,,244.0669,244.2175,right,,,,,,,,0.6,0.1344,,,,,,,243.8124,244.0668,244.2176,"[-0.11124881995001122,-0.1606361952448718]","[1,1,1]","[-0.0001821130520939217,-0.1681065612430712]","[1,1,1]","[0.059121704724517596,0.0727430822816598]","[1,1,1]","[-0.08496087981607985,0.04571017794534373]","[-1,-1,-1]","[0.11128582611495483,-0.1488933478056646]","[1,1,1]","[0.05932003650101512,-0.07403636501367519]","[-1,-1,-1]","[0.14824735686171167,0.0774789232128225]","[1,1,1]","[0.038132312633980925,0.007912083540355398]","[1,1,1]","[-0.02690400087848765,0.12647698907204885]","[1,1,1]","[-0.10536469552663741,0.1457693603636529]","[-1,-1,-1]","[0.17992267450562666,0.015395256113862138]","[-1,-1,-1]","[-0.020962059101377873,0.19283359278149192]","[1,1,1]","[-0.05947931443999224,-0.16915398207362012]","[1,1,1]","[-0.09366119486688075,0.0021412568070740042]","[-1,-1,-1]","[0.131214856971057,-0.0691917849026132]","[-1,-1,-1]","[0.12138826204446829,0.11379939515250041]","[1,1,1]","[0.054320744571942206,0.149957046510041]","[1,1,1]","[-0.08140351476071978,-0.07352877974363718]","[-1,-1,-1]","[-0.06504705870609397,-0.113133417830935]","[1,1,1]","[0.0056326377613216076,0.10088717502296839]","[1,1,1]","[-0.1351364294296922,0.012619317707007272]","[1,1,1]","[0.10263561295597573,0.046547141540526756]","[1,1,1]","[0.11630223541292654,-0.014791177254852196]","[-1,-1,-1]","[-0.1302495097143806,0.06544242080853216]","[-1,-1,-1]","[0.007663144175703374,-0.09852045744873504]","[-1,-1,-1]","[-0.16096090886263692,-0.0907481205055394]","[-1,-1,-1]","[-0.024325359561502054,-0.014714287247486363]","[1,1,1]","[0.0026319862710085028,-0.05773637275509597]","[1,1,1]","[0.07101258786428527,-0.1336234945316772]","[-1,-1,-1]","[0.17227020663269457,-0.09958865664557756]","[1,1,1]","[0.11370416845419906,0.15872512918551898]","[-1,-1,-1]","[-0.04575631062611828,-0.05238229738097414]","[1,1,1]","[0.02,0.02]",245.3053,0,38,38,165,1,,,,,,,
,,,,,,,67d479b71ef9f4c14f6bb2da,682f0fbd802cd567ee126fab,2025-05-22_13h52.36.916,cuing_paradigm_dot,2024.1.5,Win32,60.24096386,682d573fa47f1360d1451895,,,,,,,,,,,245.306,245.8239,,,246.0706,246.254,left,,,,,,,,0.6,0.1693,,,,,,,245.8239,246.0706,246.254,"[0.11913695316198612,-0.14775978412333135]","[1,1,1]","[0.008704056734626183,-0.03348648894943964]","[1,1,1]","[0.01586843713098394,0.06411116147587459]","[-1,-1,-1]","[-0.13489606870173565,-0.003423452701841722]","[-1,-1,-1]","[0.053553033714739705,-0.04399963799542476]","[1,1,1]","[0.08262095572834126,0.1500039528799099]","[1,1,1]","[-0.1177326031164059,0.09216812452244766]","[-1,-1,-1]","[-0.04778591773763447,0.09848559622189657]","[1,1,1]","[-0.18290633796227287,0.04747102891234511]","[1,1,1]","[0.03279408874650525,0.14517994521121855]","[1,1,1]","[-0.0984905445382042,0.15362972849487938]","[1,1,1]","[0.1746603746340173,0.07294849398852865]","[-1,-1,-1]","[0.05432909346437948,0.10458367128629295]","[1,1,1]","[0.08037070235807138,0.0338825754174264]","[-1,-1,-1]","[0.03374082674707774,-0.19009445043834858]","[1,1,1]","[0.16541286258450005,-0.03797415288159721]","[-1,-1,-1]","[-0.12225388589060654,-0.1146622858162942]","[-1,-1,-1]","[-0.09411263272842288,0.04655873617295639]","[1,1,1]","[-0.0010017134713317631,-0.07488896088729481]","[1,1,1]","[0.11230440729715899,0.0017138550068640159]","[1,1,1]","[0.13663622511788556,0.0859456470088062]","[1,1,1]","[-0.0295351501759102,0.18777311777699365]","[-1,-1,-1]","[-0.07166430448675565,-0.01033394870676443]","[-1,-1,-1]","[-0.17436499614065398,-0.06304695368123797]","[-1,-1,-1]","[0.1307285920143513,-0.07814902569225979]","[1,1,1]","[-0.04293301793111281,-0.11796591275250735]","[1,1,1]","[-0.13222466837440278,-0.05386275349239216]","[1,1,1]","[-0.18759936844352137,-0.007607540801564487]","[-1,-1,-1]","[0.06494048739777078,-0.14948000044092158]","[1,1,1]","[-0.023478321106991475,0.03311445375185706]","[1,1,1]","[0.1789202369427107,0.010995192374087599]","[-1,-1,-1]","[-0.04273785492975925,-0.05049245255410657]","[-1,-1,-1]","[0.02,0.02]",247.3524,0,39,39,170,1,,,,,,,
,,,,,,,67d479b71ef9f4c14f6bb2da,682f0fbd802cd567ee126fab,2025-05-22_13h52.36.916,cuing_paradigm_dot,2024.1.5,Win32,60.24096386,682d573fa47f1360d1451895,,,,,,,,,,,247.353,247.8444,,,248.0948,248.2784,right,,,,,,,,0.1,0.1673,,,,,,,247.8445,248.0947,248.2785,"[-0.09930056975208161,0.08839977572495358]","[1,1,1]","[0.19375703791008195,-0.03889753822563058]","[-1,-1,-1]","[0.1020677705898375,-0.15421751774864623]","[-1,-1,-1]","[0.05917442817458124,-0.08441369831757177]","[-1,-1,-1]","[-0.016402037323442163,-0.10726401814612635]","[-1,-1,-1]","[-0.17960115123329373,-0.01369093361126031]","[-1,-1,-1]","[0.011303733461905505,0.02487054220722482]","[-1,-1,-1]","[-0.04434019750967904,-0.05249852234405753]","[-1,-1,-1]","[0.053113668366130413,0.1903224700125741]","[1,1,1]","[-0.1745788704370455,-0.05972064684116068]","[-1,-1,-1]","[0.04871441038400369,-0.014274763979879816]","[-1,-1,-1]","[-0.028665021177917156,0.1510504027454507]","[-1,-1,-1]","[0.1488719662030934,0.07765895683512897]","[-1,-1,-1]","[-0.1312202179897957,0.11488029711263605]","[-1,-1,-1]","[-0.02773287919288088,-0.000354185027548047]","[-1,-1,-1]","[-0.010055577049240172,-0.16498167228756197]","[-1,-1,-1]","[0.050768281552361245,-0.17249897662177993]","[-1,-1,-1]","[0.027295849399666547,0.10784723959551787]","[-1,-1,-1]","[-0.07458079566295928,-0.0007624887624502259]","[-1,-1,-1]","[-0.11529783161606737,-0.0919037522475267]","[-1,-1,-1]","[0.0530045749073943,0.06072626015401365]","[1,1,1]","[0.10670047635665134,0.009518741998375461]","[-1,-1,-1]","[0.14128709881663692,-0.04583145164153895]","[-1,-1,-1]","[0.009846425001914148,0.0674268518209343]","[-1,-1,-1]","[-0.10980039758931527,-0.16080951423208983]","[-1,-1,-1]","[0.09350008998932734,0.13011824649666318]","[-1,-1,-1]","[0.1504564056258462,-0.004083985618224178]","[-1,-1,-1]","[-0.10613148515138349,-0.04650635647974336]","[-1,-1,-1]","[0.007041168919920275,0.17961425033196107]","[-1,-1,-1]","[0.029049615015078287,-0.12626443530473222]","[-1,-1,-1]","[-0.06949739702036736,-0.16416791084911922]","[-1,-1,-1]","[0.14484542760154143,0.12968676156703102]","[-1,-1,-1]","[0.02,0.02]",249.3728,0,40,40,21,1,,,,,,,
,,,,,,,67d479b71ef9f4c14f6bb2da,682f0fbd802cd567ee126fab,2025-05-22_13h52.36.916,cuing_paradigm_dot,2024.1.5,Win32,60.24096386,682d573fa47f1360d1451895,,,,,,,,,,,249.3737,249.8771,,,250.1259,250.476,right,,,,,,,,0.5,0.334,,,,,,,249.8772,250.1258,250.4761,"[0.09481262350368329,-0.031598491982941894]","[-1,-1,-1]","[-0.06355342988161819,0.022962622515996962]","[-1,-1,-1]","[-0.14240489861390876,-0.03725773576543578]","[-1,-1,-1]","[-0.12184153300343353,0.08683420264303165]","[1,1,1]","[0.10629472661286263,0.14354273755530939]","[-1,-1,-1]","[0.02329238002890541,-0.04007567142529596]","[-1,-1,-1]","[-0.03512256512175098,0.18804326280397712]","[1,1,1]","[-0.10332028708414014,-0.13618492654967765]","[1,1,1]","[-0.02360361167157554,-0.0643897382803945]","[1,1,1]","[0.08096519334207304,0.04871933307661324]","[1,1,1]","[0.01919769846948755,0.05474188603082132]","[-1,-1,-1]","[0.17351913526992835,-0.026302450009252562]","[-1,-1,-1]","[0.15187703988065807,-0.1052388235426793]","[1,1,1]","[-0.16757908653880815,0.10434567179633862]","[-1,-1,-1]","[0.0385565417925359,-0.09516925090263988]","[-1,-1,-1]","[-0.0683531730037013,0.08765485285296669]","[-1,-1,-1]","[0.14455245960745836,0.09677044527481114]","[-1,-1,-1]","[-0.04567421661526448,-0.015153517388427922]","[1,1,1]","[0.00017257287377950205,0.10373520002768619]","[1,1,1]","[0.004059767368913612,-0.17038329956613604]","[1,1,1]","[-0.16127898067653498,-0.10907292607114433]","[1,1,1]","[0.04299219612350497,0.14042155806766402]","[-1,-1,-1]","[-0.05213503251926514,-0.1751564577217519]","[1,1,1]","[-0.004213110671980363,-0.12209947299029036]","[1,1,1]","[-0.18283727439371836,-0.009675209249602917]","[1,1,1]","[-0.010642853719535746,0.006569850396003677]","[1,1,1]","[0.05640587040082177,-0.1571561521387208]","[-1,-1,-1]","[0.06152062438711808,-0.056022902068082726]","[-1,-1,-1]","[0.15335360659408473,0.04583944995459585]","[-1,-1,-1]","[-0.14666145320659743,0.01236405052963227]","[-1,-1,-1]","[0.02566001031730448,0.18265957910829533]","[1,1,1]","[0.12693539123715922,-0.14176536259077926]","[1,1,1]","[0.02,0.02]",251.5733,0,41,41,104,1,,,,,,,
,,,,,,,67d479b71ef9f4c14f6bb2da,682f0fbd802cd567ee126fab,2025-05-22_13h52.36.916,cuing_paradigm_dot,2024.1.5,Win32,60.24096386,682d573fa47f1360d1451895,,,,,,,,,,,251.5743,252.0736,,,252.3244,252.5373,right,,,,,,,,0.1,0.1973,,,,,,,252.0737,252.3243,252.5373,"[0.05965306690160325,0.04548454566386331]","[-1,-1,-1]","[0.06334583399404534,-0.10275180965221199]","[-1,-1,-1]","[0.15730360272433647,-0.0808485989781578]","[-1,-1,-1]","[-0.07112259063172582,0.08240790992740789]","[-1,-1,-1]","[-0.1286856656208037,0.05172152898254243]","[1,1,1]","[-0.004315189047369486,-0.1375897612091957]","[-1,-1,-1]","[-0.11907068416599532,-0.050765316217301834]","[-1,-1,-1]","[-0.14787787956686152,-0.09916557442349644]","[-1,-1,-1]","[0.11489458472094873,-0.0867370487100558]","[-1,-1,-1]","[-0.19467632098856025,0.04345746224334602]","[-1,-1,-1]","[-0.002324484851289784,0.1315007813600574]","[-1,-1,-1]","[0.10226898371854069,0.05508516831680252]","[-1,-1,-1]","[0.040406382827862804,-0.05334652855123214]","[-1,-1,-1]","[0.07050601503146652,0.11908663951476477]","[-1,-1,-1]","[0.07047799687580365,-0.1845973108755093]","[-1,-1,-1]","[-0.026696220099941246,0.07957616913345378]","[-1,-1,-1]","[0.02983156735248458,0.1700124019827751]","[-1,-1,-1]","[-0.007962325176962857,0.0074535733245979586]","[-1,-1,-1]","[-0.10048707230110596,0.16242247697075232]","[-1,-1,-1]","[-0.07307359504880531,-0.035232988157142264]","[-1,-1,-1]","[-0.0528791052613514,0.018891636156824473]","[-1,-1,-1]","[-0.19542872517276386,-0.03509499902438565]","[-1,-1,-1]","[0.04312758642928388,-0.007355189800744836]","[-1,-1,-1]","[0.0012105499251245833,-0.07195924854469174]","[-1,-1,-1]","[0.17300294997951204,0.05739201108657488]","[-1,-1,-1]","[-0.11115238908499474,0.10095971905342956]","[-1,-1,-1]","[-0.05205060428041133,0.1189821693122493]","[-1,-1,-1]","[-0.05429398592660582,-0.09756610219518685]","[-1,-1,-1]","[0.1569622131166082,-0.037139348528495784]","[-1,-1,-1]","[0.021273053018113258,0.07194386843495248]","[1,1,1]","[-0.10964978015024508,-0.13636634285686502]","[-1,-1,-1]","[0.12023507133365148,0.11017382230532578]","[1,1,1]","[0.02,0.02]",253.6374,0,42,42,14,1,,,,,,,
,,,,,,,67d479b71ef9f4c14f6bb2da,682f0fbd802cd567ee126fab,2025-05-22_13h52.36.916,cuing_paradigm_dot,2024.1.5,Win32,60.24096386,682d573fa47f1360d1451895,,,,,,,,,,,253.6382,254.1335,,,254.3876,254.584,right,,,,,,,,0.1,0.1802,,,,,,,254.1335,254.3876,254.584,"[-0.11104644350831794,0.01574035745911456]","[-1,-1,-1]","[0.1309185678329589,0.046907474721335427]","[-1,-1,-1]","[-0.12553236166596238,-0.022374962612876418]","[-1,-1,-1]","[0.012163813606136826,0.08302055397316052]","[-1,-1,-1]","[0.10380573961060992,-0.11834901682258504]","[-1,-1,-1]","[0.1287239491035148,0.10038747803052889]","[-1,-1,-1]","[0.15948719634098146,-0.028167966513409214]","[-1,-1,-1]","[0.03751228115162379,-0.0085459373226669]","[1,1,1]","[-0.03228131778696848,-0.07037158116402055]","[-1,-1,-1]","[-0.1132636199025224,-0.06457303817803092]","[-1,-1,-1]","[-0.09113096823452853,-0.13146727163579278]","[-1,-1,-1]","[0.12399282857636701,-0.06168433648076062]","[-1,-1,-1]","[-0.026311010066797293,-0.18303386123691184]","[-1,-1,-1]","[-0.057838600712168196,0.15916897200057828]","[-1,-1,-1]","[-0.04302368205617564,0.06897176224559977]","[-1,-1,-1]","[0.12022842765636735,-0.008641395866974879]","[-1,-1,-1]","[-0.19707673778461202,0.007477319915418829]","[-1,-1,-1]","[-0.15819289399408162,0.07024536595747546]","[-1,-1,-1]","[0.022087237632631148,0.19338835166250584]","[-1,-1,-1]","[-0.022079644396054,0.026847513370397157]","[1,1,1]","[0.03692063274602877,-0.18815480816689542]","[-1,-1,-1]","[-0.11396791191105095,0.156313684799892]","[1,1,1]","[0.07519056435965076,0.01590676628700311]","[-1,-1,-1]","[-0.10762041849854179,0.10202522825929652]","[-1,-1,-1]","[0.07837420440909211,0.14623659726764604]","[-1,-1,-1]","[0.03341618071126556,-0.0841621223664527]","[-1,-1,-1]","[0.04431494681667013,0.04827937432958411]","[-1,-1,-1]","[0.1570872935155657,-0.1226617678931693]","[-1,-1,-1]","[-0.0026655858749694995,-0.1112637864183225]","[-1,-1,-1]","[-0.07263981097394293,-0.05674104127767243]","[-1,-1,-1]","[0.08380374937400124,0.08128586977846709]","[-1,-1,-1]","[-0.050815776000815806,-0.0188239518209208]","[-1,-1,-1]","[0.02,0.02]",255.6758,0,43,43,9,1,,,,,,,
,,,,,,,67d479b71ef9f4c14f6bb2da,682f0fbd802cd567ee126fab,2025-05-22_13h52.36.916,cuing_paradigm_dot,2024.1.5,Win32,60.24096386,682d573fa47f1360d1451895,,,,,,,,,,,255.6767,256.1756,,,256.4258,256.4919,left,,,,,,,,0.9,0.0512,,,,,,,256.1756,256.4258,256.492,"[-0.061173145789195305,-0.08443723856124938]","[1,1,1]","[-0.08819202610865556,0.1472199382299805]","[1,1,1]","[-0.0628786887256449,0.06344439095347479]","[1,1,1]","[-0.15096343304645324,-0.06150522703328028]","[1,1,1]","[0.17938236668257315,-0.04743502180544024]","[1,1,1]","[0.06272810813279822,-0.09600992304656972]","[1,1,1]","[0.015306231614949173,-0.1576026727106662]","[1,1,1]","[-0.007983705122267582,-0.10748976112643782]","[-1,-1,-1]","[0.044599350560330014,-0.022032577634627126]","[1,1,1]","[0.02514564532939466,0.03575187720821305]","[1,1,1]","[0.12239599942200372,0.053228117325194474]","[1,1,1]","[0.060086638027333786,-0.15872085161052304]","[1,1,1]","[-0.10523184337037095,-0.01641233629832506]","[1,1,1]","[-0.16179110600207122,0.08158060990379276]","[1,1,1]","[0.13557359053828466,-0.13010450448861116]","[-1,-1,-1]","[-0.0014763957117515571,-0.035070282051137484]","[1,1,1]","[-0.036501845297857216,0.16869258889124286]","[1,1,1]","[0.16429346294176633,0.02466266954052557]","[1,1,1]","[0.0830526531792897,0.07010387051502015]","[1,1,1]","[0.17507421152711447,-0.09258201585153297]","[1,1,1]","[0.10043049663614814,0.11899598548862475]","[1,1,1]","[-0.04257697877672457,-0.03857229401089939]","[1,1,1]","[-0.11526041849211037,0.05693990037878068]","[1,1,1]","[0.10184854651470172,0.01235507993866968]","[1,1,1]","[-0.09526519435812456,-0.15189072962977876]","[1,1,1]","[-0.15980079692272936,-0.00738168707481495]","[1,1,1]","[-0.11440399573687977,-0.09596749564482304]","[1,1,1]","[-0.05492606409459626,-0.1920836774204098]","[1,1,1]","[-0.026969345155091824,-0.1543853930017394]","[1,1,1]","[0.007303932049353968,0.12203682573278742]","[-1,-1,-1]","[0.03855823632562873,-0.06383188072225388]","[1,1,1]","[-0.04719961931886161,0.020400797778642014]","[1,1,1]","[0.02,0.02]",257.5923,0,44,44,195,1,,,,,,,
