right,left,explain.started,explain.stopped,key_resp_3.keys,key_resp_3.rt,key_resp_3.duration,participant,session,date,expName,psychopyVersion,OS,frameRate,study_id,explain_2.started,explain_2.stopped,key_resp_4.keys,key_resp_4.rt,key_resp_4.duration,explain_3.started,explain_3.stopped,key_resp_5.keys,key_resp_5.rt,key_resp_5.duration,fixation.started,fixation.stopped,practice.started,practice.stopped,response.started,response.stopped,key_resp.keys,key_resp.rt,key_resp.duration,feedback.started,feedback.stopped,trials_2.thisRepN,trials_2.thisTrialN,trials_2.thisN,trials_2.thisIndex,trials_2.ran,white_ratio,explain_4.started,explain_4.stopped,key_resp_6.keys,key_resp_6.rt,key_resp_6.duration,dotDisplay.started,dotDisplay.stopped,ITI.started,polygon_1.pos,polygon_1.color,polygon_2.pos,polygon_2.color,polygon_3.pos,polygon_3.color,polygon_4.pos,polygon_4.color,polygon_5.pos,polygon_5.color,polygon_6.pos,polygon_6.color,polygon_7.pos,polygon_7.color,polygon_8.pos,polygon_8.color,polygon_9.pos,polygon_9.color,polygon_10.pos,polygon_10.color,polygon_11.pos,polygon_11.color,polygon_12.pos,polygon_12.color,polygon_13.pos,polygon_13.color,polygon_14.pos,polygon_14.color,polygon_15.pos,polygon_15.color,polygon_16.pos,polygon_16.color,polygon_17.pos,polygon_17.color,polygon_18.pos,polygon_18.color,polygon_19.pos,polygon_19.color,polygon_20.pos,polygon_20.color,polygon_21.pos,polygon_21.color,polygon_22.pos,polygon_22.color,polygon_23.pos,polygon_23.color,polygon_24.pos,polygon_24.color,polygon_25.pos,polygon_25.color,polygon_26.pos,polygon_26.color,polygon_27.pos,polygon_27.color,polygon_28.pos,polygon_28.color,polygon_29.pos,polygon_29.color,polygon_30.pos,polygon_30.color,polygon_31.pos,polygon_31.color,polygon_32.pos,polygon_32.color,dot_size,ITI.stopped,trials.thisRepN,trials.thisTrialN,trials.thisN,trials.thisIndex,trials.ran,break_2.started,break_2.stopped,trials_3.thisRepN,trials_3.thisTrialN,trials_3.thisN,trials_3.thisIndex,trials_3.ran
subject chose white,subject chose black,0.0002,25.1363,space,10.1124,,67d6cd20e6f88998bd004d61,682db42d345c96253c44187a,2025-05-21_14h15.11.335,cuing_paradigm_dot,2024.1.5,Win32,59.88023952,682d556593cb38ad0a074487,,,,,,,,,,,,,,,,,,,,,,,,,,,,,,,,,,,,,,,,,,,,,,,,,,,,,,,,,,,,,,,,,,,,,,,,,,,,,,,,,,,,,,,,,,,,,,,,,,,,,,,,,,,,,,,,,
,,,,,,,67d6cd20e6f88998bd004d61,682db42d345c96253c44187a,2025-05-21_14h15.11.335,cuing_paradigm_dot,2024.1.5,Win32,59.88023952,682d556593cb38ad0a074487,25.137,56.4995,space,1.2773,,,,,,,,,,,,,,,,,,,,,,,,,,,,,,,,,,,,,,,,,,,,,,,,,,,,,,,,,,,,,,,,,,,,,,,,,,,,,,,,,,,,,,,,,,,,,,,,,,,,,,,,,,,,,
,,,,,,,67d6cd20e6f88998bd004d61,682db42d345c96253c44187a,2025-05-21_14h15.11.335,cuing_paradigm_dot,2024.1.5,Win32,59.88023952,682d556593cb38ad0a074487,,,,,,56.4996,61.1209,space,1.6088,,,,,,,,,,,,,,,,,,,,,,,,,,,,,,,,,,,,,,,,,,,,,,,,,,,,,,,,,,,,,,,,,,,,,,,,,,,,,,,,,,,,,,,,,,,,,,,,,,,,,,,,
,,,,,,,67d6cd20e6f88998bd004d61,682db42d345c96253c44187a,2025-05-21_14h15.11.335,cuing_paradigm_dot,2024.1.5,Win32,59.88023952,682d556593cb38ad0a074487,,,,,,,,,,,61.1386,61.6375,61.638,61.888,61.8881,63.1901,right,1.2754,,63.1904,64.2897,0,0,0,0,1,0.8,,,,,,,,,,,,,,,,,,,,,,,,,,,,,,,,,,,,,,,,,,,,,,,,,,,,,,,,,,,,,,,,,,,,,,,,,,,,,,,,,,,,,,
,,,,,,,67d6cd20e6f88998bd004d61,682db42d345c96253c44187a,2025-05-21_14h15.11.335,cuing_paradigm_dot,2024.1.5,Win32,59.88023952,682d556593cb38ad0a074487,,,,,,,,,,,64.2903,64.7905,64.7905,65.0417,65.0419,65.5752,left,0.5013,,65.5754,66.6761,0,1,1,1,1,0.2,,,,,,,,,,,,,,,,,,,,,,,,,,,,,,,,,,,,,,,,,,,,,,,,,,,,,,,,,,,,,,,,,,,,,,,,,,,,,,,,,,,,,,
,,,,,,,67d6cd20e6f88998bd004d61,682db42d345c96253c44187a,2025-05-21_14h15.11.335,cuing_paradigm_dot,2024.1.5,Win32,59.88023952,682d556593cb38ad0a074487,,,,,,,,,,,,,,,,,,,,,,,,,,,,66.6771,70.5301,space,0.8387,,,,,,,,,,,,,,,,,,,,,,,,,,,,,,,,,,,,,,,,,,,,,,,,,,,,,,,,,,,,,,,,,,,,,,,,,,,,,,,,,,
,,,,,,,67d6cd20e6f88998bd004d61,682db42d345c96253c44187a,2025-05-21_14h15.11.335,cuing_paradigm_dot,2024.1.5,Win32,59.88023952,682d556593cb38ad0a074487,,,,,,,,,,,70.5457,71.0464,,,71.2983,72.382,left,1.0565,,,,,,,,,0.45,,,,,,71.0475,71.298,72.3829,"[-0.020307108311321483,0.07562795781315743]","[-1,-1,-1]","[-0.06128282519011427,0.10716116842001225]","[1,1,1]","[0.15686577221201975,0.05526812116956474]","[1,1,1]","[0.022147990986761464,-0.039499530516990074]","[-1,-1,-1]","[-0.038010590257717976,0.16469980429655567]","[-1,-1,-1]","[0.11766903186022608,-0.11814536960198549]","[1,1,1]","[0.1789856530043984,-0.08891586673228073]","[-1,-1,-1]","[0.013016613317090643,0.1459494807125984]","[-1,-1,-1]","[0.15944848896844008,0.01134378522801049]","[-1,-1,-1]","[0.03573427677784315,-0.11633942587486712]","[-1,-1,-1]","[0.036659538248761475,0.0775398363125069]","[-1,-1,-1]","[0.10139993460578312,0.03465226910427979]","[-1,-1,-1]","[0.00895474194446549,0.008335677959104254]","[1,1,1]","[0.08312297819954734,0.1135416337409306]","[-1,-1,-1]","[-0.03532727155337631,-0.09618815362917069]","[-1,-1,-1]","[-0.15744050532543283,0.026754794601980155]","[-1,-1,-1]","[0.14240347624566219,-0.032940122761348285]","[-1,-1,-1]","[-0.08727630887992506,-0.09367912323964726]","[1,1,1]","[-0.01738139379395517,-0.19509331547950567]","[1,1,1]","[-0.031665798486702264,0.013642745779216916]","[1,1,1]","[-0.09066378170136577,-0.17300683508833353]","[1,1,1]","[0.19959562142188328,-0.0029845888778131852]","[-1,-1,-1]","[-0.1257742846983874,0.061289641737336975]","[1,1,1]","[0.0672184854104898,-0.043563072391228606]","[-1,-1,-1]","[-0.1608852458022362,-0.05142667378073383]","[1,1,1]","[-0.11706666942644452,0.009311377655627862]","[1,1,1]","[0.14195538509805267,0.1354059484728755]","[-1,-1,-1]","[0.06412954248461308,0.1542450302227923]","[-1,-1,-1]","[-0.11972310745753788,-0.05978876179331903]","[1,1,1]","[-0.11014767445221817,0.1599560577950191]","[-1,-1,-1]","[-0.037719442268046056,-0.15997799353308328]","[1,1,1]","[-0.16490851500774872,0.0928318086165819]","[1,1,1]","[0.02,0.02]",73.4831,0,0,0,78,1,,,,,,,
,,,,,,,67d6cd20e6f88998bd004d61,682db42d345c96253c44187a,2025-05-21_14h15.11.335,cuing_paradigm_dot,2024.1.5,Win32,59.88023952,682d556593cb38ad0a074487,,,,,,,,,,,73.484,73.9835,,,74.2343,75.4842,left,1.223,,,,,,,,,0.5,,,,,,73.9836,74.2342,75.4842,"[-0.11513028557525974,-0.1487485943975881]","[-1,-1,-1]","[0.06446370351853278,0.03254704228325102]","[-1,-1,-1]","[0.1524151972550243,0.10335179540277613]","[-1,-1,-1]","[0.17754615944346136,0.022093047624640046]","[-1,-1,-1]","[-0.02637503941437841,0.047822954903549666]","[1,1,1]","[-0.16751268883720755,0.013750885609818317]","[1,1,1]","[-0.0960175271744828,0.09777474753407951]","[1,1,1]","[-0.007011911452530941,0.15499485665864962]","[-1,-1,-1]","[0.026873844064014777,0.12334594600733595]","[1,1,1]","[0.12385803405113308,-0.10624287277718518]","[-1,-1,-1]","[-0.10200705891802588,-0.031093933856907997]","[-1,-1,-1]","[-0.16964841314639048,0.05394379159145872]","[-1,-1,-1]","[-0.1438292682398097,-0.08842748808939231]","[1,1,1]","[-0.03345795033733381,-0.11612338348789242]","[-1,-1,-1]","[0.11565195171539029,0.03605185737936231]","[-1,-1,-1]","[-0.09105681677064671,0.04466621512901678]","[1,1,1]","[0.10607367091177815,-0.1441442056491761]","[1,1,1]","[-0.0385158331235745,0.09271843179198269]","[-1,-1,-1]","[-0.03308517336532563,-0.1769753314894604]","[-1,-1,-1]","[0.04803215671284452,0.1796710758501929]","[1,1,1]","[0.07698961315440964,0.08896623312970818]","[-1,-1,-1]","[-0.08958576545071366,-0.08046072615260698]","[1,1,1]","[0.03109703957518908,-0.05874892603111475]","[-1,-1,-1]","[0.041781141416322,-0.12088089822560644]","[1,1,1]","[0.01080399016589863,0.019171579014524747]","[-1,-1,-1]","[0.10564674282166943,-0.04641620622890299]","[1,1,1]","[0.05469953237696359,-0.023087881679030458]","[1,1,1]","[-0.13665382845312063,0.14231362213696344]","[1,1,1]","[-0.03898024546834958,-0.06408676583033943]","[-1,-1,-1]","[-0.08828010921419481,0.15544905388336092]","[1,1,1]","[0.05439479214319327,-0.1911559698800045]","[1,1,1]","[0.10548394796003333,0.12638850401565935]","[1,1,1]","[0.02,0.02]",76.586,0,1,1,101,1,,,,,,,
,,,,,,,67d6cd20e6f88998bd004d61,682db42d345c96253c44187a,2025-05-21_14h15.11.335,cuing_paradigm_dot,2024.1.5,Win32,59.88023952,682d556593cb38ad0a074487,,,,,,,,,,,76.587,77.0863,,,77.3375,78.0377,left,0.6691,,,,,,,,,0.1,,,,,,77.0865,77.3375,78.0379,"[0.0071461161396299735,0.03226657733738601]","[-1,-1,-1]","[-0.020239201822443063,-0.17438625968949475]","[-1,-1,-1]","[-0.1250229954550605,-0.1095403690246467]","[-1,-1,-1]","[-0.16363390145209342,0.0618039269412777]","[-1,-1,-1]","[0.04464498777028265,-0.13897519145909826]","[-1,-1,-1]","[0.1884600915596776,0.03680135976494616]","[-1,-1,-1]","[-0.06459868624960685,0.16957555456094014]","[-1,-1,-1]","[-0.03818696639494559,-0.12688581648297406]","[-1,-1,-1]","[0.18357724544959625,0.07796567651304809]","[1,1,1]","[0.12497839000302309,0.10708470149460764]","[-1,-1,-1]","[0.061048965582607216,0.14174628049669832]","[-1,-1,-1]","[0.05992845017915038,0.01841249185906326]","[-1,-1,-1]","[0.04533934815916661,-0.054831518841112196]","[-1,-1,-1]","[-0.06907972566447168,-0.06143214938937868]","[-1,-1,-1]","[-0.14987543376171555,0.11829689175562211]","[-1,-1,-1]","[-0.04141899043916352,-0.013301736309784675]","[-1,-1,-1]","[0.16452425312374666,-0.0853164377177824]","[-1,-1,-1]","[-0.08942932492279333,0.10666202192283761]","[1,1,1]","[0.03772859941812488,0.1774631510444855]","[-1,-1,-1]","[-0.05427316232808938,0.08086120254993763]","[-1,-1,-1]","[0.08510073009724918,0.09710964334218797]","[-1,-1,-1]","[-0.0748644556855647,-0.1107964972127524]","[-1,-1,-1]","[-0.027796887690040115,0.12028404915392352]","[-1,-1,-1]","[0.0016140876776360286,-0.05679041941717663]","[-1,-1,-1]","[0.06395276850397938,-0.17468279276485604]","[-1,-1,-1]","[-0.14887705231704385,0.0014429283154118995]","[-1,-1,-1]","[-0.15479730410799797,-0.062483925323184024]","[-1,-1,-1]","[0.16517685043089098,-0.021828263046408534]","[-1,-1,-1]","[0.1343824644839476,0.02436332053291608]","[-1,-1,-1]","[-0.09627706176190358,-0.01701601519870506]","[1,1,1]","[-0.08130260772417007,-0.17005399619161737]","[-1,-1,-1]","[-0.11046956754176208,0.05202971518729684]","[-1,-1,-1]","[0.02,0.02]",79.1382,0,2,2,25,1,,,,,,,
,,,,,,,67d6cd20e6f88998bd004d61,682db42d345c96253c44187a,2025-05-21_14h15.11.335,cuing_paradigm_dot,2024.1.5,Win32,59.88023952,682d556593cb38ad0a074487,,,,,,,,,,,79.1392,79.6388,,,79.8774,80.4396,right,0.5564,,,,,,,,,0.6,,,,,,79.6388,79.8774,80.4397,"[0.1373102534200541,0.10862588391910223]","[-1,-1,-1]","[-0.10248797493123908,-0.11316067121511936]","[-1,-1,-1]","[0.01513185087829113,0.10564030913055841]","[-1,-1,-1]","[-0.020461130634808027,0.07045072394385478]","[-1,-1,-1]","[-0.02339434652966717,-0.021127999258993526]","[1,1,1]","[-0.1309949379879789,0.0394620378647514]","[1,1,1]","[-0.0207516525395433,-0.09508149625140588]","[1,1,1]","[0.10446711743618854,0.16770441685689186]","[1,1,1]","[-0.12001267155382334,-0.03043500576188848]","[-1,-1,-1]","[0.0400317985600183,-0.025239453473591297]","[1,1,1]","[-0.02925914485361479,0.11089487928504523]","[-1,-1,-1]","[0.06200316472681522,-0.14079018973869936]","[1,1,1]","[0.09822505006004012,0.05405726400315539]","[1,1,1]","[-0.03430562094934429,-0.18000118994919798]","[-1,-1,-1]","[0.08007434695811737,-0.0753294624944215]","[1,1,1]","[0.051866573144229995,-0.18927805331202335]","[-1,-1,-1]","[0.03892712727091213,-0.0963419759197687]","[1,1,1]","[0.11952953242727384,-0.12521169165549856]","[1,1,1]","[0.19516309859254619,0.029227365760709185]","[1,1,1]","[-0.06644639792550798,-0.07266541075622791]","[-1,-1,-1]","[0.1671524734070404,-0.03889086253842697]","[-1,-1,-1]","[-0.17594787910708568,0.07862759372652989]","[1,1,1]","[0.14574213275765074,0.06651683090214339]","[-1,-1,-1]","[-0.18356369737987013,-0.0401003428737254]","[1,1,1]","[0.07098013621868648,0.007678109394715447]","[1,1,1]","[0.09650392164139923,0.09829001939663534]","[-1,-1,-1]","[0.054473749231098365,0.05204518530409704]","[-1,-1,-1]","[0.004335962453819535,-0.19347131518422003]","[1,1,1]","[-0.14620868628899095,0.1256194392434959]","[1,1,1]","[-0.15238204562985713,-0.10442034821245505]","[1,1,1]","[0.1244090465735844,-0.07504440805046186]","[1,1,1]","[-0.054230383036250475,-0.12037118041645782]","[1,1,1]","[0.02,0.02]",81.5408,0,3,3,167,1,,,,,,,
,,,,,,,67d6cd20e6f88998bd004d61,682db42d345c96253c44187a,2025-05-21_14h15.11.335,cuing_paradigm_dot,2024.1.5,Win32,59.88023952,682d556593cb38ad0a074487,,,,,,,,,,,81.5417,82.0413,,,82.2922,82.9593,right,0.6384,,,,,,,,,0.5,,,,,,82.0414,82.2921,82.9594,"[-0.10433670032405855,-0.13074776577113364]","[-1,-1,-1]","[0.045670981136656776,0.03389241514777538]","[1,1,1]","[0.05072593485393739,-0.17582195115561922]","[-1,-1,-1]","[-0.10225474325348628,0.09967652956985304]","[-1,-1,-1]","[-0.10781893607220597,0.15649538041181105]","[-1,-1,-1]","[-0.1583085270752662,-0.01739087702585946]","[1,1,1]","[-0.010757039145185422,-0.005178171282383192]","[-1,-1,-1]","[-0.053720477268518065,-0.14017854951756137]","[1,1,1]","[-0.02101612050332567,0.08044983290360902]","[-1,-1,-1]","[0.07553582837221626,0.08265274177894824]","[-1,-1,-1]","[0.102261145276847,0.15917718688057056]","[-1,-1,-1]","[0.009733016720330173,-0.12467868482074439]","[1,1,1]","[0.06770599475879462,0.18091751885080867]","[-1,-1,-1]","[-0.03911938981934804,0.12354453445622463]","[1,1,1]","[0.1634065547068262,-0.05745811519507308]","[-1,-1,-1]","[0.15415205924868927,0.09384035201843446]","[-1,-1,-1]","[-0.08268006813056933,0.056875470571624426]","[-1,-1,-1]","[0.13027933754159302,-0.12379396894819485]","[1,1,1]","[0.005739282132859288,-0.06048456088489154]","[1,1,1]","[0.09396262018763206,-0.16053980045341704]","[1,1,1]","[0.0846319709267287,0.006765805034752156]","[-1,-1,-1]","[0.16592865289368322,0.022020572024659846]","[1,1,1]","[-0.13780153176630236,0.05265777648908526]","[1,1,1]","[0.1886520049249125,-0.012789884005854056]","[-1,-1,-1]","[-0.11008982919092167,-0.04145293954283729]","[-1,-1,-1]","[0.11072559557708811,-0.08304472091142875]","[1,1,1]","[-0.1468819601764155,-0.09827997133325433]","[1,1,1]","[-0.0014421654641549265,-0.1755443596679467]","[-1,-1,-1]","[0.04321194442759361,-0.09860448565788263]","[1,1,1]","[0.12379414810665075,0.03329889307191625]","[1,1,1]","[-0.07787119841934181,-0.08280057001848509]","[1,1,1]","[0.11546619066824386,0.07680535904359752]","[1,1,1]","[0.02,0.02]",84.0598,0,4,4,107,1,,,,,,,
,,,,,,,67d6cd20e6f88998bd004d61,682db42d345c96253c44187a,2025-05-21_14h15.11.335,cuing_paradigm_dot,2024.1.5,Win32,59.88023952,682d556593cb38ad0a074487,,,,,,,,,,,84.061,84.5605,,,84.8113,85.4617,right,0.6185,,,,,,,,,0.9,,,,,,84.5607,84.8112,85.4619,"[0.06970580735146956,0.10257622462213203]","[1,1,1]","[-0.08848649514398783,-0.10776413884075595]","[1,1,1]","[0.18270712693639993,0.02602776317053592]","[1,1,1]","[0.10885228912182734,0.045720529018152906]","[1,1,1]","[-0.10945319213532487,-0.1427849120138152]","[1,1,1]","[0.1241329846834763,-0.03454947339496202]","[1,1,1]","[0.17574643798801856,-0.07988878016275691]","[1,1,1]","[0.04464440648705161,-0.0965322544214361]","[1,1,1]","[-0.10451918917043011,0.13815678080826482]","[1,1,1]","[-0.015198711397845184,-0.074849593402966]","[1,1,1]","[-0.04441770147822105,0.061779247335785055]","[1,1,1]","[0.011470096422404097,-0.03107469650695825]","[1,1,1]","[-0.04753673003639238,0.10844377202544253]","[1,1,1]","[0.12373537509097764,0.08835049444832908]","[1,1,1]","[0.045686643581081446,0.012855694954638983]","[1,1,1]","[-0.17684007067150725,0.08125772142666285]","[1,1,1]","[-0.03640172117523665,-0.12377982055992451]","[1,1,1]","[0.017573412507356542,0.1925436620821105]","[1,1,1]","[0.04008403519211939,-0.13679560899026408]","[1,1,1]","[-0.1391968170001,0.006241263502824032]","[1,1,1]","[-0.11476305728177334,0.08727829387223655]","[1,1,1]","[0.09606838991366658,-0.14598450085354994]","[1,1,1]","[-0.017882588635940985,-0.17118013169187626]","[1,1,1]","[0.12956255987165258,-0.10260750619032011]","[-1,-1,-1]","[-0.0479685372105545,-0.026484723396807873]","[-1,-1,-1]","[0.033913560880209505,-0.17995936061184237]","[1,1,1]","[-0.0010333572916402377,0.013079581661337044]","[1,1,1]","[-0.08418650566932309,-0.009378310080640231]","[1,1,1]","[0.04641210578644068,0.1508402563288191]","[1,1,1]","[-0.1810269891409991,0.03209242804774575]","[1,1,1]","[-0.1331274934211039,-0.059917626342331554]","[1,1,1]","[0.006792019924334256,0.14525225781824994]","[-1,-1,-1]","[0.02,0.02]",86.5623,0,5,5,196,1,,,,,,,
,,,,,,,67d6cd20e6f88998bd004d61,682db42d345c96253c44187a,2025-05-21_14h15.11.335,cuing_paradigm_dot,2024.1.5,Win32,59.88023952,682d556593cb38ad0a074487,,,,,,,,,,,86.5631,87.0628,,,87.3019,88.1974,left,0.8797,,,,,,,,,0.45,,,,,,87.063,87.3019,88.1975,"[-0.09646688536496482,0.02397031145047751]","[1,1,1]","[0.0047485413797288475,0.14283946714032503]","[1,1,1]","[0.18227739598175707,-0.009628578586462298]","[1,1,1]","[0.17390262995546646,0.06947696761326534]","[1,1,1]","[-0.0880693015531857,-0.02255136812633878]","[-1,-1,-1]","[-0.15355306335667457,-0.044870792710113454]","[-1,-1,-1]","[-0.0438209947187296,0.16976760504333582]","[-1,-1,-1]","[-0.10761543557973725,0.10295488809241421]","[-1,-1,-1]","[0.08839559482172316,-0.045955081552212375]","[1,1,1]","[-0.035565453325719004,-0.1259297152708039]","[-1,-1,-1]","[-0.060644566669962215,0.09203931062954224]","[1,1,1]","[0.05598712738559773,-0.10933510039537868]","[1,1,1]","[-0.1515603145239036,0.014994303016313482]","[-1,-1,-1]","[0.1711718524929406,-0.08438570764934614]","[1,1,1]","[0.031855407662964935,0.033163647208644745]","[1,1,1]","[0.05791894773443188,0.11403249843702817]","[-1,-1,-1]","[-0.1427689034213303,0.0577255559903102]","[-1,-1,-1]","[0.10520218103849971,-0.10742117387897414]","[-1,-1,-1]","[0.06216885453670888,-0.006247377083979586]","[1,1,1]","[-0.09030406428961767,-0.12635097812573676]","[1,1,1]","[-0.0038482213045035363,-0.08194907654986132]","[-1,-1,-1]","[0.11833566379868421,0.05290781923576437]","[-1,-1,-1]","[0.0029503906872210117,-0.16639812456444145]","[-1,-1,-1]","[-0.12843391907666318,-0.09706803010404728]","[1,1,1]","[0.12537028775336018,-0.06989301407679313]","[-1,-1,-1]","[-0.14875242556742366,0.12878794505007418]","[-1,-1,-1]","[-0.0027679343518378003,0.005335659821487323]","[-1,-1,-1]","[0.09639118233306872,-0.14863318387744073]","[-1,-1,-1]","[0.09972137448520642,0.01457165317290828]","[1,1,1]","[-0.05552799617831284,0.02361160902030011]","[1,1,1]","[0.06561603986989532,0.05495163569263145]","[-1,-1,-1]","[0.11076731861414624,0.11934835905533692]","[-1,-1,-1]","[0.02,0.02]",89.2984,0,6,6,68,1,,,,,,,
,,,,,,,67d6cd20e6f88998bd004d61,682db42d345c96253c44187a,2025-05-21_14h15.11.335,cuing_paradigm_dot,2024.1.5,Win32,59.88023952,682d556593cb38ad0a074487,,,,,,,,,,,89.2994,89.7992,,,90.0499,90.5498,left,0.4679,,,,,,,,,0.1,,,,,,89.7992,90.0498,90.5499,"[0.11491682503949723,0.08805600124526816]","[-1,-1,-1]","[0.041887727571623255,0.160728166092304]","[-1,-1,-1]","[0.059574343583619606,-0.06509204743877066]","[1,1,1]","[-0.05173777360563528,-0.16803441792045243]","[-1,-1,-1]","[0.10469467344668645,0.1676773816883318]","[-1,-1,-1]","[-0.021844961700049195,0.18313176186119498]","[-1,-1,-1]","[0.07652091184573219,-0.023192675966349992]","[-1,-1,-1]","[-0.015031850079224621,0.04753484091220041]","[-1,-1,-1]","[-0.05317921502503236,0.07434593691832282]","[-1,-1,-1]","[-0.11590190781788821,0.09436579846410045]","[1,1,1]","[-0.13876775215611217,0.14162923384976697]","[-1,-1,-1]","[-0.07546759120597377,0.18058976667219487]","[-1,-1,-1]","[0.12501167649168954,-0.05467239641991467]","[-1,-1,-1]","[0.03220260146845118,-0.1181001549865133]","[-1,-1,-1]","[0.05306059650753549,0.04013610815572897]","[-1,-1,-1]","[0.06215347465630403,0.1132761186566778]","[-1,-1,-1]","[-0.03156622605330022,-0.042938041703258656]","[-1,-1,-1]","[0.05553342984428338,-0.17645893619923722]","[-1,-1,-1]","[0.02036678697965712,-0.017047373576817283]","[-1,-1,-1]","[-0.12139196703182735,-0.009426411157725953]","[-1,-1,-1]","[-0.14261463476020975,-0.0942872428909599]","[-1,-1,-1]","[-0.024142801882869918,0.14230243850537613]","[-1,-1,-1]","[0.19407784688784638,0.030177306763779173]","[-1,-1,-1]","[-0.05132860851467117,0.011842557089468688]","[-1,-1,-1]","[-0.05264527568348431,-0.11461216852565809]","[-1,-1,-1]","[0.07069655168552028,-0.13855349249088686]","[-1,-1,-1]","[-0.16473997787139222,0.013959524377343492]","[-1,-1,-1]","[0.15465292880549883,0.0070953877640693675]","[1,1,1]","[0.016774923668316868,-0.15820750528905198]","[-1,-1,-1]","[-0.10290271981798783,-0.06392563177031599]","[-1,-1,-1]","[-0.018276814102172235,-0.19862115533042035]","[-1,-1,-1]","[0.15164470085886633,0.05857791952462633]","[-1,-1,-1]","[0.02,0.02]",91.6506,0,7,7,10,1,,,,,,,
,,,,,,,67d6cd20e6f88998bd004d61,682db42d345c96253c44187a,2025-05-21_14h15.11.335,cuing_paradigm_dot,2024.1.5,Win32,59.88023952,682d556593cb38ad0a074487,,,,,,,,,,,91.6515,92.1512,,,92.4022,93.0188,right,0.5922,,,,,,,,,0.5,,,,,,92.1513,92.402,93.019,"[0.09222418956110975,0.014934795264783578]","[-1,-1,-1]","[0.04780826918577677,-0.024767814191423914]","[1,1,1]","[-0.092047966648395,-0.13128015990402467]","[1,1,1]","[0.07821560794186305,-0.1478278064979378]","[-1,-1,-1]","[-0.18594423574607913,-0.06993426146988144]","[1,1,1]","[0.14815166756162254,-0.1086875067288158]","[-1,-1,-1]","[-0.057323128782249703,0.1829779259460025]","[-1,-1,-1]","[-0.07442926971485138,0.0946130898146137]","[1,1,1]","[-0.018956157571088747,-0.07065370448684767]","[1,1,1]","[0.03337016381555212,0.06335225271194414]","[-1,-1,-1]","[-0.13253749517412697,0.14099249967945995]","[-1,-1,-1]","[-0.05898875506198613,0.14224002702230087]","[-1,-1,-1]","[-0.12819928714941486,-0.0007054619898480874]","[1,1,1]","[0.010956046224321921,0.01292638414998661]","[-1,-1,-1]","[-0.09306803609999541,-0.08984550694038862]","[-1,-1,-1]","[-0.04938001675536471,-0.1841161559784943]","[1,1,1]","[0.11096276908948761,-0.03165858279226711]","[-1,-1,-1]","[-0.005310802721263909,-0.19876976022860837]","[1,1,1]","[0.15128432440095038,-0.05185180185132128]","[1,1,1]","[-0.020817324139863543,-0.01457336353524173]","[-1,-1,-1]","[0.179766270626534,0.07646265757887713]","[-1,-1,-1]","[-0.05192723534902322,0.025944606108729888]","[-1,-1,-1]","[0.1154035031683558,0.058469376453480104]","[1,1,1]","[-0.031090233153012414,-0.1360228456561397]","[-1,-1,-1]","[-0.12027272665137342,0.05276007259855755]","[1,1,1]","[0.05933114747886547,-0.07103889455497965]","[1,1,1]","[0.030776597247203236,-0.17856826679819823]","[-1,-1,-1]","[0.02896958243345612,-0.1045421432503285]","[1,1,1]","[0.03349086154795668,0.14104389841533185]","[1,1,1]","[-0.15950822264064182,0.10746901393076184]","[1,1,1]","[0.09959642192555901,0.12031884559759133]","[-1,-1,-1]","[-0.09394519705697482,-0.030912293350570448]","[1,1,1]","[0.02,0.02]",94.1195,0,8,8,114,1,,,,,,,
,,,,,,,67d6cd20e6f88998bd004d61,682db42d345c96253c44187a,2025-05-21_14h15.11.335,cuing_paradigm_dot,2024.1.5,Win32,59.88023952,682d556593cb38ad0a074487,,,,,,,,,,,94.1204,94.6203,,,94.8713,95.4052,right,0.5066,,,,,,,,,0.55,,,,,,94.6204,94.8712,95.4053,"[0.08542955581344959,0.031193610817561373]","[1,1,1]","[0.08863430771241561,-0.12299975376397267]","[1,1,1]","[0.004964110629352724,-0.07131750197993521]","[1,1,1]","[-0.15852198423067312,0.02365953014691242]","[-1,-1,-1]","[-0.14581891055565166,-0.043063297036002667]","[1,1,1]","[0.18052523104723056,0.03410096969925312]","[1,1,1]","[0.033885700771483444,-0.11298800681080322]","[1,1,1]","[-0.03484036534792117,-0.058086981788439775]","[-1,-1,-1]","[-0.11187348313441192,-0.06609560713905735]","[-1,-1,-1]","[0.06015927345059271,0.1666329844906381]","[1,1,1]","[0.013895107522993923,-0.1663624672052938]","[-1,-1,-1]","[-0.07352828208187,0.03638559444375242]","[1,1,1]","[-0.023920752864501328,-0.11131629289165278]","[-1,-1,-1]","[0.042252629738748874,0.11689255661856644]","[-1,-1,-1]","[-0.07816616245912886,0.07819267223389416]","[1,1,1]","[0.10761487462574519,0.15520080703283967]","[1,1,1]","[-0.0021835011984987405,0.11097133710510404]","[1,1,1]","[-0.14222582350781318,0.11050896594113094]","[-1,-1,-1]","[0.01887468524517385,0.041832500881550425]","[-1,-1,-1]","[0.004079387058183632,0.17932547755553502]","[-1,-1,-1]","[0.14171861182055645,0.09335882880296997]","[1,1,1]","[0.15488667482442742,-0.01922214272711008]","[1,1,1]","[0.09658831541292862,-0.06267202103117028]","[1,1,1]","[0.0634482844114511,-0.008501804793581638]","[-1,-1,-1]","[0.09165547725436703,0.1160191513755677]","[1,1,1]","[-0.0760412475274258,0.12094270900109767]","[-1,-1,-1]","[0.1278553317164745,-0.10646445120546764]","[1,1,1]","[-0.14342857565849623,-0.12702913101963018]","[-1,-1,-1]","[-0.06382226475675334,-0.08700754937056407]","[1,1,1]","[-0.04687627011869175,-0.1463663726254932]","[-1,-1,-1]","[-0.1881007150194517,0.06048451819237091]","[-1,-1,-1]","[0.05879471942711688,0.06492481864604645]","[1,1,1]","[0.02,0.02]",96.5055,0,9,9,124,1,,,,,,,
,,,,,,,67d6cd20e6f88998bd004d61,682db42d345c96253c44187a,2025-05-21_14h15.11.335,cuing_paradigm_dot,2024.1.5,Win32,59.88023952,682d556593cb38ad0a074487,,,,,,,,,,,96.5063,97.0058,,,97.257,97.8903,left,0.6014,,,,,,,,,0.45,,,,,,97.0059,97.257,97.8903,"[0.07552702579457535,-0.08067226813008949]","[-1,-1,-1]","[-0.0079995577705904,0.18511292806073126]","[1,1,1]","[0.04614677063913858,0.09816700354259837]","[-1,-1,-1]","[-0.05547140772913077,0.06554048188788753]","[-1,-1,-1]","[-0.07515204141305601,-0.07559179076121587]","[1,1,1]","[0.03154006124554947,0.003784615558266732]","[-1,-1,-1]","[-0.035298685432512696,-0.19483602122884325]","[1,1,1]","[0.07920331730449294,0.12592451815851144]","[-1,-1,-1]","[-0.13744299023983328,-0.1269357439726208]","[1,1,1]","[0.010887180118754839,-0.18479791250823094]","[1,1,1]","[0.13699701389905575,0.10979081502662429]","[1,1,1]","[0.11126914381255533,0.0622151617477362]","[1,1,1]","[0.0668479443271014,0.05861730353523669]","[1,1,1]","[0.1237800194909634,-0.10211938687068979]","[-1,-1,-1]","[-0.0024759991182731977,0.1434835348368658]","[-1,-1,-1]","[-0.12733170431842403,0.13630318206398553]","[-1,-1,-1]","[-0.007697625708137199,0.018555479393175412]","[1,1,1]","[0.037711967322836375,-0.03728070564077259]","[1,1,1]","[-0.03635272462833648,-0.133501316259308]","[-1,-1,-1]","[-0.027426627032935975,-0.045528537984289526]","[-1,-1,-1]","[-0.1603456976480703,0.014439864390859716]","[-1,-1,-1]","[-0.16242655454399635,0.0902382257754354]","[-1,-1,-1]","[-0.07833170055033949,-0.1365894522061135]","[-1,-1,-1]","[0.12346452021701053,-0.14697777891486102]","[1,1,1]","[0.18975434919041653,0.05150192527904469]","[1,1,1]","[0.029491133636800067,-0.12168211002030031]","[-1,-1,-1]","[-0.07147127540764765,-0.034905609251907416]","[1,1,1]","[-0.08745778833642391,0.1455512075265289]","[-1,-1,-1]","[0.11408035087750854,-0.05039278174456228]","[-1,-1,-1]","[-0.12109901499110144,0.03271713423013571]","[-1,-1,-1]","[0.1556478154586126,-0.017266272566030805]","[-1,-1,-1]","[0.11081312828355556,-0.010324493546348953]","[1,1,1]","[0.02,0.02]",98.991,0,10,10,85,1,,,,,,,
,,,,,,,67d6cd20e6f88998bd004d61,682db42d345c96253c44187a,2025-05-21_14h15.11.335,cuing_paradigm_dot,2024.1.5,Win32,59.88023952,682d556593cb38ad0a074487,,,,,,,,,,,98.9916,99.4915,,,99.7424,100.159,right,0.4029,,,,,,,,,0.9,,,,,,99.4915,99.7423,100.1591,"[0.1749095233047953,0.050641636951251186]","[1,1,1]","[-0.05254489203621961,0.0326207915597442]","[1,1,1]","[0.07278456846139252,0.17093244385476242]","[1,1,1]","[-0.01420271513076874,-0.05278881426239656]","[1,1,1]","[0.137227776203881,-0.0902584979573848]","[1,1,1]","[0.005256596993585185,0.11726904108178766]","[1,1,1]","[-0.005266564316286861,0.033871136161586206]","[1,1,1]","[-0.0025103985123834734,-0.13447105255655273]","[1,1,1]","[-0.09030407530372013,-0.03921381702752682]","[1,1,1]","[-0.0914688494379101,-0.13039685461217718]","[1,1,1]","[0.08023289804714921,-0.06843692735204038]","[1,1,1]","[-0.08247023011753511,0.13238247734183642]","[-1,-1,-1]","[-0.16668289384913046,-0.026110206164428065]","[1,1,1]","[0.09426091347551964,-0.12587967719693213]","[1,1,1]","[0.11807223080317536,0.06747392338815296]","[1,1,1]","[0.04290801668845465,-0.09471588367943845]","[1,1,1]","[-0.1043326162059219,0.02543630975345]","[1,1,1]","[-0.0153316117172585,0.19645822544656844]","[1,1,1]","[-0.04320976728663708,-0.16139624156400526]","[1,1,1]","[-0.15804765080092065,0.05670423429867027]","[1,1,1]","[0.05933324297965059,0.07247736289204536]","[-1,-1,-1]","[-0.012575256144824767,-0.010891489589539985]","[1,1,1]","[-0.05379074422961823,-0.012780557657974577]","[-1,-1,-1]","[0.14777624560605496,0.10432290347252209]","[1,1,1]","[0.19718333441233246,-0.017538721902885406]","[1,1,1]","[-0.14242888766841705,-0.09282624519561425]","[1,1,1]","[0.17937637359423175,-0.07095633436133908]","[1,1,1]","[-0.18691061030759454,-0.06205039361775918]","[1,1,1]","[0.12804472820406923,-0.012283242437572334]","[1,1,1]","[-0.132698773729752,-0.1316851806338148]","[1,1,1]","[-0.042763669848754626,0.09654205779098972]","[1,1,1]","[-0.059886533415955207,-0.07751359005511524]","[1,1,1]","[0.02,0.02]",101.2604,0,11,11,194,1,,,,,,,
,,,,,,,67d6cd20e6f88998bd004d61,682db42d345c96253c44187a,2025-05-21_14h15.11.335,cuing_paradigm_dot,2024.1.5,Win32,59.88023952,682d556593cb38ad0a074487,,,,,,,,,,,101.2614,101.7612,,,102.0003,102.8289,left,0.8065,,,,,,,,,0.4,,,,,,101.7613,102.0003,102.829,"[-0.0679767148347096,-0.10001695296570512]","[-1,-1,-1]","[0.14022637221993414,-0.06694968345690129]","[1,1,1]","[0.1285583132088644,0.14549096918229112]","[-1,-1,-1]","[0.16272167851303523,-0.002754470543494594]","[-1,-1,-1]","[0.05797841137970724,0.054020991375446525]","[-1,-1,-1]","[0.07189737730147662,0.17796181899157507]","[-1,-1,-1]","[-0.12812922940949834,0.13083719570555563]","[1,1,1]","[0.10356371237611574,0.07332981760399554]","[-1,-1,-1]","[0.1489402987469295,0.041521655071154934]","[1,1,1]","[0.003912351991069075,0.12355090274551021]","[-1,-1,-1]","[-0.1310635291626174,-0.10608069314358655]","[-1,-1,-1]","[0.1661736137722719,-0.10004160874937573]","[1,1,1]","[-0.1439581704123487,0.03133300792000823]","[1,1,1]","[0.09690945387682304,-0.07992480705067735]","[-1,-1,-1]","[0.08202216984608006,0.021736297576227158]","[1,1,1]","[-0.02991840766980701,-0.18951245700488578]","[-1,-1,-1]","[-0.07192822567239193,0.05619889132471417]","[-1,-1,-1]","[-0.05817962966208669,0.18606601269214693]","[-1,-1,-1]","[-0.010681862154901389,-0.06793055596147328]","[-1,-1,-1]","[0.03337692843212995,-0.18522769865507627]","[-1,-1,-1]","[-0.08039830108309155,-0.03827563108331033]","[1,1,1]","[0.01892242717178793,-0.1368068513636806]","[-1,-1,-1]","[0.04160634121457691,-0.012359308341380777]","[1,1,1]","[-0.041371795896602205,-0.13077024574266297]","[1,1,1]","[0.03372510643465753,0.16529832750085124]","[-1,-1,-1]","[-0.0477887538180939,-0.014112879870441415]","[1,1,1]","[0.08626041958344954,-0.12838420865709477]","[-1,-1,-1]","[0.08562012392838966,0.11951804146168288]","[1,1,1]","[-0.1845250098800935,-0.0036994811968224612]","[1,1,1]","[0.1867419951774904,0.06295137402662047]","[-1,-1,-1]","[0.15021916019817325,0.10368652238445718]","[-1,-1,-1]","[-0.010688072577110415,0.05405555560488374]","[1,1,1]","[0.02,0.02]",103.9297,0,12,12,59,1,,,,,,,
,,,,,,,67d6cd20e6f88998bd004d61,682db42d345c96253c44187a,2025-05-21_14h15.11.335,cuing_paradigm_dot,2024.1.5,Win32,59.88023952,682d556593cb38ad0a074487,,,,,,,,,,,103.9306,104.4302,,,104.6864,105.3816,left,0.6795,,,,,,,,,0.4,,,,,,104.4302,104.6864,105.3817,"[0.0294132626566529,0.032084729735957884]","[1,1,1]","[0.07834555123742644,0.09670281850231927]","[-1,-1,-1]","[-0.07900801963122328,-0.14679361331239502]","[-1,-1,-1]","[0.13794163282087968,0.03475821762272346]","[-1,-1,-1]","[-0.031012205087351224,-0.1309351266219912]","[1,1,1]","[0.15042970748183904,-0.004396567212513725]","[-1,-1,-1]","[-0.1197870033546203,-0.00045559047353902496]","[-1,-1,-1]","[-0.12108757097553598,-0.06134606388472476]","[-1,-1,-1]","[0.07834346828901464,0.16379452736496378]","[1,1,1]","[0.0039018285232449777,-0.08422846447905052]","[-1,-1,-1]","[0.0176890347390576,0.1776181402667586]","[-1,-1,-1]","[-0.12958840462169632,-0.11889822758645323]","[1,1,1]","[0.1623216900441123,-0.05452562008495892]","[1,1,1]","[-0.05918462468693654,0.10098731841459276]","[-1,-1,-1]","[0.10967660790725321,-0.09045860835046082]","[-1,-1,-1]","[-0.18080972667377318,-0.001065134863767575]","[-1,-1,-1]","[-0.09240237224412583,0.04911967322129677]","[1,1,1]","[0.12548070070366665,0.12880455315902814]","[1,1,1]","[-0.13775057225275983,0.12294230540345408]","[1,1,1]","[0.04566475235213924,0.12035703998133969]","[-1,-1,-1]","[-0.05629882584828451,-0.09061518338082321]","[-1,-1,-1]","[0.07880427734177714,-0.06214576339714259]","[-1,-1,-1]","[0.16146152628265087,-0.1157244266396502]","[-1,-1,-1]","[-0.049231971157112676,0.17584738390358443]","[1,1,1]","[-0.14821562703696822,0.03315759683513007]","[1,1,1]","[0.09536113307245365,0.04268646658807469]","[1,1,1]","[-0.05516319660302207,-0.041872757577139846]","[-1,-1,-1]","[0.012618439033600052,0.08085126889635331]","[-1,-1,-1]","[-0.17078901448747041,0.07418905325756057]","[1,1,1]","[0.07807092450288858,-0.012030543679547433]","[-1,-1,-1]","[0.016089515224868248,-0.024565171047096206]","[-1,-1,-1]","[-0.10614212716604736,0.0972408694016615]","[1,1,1]","[0.02,0.02]",106.4818,0,13,13,40,1,,,,,,,
,,,,,,,67d6cd20e6f88998bd004d61,682db42d345c96253c44187a,2025-05-21_14h15.11.335,cuing_paradigm_dot,2024.1.5,Win32,59.88023952,682d556593cb38ad0a074487,,,,,,,,,,,106.4824,106.9828,,,107.2359,107.7004,right,0.4487,,,,,,,,,0.6,,,,,,106.9829,107.2359,107.7005,"[0.1027254016811661,-0.10781413356493605]","[-1,-1,-1]","[0.13734904391833722,0.14211941896798133]","[1,1,1]","[0.038098917436174384,0.03147528128880514]","[-1,-1,-1]","[0.09613156645675446,0.04010842535452822]","[-1,-1,-1]","[-0.03837370342094451,0.1460098517591496]","[-1,-1,-1]","[0.16472044540897515,-0.0723011474950018]","[1,1,1]","[0.05239242251430646,0.1093932308178927]","[1,1,1]","[-0.10241875788236159,0.09756535909280208]","[1,1,1]","[0.027182243738822668,-0.1518044227613175]","[-1,-1,-1]","[-0.024918148693093643,0.09695797695043933]","[-1,-1,-1]","[0.10216896628754453,0.16999385763369285]","[-1,-1,-1]","[-0.06280069324221435,-0.07800768411287845]","[1,1,1]","[-0.09609645483726684,0.031412736205546105]","[1,1,1]","[0.053228882525505006,-0.09439721750764522]","[-1,-1,-1]","[0.013114696833355666,0.12154026972611004]","[1,1,1]","[0.02324860314971714,-0.009761844154374894]","[1,1,1]","[0.0943427336926895,0.10739993324816836]","[-1,-1,-1]","[-0.01693589151709446,-0.1168181747932944]","[1,1,1]","[0.18824962261586997,0.003345162416307287]","[1,1,1]","[0.1634976525369323,0.05912939300595214]","[1,1,1]","[0.08592454414878811,-0.14585168979723714]","[1,1,1]","[-0.06567725128550712,0.08167284016879704]","[-1,-1,-1]","[-0.09563263221687238,-0.1621289365045415]","[-1,-1,-1]","[-0.15628900432931822,0.12060804787781047]","[-1,-1,-1]","[-0.1632082751831589,-0.003765033223974429]","[-1,-1,-1]","[0.0006358526571071454,0.060937648864454595]","[1,1,1]","[0.011386299154985909,0.18410214201410852]","[1,1,1]","[-0.04730394632679103,-0.0099214308998708]","[1,1,1]","[-0.15166630058068034,-0.12955894077432634]","[1,1,1]","[-0.10233434460015753,-0.02406439095773161]","[1,1,1]","[-0.026135504486145773,0.02609984375242207]","[1,1,1]","[0.056380280574750224,-0.03425017758418581]","[1,1,1]","[0.02,0.02]",108.8012,0,14,14,172,1,,,,,,,
,,,,,,,67d6cd20e6f88998bd004d61,682db42d345c96253c44187a,2025-05-21_14h15.11.335,cuing_paradigm_dot,2024.1.5,Win32,59.88023952,682d556593cb38ad0a074487,,,,,,,,,,,108.8022,109.3015,,,109.541,110.7034,right,1.1485,,,,,,,,,0.6,,,,,,109.3016,109.5409,110.7036,"[-0.024029522049656315,-0.12127558023330649]","[1,1,1]","[-0.12444269106505815,0.09297160083991403]","[1,1,1]","[-0.04293997059674328,-0.17949551683795711]","[1,1,1]","[0.12947686707620779,-0.09809959975576084]","[1,1,1]","[0.1374046716008932,0.05984302983292701]","[-1,-1,-1]","[-0.0723260989950137,0.09273716970010867]","[-1,-1,-1]","[0.11346214866800278,0.09392489393134948]","[-1,-1,-1]","[0.03307813770409158,0.009967138338377746]","[1,1,1]","[0.07459478258517376,-0.18214213498570195]","[-1,-1,-1]","[-0.1800036698327496,-0.031280074502073686]","[1,1,1]","[-0.07939843445675687,-0.118183508271391]","[1,1,1]","[-0.15013422593618841,0.011052032700541815]","[1,1,1]","[-0.11011550590073932,-0.002456320791922978]","[-1,-1,-1]","[-0.15856366517541556,-0.11757119452010717]","[1,1,1]","[-0.061838678331442354,-0.036944228837502056]","[-1,-1,-1]","[0.01877830517414142,0.10549445144490514]","[1,1,1]","[0.18241006450154845,-0.011988527450856375]","[-1,-1,-1]","[0.18244840100468693,0.04408468836248262]","[1,1,1]","[0.00331524952872032,0.15712634548022245]","[-1,-1,-1]","[-0.016810721676665703,-0.07964182880347144]","[1,1,1]","[-0.13374161702518236,-0.03570443620854415]","[1,1,1]","[0.15771453917792372,-0.055686724170227256]","[-1,-1,-1]","[-0.01893537941262246,-0.035890613899507914]","[-1,-1,-1]","[0.00977322570959435,0.046356005142923276]","[1,1,1]","[-0.025586772628796915,0.023327796366046497]","[-1,-1,-1]","[-0.11929548074323941,-0.13066119071611654]","[1,1,1]","[0.08593589471560345,0.06239411299737875]","[1,1,1]","[-0.09333750808845259,0.05248758760287487]","[-1,-1,-1]","[0.08090356528197808,0.12349893987472049]","[1,1,1]","[0.04588280914139443,0.16109004340678973]","[1,1,1]","[0.06321714306128025,-0.06367713762844322]","[1,1,1]","[0.08500961186338879,-0.012232542054799853]","[-1,-1,-1]","[0.02,0.02]",111.8039,0,15,15,162,1,,,,,,,
,,,,,,,67d6cd20e6f88998bd004d61,682db42d345c96253c44187a,2025-05-21_14h15.11.335,cuing_paradigm_dot,2024.1.5,Win32,59.88023952,682d556593cb38ad0a074487,,,,,,,,,,,111.8049,112.3044,,,112.5556,113.4727,left,0.8863,,,,,,,,,0.5,,,,,,112.3045,112.5554,113.4728,"[0.16351260979668145,-0.03256341045737256]","[1,1,1]","[0.08555375892775492,-0.12991008455841063]","[-1,-1,-1]","[0.11116483630412033,0.00631833791468916]","[1,1,1]","[-0.08568251761923973,0.01058940979840236]","[1,1,1]","[0.13959531248581677,-0.09627665697330115]","[1,1,1]","[-0.11827120641896667,0.05964413141280146]","[1,1,1]","[0.04808120855079523,-0.027597430861742808]","[-1,-1,-1]","[-0.10625792797875826,-0.14509378849071342]","[1,1,1]","[-0.007721450888462903,-0.009185902569460313]","[-1,-1,-1]","[0.1911282026103296,0.017498757465588932]","[-1,-1,-1]","[-0.10185369063777347,0.1283153371961714]","[1,1,1]","[-0.03286826214684875,-0.15030077857237767]","[1,1,1]","[-0.1548467693718596,0.043156146622935376]","[1,1,1]","[0.04692021838953081,0.18036334245675092]","[-1,-1,-1]","[0.10799929405206354,0.15451191044293472]","[-1,-1,-1]","[0.06971021881840929,0.07561968287346346]","[-1,-1,-1]","[-0.04359905857077401,0.09608546660499008]","[-1,-1,-1]","[0.13114546968830598,0.0629613029461972]","[-1,-1,-1]","[0.10104236882357061,0.11338690937007737]","[-1,-1,-1]","[0.06054376143855398,0.02619866169606981]","[-1,-1,-1]","[0.007975578560539168,-0.10901411362774899]","[1,1,1]","[-0.020426372679455226,0.03921090741265427]","[-1,-1,-1]","[-0.1586013026420341,-0.018717044421973743]","[-1,-1,-1]","[0.06672613632097589,0.14437477234778606]","[1,1,1]","[-0.05427700940831873,-0.09818431362556819]","[1,1,1]","[-0.0715861144154397,0.17552557798537247]","[-1,-1,-1]","[0.01737395681703191,0.11050244876951204]","[1,1,1]","[0.058447094471460216,-0.15942933041684043]","[-1,-1,-1]","[-0.11696064308513507,-0.05008839647062056]","[-1,-1,-1]","[-0.023582843235650342,0.19202204203747078]","[1,1,1]","[0.023021918208163673,-0.19068967792793137]","[1,1,1]","[-0.17749003305143102,0.08315015265722518]","[1,1,1]","[0.02,0.02]",114.5736,0,16,16,108,1,,,,,,,
,,,,,,,67d6cd20e6f88998bd004d61,682db42d345c96253c44187a,2025-05-21_14h15.11.335,cuing_paradigm_dot,2024.1.5,Win32,59.88023952,682d556593cb38ad0a074487,,,,,,,,,,,114.5745,115.0742,,,115.3251,116.1081,right,0.7562,,,,,,,,,0.9,,,,,,115.0742,115.325,116.1083,"[-0.03648127800886381,0.026357260481850903]","[1,1,1]","[0.016755413281512803,0.1688355767705386]","[1,1,1]","[-0.12403509866242278,-0.05995669656225119]","[1,1,1]","[-0.02901945708641414,0.14693856460094792]","[1,1,1]","[0.15654109381485648,-0.11709078739478417]","[1,1,1]","[-0.0866761099678722,-0.019561339391766616]","[1,1,1]","[-0.016058232169069587,-0.12389125816566333]","[1,1,1]","[0.04731552794559805,0.007766592798333891]","[1,1,1]","[0.044314124052291196,-0.1586176388957813]","[1,1,1]","[-0.11881791813807707,0.010400837579628827]","[1,1,1]","[0.05774479477130881,0.12133595729921474]","[1,1,1]","[-0.013944002646269096,-0.045210740925469166]","[1,1,1]","[0.03462563200425829,-0.06882932870225343]","[-1,-1,-1]","[0.11591635927540136,-0.15698952601354663]","[1,1,1]","[-0.0563380494090183,-0.11412768307183704]","[1,1,1]","[-0.004668718138034389,-0.1820870240835657]","[1,1,1]","[0.02858740375935574,0.09183080794283897]","[1,1,1]","[-0.1744059628911649,-0.04370356054137473]","[1,1,1]","[-0.046705758510148174,-0.1640319564955465]","[-1,-1,-1]","[0.08674977015705085,-0.11409220002956189]","[1,1,1]","[0.14400062509268205,0.0951339490909581]","[1,1,1]","[-0.067332077519043,0.08837813149094481]","[1,1,1]","[-0.11809178771024433,0.10151885899322019]","[-1,-1,-1]","[0.09103070797307014,0.060649583080470235]","[1,1,1]","[-0.1652761087364599,0.10792131629943302]","[1,1,1]","[-0.09346373632250451,-0.16035786326808396]","[1,1,1]","[-0.09721015629008989,-0.09351975158506025]","[1,1,1]","[0.16140204172657152,-0.017128617042631886]","[1,1,1]","[-0.025219560016236126,0.07671091150203085]","[1,1,1]","[0.0946018149630699,0.009366722911964264]","[1,1,1]","[0.11292631271831242,0.12664990999684766]","[1,1,1]","[0.00810176259269444,0.1279230457826053]","[1,1,1]","[0.02,0.02]",117.2096,0,17,17,184,1,,,,,,,
,,,,,,,67d6cd20e6f88998bd004d61,682db42d345c96253c44187a,2025-05-21_14h15.11.335,cuing_paradigm_dot,2024.1.5,Win32,59.88023952,682d556593cb38ad0a074487,,,,,,,,,,,117.2105,117.71,,,117.9608,118.811,left,0.8403,,,,,,,,,0.1,,,,,,117.7101,117.9607,118.8112,"[0.15956259733739164,0.09895775779849966]","[-1,-1,-1]","[-0.07091748852075382,-0.11358479685034793]","[-1,-1,-1]","[0.04552776752038008,-0.07030663340275488]","[-1,-1,-1]","[-0.12698728097468703,-0.09518444958796748]","[-1,-1,-1]","[-0.08769530276143225,-0.006467616153585646]","[-1,-1,-1]","[-0.017215390312431283,-0.023616816015481108]","[-1,-1,-1]","[0.04920720297400589,0.04822558338958769]","[-1,-1,-1]","[0.10174994822335452,0.08026756445699783]","[-1,-1,-1]","[-0.038744548429248356,-0.17340371904868024]","[-1,-1,-1]","[0.1220357878533787,0.14811383749489032]","[-1,-1,-1]","[0.020012044270979135,0.178915078068071]","[-1,-1,-1]","[0.07689777281575835,-0.1091887813706151]","[-1,-1,-1]","[0.14768270754534887,0.03263848940340751]","[-1,-1,-1]","[0.004567569242265536,-0.18675149989764286]","[1,1,1]","[0.060622067578420494,0.10367558557037596]","[-1,-1,-1]","[-0.02933133921404002,-0.08749799533009618]","[-1,-1,-1]","[-0.14115237126636526,0.010417933967557847]","[1,1,1]","[0.06992580588505275,0.1539315545988872]","[1,1,1]","[0.12433675958617903,-0.10659146921036076]","[-1,-1,-1]","[-0.18383204140676457,0.028997201242554806]","[-1,-1,-1]","[0.05228403155325046,-0.1824288514321692]","[-1,-1,-1]","[0.19762175159064002,0.02181787860626205]","[-1,-1,-1]","[-0.006486428180971696,0.10518634538019797]","[-1,-1,-1]","[-0.16989926103248126,-0.08682531286483552]","[-1,-1,-1]","[-0.15880845475281885,0.07891551645704901]","[-1,-1,-1]","[-0.051155804737505486,0.1234245017931176]","[-1,-1,-1]","[0.10921340382510564,-0.010440922534376994]","[-1,-1,-1]","[-0.11237531075883567,0.07820103507419068]","[-1,-1,-1]","[-0.06274292583225936,0.17680858251356765]","[-1,-1,-1]","[-0.004521134254513335,0.01583594528479954]","[-1,-1,-1]","[-0.08569113420156009,-0.047537408982868054]","[-1,-1,-1]","[0.07593381919161989,-0.03444699659387132]","[-1,-1,-1]","[0.02,0.02]",119.9118,0,18,18,6,1,,,,,,,
,,,,,,,67d6cd20e6f88998bd004d61,682db42d345c96253c44187a,2025-05-21_14h15.11.335,cuing_paradigm_dot,2024.1.5,Win32,59.88023952,682d556593cb38ad0a074487,,,,,,,,,,,119.9125,120.4124,,,120.6631,121.2799,right,0.6023,,,,,,,,,0.5,,,,,,120.4124,120.663,121.2799,"[-0.021702152308969002,-0.1384671693806071]","[-1,-1,-1]","[0.07352312895105476,0.03287796423426549]","[-1,-1,-1]","[0.079249520001072,0.17790743373310836]","[-1,-1,-1]","[-0.16136802875484374,0.1108215522065904]","[-1,-1,-1]","[-0.07833032164509716,-0.16231058593252937]","[1,1,1]","[0.1580580688973761,0.10493890734196548]","[1,1,1]","[0.009061549496655963,-0.08833780276867408]","[-1,-1,-1]","[-0.0009565953370685431,0.12876837934833416]","[1,1,1]","[-0.014296556999239455,-0.026824393642787478]","[1,1,1]","[-0.10802878187205647,-0.07211200669095152]","[-1,-1,-1]","[-0.03334791065418646,0.0903045787924802]","[1,1,1]","[-0.16328702481501067,-0.07216487149035487]","[1,1,1]","[-0.06745765447720689,-0.06071508682784062]","[-1,-1,-1]","[-0.0965089729887531,0.029592771481156376]","[1,1,1]","[0.17940563106096696,-0.010931797174601113]","[-1,-1,-1]","[0.0662640295979916,-0.12592092197760818]","[1,1,1]","[-0.133385086771689,-0.11421893742172888]","[-1,-1,-1]","[-0.18916514081700292,0.03270823092274574]","[-1,-1,-1]","[0.15956964263751333,-0.04995574805179976]","[-1,-1,-1]","[-0.16468956640737678,0.06693635658329383]","[1,1,1]","[0.11409982757055846,0.0056305500660071214]","[-1,-1,-1]","[-0.16033875100680442,-0.030847760091577404]","[1,1,1]","[-0.03657783200701638,0.16793471833299403]","[1,1,1]","[0.1209214833848859,-0.06354241586525412]","[-1,-1,-1]","[0.15648830025367794,0.05137405914819246]","[1,1,1]","[0.05785739922954369,-0.05279142859226319]","[1,1,1]","[-0.02494804451309357,0.021494828363936024]","[1,1,1]","[-0.12462828685906878,0.1485141769900681]","[1,1,1]","[0.12623142759335326,-0.12672708192138243]","[1,1,1]","[0.051599579075978126,0.12914093325558726]","[-1,-1,-1]","[-0.13730222114438656,0.020722228268336897]","[-1,-1,-1]","[0.1714067291932058,-0.08918644877742417]","[-1,-1,-1]","[0.02,0.02]",122.381,0,19,19,94,1,,,,,,,
,,,,,,,67d6cd20e6f88998bd004d61,682db42d345c96253c44187a,2025-05-21_14h15.11.335,cuing_paradigm_dot,2024.1.5,Win32,59.88023952,682d556593cb38ad0a074487,,,,,,,,,,,122.3816,122.8813,,,123.1324,123.7998,right,0.6503,,,,,,,,,0.6,,,,,,122.8813,123.1323,123.7999,"[0.06580925084745012,0.04693014620269964]","[1,1,1]","[-0.06597262207576507,0.058868631336270016]","[1,1,1]","[-0.006433663919648368,-0.01537609683922248]","[1,1,1]","[0.09596406713767401,0.17442616824559354]","[1,1,1]","[0.07874334514256244,-0.15363942439360342]","[1,1,1]","[-0.1333250972993326,-0.13642883737898384]","[1,1,1]","[-0.17772839650084768,-0.00843700854064927]","[1,1,1]","[0.19165688947923118,-0.04669238924733961]","[1,1,1]","[0.141791728274382,-0.06185327475254142]","[-1,-1,-1]","[0.04980509592371883,-0.03586179472529784]","[-1,-1,-1]","[-0.18298475322090949,-0.06719769042049331]","[1,1,1]","[0.09949178449146853,-0.029305594658383217]","[-1,-1,-1]","[0.10057660677336193,0.10648270781632638]","[1,1,1]","[-0.09082464223352264,-0.03217529945615166]","[-1,-1,-1]","[0.11842419373138866,0.023395063575264368]","[-1,-1,-1]","[0.19113516193355753,0.01358031211273942]","[-1,-1,-1]","[-0.006435158557046872,0.13441129173326624]","[1,1,1]","[0.13915868741511922,0.12237874759291571]","[-1,-1,-1]","[0.05974048546550088,0.08982003878247832]","[-1,-1,-1]","[-0.09829294668126755,0.1228551708225774]","[-1,-1,-1]","[0.03936902308488576,-0.0870766942982693]","[1,1,1]","[-0.16668093412353033,0.05026444762744295]","[-1,-1,-1]","[-0.07645790144597597,-0.11267357054711691]","[1,1,1]","[0.023079831330687604,0.05736703233154606]","[1,1,1]","[0.028427112046312063,0.19193119043703266]","[1,1,1]","[-0.05801483848135379,-0.18018350620709786]","[1,1,1]","[-0.03150392247884768,-0.09928038677378932]","[-1,-1,-1]","[-0.023681832757261632,0.182772647296187]","[1,1,1]","[0.1254763090503399,-0.13233817824247152]","[-1,-1,-1]","[-0.020128043840370476,0.03030279289046419]","[-1,-1,-1]","[-0.007577035062865741,0.08486578289535007]","[1,1,1]","[-0.06525653344472429,0.14738795890511255]","[1,1,1]","[0.02,0.02]",124.9002,0,20,20,171,1,,,,,,,
,,,,,,,67d6cd20e6f88998bd004d61,682db42d345c96253c44187a,2025-05-21_14h15.11.335,cuing_paradigm_dot,2024.1.5,Win32,59.88023952,682d556593cb38ad0a074487,,,,,,,,,,,124.9016,125.4007,,,125.6513,126.0686,right,0.402,,,,,,,,,0.9,,,,,,125.4007,125.6512,126.0687,"[0.16684006175457886,-0.013281672319447796]","[1,1,1]","[0.035146343332175006,-0.02443293467106022]","[1,1,1]","[-0.07104625368423977,-0.001826477315995918]","[1,1,1]","[0.16415108462606112,0.03401373429351787]","[1,1,1]","[0.028613566705955856,0.0973854044959217]","[1,1,1]","[-0.13557139810916743,0.007534632337239224]","[1,1,1]","[-0.13814048552970254,0.0949296064682854]","[1,1,1]","[0.04041091733060559,0.021548761730680162]","[1,1,1]","[0.13146884833128047,-0.047826728081763255]","[1,1,1]","[-0.0522001997245794,0.13945444600629267]","[1,1,1]","[0.07755919562727015,0.056406401991023765]","[1,1,1]","[0.11262813548137304,0.14417704838047965]","[1,1,1]","[0.005427783414020079,-0.06446120783992142]","[1,1,1]","[0.03795539272358349,0.16445315575216388]","[-1,-1,-1]","[-0.04065372499590839,-0.08402178207459345]","[1,1,1]","[0.010426928447244585,-0.18181314554981645]","[1,1,1]","[0.13192697646805074,0.07238949944997727]","[1,1,1]","[-0.1761808897053153,-0.010545548978732784]","[1,1,1]","[0.12230336511672883,-0.14692027798454405]","[1,1,1]","[-0.13135183124306304,-0.10577730962205112]","[1,1,1]","[-0.00866262418533839,-0.0158585033976026]","[1,1,1]","[0.07751340566341518,-0.06884336919643086]","[-1,-1,-1]","[-0.17289506301795923,0.062019411676538426]","[1,1,1]","[0.05285910938432752,-0.12144593540435351]","[1,1,1]","[-0.04147927814430199,-0.15888317340422475]","[1,1,1]","[-0.12817261021811222,-0.05168105378813327]","[1,1,1]","[-0.0023883867115918654,0.038882215239300966]","[-1,-1,-1]","[-0.044083238746255735,0.08232141676426742]","[1,1,1]","[-0.047853827278708266,0.18475188971921574]","[1,1,1]","[0.01091342711363015,0.19779238014146688]","[1,1,1]","[-0.07986235257747655,-0.06072898107187557]","[1,1,1]","[-0.005406296788711795,-0.12600458203779108]","[1,1,1]","[0.02,0.02]",127.1696,0,21,21,205,1,,,,,,,
,,,,,,,67d6cd20e6f88998bd004d61,682db42d345c96253c44187a,2025-05-21_14h15.11.335,cuing_paradigm_dot,2024.1.5,Win32,59.88023952,682d556593cb38ad0a074487,,,,,,,,,,,127.1707,127.6701,,,127.9203,128.3712,right,0.4346,,,,,,,,,0.9,,,,,,127.6702,127.9202,128.3713,"[0.04656245206337716,0.05008031011902589]","[1,1,1]","[-0.1183553468549196,-0.05163778968779901]","[1,1,1]","[-0.13720336193412697,0.10522129970398113]","[1,1,1]","[0.18455751180173058,0.059096318383022914]","[1,1,1]","[0.08073079586389069,-0.08400631479162536]","[1,1,1]","[-0.1578772126188819,-0.09518812273471272]","[1,1,1]","[-0.16894158054018493,-0.016536918680891532]","[-1,-1,-1]","[-0.03787222479277736,0.1553564530395328]","[1,1,1]","[-0.06163949008368967,0.08737983897955039]","[1,1,1]","[0.04824884700823263,0.10421664136583282]","[1,1,1]","[-0.06768411177471859,-0.024315208343014955]","[1,1,1]","[-0.09691377157184408,0.1110600924444152]","[1,1,1]","[0.1430160140131559,0.10404668376755011]","[1,1,1]","[0.17923168448131954,-0.07101053015263346]","[1,1,1]","[0.04627934447884687,-0.014248734298945043]","[1,1,1]","[0.09068196158125467,0.0023119412124834194]","[1,1,1]","[-0.038232942690247754,-0.06112950636649848]","[1,1,1]","[-0.024216741270621515,-0.10370057284051429]","[1,1,1]","[0.017096992526205453,0.01613586515644683]","[1,1,1]","[0.15906975896268302,0.023427482185678198]","[1,1,1]","[-0.13596500855955765,0.04459756528955967]","[1,1,1]","[0.001122446124693446,-0.17079513019139078]","[1,1,1]","[0.0006547186455343126,0.08082181948656356]","[1,1,1]","[0.13275398584953046,-0.032112500254631055]","[1,1,1]","[-0.13569401425854083,-0.1425734339151856]","[1,1,1]","[0.14274567931591853,-0.09648516609257597]","[1,1,1]","[0.045653932364588784,-0.10700286486201155]","[1,1,1]","[-0.08121415581384503,-0.07311212560144673]","[1,1,1]","[0.05836221177265002,0.17578728555014464]","[-1,-1,-1]","[-0.03463383752640767,0.05060144601286234]","[1,1,1]","[0.07338228977644824,-0.17310063131428374]","[1,1,1]","[0.0912332191575337,0.1425646219038997]","[-1,-1,-1]","[0.02,0.02]",129.4718,0,22,22,199,1,,,,,,,
,,,,,,,67d6cd20e6f88998bd004d61,682db42d345c96253c44187a,2025-05-21_14h15.11.335,cuing_paradigm_dot,2024.1.5,Win32,59.88023952,682d556593cb38ad0a074487,,,,,,,,,,,129.4727,129.9733,,,130.2233,130.8738,left,0.6266,,,,,,,,,0.45,,,,,,129.9734,130.2232,130.8738,"[0.16854676091469833,-0.03149187444020589]","[1,1,1]","[0.01740955897379346,-0.1323401104838398]","[-1,-1,-1]","[-0.0821233111650189,-0.10268975117948863]","[-1,-1,-1]","[0.08428535024932829,-0.03942489117933569]","[1,1,1]","[0.07116214805201404,0.05031995346312408]","[-1,-1,-1]","[0.00241739530108904,0.11413334937269817]","[1,1,1]","[0.1498489229108299,0.10757949354332658]","[1,1,1]","[-0.19781515705302272,-0.0052865565087762325]","[-1,-1,-1]","[-0.10373643514094726,0.12542324032144211]","[-1,-1,-1]","[0.09927512184908525,-0.14755171533401423]","[1,1,1]","[-0.14023721236983885,0.0174190578674766]","[-1,-1,-1]","[-0.15030604036810202,-0.09045934309101915]","[1,1,1]","[0.10022260194416588,0.00843019458063211]","[1,1,1]","[0.031815872865742334,0.17993892940643094]","[-1,-1,-1]","[-0.055705592271806874,0.1625124904966719]","[1,1,1]","[-0.054083989063309273,0.03175117060624583]","[1,1,1]","[-0.036010369818399786,-0.1056498454066281]","[-1,-1,-1]","[-0.019296783311519003,-0.1607565086493045]","[1,1,1]","[-0.14545215375525866,0.11462886154755371]","[-1,-1,-1]","[-0.032647212965311284,-0.05800574500680369]","[-1,-1,-1]","[0.1292845246225651,-0.10417649013755505]","[-1,-1,-1]","[-0.0937178541788864,-0.017694060005454836]","[-1,-1,-1]","[0.1053607334648242,0.09677406093926662]","[-1,-1,-1]","[-0.12218051657443113,-0.1530922477437091]","[-1,-1,-1]","[-0.1807720043998148,0.06067455494350289]","[1,1,1]","[-0.09752896079003875,0.04067861872054931]","[1,1,1]","[0.08552050108837049,-0.09023866760800847]","[-1,-1,-1]","[-0.15447711601372602,-0.030874877240796295]","[-1,-1,-1]","[0.13168644459616693,-0.05845894055273037]","[1,1,1]","[0.025808651543667648,-0.04137746607118299]","[-1,-1,-1]","[0.18118844416567043,0.018530106135300806]","[-1,-1,-1]","[0.1147669188678215,0.13568807004398042]","[1,1,1]","[0.02,0.02]",131.9741,0,23,23,69,1,,,,,,,
,,,,,,,67d6cd20e6f88998bd004d61,682db42d345c96253c44187a,2025-05-21_14h15.11.335,cuing_paradigm_dot,2024.1.5,Win32,59.88023952,682d556593cb38ad0a074487,,,,,,,,,,,131.9749,132.4744,,,132.7252,133.4926,right,0.7509,,,,,,,,,0.55,,,,,,132.4744,132.7251,133.4927,"[0.13551462281492888,-0.12103666250637864]","[-1,-1,-1]","[0.13550584928310752,-0.020025883406282897]","[1,1,1]","[0.04541779914828464,-0.012210657741990594]","[1,1,1]","[-0.16216590006644846,0.03897819723875003]","[-1,-1,-1]","[-0.04545016207190683,-0.11173811089719113]","[-1,-1,-1]","[0.02593185170882842,0.02345739500395171]","[1,1,1]","[0.07026489330141737,0.1700767392076888]","[1,1,1]","[-0.0024586442926755846,-0.09721771935394716]","[1,1,1]","[-0.06755419539866499,-0.17377041743432545]","[1,1,1]","[-0.020371860181012124,-0.05694912817831295]","[-1,-1,-1]","[-0.07780526649500308,-0.0857336095704448]","[1,1,1]","[-0.05667109743224195,0.06325783867843361]","[-1,-1,-1]","[-0.1047541365950625,0.03805408268219882]","[1,1,1]","[-0.15064698819413094,-0.043712108961698345]","[-1,-1,-1]","[0.14290003500056925,0.08090701923125557]","[-1,-1,-1]","[-0.17596370295671232,-0.0001561364935079751]","[1,1,1]","[-0.11535142289695657,0.08354949222693092]","[-1,-1,-1]","[-0.12434889146672494,-0.011910578878870955]","[-1,-1,-1]","[0.08982388511512404,0.025924040517247535]","[1,1,1]","[-0.08267197551183958,0.1674462090557405]","[1,1,1]","[-0.018398775371058523,0.00863920001756616]","[-1,-1,-1]","[0.006456222421514789,-0.1601620447503381]","[-1,-1,-1]","[0.10491064493220163,0.10338313447423028]","[1,1,1]","[-0.04256084780665157,0.1422533420055761]","[1,1,1]","[0.011156322520747365,0.12626731698662755]","[-1,-1,-1]","[-0.1519247660502586,0.10029876451140494]","[1,1,1]","[0.009264970285200852,0.19278556847258194]","[1,1,1]","[-0.08172853977256563,-0.12896285970840676]","[-1,-1,-1]","[0.06752372363624193,-0.15647677734556742]","[1,1,1]","[0.03485532648259249,-0.12784149498091957]","[-1,-1,-1]","[0.16819394751622246,0.0250153780744135]","[1,1,1]","[0.06483879386036207,0.12936959908762824]","[1,1,1]","[0.02,0.02]",134.5933,0,24,24,121,1,,,,,,,
,,,,,,,67d6cd20e6f88998bd004d61,682db42d345c96253c44187a,2025-05-21_14h15.11.335,cuing_paradigm_dot,2024.1.5,Win32,59.88023952,682d556593cb38ad0a074487,,,,,,,,,,,134.5942,135.0935,,,135.3439,135.8112,left,0.4519,,,,,,,,,0.1,,,,,,135.0936,135.3439,135.8113,"[-0.09308389468935609,0.03976523079102416]","[-1,-1,-1]","[-0.17568877847945255,-0.012088261029011607]","[-1,-1,-1]","[-0.10937601585597385,-0.10751949174417928]","[-1,-1,-1]","[0.1910971801408464,0.009165255828514865]","[-1,-1,-1]","[0.004666352917224167,-0.01275851895056323]","[-1,-1,-1]","[0.024949594391430876,-0.1582384977401589]","[-1,-1,-1]","[0.13019859094510516,-0.11898345356309126]","[1,1,1]","[0.0544696165684623,0.011870563181849357]","[-1,-1,-1]","[-0.15375722000367809,0.10530974522183079]","[-1,-1,-1]","[0.1233206364760613,0.0651648724113981]","[-1,-1,-1]","[0.04963848617539775,-0.0342458591572889]","[-1,-1,-1]","[0.037115070811649144,0.050175703723576236]","[-1,-1,-1]","[-0.07453028523966011,0.11087799580614194]","[-1,-1,-1]","[-0.053952242479303594,0.02429972304474651]","[1,1,1]","[-0.06757879404342668,-0.16986826383068288]","[-1,-1,-1]","[-0.08593718215516476,0.17543976821631152]","[-1,-1,-1]","[-0.1561975828545813,-0.06202508561614999]","[1,1,1]","[0.1874676246604455,-0.03139779368628758]","[-1,-1,-1]","[0.06347841624096164,0.1385374869375573]","[-1,-1,-1]","[-0.03585683330314308,-0.10029740203421637]","[-1,-1,-1]","[-0.02382847141809372,0.1730406447098262]","[-1,-1,-1]","[0.1662278576085448,0.04450270931400812]","[-1,-1,-1]","[-0.00845887310877913,0.05957270300700811]","[-1,-1,-1]","[-0.1383656860160241,0.03656493072036773]","[-1,-1,-1]","[0.09867637499778296,-0.08309644430666369]","[-1,-1,-1]","[0.139847804258567,-0.00819671348417505]","[-1,-1,-1]","[0.031547076860357876,-0.11331377822357494]","[-1,-1,-1]","[0.07453368852040095,-0.17293173041474807]","[-1,-1,-1]","[-0.051035850980469165,-0.061794699926230656]","[-1,-1,-1]","[0.11943121455946121,0.11470946291962017]","[-1,-1,-1]","[0.13764123527964345,-0.056714165355992704]","[-1,-1,-1]","[0.05908386062439664,0.09460232829837245]","[-1,-1,-1]","[0.02,0.02]",136.9122,0,25,25,14,1,,,,,,,
,,,,,,,67d6cd20e6f88998bd004d61,682db42d345c96253c44187a,2025-05-21_14h15.11.335,cuing_paradigm_dot,2024.1.5,Win32,59.88023952,682d556593cb38ad0a074487,,,,,,,,,,,136.9129,137.4134,,,137.6638,138.0973,left,0.4022,,,,,,,,,0.1,,,,,,137.4134,137.6638,138.0974,"[0.1658954078280253,-0.011677962701894593]","[-1,-1,-1]","[0.06955826415198564,0.126729644609563]","[-1,-1,-1]","[-0.07018652112112651,0.02507907699021848]","[-1,-1,-1]","[-0.13935865111873905,-0.05084829058590462]","[-1,-1,-1]","[-0.02676067071231306,-0.020461250065676912]","[-1,-1,-1]","[0.05847564378675132,0.060641674743648954]","[-1,-1,-1]","[-0.0797185337179221,0.12818464716864453]","[1,1,1]","[0.14790265166941194,0.13026202584365393]","[-1,-1,-1]","[0.04423112409115484,0.006714426670814231]","[-1,-1,-1]","[-0.1727270235592301,0.044987822842907005]","[-1,-1,-1]","[-0.053255315770551835,-0.15369785823158538]","[-1,-1,-1]","[-0.05846141049963218,-0.0751722529693936]","[-1,-1,-1]","[-0.018757953452091913,0.13328281151903612]","[1,1,1]","[0.11078997112562818,0.14526168977393814]","[-1,-1,-1]","[-0.10517788284282417,0.16370653265145207]","[-1,-1,-1]","[0.09691744208715643,-0.12840642222763024]","[-1,-1,-1]","[0.11617344989647269,0.062051097238575256]","[-1,-1,-1]","[-0.09597471180614063,-0.043509068097205485]","[-1,-1,-1]","[0.1686013926248083,0.03402910821114507]","[-1,-1,-1]","[0.1304770000187,0.013853976800247414]","[-1,-1,-1]","[0.052725348735818016,-0.04973136137689301]","[1,1,1]","[-0.18513873837240144,-0.013264264510415444]","[-1,-1,-1]","[0.055191130715736905,-0.10714659189011184]","[-1,-1,-1]","[-0.1276766215894284,0.04022977395028918]","[-1,-1,-1]","[-0.025059613447186112,0.06087003928568315]","[-1,-1,-1]","[-0.1797584267908538,-0.07841940232731127]","[-1,-1,-1]","[0.021873109990678985,0.16325012705195252]","[-1,-1,-1]","[-0.011182100927647423,0.022097926555431652]","[-1,-1,-1]","[0.12168945322258622,-0.0490615426956327]","[-1,-1,-1]","[0.012086474721528982,0.07886561464084867]","[-1,-1,-1]","[0.0060592544044143415,-0.07340983006083768]","[-1,-1,-1]","[0.04789252928157339,0.1938182843137385]","[-1,-1,-1]","[0.02,0.02]",139.1981,0,26,26,5,1,,,,,,,
,,,,,,,67d6cd20e6f88998bd004d61,682db42d345c96253c44187a,2025-05-21_14h15.11.335,cuing_paradigm_dot,2024.1.5,Win32,59.88023952,682d556593cb38ad0a074487,,,,,,,,,,,139.199,139.6983,,,139.9497,140.3321,left,0.3555,,,,,,,,,0.1,,,,,,139.6984,139.9495,140.3322,"[0.04437416095702579,-0.01483077669529664]","[-1,-1,-1]","[-0.1649489131477653,-0.07680618539138942]","[-1,-1,-1]","[-0.022766956814006,0.09253556788286843]","[-1,-1,-1]","[0.05160611923889019,0.10398850656740266]","[1,1,1]","[-0.09703408356837392,-0.13706701887231612]","[-1,-1,-1]","[0.14053698554702387,0.13558740652416382]","[-1,-1,-1]","[0.06380168685325623,-0.15166153957090822]","[-1,-1,-1]","[0.025484101763225613,-0.117366050642302]","[-1,-1,-1]","[0.13021876971711574,0.04744734132591807]","[-1,-1,-1]","[-0.10503607806452193,-0.07640002028454666]","[-1,-1,-1]","[0.040099435489712995,-0.1931487176021176]","[-1,-1,-1]","[0.0061099385725947464,-0.061221832113193556]","[-1,-1,-1]","[-0.14636582373876547,0.056089047891299634]","[-1,-1,-1]","[0.15150768303606935,-0.04592810801926332]","[-1,-1,-1]","[0.1738561613760814,0.07852760255333585]","[-1,-1,-1]","[-0.026985924251441612,-0.15768126175227104]","[-1,-1,-1]","[0.0948005094948391,0.12755222415474793]","[-1,-1,-1]","[-0.14333257266449406,0.11159660857115077]","[-1,-1,-1]","[0.16273648436563004,-0.10384477099383634]","[-1,-1,-1]","[0.07684185457292737,-0.04889366012798266]","[-1,-1,-1]","[0.004346824699204106,0.13815904138384746]","[-1,-1,-1]","[-0.06170478184392464,-0.005194289138099273]","[-1,-1,-1]","[0.11833046158815966,-0.16039518711764517]","[1,1,1]","[-0.09878434440035451,0.11412316541610633]","[-1,-1,-1]","[-0.14436637312912753,-0.03761001030076309]","[-1,-1,-1]","[-0.0645112432924228,0.16214318248935972]","[-1,-1,-1]","[0.1123185944669751,0.09044477349401313]","[-1,-1,-1]","[0.04189833724960545,0.03337420100656851]","[1,1,1]","[-0.0522427620539083,-0.10070657708105006]","[-1,-1,-1]","[-0.06525001190728183,-0.048672600613678486]","[-1,-1,-1]","[-0.07780657335381629,0.07861875441245149]","[-1,-1,-1]","[0.1346828463583922,-0.001933502505716006]","[-1,-1,-1]","[0.02,0.02]",141.434,0,27,27,27,1,,,,,,,
,,,,,,,67d6cd20e6f88998bd004d61,682db42d345c96253c44187a,2025-05-21_14h15.11.335,cuing_paradigm_dot,2024.1.5,Win32,59.88023952,682d556593cb38ad0a074487,,,,,,,,,,,141.4348,141.9344,,,142.1852,142.8189,left,0.6025,,,,,,,,,0.1,,,,,,141.9345,142.1851,142.819,"[-0.0065798127380307485,0.12008382169589787]","[-1,-1,-1]","[-0.1113860626102692,-0.026031228753959204]","[-1,-1,-1]","[-0.00009928938755335967,0.04046686631653782]","[-1,-1,-1]","[-0.08351731434309381,0.13197537803185555]","[-1,-1,-1]","[-0.08030691756204027,0.09066377298535004]","[-1,-1,-1]","[-0.18523815741564062,-0.017414400940990296]","[-1,-1,-1]","[0.039946447777720946,0.14183045493012567]","[-1,-1,-1]","[0.13923159102438018,-0.10875414562225012]","[-1,-1,-1]","[-0.04604226730439775,-0.18664249160939528]","[-1,-1,-1]","[-0.12275592939534338,-0.0919587158515373]","[-1,-1,-1]","[0.06735677566575511,-0.04413575630365732]","[-1,-1,-1]","[0.12983227930904356,-0.0024933872610003213]","[-1,-1,-1]","[0.10024809155273934,0.03718292259876438]","[-1,-1,-1]","[-0.06625845257574126,-0.13043992510746433]","[-1,-1,-1]","[0.09437661078802387,0.08758975259816837]","[-1,-1,-1]","[0.06840460731402825,0.008850755545277597]","[-1,-1,-1]","[0.17196102748656733,0.07207522594936883]","[-1,-1,-1]","[-0.08121433658073932,-0.06717680498265113]","[-1,-1,-1]","[0.1189954285311758,0.13601554753075543]","[-1,-1,-1]","[-0.1095154231555079,0.041275247838046494]","[1,1,1]","[-0.003242744309095278,-0.056210794306331927]","[-1,-1,-1]","[-0.03884516873448327,0.14704072557736164]","[-1,-1,-1]","[-0.17781570324813487,0.05146831080994764]","[-1,-1,-1]","[-0.01367298384105006,-0.1438381225311924]","[1,1,1]","[-0.06872770650358057,-0.004120469686035179]","[-1,-1,-1]","[-0.13592930451324442,0.07240348702951496]","[-1,-1,-1]","[0.1331136381587542,-0.06614480959004607]","[-1,-1,-1]","[0.07890955976465919,-0.13216933124359645]","[1,1,1]","[-0.16696940668405214,-0.08027166601856493]","[-1,-1,-1]","[-0.14162855148117856,0.13153494956070996]","[-1,-1,-1]","[-0.04341890245152682,0.07007738666445776]","[-1,-1,-1]","[0.17787912988336038,0.01606933727895569]","[-1,-1,-1]","[0.02,0.02]",143.9192,0,28,28,4,1,,,,,,,
,,,,,,,67d6cd20e6f88998bd004d61,682db42d345c96253c44187a,2025-05-21_14h15.11.335,cuing_paradigm_dot,2024.1.5,Win32,59.88023952,682d556593cb38ad0a074487,,,,,,,,,,,143.92,144.42,,,144.659,145.638,left,0.9637,,,,,,,,,0.45,,,,,,144.4201,144.659,145.6381,"[0.09175109633522963,-0.03772305159081305]","[-1,-1,-1]","[0.16752798270032648,0.10492474560034375]","[-1,-1,-1]","[0.17027622822015473,0.022961690891779914]","[-1,-1,-1]","[0.02310378700721681,-0.19055378942774087]","[-1,-1,-1]","[0.1508353986493176,0.06634480636628667]","[-1,-1,-1]","[-0.08940933646079746,0.17687316557038174]","[1,1,1]","[0.024040723358153684,0.05761608892844862]","[1,1,1]","[0.05230218548834287,-0.10928225845864449]","[1,1,1]","[-0.039219360801405395,0.15983133198723218]","[-1,-1,-1]","[-0.01716630305501158,-0.07653856422610672]","[1,1,1]","[-0.023006475391274803,-0.12713486395026716]","[-1,-1,-1]","[0.17296084278338425,-0.032606162136742986]","[1,1,1]","[0.07060081651647956,0.009498835430037466]","[1,1,1]","[-0.06536882056755076,-0.03091389301268827]","[-1,-1,-1]","[-0.1254620515664817,0.09530981340689619]","[1,1,1]","[-0.001997750921054552,-0.03732013767621103]","[-1,-1,-1]","[-0.05298428540137908,0.07826765634708145]","[1,1,1]","[-0.15550580517955176,-0.0040261089097292455]","[-1,-1,-1]","[-0.1457597982916257,-0.05812123992292206]","[-1,-1,-1]","[-0.11255848546003334,-0.15946197338783938]","[1,1,1]","[0.072523095453377,0.176756274093176]","[-1,-1,-1]","[-0.1046762239302172,0.004133261723621326]","[1,1,1]","[0.13002107501767493,-0.05959493688593426]","[-1,-1,-1]","[0.005837737296280074,0.16088972653563405]","[1,1,1]","[-0.10451830086898586,0.05983254754787391]","[-1,-1,-1]","[0.1200854550211471,-0.14328042039708033]","[1,1,1]","[-0.19602361398740054,0.027660417056275425]","[-1,-1,-1]","[-0.0673424555728514,-0.17914251555707203]","[1,1,1]","[0.13140199788824608,0.007809940323272909]","[1,1,1]","[0.11461762067131272,0.1055123476443465]","[-1,-1,-1]","[0.0866208670211888,0.055602651410400224]","[-1,-1,-1]","[0.1072889817409188,-0.09408258537048368]","[-1,-1,-1]","[0.02,0.02]",146.7388,0,29,29,65,1,,,,,,,
,,,,,,,67d6cd20e6f88998bd004d61,682db42d345c96253c44187a,2025-05-21_14h15.11.335,cuing_paradigm_dot,2024.1.5,Win32,59.88023952,682d556593cb38ad0a074487,,,,,,,,,,,146.7396,147.2393,,,147.4903,148.9915,,,,,,,,,,,0.5,,,,,,147.2393,147.4902,148.9916,"[0.12078450278746179,0.07163830472231601]","[-1,-1,-1]","[0.03366805034239809,-0.0524984042641989]","[1,1,1]","[0.10480854890611448,0.00018018328061415506]","[-1,-1,-1]","[0.005879332203250501,-0.12311858540152909]","[-1,-1,-1]","[-0.0004746549332290003,0.12425829199173266]","[-1,-1,-1]","[-0.1783147127075402,0.018277085749460367]","[1,1,1]","[-0.06243363612264375,0.16557716194444233]","[1,1,1]","[0.045648065464675563,-0.013495893858703138]","[1,1,1]","[-0.004695784219386872,0.1682457774225837]","[-1,-1,-1]","[-0.1196636302877112,-0.12994818282330842]","[1,1,1]","[-0.012765878691931175,-0.08162111172034484]","[1,1,1]","[-0.04364362897045811,-0.12242006163105232]","[1,1,1]","[-0.1387071507020516,0.08448556664139656]","[1,1,1]","[0.044578323269639744,0.17382156013228875]","[-1,-1,-1]","[-0.08300979894194735,0.08560149569918132]","[-1,-1,-1]","[-0.10587774047188228,0.1257679763558761]","[-1,-1,-1]","[-0.05025548077209589,-0.18165822020864003]","[-1,-1,-1]","[0.17501087106138122,-0.0620971268386791]","[1,1,1]","[-0.1262914728778584,-0.039005029627740676]","[-1,-1,-1]","[0.07530277426846285,0.06901465203744962]","[1,1,1]","[-0.15013085035080412,-0.08129648463880587]","[-1,-1,-1]","[0.14285898989016396,-0.014755559939646211]","[-1,-1,-1]","[-0.0004979021099125459,0.07211556618071162]","[-1,-1,-1]","[0.09904300450045511,-0.045173927843678685]","[1,1,1]","[0.044813542792291654,-0.1707356703390118]","[1,1,1]","[0.10769805612598939,-0.14133066314302048]","[1,1,1]","[0.1754982536603391,0.079466701955871]","[1,1,1]","[-0.06556979537979667,0.04413922401848219]","[-1,-1,-1]","[-0.08153202034189351,-0.0654079827349898]","[1,1,1]","[-0.0038096159779293383,-0.03569265020970456]","[1,1,1]","[0.10314706433143009,-0.08916704851679969]","[-1,-1,-1]","[0.09030275154947659,0.11431624311286402]","[-1,-1,-1]","[0.02,0.02]",150.092,0,30,30,110,1,,,,,,,
,,,,,,,67d6cd20e6f88998bd004d61,682db42d345c96253c44187a,2025-05-21_14h15.11.335,cuing_paradigm_dot,2024.1.5,Win32,59.88023952,682d556593cb38ad0a074487,,,,,,,,,,,150.0929,150.5924,,,150.8319,151.2932,left,0.4387,,,,,,,,,0.1,,,,,,150.5924,150.8318,151.2934,"[-0.029286929375324372,-0.00034566581676451056]","[-1,-1,-1]","[0.11408296114637202,-0.13085839657180107]","[-1,-1,-1]","[0.017239115985125262,0.05765124897665988]","[1,1,1]","[-0.10020861861638976,0.1577673934152365]","[-1,-1,-1]","[-0.13938402398854047,-0.11942012131309834]","[-1,-1,-1]","[0.06036601467635768,0.033847539304563495]","[-1,-1,-1]","[-0.04793343474284407,-0.12493960441033869]","[-1,-1,-1]","[0.04593132495823396,0.13106342085147288]","[-1,-1,-1]","[-0.13723800183929974,0.13798412078046224]","[-1,-1,-1]","[0.1607906012877056,-0.038967250828852155]","[1,1,1]","[-0.16795825964772257,-0.014111912594818832]","[-1,-1,-1]","[-0.1614561839540584,-0.06086569753769973]","[-1,-1,-1]","[0.09611165679818252,-0.0499678836053778]","[-1,-1,-1]","[-0.00804885696045941,-0.035666741085781384]","[-1,-1,-1]","[-0.01977096838194092,-0.19818855878433728]","[-1,-1,-1]","[0.01885040569665902,-0.11915155826299839]","[-1,-1,-1]","[0.16574558347583318,0.02836425947505357]","[-1,-1,-1]","[-0.058995857775663796,0.17381161437116285]","[1,1,1]","[-0.08707785071571633,-0.04795757114719077]","[-1,-1,-1]","[-0.09063635861892644,0.03307202007426777]","[-1,-1,-1]","[-0.10555709170700749,0.09121747826400663]","[-1,-1,-1]","[0.04325477170661843,-0.05891415205343802]","[-1,-1,-1]","[-0.18181985143434023,0.03570369294528248]","[-1,-1,-1]","[0.0646835026473007,-0.17532168910990611]","[-1,-1,-1]","[-0.13342991222867645,0.02291076089918505]","[-1,-1,-1]","[-0.10033302437751324,-0.1342432622289829]","[-1,-1,-1]","[0.12773625235050518,0.0820879966912571]","[-1,-1,-1]","[-0.0015640795587810758,0.17308159460262754]","[-1,-1,-1]","[-0.0747072868321583,-0.16920094080686587]","[-1,-1,-1]","[0.11239143705263906,0.1563100729537791]","[-1,-1,-1]","[0.06881140979622677,0.17736337153912962]","[-1,-1,-1]","[-0.04305795333477841,0.09849797827333645]","[-1,-1,-1]","[0.02,0.02]",152.3943,0,31,31,15,1,,,,,,,
,,,,,,,67d6cd20e6f88998bd004d61,682db42d345c96253c44187a,2025-05-21_14h15.11.335,cuing_paradigm_dot,2024.1.5,Win32,59.88023952,682d556593cb38ad0a074487,,,,,,,,,,,152.3951,152.8948,,,153.1454,154.0967,left,0.9364,,,,,,,,,0.55,,,,,,152.8948,153.1453,154.0969,"[-0.029868614244572322,0.16710018193224888]","[1,1,1]","[0.09572068037974085,0.010623459207117523]","[1,1,1]","[-0.0872801400019403,0.12746663000255556]","[1,1,1]","[-0.005390233150710202,0.091309658143614]","[-1,-1,-1]","[-0.16582527969389513,0.050011409774741715]","[-1,-1,-1]","[-0.00860231283088775,-0.13508762703327218]","[-1,-1,-1]","[0.017832294572235993,-0.014694962653879411]","[1,1,1]","[0.03756312810544062,-0.12201779689586238]","[1,1,1]","[0.031193277736776975,0.05538534522990054]","[1,1,1]","[0.16824638607229953,-0.09960443977712731]","[-1,-1,-1]","[-0.1001533751543367,0.08675320545334823]","[1,1,1]","[0.01663098690869293,0.15161757037101525]","[-1,-1,-1]","[-0.029046764580226217,0.043832645479868704]","[1,1,1]","[0.04885300094251889,-0.054634408594886406]","[1,1,1]","[-0.06586536762361891,-0.06971084905921072]","[-1,-1,-1]","[0.15005197575669676,0.06651009124385748]","[1,1,1]","[-0.10516513291560933,-0.16890497470767174]","[1,1,1]","[-0.06871683937645971,0.0599578106432591]","[-1,-1,-1]","[0.07568589010435642,-0.16637077912006826]","[1,1,1]","[0.09136652961050556,-0.058847597850447825]","[-1,-1,-1]","[0.0825568376938461,0.12047699734359127]","[1,1,1]","[-0.08426841950324511,-0.030127364387600084]","[-1,-1,-1]","[0.08523607475908586,0.07378986284405648]","[1,1,1]","[-0.027434026395676003,0.00026032818056978725]","[1,1,1]","[-0.19314623109810572,0.013646959155055233]","[-1,-1,-1]","[-0.05342464867853015,-0.14167154236913213]","[-1,-1,-1]","[0.1927286962601852,0.050126441348107446]","[-1,-1,-1]","[0.12626780906268423,-0.07891386222105287]","[1,1,1]","[-0.16666515737506168,-0.06237564781257665]","[1,1,1]","[0.19089862955514966,-0.044401775096269226]","[-1,-1,-1]","[0.12742986818442387,0.12012628491586048]","[1,1,1]","[0.0331673345854971,-0.16670752402752198]","[-1,-1,-1]","[0.02,0.02]",155.1977,0,32,32,133,1,,,,,,,
,,,,,,,67d6cd20e6f88998bd004d61,682db42d345c96253c44187a,2025-05-21_14h15.11.335,cuing_paradigm_dot,2024.1.5,Win32,59.88023952,682d556593cb38ad0a074487,,,,,,,,,,,155.1986,155.6982,,,155.9484,156.3156,left,0.3569,,,,,,,,,0.1,,,,,,155.6983,155.9484,156.3157,"[0.1905433959605525,-0.02608033715611721]","[-1,-1,-1]","[-0.18400800902409994,-0.07243177957333]","[-1,-1,-1]","[0.12097700440430544,-0.059516885878604465]","[-1,-1,-1]","[-0.0904772498131257,0.1698277003817441]","[-1,-1,-1]","[-0.04560339992504809,-0.1517393588555105]","[-1,-1,-1]","[0.058518688428273236,0.1645819207255776]","[1,1,1]","[0.14645543316596557,-0.13469289495782436]","[-1,-1,-1]","[0.10754791226300416,0.11612000919417928]","[-1,-1,-1]","[0.07088339502218174,0.03651501119185284]","[-1,-1,-1]","[0.024342264909340217,-0.012126369043679155]","[1,1,1]","[0.08131821828901012,-0.08520145230933565]","[-1,-1,-1]","[0.17880080161870568,0.07998067357843701]","[-1,-1,-1]","[-0.11252468291416731,0.12498443203712993]","[-1,-1,-1]","[0.03350578202594673,-0.17364453833220042]","[-1,-1,-1]","[0.026645549748366307,-0.12724693326796116]","[-1,-1,-1]","[0.0020315854409029784,0.18301341279724104]","[-1,-1,-1]","[-0.1888603821738493,-0.012980226918919533]","[-1,-1,-1]","[-0.10522365556707776,0.06701886011714862]","[-1,-1,-1]","[-0.11684062623070954,-0.023719577855101072]","[-1,-1,-1]","[0.09725865259962743,0.006121016706150703]","[-1,-1,-1]","[-0.0047769244201556595,-0.05583981064922166]","[-1,-1,-1]","[-0.10818945828849394,-0.15489745881204395]","[-1,-1,-1]","[0.1779223912198945,-0.07951810274716929]","[-1,-1,-1]","[-0.05101778342954109,-0.06767671417989529]","[-1,-1,-1]","[-0.18675120355627423,0.050225396645943915]","[-1,-1,-1]","[0.06800910334828654,-0.12913610066109635]","[1,1,1]","[-0.012261123866356234,-0.19616859596142938]","[-1,-1,-1]","[-0.10083191204527887,-0.1021137647625332]","[-1,-1,-1]","[0.11241941143884872,0.1602683538908384]","[-1,-1,-1]","[-0.05389249869363466,0.03714454429220509]","[-1,-1,-1]","[-0.001429672768774935,0.03398855052808236]","[-1,-1,-1]","[-0.15336773698953754,-0.12638791170174152]","[-1,-1,-1]","[0.02,0.02]",157.4159,0,33,33,8,1,,,,,,,
,,,,,,,67d6cd20e6f88998bd004d61,682db42d345c96253c44187a,2025-05-21_14h15.11.335,cuing_paradigm_dot,2024.1.5,Win32,59.88023952,682d556593cb38ad0a074487,,,,,,,,,,,157.4167,157.9163,,,158.1671,158.7345,right,0.5403,,,,,,,,,0.6,,,,,,157.9163,158.1669,158.7348,"[0.14597055032343395,0.02257971725549019]","[-1,-1,-1]","[-0.006592655278373793,0.03965791676290785]","[1,1,1]","[-0.11594802124935559,-0.09483406020022671]","[-1,-1,-1]","[0.0024177526453106547,-0.04134084227199411]","[1,1,1]","[-0.1024677294151289,0.01851669752309839]","[-1,-1,-1]","[-0.08413307952626349,-0.033425092692888715]","[1,1,1]","[-0.12473542103471573,0.10155224079953488]","[1,1,1]","[0.09756174386391456,-0.05494505767869484]","[-1,-1,-1]","[0.026381452076459085,0.18329913688874563]","[1,1,1]","[-0.027113504674383167,0.13273950880055418]","[1,1,1]","[0.030309731422255102,-0.1913809738366585]","[-1,-1,-1]","[-0.17181306506696006,-0.04213819399280996]","[1,1,1]","[0.05782606735144309,0.0002872776057810975]","[-1,-1,-1]","[0.14410787339213782,-0.12489287229103038]","[1,1,1]","[-0.17423104507211826,0.08758903385524992]","[-1,-1,-1]","[-0.06307509013001127,-0.15270358804671538]","[1,1,1]","[-0.01852858115285389,-0.1183403855140093]","[1,1,1]","[0.17098732138270747,0.07119549518656222]","[-1,-1,-1]","[-0.17395366616068036,0.0035972176104562413]","[1,1,1]","[0.04728195122624431,-0.12247578206148263]","[1,1,1]","[0.11711323975983859,0.08430053883110827]","[1,1,1]","[0.04380083686343736,0.04744301217102283]","[-1,-1,-1]","[-0.031615166780235446,-0.07178700350247448]","[1,1,1]","[-0.07892262933801279,0.0992164575764237]","[-1,-1,-1]","[0.17339221224403625,-0.025596005629920347]","[-1,-1,-1]","[-0.12884020183161113,-0.15135620131671226]","[-1,-1,-1]","[-0.09740740106132799,0.15548295613701768]","[-1,-1,-1]","[-0.03738807640143382,0.08188793193357448]","[1,1,1]","[0.09765352580216985,0.012686096303213148]","[1,1,1]","[-0.06196335878260745,0.03681104784774272]","[1,1,1]","[-0.15616908689009557,-0.10773945278868928]","[1,1,1]","[-0.021202284229991757,-0.1843090731316565]","[1,1,1]","[0.02,0.02]",159.8355,0,34,34,164,1,,,,,,,
,,,,,,,67d6cd20e6f88998bd004d61,682db42d345c96253c44187a,2025-05-21_14h15.11.335,cuing_paradigm_dot,2024.1.5,Win32,59.88023952,682d556593cb38ad0a074487,,,,,,,,,,,159.8363,160.3361,,,160.5893,161.0036,right,0.4046,,,,,,,,,0.9,,,,,,160.3361,160.5892,161.0038,"[0.06955031563565729,-0.08274512789955435]","[1,1,1]","[-0.08273509733275661,0.12583053334430755]","[1,1,1]","[0.04038149639032715,-0.16705661097461677]","[1,1,1]","[-0.11753743582334394,0.014333603999482664]","[1,1,1]","[0.1689170779258611,0.02316874248561813]","[-1,-1,-1]","[0.10005752017822102,0.07176224877024628]","[1,1,1]","[0.053073850646714965,0.018306812288234095]","[1,1,1]","[-0.014753977510776424,-0.041166418444723234]","[1,1,1]","[0.0185264398252806,0.05389905479001643]","[1,1,1]","[0.11595157768206238,-0.1292696736158032]","[1,1,1]","[-0.1819735915141353,0.03910887801380942]","[1,1,1]","[-0.016563801745250455,0.01114036856314045]","[1,1,1]","[0.1708195154464793,-0.08657019704142549]","[1,1,1]","[-0.03352843132894645,-0.18332688864951477]","[1,1,1]","[0.11204741433680421,0.16190380377916103]","[1,1,1]","[0.0860446080533723,-0.1737621820781906]","[1,1,1]","[-0.07534974595687917,0.06477131880007296]","[1,1,1]","[0.1339686065016853,-0.030618031171395887]","[1,1,1]","[-0.00964408907570295,0.12479164522869461]","[-1,-1,-1]","[-0.009022169526433541,-0.09263979224031618]","[1,1,1]","[0.13008788053174297,0.03840143300818081]","[1,1,1]","[-0.15229234703918168,0.07575739060966286]","[1,1,1]","[0.17633455700295417,0.07313382175608935]","[1,1,1]","[-0.010591031476522617,0.08407704303924568]","[-1,-1,-1]","[0.062494879815879055,-0.032505295818806346]","[1,1,1]","[0.061380047142741444,0.05852395904679831]","[1,1,1]","[-0.05700040588441348,0.013142624847179351]","[1,1,1]","[-0.1333918680427813,-0.04959520450069808]","[1,1,1]","[0.0854850882985701,0.12335386390560468]","[1,1,1]","[0.15093046682415753,0.11381023946263462]","[1,1,1]","[-0.07925715152712978,-0.08409104713784926]","[1,1,1]","[0.029269914090945755,0.19781721822198042]","[1,1,1]","[0.02,0.02]",162.1044,0,35,35,204,1,,,,,,,
,,,,,,,67d6cd20e6f88998bd004d61,682db42d345c96253c44187a,2025-05-21_14h15.11.335,cuing_paradigm_dot,2024.1.5,Win32,59.88023952,682d556593cb38ad0a074487,,,,,,,,,,,162.1053,162.605,,,162.8558,163.6229,left,0.7354,,,,,,,,,0.1,,,,,,162.6051,162.8556,163.623,"[0.070957953861798,0.02754239706905903]","[-1,-1,-1]","[0.1622912336349466,0.04277591557686506]","[-1,-1,-1]","[-0.1655015426619572,0.057308937607758306]","[-1,-1,-1]","[-0.1294391338412322,0.03816289997505432]","[-1,-1,-1]","[0.0972042567449557,-0.16460600007798445]","[-1,-1,-1]","[-0.050982650489827204,-0.07340849880294396]","[-1,-1,-1]","[0.1495904956222091,-0.07409647514861298]","[-1,-1,-1]","[-0.056273387295174795,-0.17999224428837712]","[-1,-1,-1]","[0.07683772915652003,-0.12564879147982608]","[-1,-1,-1]","[0.11274836216545997,0.10050239253612749]","[1,1,1]","[0.03354056760619858,0.12563216855488274]","[1,1,1]","[-0.13482694768169426,-0.1228967903007364]","[-1,-1,-1]","[-0.01629353364173459,0.17533887370060866]","[-1,-1,-1]","[-0.1357159156683761,-0.013107705586749473]","[-1,-1,-1]","[0.014693893722495362,-0.023522416511597328]","[-1,-1,-1]","[-0.09232494366411431,-0.08833199009102356]","[-1,-1,-1]","[0.04300312574372596,-0.1534886960684778]","[-1,-1,-1]","[-0.05847340562435066,-0.12556341784961386]","[-1,-1,-1]","[-0.09665290055150673,0.08132888983784664]","[-1,-1,-1]","[0.07428245969059946,-0.06138556686408022]","[-1,-1,-1]","[-0.05908304740074178,0.0045305693696316065]","[-1,-1,-1]","[0.017159133297118104,-0.1880588434033294]","[-1,-1,-1]","[-0.05422281267005605,0.139175250744135]","[-1,-1,-1]","[-0.1837823492093684,-0.07424857815069873]","[-1,-1,-1]","[0.11008548448412832,-0.03852637937037378]","[-1,-1,-1]","[-0.05901384835506176,0.06599294937190754]","[-1,-1,-1]","[0.1488020518691287,0.1314342303974934]","[-1,-1,-1]","[0.03633864179637606,0.17206691012491093]","[-1,-1,-1]","[-0.006336989171384125,-0.11085181745037118]","[-1,-1,-1]","[0.019981739233769776,0.01621320835720018]","[-1,-1,-1]","[-0.006281396348695708,0.11654841530295416]","[-1,-1,-1]","[-0.0684961193250314,0.1798400535553646]","[1,1,1]","[0.02,0.02]",164.7238,0,36,36,26,1,,,,,,,
,,,,,,,67d6cd20e6f88998bd004d61,682db42d345c96253c44187a,2025-05-21_14h15.11.335,cuing_paradigm_dot,2024.1.5,Win32,59.88023952,682d556593cb38ad0a074487,,,,,,,,,,,164.7245,165.2241,,,165.4748,166.0092,right,0.5109,,,,,,,,,0.55,,,,,,165.2242,165.4748,166.0094,"[0.080105893235122,-0.03394401342979973]","[-1,-1,-1]","[0.0746855959668788,0.18255814969255169]","[1,1,1]","[0.033452318299795815,-0.12673970298336384]","[1,1,1]","[-0.16935366607310462,0.0335556075639137]","[1,1,1]","[-0.02957918623597956,-0.17920977344009026]","[-1,-1,-1]","[-0.07976187408253299,0.15167807392922045]","[1,1,1]","[-0.018595468151702824,0.0034645225657133705]","[1,1,1]","[-0.05960106701179416,0.05363189790624447]","[-1,-1,-1]","[-0.1140322858396559,0.10926279303074382]","[1,1,1]","[-0.15057089372135865,-0.04482935165154366]","[1,1,1]","[0.09785876000879037,0.05427804298760422]","[1,1,1]","[0.024574337375060245,0.18472782582486869]","[1,1,1]","[0.12795286404759457,-0.03824734672330896]","[-1,-1,-1]","[-0.07889474584030642,-0.09575576525253215]","[1,1,1]","[0.18001404417590314,-0.03140102721692674]","[1,1,1]","[0.16026932685746592,-0.09957694599750028]","[1,1,1]","[-0.006391947496274732,0.10985753882744154]","[-1,-1,-1]","[0.08085150136212063,0.12513834979028163]","[-1,-1,-1]","[-0.08846510961289444,-0.028081465716431383]","[-1,-1,-1]","[0.03238200269525672,-0.1918801767330928]","[1,1,1]","[-0.13174985778991935,0.06085571206025822]","[-1,-1,-1]","[0.12657375665349363,-0.1233588749837176]","[1,1,1]","[0.17526320449548438,0.015375829071856783]","[1,1,1]","[0.06744914090363972,0.014353722010591576]","[-1,-1,-1]","[0.03301157376581775,0.08125868248915427]","[-1,-1,-1]","[-0.03354900485917378,0.19310328556470752]","[-1,-1,-1]","[0.08497791054080284,-0.14021459912471393]","[-1,-1,-1]","[-0.12134677328424767,-0.07963351969755032]","[1,1,1]","[0.12435885060103671,0.15450000231035071]","[1,1,1]","[-0.0765695247543203,-0.14022253850834437]","[1,1,1]","[0.15643299056157606,0.06866998687693021]","[-1,-1,-1]","[0.04343109089946632,-0.05479805802894499]","[-1,-1,-1]","[0.02,0.02]",167.109,0,37,37,122,1,,,,,,,
,,,,,,,67d6cd20e6f88998bd004d61,682db42d345c96253c44187a,2025-05-21_14h15.11.335,cuing_paradigm_dot,2024.1.5,Win32,59.88023952,682d556593cb38ad0a074487,,,,,,,,,,,167.1101,167.6095,,,167.8601,168.7106,left,0.8282,,,,,,,,,0.45,,,,,,167.6097,167.86,168.7107,"[0.030267569188972665,-0.10563233810649801]","[1,1,1]","[-0.11322847373766676,0.11934463144150058]","[-1,-1,-1]","[-0.03129622379339815,-0.11454754162847462]","[1,1,1]","[0.10518400758751847,0.009493711496113891]","[-1,-1,-1]","[0.18086076030328582,0.012728978406001453]","[1,1,1]","[0.0577678971925793,-0.0225157394183147]","[1,1,1]","[0.011041726245428202,-0.1924910912866496]","[1,1,1]","[-0.09412220594656431,-0.05820018007319253]","[-1,-1,-1]","[-0.043614919868602,-0.0068194426967754995]","[-1,-1,-1]","[0.08020963499189199,0.08304609622517257]","[-1,-1,-1]","[0.004508193625951559,0.005778349314330713]","[-1,-1,-1]","[-0.14859522333764044,-0.10233412862359893]","[-1,-1,-1]","[0.1195701632390603,0.14414668579289514]","[1,1,1]","[0.08301365834309003,-0.17641484774929925]","[-1,-1,-1]","[-0.03098607757036171,0.04343243829501875]","[-1,-1,-1]","[-0.01543776788488745,0.16608446526122]","[1,1,1]","[-0.17913865406745727,-0.07242728601710151]","[-1,-1,-1]","[-0.0754463357831594,-0.14749045001872513]","[1,1,1]","[0.025470349446877285,0.19549278320793398]","[1,1,1]","[0.12217676240218243,-0.05471145017712759]","[1,1,1]","[0.1014289416998402,-0.13481891485810116]","[-1,-1,-1]","[-0.08279548994082382,0.01696354352523703]","[-1,-1,-1]","[-0.12200237876214194,-0.00023849802182589167]","[1,1,1]","[0.03278823214696902,0.05580858755814151]","[1,1,1]","[-0.0472840818813034,-0.18608133711177283]","[1,1,1]","[0.020532008726672706,0.09607134697752757]","[-1,-1,-1]","[-0.17953037980362152,0.06881295602871451]","[-1,-1,-1]","[0.047304639096282484,-0.06624124719955572]","[-1,-1,-1]","[-0.05873074349225989,0.11171202895596433]","[-1,-1,-1]","[-0.14413827755628308,0.04386362856138758]","[1,1,1]","[-0.07080761304452009,0.16556680902059429]","[-1,-1,-1]","[0.16603017766398406,-0.09880364462488177]","[-1,-1,-1]","[0.02,0.02]",169.8124,0,38,38,67,1,,,,,,,
,,,,,,,67d6cd20e6f88998bd004d61,682db42d345c96253c44187a,2025-05-21_14h15.11.335,cuing_paradigm_dot,2024.1.5,Win32,59.88023952,682d556593cb38ad0a074487,,,,,,,,,,,169.8132,170.3127,,,170.5635,171.3308,left,0.7508,,,,,,,,,0.4,,,,,,170.3128,170.5635,171.3309,"[0.19570469050097766,-0.03506594663671025]","[1,1,1]","[0.07103823089628002,0.09008798811367687]","[-1,-1,-1]","[-0.08679050048086315,-0.05145045143181963]","[-1,-1,-1]","[0.001829299926036621,0.08204805442736636]","[-1,-1,-1]","[-0.16139411309862714,0.10356027327022915]","[1,1,1]","[0.16324459654679405,-0.009274026093732398]","[1,1,1]","[-0.1374880118580815,0.054357402652993686]","[1,1,1]","[0.12172404155786655,0.09597115512033262]","[-1,-1,-1]","[-0.06494411607731611,-0.016084084757051753]","[-1,-1,-1]","[0.06954603112104599,-0.12504790287843187]","[1,1,1]","[0.1845672924385525,0.06834297172756265]","[1,1,1]","[0.06093316391331662,-0.01449951961164456]","[1,1,1]","[-0.05932049172939731,-0.1627149311634971]","[1,1,1]","[-0.15961018676214234,-0.042585939225819144]","[1,1,1]","[-0.12939692629409855,-0.11983018274784446]","[-1,-1,-1]","[-0.19129966683334934,0.011718949768235313]","[-1,-1,-1]","[-0.06714749852890387,0.18526115410659263]","[-1,-1,-1]","[-0.049955229547552917,0.025522003647875345]","[1,1,1]","[0.010136935498675304,0.0321710798101457]","[-1,-1,-1]","[-0.00224560541040775,0.15092774392708383]","[-1,-1,-1]","[0.12000447410969253,-0.02929936654971508]","[1,1,1]","[-0.09400717873675223,0.07880588359084145]","[-1,-1,-1]","[0.11767849332167463,-0.11564530432768379]","[-1,-1,-1]","[0.11423209143075158,-0.07517297950349132]","[-1,-1,-1]","[0.1582549132223621,-0.11116478345898137]","[1,1,1]","[0.04868419013886886,-0.077076289831234]","[-1,-1,-1]","[0.12481263682991937,0.1467081295952077]","[-1,-1,-1]","[-0.05469905541707644,-0.1089172047285706]","[-1,-1,-1]","[0.01535916562698654,-0.18440539755044702]","[-1,-1,-1]","[0.02452884341935815,-0.04008423090152629]","[-1,-1,-1]","[0.05308883705087955,0.13998053289419987]","[1,1,1]","[0.015569271548561884,-0.13485306040534192]","[-1,-1,-1]","[0.02,0.02]",172.4315,0,39,39,50,1,,,,,,,
,,,,,,,67d6cd20e6f88998bd004d61,682db42d345c96253c44187a,2025-05-21_14h15.11.335,cuing_paradigm_dot,2024.1.5,Win32,59.88023952,682d556593cb38ad0a074487,,,,,,,,,,,172.4324,172.9318,,,173.1828,173.8996,right,0.6913,,,,,,,,,0.6,,,,,,172.9319,173.1827,173.8997,"[0.023973551429068197,0.06484762091949269]","[1,1,1]","[0.13126712313078315,0.10610096217736588]","[-1,-1,-1]","[0.04194611510658083,0.16151272484015727]","[1,1,1]","[-0.013069882730128862,-0.05878292800765826]","[1,1,1]","[-0.06369157308705468,0.14975237911208072]","[-1,-1,-1]","[-0.16843446332410872,-0.09849710009039764]","[1,1,1]","[0.08164927446213721,-0.008520862011997516]","[1,1,1]","[0.14179776008588438,0.031029933224756633]","[1,1,1]","[0.17249032459299596,0.001208497953582649]","[-1,-1,-1]","[-0.11889690206368546,0.12085109312466599]","[1,1,1]","[0.00564862041404017,0.025644627760098633]","[-1,-1,-1]","[-0.028548169098535817,0.0583565373606485]","[1,1,1]","[0.10236935409149381,-0.09506988097314303]","[-1,-1,-1]","[-0.10456186731202706,0.16008732163420414]","[-1,-1,-1]","[-0.07476219966122294,0.08232597478245819]","[1,1,1]","[-0.1791925025095692,0.04733465966411486]","[1,1,1]","[-0.12331443605104059,0.0039056881451408685]","[-1,-1,-1]","[0.05964036215290689,0.09849833491062411]","[1,1,1]","[-0.007957962743971718,0.1962890194647159]","[1,1,1]","[0.16452865006184847,0.06581636376209601]","[1,1,1]","[0.15104220171756635,-0.06352382670445694]","[-1,-1,-1]","[0.08596008700032813,0.06481873084871849]","[-1,-1,-1]","[0.10476545293283719,-0.137371073048943]","[1,1,1]","[-0.07141443366852436,-0.13680006163248817]","[1,1,1]","[0.04259345445426559,-0.19203580688686928]","[-1,-1,-1]","[-0.09070822651149969,-0.17348926628642689]","[-1,-1,-1]","[-0.010580572801632444,0.11221610144426235]","[-1,-1,-1]","[-0.13277153070088987,0.05177559809227132]","[1,1,1]","[-0.14775788267739665,-0.0335258621082128]","[1,1,1]","[-0.02230781690399619,-0.011832754619632346]","[-1,-1,-1]","[-0.11675315198001855,-0.13036433652955504]","[1,1,1]","[-0.1704754865791046,0.09111561679863722]","[1,1,1]","[0.02,0.02]",175.0005,0,40,40,169,1,,,,,,,
,,,,,,,67d6cd20e6f88998bd004d61,682db42d345c96253c44187a,2025-05-21_14h15.11.335,cuing_paradigm_dot,2024.1.5,Win32,59.88023952,682d556593cb38ad0a074487,,,,,,,,,,,175.0014,175.5014,,,175.7569,176.2685,right,0.5012,,,,,,,,,0.9,,,,,,175.5015,175.7568,176.2686,"[-0.11334788254889298,-0.15623000461587566]","[1,1,1]","[0.08465130621530087,-0.15836753597576328]","[1,1,1]","[-0.04763253924577362,0.021313000268831567]","[1,1,1]","[0.14651647160880157,0.06584724295170417]","[1,1,1]","[0.028400687950050994,0.07198363626886599]","[1,1,1]","[-0.01932032240529313,0.16301538924501582]","[1,1,1]","[0.019671404308313472,-0.05281398492117879]","[1,1,1]","[-0.08838713811660413,0.16529503926116432]","[1,1,1]","[0.05037536811663698,-0.021558053132721015]","[1,1,1]","[0.08931739340078379,-0.010904275811841137]","[1,1,1]","[-0.09345616934500732,0.08070588568821542]","[1,1,1]","[0.024426029828618172,-0.11832494035651081]","[1,1,1]","[-0.16489566451209223,-0.031976521522962896]","[1,1,1]","[-0.1295005505518233,-0.11770886286641628]","[-1,-1,-1]","[-0.05466440539622668,-0.0947090704270007]","[1,1,1]","[0.11086530507937292,0.14969496541924565]","[1,1,1]","[-0.05704206848793499,-0.17374815449612663]","[1,1,1]","[-0.03742138060788709,-0.03821253911132281]","[-1,-1,-1]","[-0.16262807447626218,0.06094848461224967]","[1,1,1]","[0.14694964198225424,0.018026935232708468]","[1,1,1]","[0.03740794109320644,0.02610737343172406]","[1,1,1]","[0.15295505329679665,0.12322809745782329]","[1,1,1]","[0.13675684242237576,-0.0819587617996556]","[1,1,1]","[-0.029249820335627945,0.10765842977530776]","[1,1,1]","[0.08561865669206313,-0.053282191264135643]","[1,1,1]","[-0.12906998197772265,0.03570537677565333]","[1,1,1]","[-0.10814058430063359,-0.07036625596054122]","[1,1,1]","[0.04149219100090242,-0.1576574734320339]","[1,1,1]","[-0.1679441922808573,-0.0911353776837899]","[-1,-1,-1]","[0.07618962751414161,0.17594163169841973]","[1,1,1]","[0.1954881060992721,0.04128228009136437]","[1,1,1]","[-0.11551594896191027,0.1263609350943851]","[1,1,1]","[0.02,0.02]",177.3692,0,41,41,187,1,,,,,,,
,,,,,,,67d6cd20e6f88998bd004d61,682db42d345c96253c44187a,2025-05-21_14h15.11.335,cuing_paradigm_dot,2024.1.5,Win32,59.88023952,682d556593cb38ad0a074487,,,,,,,,,,,177.37,177.8697,,,178.121,178.6208,left,0.4727,,,,,,,,,0.1,,,,,,177.8697,178.1209,178.6209,"[0.041109210202864885,0.09610215070932802]","[-1,-1,-1]","[-0.05914693558197176,-0.011550762277285468]","[-1,-1,-1]","[0.003826355371267515,0.0459003166068421]","[-1,-1,-1]","[-0.17357497848912357,-0.00546879656502919]","[-1,-1,-1]","[0.14989589820220958,-0.1117148631178735]","[-1,-1,-1]","[0.04360853572924279,-0.09344657565745444]","[-1,-1,-1]","[-0.06627417734680847,0.15237012881105927]","[-1,-1,-1]","[-0.03367352907100747,-0.08243455493523719]","[-1,-1,-1]","[-0.16336050466391333,-0.10621930657620289]","[-1,-1,-1]","[0.1532368037637778,0.043200972987250695]","[-1,-1,-1]","[-0.10976486991376677,0.08386274377376211]","[-1,-1,-1]","[0.01452663107591223,0.1602644321327495]","[-1,-1,-1]","[-0.07342427415690973,-0.16200372213291186]","[-1,-1,-1]","[0.0017525278863844012,-0.05599823621994299]","[-1,-1,-1]","[-0.029495437898922734,0.16824685424915564]","[-1,-1,-1]","[0.054329640867211794,0.1816795013067204]","[-1,-1,-1]","[0.12967647982253186,0.11488187700309244]","[-1,-1,-1]","[0.05191667353653735,-0.13941115211363797]","[-1,-1,-1]","[0.11765172968122989,-0.024769686372911437]","[-1,-1,-1]","[0.0014952448524273845,0.11885959327867371]","[-1,-1,-1]","[0.11283896117913884,0.16255932727049482]","[1,1,1]","[-0.01789027153594904,-0.014955465522912619]","[-1,-1,-1]","[-0.005451722376879704,-0.11157502887322365]","[1,1,1]","[0.05527380241235976,-0.046064562218272896]","[-1,-1,-1]","[-0.0808574766547316,0.05591024485490978]","[-1,-1,-1]","[-0.12805113556088454,-0.14685661543233453]","[-1,-1,-1]","[-0.038292342723026514,-0.13977393025670296]","[-1,-1,-1]","[0.050349405922451386,0.033203862526497555]","[1,1,1]","[-0.08254755372479836,-0.09337899426401247]","[-1,-1,-1]","[0.17912404339174146,-0.028655118884104026]","[-1,-1,-1]","[-0.1414221736011717,0.03513095826764528]","[-1,-1,-1]","[-0.1558532787376762,-0.06491036485919419]","[-1,-1,-1]","[0.02,0.02]",179.7221,0,42,42,9,1,,,,,,,
,,,,,,,67d6cd20e6f88998bd004d61,682db42d345c96253c44187a,2025-05-21_14h15.11.335,cuing_paradigm_dot,2024.1.5,Win32,59.88023952,682d556593cb38ad0a074487,,,,,,,,,,,179.723,180.2224,,,180.4784,180.9402,right,0.4516,,,,,,,,,0.9,,,,,,180.2225,180.4783,180.9403,"[0.12639406819966778,-0.10782156278241334]","[1,1,1]","[0.10596580073955615,-0.030685776552615552]","[1,1,1]","[-0.045084229401231704,0.0879666280087771]","[1,1,1]","[0.07334282779849546,0.13483975235995954]","[1,1,1]","[-0.13365072944130962,-0.08885424641366897]","[1,1,1]","[-0.025167484141169646,-0.18567849393647334]","[1,1,1]","[0.15083494084582044,0.027248027773592354]","[1,1,1]","[0.04204064653951508,-0.15060840341994156]","[1,1,1]","[-0.022641665844508805,0.1981776686479998]","[1,1,1]","[-0.07581425890464932,-0.10176122029668071]","[1,1,1]","[-0.08653883644422528,0.08349371606700053]","[-1,-1,-1]","[0.047948904882910176,-0.012017575451094317]","[1,1,1]","[0.0729451778650478,0.03497804409146163]","[1,1,1]","[0.18932291535738327,-0.02366940929376591]","[1,1,1]","[0.10657443915929132,0.07594062205444163]","[1,1,1]","[-0.05070973251951618,-0.013394327746595807]","[1,1,1]","[0.15394998190751227,0.06785396573853796]","[1,1,1]","[-0.022604838361696616,-0.05810693501436008]","[1,1,1]","[-0.18125575428869084,-0.0510051218336495]","[-1,-1,-1]","[-0.07662600784468226,0.03682308416485581]","[1,1,1]","[0.08397089941288449,-0.16266688326481096]","[1,1,1]","[0.055976139170789606,0.18588020342531317]","[1,1,1]","[0.09331914257819242,0.17062522384904433]","[1,1,1]","[-0.09166891221766806,-0.004727757175731335]","[1,1,1]","[-0.12697662441367474,0.01635535708328107]","[-1,-1,-1]","[-0.03371301996140621,-0.10341803222930142]","[1,1,1]","[0.010448447161181944,-0.08465513522873774]","[1,1,1]","[0.15675263904111747,0.11960418015935054]","[1,1,1]","[-0.17650226624112483,0.05729239014672315]","[1,1,1]","[-0.19060087086884978,0.01684223584893053]","[1,1,1]","[-0.09930103907195442,0.14666250114737503]","[1,1,1]","[-0.000989183208670474,0.06935692191078265]","[1,1,1]","[0.02,0.02]",182.0404,0,43,43,203,1,,,,,,,
,,,,,,,67d6cd20e6f88998bd004d61,682db42d345c96253c44187a,2025-05-21_14h15.11.335,cuing_paradigm_dot,2024.1.5,Win32,59.88023952,682d556593cb38ad0a074487,,,,,,,,,,,182.041,182.5411,,,182.793,183.509,right,0.6868,,,,,,,,,0.6,,,,,,182.5411,182.7929,183.5091,"[-0.11633718274839912,-0.013941607324012424]","[1,1,1]","[0.15338183700916114,0.0904517203772456]","[1,1,1]","[-0.01811480549526424,0.1613463935332419]","[1,1,1]","[0.1490340571113521,-0.008544666096865394]","[1,1,1]","[0.07830279533814767,-0.12237875731951527]","[1,1,1]","[-0.11711173967885781,0.03643054309618366]","[1,1,1]","[0.027809965440793904,0.05719341162663873]","[-1,-1,-1]","[0.07987963668861282,0.1773609462761305]","[1,1,1]","[0.06119863787210088,-0.06280003797937093]","[1,1,1]","[-0.04893605694167291,0.07167842287508724]","[-1,-1,-1]","[0.006935585864809609,0.002496321860407738]","[-1,-1,-1]","[-0.08339720447707362,-0.1494351853657304]","[1,1,1]","[-0.16022714494744206,0.11900039280618618]","[-1,-1,-1]","[0.06371387238381943,-0.1755773600275433]","[-1,-1,-1]","[-0.05266048514561295,0.11973147238566478]","[-1,-1,-1]","[-0.026153912482094966,-0.1308603671926047]","[-1,-1,-1]","[0.014985831385653868,0.19563352972460554]","[-1,-1,-1]","[0.042653357080971274,0.1056925765455709]","[1,1,1]","[-0.18905360237525712,0.027485608535580054]","[1,1,1]","[-0.11590492423625531,0.15176964171619756]","[-1,-1,-1]","[0.10383801489435855,-0.07110348401084174]","[-1,-1,-1]","[-0.1790090254247768,-0.03306129140181289]","[1,1,1]","[-0.15458209242362514,-0.08900367206564082]","[1,1,1]","[0.1679219109375466,-0.08385292469822396]","[1,1,1]","[-0.047487826055435375,0.19039116656658234]","[1,1,1]","[0.10232749721778639,0.034967633473045316]","[1,1,1]","[-0.00028577669140555364,-0.0670733961868707]","[1,1,1]","[-0.1395444070173342,-0.14221264041666626]","[-1,-1,-1]","[0.17288819346548914,0.04784210348131292]","[-1,-1,-1]","[-0.055061859371434235,-0.07510939070807464]","[1,1,1]","[-0.04116224116185494,-0.18179546126303336]","[-1,-1,-1]","[-0.06883971821495308,-0.026912557252587316]","[1,1,1]","[0.02,0.02]",184.6097,0,44,44,173,1,,,,,,,
