right,left,explain.started,explain.stopped,key_resp_3.keys,key_resp_3.rt,key_resp_3.duration,participant,session,date,expName,psychopyVersion,OS,frameRate,study_id,explain_2.started,explain_2.stopped,key_resp_4.keys,key_resp_4.rt,key_resp_4.duration,explain_3.started,explain_3.stopped,key_resp_5.keys,key_resp_5.rt,key_resp_5.duration,fixation.started,fixation.stopped,practice.started,practice.stopped,response.started,response.stopped,key_resp.keys,key_resp.rt,key_resp.duration,feedback.started,feedback.stopped,trials_2.thisRepN,trials_2.thisTrialN,trials_2.thisN,trials_2.thisIndex,trials_2.ran,white_ratio,explain_4.started,explain_4.stopped,key_resp_6.keys,key_resp_6.rt,key_resp_6.duration,dotDisplay.started,dotDisplay.stopped,ITI.started,polygon_1.pos,polygon_1.color,polygon_2.pos,polygon_2.color,polygon_3.pos,polygon_3.color,polygon_4.pos,polygon_4.color,polygon_5.pos,polygon_5.color,polygon_6.pos,polygon_6.color,polygon_7.pos,polygon_7.color,polygon_8.pos,polygon_8.color,polygon_9.pos,polygon_9.color,polygon_10.pos,polygon_10.color,polygon_11.pos,polygon_11.color,polygon_12.pos,polygon_12.color,polygon_13.pos,polygon_13.color,polygon_14.pos,polygon_14.color,polygon_15.pos,polygon_15.color,polygon_16.pos,polygon_16.color,polygon_17.pos,polygon_17.color,polygon_18.pos,polygon_18.color,polygon_19.pos,polygon_19.color,polygon_20.pos,polygon_20.color,polygon_21.pos,polygon_21.color,polygon_22.pos,polygon_22.color,polygon_23.pos,polygon_23.color,polygon_24.pos,polygon_24.color,polygon_25.pos,polygon_25.color,polygon_26.pos,polygon_26.color,polygon_27.pos,polygon_27.color,polygon_28.pos,polygon_28.color,polygon_29.pos,polygon_29.color,polygon_30.pos,polygon_30.color,polygon_31.pos,polygon_31.color,polygon_32.pos,polygon_32.color,dot_size,ITI.stopped,trials.thisRepN,trials.thisTrialN,trials.thisN,trials.thisIndex,trials.ran,break_2.started,break_2.stopped,trials_3.thisRepN,trials_3.thisTrialN,trials_3.thisN,trials_3.thisIndex,trials_3.ran
subject chose white,subject chose black,0.0003,15.7748,space,0.7549,,67d6e53407cb5301b586215a,682db43c55dad57aba3d428f,2025-05-21_13h52.06.163,cuing_paradigm_dot,2024.1.5,Win32,59.52380952,682d556593cb38ad0a074487,,,,,,,,,,,,,,,,,,,,,,,,,,,,,,,,,,,,,,,,,,,,,,,,,,,,,,,,,,,,,,,,,,,,,,,,,,,,,,,,,,,,,,,,,,,,,,,,,,,,,,,,,,,,,,,,,
,,,,,,,67d6e53407cb5301b586215a,682db43c55dad57aba3d428f,2025-05-21_13h52.06.163,cuing_paradigm_dot,2024.1.5,Win32,59.52380952,682d556593cb38ad0a074487,15.7753,46.4879,space,0.6962,,,,,,,,,,,,,,,,,,,,,,,,,,,,,,,,,,,,,,,,,,,,,,,,,,,,,,,,,,,,,,,,,,,,,,,,,,,,,,,,,,,,,,,,,,,,,,,,,,,,,,,,,,,,,
,,,,,,,67d6e53407cb5301b586215a,682db43c55dad57aba3d428f,2025-05-21_13h52.06.163,cuing_paradigm_dot,2024.1.5,Win32,59.52380952,682d556593cb38ad0a074487,,,,,,46.488,50.3256,space,0.833,,,,,,,,,,,,,,,,,,,,,,,,,,,,,,,,,,,,,,,,,,,,,,,,,,,,,,,,,,,,,,,,,,,,,,,,,,,,,,,,,,,,,,,,,,,,,,,,,,,,,,,,
,,,,,,,67d6e53407cb5301b586215a,682db43c55dad57aba3d428f,2025-05-21_13h52.06.163,cuing_paradigm_dot,2024.1.5,Win32,59.52380952,682d556593cb38ad0a074487,,,,,,,,,,,50.3402,50.842,50.8423,51.0764,51.0765,52.3439,left,1.2513,,52.3441,53.4446,0,0,0,1,1,0.2,,,,,,,,,,,,,,,,,,,,,,,,,,,,,,,,,,,,,,,,,,,,,,,,,,,,,,,,,,,,,,,,,,,,,,,,,,,,,,,,,,,,,,
,,,,,,,67d6e53407cb5301b586215a,682db43c55dad57aba3d428f,2025-05-21_13h52.06.163,cuing_paradigm_dot,2024.1.5,Win32,59.52380952,682d556593cb38ad0a074487,,,,,,,,,,,53.445,53.9451,53.9451,54.1958,54.1958,54.7291,right,0.5199,,54.7291,55.8303,0,1,1,0,1,0.8,,,,,,,,,,,,,,,,,,,,,,,,,,,,,,,,,,,,,,,,,,,,,,,,,,,,,,,,,,,,,,,,,,,,,,,,,,,,,,,,,,,,,,
,,,,,,,67d6e53407cb5301b586215a,682db43c55dad57aba3d428f,2025-05-21_13h52.06.163,cuing_paradigm_dot,2024.1.5,Win32,59.52380952,682d556593cb38ad0a074487,,,,,,,,,,,,,,,,,,,,,,,,,,,,55.8306,59.4512,space,0.6109,,,,,,,,,,,,,,,,,,,,,,,,,,,,,,,,,,,,,,,,,,,,,,,,,,,,,,,,,,,,,,,,,,,,,,,,,,,,,,,,,,
,,,,,,,67d6e53407cb5301b586215a,682db43c55dad57aba3d428f,2025-05-21_13h52.06.163,cuing_paradigm_dot,2024.1.5,Win32,59.52380952,682d556593cb38ad0a074487,,,,,,,,,,,59.4736,59.9678,,,60.2017,60.9688,left,0.7545,,,,,,,,,0.45,,,,,,59.9681,60.2017,60.9691,"[0.13577734044657452,0.08457876647958822]","[-1,-1,-1]","[-0.18720508352762943,-0.03634953358678782]","[-1,-1,-1]","[0.12598326864682385,-0.0940967401465948]","[-1,-1,-1]","[0.14128721747075373,0.03290079838460881]","[-1,-1,-1]","[-0.054954209035553196,-0.024101100030622914]","[-1,-1,-1]","[-0.08561645547587275,-0.12317361682474635]","[-1,-1,-1]","[-0.017654750696531725,0.14890430403531166]","[1,1,1]","[0.042598086042474344,0.007734656821627143]","[-1,-1,-1]","[-0.02628762600604344,-0.1754853239468693]","[-1,-1,-1]","[0.04992597544632989,0.13622770743506457]","[1,1,1]","[-0.14384424980680674,-0.017430849331485594]","[1,1,1]","[0.012811510342583104,0.04242682967918445]","[-1,-1,-1]","[0.09263922402035113,-0.02564464577778639]","[-1,-1,-1]","[-0.08575397888445652,0.09584453656886621]","[-1,-1,-1]","[0.13383825354777823,-0.042109631742312054]","[1,1,1]","[0.012067703019622475,0.19845295278675887]","[-1,-1,-1]","[0.12505163999394658,0.14815362730912263]","[-1,-1,-1]","[0.03396046880449699,-0.08940101812270283]","[1,1,1]","[-0.17833966988872674,0.05157328565493203]","[1,1,1]","[-0.0030821499312903605,-0.047915697921297594]","[-1,-1,-1]","[0.0964310007485346,-0.12596456034970482]","[1,1,1]","[-0.08979232834046834,0.039919093780327354]","[1,1,1]","[-0.03295637836935847,-0.135593147006963]","[1,1,1]","[0.050398034042994665,0.1826337172883811]","[1,1,1]","[0.009970202067265461,0.08788611551899639]","[-1,-1,-1]","[0.13552946014835215,-0.14241061964170906]","[1,1,1]","[-0.14207949206482076,0.029768691238815308]","[1,1,1]","[0.19276650658333405,-0.023918046246328355]","[-1,-1,-1]","[-0.10047727787345406,-0.07259332460071366]","[1,1,1]","[0.05122616810832632,-0.14441177331568375]","[-1,-1,-1]","[0.087833882296199,0.07581268738732069]","[1,1,1]","[0.009647471964220672,-0.12437384799491359]","[-1,-1,-1]","[0.02,0.02]",62.0698,0,0,0,82,1,,,,,,,
,,,,,,,67d6e53407cb5301b586215a,682db43c55dad57aba3d428f,2025-05-21_13h52.06.163,cuing_paradigm_dot,2024.1.5,Win32,59.52380952,682d556593cb38ad0a074487,,,,,,,,,,,62.0701,62.5701,,,62.8208,63.3544,right,0.5218,,,,,,,,,0.55,,,,,,62.5702,62.8207,63.3544,"[0.10787294296835358,-0.09736821782946958]","[-1,-1,-1]","[0.009612300501491408,0.0057577803236412576]","[1,1,1]","[-0.032864244010695334,-0.13974186085061155]","[-1,-1,-1]","[-0.1575161631596427,0.020916010953091764]","[-1,-1,-1]","[-0.044832507698137423,-0.05624691106720329]","[1,1,1]","[-0.09340409518871495,0.05805001716064749]","[1,1,1]","[0.10259848936746684,0.04797640414386565]","[1,1,1]","[0.00894298194606975,-0.13080045464382145]","[-1,-1,-1]","[-0.03583782608931358,0.06592125510777111]","[1,1,1]","[0.040873257938326225,-0.1007711515483683]","[1,1,1]","[-0.1862461968117973,0.06663235741431127]","[-1,-1,-1]","[-0.013011452766283477,-0.1827147005645712]","[-1,-1,-1]","[0.1921534688327046,0.02844096937488505]","[-1,-1,-1]","[-0.1570351999960616,0.12297080367917447]","[1,1,1]","[-0.12245699129593919,0.00007372603069584393]","[1,1,1]","[0.14724820432722896,-0.13153542623770453]","[1,1,1]","[-0.14636694182697346,-0.13048019078755185]","[1,1,1]","[-0.015092718487381489,0.12452400626390756]","[-1,-1,-1]","[0.009016621188096319,-0.05763781068022782]","[-1,-1,-1]","[-0.026072297259508107,0.1652886107816369]","[-1,-1,-1]","[0.13047245030485008,-0.05117816643102157]","[-1,-1,-1]","[0.07633390498983486,0.1761310754591245]","[1,1,1]","[0.16617976983056937,-0.06975998401456007]","[1,1,1]","[0.08138708823274289,-0.010047738396870957]","[-1,-1,-1]","[-0.03084714429618553,-0.013460432199663043]","[-1,-1,-1]","[0.037079674827500984,0.07271938515788529]","[1,1,1]","[0.10106104373358296,0.13115344777634305]","[1,1,1]","[-0.09866468443355134,-0.15587337571461377]","[1,1,1]","[-0.17588102356469587,-0.03387528707747779]","[1,1,1]","[0.04883027852688629,0.022589306547231448]","[1,1,1]","[-0.09746961130433172,-0.07864429566381247]","[-1,-1,-1]","[0.04576048158045701,-0.1513486481758915]","[1,1,1]","[0.02,0.02]",64.4555,0,1,1,132,1,,,,,,,
,,,,,,,67d6e53407cb5301b586215a,682db43c55dad57aba3d428f,2025-05-21_13h52.06.163,cuing_paradigm_dot,2024.1.5,Win32,59.52380952,682d556593cb38ad0a074487,,,,,,,,,,,64.4559,64.9559,,,65.2065,66.3075,left,1.0852,,,,,,,,,0.4,,,,,,64.956,65.2064,66.3076,"[-0.12462243192095104,0.03009022242048318]","[-1,-1,-1]","[0.16597048683043789,0.0784972339010831]","[-1,-1,-1]","[0.11190701079443263,-0.1587491513517163]","[-1,-1,-1]","[-0.006058231569584927,0.08085179705042768]","[1,1,1]","[0.005625855863674415,-0.16767051929683816]","[-1,-1,-1]","[0.06854661344939193,-0.011627363220104506]","[-1,-1,-1]","[-0.15532789250019086,0.11527751880118352]","[-1,-1,-1]","[0.09962068334523873,0.08395517009670567]","[1,1,1]","[0.048048068696793615,-0.08364724254508223]","[-1,-1,-1]","[-0.00888573000804368,-0.05748356899567254]","[-1,-1,-1]","[0.09432017683528016,-0.07075592973628687]","[-1,-1,-1]","[-0.062122907707667194,0.16223040247717183]","[-1,-1,-1]","[-0.16434575744421195,0.015810412734353005]","[1,1,1]","[0.03768088276969264,0.07433998537054691]","[1,1,1]","[0.1543649839577648,-0.10013140523239156]","[-1,-1,-1]","[-0.1236966657278101,0.07915565205513503]","[-1,-1,-1]","[0.14362964590431324,0.03333592364572148]","[-1,-1,-1]","[-0.010375314357482594,0.04041484132596376]","[1,1,1]","[-0.0913066906221779,-0.1722103326760108]","[1,1,1]","[0.00533806108163226,0.0028143153760549484]","[1,1,1]","[0.030011535737685672,0.16181320215654535]","[-1,-1,-1]","[-0.033737063155464576,-0.12723745862494876]","[1,1,1]","[0.07771117710046198,0.1189231437875987]","[1,1,1]","[-0.1204337138617559,-0.08316134257179185]","[1,1,1]","[-0.010249883325633542,0.15027157995744767]","[-1,-1,-1]","[0.09098393865847368,0.17614382569856118]","[1,1,1]","[0.06765173175162045,-0.14766372628825605]","[-1,-1,-1]","[-0.0723696434478694,-0.013069051822356409]","[1,1,1]","[0.1555045613016567,-0.015699101003637944]","[-1,-1,-1]","[-0.05915193182142723,0.09759434048115913]","[-1,-1,-1]","[0.029212459321800107,-0.12013523179458235]","[1,1,1]","[-0.08431236698564082,-0.11786024961273861]","[-1,-1,-1]","[0.02,0.02]",67.4087,0,2,2,50,1,,,,,,,
,,,,,,,67d6e53407cb5301b586215a,682db43c55dad57aba3d428f,2025-05-21_13h52.06.163,cuing_paradigm_dot,2024.1.5,Win32,59.52380952,682d556593cb38ad0a074487,,,,,,,,,,,67.4092,67.909,,,68.1596,68.8768,left,0.7021,,,,,,,,,0.45,,,,,,67.909,68.1595,68.8769,"[0.07742592131344266,-0.025230792314315503]","[1,1,1]","[0.0404492667525212,0.08576147699443687]","[-1,-1,-1]","[-0.09897587121678839,0.04951549715157208]","[-1,-1,-1]","[0.020528563241118323,-0.18392325699467443]","[-1,-1,-1]","[-0.026949982331520905,-0.17876109712725505]","[1,1,1]","[-0.061401931835582485,0.10576622300753788]","[-1,-1,-1]","[0.08386480473497882,0.13172942219776507]","[1,1,1]","[-0.11284404831372803,-0.01915455127375161]","[1,1,1]","[0.17855410440130368,-0.02117448493082526]","[-1,-1,-1]","[0.01604351450999162,0.16201965205316365]","[1,1,1]","[-0.1471535103408993,0.0903749157951498]","[-1,-1,-1]","[0.03588108612038139,-0.006531579001796453]","[1,1,1]","[-0.03365358935781486,0.035277845184583496]","[-1,-1,-1]","[0.1701709526548024,0.03277110716005187]","[-1,-1,-1]","[-0.005574738572917868,-0.13116568545433946]","[1,1,1]","[-0.16490777642558563,-0.10208547953790505]","[-1,-1,-1]","[0.09572072524796336,-0.14749183321004586]","[-1,-1,-1]","[-0.09229395819518131,0.15913753508269526]","[1,1,1]","[0.14737092629666718,-0.11366949989476675]","[-1,-1,-1]","[-0.10086317790299563,0.09874540544989627]","[1,1,1]","[0.17071530204767218,-0.0737025866010944]","[-1,-1,-1]","[-0.04501365107454427,-0.10889089582422336]","[-1,-1,-1]","[-0.1980520186553358,0.026043771772314612]","[-1,-1,-1]","[0.10386218602726516,-0.05738481280758473]","[1,1,1]","[0.036087137787413216,-0.10854013464592924]","[1,1,1]","[-0.1817468565273345,-0.03820472554602014]","[-1,-1,-1]","[-0.14868457276603497,0.030346624707826994]","[1,1,1]","[-0.1161833676587188,-0.1372683653396353]","[1,1,1]","[0.004370071441627442,-0.07800103054859826]","[-1,-1,-1]","[-0.10760442130051524,-0.08257627961961037]","[1,1,1]","[-0.14415796788998034,-0.06028056344936876]","[-1,-1,-1]","[0.13667366137155168,0.08707807830046667]","[-1,-1,-1]","[0.02,0.02]",69.9776,0,3,3,85,1,,,,,,,
,,,,,,,67d6e53407cb5301b586215a,682db43c55dad57aba3d428f,2025-05-21_13h52.06.163,cuing_paradigm_dot,2024.1.5,Win32,59.52380952,682d556593cb38ad0a074487,,,,,,,,,,,69.978,70.4783,,,70.7289,71.8135,left,1.0692,,,,,,,,,0.45,,,,,,70.4784,70.7289,71.8136,"[-0.08535954693966874,0.11636591797408076]","[-1,-1,-1]","[0.1754790487793857,-0.02392335151058085]","[1,1,1]","[0.05153881498171877,-0.01391271620641425]","[1,1,1]","[0.08533030847416917,0.02374278432143986]","[1,1,1]","[0.0059172969684249755,-0.14985143395465855]","[-1,-1,-1]","[0.10403523483504883,-0.02103630776091927]","[-1,-1,-1]","[-0.02718758652637396,0.15036808088967912]","[-1,-1,-1]","[0.1354779688239964,0.09285984837455429]","[-1,-1,-1]","[-0.07250981188528297,0.021774678550292716]","[-1,-1,-1]","[-0.020214594361565186,0.06976438916728518]","[1,1,1]","[0.14491281570339812,-0.10848094950104055]","[-1,-1,-1]","[0.1756050200303703,0.07087467150450372]","[-1,-1,-1]","[-0.13283189663241857,-0.0768417530497666]","[-1,-1,-1]","[-0.09165917353716282,-0.06118447228673772]","[-1,-1,-1]","[0.10460417618841522,-0.15775479831216674]","[-1,-1,-1]","[0.037345846012513506,0.056762137012432615]","[-1,-1,-1]","[0.05215664416786106,-0.05467112931358637]","[-1,-1,-1]","[0.008933631047291852,0.0017735198772069723]","[-1,-1,-1]","[-0.048369641954208134,0.10027307840619841]","[-1,-1,-1]","[-0.10799669289729892,0.050769856402400663]","[1,1,1]","[0.061406430041754625,0.15665337934510928]","[1,1,1]","[-0.049525626863337766,-0.12796777524039676]","[1,1,1]","[0.12521510080832174,0.13805055885427603]","[1,1,1]","[-0.10522762296393942,-0.10722938288625834]","[1,1,1]","[0.048229588082901946,-0.13828288156453644]","[1,1,1]","[0.027907245081021485,0.09908721677285201]","[1,1,1]","[-0.027414775802012768,-0.059926514693001094]","[1,1,1]","[-0.16536497676269662,0.05189958719446776]","[-1,-1,-1]","[-0.027298867318940517,-0.18586832858176802]","[1,1,1]","[-0.14954721088589562,0.11332510796090141]","[1,1,1]","[-0.11757509812758073,-0.0019041779566511489]","[-1,-1,-1]","[-0.18013927955129583,0.01332178924783457]","[-1,-1,-1]","[0.02,0.02]",72.9143,0,4,4,74,1,,,,,,,
,,,,,,,67d6e53407cb5301b586215a,682db43c55dad57aba3d428f,2025-05-21_13h52.06.163,cuing_paradigm_dot,2024.1.5,Win32,59.52380952,682d556593cb38ad0a074487,,,,,,,,,,,72.9147,73.4144,,,73.665,74.0822,left,0.4011,,,,,,,,,0.4,,,,,,73.4144,73.665,74.0823,"[-0.088152361971259,0.1693414336720905]","[-1,-1,-1]","[0.04674403005806007,-0.18999178025726182]","[1,1,1]","[-0.02273102734268132,-0.18433998754559075]","[1,1,1]","[0.043186649322607316,0.13099131006581474]","[1,1,1]","[0.07531329977380787,-0.039703736444489025]","[1,1,1]","[-0.01268636456833833,0.09021816362037006]","[-1,-1,-1]","[0.1833439870692419,-0.015398523241793036]","[1,1,1]","[0.07437809439133579,0.009517947688590381]","[-1,-1,-1]","[0.098678299286634,0.17153466472446882]","[-1,-1,-1]","[0.035216699214044106,-0.10832337424503394]","[-1,-1,-1]","[0.1323489479261782,0.11533070279737657]","[1,1,1]","[-0.11316579942000472,0.10178311402964711]","[1,1,1]","[-0.11578831299234842,-0.014663551008499597]","[1,1,1]","[-0.03906626245527911,-0.03729152964080621]","[-1,-1,-1]","[0.013751292427652806,-0.16447951452175513]","[-1,-1,-1]","[-0.04841759571573791,-0.11002378657433823]","[-1,-1,-1]","[0.006222945911822625,0.015995025708792958]","[-1,-1,-1]","[0.13630912179242663,-0.025116948063519166]","[1,1,1]","[-0.10549260891129392,-0.11391570068917754]","[1,1,1]","[0.1518491063485563,0.012535600573800019]","[-1,-1,-1]","[-0.05833756992546025,0.023322102248035492]","[-1,-1,-1]","[-0.17840235450926473,-0.03677319742813174]","[-1,-1,-1]","[-0.15335053330717727,0.07315242829357]","[-1,-1,-1]","[-0.10773109358590197,-0.16791172164111415]","[-1,-1,-1]","[-0.09336190661849707,0.0594688737927768]","[-1,-1,-1]","[0.08284342028129357,0.053820597916591925]","[-1,-1,-1]","[0.13397618708962775,0.05534607342453814]","[1,1,1]","[-0.12043549886992003,0.14306674925612686]","[-1,-1,-1]","[-0.04901738666586697,0.06950937283824987]","[1,1,1]","[0.09297964454989648,0.10704838680504503]","[-1,-1,-1]","[0.103009661983225,-0.12833091291401136]","[-1,-1,-1]","[-0.1296965425982241,-0.062190315206600906]","[1,1,1]","[0.02,0.02]",75.1829,0,5,5,37,1,,,,,,,
,,,,,,,67d6e53407cb5301b586215a,682db43c55dad57aba3d428f,2025-05-21_13h52.06.163,cuing_paradigm_dot,2024.1.5,Win32,59.52380952,682d556593cb38ad0a074487,,,,,,,,,,,75.1831,75.6833,,,75.9341,76.2008,left,0.2544,,,,,,,,,0.1,,,,,,75.6833,75.9341,76.2008,"[0.12859542655286815,-0.09348623480582945]","[1,1,1]","[-0.07053439115783885,-0.17123860464651142]","[-1,-1,-1]","[-0.02260162586843027,0.09711163521472577]","[-1,-1,-1]","[-0.11473811604609745,-0.08648749468649262]","[-1,-1,-1]","[-0.10920595034497844,0.16106393704466335]","[-1,-1,-1]","[0.16189729567152475,0.11357031239643586]","[-1,-1,-1]","[-0.1439534439993365,-0.05217181774310617]","[-1,-1,-1]","[-0.00011433143438210716,-0.16764853438692942]","[-1,-1,-1]","[-0.10996981749373261,0.10043030039269814]","[-1,-1,-1]","[-0.017485757838217666,-0.05836675592309025]","[-1,-1,-1]","[-0.18213818081284866,0.051735962833975364]","[-1,-1,-1]","[-0.0442923529410439,0.17983786729160958]","[-1,-1,-1]","[0.05675937484625841,-0.0995538462767433]","[-1,-1,-1]","[0.026791272310279748,-0.03702935145462028]","[-1,-1,-1]","[0.11441217174144397,0.1470611737135125]","[-1,-1,-1]","[-0.08226306030707305,0.06604629560338945]","[-1,-1,-1]","[0.13960647658242106,0.015696365015294703]","[-1,-1,-1]","[0.13364987116556523,0.05808098800061361]","[1,1,1]","[0.04715927745521222,0.16925466932797206]","[-1,-1,-1]","[-0.050350338334986505,-0.013433682681606572]","[-1,-1,-1]","[0.06090976476980563,-0.1830957443289551]","[-1,-1,-1]","[-0.06313803180729353,-0.08504632490502977]","[-1,-1,-1]","[0.16472163166060874,-0.0478515823007863]","[1,1,1]","[0.04875568621581068,0.049263284736466365]","[-1,-1,-1]","[-0.14240884096582793,-0.0022619380120773875]","[-1,-1,-1]","[-0.00018989137234995946,-0.10010710447835937]","[-1,-1,-1]","[-0.09377219250600659,0.015622510189018812]","[-1,-1,-1]","[0.0932410492594109,0.1042648004742758]","[-1,-1,-1]","[-0.0900850706103688,-0.12690324306540898]","[-1,-1,-1]","[-0.003141064512753612,0.16175566900022276]","[-1,-1,-1]","[-0.0014584611683008631,0.011249320120870298]","[-1,-1,-1]","[0.03937404101077198,0.0013284161602806256]","[-1,-1,-1]","[0.02,0.02]",77.3015,0,6,6,11,1,,,,,,,
,,,,,,,67d6e53407cb5301b586215a,682db43c55dad57aba3d428f,2025-05-21_13h52.06.163,cuing_paradigm_dot,2024.1.5,Win32,59.52380952,682d556593cb38ad0a074487,,,,,,,,,,,77.3017,77.8024,,,78.0526,78.5863,right,0.52,,,,,,,,,0.5,,,,,,77.8025,78.0525,78.5864,"[-0.04849854644484381,0.08627570231431388]","[-1,-1,-1]","[0.0265680654808127,-0.17416079340128887]","[-1,-1,-1]","[0.14924796844167884,-0.042663641448606036]","[1,1,1]","[0.0889082439653937,0.07280607632484555]","[-1,-1,-1]","[-0.06575835943443872,-0.03786040724742933]","[1,1,1]","[-0.1657496401509738,0.008441541853379522]","[1,1,1]","[0.17643147443274687,-0.09072202024883436]","[-1,-1,-1]","[-0.12506363540406923,0.08694262323413694]","[-1,-1,-1]","[-0.035015317717651255,0.1451675751883169]","[-1,-1,-1]","[-0.04175418511849026,0.18949124606980797]","[1,1,1]","[0.11581186309390265,0.11048220958455081]","[1,1,1]","[-0.1719213075871631,-0.09868785047251014]","[-1,-1,-1]","[0.10527150169081008,-0.1390620053786767]","[1,1,1]","[0.16898005102796448,0.08346251065015568]","[-1,-1,-1]","[-0.0036166008449632072,-0.04034192664641853]","[-1,-1,-1]","[-0.11440159036095068,-0.1260623880485103]","[-1,-1,-1]","[-0.06891331727991193,0.009325385703256583]","[1,1,1]","[0.03848071002928969,-0.12001897641674088]","[1,1,1]","[-0.09378445118389277,0.06009456720563236]","[1,1,1]","[0.19546101770366076,0.02630090303723963]","[-1,-1,-1]","[0.020522804028137564,0.06138457990647445]","[1,1,1]","[-0.10061539337419732,0.135928708050882]","[-1,-1,-1]","[0.10376888946101118,-0.0002286112372924693]","[-1,-1,-1]","[-0.1292912572676276,-0.07085105997429277]","[1,1,1]","[-0.06949115943188261,-0.17555582913193343]","[1,1,1]","[0.03982518476766322,0.16752485124558988]","[1,1,1]","[0.15744764120584143,0.008044178540263286]","[1,1,1]","[0.10119821892271791,-0.05144717977146148]","[1,1,1]","[-0.16452513152023288,0.10066038798752057]","[-1,-1,-1]","[0.12494773648966227,-0.0931947580123712]","[-1,-1,-1]","[-0.01569161680716335,-0.08857674605914437]","[1,1,1]","[-0.03176573299968717,-0.1580981111207609]","[-1,-1,-1]","[0.02,0.02]",79.6873,0,7,7,107,1,,,,,,,
,,,,,,,67d6e53407cb5301b586215a,682db43c55dad57aba3d428f,2025-05-21_13h52.06.163,cuing_paradigm_dot,2024.1.5,Win32,59.52380952,682d556593cb38ad0a074487,,,,,,,,,,,79.6876,80.1878,,,80.4382,80.9221,right,0.4712,,,,,,,,,0.4,,,,,,80.1878,80.4382,80.9222,"[-0.12327232503727001,0.0861535193632782]","[-1,-1,-1]","[0.19091346936119366,-0.024562866539504232]","[-1,-1,-1]","[0.16812439755387928,0.020958813755874255]","[-1,-1,-1]","[-0.07840625138237832,-0.055336373479090976]","[1,1,1]","[0.1327387936823633,-0.01733990228321511]","[-1,-1,-1]","[0.09088376548869134,0.10395703900583275]","[-1,-1,-1]","[-0.08011659240650203,0.10803418457025543]","[-1,-1,-1]","[0.055768496757242096,0.1768558989727988]","[-1,-1,-1]","[-0.09350617307769164,0.04519300098128542]","[-1,-1,-1]","[-0.017871415274111072,-0.1392134138001216]","[-1,-1,-1]","[-0.13208261248834613,-0.1471742437527871]","[1,1,1]","[-0.13459642426758742,0.14194673294631371]","[-1,-1,-1]","[-0.07686140712399059,0.16003476078560255]","[1,1,1]","[0.10250064522773013,0.016964075440483648]","[1,1,1]","[0.0022358161793713132,0.19945434081146096]","[1,1,1]","[0.09464808919935498,-0.16760908564337326]","[-1,-1,-1]","[0.13180856364388427,-0.14315877162340104]","[-1,-1,-1]","[0.01620365424789287,0.11231114673629815]","[1,1,1]","[-0.08240291603914184,-0.1353492043099433]","[1,1,1]","[-0.027197504217821272,0.060809539744196194]","[-1,-1,-1]","[0.17154794140503218,-0.09671583638866657]","[-1,-1,-1]","[-0.04480430109776567,0.00008475032180142425]","[1,1,1]","[0.06471103678223124,-0.015522731416022915]","[1,1,1]","[0.09598995664211514,-0.06780263538528071]","[-1,-1,-1]","[0.09612088248913404,0.05690482365690509]","[-1,-1,-1]","[-0.05286242208885903,-0.08954102272351559]","[-1,-1,-1]","[0.03191903740496125,0.025080438950109404]","[1,1,1]","[-0.09117100697710881,-0.016672692282484324]","[-1,-1,-1]","[0.05389334294781609,0.07529225262467462]","[1,1,1]","[-0.000027382660402637517,-0.04820396794305946]","[-1,-1,-1]","[0.046796192718354876,-0.160603149951516]","[1,1,1]","[-0.17725687094769724,-0.01152890316574709]","[1,1,1]","[0.02,0.02]",82.0229,0,8,8,55,1,,,,,,,
,,,,,,,67d6e53407cb5301b586215a,682db43c55dad57aba3d428f,2025-05-21_13h52.06.163,cuing_paradigm_dot,2024.1.5,Win32,59.52380952,682d556593cb38ad0a074487,,,,,,,,,,,82.0233,82.5235,,,82.774,83.3913,right,0.602,,,,,,,,,0.55,,,,,,82.5236,82.7739,83.3913,"[0.0278556733986129,-0.10139904117831679]","[-1,-1,-1]","[-0.007371161290787133,0.1688098880207103]","[-1,-1,-1]","[-0.064009111638007,-0.1566342970649829]","[-1,-1,-1]","[-0.11042667525495425,-0.03149634074897329]","[1,1,1]","[0.07032587606128594,0.07559313180133452]","[1,1,1]","[-0.11767916430141603,-0.14019697911068876]","[1,1,1]","[-0.005865392610813259,0.06383729806718588]","[1,1,1]","[-0.06953679509251855,0.11161528134476635]","[-1,-1,-1]","[-0.07315302226179715,0.18403514271500848]","[1,1,1]","[0.15072788070832538,-0.1262327416229504]","[1,1,1]","[-0.10388349547595867,0.1477860514182875]","[-1,-1,-1]","[0.16386238763704983,-0.03615590799689535]","[1,1,1]","[0.12845330611728206,0.09966116477071835]","[-1,-1,-1]","[0.18030782002023296,-0.07424877760606102]","[-1,-1,-1]","[-0.10385626831814407,-0.09857539461475219]","[1,1,1]","[-0.11131318714019324,0.04969963110541224]","[1,1,1]","[-0.006052483428980404,0.12761596316685958]","[-1,-1,-1]","[0.00599487796801164,-0.010895362997381277]","[-1,-1,-1]","[0.07589049839695569,0.14312148618520226]","[-1,-1,-1]","[0.04233077070591384,0.17673363357430524]","[-1,-1,-1]","[-0.011350554802428095,-0.11419961964131942]","[1,1,1]","[0.10867457036499996,-0.04386336000099877]","[1,1,1]","[0.03685259501018784,0.13311415161813886]","[1,1,1]","[-0.1625591881319565,-0.0431141636655769]","[1,1,1]","[-0.16297353806513798,0.05513862232475088]","[-1,-1,-1]","[-0.006316196454178151,-0.1611973602051467]","[1,1,1]","[0.10849643872118703,-0.0870476625832638]","[1,1,1]","[-0.03910656002871886,-0.03843641719071573]","[1,1,1]","[-0.16944621321714518,-0.10051422346508605]","[1,1,1]","[0.04907073380010598,-0.17557792821895155]","[1,1,1]","[-0.11042215917088932,0.10420159584100759]","[-1,-1,-1]","[0.08503165492114773,-0.006038888423882722]","[-1,-1,-1]","[0.02,0.02]",84.4921,0,9,9,137,1,,,,,,,
,,,,,,,67d6e53407cb5301b586215a,682db43c55dad57aba3d428f,2025-05-21_13h52.06.163,cuing_paradigm_dot,2024.1.5,Win32,59.52380952,682d556593cb38ad0a074487,,,,,,,,,,,84.4924,84.9926,,,85.2435,85.7601,left,0.502,,,,,,,,,0.45,,,,,,84.9926,85.2435,85.7601,"[-0.06590494497873264,-0.15185948880937924]","[-1,-1,-1]","[0.028250501759546652,-0.047899196169279755]","[-1,-1,-1]","[-0.06477409609583287,0.09362247620332971]","[1,1,1]","[-0.10783444006639399,0.02078014535878235]","[-1,-1,-1]","[-0.004546792204437257,-0.19387635156789218]","[-1,-1,-1]","[0.011401305993690276,-0.09973173467635461]","[1,1,1]","[0.09465473908212335,0.09194914101765181]","[-1,-1,-1]","[-0.1682008859298446,0.0007249420228178458]","[-1,-1,-1]","[-0.07442410327452445,0.13462474515260453]","[-1,-1,-1]","[0.17237492470286542,-0.10121481321368268]","[1,1,1]","[-0.04055762181086458,0.19105575001382102]","[1,1,1]","[0.12115863996928418,-0.010707930449824573]","[-1,-1,-1]","[0.09201513649578294,-0.10332942657819304]","[1,1,1]","[0.0014082232682709503,0.03181456769499281]","[1,1,1]","[0.10786794086294098,0.14098930258253006]","[1,1,1]","[0.14339626687413443,0.0346517235465217]","[1,1,1]","[-0.045562397747580516,-0.05785863378640257]","[1,1,1]","[0.08495729609028921,-0.030527576278523264]","[1,1,1]","[-0.1586437928899769,0.12026900396116424]","[-1,-1,-1]","[0.05230767445635099,0.014277788330066675]","[-1,-1,-1]","[-0.0022253710010124734,0.1591438080566337]","[1,1,1]","[-0.009254769447519582,-0.018671989235187467]","[-1,-1,-1]","[-0.15148144965995056,0.046016153065680784]","[1,1,1]","[-0.13009163932345622,-0.0674738343629888]","[-1,-1,-1]","[-0.09841465849293483,-0.024685147574646262]","[1,1,1]","[-0.18169755754048986,-0.07734461759968982]","[-1,-1,-1]","[0.1397367072933078,-0.0695912987840393]","[-1,-1,-1]","[0.08639240657030828,0.049015065691267866]","[-1,-1,-1]","[-0.020185527304042727,-0.15369691643330424]","[-1,-1,-1]","[0.03162441045614153,0.09456135441677177]","[-1,-1,-1]","[0.10100354500023936,-0.16633809439744007]","[1,1,1]","[-0.1359311022046315,-0.11302538566384575]","[-1,-1,-1]","[0.02,0.02]",86.8612,0,10,10,66,1,,,,,,,
,,,,,,,67d6e53407cb5301b586215a,682db43c55dad57aba3d428f,2025-05-21_13h52.06.163,cuing_paradigm_dot,2024.1.5,Win32,59.52380952,682d556593cb38ad0a074487,,,,,,,,,,,86.8615,87.3617,,,87.6122,88.3794,right,0.7537,,,,,,,,,0.55,,,,,,87.3618,87.6121,88.3794,"[0.03913734994479994,0.055849523658321666]","[1,1,1]","[0.1823732045367175,-0.06538438674054206]","[-1,-1,-1]","[0.14828535732807424,0.025088724349208155]","[1,1,1]","[-0.10274170270932963,-0.026489076081718337]","[1,1,1]","[-0.14773092064116236,0.058929286418732234]","[-1,-1,-1]","[-0.07861620649421266,-0.12936098617437986]","[-1,-1,-1]","[-0.01835355468690007,-0.07751357127046583]","[1,1,1]","[0.01903221892576016,0.09088339462423235]","[1,1,1]","[0.04186564618059331,-0.12133034026344876]","[-1,-1,-1]","[0.12871124949801505,0.13761218508152528]","[1,1,1]","[0.00034882335096226566,-0.1497730252401374]","[1,1,1]","[0.09159408666160755,0.06090361704280724]","[1,1,1]","[0.06994199271081321,-0.08021844217048248]","[1,1,1]","[-0.028767044451586038,0.12046159090106276]","[1,1,1]","[0.12868629717420102,-0.0810269694526053]","[1,1,1]","[0.08515360420388855,-0.17549483970787663]","[-1,-1,-1]","[-0.03174922125746655,0.03522288655329679]","[1,1,1]","[0.04645498568833247,-0.04392561998627145]","[-1,-1,-1]","[-0.06926394579530519,0.0031662655704968725]","[-1,-1,-1]","[-0.08746508192090977,0.1786006260808845]","[-1,-1,-1]","[-0.07360804439596051,0.11569295686875698]","[-1,-1,-1]","[0.05255475173659597,0.1927864483516978]","[1,1,1]","[-0.028637809650869216,-0.033739087567783634]","[-1,-1,-1]","[-0.174337497626307,-0.02052318270958003]","[1,1,1]","[0.07714774556746928,-0.009631598237574434]","[1,1,1]","[0.021309175606862216,-0.0836662877834248]","[-1,-1,-1]","[-0.1209330965747578,0.14264077243155016]","[1,1,1]","[-0.10466923481600329,0.042441431952067614]","[-1,-1,-1]","[0.19546716782958282,-0.010458710511549245]","[-1,-1,-1]","[0.012601804212125353,-0.0012071905829885055]","[1,1,1]","[0.027881624054171227,0.15833813660612386]","[-1,-1,-1]","[0.08044645607129206,0.1549281967375231]","[1,1,1]","[0.02,0.02]",89.4805,0,11,11,148,1,,,,,,,
,,,,,,,67d6e53407cb5301b586215a,682db43c55dad57aba3d428f,2025-05-21_13h52.06.163,cuing_paradigm_dot,2024.1.5,Win32,59.52380952,682d556593cb38ad0a074487,,,,,,,,,,,89.4808,89.9811,,,90.2315,90.8819,right,0.6343,,,,,,,,,0.6,,,,,,89.9811,90.2315,90.882,"[0.13266437387687188,-0.04793217005878803]","[-1,-1,-1]","[0.04505881267037119,0.004493491159795815]","[1,1,1]","[-0.04406049638900003,-0.0074341268387932416]","[1,1,1]","[0.05470451755229309,-0.14556283472082288]","[1,1,1]","[-0.05129136177123439,0.13845718021828493]","[-1,-1,-1]","[-0.10583050079876387,0.016692136754182085]","[-1,-1,-1]","[-0.05648170056571463,0.042649253021266674]","[1,1,1]","[-0.0001505312088138529,-0.06141726536695322]","[1,1,1]","[-0.13244374145346194,-0.12553282372877786]","[-1,-1,-1]","[-0.15012553074094712,0.08341990280566046]","[1,1,1]","[0.17353750137537396,-0.012482804613252537]","[1,1,1]","[-0.0179085691760514,0.031196702010607622]","[1,1,1]","[0.06899311161888967,-0.041730449798857705]","[-1,-1,-1]","[0.06334430912493781,0.1221069827439992]","[1,1,1]","[-0.04482268210830247,0.09529015864144305]","[-1,-1,-1]","[-0.0049451587919481475,0.14436943394108087]","[-1,-1,-1]","[-0.09850936745083808,-0.0939417964539305]","[1,1,1]","[-0.19278150053030305,0.005794760619159974]","[-1,-1,-1]","[-0.16899103341530616,-0.10556248036005286]","[-1,-1,-1]","[0.0958142556492529,-0.1175619892640001]","[1,1,1]","[-0.04792875034105153,-0.17200585653301562]","[1,1,1]","[-0.0874799680426617,-0.16261191883221987]","[-1,-1,-1]","[-0.190256018685917,0.05569917537096011]","[1,1,1]","[0.06135716526670739,0.18871150295596167]","[-1,-1,-1]","[0.09880881324722149,0.030497608128086107]","[1,1,1]","[0.16740375956065953,0.033236682189333185]","[1,1,1]","[0.0043610449651022495,-0.10570861290108677]","[-1,-1,-1]","[0.1380083519674184,0.08517595435032345]","[-1,-1,-1]","[-0.09950770092800944,0.14356234819608252]","[1,1,1]","[-0.1401106097436001,-0.06445482452632353]","[1,1,1]","[-0.04583032140646314,0.18430171344049037]","[1,1,1]","[-0.19251909572553508,-0.050883120159657444]","[1,1,1]","[0.02,0.02]",91.9828,0,12,12,173,1,,,,,,,
,,,,,,,67d6e53407cb5301b586215a,682db43c55dad57aba3d428f,2025-05-21_13h52.06.163,cuing_paradigm_dot,2024.1.5,Win32,59.52380952,682d556593cb38ad0a074487,,,,,,,,,,,91.9831,92.4834,,,92.7339,93.5176,right,0.7682,,,,,,,,,0.55,,,,,,92.4834,92.7339,93.5177,"[0.1831839682615616,-0.011549715635180135]","[1,1,1]","[0.17906354683909942,0.029651533891706387]","[-1,-1,-1]","[0.020339491594389178,0.039345940353487055]","[-1,-1,-1]","[-0.006742477107242157,-0.17755023621362204]","[1,1,1]","[-0.03539992963549214,0.08288198827908327]","[1,1,1]","[0.05584332435600137,-0.09831320033040991]","[-1,-1,-1]","[0.10727415375754647,0.10383893332813075]","[-1,-1,-1]","[-0.13763542120306782,0.14453425317474142]","[1,1,1]","[0.13122000780991133,-0.1316070307445381]","[1,1,1]","[0.0432401747389175,-0.01089510314159656]","[-1,-1,-1]","[-0.04095952289215888,0.018965491159017234]","[1,1,1]","[0.13256869544329997,0.0200509257147037]","[-1,-1,-1]","[-0.08686290203678858,-0.004274713576162431]","[1,1,1]","[0.05916201479399213,0.11788042636701632]","[-1,-1,-1]","[0.04146775371818045,0.1577432254984534]","[-1,-1,-1]","[0.0792263044148484,-0.04662754930963226]","[1,1,1]","[-0.16788800034757637,0.03638428463779652]","[1,1,1]","[-0.03502514770510536,0.12759939751663701]","[1,1,1]","[-0.12921535530256406,0.10272631422088002]","[-1,-1,-1]","[-0.024100082600427977,-0.053820437970672694]","[1,1,1]","[-0.09745549227702842,-0.12991147014703558]","[1,1,1]","[-0.07547435248659787,-0.045877853766024226]","[1,1,1]","[0.08396437252274684,-0.14615090173848178]","[1,1,1]","[-0.039657932962271304,-0.1260684225542711]","[1,1,1]","[-0.001406954935120276,0.003346054011644576]","[1,1,1]","[-0.12093518122501504,-0.040106437906939456]","[1,1,1]","[0.008763409752941088,-0.07883081671719754]","[1,1,1]","[0.09993376050323835,0.05270395084030299]","[-1,-1,-1]","[-0.10806126790511081,-0.07887478850924629]","[-1,-1,-1]","[0.14656805898508166,0.12191831402245827]","[-1,-1,-1]","[0.1924362215820999,-0.05144436714097506]","[-1,-1,-1]","[-0.09440410055649823,0.14515967931865395]","[-1,-1,-1]","[0.02,0.02]",94.6189,0,13,13,144,1,,,,,,,
,,,,,,,67d6e53407cb5301b586215a,682db43c55dad57aba3d428f,2025-05-21_13h52.06.163,cuing_paradigm_dot,2024.1.5,Win32,59.52380952,682d556593cb38ad0a074487,,,,,,,,,,,94.6193,95.1196,,,95.3698,96.0702,right,0.6914,,,,,,,,,0.55,,,,,,95.1196,95.3698,96.0703,"[-0.010784615298822338,-0.16317032113665544]","[1,1,1]","[-0.10987308604669,0.09377153677947447]","[1,1,1]","[-0.12477599612153475,-0.09459728637869873]","[1,1,1]","[-0.0161191638144655,-0.06204125267511293]","[1,1,1]","[-0.09638283017748031,0.04786571560282561]","[-1,-1,-1]","[0.05780218137746194,-0.13529392996643072]","[-1,-1,-1]","[0.02759639966523522,0.00564821317400654]","[-1,-1,-1]","[0.0943185165151169,-0.1641948659545601]","[-1,-1,-1]","[-0.08675664499615647,-0.16763940226566126]","[1,1,1]","[0.11447816624003963,0.13674642800487455]","[1,1,1]","[-0.007786673145951006,0.08576753803769581]","[1,1,1]","[0.1464807797732621,0.06296400235014624]","[-1,-1,-1]","[0.08022294355674532,0.046531182949796066]","[1,1,1]","[0.09087738418363124,-0.07653349552834708]","[1,1,1]","[0.10446993845623517,-0.11757232882355392]","[1,1,1]","[0.17280891889056926,-0.06051397911356497]","[-1,-1,-1]","[-0.06000869844089199,0.14456003394453026]","[-1,-1,-1]","[0.11044884897603925,0.01142633180300173]","[-1,-1,-1]","[0.19363140034223353,-0.008964135138350635]","[1,1,1]","[-0.11412613684875303,0.005844383478808626]","[-1,-1,-1]","[0.03440598441581199,-0.09710096944381949]","[1,1,1]","[0.08126432882063726,0.1729602612950672]","[1,1,1]","[-0.15528917261404607,-0.024714993659255925]","[-1,-1,-1]","[-0.1658006705091154,0.0746748812966216]","[1,1,1]","[-0.03520762319199671,0.0028643820097962644]","[1,1,1]","[-0.06894170226246052,-0.07734982145915409]","[1,1,1]","[-0.11497246997690683,-0.043241308796905194]","[-1,-1,-1]","[0.1493519874396996,0.11670480438361648]","[-1,-1,-1]","[-0.17849037871077741,0.011771884816965509]","[1,1,1]","[-0.03780080705067004,0.18094002720994642]","[1,1,1]","[0.050310453543287684,-0.04490099700744372]","[-1,-1,-1]","[-0.05458952850493725,0.05085846607823019]","[-1,-1,-1]","[0.02,0.02]",97.1714,0,14,14,130,1,,,,,,,
,,,,,,,67d6e53407cb5301b586215a,682db43c55dad57aba3d428f,2025-05-21_13h52.06.163,cuing_paradigm_dot,2024.1.5,Win32,59.52380952,682d556593cb38ad0a074487,,,,,,,,,,,97.1718,97.6718,,,97.9225,98.5728,left,0.6367,,,,,,,,,0.45,,,,,,97.6718,97.9224,98.5728,"[-0.1573835990382222,0.09991886732295402]","[-1,-1,-1]","[-0.16699734311194595,-0.045654318986706244]","[1,1,1]","[-0.04286020248078698,0.12117689028564979]","[-1,-1,-1]","[0.14299986422677505,0.06016281934286732]","[-1,-1,-1]","[0.11408376793605375,-0.06218753217435476]","[-1,-1,-1]","[-0.01068499332172247,-0.1868856463241452]","[-1,-1,-1]","[0.025179569347022212,0.04996072205314039]","[1,1,1]","[-0.11737203366507021,-0.07229933215129038]","[-1,-1,-1]","[-0.03541032183047756,-0.10118986983731756]","[-1,-1,-1]","[0.037851429557840044,0.10415555943530651]","[1,1,1]","[0.08486701747649546,0.12275800913709055]","[-1,-1,-1]","[0.12028782728483711,-0.14366074505027138]","[-1,-1,-1]","[0.09316308189750981,0.046122851180361725]","[1,1,1]","[-0.08621798223610014,-0.010185424408705065]","[-1,-1,-1]","[0.0823125450261819,-0.11455023702364862]","[-1,-1,-1]","[-0.011534352449619808,0.17066593189363122]","[-1,-1,-1]","[0.07046709963725549,0.07952426450074435]","[-1,-1,-1]","[-0.09805340660659854,-0.1535131421100821]","[-1,-1,-1]","[0.021023401330292672,-0.1332167340237587]","[1,1,1]","[-0.11517386426920141,-0.11393521362616851]","[1,1,1]","[0.14172548326479112,0.13183580586475477]","[1,1,1]","[0.07790236918163154,-0.03536153058547499]","[1,1,1]","[0.1852795256247034,0.05829858924544344]","[1,1,1]","[-0.01532211711226868,-0.04121298130078741]","[-1,-1,-1]","[-0.08187393033520958,0.04095525145389981]","[1,1,1]","[0.024327873775931035,-0.05269499003231629]","[-1,-1,-1]","[0.15931330973575994,-0.019072806211490514]","[1,1,1]","[-0.021869967008782933,0.002240826747070038]","[1,1,1]","[-0.0037710723359377692,0.10715943155470845]","[-1,-1,-1]","[0.03355319694988485,0.19089554326255603]","[1,1,1]","[0.14515196058859908,-0.1025003702616144]","[-1,-1,-1]","[-0.07418102792261658,-0.07598204593390509]","[1,1,1]","[0.02,0.02]",99.6739,0,15,15,63,1,,,,,,,
,,,,,,,67d6e53407cb5301b586215a,682db43c55dad57aba3d428f,2025-05-21_13h52.06.163,cuing_paradigm_dot,2024.1.5,Win32,59.52380952,682d556593cb38ad0a074487,,,,,,,,,,,99.6742,100.1744,,,100.425,101.3256,left,0.8849,,,,,,,,,0.5,,,,,,100.1745,100.4249,101.3256,"[-0.04504530070019934,-0.11430733487006071]","[-1,-1,-1]","[-0.04073969827510034,0.17580133425945224]","[-1,-1,-1]","[0.13181541832051996,-0.04601513580370185]","[1,1,1]","[0.15018920113951215,0.08431078089522723]","[-1,-1,-1]","[0.04765510210381615,0.04655136870412351]","[-1,-1,-1]","[-0.17799153884150715,-0.003221229888420142]","[-1,-1,-1]","[0.1680236257995179,-0.004968609699839419]","[-1,-1,-1]","[0.05350944969985293,-0.026331443334046824]","[1,1,1]","[0.09101230962719395,-0.08770618359421613]","[-1,-1,-1]","[0.02230160626843187,0.13706727844819883]","[-1,-1,-1]","[-0.010325755170372526,-0.18429284715365368]","[-1,-1,-1]","[0.01471948768434856,0.022051702305755993]","[1,1,1]","[0.10923930097108321,0.12940081366536557]","[1,1,1]","[-0.19145163801446693,0.048828231058661305]","[1,1,1]","[-0.01884428151566406,-0.047168396503268255]","[-1,-1,-1]","[-0.09046248776389974,0.14119202246718074]","[1,1,1]","[-0.10807384423370499,-0.017564880804514887]","[-1,-1,-1]","[0.03850946422627735,0.1872070335844598]","[-1,-1,-1]","[-0.11465196157033865,-0.1173740373589172]","[-1,-1,-1]","[0.09461551598906147,0.014772787916605933]","[-1,-1,-1]","[-0.027633274152132844,0.05994374011829974]","[1,1,1]","[0.02912801116438965,0.09295827297294891]","[1,1,1]","[0.024024477212652908,-0.06660737144811867]","[1,1,1]","[-0.07850596849538573,0.01743763705392272]","[-1,-1,-1]","[0.09304336398925456,-0.13527447856648137]","[-1,-1,-1]","[-0.08998241776951908,-0.08274993527583858]","[1,1,1]","[0.0015918277621704963,-0.10528433328839311]","[1,1,1]","[0.03698416433153629,-0.19384931846275816]","[1,1,1]","[-0.11152664946405082,0.08210473777617043]","[1,1,1]","[0.14076640350206385,0.040835176080264546]","[1,1,1]","[-0.14480700532861776,-0.07257518188114599]","[1,1,1]","[-0.04960817812397741,-0.19310037961200482]","[1,1,1]","[0.02,0.02]",102.4267,0,16,16,94,1,,,,,,,
,,,,,,,67d6e53407cb5301b586215a,682db43c55dad57aba3d428f,2025-05-21_13h52.06.163,cuing_paradigm_dot,2024.1.5,Win32,59.52380952,682d556593cb38ad0a074487,,,,,,,,,,,102.427,102.9272,,,103.1781,103.5612,left,0.3657,,,,,,,,,0.1,,,,,,102.9273,103.178,103.5613,"[-0.04966149258763279,-0.13354961686405603]","[-1,-1,-1]","[0.014562359076688361,0.16101405580356806]","[-1,-1,-1]","[0.07132186842699062,0.021227571626150885]","[-1,-1,-1]","[0.11148289500423385,0.1608085182141888]","[-1,-1,-1]","[-0.1211756633904097,0.09134666740184005]","[-1,-1,-1]","[0.03820657518506209,0.07549821958881982]","[-1,-1,-1]","[-0.17069774017692754,-0.07976227546451588]","[-1,-1,-1]","[0.1909419467032395,-0.05917228842711069]","[-1,-1,-1]","[0.08202656913713169,-0.15751674349819753]","[-1,-1,-1]","[-0.10582949248757999,-0.14222572483808799]","[-1,-1,-1]","[-0.06757722043977382,0.14182801135399845]","[1,1,1]","[-0.1074052464728583,0.021507075759692837]","[-1,-1,-1]","[0.0989638671696649,0.05585702015066753]","[-1,-1,-1]","[-0.005991701855639385,-0.0070867506680546595]","[-1,-1,-1]","[-0.01292498253541532,-0.19636157854672961]","[-1,-1,-1]","[-0.021636822959097426,0.12917497847174733]","[-1,-1,-1]","[-0.15864730670854632,-0.013038191875246545]","[-1,-1,-1]","[-0.18479347181983263,0.07287821929676173]","[-1,-1,-1]","[-0.03502826113668559,0.06265113203693941]","[1,1,1]","[0.030812019826890705,-0.08386428388086245]","[-1,-1,-1]","[0.08328657569058001,0.09817008070907156]","[-1,-1,-1]","[0.1472155764449477,0.055371466151708224]","[-1,-1,-1]","[0.1601780753600144,-0.021990987609699048]","[-1,-1,-1]","[0.12618484192665286,-0.13077587243300978]","[-1,-1,-1]","[0.02993454003138268,-0.15876503214108428]","[-1,-1,-1]","[0.02895862725215327,0.027774167852514343]","[-1,-1,-1]","[-0.026915533222577934,-0.04956173633734676]","[-1,-1,-1]","[0.058698539279733515,-0.018491384023247674]","[-1,-1,-1]","[-0.05054912077926415,0.0005252174668827873]","[-1,-1,-1]","[0.07027405800072413,0.13876725779472623]","[1,1,1]","[0.08538596069687007,-0.07076066467237102]","[-1,-1,-1]","[-0.1301273345654055,-0.09352113679035932]","[-1,-1,-1]","[0.02,0.02]",104.6623,0,17,17,22,1,,,,,,,
,,,,,,,67d6e53407cb5301b586215a,682db43c55dad57aba3d428f,2025-05-21_13h52.06.163,cuing_paradigm_dot,2024.1.5,Win32,59.52380952,682d556593cb38ad0a074487,,,,,,,,,,,104.6627,105.1628,,,105.4135,106.1474,right,0.7174,,,,,,,,,0.5,,,,,,105.1628,105.4134,106.1474,"[-0.08770162714420002,-0.12783941612359628]","[1,1,1]","[-0.12737048306739684,0.137834399981411]","[-1,-1,-1]","[0.1144645340225774,-0.09770434530165939]","[-1,-1,-1]","[0.048469573545387876,-0.028230813831725547]","[1,1,1]","[-0.10033883915702785,0.07665410923037978]","[1,1,1]","[-0.1315626243602421,-0.06788598704014884]","[-1,-1,-1]","[0.06981718594645499,0.04179477370304594]","[-1,-1,-1]","[0.010886012117376175,0.19183633213617593]","[1,1,1]","[0.07323269774064214,-0.06386392397391055]","[-1,-1,-1]","[0.0754929900882867,0.15668364850771752]","[-1,-1,-1]","[-0.041827759711513625,-0.12002187814363116]","[1,1,1]","[0.050615158835578475,-0.14630299841591438]","[-1,-1,-1]","[-0.030351787620340416,-0.16798491340409255]","[-1,-1,-1]","[-0.08020718561601096,-0.16802435798080664]","[-1,-1,-1]","[0.13525153688638764,-0.044116385515059996]","[1,1,1]","[0.11148068322442423,0.052840360328706294]","[1,1,1]","[0.03844766680868439,-0.09382276504639796]","[-1,-1,-1]","[0.008692272868027378,-0.14904633855503174]","[-1,-1,-1]","[-0.020267599939371897,-0.03650903376524003]","[1,1,1]","[-0.0358665980177253,0.09845664599173401]","[-1,-1,-1]","[-0.06706754103601209,0.15139878336618534]","[1,1,1]","[-0.049473095720721595,0.05449638033455575]","[1,1,1]","[0.015483541586334117,0.12895920090567983]","[1,1,1]","[-0.1252433758027846,0.010384723278693515]","[1,1,1]","[0.1550402865982069,-0.10645669508386979]","[-1,-1,-1]","[-0.13903013344596957,-0.11102509464577505]","[-1,-1,-1]","[0.13819923247249863,0.11245080418849053]","[-1,-1,-1]","[0.18459504625557005,0.07602510886732275]","[1,1,1]","[-0.19110995409637976,0.013828556319781136]","[1,1,1]","[-0.1727437059452561,0.08301612239063277]","[-1,-1,-1]","[0.1914174533809988,0.02271355764127395]","[1,1,1]","[0.19318558666021848,-0.04580216395338896]","[1,1,1]","[0.02,0.02]",107.2481,0,18,18,101,1,,,,,,,
,,,,,,,67d6e53407cb5301b586215a,682db43c55dad57aba3d428f,2025-05-21_13h52.06.163,cuing_paradigm_dot,2024.1.5,Win32,59.52380952,682d556593cb38ad0a074487,,,,,,,,,,,107.2485,107.7486,,,107.9992,108.366,left,0.3508,,,,,,,,,0.1,,,,,,107.7487,107.9991,108.366,"[-0.04400429038812539,0.058486072020130155]","[-1,-1,-1]","[-0.04495731422575224,-0.15858193099680623]","[-1,-1,-1]","[-0.02458390576690674,0.14825088950429716]","[-1,-1,-1]","[-0.00933818375331222,-0.04379272217653897]","[-1,-1,-1]","[-0.1317543550051611,-0.11214332806273648]","[-1,-1,-1]","[0.13542652599776334,0.025741033090088055]","[1,1,1]","[0.10559332423075138,-0.14659877796991055]","[-1,-1,-1]","[-0.06637223642644126,0.16693028292236278]","[-1,-1,-1]","[0.1808236046945906,0.06878680627352257]","[-1,-1,-1]","[0.056218737822880414,-0.1764416250815281]","[-1,-1,-1]","[0.0865648672494895,0.07727573025917144]","[-1,-1,-1]","[-0.11008432057422998,-0.04520668718636183]","[-1,-1,-1]","[-0.09264742242915311,0.1362976151858369]","[-1,-1,-1]","[-0.18415317848946122,-0.020173906335056432]","[-1,-1,-1]","[0.17288751091519108,-0.008960559104667828]","[-1,-1,-1]","[0.010151894838108338,0.09170694051409926]","[-1,-1,-1]","[-0.11401962240388397,0.027750741521588244]","[-1,-1,-1]","[0.0038132746247281075,-0.08332230117125418]","[-1,-1,-1]","[0.13243721231247738,-0.03567021176183673]","[-1,-1,-1]","[0.013144411809267564,0.013988908765269287]","[-1,-1,-1]","[-0.010165442240773911,-0.17840482929703644]","[-1,-1,-1]","[-0.003221543316950076,-0.1350218953525579]","[-1,-1,-1]","[-0.17050741398964656,0.021614773805654585]","[-1,-1,-1]","[0.04770887036695082,-0.0406649872076189]","[-1,-1,-1]","[-0.08562068569605802,-0.1572873838201954]","[1,1,1]","[0.026982313122795355,0.19217315294834214]","[-1,-1,-1]","[0.13544570402444348,-0.11829543592160176]","[1,1,1]","[-0.17003214789874704,-0.061428786054092674]","[-1,-1,-1]","[0.08612042119805866,0.1661598268426345]","[-1,-1,-1]","[-0.06211450661839218,0.10561112465792782]","[-1,-1,-1]","[0.06373717476093389,0.12588452207568035]","[-1,-1,-1]","[-0.14141353394944306,0.12496455158107718]","[-1,-1,-1]","[0.02,0.02]",109.4672,0,19,19,20,1,,,,,,,
,,,,,,,67d6e53407cb5301b586215a,682db43c55dad57aba3d428f,2025-05-21_13h52.06.163,cuing_paradigm_dot,2024.1.5,Win32,59.52380952,682d556593cb38ad0a074487,,,,,,,,,,,109.4675,109.9677,,,110.218,110.6015,left,0.3716,,,,,,,,,0.1,,,,,,109.9677,110.218,110.6016,"[0.011972721240862034,-0.02694948059965089]","[-1,-1,-1]","[-0.13282949972362038,-0.011196791519117085]","[-1,-1,-1]","[0.15798710478580882,0.09002818959471447]","[-1,-1,-1]","[0.038395109319788484,-0.12773577181703924]","[1,1,1]","[-0.11844240763164332,0.13461086049960766]","[1,1,1]","[-0.08662319785682797,0.0853476617026597]","[-1,-1,-1]","[0.1696329454545321,-0.06608513002596984]","[-1,-1,-1]","[0.01945430821726431,-0.09195986755787786]","[-1,-1,-1]","[-0.05886974265906305,-0.07740996725906384]","[-1,-1,-1]","[0.16898846528488964,0.022561437157740723]","[-1,-1,-1]","[0.11647760597002105,0.048024385023814245]","[-1,-1,-1]","[-0.010583168985794656,-0.132645630552307]","[-1,-1,-1]","[-0.14616827032812546,-0.11389812179902921]","[-1,-1,-1]","[-0.07757924114835756,0.17704801841362214]","[-1,-1,-1]","[0.018341915694976955,0.16037271122912733]","[-1,-1,-1]","[0.1881936347718972,0.060129048871116086]","[-1,-1,-1]","[-0.16432211250959233,0.08271099219707281]","[-1,-1,-1]","[-0.19137662421318197,-0.05779634817210256]","[-1,-1,-1]","[-0.030184586570144094,-0.0017873801851547816]","[-1,-1,-1]","[0.049221583774341056,-0.06443102992376266]","[-1,-1,-1]","[0.08741535861204289,-0.11425393762832309]","[-1,-1,-1]","[0.06721832728368912,0.16427224282615357]","[-1,-1,-1]","[0.025048764851680033,0.1111908254041562]","[-1,-1,-1]","[-0.08459668713077163,-0.02491963234669702]","[-1,-1,-1]","[0.05015534948514882,0.06946231488509971]","[-1,-1,-1]","[0.11468130371572725,-0.1602155960233733]","[-1,-1,-1]","[-0.07825700749084992,-0.12100044599502227]","[1,1,1]","[0.13459193535069108,-0.028824311530495]","[-1,-1,-1]","[0.06777932739300274,0.030615136406490537]","[-1,-1,-1]","[-0.011254988858603246,0.19837797132167492]","[-1,-1,-1]","[-0.11666159140053,-0.1537455130424309]","[-1,-1,-1]","[-0.13236942033537535,0.054363956078255435]","[-1,-1,-1]","[0.02,0.02]",111.7025,0,20,20,12,1,,,,,,,
,,,,,,,67d6e53407cb5301b586215a,682db43c55dad57aba3d428f,2025-05-21_13h52.06.163,cuing_paradigm_dot,2024.1.5,Win32,59.52380952,682d556593cb38ad0a074487,,,,,,,,,,,111.7029,112.203,,,112.4536,113.0874,left,0.6178,,,,,,,,,0.1,,,,,,112.203,112.4536,113.0874,"[0.16198525808390302,-0.06527040834448301]","[-1,-1,-1]","[-0.08022292018729124,0.05996625702612806]","[-1,-1,-1]","[-0.19064577120065013,-0.004945868289531601]","[-1,-1,-1]","[-0.056037280643246715,0.18063767677266526]","[-1,-1,-1]","[0.02383189608550488,-0.03461469471072008]","[-1,-1,-1]","[0.12352101437930882,0.054564216711171946]","[-1,-1,-1]","[0.06573559567028307,-0.11845981564865904]","[-1,-1,-1]","[0.18936685801947103,-0.004821731252898179]","[-1,-1,-1]","[0.08712719122652669,-0.015747377830334336]","[-1,-1,-1]","[0.036316465846014875,0.01782904570125944]","[-1,-1,-1]","[-0.12174587848578458,0.09081607868607511]","[-1,-1,-1]","[0.07074488902903976,0.06369594495056445]","[-1,-1,-1]","[-0.12109720429307431,-0.07399665923664005]","[-1,-1,-1]","[-0.10975534212164495,0.15558147428113067]","[-1,-1,-1]","[-0.061144669790753614,-0.15798991534778864]","[-1,-1,-1]","[-0.10570523296711735,-0.1412245414217084]","[-1,-1,-1]","[-0.012991987101335348,-0.08789835911812992]","[-1,-1,-1]","[-0.15004598930481663,0.01779072485624435]","[-1,-1,-1]","[-0.07349448632128834,-0.07638058535638922]","[1,1,1]","[0.12408709633561611,-0.1349273305326127]","[1,1,1]","[-0.09064259124008882,0.015409476607246168]","[-1,-1,-1]","[-0.004263627599672617,0.010143095558334465]","[-1,-1,-1]","[0.10270550273407796,-0.08551885127358477]","[-1,-1,-1]","[0.1378121500417099,-0.017676626172757885]","[-1,-1,-1]","[0.07670474368984016,0.1101607925232952]","[-1,-1,-1]","[-0.030090909834061593,0.14496155846211958]","[-1,-1,-1]","[0.0023598608519854454,-0.13577736033483928]","[-1,-1,-1]","[-0.0019209567134650994,0.18869436785341714]","[-1,-1,-1]","[0.03035736985130326,-0.17152088452787453]","[-1,-1,-1]","[0.06704546165097974,0.1669820623923683]","[1,1,1]","[-0.038215460481103206,0.05762270365415114]","[-1,-1,-1]","[-0.18482922384151523,0.03986428163580237]","[-1,-1,-1]","[0.02,0.02]",114.1884,0,21,21,21,1,,,,,,,
,,,,,,,67d6e53407cb5301b586215a,682db43c55dad57aba3d428f,2025-05-21_13h52.06.163,cuing_paradigm_dot,2024.1.5,Win32,59.52380952,682d556593cb38ad0a074487,,,,,,,,,,,114.1886,114.6889,,,114.9394,115.9737,left,1.0261,,,,,,,,,0.4,,,,,,114.6889,114.9394,115.9738,"[-0.017819242348138222,-0.08491944723050977]","[-1,-1,-1]","[0.0045271548164335165,-0.024159056571078332]","[-1,-1,-1]","[-0.058234620289018685,0.17623819012111666]","[-1,-1,-1]","[0.07368532877193185,0.055787032358123566]","[-1,-1,-1]","[0.05348238159093329,-0.08699638350162264]","[1,1,1]","[-0.14185556252108458,-0.04523825045118207]","[1,1,1]","[0.18033577509913878,0.05063528767629862]","[-1,-1,-1]","[-0.09485864933390316,0.009554891421790754]","[1,1,1]","[0.011687883933114183,0.15252525028829836]","[1,1,1]","[0.04360898213782429,-0.17267422693872017]","[-1,-1,-1]","[-0.16274964033690345,0.018611876490235865]","[1,1,1]","[-0.07781822145151737,-0.06202723442596721]","[1,1,1]","[0.12797989425210776,-0.007024566513248511]","[-1,-1,-1]","[-0.1415342961174234,-0.1238713886439999]","[-1,-1,-1]","[0.1782083948025487,0.0008399129106820646]","[1,1,1]","[0.16093509981291526,0.09309839830218755]","[-1,-1,-1]","[0.09233462702298505,0.09749806021081386]","[1,1,1]","[0.13180547995067268,-0.11640691713038581]","[1,1,1]","[-0.053022995777425155,0.0020019245381920686]","[-1,-1,-1]","[-0.002022670145190551,-0.1513537386119273]","[1,1,1]","[0.05039561153548513,0.00576728201154348]","[-1,-1,-1]","[0.018091561822241576,-0.10874489576968668]","[-1,-1,-1]","[-0.16491501594104588,-0.07876076457247604]","[-1,-1,-1]","[-0.09763773402176411,0.14431538422664564]","[1,1,1]","[0.1389790308536352,-0.04718405237428793]","[-1,-1,-1]","[-0.04329529868328489,-0.13783244278181575]","[-1,-1,-1]","[-0.08276275025894862,-0.10604663381216546]","[-1,-1,-1]","[0.08543956161991281,-0.1720126090546464]","[1,1,1]","[-0.07416359143156,-0.180607599098346]","[-1,-1,-1]","[0.10233918619038763,0.14974692723931035]","[1,1,1]","[-0.16212121230096657,0.09086594821034777]","[-1,-1,-1]","[-0.10670308859519179,0.09541074341336943]","[-1,-1,-1]","[0.02,0.02]",117.0748,0,22,22,45,1,,,,,,,
,,,,,,,67d6e53407cb5301b586215a,682db43c55dad57aba3d428f,2025-05-21_13h52.06.163,cuing_paradigm_dot,2024.1.5,Win32,59.52380952,682d556593cb38ad0a074487,,,,,,,,,,,117.0752,117.5754,,,117.8257,118.7096,left,0.8757,,,,,,,,,0.5,,,,,,117.5754,117.8257,118.7096,"[-0.09788425128990809,-0.11378814050794525]","[1,1,1]","[-0.1480456518626995,0.0009256723043230444]","[-1,-1,-1]","[0.0918099676039824,-0.046490968167239646]","[1,1,1]","[-0.005829246156964617,0.0752482319819599]","[-1,-1,-1]","[0.003779699728911456,0.02963616743239401]","[-1,-1,-1]","[0.06913190678197684,0.07966584392779151]","[1,1,1]","[-0.13824212835031613,0.13584123547787763]","[-1,-1,-1]","[-0.01250811000518261,-0.03707230265218175]","[-1,-1,-1]","[-0.18238349457528683,-0.06561577271314414]","[-1,-1,-1]","[-0.055833956918753064,0.02851435336512435]","[1,1,1]","[0.09670247232801614,0.1472312447267958]","[1,1,1]","[0.04799772941826146,0.19046779448157733]","[1,1,1]","[0.11786219566594384,-0.09815444765560445]","[1,1,1]","[-0.12042827503737437,0.07017823065560662]","[-1,-1,-1]","[0.1841635951402253,0.025852439332007423]","[-1,-1,-1]","[-0.09817650599693974,0.15590356703621194]","[1,1,1]","[0.1241167437653729,0.0034599529309126535]","[-1,-1,-1]","[-0.03507501521815268,-0.07918192240775261]","[1,1,1]","[0.0526139905973681,0.02934184835186295]","[-1,-1,-1]","[0.09178868792465618,-0.1618087314159225]","[-1,-1,-1]","[0.08016771980171587,-0.004579030595272966]","[-1,-1,-1]","[0.005778495789096949,0.16097820794163978]","[-1,-1,-1]","[-0.013067520180037057,-0.19509655343943202]","[-1,-1,-1]","[-0.03851745870935332,0.17600943054684026]","[1,1,1]","[-0.04982864502328772,-0.15044910547332405]","[-1,-1,-1]","[0.15541312573717253,0.1003480774206893]","[1,1,1]","[-0.11353811372107796,-0.02757535437145652]","[1,1,1]","[0.060143928015730055,-0.09571187537586515]","[1,1,1]","[0.05162052650725173,0.1355193296476983]","[1,1,1]","[-0.18835135608622655,0.06027871234607041]","[-1,-1,-1]","[-0.06432699576519063,-0.03368453957069944]","[1,1,1]","[0.031185246770753867,-0.1322806391578447]","[1,1,1]","[0.02,0.02]",119.8107,0,23,23,118,1,,,,,,,
,,,,,,,67d6e53407cb5301b586215a,682db43c55dad57aba3d428f,2025-05-21_13h52.06.163,cuing_paradigm_dot,2024.1.5,Win32,59.52380952,682d556593cb38ad0a074487,,,,,,,,,,,119.811,120.3111,,,120.5618,121.2291,right,0.6553,,,,,,,,,0.55,,,,,,120.3111,120.5617,121.2291,"[0.00995437893899187,-0.0017207682839081202]","[1,1,1]","[-0.17618428421885454,0.06265724153654789]","[1,1,1]","[-0.08739596002595258,-0.0024960942348852817]","[1,1,1]","[-0.10720041804958205,0.05514818880058933]","[-1,-1,-1]","[0.019383773987922244,0.16584685351383144]","[1,1,1]","[-0.17784550494665297,-0.05791395709795063]","[1,1,1]","[-0.02254887125759121,0.11531617480118875]","[-1,-1,-1]","[-0.13936711731845206,0.011388891713543228]","[-1,-1,-1]","[-0.0812684862427041,0.16949413023610366]","[1,1,1]","[-0.08198056098652284,-0.15315418955706778]","[1,1,1]","[0.06489673460757343,-0.049793561856244416]","[1,1,1]","[0.11088783270986813,0.03712467068160671]","[-1,-1,-1]","[-0.11266379300441093,-0.04430647634763991]","[1,1,1]","[-0.11622585972818339,0.1173503729183498]","[-1,-1,-1]","[0.18601097870644662,0.04816927437465853]","[1,1,1]","[0.10992781763730082,-0.03623191590035963]","[-1,-1,-1]","[0.1716156276504066,-0.08604093942050298]","[-1,-1,-1]","[-0.01696447031307549,-0.062216545200731915]","[1,1,1]","[0.1341705767716231,0.00454676995861462]","[-1,-1,-1]","[0.1827730745921089,-0.028652613504123587]","[-1,-1,-1]","[-0.04098855379422797,-0.13091220574597134]","[1,1,1]","[-0.022276969706997794,-0.19601946731814945]","[1,1,1]","[0.11136396952644445,0.15619540854970995]","[1,1,1]","[-0.1925972361918887,0.002569286169321886]","[1,1,1]","[0.027591044596520526,0.0713553887293357]","[1,1,1]","[0.0591324243556593,-0.17488745063374062]","[-1,-1,-1]","[0.09089232277422797,0.11310526816791357]","[-1,-1,-1]","[-0.05602134444832832,0.059386997677082595]","[1,1,1]","[0.011413155383482563,-0.1123686578331098]","[-1,-1,-1]","[0.07203209023980262,0.17641740619403112]","[-1,-1,-1]","[-0.10874533870799151,-0.11874001618871192]","[-1,-1,-1]","[0.06195567748665783,-0.13238390715539172]","[1,1,1]","[0.02,0.02]",122.3298,0,24,24,120,1,,,,,,,
,,,,,,,67d6e53407cb5301b586215a,682db43c55dad57aba3d428f,2025-05-21_13h52.06.163,cuing_paradigm_dot,2024.1.5,Win32,59.52380952,682d556593cb38ad0a074487,,,,,,,,,,,122.3302,122.8304,,,123.0809,123.5312,left,0.4368,,,,,,,,,0.1,,,,,,122.8305,123.0809,123.5313,"[-0.13433623130130282,0.12697437987774854]","[-1,-1,-1]","[-0.08548236657265736,-0.039817248626971564]","[-1,-1,-1]","[0.10722209403381776,0.0458018719991375]","[1,1,1]","[-0.010779156711530376,0.10550469012425219]","[-1,-1,-1]","[-0.09165690008693692,-0.08080491512154452]","[-1,-1,-1]","[-0.07853046789814103,0.05535301173609601]","[-1,-1,-1]","[0.045864647346991264,0.02814996007785902]","[-1,-1,-1]","[0.10958531337955882,-0.12895176415379714]","[-1,-1,-1]","[0.012890487638490532,0.14556519583142058]","[-1,-1,-1]","[0.1024569520266777,-0.0027981215432283063]","[1,1,1]","[0.0478704014389545,0.0913517402104556]","[-1,-1,-1]","[-0.04050699169855079,-0.06291507830960705]","[-1,-1,-1]","[0.0016750590442922936,-0.06297132715445093]","[-1,-1,-1]","[-0.08509085275103373,0.0037896827915041963]","[-1,-1,-1]","[-0.15518431338710525,0.028697355084468117]","[1,1,1]","[-0.13145319650981774,-0.14157435690415918]","[-1,-1,-1]","[0.18041476453222394,-0.059423624790222264]","[-1,-1,-1]","[-0.00015447277230153152,0.19636309096384924]","[-1,-1,-1]","[-0.015659061761248858,-0.11715603145369116]","[-1,-1,-1]","[0.1760502221301964,-0.0030516878008812996]","[-1,-1,-1]","[0.06001107833270033,-0.03258132174580777]","[-1,-1,-1]","[-0.03443388973715082,0.16195510796021123]","[-1,-1,-1]","[-0.053152808945713094,-0.181233077217899]","[-1,-1,-1]","[0.018678779209862644,-0.1891406825195303]","[-1,-1,-1]","[-0.13739216616257668,-0.053531365963608225]","[-1,-1,-1]","[-0.01700770795726397,0.02182400493616414]","[-1,-1,-1]","[0.06624481015201693,0.13396606663861532]","[-1,-1,-1]","[0.11330910831978688,-0.05141232349618533]","[-1,-1,-1]","[-0.11985843353016487,0.08457094132052284]","[-1,-1,-1]","[0.0249136044940376,-0.14220263678130451]","[-1,-1,-1]","[0.10015415160918241,0.10010755395786751]","[-1,-1,-1]","[0.1518508866611532,0.07900755719971726]","[-1,-1,-1]","[0.02,0.02]",124.6322,0,25,25,7,1,,,,,,,
,,,,,,,67d6e53407cb5301b586215a,682db43c55dad57aba3d428f,2025-05-21_13h52.06.163,cuing_paradigm_dot,2024.1.5,Win32,59.52380952,682d556593cb38ad0a074487,,,,,,,,,,,124.6326,125.1328,,,125.3833,126.3505,left,0.951,,,,,,,,,0.4,,,,,,125.1328,125.3832,126.3505,"[0.08632034528507308,0.12470598787070378]","[1,1,1]","[-0.06204290668858633,-0.0038856177399333087]","[-1,-1,-1]","[0.16578460511220472,-0.09492284543004825]","[-1,-1,-1]","[-0.035252303379004375,-0.05505209426052623]","[1,1,1]","[0.014807695017496495,0.13444543772470788]","[1,1,1]","[-0.11511830504592804,0.018657872597222874]","[-1,-1,-1]","[0.13741506388820113,-0.005465545633612285]","[-1,-1,-1]","[0.06221882718500719,-0.18758928959468218]","[-1,-1,-1]","[0.10349248657391212,0.08442815672795968]","[1,1,1]","[-0.16550067486046102,-0.07004196970584499]","[-1,-1,-1]","[-0.03211644553501471,0.13078334234619005]","[1,1,1]","[-0.15704695632928806,0.11638208490115716]","[1,1,1]","[0.19105613191987214,-0.026432646158014175]","[-1,-1,-1]","[-0.05035232011413771,0.06538809313146636]","[-1,-1,-1]","[-0.18268301247067303,0.029089174845580528]","[1,1,1]","[-0.10471688415126085,0.13979916769227138]","[-1,-1,-1]","[-0.07954048853080276,0.1819498622503705]","[-1,-1,-1]","[0.09499589839519212,-0.10307598500126497]","[-1,-1,-1]","[0.081780623711598,0.03940805203494066]","[1,1,1]","[0.00760627477055322,-0.09219391113584409]","[-1,-1,-1]","[-0.07000951052536225,-0.10687909494562561]","[1,1,1]","[-0.09560366784490176,-0.06232136150828202]","[-1,-1,-1]","[0.14555320764404572,0.07071869790024266]","[1,1,1]","[-0.022255416166897687,0.016797729082966503]","[1,1,1]","[0.10406248815747612,-0.16162437030839022]","[-1,-1,-1]","[-0.06894423499797045,0.10174606052263215]","[-1,-1,-1]","[-0.180484934023891,-0.028416528803458463]","[1,1,1]","[0.13246998213227076,0.12273933993220967]","[1,1,1]","[-0.10888085513233986,-0.15500386504185004]","[-1,-1,-1]","[0.051365594073037674,-0.08642554229763712]","[-1,-1,-1]","[-0.005603380171557724,-0.1923213940689934]","[-1,-1,-1]","[-0.12051143257642678,-0.028112808143867563]","[-1,-1,-1]","[0.02,0.02]",127.4516,0,26,26,38,1,,,,,,,
,,,,,,,67d6e53407cb5301b586215a,682db43c55dad57aba3d428f,2025-05-21_13h52.06.163,cuing_paradigm_dot,2024.1.5,Win32,59.52380952,682d556593cb38ad0a074487,,,,,,,,,,,127.452,127.952,,,128.2025,128.8534,right,0.6437,,,,,,,,,0.5,,,,,,127.9521,128.2024,128.8534,"[0.11224144128637609,0.06052933674325991]","[1,1,1]","[0.17935621064563573,-0.0011875656065054737]","[1,1,1]","[-0.16799942362126513,0.033078980652153055]","[1,1,1]","[0.03742230877470999,-0.04159213704455227]","[-1,-1,-1]","[-0.11947584715676779,-0.0409377262461574]","[-1,-1,-1]","[0.020221907117324044,0.13500710276406117]","[-1,-1,-1]","[-0.1356933840881004,0.136308549114156]","[1,1,1]","[0.161531273651527,0.044712750053064396]","[-1,-1,-1]","[-0.07074639575251103,0.14244040583147463]","[1,1,1]","[0.06159735568817366,-0.13063161353776195]","[1,1,1]","[0.07063020193170984,0.0663227886977697]","[-1,-1,-1]","[-0.11744709934230485,-0.13389262986556275]","[-1,-1,-1]","[-0.1328544439078071,0.07805939954895472]","[-1,-1,-1]","[-0.013148565728067768,-0.10081387207612132]","[-1,-1,-1]","[0.10410413542471307,0.11803500213326008]","[-1,-1,-1]","[-0.013172005068890881,0.09408919040294678]","[-1,-1,-1]","[0.1139487736975685,-0.01215014867868333]","[-1,-1,-1]","[-0.08657575048959787,0.015729680438854882]","[-1,-1,-1]","[0.1313660785121428,-0.10822617672599419]","[1,1,1]","[0.02465016662440439,0.004151000053624143]","[-1,-1,-1]","[0.06322008627088917,0.15919968526521414]","[1,1,1]","[-0.05730794829784479,-0.14103923001191615]","[1,1,1]","[-0.08099287330276037,-0.054993434188214445]","[1,1,1]","[-0.08706784425066363,0.06564085160268142]","[1,1,1]","[0.03524711668331283,-0.18986358425976926]","[-1,-1,-1]","[-0.16659223284727992,-0.05265242625412286]","[1,1,1]","[-0.10924110237827007,-0.09010103922994109]","[1,1,1]","[-0.03390711577602632,-0.06354459423635248]","[1,1,1]","[-0.06011656685924025,0.18340568320410414]","[1,1,1]","[-0.02739690129066477,0.03170888178220116]","[1,1,1]","[0.09377451715191107,-0.16160698102093987]","[-1,-1,-1]","[0.12423900570507225,0.15497783679335844]","[-1,-1,-1]","[0.02,0.02]",129.9542,0,27,27,108,1,,,,,,,
,,,,,,,67d6e53407cb5301b586215a,682db43c55dad57aba3d428f,2025-05-21_13h52.06.163,cuing_paradigm_dot,2024.1.5,Win32,59.52380952,682d556593cb38ad0a074487,,,,,,,,,,,129.9545,130.4548,,,130.7051,131.5559,right,0.8437,,,,,,,,,0.55,,,,,,130.4548,130.7051,131.5559,"[-0.026121055191924137,0.1406212475025216]","[1,1,1]","[0.02665299861898004,-0.08680882545176542]","[-1,-1,-1]","[0.01904618632109695,0.012985946270191333]","[1,1,1]","[0.12334685699989952,0.0726465287177294]","[1,1,1]","[0.006909230822682492,-0.1451792739343631]","[1,1,1]","[0.03875605849050275,0.16041404189042285]","[1,1,1]","[0.05182115462183432,-0.021211043626360653]","[-1,-1,-1]","[0.18762200482605937,0.051986161454133414]","[1,1,1]","[-0.0968357653561537,0.07926092188410394]","[1,1,1]","[-0.1150186930425086,0.000359394801588106]","[1,1,1]","[-0.033166226877612434,0.1819321852006932]","[1,1,1]","[-0.06509235977314783,0.024008944723116727]","[1,1,1]","[-0.08684421486541524,0.12653393322099163]","[-1,-1,-1]","[0.04573494092283053,0.11769878609393082]","[-1,-1,-1]","[-0.06489793950226133,-0.016312958247156565]","[-1,-1,-1]","[-0.12108476197046926,-0.14972784424073768]","[1,1,1]","[0.10186315998978906,-0.14844026154260603]","[1,1,1]","[-0.06675355755336145,-0.10374917636137822]","[1,1,1]","[0.1739172516196686,-0.051460227858678695]","[-1,-1,-1]","[-0.1960854024232252,-0.00644840754174502]","[-1,-1,-1]","[0.1566415796487288,0.015928887978549165]","[-1,-1,-1]","[-0.161124936655756,-0.06720923556593651]","[-1,-1,-1]","[-0.018437083337892547,-0.030949690675265817]","[-1,-1,-1]","[-0.11236325106960007,-0.042149780487167485]","[-1,-1,-1]","[-0.029250323298250544,-0.18898554246471308]","[-1,-1,-1]","[-0.15835484643445155,0.09768413786122426]","[1,1,1]","[0.13080498773748658,-0.05279895569549398]","[-1,-1,-1]","[0.055059961151591376,-0.15333546858906175]","[1,1,1]","[-0.01572138454399925,-0.09091619223273005]","[-1,-1,-1]","[0.0020192237848051272,0.04997322121961913]","[1,1,1]","[-0.13775737506053415,0.046031437266066365]","[1,1,1]","[-0.1844741225782692,0.05522016090585582]","[1,1,1]","[0.02,0.02]",132.6569,0,28,28,143,1,,,,,,,
,,,,,,,67d6e53407cb5301b586215a,682db43c55dad57aba3d428f,2025-05-21_13h52.06.163,cuing_paradigm_dot,2024.1.5,Win32,59.52380952,682d556593cb38ad0a074487,,,,,,,,,,,132.6574,133.1577,,,133.4078,134.2584,left,0.8353,,,,,,,,,0.4,,,,,,133.1578,133.4078,134.2584,"[-0.11670760577869671,0.07947542893687723]","[1,1,1]","[-0.03936412748635503,0.04383368583114647]","[1,1,1]","[0.009525776071245875,-0.08736918986150496]","[1,1,1]","[-0.12084685632017866,0.003398874966609304]","[1,1,1]","[0.0989847838144882,-0.0851194925447213]","[1,1,1]","[-0.03416698459124132,-0.142119072202797]","[-1,-1,-1]","[-0.1298038155070722,-0.13087336860424695]","[1,1,1]","[0.06557100311046407,-0.1509611092757817]","[-1,-1,-1]","[0.06945950147736504,0.14303313848826765]","[-1,-1,-1]","[0.17278162985558315,0.06766458958573074]","[-1,-1,-1]","[0.04358086684609013,-0.01528850280793257]","[-1,-1,-1]","[0.00974389802376069,-0.19418551836206335]","[-1,-1,-1]","[-0.007378311009678579,0.10583026554564362]","[-1,-1,-1]","[0.12790358220520398,-0.03852542631900962]","[-1,-1,-1]","[0.08966324500899484,0.09321006676463063]","[-1,-1,-1]","[-0.1760870142221704,0.049308023781974034]","[-1,-1,-1]","[0.0006399755649482161,0.063177700869339]","[1,1,1]","[0.04816927218958085,0.17894596192062834]","[-1,-1,-1]","[0.12298977195467954,0.05591243682375201]","[1,1,1]","[0.05680603527640631,-0.10596625344006312]","[-1,-1,-1]","[0.1604028043456556,0.11774008251957722]","[-1,-1,-1]","[0.12678367955468334,-0.13500641660115578]","[1,1,1]","[-0.08786436132908823,0.1257430525712645]","[1,1,1]","[-0.0429254903096186,-0.023733784556555827]","[-1,-1,-1]","[-0.19800704448477496,-0.010153305236850999]","[-1,-1,-1]","[-0.032003473086886884,0.15594307969838897]","[-1,-1,-1]","[0.07773014517035477,0.041060122413778495]","[-1,-1,-1]","[0.1756712044822471,-0.09483880251310042]","[1,1,1]","[-0.05156792184101943,-0.09078537922470918]","[-1,-1,-1]","[0.07060890635605027,-0.05231472861911335]","[1,1,1]","[0.0916893111047696,0.000914720985977357]","[-1,-1,-1]","[-0.10809085776898582,-0.06208033582611545]","[1,1,1]","[0.02,0.02]",135.3596,0,29,29,33,1,,,,,,,
,,,,,,,67d6e53407cb5301b586215a,682db43c55dad57aba3d428f,2025-05-21_13h52.06.163,cuing_paradigm_dot,2024.1.5,Win32,59.52380952,682d556593cb38ad0a074487,,,,,,,,,,,135.36,135.8604,,,136.1107,136.7611,right,0.6381,,,,,,,,,0.5,,,,,,135.8604,136.1107,136.7611,"[-0.07819818407223324,-0.1482631970240524]","[1,1,1]","[-0.09517524177406976,0.1655895580872412]","[-1,-1,-1]","[-0.1465185641188124,0.012637033410227707]","[1,1,1]","[0.09655024187543111,0.07508489955133776]","[-1,-1,-1]","[-0.1083584073988981,0.038788081819641565]","[-1,-1,-1]","[-0.05465098078380204,-0.050398507208115]","[-1,-1,-1]","[0.08344979536962947,0.13040055369391662]","[1,1,1]","[-0.17717327065313465,0.05452429901646814]","[-1,-1,-1]","[-0.02869575080301391,0.011231126941566088]","[1,1,1]","[-0.00508233953643172,0.06946824665163977]","[-1,-1,-1]","[0.04276515028106042,0.17503746125114938]","[1,1,1]","[0.09096519651279641,-0.0222415531663393]","[-1,-1,-1]","[0.04849080274353596,-0.16795839571392251]","[-1,-1,-1]","[0.023592068848336683,-0.13638500285398492]","[1,1,1]","[0.15570869097365345,-0.032517617220011306]","[-1,-1,-1]","[-0.054482269004749936,-0.09789388050663107]","[1,1,1]","[-0.0036456057574378122,-0.041362127986996636]","[1,1,1]","[-0.09775365437743233,-0.032521390411205185]","[1,1,1]","[-0.15696769497241003,-0.051727086818367435]","[-1,-1,-1]","[-0.015376681155616684,-0.1893481485604504]","[1,1,1]","[0.014208924438654721,0.02051527575866616]","[-1,-1,-1]","[0.14385336963874046,-0.09928288028005851]","[-1,-1,-1]","[0.046348014703007326,0.06728419231617684]","[-1,-1,-1]","[0.19471509124142877,-0.012909567302641176]","[-1,-1,-1]","[0.06592489918933529,-0.12285368164712177]","[1,1,1]","[0.10639810670264557,-0.1575551480039861]","[1,1,1]","[-0.12270676841838768,-0.08000901010872741]","[-1,-1,-1]","[0.06535088651038597,-0.07796531521995119]","[1,1,1]","[0.05538523661306212,-0.001597290616940424]","[-1,-1,-1]","[-0.04512460384773468,0.052164574124806545]","[1,1,1]","[-0.020913237292515385,-0.12004267844817795]","[1,1,1]","[-0.1241909176621912,0.0981084995987449]","[1,1,1]","[0.02,0.02]",137.862,0,30,30,99,1,,,,,,,
,,,,,,,67d6e53407cb5301b586215a,682db43c55dad57aba3d428f,2025-05-21_13h52.06.163,cuing_paradigm_dot,2024.1.5,Win32,59.52380952,682d556593cb38ad0a074487,,,,,,,,,,,137.8622,138.3625,,,138.613,140.1143,,,,,,,,,,,0.9,,,,,,138.3625,138.613,140.1144,"[-0.09447391066526946,0.0698784799870448]","[1,1,1]","[0.035110799402355834,-0.1634375640708691]","[-1,-1,-1]","[0.1374226362759066,0.1177815977531621]","[1,1,1]","[-0.020562764868069457,0.18346793264623096]","[1,1,1]","[-0.08288744044611542,-0.09146123895789646]","[1,1,1]","[0.014134415134969384,0.034786351064357575]","[1,1,1]","[0.03923546565746558,0.08024836304197155]","[1,1,1]","[0.16433457171501126,0.024477957643026165]","[1,1,1]","[0.14733855336375962,0.07414900252118828]","[1,1,1]","[-0.13350069073720858,0.08511744028843383]","[1,1,1]","[0.12015742263766832,0.031191370049318063]","[1,1,1]","[-0.0616568299794275,-0.03965564712886926]","[1,1,1]","[0.17422786988565994,-0.036538183974377844]","[1,1,1]","[0.01679585421472365,0.12784886447573598]","[-1,-1,-1]","[-0.11855560632427406,-0.026853217245225276]","[1,1,1]","[0.07946116500572875,0.08422970849099407]","[1,1,1]","[-0.027329622000330962,0.018531276563276064]","[1,1,1]","[-0.1909927572220533,0.006777279976500675]","[1,1,1]","[-0.08632408269091964,0.013611952832957725]","[1,1,1]","[-0.011254631076538301,-0.15668973301024558]","[1,1,1]","[0.04421237156070924,-0.03868080267523791]","[1,1,1]","[0.1396236626657448,-0.11139434495376656]","[1,1,1]","[0.10703852952916068,-0.011150655572781708]","[1,1,1]","[0.09673215044348783,-0.11201391062926662]","[-1,-1,-1]","[0.01214296347507179,-0.11096816994454632]","[1,1,1]","[-0.16847317622268396,-0.0660757568670105]","[1,1,1]","[0.05876000607912774,-0.1311560247517324]","[1,1,1]","[-0.052880078740846805,0.051360238515421104]","[1,1,1]","[0.10352965975223394,0.15449308745930143]","[1,1,1]","[0.07287896444437247,0.039303356682450885]","[1,1,1]","[0.04406903906010784,0.1658808890807408]","[1,1,1]","[0.19955085779074017,-0.004566478789163501]","[1,1,1]","[0.02,0.02]",141.2153,0,31,31,207,1,,,,,,,
,,,,,,,67d6e53407cb5301b586215a,682db43c55dad57aba3d428f,2025-05-21_13h52.06.163,cuing_paradigm_dot,2024.1.5,Win32,59.52380952,682d556593cb38ad0a074487,,,,,,,,,,,141.2156,141.7158,,,141.9662,143.134,left,1.1532,,,,,,,,,0.45,,,,,,141.7158,141.9662,143.134,"[-0.0187883528016084,0.02747468770688668]","[-1,-1,-1]","[-0.027470509102726675,0.11150812739375308]","[-1,-1,-1]","[0.054947760923282796,0.18725261852954375]","[-1,-1,-1]","[-0.08932398128567766,0.15270558567191234]","[1,1,1]","[-0.1276258114774072,-0.08226449804792106]","[-1,-1,-1]","[0.04270446420902878,0.06732237261439089]","[1,1,1]","[-0.09684866266678889,0.09734800934914528]","[1,1,1]","[-0.13094660091688137,-0.016913477997461356]","[1,1,1]","[-0.07210503776203323,-0.1557915983384909]","[-1,-1,-1]","[-0.004307590088525469,-0.09008413901219585]","[1,1,1]","[-0.19377310968381073,-0.023005702933339388]","[1,1,1]","[-0.04118864357160998,-0.00620510581258675]","[-1,-1,-1]","[0.13041562155975275,0.08871126395643605]","[1,1,1]","[0.07157697219702908,0.03889788199050725]","[1,1,1]","[0.08729847830780273,-0.10128696822184313]","[-1,-1,-1]","[0.09154671568539345,-0.17071721669773668]","[-1,-1,-1]","[-0.1896152868861774,0.048125210459959995]","[-1,-1,-1]","[-0.07467697480771132,-0.06905881662344855]","[-1,-1,-1]","[-0.012199048927670153,0.1791269987982127]","[-1,-1,-1]","[0.14384851064832,-0.09153455974562252]","[1,1,1]","[0.14979777862355273,0.040724852557437345]","[-1,-1,-1]","[-0.01298460941775117,-0.1472346314282087]","[1,1,1]","[0.03368256226127148,-0.07727655861677636]","[1,1,1]","[0.1797199970831142,-0.03285911580324499]","[1,1,1]","[-0.13824959231671693,-0.13479809673232598]","[1,1,1]","[-0.04814149916161649,0.0678843461916313]","[-1,-1,-1]","[0.04733328193387649,0.13639200813076804]","[-1,-1,-1]","[-0.16912548368109764,0.10238836419058768]","[1,1,1]","[-0.0051450427171654866,0.06933730030463642]","[-1,-1,-1]","[-0.09517200345075028,-0.10926008603782232]","[-1,-1,-1]","[0.09864353606991613,0.11391387559638093]","[-1,-1,-1]","[0.12664922510270132,-0.03171382495335199]","[-1,-1,-1]","[0.02,0.02]",144.235,0,32,32,77,1,,,,,,,
,,,,,,,67d6e53407cb5301b586215a,682db43c55dad57aba3d428f,2025-05-21_13h52.06.163,cuing_paradigm_dot,2024.1.5,Win32,59.52380952,682d556593cb38ad0a074487,,,,,,,,,,,144.2353,144.7353,,,144.9864,145.6364,right,0.6429,,,,,,,,,0.55,,,,,,144.7354,144.9863,145.6364,"[-0.15606380626017377,0.09103003016998033]","[-1,-1,-1]","[-0.013073392136950105,-0.17564112943920585]","[1,1,1]","[-0.001029028192921432,0.0225244734640328]","[1,1,1]","[0.06947307740122098,-0.07840841616273136]","[-1,-1,-1]","[0.14192955947038463,-0.12261817528087027]","[-1,-1,-1]","[0.013598196230825832,-0.04896968935003692]","[1,1,1]","[-0.004023494205839495,0.1813356852981363]","[-1,-1,-1]","[-0.13725576948095125,-0.1365763946583217]","[-1,-1,-1]","[0.10618992372770779,-0.02178815134369179]","[1,1,1]","[0.1214734500018123,0.13856535863939082]","[-1,-1,-1]","[-0.12784984685478687,0.027166940703922365]","[1,1,1]","[0.08004148157206534,0.1561608299868862]","[1,1,1]","[-0.008729996279784142,0.06234106401336036]","[1,1,1]","[-0.000950738458466429,-0.09711971299096817]","[-1,-1,-1]","[-0.06788904862618528,0.09775460138178212]","[-1,-1,-1]","[0.024504999913220683,-0.16105201480404688]","[-1,-1,-1]","[0.16027241475799525,0.07934912883410604]","[1,1,1]","[0.07846475504328848,0.055381647063383756]","[1,1,1]","[-0.1528233288130602,-0.018141432406850434]","[1,1,1]","[0.1957026343570819,0.017661905091709434]","[1,1,1]","[-0.06847585749277882,-0.04100331321268217]","[1,1,1]","[0.07138202782186437,-0.16996431146705288]","[1,1,1]","[-0.07155470077971873,0.17303415525628216]","[1,1,1]","[0.0418303498018553,0.08798165379595323]","[1,1,1]","[0.05042237251236977,-0.019030997688347262]","[-1,-1,-1]","[-0.11736417154201176,0.13363201921136955]","[-1,-1,-1]","[-0.19220684440921207,-0.032763693654644405]","[1,1,1]","[-0.07557498817577367,-0.10986758109855979]","[1,1,1]","[0.12002242494907626,0.09433291544560843]","[-1,-1,-1]","[-0.17670306731931076,0.034078269573480806]","[-1,-1,-1]","[0.13610078334164552,-0.05210511349184953]","[-1,-1,-1]","[-0.024768557269007223,0.10408706119132848]","[1,1,1]","[0.02,0.02]",146.7374,0,33,33,133,1,,,,,,,
,,,,,,,67d6e53407cb5301b586215a,682db43c55dad57aba3d428f,2025-05-21_13h52.06.163,cuing_paradigm_dot,2024.1.5,Win32,59.52380952,682d556593cb38ad0a074487,,,,,,,,,,,146.7377,147.238,,,147.4888,148.3061,right,0.8029,,,,,,,,,0.9,,,,,,147.238,147.4888,148.3061,"[0.020622266863210833,-0.1961019197041667]","[-1,-1,-1]","[-0.16280019657713019,-0.0196736793204533]","[1,1,1]","[-0.11396951988499063,-0.06060460382362783]","[1,1,1]","[0.021375969490535843,0.13675595384128558]","[1,1,1]","[0.056230606831900586,-0.09897863293270857]","[1,1,1]","[-0.15797715569818152,0.03625597386668096]","[1,1,1]","[-0.011335319080706672,0.19444558557569672]","[1,1,1]","[0.07499514852510401,0.06543519579534499]","[1,1,1]","[0.08295051182850828,-0.04518812265905742]","[1,1,1]","[-0.09156585201853536,0.036327118950280256]","[1,1,1]","[0.05378354897371587,-0.0032431990722033986]","[1,1,1]","[0.17026176207298221,-0.07142250651789564]","[1,1,1]","[0.13032112293725706,0.07455527400788141]","[1,1,1]","[-0.060777917803368484,-0.15297147229846478]","[1,1,1]","[-0.07054401930303618,0.07195688340595317]","[1,1,1]","[-0.11627881839270844,0.11209223452866224]","[-1,-1,-1]","[0.03877955550187818,0.09575538874146002]","[1,1,1]","[0.17096962740776228,-0.02917608155064897]","[1,1,1]","[-0.010915835762330812,0.03506379815304238]","[1,1,1]","[0.17545231590848384,0.06992652211449929]","[1,1,1]","[-0.020458781698561263,-0.09712340146766972]","[1,1,1]","[0.09466069782706932,-0.13835919793545526]","[1,1,1]","[-0.07609584309009154,-0.10222753805187319]","[1,1,1]","[-0.1589106214569025,-0.08665101427650891]","[1,1,1]","[0.13900570449717103,0.12988246330353906]","[1,1,1]","[-0.061673200460928786,-0.0492996675232986]","[1,1,1]","[0.06820887472416673,-0.17509538023138482]","[1,1,1]","[0.0922824669347836,0.10902911642183834]","[1,1,1]","[0.019576542367575788,-0.15150308511000093]","[1,1,1]","[0.08116043930642348,0.17819556753578297]","[1,1,1]","[-0.08452255146542964,0.1381084421153359]","[-1,-1,-1]","[0.03575147589074982,0.19305160754958342]","[1,1,1]","[0.02,0.02]",149.4068,0,34,34,209,1,,,,,,,
,,,,,,,67d6e53407cb5301b586215a,682db43c55dad57aba3d428f,2025-05-21_13h52.06.163,cuing_paradigm_dot,2024.1.5,Win32,59.52380952,682d556593cb38ad0a074487,,,,,,,,,,,149.407,149.9073,,,150.1585,151.6593,,,,,,,,,,,0.9,,,,,,149.9074,150.1584,151.6594,"[0.0995330219723337,-0.00260469289698048]","[1,1,1]","[0.12009645508023803,0.04032943480753772]","[1,1,1]","[-0.02169716527074923,0.17342256593129904]","[1,1,1]","[-0.024159045769267324,0.034648313894885506]","[1,1,1]","[0.045137869296072164,-0.015308205438887511]","[1,1,1]","[0.1388966171180999,0.12939729121366725]","[1,1,1]","[-0.05828670768970874,-0.0029329654322375874]","[1,1,1]","[0.162319442432508,-0.11014388829257778]","[1,1,1]","[0.026985840008602126,-0.08334392021257409]","[-1,-1,-1]","[-0.1783602215396091,0.008837740960532465]","[1,1,1]","[0.009250422027451742,0.12793351639037304]","[1,1,1]","[0.18602029316816482,0.06016502238842191]","[1,1,1]","[-0.06692108627819547,-0.14080402712004997]","[1,1,1]","[-0.047224696309044877,0.0674800427985603]","[-1,-1,-1]","[-0.04861784520200076,0.12994270109662423]","[1,1,1]","[-0.184863165236374,-0.06875169222715487]","[1,1,1]","[-0.1178742563189623,-0.007432249180330116]","[1,1,1]","[0.10381724006821924,-0.08508480967499003]","[1,1,1]","[0.09049680406474235,0.13929525676089824]","[1,1,1]","[0.03602700112660607,0.18942006604069656]","[-1,-1,-1]","[0.05037719061734354,-0.1701961502337959]","[1,1,1]","[-0.13977672950899342,0.028557198936705414]","[1,1,1]","[-0.08743334371898616,0.042928242880204276]","[1,1,1]","[0.1048485035918819,-0.1385608775691907]","[1,1,1]","[-0.043892785109262415,-0.04304062702729754]","[1,1,1]","[0.17642788328124018,-0.031664528674193684]","[1,1,1]","[-0.020654260058725993,-0.11468945713391172]","[1,1,1]","[-0.16987997407833885,0.058871928916949354]","[1,1,1]","[-0.13920123817971794,-0.09218795680270865]","[1,1,1]","[-0.12028567385418693,0.15063516485201037]","[1,1,1]","[0.1234460105103678,-0.04514058280400303]","[1,1,1]","[0.03301543496653525,0.05754178953196261]","[1,1,1]","[0.02,0.02]",152.7605,0,35,35,206,1,,,,,,,
,,,,,,,67d6e53407cb5301b586215a,682db43c55dad57aba3d428f,2025-05-21_13h52.06.163,cuing_paradigm_dot,2024.1.5,Win32,59.52380952,682d556593cb38ad0a074487,,,,,,,,,,,152.761,153.2609,,,153.5111,154.0617,left,0.5363,,,,,,,,,0.5,,,,,,153.2609,153.511,154.0618,"[-0.11782803001669,-0.13255948552001864]","[1,1,1]","[0.012023844207466973,-0.025725917765353427]","[-1,-1,-1]","[-0.185334858066043,-0.01592240403870924]","[-1,-1,-1]","[0.1930252000066807,-0.025135162563895534]","[1,1,1]","[-0.07066709199669319,0.05358732742778409]","[-1,-1,-1]","[0.11321769697484008,0.05875458214924086]","[-1,-1,-1]","[-0.12758103553699213,-0.08914093345200011]","[-1,-1,-1]","[0.03352682137021866,0.19491151557662156]","[1,1,1]","[-0.14884097924146658,0.07763518416180512]","[1,1,1]","[-0.007935528242783478,-0.06855550343187657]","[1,1,1]","[0.05281680027597677,0.08712509393079519]","[1,1,1]","[0.11670490249605162,-0.03641381007995907]","[-1,-1,-1]","[0.07415405646000948,-0.15493778937209066]","[1,1,1]","[-0.028149389382010365,-0.14320247814316653]","[1,1,1]","[-0.05410415387124327,0.12218653556392643]","[-1,-1,-1]","[0.014208243312037084,0.11676676081812959]","[-1,-1,-1]","[0.03733325589861988,-0.06979948565904737]","[1,1,1]","[0.12167400698151669,-0.14935696411805874]","[1,1,1]","[0.013339111550518264,0.023571311498819424]","[1,1,1]","[-0.07845311898265095,-0.03399052177949136]","[-1,-1,-1]","[-0.11310413961813676,0.10617656898120345]","[-1,-1,-1]","[-0.01922763164840518,-0.18934549395662384]","[-1,-1,-1]","[0.15963998953864156,0.004279921440386407]","[-1,-1,-1]","[0.10692722293363269,0.12723300586514058]","[1,1,1]","[-0.03842623735811993,0.004896578740063186]","[-1,-1,-1]","[-0.061436736363028786,-0.09267065520902876]","[-1,-1,-1]","[-0.07771245383009504,0.16037115491610618]","[1,1,1]","[-0.16756554465591017,-0.06278469802479024]","[1,1,1]","[0.09240245492286188,-0.11721178479690206]","[1,1,1]","[-0.13523534502550072,-0.0013127778994744418]","[-1,-1,-1]","[0.0734972659942983,-0.0012127492135310665]","[1,1,1]","[0.16162326832139712,-0.07893761414217192]","[-1,-1,-1]","[0.02,0.02]",155.1626,0,36,36,92,1,,,,,,,
,,,,,,,67d6e53407cb5301b586215a,682db43c55dad57aba3d428f,2025-05-21_13h52.06.163,cuing_paradigm_dot,2024.1.5,Win32,59.52380952,682d556593cb38ad0a074487,,,,,,,,,,,155.1631,155.6633,,,155.9137,157.1146,left,1.1876,,,,,,,,,0.1,,,,,,155.6634,155.9136,157.1147,"[0.08799934489058779,-0.01453315973806577]","[-1,-1,-1]","[0.012470222046899961,0.017909836791639672]","[-1,-1,-1]","[0.019466562491398335,0.11535725899533719]","[-1,-1,-1]","[0.0628321892335431,0.14678211146918105]","[-1,-1,-1]","[-0.1675685540390692,-0.053825206476045294]","[-1,-1,-1]","[-0.06773299987997232,0.1117235367073826]","[-1,-1,-1]","[0.07855282698833722,-0.1517345448861217]","[-1,-1,-1]","[-0.02901545694189563,0.1746968379885368]","[-1,-1,-1]","[0.1671700548895807,-0.03353083289017117]","[-1,-1,-1]","[-0.07730207490523146,-0.059291501089956684]","[-1,-1,-1]","[0.04158122156417112,-0.08649789547999476]","[-1,-1,-1]","[-0.1955825864115863,0.0018647633929583512]","[-1,-1,-1]","[-0.035588942758866246,0.033437601100695186]","[-1,-1,-1]","[-0.09626713487511293,0.00765708921999476]","[-1,-1,-1]","[0.029096551333471315,-0.021356538950770592]","[-1,-1,-1]","[-0.13919728644264576,-0.005932594098208715]","[1,1,1]","[-0.07571375116482124,0.06445524281352873]","[-1,-1,-1]","[0.18982372907030978,0.06146702172140474]","[-1,-1,-1]","[0.08947359790474506,-0.05585041642678151]","[-1,-1,-1]","[-0.07722265757125256,-0.1725329376617297]","[-1,-1,-1]","[0.08288727141862968,0.07937823648072832]","[1,1,1]","[-0.08139477785866096,0.15627614091665637]","[-1,-1,-1]","[-0.009667879006166015,0.07109554813360859]","[-1,-1,-1]","[0.12102220160882339,0.04899877069326557]","[-1,-1,-1]","[-0.05540827693127803,-0.12961437087623592]","[-1,-1,-1]","[-0.13890678339490797,0.05419407094355053]","[1,1,1]","[-0.016813198727379287,-0.05102289359962433]","[-1,-1,-1]","[0.11063785674372648,0.16051855367926088]","[-1,-1,-1]","[0.15657541347458603,0.08399503241569817]","[-1,-1,-1]","[0.02096977879850994,-0.16001929088543732]","[-1,-1,-1]","[0.03049119427296031,0.06498002873449724]","[-1,-1,-1]","[0.13841256810679306,-0.11422239387397772]","[-1,-1,-1]","[0.02,0.02]",158.2157,0,37,37,28,1,,,,,,,
,,,,,,,67d6e53407cb5301b586215a,682db43c55dad57aba3d428f,2025-05-21_13h52.06.163,cuing_paradigm_dot,2024.1.5,Win32,59.52380952,682d556593cb38ad0a074487,,,,,,,,,,,158.2161,158.7162,,,158.9667,159.6672,left,0.6833,,,,,,,,,0.5,,,,,,158.7163,158.9666,159.6673,"[0.15385031160277562,0.08605533046853199]","[1,1,1]","[0.04739134502898245,0.1520713329829901]","[1,1,1]","[0.01814376487551938,0.058612590170601574]","[-1,-1,-1]","[-0.06516821839402022,0.1678906897103541]","[-1,-1,-1]","[-0.06942887518684035,-0.15290668446425773]","[-1,-1,-1]","[-0.13856596018434414,-0.14239158475415378]","[1,1,1]","[-0.06539803821886783,-0.014489304884935338]","[-1,-1,-1]","[-0.06749896581097552,0.11254350761827366]","[-1,-1,-1]","[-0.09569812500359269,0.015165673113756549]","[1,1,1]","[-0.16563418510085143,0.08896195565331619]","[-1,-1,-1]","[-0.030687783792441452,0.1350799372950974]","[-1,-1,-1]","[-0.09086170572501934,-0.08236027251971251]","[-1,-1,-1]","[0.006899005015729686,-0.04875616196425226]","[1,1,1]","[0.04911565397091855,-0.07961037833742046]","[-1,-1,-1]","[0.14216229345475898,-0.07624618927344068]","[1,1,1]","[0.15784545415753826,-0.1156878569715042]","[-1,-1,-1]","[-0.04400145504330142,-0.06290547483099095]","[-1,-1,-1]","[-0.0954136181408814,0.06161882147537888]","[1,1,1]","[-0.13436003572630473,0.03280222452604811]","[1,1,1]","[0.048447854827908504,-0.15853315796645487]","[-1,-1,-1]","[-0.13884006507219532,-0.07288554539598495]","[-1,-1,-1]","[0.08037812257356841,0.08758023835389708]","[1,1,1]","[0.020060368866083055,-0.00976750595229812]","[1,1,1]","[-0.0008505947320147339,-0.09240437465162238]","[1,1,1]","[0.11274216718193297,0.13418305763226757]","[1,1,1]","[0.09485067141229113,0.005581652371249876]","[1,1,1]","[-0.13006687184199636,-0.026999795633526807]","[1,1,1]","[-0.027532197850909466,-0.13069256472784455]","[-1,-1,-1]","[0.19004505892725945,0.028414505102582602]","[-1,-1,-1]","[-0.1830804551538698,-0.034526706443903835]","[-1,-1,-1]","[0.10598926622043027,-0.11063912895396263]","[1,1,1]","[0.13863861736616478,-0.02361813939407262]","[1,1,1]","[0.02,0.02]",160.7681,0,38,38,102,1,,,,,,,
,,,,,,,67d6e53407cb5301b586215a,682db43c55dad57aba3d428f,2025-05-21_13h52.06.163,cuing_paradigm_dot,2024.1.5,Win32,59.52380952,682d556593cb38ad0a074487,,,,,,,,,,,160.7684,161.2686,,,161.5193,162.5034,left,0.972,,,,,,,,,0.1,,,,,,161.2686,161.5192,162.5034,"[0.05029851446699026,0.03843049829335745]","[-1,-1,-1]","[0.0370696963584439,-0.036467930501285564]","[-1,-1,-1]","[0.18545904470233038,0.005603062682421554]","[-1,-1,-1]","[0.07968160597667992,0.11263797848336274]","[-1,-1,-1]","[-0.0034660735722742532,-0.19531098900478186]","[-1,-1,-1]","[-0.023406200363969943,-0.058602774491767796]","[-1,-1,-1]","[-0.027812021882458616,0.18342946539731722]","[-1,-1,-1]","[0.10945687727884269,0.06543086828288726]","[-1,-1,-1]","[0.14945535698378565,-0.060285536069351914]","[-1,-1,-1]","[-0.06209110051332833,0.05918095509311999]","[1,1,1]","[-0.014294909992076662,0.07134681037541742]","[-1,-1,-1]","[-0.051622544252945934,0.10959252393810127]","[-1,-1,-1]","[0.08508268018407877,0.16508820289055845]","[-1,-1,-1]","[-0.0041735922575673,0.0264300424406898]","[-1,-1,-1]","[0.0836953906031615,-0.09523723213264063]","[-1,-1,-1]","[0.0773416154628358,-0.03166250091391596]","[-1,-1,-1]","[-0.18651193792484708,-0.021826844613776705]","[-1,-1,-1]","[-0.054157637393334596,-0.1574888892784655]","[-1,-1,-1]","[0.0007847933605354863,-0.1455300881893236]","[-1,-1,-1]","[-0.171104987388559,0.10214429013845465]","[-1,-1,-1]","[0.07840198869114312,-0.17997881386616485]","[-1,-1,-1]","[-0.11758489427891557,-0.018670227883114517]","[-1,-1,-1]","[0.1334839655857526,0.03303994549931995]","[-1,-1,-1]","[-0.0709584410040613,-0.05885815409486785]","[-1,-1,-1]","[0.10926418723213631,-0.13766240013735892]","[-1,-1,-1]","[-0.10849409884359791,0.12681953711494334]","[1,1,1]","[-0.0958042666834251,-0.10214077038253212]","[-1,-1,-1]","[0.03749779745463599,0.09616873105640356]","[1,1,1]","[-0.1647213858435889,-0.09541427699681772]","[-1,-1,-1]","[0.055145720044030365,-0.12360292825536093]","[-1,-1,-1]","[-0.0819618225778044,0.15690377621620266]","[-1,-1,-1]","[-0.09645990131749364,0.025830785331821836]","[-1,-1,-1]","[0.02,0.02]",163.6043,0,39,39,8,1,,,,,,,
,,,,,,,67d6e53407cb5301b586215a,682db43c55dad57aba3d428f,2025-05-21_13h52.06.163,cuing_paradigm_dot,2024.1.5,Win32,59.52380952,682d556593cb38ad0a074487,,,,,,,,,,,163.6046,164.1049,,,164.3554,165.3561,right,0.9867,,,,,,,,,0.5,,,,,,164.105,164.3554,165.3561,"[-0.11839466714750935,-0.13545437601290752]","[-1,-1,-1]","[0.020213902185109767,0.04869084553079039]","[1,1,1]","[0.05094018589604531,-0.12436711882250587]","[-1,-1,-1]","[-0.0722647141417057,-0.09974822024766468]","[-1,-1,-1]","[-0.04342966780031054,0.018357737175844224]","[-1,-1,-1]","[0.09891081174332081,0.15766470471864047]","[-1,-1,-1]","[0.15303403001582036,0.1036954883068245]","[1,1,1]","[0.06211488340896584,0.12198520869296947]","[-1,-1,-1]","[-0.12428521116124683,0.01888286752732326]","[1,1,1]","[-0.10417205536828952,0.10962307772117026]","[1,1,1]","[-0.12061000742597122,-0.038290969006744856]","[1,1,1]","[0.15229625311527117,-0.03253528354673019]","[-1,-1,-1]","[0.04537980087077162,-0.08352368767221834]","[-1,-1,-1]","[-0.04033179233671087,0.06907751235764845]","[1,1,1]","[-0.09987349011317632,0.06616548354391663]","[1,1,1]","[-0.01783185594071975,-0.11119619326972277]","[-1,-1,-1]","[0.05440128766144118,0.000025780600346497264]","[-1,-1,-1]","[-0.028331450577114246,-0.1896387960693144]","[-1,-1,-1]","[0.11676704966331754,-0.12552556176158783]","[1,1,1]","[-0.15613895493442523,-0.05910505587542973]","[1,1,1]","[-0.08545528211312074,0.0035311941790921414]","[1,1,1]","[-0.030582323585776637,-0.054959049903529573]","[1,1,1]","[0.1862209082033814,0.06373153811846555]","[1,1,1]","[0.025705477748134396,0.10314148671994554]","[1,1,1]","[0.02266249624745303,0.18710425573588382]","[-1,-1,-1]","[-0.17005672001073743,0.06698188864839144]","[1,1,1]","[0.1434278628914916,0.006952613367717924]","[-1,-1,-1]","[0.12447847851977697,-0.07582497200095266]","[-1,-1,-1]","[0.10895067130214343,0.10094628789219949]","[-1,-1,-1]","[-0.11364908310587739,-0.08596355064347547]","[1,1,1]","[-0.06717433560261898,0.12887816185283246]","[-1,-1,-1]","[0.10209729680783977,0.02349037209480853]","[1,1,1]","[0.02,0.02]",166.4573,0,40,40,117,1,,,,,,,
,,,,,,,67d6e53407cb5301b586215a,682db43c55dad57aba3d428f,2025-05-21_13h52.06.163,cuing_paradigm_dot,2024.1.5,Win32,59.52380952,682d556593cb38ad0a074487,,,,,,,,,,,166.4576,166.9578,,,167.2083,168.0422,right,0.8202,,,,,,,,,0.6,,,,,,166.9578,167.2082,168.0424,"[0.09552048170956919,-0.11465829000448927]","[-1,-1,-1]","[-0.09879423209211918,0.01697965932026571]","[-1,-1,-1]","[0.15243171611980366,0.05868438347287936]","[-1,-1,-1]","[0.13274257338685386,0.005716899594548802]","[1,1,1]","[-0.12342695465046125,0.1007285562891416]","[-1,-1,-1]","[-0.012100614033725076,-0.09072293045636062]","[-1,-1,-1]","[-0.14265732172631201,-0.04748367417336358]","[1,1,1]","[-0.009479793201266764,0.01659365176945272]","[1,1,1]","[-0.1884766036279286,0.02683161567419122]","[1,1,1]","[-0.0988313034851946,-0.13397206809794593]","[-1,-1,-1]","[0.04850270994909865,0.0751487031576725]","[1,1,1]","[-0.042809651462760924,0.06232011754348599]","[1,1,1]","[-0.10118969148688486,0.13818244687312542]","[1,1,1]","[0.05565975797890737,-0.1911182291094674]","[1,1,1]","[-0.015543672557139102,0.1966123806380889]","[-1,-1,-1]","[-0.05325820787578198,-0.10779791645886981]","[-1,-1,-1]","[-0.03935957032942632,0.14496645509593933]","[1,1,1]","[0.15551763150274123,-0.0697332827575379]","[1,1,1]","[-0.05755124317034327,0.18605212515153519]","[1,1,1]","[0.04333058708176733,0.17455536387073226]","[1,1,1]","[-0.17518290583720986,-0.07348448729076112]","[1,1,1]","[0.045898351309396575,-0.010116657201888521]","[1,1,1]","[0.056944108253439575,-0.07301122962935679]","[1,1,1]","[0.18068969898972323,-0.024585215476417694]","[-1,-1,-1]","[-0.14318555284874515,0.003872018076945393]","[1,1,1]","[-0.07592287622365444,-0.18311649686208825]","[1,1,1]","[-0.10927917852138046,0.06080599991726209]","[-1,-1,-1]","[0.01918570264010718,0.10774447735729385]","[-1,-1,-1]","[-0.06418030354327768,-0.04344192340607805]","[-1,-1,-1]","[0.08597250036889575,0.03059720574712091]","[1,1,1]","[0.14729377275695343,0.12854656316392366]","[1,1,1]","[0.09032333627097792,0.15997739811326117]","[-1,-1,-1]","[0.02,0.02]",169.1433,0,41,41,159,1,,,,,,,
,,,,,,,67d6e53407cb5301b586215a,682db43c55dad57aba3d428f,2025-05-21_13h52.06.163,cuing_paradigm_dot,2024.1.5,Win32,59.52380952,682d556593cb38ad0a074487,,,,,,,,,,,169.1436,169.6438,,,169.8943,171.3955,,,,,,,,,,,0.45,,,,,,169.6438,169.8943,171.3956,"[-0.13750182305676786,-0.1262042236303442]","[-1,-1,-1]","[0.12742387633880192,0.045334760150931866]","[1,1,1]","[0.10241873728962048,0.0030754197840038196]","[1,1,1]","[0.1520977530633566,-0.030799112891767892]","[1,1,1]","[-0.02161826826888464,-0.13091281659738305]","[1,1,1]","[0.01334499186023744,0.1400955809101333]","[-1,-1,-1]","[0.14558816644662184,0.08912442794084896]","[-1,-1,-1]","[-0.08703656871542348,0.1704607710077567]","[1,1,1]","[0.1912723834338062,-0.021392246707160747]","[1,1,1]","[-0.19628107293835229,0.004631543763549303]","[1,1,1]","[0.16609751452982724,-0.07743823002307063]","[-1,-1,-1]","[-0.08276689640086703,0.10402318014010481]","[1,1,1]","[-0.10128151562927687,0.018411161057682552]","[-1,-1,-1]","[0.06818055478878511,-0.10598626205972796]","[-1,-1,-1]","[-0.10399828917184052,-0.1482392348060699]","[-1,-1,-1]","[-0.12531916196239962,-0.045151279650583895]","[1,1,1]","[0.017385379967344527,0.08841394435833841]","[-1,-1,-1]","[-0.020245941327602036,0.10412286248728127]","[-1,-1,-1]","[-0.1538436852868302,-0.08722019956907684]","[-1,-1,-1]","[0.1872456994435266,0.046912141224442]","[1,1,1]","[0.05929818393130771,0.04190027648288651]","[-1,-1,-1]","[0.10017934254993018,0.12449256308530476]","[-1,-1,-1]","[-0.06011378825901231,-0.0033326690534718627]","[-1,-1,-1]","[-0.14642077945175838,0.04792224989171997]","[-1,-1,-1]","[-0.048917788333049196,0.03952918949871128]","[1,1,1]","[0.09678686984276634,0.07616163951522745]","[1,1,1]","[-0.03404318138473232,-0.08511188380597477]","[1,1,1]","[-0.033560555827472395,0.19496441311025262]","[-1,-1,-1]","[-0.035164502870975986,-0.18327714125249084]","[1,1,1]","[0.1464982139892275,0.12959402673640832]","[-1,-1,-1]","[-0.07500879732485742,-0.06981607952252739]","[-1,-1,-1]","[0.036674188113698686,-0.19034442060489415]","[-1,-1,-1]","[0.02,0.02]",172.4972,0,42,42,81,1,,,,,,,
,,,,,,,67d6e53407cb5301b586215a,682db43c55dad57aba3d428f,2025-05-21_13h52.06.163,cuing_paradigm_dot,2024.1.5,Win32,59.52380952,682d556593cb38ad0a074487,,,,,,,,,,,172.4978,172.997,,,173.2478,174.3318,left,1.0693,,,,,,,,,0.1,,,,,,172.997,173.2478,174.3318,"[-0.14508070477296997,0.004123104245806301]","[-1,-1,-1]","[-0.11795957185804004,0.11727142176082485]","[-1,-1,-1]","[0.14988087904415015,-0.03154755982511301]","[-1,-1,-1]","[-0.1001478801527455,-0.15152042345656028]","[-1,-1,-1]","[0.04152238738685878,0.03091253201829572]","[-1,-1,-1]","[0.12719210039549686,-0.15027576257800374]","[-1,-1,-1]","[0.04737363427472452,-0.11810656689286475]","[-1,-1,-1]","[-0.036788576757098276,-0.19311317008186996]","[-1,-1,-1]","[-0.15832634390567815,0.11475112883771614]","[-1,-1,-1]","[-0.10302377538467078,0.03268488018072716]","[-1,-1,-1]","[0.09150069828060382,0.17512164493328278]","[-1,-1,-1]","[0.15293563983891292,0.05173789233596861]","[-1,-1,-1]","[-0.12609004065862217,-0.1126968231722563]","[-1,-1,-1]","[0.10611361229679188,0.08067413153122983]","[-1,-1,-1]","[0.05439635106839756,0.10075423399336586]","[-1,-1,-1]","[-0.015928272993010625,0.00810713316631042]","[-1,-1,-1]","[-0.020501801265453198,-0.06538959750822963]","[1,1,1]","[0.12972395813320742,-0.07864711492206053]","[-1,-1,-1]","[-0.006702993718641576,0.09312498037226048]","[1,1,1]","[-0.006130289294916402,0.18802705536478487]","[-1,-1,-1]","[0.06055371145400939,-0.05879695520727619]","[-1,-1,-1]","[-0.04589703723146928,0.17510209604930427]","[-1,-1,-1]","[-0.06225079805296719,-0.022811122728378513]","[-1,-1,-1]","[-0.061907620655041094,0.08207124965157347]","[-1,-1,-1]","[-0.10854555660572125,-0.05414823613545575]","[1,1,1]","[0.18630360511942612,0.016420226717600673]","[-1,-1,-1]","[0.05571551897309497,0.14444892782543037]","[-1,-1,-1]","[-0.16264747329808824,0.05305696502980058]","[-1,-1,-1]","[-0.15663149756061254,-0.06814312182307615]","[-1,-1,-1]","[-0.06748682063531317,0.13766320193337864]","[-1,-1,-1]","[-0.10201999562396129,0.16474884523861544]","[-1,-1,-1]","[0.06070037782856107,-0.16060793315142324]","[-1,-1,-1]","[0.02,0.02]",175.4328,0,43,43,18,1,,,,,,,
,,,,,,,67d6e53407cb5301b586215a,682db43c55dad57aba3d428f,2025-05-21_13h52.06.163,cuing_paradigm_dot,2024.1.5,Win32,59.52380952,682d556593cb38ad0a074487,,,,,,,,,,,175.4331,175.9334,,,176.1843,176.7678,right,0.5653,,,,,,,,,0.9,,,,,,175.9334,176.1841,176.7678,"[0.11336652524142345,0.14440620484864525]","[1,1,1]","[0.051451443813018694,0.19175927155858083]","[-1,-1,-1]","[-0.15283182549659835,-0.029384918966615405]","[1,1,1]","[-0.07284140649650057,0.11113195047717077]","[1,1,1]","[-0.17899317225611477,0.03510819147768244]","[1,1,1]","[0.08231900089165653,-0.06766848606938275]","[1,1,1]","[0.10072866942159188,0.09812416888805592]","[1,1,1]","[-0.04435166224689925,0.1515332793654494]","[1,1,1]","[-0.1301951561817346,0.07042404089690575]","[1,1,1]","[0.15076212621906065,-0.05852627162421921]","[1,1,1]","[-0.022900808552087162,-0.1560101121545128]","[1,1,1]","[0.06234148889006097,0.08548409972565095]","[1,1,1]","[0.06945554977434822,0.03756490538825725]","[1,1,1]","[0.021504042490699406,-0.1530002531077718]","[1,1,1]","[-0.1401083888055974,-0.12954065126127207]","[1,1,1]","[0.11672452876292935,0.0020134955899487063]","[1,1,1]","[-0.11776350717663749,-0.08230453285722879]","[-1,-1,-1]","[-0.013675147646476756,0.049487343597287334]","[1,1,1]","[-0.09937692844979786,-0.010904348132412433]","[1,1,1]","[0.1926621733294857,0.03883021221718493]","[-1,-1,-1]","[-0.00898019086080292,0.1862086080008719]","[1,1,1]","[-0.06281582302730443,-0.168184368461605]","[1,1,1]","[0.0031603448666152893,0.00809342761741786]","[1,1,1]","[-0.029751215764395773,-0.04844669922910113]","[1,1,1]","[0.10611932944204436,-0.13621968238383378]","[1,1,1]","[0.019627158551215256,0.1022071989895064]","[1,1,1]","[0.019842810476167164,-0.06860397455777516]","[1,1,1]","[0.19375021865402672,-0.03487624263928339]","[1,1,1]","[0.06794737192285423,-0.02297221672164179]","[1,1,1]","[-0.08072051642968087,0.028433681580145462]","[1,1,1]","[0.05503223099901806,-0.11800779109478536]","[1,1,1]","[-0.12067726458496594,0.13167428703403755]","[1,1,1]","[0.02,0.02]",177.8689,0,44,44,196,1,,,,,,,
