right,left,explain.started,explain.stopped,key_resp_3.keys,key_resp_3.rt,key_resp_3.duration,participant,session,date,expName,psychopyVersion,OS,frameRate,study_id,explain_2.started,explain_2.stopped,key_resp_4.keys,key_resp_4.rt,key_resp_4.duration,explain_3.started,explain_3.stopped,key_resp_5.keys,key_resp_5.rt,key_resp_5.duration,fixation.started,fixation.stopped,practice.started,practice.stopped,response.started,response.stopped,key_resp.keys,feedback.started,feedback.stopped,trials_2.thisRepN,trials_2.thisTrialN,trials_2.thisN,trials_2.thisIndex,trials_2.ran,white_ratio,explain_4.started,explain_4.stopped,key_resp_6.keys,key_resp_6.rt,key_resp_6.duration,dotDisplay.started,dotDisplay.stopped,key_resp.rt,key_resp.duration,ITI.started,polygon_1.pos,polygon_1.color,polygon_2.pos,polygon_2.color,polygon_3.pos,polygon_3.color,polygon_4.pos,polygon_4.color,polygon_5.pos,polygon_5.color,polygon_6.pos,polygon_6.color,polygon_7.pos,polygon_7.color,polygon_8.pos,polygon_8.color,polygon_9.pos,polygon_9.color,polygon_10.pos,polygon_10.color,polygon_11.pos,polygon_11.color,polygon_12.pos,polygon_12.color,polygon_13.pos,polygon_13.color,polygon_14.pos,polygon_14.color,polygon_15.pos,polygon_15.color,polygon_16.pos,polygon_16.color,polygon_17.pos,polygon_17.color,polygon_18.pos,polygon_18.color,polygon_19.pos,polygon_19.color,polygon_20.pos,polygon_20.color,polygon_21.pos,polygon_21.color,polygon_22.pos,polygon_22.color,polygon_23.pos,polygon_23.color,polygon_24.pos,polygon_24.color,polygon_25.pos,polygon_25.color,polygon_26.pos,polygon_26.color,polygon_27.pos,polygon_27.color,polygon_28.pos,polygon_28.color,polygon_29.pos,polygon_29.color,polygon_30.pos,polygon_30.color,polygon_31.pos,polygon_31.color,polygon_32.pos,polygon_32.color,dot_size,ITI.stopped,trials.thisRepN,trials.thisTrialN,trials.thisN,trials.thisIndex,trials.ran,break_2.started,break_2.stopped,trials_3.thisRepN,trials_3.thisTrialN,trials_3.thisN,trials_3.thisIndex,trials_3.ran
subject chose black,subject chose white,0.0004,87.6122,space,72.6001,,67da6c21bcd71cf297d8db10,682f0fbccd7c08a2b7c6255c,2025-05-22_13h58.51.745,cuing_paradigm_dot,2024.1.5,Win32,59.88023952,682d573fa47f1360d1451895,,,,,,,,,,,,,,,,,,,,,,,,,,,,,,,,,,,,,,,,,,,,,,,,,,,,,,,,,,,,,,,,,,,,,,,,,,,,,,,,,,,,,,,,,,,,,,,,,,,,,,,,,,,,,,,,,
,,,,,,,67da6c21bcd71cf297d8db10,682f0fbccd7c08a2b7c6255c,2025-05-22_13h58.51.745,cuing_paradigm_dot,2024.1.5,Win32,59.88023952,682d573fa47f1360d1451895,87.6127,138.584,space,20.958,,,,,,,,,,,,,,,,,,,,,,,,,,,,,,,,,,,,,,,,,,,,,,,,,,,,,,,,,,,,,,,,,,,,,,,,,,,,,,,,,,,,,,,,,,,,,,,,,,,,,,,,,,,,,
,,,,,,,67da6c21bcd71cf297d8db10,682f0fbccd7c08a2b7c6255c,2025-05-22_13h58.51.745,cuing_paradigm_dot,2024.1.5,Win32,59.88023952,682d573fa47f1360d1451895,,,,,,138.5845,147.5671,space,5.9623,,,,,,,,,,,,,,,,,,,,,,,,,,,,,,,,,,,,,,,,,,,,,,,,,,,,,,,,,,,,,,,,,,,,,,,,,,,,,,,,,,,,,,,,,,,,,,,,,,,,,,,,
,,,,,,,67da6c21bcd71cf297d8db10,682f0fbccd7c08a2b7c6255c,2025-05-22_13h58.51.745,cuing_paradigm_dot,2024.1.5,Win32,59.88023952,682d573fa47f1360d1451895,,,,,,,,,,,147.6094,148.0827,148.0836,148.3209,148.3212,149.8146,,149.8149,150.9142,0,0,0,0,1,0.8,,,,,,,,,,,,,,,,,,,,,,,,,,,,,,,,,,,,,,,,,,,,,,,,,,,,,,,,,,,,,,,,,,,,,,,,,,,,,,,,,,,,,,,,
,,,,,,,67da6c21bcd71cf297d8db10,682f0fbccd7c08a2b7c6255c,2025-05-22_13h58.51.745,cuing_paradigm_dot,2024.1.5,Win32,59.88023952,682d573fa47f1360d1451895,,,,,,,,,,,150.9149,151.4144,151.4144,151.6718,151.672,153.1658,,153.1662,154.265,0,1,1,1,1,0.2,,,,,,,,,,,,,,,,,,,,,,,,,,,,,,,,,,,,,,,,,,,,,,,,,,,,,,,,,,,,,,,,,,,,,,,,,,,,,,,,,,,,,,,,
,,,,,,,67da6c21bcd71cf297d8db10,682f0fbccd7c08a2b7c6255c,2025-05-22_13h58.51.745,cuing_paradigm_dot,2024.1.5,Win32,59.88023952,682d573fa47f1360d1451895,,,,,,,,,,,,,,,,,,,,,,,,,,154.2667,189.1838,space,31.8934,,,,,,,,,,,,,,,,,,,,,,,,,,,,,,,,,,,,,,,,,,,,,,,,,,,,,,,,,,,,,,,,,,,,,,,,,,,,,,,,,,,,
,,,,,,,67da6c21bcd71cf297d8db10,682f0fbccd7c08a2b7c6255c,2025-05-22_13h58.51.745,cuing_paradigm_dot,2024.1.5,Win32,59.88023952,682d573fa47f1360d1451895,,,,,,,,,,,189.2036,189.6992,,,189.9502,191.1193,right,,,,,,,,0.4,,,,,,189.7008,189.9499,1.1464,,191.1198,"[0.08173220414550589,-0.14894487476230103]","[-1,-1,-1]","[-0.1141202237011572,0.023029691217439727]","[-1,-1,-1]","[-0.006397416979728002,-0.11738052688050733]","[-1,-1,-1]","[-0.15747951959159392,0.06898066301363996]","[-1,-1,-1]","[0.0890933880695989,0.1570881143075393]","[1,1,1]","[0.11647375169634047,-0.11307513500203918]","[-1,-1,-1]","[-0.12851123906045508,-0.023964867514859208]","[-1,-1,-1]","[-0.12744734447330033,-0.14466948742129088]","[1,1,1]","[-0.10349112618353533,0.14403848859336701]","[-1,-1,-1]","[0.016147307665169374,-0.05854578792510669]","[-1,-1,-1]","[-0.18427789727553884,0.0034659252954798107]","[1,1,1]","[0.036072804817831323,-0.018734652034021287]","[-1,-1,-1]","[0.12433148805786251,0.1218756202911729]","[-1,-1,-1]","[-0.06514992570286347,-0.18075484069534]","[-1,-1,-1]","[-0.10200984054284015,0.08840746564127923]","[1,1,1]","[-0.1543817716006389,-0.1098238471841436]","[1,1,1]","[-0.06864706761231318,-0.12165031107784689]","[1,1,1]","[-0.04044859658510441,0.013450809607673272]","[1,1,1]","[0.1788581857932457,-0.06738464376511462]","[1,1,1]","[0.16925420464373067,0.07018868347042548]","[-1,-1,-1]","[-0.13848875253725934,-0.06337865839901663]","[1,1,1]","[0.0634477841775804,0.04424093050649311]","[1,1,1]","[-0.05799102016788603,0.07179150921287118]","[-1,-1,-1]","[0.18181526570468262,-0.016099350388046718]","[-1,-1,-1]","[0.01976059382158981,0.18017053795253432]","[1,1,1]","[-0.005180876732151151,0.14138985560255002]","[-1,-1,-1]","[0.08387163427860406,-0.0884205335793611]","[1,1,1]","[0.12117098760005728,0.08030989257449878]","[-1,-1,-1]","[0.15460067850732254,0.014657716820808256]","[-1,-1,-1]","[0.11939986706048983,-0.022270983656464433]","[-1,-1,-1]","[-0.04836371572067623,-0.049588679545581965]","[-1,-1,-1]","[0.038867152093049195,-0.1851840202530702]","[1,1,1]","[0.02,0.02]",192.2154,0,0,0,59,1,,,,,,,
,,,,,,,67da6c21bcd71cf297d8db10,682f0fbccd7c08a2b7c6255c,2025-05-22_13h58.51.745,cuing_paradigm_dot,2024.1.5,Win32,59.88023952,682d573fa47f1360d1451895,,,,,,,,,,,192.2176,192.7221,,,192.9657,194.0319,right,,,,,,,,0.55,,,,,,192.7221,192.9655,1.0382,,194.0322,"[-0.12936912643787726,0.13421018065484486]","[1,1,1]","[0.08031667965732484,0.010672794118449395]","[1,1,1]","[-0.09619374972290783,0.0836268773576901]","[-1,-1,-1]","[-0.03314399586294102,0.06877350316201374]","[-1,-1,-1]","[-0.1001128814274933,-0.17208201033418213]","[1,1,1]","[-0.16670460431510825,0.016774907115213015]","[1,1,1]","[-0.10557669517782854,-0.03139317559299214]","[1,1,1]","[-0.014069405826466758,-0.12113542753653891]","[1,1,1]","[0.14816758888190357,-0.12935412197063895]","[1,1,1]","[0.1624627780960427,-0.008080248774949868]","[1,1,1]","[0.13233091392074367,0.04808985673246047]","[-1,-1,-1]","[0.17385147242225304,-0.06401280088195271]","[1,1,1]","[0.12003453093847662,0.15164821059541975]","[-1,-1,-1]","[-0.17439672161664296,0.06731567865671355]","[-1,-1,-1]","[-0.02133625173062062,-0.01808775035077999]","[-1,-1,-1]","[-0.12956379033190374,-0.13445045253841945]","[-1,-1,-1]","[0.057332049161401645,0.16035995745529352]","[-1,-1,-1]","[-0.00740758096983794,0.15901558859548515]","[1,1,1]","[-0.12353572248606612,-0.07302456712511406]","[1,1,1]","[0.021703430901896224,-0.06220105331334211]","[1,1,1]","[-0.12856446695648224,0.04947927190741325]","[1,1,1]","[-0.033930416018999675,-0.16534704626784386]","[1,1,1]","[0.11209645959932199,-0.07213699728379294]","[-1,-1,-1]","[-0.05444486027385282,0.130309927703408]","[1,1,1]","[0.06630794181953074,-0.06955316474837862]","[-1,-1,-1]","[0.025239175113761777,0.0018796705373419836]","[-1,-1,-1]","[-0.06944661384336144,0.16976064604970967]","[-1,-1,-1]","[0.010547553320036089,-0.1799188160485138]","[-1,-1,-1]","[0.06880788947185917,0.12129511224997873]","[1,1,1]","[-0.17222676562101205,-0.06369274843752327]","[-1,-1,-1]","[0.008804190703511317,0.08987691501518834]","[1,1,1]","[-0.0623235550954144,-0.07494182287436023]","[1,1,1]","[0.02,0.02]",195.1313,0,1,1,130,1,,,,,,,
,,,,,,,67da6c21bcd71cf297d8db10,682f0fbccd7c08a2b7c6255c,2025-05-22_13h58.51.745,cuing_paradigm_dot,2024.1.5,Win32,59.88023952,682d573fa47f1360d1451895,,,,,,,,,,,195.1333,195.6322,,,195.8831,196.8494,left,,,,,,,,0.55,,,,,,195.6324,195.883,0.937,,196.8498,"[0.16107262234020547,-0.0741731633639697]","[-1,-1,-1]","[-0.15787996171617874,0.009648267235584316]","[-1,-1,-1]","[0.02847419912454636,0.09991340947717069]","[-1,-1,-1]","[0.11242153517253287,0.10573224387980151]","[-1,-1,-1]","[0.006339049828511455,-0.05622381964716633]","[1,1,1]","[-0.14980855536462565,-0.06471174466671398]","[1,1,1]","[0.06997359764565221,-0.038439652390115396]","[1,1,1]","[-0.1122153037268972,-0.11657767867549607]","[1,1,1]","[0.04343193886848231,-0.1367512473535667]","[1,1,1]","[-0.04731091826108203,0.12847149310787137]","[1,1,1]","[-0.1939694139029867,-0.042945767414329226]","[1,1,1]","[0.13435660413706849,0.0707055408637701]","[1,1,1]","[0.08021236513517303,0.02813568356061419]","[1,1,1]","[0.02552829631857269,-0.18065120058465148]","[1,1,1]","[0.09709637030808921,-0.134249760667057]","[-1,-1,-1]","[0.05225082106973452,-0.0771344557426011]","[-1,-1,-1]","[0.007412989076938787,0.1944531603181878]","[-1,-1,-1]","[0.04855229993982412,0.15810674041450495]","[-1,-1,-1]","[-0.11744408250937614,0.12096889454331451]","[1,1,1]","[-0.10284039507471329,-0.15583098778508175]","[-1,-1,-1]","[-0.11763916600448572,0.04772325471889328]","[1,1,1]","[-0.0411879874491638,-0.05237451483491357]","[-1,-1,-1]","[0.11135528542394069,-0.022236903942295966]","[-1,-1,-1]","[0.15194633938349233,0.11607471963363485]","[-1,-1,-1]","[-0.0453313138407898,-0.14060338668095249]","[1,1,1]","[-0.01898705639658032,-0.19255838191616537]","[-1,-1,-1]","[0.004678034179012187,0.013144790245866825]","[1,1,1]","[-0.0804083459914477,-0.006850045117001267]","[-1,-1,-1]","[-0.05542443844413291,0.07163609631950178]","[1,1,1]","[0.18992748243505328,-0.021131215105392107]","[1,1,1]","[-0.17446718769227845,0.08269620105451926]","[1,1,1]","[0.05016359731388773,-0.0006769740456448942]","[1,1,1]","[0.02,0.02]",197.9487,0,2,2,142,1,,,,,,,
,,,,,,,67da6c21bcd71cf297d8db10,682f0fbccd7c08a2b7c6255c,2025-05-22_13h58.51.745,cuing_paradigm_dot,2024.1.5,Win32,59.88023952,682d573fa47f1360d1451895,,,,,,,,,,,197.9507,198.456,,,198.7059,199.7389,right,,,,,,,,0.6,,,,,,198.456,198.7058,1.0247,,199.739,"[-0.15759813527017094,-0.09052885484375249]","[1,1,1]","[0.18041186211106408,0.06402888734408627]","[1,1,1]","[-0.000076778266339377,0.06919866126663399]","[1,1,1]","[-0.16912217748896533,-0.04941209577787187]","[1,1,1]","[0.13135834883466327,0.10721928843323557]","[1,1,1]","[-0.07583873745399491,0.14690791830836594]","[1,1,1]","[0.151338753899914,-0.04976835941153771]","[-1,-1,-1]","[-0.10010800258343497,0.10813460852824487]","[-1,-1,-1]","[-0.1316092482178261,0.023714075082425824]","[-1,-1,-1]","[0.1485946391655012,-0.11924099510210953]","[-1,-1,-1]","[-0.03955087578153898,0.010424423288186416]","[1,1,1]","[0.022403736326896944,0.17274948898443848]","[1,1,1]","[0.015281869946656165,-0.1982240392415213]","[-1,-1,-1]","[0.08213440762357234,0.06751543620333625]","[-1,-1,-1]","[-0.05873588842001332,-0.12041640919643193]","[1,1,1]","[0.09599370427664157,-0.07318999760255387]","[-1,-1,-1]","[0.1363580841845289,0.06456364929581104]","[1,1,1]","[0.052053486369021136,-0.06919497592192035]","[-1,-1,-1]","[0.06993693978591091,-0.11341045152083437]","[1,1,1]","[-0.13298851232560255,-0.13739574108976346]","[-1,-1,-1]","[0.12836213709548105,0.020480515064209347]","[1,1,1]","[0.013072285430277627,-0.1416908989854885]","[1,1,1]","[-0.0018225244401587238,-0.09105637424083722]","[1,1,1]","[0.11240113014849848,-0.017001173544458268]","[-1,-1,-1]","[-0.04379761759934378,0.188239546526296]","[1,1,1]","[0.05311231971710784,-0.0010857332033543403]","[1,1,1]","[0.0205763727186544,0.027773908230751886]","[-1,-1,-1]","[0.08284704774298021,0.13997054570376652]","[-1,-1,-1]","[-0.030022746554653444,-0.05441823468835224]","[-1,-1,-1]","[-0.07727421558379818,0.05756553894782351]","[1,1,1]","[-0.10322068860717389,-0.03527087935456668]","[1,1,1]","[-0.10379206130241626,-0.08881264788365384]","[1,1,1]","[0.02,0.02]",200.8321,0,3,3,171,1,,,,,,,
,,,,,,,67da6c21bcd71cf297d8db10,682f0fbccd7c08a2b7c6255c,2025-05-22_13h58.51.745,cuing_paradigm_dot,2024.1.5,Win32,59.88023952,682d573fa47f1360d1451895,,,,,,,,,,,200.8336,201.3316,,,201.5894,202.2576,right,,,,,,,,0.5,,,,,,201.3321,201.5893,0.66,,202.2576,"[-0.033950670686916005,-0.18862900303808364]","[-1,-1,-1]","[0.1132865623028397,-0.1246854732408118]","[-1,-1,-1]","[0.06375014654560375,-0.07655645012910044]","[1,1,1]","[-0.14248465478449138,0.04033571223405179]","[1,1,1]","[0.016171637738056962,0.1898115085828772]","[1,1,1]","[0.004023571730774746,0.03599992425558279]","[1,1,1]","[0.1589379537507192,0.10756519862220867]","[1,1,1]","[0.02492309653542758,-0.15956963244053118]","[1,1,1]","[0.09033670343692285,0.15332758429556964]","[1,1,1]","[-0.0911409900569221,-0.1575999371619639]","[-1,-1,-1]","[0.07828772847102167,-0.029182821828457148]","[-1,-1,-1]","[-0.05445659721782754,-0.03472678449272173]","[-1,-1,-1]","[-0.026002412518022985,-0.12750130478344712]","[-1,-1,-1]","[-0.12902101468426386,-0.012500170175086303]","[1,1,1]","[-0.040741560502336197,0.025280799889000897]","[1,1,1]","[-0.01392778714588692,0.12048396960561081]","[-1,-1,-1]","[-0.005025492634730666,-0.08809751286833287]","[1,1,1]","[0.16316280838608566,-0.048133177341373304]","[-1,-1,-1]","[0.03304259871120198,-0.04711043647959998]","[1,1,1]","[0.10775569972263023,0.09097969279219507]","[1,1,1]","[-0.09777107121169346,-0.05322185142792999]","[-1,-1,-1]","[0.04465396559852682,0.12247383140108818]","[-1,-1,-1]","[-0.07687271428567499,0.08524213341846427]","[-1,-1,-1]","[-0.18520931567995963,0.0685415839800803]","[-1,-1,-1]","[-0.0826902708613155,0.16708695181884184]","[-1,-1,-1]","[0.04498360846179704,-0.11673121012026125]","[1,1,1]","[-0.18441191563809742,-0.027134965922707963]","[-1,-1,-1]","[0.1319430538302551,-0.004420874046166678]","[-1,-1,-1]","[0.18651023175455822,0.06976358520153689]","[1,1,1]","[-0.010796932819595281,-0.023942033370009778]","[-1,-1,-1]","[0.08618319509214215,-0.17184140808861068]","[1,1,1]","[-0.12645780859705325,0.15374312104660098]","[1,1,1]","[0.02,0.02]",203.3486,0,4,4,92,1,,,,,,,
,,,,,,,67da6c21bcd71cf297d8db10,682f0fbccd7c08a2b7c6255c,2025-05-22_13h58.51.745,cuing_paradigm_dot,2024.1.5,Win32,59.88023952,682d573fa47f1360d1451895,,,,,,,,,,,203.35,203.848,,,204.0896,204.8323,left,,,,,,,,0.9,,,,,,203.8481,204.0895,0.7284,,204.8327,"[0.023157683480521402,0.17050560723074754]","[1,1,1]","[0.11843853676532747,-0.13990329143679364]","[1,1,1]","[-0.01984845653449489,-0.09714619121116255]","[1,1,1]","[-0.03232595460801115,0.19136502732990004]","[1,1,1]","[-0.05968004140707274,0.1163131994677499]","[1,1,1]","[0.04041325026213234,-0.18106347794779973]","[1,1,1]","[-0.08435120903004505,-0.02632275047254316]","[1,1,1]","[0.06298271162298602,0.04629579611173054]","[1,1,1]","[-0.12357288692610556,-0.05465243707292779]","[1,1,1]","[-0.032064058026710966,0.017267481572095376]","[1,1,1]","[-0.12277720680571262,0.0998527392012389]","[1,1,1]","[0.06627717295881023,0.1796072713129965]","[1,1,1]","[0.06439985400185728,0.10008110843809842]","[1,1,1]","[0.09851985699117945,-0.06959290369723135]","[1,1,1]","[0.031675413540199655,0.1251278773169429]","[1,1,1]","[0.04896692118243319,-0.003961840464943204]","[-1,-1,-1]","[-0.07870374593464004,0.028961975817135714]","[1,1,1]","[-0.02621997958040942,-0.17875008916731994]","[1,1,1]","[0.13655047510549895,-0.026924953054628706]","[1,1,1]","[-0.06728722401188571,-0.10649455700888806]","[1,1,1]","[0.008949676084875848,-0.01596641160587082]","[1,1,1]","[0.04548106430556724,-0.05843204358253218]","[-1,-1,-1]","[-0.19053120964371242,-0.028640403801815522]","[1,1,1]","[-0.027316667115134363,-0.05184324434672594]","[1,1,1]","[-0.008356853625742997,-0.13990036142627937]","[1,1,1]","[-0.08193017446512944,-0.15342388614899483]","[1,1,1]","[0.18767830742779007,-0.021208298555157275]","[1,1,1]","[-0.16063304648967447,0.012591888103139649]","[1,1,1]","[0.12440684902281755,0.057551761984063275]","[1,1,1]","[-0.11932254421310728,0.016374898626320293]","[1,1,1]","[-0.13492088617529038,-0.10385588286023704]","[-1,-1,-1]","[-0.011247211335923622,0.09897448316991458]","[1,1,1]","[0.02,0.02]",205.9318,0,5,5,203,1,,,,,,,
,,,,,,,67da6c21bcd71cf297d8db10,682f0fbccd7c08a2b7c6255c,2025-05-22_13h58.51.745,cuing_paradigm_dot,2024.1.5,Win32,59.88023952,682d573fa47f1360d1451895,,,,,,,,,,,205.9332,206.4317,,,206.6874,207.2643,left,,,,,,,,0.9,,,,,,206.4319,206.6873,0.5662,,207.2646,"[-0.08131040678615459,-0.04849321608396531]","[1,1,1]","[0.025664962170758115,-0.15264232382180665]","[1,1,1]","[-0.08204854882372933,-0.17779363431094516]","[1,1,1]","[0.10132371449832535,0.1420112863283169]","[1,1,1]","[-0.041479493653835076,0.11509800141641183]","[1,1,1]","[0.057122879171045304,0.1502953025295896]","[1,1,1]","[-0.13084417078740077,-0.04342939261463066]","[-1,-1,-1]","[-0.04805774714228032,0.18302179672788305]","[1,1,1]","[0.07476378282813488,-0.07475169586994572]","[1,1,1]","[-0.015783331915432502,0.07163968324014106]","[1,1,1]","[-0.07568461539851908,-0.00040831045907557156]","[1,1,1]","[-0.0650479246752975,-0.13349729733709018]","[-1,-1,-1]","[0.11188447033693207,0.08646492453054269]","[1,1,1]","[-0.10725047153410026,0.13890607319077386]","[1,1,1]","[-0.008545024247294837,-0.03531313674494309]","[1,1,1]","[-0.11555274861599647,-0.15555865559556775]","[1,1,1]","[0.15291791295625345,0.060004818713702016]","[1,1,1]","[0.09805664779459927,-0.14926696999852554]","[1,1,1]","[-0.17024304786028632,-0.061343286231376595]","[1,1,1]","[-0.07128741170345632,0.04372355124188726]","[-1,-1,-1]","[0.014837315679697205,-0.07279569143392699]","[1,1,1]","[-0.1027878151151736,-0.09346359516182245]","[1,1,1]","[-0.030112559708827025,0.010012200377983371]","[1,1,1]","[0.1042379296996988,-0.10595433245330996]","[1,1,1]","[-0.17774503767734456,-0.013661356116882418]","[1,1,1]","[0.09032728249300558,0.04023398273806644]","[1,1,1]","[0.1384425559435688,-0.06323916525475236]","[1,1,1]","[-0.11912655770151148,0.06784277203479382]","[1,1,1]","[-0.013893715004197267,-0.14287903615494021]","[1,1,1]","[0.02526973442281344,0.10528846365176836]","[1,1,1]","[0.1576379660174589,-0.11479512361935341]","[1,1,1]","[0.024745471561404938,0.007862978829673807]","[1,1,1]","[0.02,0.02]",208.3658,0,6,6,202,1,,,,,,,
,,,,,,,67da6c21bcd71cf297d8db10,682f0fbccd7c08a2b7c6255c,2025-05-22_13h58.51.745,cuing_paradigm_dot,2024.1.5,Win32,59.88023952,682d573fa47f1360d1451895,,,,,,,,,,,208.3678,208.8643,,,209.1066,209.9145,left,,,,,,,,0.55,,,,,,208.8645,209.1066,0.787,,209.9148,"[-0.021692989639730036,0.047208796680388444]","[-1,-1,-1]","[-0.04514246403849248,0.1686960778468464]","[1,1,1]","[-0.11472950341794877,-0.011759625928585093]","[1,1,1]","[-0.06396202128619367,-0.06603391944910557]","[-1,-1,-1]","[-0.0674118738307061,0.0038989343897611567]","[-1,-1,-1]","[0.029888577913278907,-0.08353840229855822]","[1,1,1]","[-0.1522234294448479,-0.05938009769961358]","[1,1,1]","[0.01216398710253438,0.004351537569788968]","[1,1,1]","[0.09989913247313997,0.041354443160710415]","[-1,-1,-1]","[-0.16228483301487193,0.009131628191269206]","[-1,-1,-1]","[-0.043321745928419676,-0.18835763314260112]","[-1,-1,-1]","[0.1252880453831283,-0.03109603545857761]","[-1,-1,-1]","[0.004220695318322286,-0.1738764586857465]","[1,1,1]","[0.023861843218842518,-0.0392427053134608]","[1,1,1]","[-0.16762941968826792,0.09509754100460913]","[1,1,1]","[0.07304395864913303,-0.14152345796087656]","[1,1,1]","[0.07954127779793545,-0.07623007060593802]","[1,1,1]","[-0.09873287963053391,0.08027857424212465]","[1,1,1]","[0.16968071502487486,-0.011769104252408631]","[1,1,1]","[0.14530031404117863,-0.07945522289823859]","[-1,-1,-1]","[0.07286150591531763,0.0713207660580846]","[1,1,1]","[-0.05166758347352416,0.10518540202678031]","[1,1,1]","[0.043571920868906454,0.18463842683236084]","[1,1,1]","[0.1742105868175018,0.045755024466487215]","[1,1,1]","[-0.14870039372112934,-0.11632078372399497]","[1,1,1]","[-0.009872214842996541,-0.07017943335560109]","[-1,-1,-1]","[-0.06822333479306959,-0.10933957755000298]","[-1,-1,-1]","[-0.144048350507763,0.13635319241026883]","[-1,-1,-1]","[0.11386375126051645,0.09916347024648374]","[-1,-1,-1]","[0.02221940653368223,0.08891722526882055]","[-1,-1,-1]","[0.009347217213915186,-0.1285742936750933]","[-1,-1,-1]","[0.07365622921276976,-0.01373249400214287]","[1,1,1]","[0.02,0.02]",211.0148,0,7,7,132,1,,,,,,,
,,,,,,,67da6c21bcd71cf297d8db10,682f0fbccd7c08a2b7c6255c,2025-05-22_13h58.51.745,cuing_paradigm_dot,2024.1.5,Win32,59.88023952,682d573fa47f1360d1451895,,,,,,,,,,,211.0161,211.5141,,,211.7565,212.3811,left,,,,,,,,0.9,,,,,,211.5143,211.7564,0.6048,,212.3814,"[-0.09903348437626679,0.0002117182165717549]","[1,1,1]","[0.03746078690771921,-0.14553404730650582]","[1,1,1]","[-0.03936200148340125,-0.193028525436123]","[1,1,1]","[0.07632239118967071,-0.10295749327050646]","[-1,-1,-1]","[-0.13006796233883539,-0.07471649528322742]","[1,1,1]","[0.09506220765789464,0.03431237313472802]","[1,1,1]","[0.11076494181673441,-0.1278010287988029]","[1,1,1]","[0.04982291121382574,0.1924811355763899]","[1,1,1]","[-0.1635153550689204,-0.10320147247821762]","[-1,-1,-1]","[-0.09860520575700583,0.07245691836817351]","[1,1,1]","[-0.17043518341292038,0.06908607545718719]","[1,1,1]","[0.05524865490987807,-0.011481884556337094]","[1,1,1]","[-0.01745690012495776,0.05154764456084535]","[1,1,1]","[0.15238596502894997,0.01436426465236607]","[-1,-1,-1]","[-0.012373671698486374,0.0011300069947191317]","[1,1,1]","[0.1932879795334612,0.0038550951775927]","[1,1,1]","[0.08571738392992133,0.11780431108521067]","[1,1,1]","[0.09343217389242855,-0.04391151909892987]","[1,1,1]","[0.017421370149587695,0.15857014203204134]","[1,1,1]","[-0.14159937609153342,0.035979599148881325]","[1,1,1]","[-0.08135212122653522,0.1703428862693633]","[1,1,1]","[-0.0010741454376120693,-0.0621342337775461]","[1,1,1]","[-0.18367047832017075,-0.017047365136736253]","[1,1,1]","[0.06104476211621302,0.0795748901986952]","[1,1,1]","[-0.03440138919240118,-0.15207511935405793]","[1,1,1]","[0.050263207977829565,0.03098552429268615]","[1,1,1]","[0.08219188658849562,-0.15931580513738736]","[1,1,1]","[0.15030351743797232,-0.086614291753156]","[1,1,1]","[-0.158809487092012,0.11149379498322956]","[1,1,1]","[-0.13520764175631172,0.1457012892684489]","[1,1,1]","[-0.09145873455999372,-0.043494109809359936]","[1,1,1]","[-0.005647538349189252,0.10270417479699644]","[1,1,1]","[0.02,0.02]",213.4814,0,8,8,205,1,,,,,,,
,,,,,,,67da6c21bcd71cf297d8db10,682f0fbccd7c08a2b7c6255c,2025-05-22_13h58.51.745,cuing_paradigm_dot,2024.1.5,Win32,59.88023952,682d573fa47f1360d1451895,,,,,,,,,,,213.483,213.981,,,214.2328,215.064,right,,,,,,,,0.45,,,,,,213.9812,214.2325,0.8053,,215.0642,"[0.11627661845411058,0.06128266193367374]","[-1,-1,-1]","[0.10811020783129265,-0.0273514661100242]","[1,1,1]","[-0.17281346987300852,-0.04139725611440038]","[-1,-1,-1]","[0.041875405529867064,0.05954406687315918]","[-1,-1,-1]","[-0.02844700162614751,-0.0686243093410518]","[1,1,1]","[0.15679461595370092,-0.1207117823529898]","[-1,-1,-1]","[0.19406630309019823,0.042929372526346425]","[-1,-1,-1]","[0.06240393469606097,-0.09043498890607164]","[1,1,1]","[-0.020851651163512952,-0.12943774172992636]","[-1,-1,-1]","[0.08682444492411788,0.11270133356526427]","[1,1,1]","[-0.06072684469142967,0.047830200547792974]","[1,1,1]","[-0.1485741775435034,0.11658794992298671]","[-1,-1,-1]","[0.16139078442877333,-0.019053875943777842]","[-1,-1,-1]","[-0.03846535631364956,0.11929814416887473]","[-1,-1,-1]","[-0.08046902893526486,-0.02899606413599644]","[1,1,1]","[-0.01672404686937673,-0.0036471701039313353]","[-1,-1,-1]","[0.10177402666392871,-0.14193598219000977]","[1,1,1]","[0.049896851988008355,-0.04840593636812352]","[1,1,1]","[0.019250945357463287,-0.09254643737816089]","[1,1,1]","[0.0816080333521381,0.030989480732901132]","[1,1,1]","[0.011369641193394186,0.09989204175878537]","[1,1,1]","[-0.011615037203767602,0.040491093283247286]","[1,1,1]","[-0.16115010065890825,0.04197010432761731]","[-1,-1,-1]","[-0.07581677512943413,0.1635567551258987]","[-1,-1,-1]","[0.16327806812454268,0.08658888921259252]","[-1,-1,-1]","[0.12785844526416273,-0.08708364175711326]","[-1,-1,-1]","[-0.09710646100502034,-0.13887703014389696]","[1,1,1]","[0.18221667347954706,-0.07035763305823463]","[-1,-1,-1]","[0.10414606682789689,0.15988304075687293]","[1,1,1]","[0.0704757792343292,-0.009278759113857176]","[-1,-1,-1]","[0.021192677041537787,0.18191591915910302]","[-1,-1,-1]","[0.03841176051888777,0.016572477687830624]","[-1,-1,-1]","[0.02,0.02]",216.1652,0,9,9,80,1,,,,,,,
,,,,,,,67da6c21bcd71cf297d8db10,682f0fbccd7c08a2b7c6255c,2025-05-22_13h58.51.745,cuing_paradigm_dot,2024.1.5,Win32,59.88023952,682d573fa47f1360d1451895,,,,,,,,,,,216.1668,216.6645,,,216.9227,217.6335,left,,,,,,,,0.9,,,,,,216.6648,216.9227,0.6999,,217.6337,"[0.0706848129278541,-0.0233750886140612]","[1,1,1]","[-0.045781642451676804,0.1805346565256]","[1,1,1]","[0.11540226356463187,0.103045082704696]","[1,1,1]","[0.07861330593248558,0.16087641583099188]","[1,1,1]","[-0.08943627625031625,-0.11772882207569887]","[-1,-1,-1]","[-0.14123580844372907,-0.009377921876490213]","[1,1,1]","[0.14602818385262883,0.006028357637263501]","[1,1,1]","[-0.14025494853513493,-0.05778584906457875]","[1,1,1]","[0.028094809500585675,0.09312328864576011]","[1,1,1]","[-0.09114827505353795,-0.030737887065165385]","[1,1,1]","[-0.07197043298639416,-0.17192255812114488]","[-1,-1,-1]","[-0.044219151806456275,0.1349981504536047]","[1,1,1]","[0.03212687339941891,-0.12994033143257372]","[1,1,1]","[0.10371629075372504,-0.06958333402750992]","[1,1,1]","[0.09394087708857533,-0.12360715937059473]","[1,1,1]","[0.028387186834725023,-0.08204130495639594]","[1,1,1]","[0.15065577645018063,-0.04684469306026157]","[1,1,1]","[-0.04614207602860025,-0.06583928452105593]","[1,1,1]","[0.18641749692670576,0.041544796139156216]","[1,1,1]","[-0.15918156624446764,0.09897391248794937]","[1,1,1]","[0.09021620096473176,0.02390529527776133]","[1,1,1]","[-0.06942937756444072,0.10010871157226812]","[1,1,1]","[0.1626479352764092,-0.10780598392182165]","[-1,-1,-1]","[0.03017402421167766,0.1930776840617449]","[1,1,1]","[-0.06878054352859285,0.03318448340484042]","[1,1,1]","[0.013581937669083805,-0.012322565120879394]","[1,1,1]","[-0.10636948138866491,0.14374286898257277]","[1,1,1]","[-0.03577425818306979,0.004353347164896804]","[1,1,1]","[-0.013807160774081097,0.08583831553626316]","[1,1,1]","[-0.022226615924612555,-0.19152473841975906]","[1,1,1]","[0.05004402237146571,-0.17403987179916683]","[1,1,1]","[-0.002339865440531451,0.13665602348363864]","[1,1,1]","[0.02,0.02]",218.7303,0,10,10,180,1,,,,,,,
,,,,,,,67da6c21bcd71cf297d8db10,682f0fbccd7c08a2b7c6255c,2025-05-22_13h58.51.745,cuing_paradigm_dot,2024.1.5,Win32,59.88023952,682d573fa47f1360d1451895,,,,,,,,,,,218.7325,219.2307,,,219.4875,220.4179,left,,,,,,,,0.4,,,,,,219.231,219.4875,0.9118,,220.4182,"[-0.01840385070710647,-0.010413926184343157]","[-1,-1,-1]","[0.15558034868560458,-0.06237648675268558]","[-1,-1,-1]","[-0.16035315672463743,-0.055907190693156805]","[1,1,1]","[0.139897824113742,0.07464069352408621]","[-1,-1,-1]","[0.10645735320801854,-0.15240173528999174]","[1,1,1]","[-0.16063357447731513,0.016617620678959912]","[-1,-1,-1]","[-0.09680019668234682,0.02709709081277751]","[1,1,1]","[0.10360226242356965,0.051990736991571404]","[-1,-1,-1]","[0.06665591816141067,0.13591443104598014]","[-1,-1,-1]","[0.15314655751941983,0.021643863439449715]","[1,1,1]","[0.14771023329648775,-0.10649093528403447]","[1,1,1]","[0.014802026932508048,-0.03959203279045832]","[-1,-1,-1]","[0.06008935558167652,0.04824489955648609]","[1,1,1]","[-0.07140695046968037,0.06386574285599067]","[-1,-1,-1]","[-0.08594964076678731,-0.1465674769727448]","[1,1,1]","[0.034344165583365255,0.16288481425230356]","[1,1,1]","[0.09394141314283706,-0.06001325904616987]","[-1,-1,-1]","[-0.11804630130660355,-0.09741494080026883]","[-1,-1,-1]","[-0.15634567638012156,0.08601618846370238]","[1,1,1]","[0.1929587202689415,0.03230600417503071]","[-1,-1,-1]","[0.013319104343895367,-0.1850383546886366]","[-1,-1,-1]","[0.14787346909836446,0.13000008954542885]","[-1,-1,-1]","[0.005532114453020046,-0.09954484264562412]","[1,1,1]","[0.03388982407232056,-0.13584052590938403]","[-1,-1,-1]","[-0.11849977802623145,0.15721040088575022]","[-1,-1,-1]","[0.11761749743336451,-0.016074106286944535]","[-1,-1,-1]","[-0.13602681802285307,-0.13541913477926204]","[-1,-1,-1]","[-0.1129353021511231,-0.016160081997887536]","[-1,-1,-1]","[-0.022180842328386723,0.11945877316229883]","[-1,-1,-1]","[-0.04310758518875206,-0.09196315998896674]","[1,1,1]","[0.06126855125590387,-0.09935054323238526]","[1,1,1]","[-0.049940961024812304,0.1543869361867268]","[1,1,1]","[0.02,0.02]",221.5207,0,11,11,33,1,,,,,,,
,,,,,,,67da6c21bcd71cf297d8db10,682f0fbccd7c08a2b7c6255c,2025-05-22_13h58.51.745,cuing_paradigm_dot,2024.1.5,Win32,59.88023952,682d573fa47f1360d1451895,,,,,,,,,,,221.5212,222.0146,,,222.2533,223.3138,left,,,,,,,,0.4,,,,,,222.0149,222.2533,1.0467,,223.3141,"[-0.03735232676631451,-0.156599296172004]","[-1,-1,-1]","[0.02800971132896858,0.014217002362921324]","[-1,-1,-1]","[-0.077508978711974,-0.03614709096280496]","[1,1,1]","[0.0733288586678227,-0.1160277423338143]","[1,1,1]","[-0.13586413542337164,0.03935958988954644]","[-1,-1,-1]","[-0.16074087442304286,-0.10464111330943103]","[-1,-1,-1]","[0.00825340536392111,0.12875585340690243]","[-1,-1,-1]","[-0.07230194273788419,-0.1289507786499274]","[-1,-1,-1]","[-0.11294479221174303,-0.11014140854894557]","[-1,-1,-1]","[0.042425815093973016,0.05253027107559751]","[-1,-1,-1]","[0.030017870509431447,-0.10005219711257508]","[-1,-1,-1]","[0.14059026487984078,0.02100262978521197]","[-1,-1,-1]","[-0.10874147393716302,0.09060377931946223]","[-1,-1,-1]","[0.09272777366504503,-0.17349268193733589]","[1,1,1]","[-0.1627069193927882,-0.01816789335030661]","[-1,-1,-1]","[-0.019919583028432282,-0.041177003180134786]","[-1,-1,-1]","[-0.09796956437580841,0.17094076192737379]","[-1,-1,-1]","[0.05480048249662373,-0.045537637800018786]","[1,1,1]","[0.10556433977565136,-0.03245884647479459]","[1,1,1]","[0.16373630229604333,-0.03564575656377119]","[-1,-1,-1]","[-0.06779420764682156,0.005858920196422688]","[1,1,1]","[-0.07173642888434248,-0.18249032628588166]","[1,1,1]","[-0.040672747596260515,0.09015741153667814]","[1,1,1]","[0.1123624130732938,0.12801399136301392]","[-1,-1,-1]","[0.12266526631612812,-0.11392835789888625]","[-1,-1,-1]","[-0.1857210557427696,-0.05429975973546142]","[1,1,1]","[-0.11882330277485156,-0.008254252714975374]","[-1,-1,-1]","[-0.15895612591457065,0.09446179389500099]","[1,1,1]","[0.0858287895858471,0.04262251359146159]","[-1,-1,-1]","[0.17420987444773944,0.08977911998020859]","[1,1,1]","[0.006819278875310561,0.17622806727901483]","[1,1,1]","[0.01805468504579673,-0.19249747772853756]","[1,1,1]","[0.02,0.02]",224.4142,0,12,12,39,1,,,,,,,
,,,,,,,67da6c21bcd71cf297d8db10,682f0fbccd7c08a2b7c6255c,2025-05-22_13h58.51.745,cuing_paradigm_dot,2024.1.5,Win32,59.88023952,682d573fa47f1360d1451895,,,,,,,,,,,224.4165,224.9141,,,225.1649,225.932,left,,,,,,,,0.9,,,,,,224.9143,225.1647,0.7363,,225.9323,"[0.15459181273074465,-0.09757799053101851]","[1,1,1]","[0.08770582966129882,0.13951465436482519]","[1,1,1]","[-0.15505023081147434,-0.004539867429504305]","[1,1,1]","[0.06551506769941369,0.09498842946809902]","[1,1,1]","[-0.14643857778996086,0.07449367672254684]","[1,1,1]","[-0.13971990390608102,0.13304977085388098]","[1,1,1]","[-0.06436054697758939,0.06785376083475246]","[1,1,1]","[0.11788151963992098,-0.11397765265510831]","[1,1,1]","[0.1195237875759441,0.025850098785524456]","[1,1,1]","[0.01353165970793119,0.12582294641105968]","[1,1,1]","[-0.04163201854284842,-0.1891854170025248]","[1,1,1]","[0.13116335099829668,-0.046667055051884516]","[1,1,1]","[0.13587618117168024,0.0884277622676844]","[1,1,1]","[0.06847966800473274,-0.020948978179559638]","[-1,-1,-1]","[0.018487882329519246,-0.12353661305027655]","[1,1,1]","[-0.12298367025358957,-0.09992383641927033]","[-1,-1,-1]","[-0.07126779357033286,-0.15114959475880407]","[1,1,1]","[0.019944111280464683,-0.006970362318646708]","[1,1,1]","[-0.054001951452179724,-0.10325902673207975]","[1,1,1]","[-0.11572949503592553,0.004326033813818816]","[-1,-1,-1]","[-0.16858456895708773,0.04072893218545636]","[1,1,1]","[-0.056419657572633494,0.11537410355679853]","[1,1,1]","[0.05539208502772836,-0.15991156172990956]","[1,1,1]","[0.010433529976583273,-0.18607118241821874]","[1,1,1]","[-0.02835095554251871,-0.04686107612446247]","[1,1,1]","[0.005742858221999412,0.0451754818281601]","[1,1,1]","[0.015881401480211346,-0.07962371009787013]","[1,1,1]","[0.049826687587164804,0.15674103416495985]","[1,1,1]","[0.04389130835860771,0.028409264027212187]","[1,1,1]","[-0.08661390923079913,0.1433848799447158]","[1,1,1]","[-0.03886919194188311,0.014324356823196573]","[1,1,1]","[-0.02011241595559367,0.09809892649261631]","[1,1,1]","[0.02,0.02]",227.0307,0,13,13,188,1,,,,,,,
,,,,,,,67da6c21bcd71cf297d8db10,682f0fbccd7c08a2b7c6255c,2025-05-22_13h58.51.745,cuing_paradigm_dot,2024.1.5,Win32,59.88023952,682d573fa47f1360d1451895,,,,,,,,,,,227.0322,227.5309,,,227.7883,228.7974,left,,,,,,,,0.55,,,,,,227.5313,227.7883,0.9959,,228.7976,"[0.18772420217436503,-0.03365653218837169]","[-1,-1,-1]","[0.004664849928124176,0.10384170149418591]","[-1,-1,-1]","[-0.043280125730276474,0.19512966842028562]","[1,1,1]","[0.0014637524865925733,-0.10950688434274089]","[-1,-1,-1]","[-0.07379348983512592,-0.09685489262627481]","[1,1,1]","[-0.15480201271863306,0.06136465296133463]","[-1,-1,-1]","[0.045099255994053726,-0.044164552134722854]","[1,1,1]","[0.006191022686060896,0.009116482235196949]","[1,1,1]","[0.06731877673136108,0.1678062882040369]","[1,1,1]","[-0.11310100345431223,-0.07995062501645103]","[-1,-1,-1]","[0.09488420935668819,-0.12663238017654252]","[1,1,1]","[0.07419235081701528,-0.16236141044033528]","[-1,-1,-1]","[-0.036235690004822324,0.07267680283565894]","[-1,-1,-1]","[-0.11313782468777418,0.1365309646747864]","[1,1,1]","[0.11507352369715461,-0.015634569052119074]","[1,1,1]","[0.09502807457085817,0.02929468369755391]","[-1,-1,-1]","[0.06971675491777897,0.06983276931515522]","[1,1,1]","[0.022710734424584433,-0.16646513207032773]","[-1,-1,-1]","[-0.09883640184322093,-0.15090429582784673]","[-1,-1,-1]","[0.04689654035715915,-0.10744166164545035]","[-1,-1,-1]","[0.18338464571424473,0.06346662052930806]","[1,1,1]","[-0.06265036170035546,0.10555556571882634]","[-1,-1,-1]","[-0.0742437300668101,-0.025368468548355345]","[1,1,1]","[0.08653277709954459,-0.07916792172289777]","[-1,-1,-1]","[-0.14661870190674933,-0.10915296836674138]","[1,1,1]","[0.12225358428373738,0.14951787510452538]","[1,1,1]","[0.13637965808987945,-0.12928409444731645]","[1,1,1]","[-0.020298840607397044,-0.14646326132970258]","[1,1,1]","[-0.1609595850799764,-0.04839932771227065]","[1,1,1]","[-0.08641243497977356,0.16814434886448773]","[-1,-1,-1]","[0.06699113827467112,-0.007929554869711445]","[1,1,1]","[0.13914527463023105,0.030378383303963415]","[1,1,1]","[0.02,0.02]",229.897,0,14,14,148,1,,,,,,,
,,,,,,,67da6c21bcd71cf297d8db10,682f0fbccd7c08a2b7c6255c,2025-05-22_13h58.51.745,cuing_paradigm_dot,2024.1.5,Win32,59.88023952,682d573fa47f1360d1451895,,,,,,,,,,,229.8986,230.3973,,,230.6375,231.4323,right,,,,,,,,0.45,,,,,,230.3977,230.6374,0.7852,,231.4326,"[-0.020077788890495565,-0.04866519814154149]","[1,1,1]","[0.19252228206284333,0.051187635241338424]","[-1,-1,-1]","[0.048514302093022404,0.16269462005910307]","[-1,-1,-1]","[-0.04841078853587974,0.14222595424093482]","[1,1,1]","[-0.17057078224308111,0.04516967982478067]","[-1,-1,-1]","[-0.1520795640007177,-0.07345107688845642]","[1,1,1]","[0.12756393069448818,-0.001840975031610081]","[1,1,1]","[0.0378553695849472,-0.14399509498518176]","[1,1,1]","[-0.06789641831997445,0.030721415904983652]","[-1,-1,-1]","[-0.1356690570525933,0.07279860368925195]","[-1,-1,-1]","[-0.05537700837816902,-0.1868050538173275]","[1,1,1]","[-0.08891943125540332,-0.15337094788411332]","[1,1,1]","[0.00006782836042206656,-0.09576413912140144]","[1,1,1]","[-0.14194331686972436,-0.006296182927925937]","[1,1,1]","[0.1631070269653284,-0.09367319660894882]","[1,1,1]","[0.09721274955246517,-0.08640779085070999]","[1,1,1]","[0.05561189913809048,0.02941915141049045]","[-1,-1,-1]","[-0.10703494308913244,0.1180113508249034]","[-1,-1,-1]","[0.1800190744033616,0.011555781521967947]","[-1,-1,-1]","[0.08208840222985837,-0.1573409459919483]","[-1,-1,-1]","[0.08160741017856758,0.11793193579890258]","[-1,-1,-1]","[0.07822241245456296,-0.04483141076123181]","[1,1,1]","[0.18827970114263126,-0.0458395200416111]","[-1,-1,-1]","[-0.0280168079934576,0.06842099955682766]","[-1,-1,-1]","[0.0036699415821637195,-0.00306482191136959]","[-1,-1,-1]","[0.03924823874559406,0.06592939140779844]","[-1,-1,-1]","[-0.017198751522718856,-0.1363284206574983]","[1,1,1]","[0.041157573599241215,-0.06727693701872584]","[-1,-1,-1]","[0.11216926104507215,0.15974614272769358]","[1,1,1]","[-0.008231320473681232,0.171776639157556]","[-1,-1,-1]","[0.09662763353271973,0.05956766103343443]","[-1,-1,-1]","[-0.18997584857383548,0.004755401999481765]","[-1,-1,-1]","[0.02,0.02]",232.5306,0,15,15,60,1,,,,,,,
,,,,,,,67da6c21bcd71cf297d8db10,682f0fbccd7c08a2b7c6255c,2025-05-22_13h58.51.745,cuing_paradigm_dot,2024.1.5,Win32,59.88023952,682d573fa47f1360d1451895,,,,,,,,,,,232.5324,233.0304,,,233.2817,234.0141,right,,,,,,,,0.1,,,,,,233.0306,233.2815,0.704,,234.0144,"[-0.023059975768519626,-0.09951788835502506]","[1,1,1]","[0.0637612347522703,-0.0972569602616726]","[-1,-1,-1]","[0.05123358493075861,-0.16843936724004047]","[-1,-1,-1]","[-0.14404779212452928,-0.11768375204169818]","[-1,-1,-1]","[-0.049578360191135415,0.1029721653829035]","[-1,-1,-1]","[0.08012891047426662,-0.023850116978721327]","[1,1,1]","[0.16565371563653655,0.1057137181242645]","[-1,-1,-1]","[-0.12855369532160257,0.11738065361112004]","[-1,-1,-1]","[0.10397495666209372,0.11200460679550345]","[-1,-1,-1]","[-0.06343748120122865,-0.15450802350411866]","[-1,-1,-1]","[0.1720991156681456,0.011967930851953334]","[-1,-1,-1]","[0.04476171858511089,0.11038586484725339]","[-1,-1,-1]","[-0.006546230385292153,0.09367492171163541]","[-1,-1,-1]","[0.12589682028378457,0.026433040688530828]","[-1,-1,-1]","[0.00771950926575741,-0.1473404969125227]","[-1,-1,-1]","[-0.18023628846084488,0.061738490371854235]","[-1,-1,-1]","[-0.09619021303324078,-0.03335843636116984]","[-1,-1,-1]","[0.012190285295545389,0.14003413150065425]","[-1,-1,-1]","[-0.10370688227103367,0.016442419416683184]","[-1,-1,-1]","[0.06277706037142369,0.14889050114512992]","[-1,-1,-1]","[-0.18723778188698878,-0.00001818614574577897]","[-1,-1,-1]","[-0.03963443154593512,-0.010091668654651864]","[-1,-1,-1]","[-0.1460158359973252,-0.041230284957421745]","[-1,-1,-1]","[-0.13985416741695544,0.0549135811543992]","[-1,-1,-1]","[0.11704263578047049,-0.13252758884887103]","[1,1,1]","[0.19329613900880316,0.04754448570590116]","[-1,-1,-1]","[0.13609082340860224,-0.09459441875197701]","[-1,-1,-1]","[-0.04498906099734329,0.04415446149721915]","[-1,-1,-1]","[-0.10788083528514408,-0.16517840862533478]","[-1,-1,-1]","[0.005480063808072931,-0.06909165310481596]","[-1,-1,-1]","[0.05963988161769659,0.04030850018859906]","[-1,-1,-1]","[0.03590809254468465,-0.03059700430961059]","[-1,-1,-1]","[0.02,0.02]",235.1138,0,16,16,17,1,,,,,,,
,,,,,,,67da6c21bcd71cf297d8db10,682f0fbccd7c08a2b7c6255c,2025-05-22_13h58.51.745,cuing_paradigm_dot,2024.1.5,Win32,59.88023952,682d573fa47f1360d1451895,,,,,,,,,,,235.116,235.6136,,,235.8551,237.1468,left,,,,,,,,0.5,,,,,,235.614,235.855,1.2784,,237.1471,"[-0.1136189283560079,0.01390098361216113]","[1,1,1]","[0.03604395018137097,-0.02781825462589249]","[1,1,1]","[-0.033124365552310464,-0.17207903451123727]","[-1,-1,-1]","[0.1071801201738245,0.1489254812926506]","[1,1,1]","[-0.1623192217312456,0.060650535193575134]","[-1,-1,-1]","[-0.13676702158301207,-0.04451125559831993]","[-1,-1,-1]","[0.10239173345567092,0.09490452307192365]","[-1,-1,-1]","[0.01895285970551202,-0.1454343868790969]","[-1,-1,-1]","[0.15977206792066345,-0.027258616538599366]","[1,1,1]","[-0.12007546457517945,0.06067738130834815]","[1,1,1]","[-0.11012269264185273,0.13962125575143855]","[-1,-1,-1]","[0.07767999022791269,-0.16902122551446985]","[-1,-1,-1]","[-0.11731212974317808,-0.12541427992140244]","[1,1,1]","[-0.045563551671633944,0.09087917092975402]","[1,1,1]","[-0.03909137095888414,-0.11734147691625241]","[-1,-1,-1]","[0.11691840721167214,0.03415964160964446]","[1,1,1]","[-0.05618218921568276,-0.042404454750681615]","[1,1,1]","[0.044935845570566055,0.10898633499274288]","[-1,-1,-1]","[0.15629902177177077,0.12070190063931183]","[1,1,1]","[0.04144529244936161,-0.10324236351658164]","[1,1,1]","[-0.09246972543302252,-0.0806984578183168]","[-1,-1,-1]","[0.10282354834387858,-0.126937681990075]","[1,1,1]","[-0.09121428620180153,-0.17345224137175963]","[-1,-1,-1]","[-0.040721775914106646,-0.0037699501471032495]","[-1,-1,-1]","[0.02783037715437151,0.04457720820044124]","[-1,-1,-1]","[-0.04391081520347008,0.1866604294676895]","[1,1,1]","[0.0689350408217355,-0.05109829301880846]","[-1,-1,-1]","[0.0413693765562417,0.16567759950072555]","[1,1,1]","[0.16541832593423128,0.039464254154361174]","[-1,-1,-1]","[-0.16409221817274605,0.004295383134802723]","[1,1,1]","[0.15125853635308095,-0.08206963814352564]","[-1,-1,-1]","[-0.0025872325497066045,-0.07185183447058303]","[1,1,1]","[0.02,0.02]",238.2478,0,17,17,95,1,,,,,,,
,,,,,,,67da6c21bcd71cf297d8db10,682f0fbccd7c08a2b7c6255c,2025-05-22_13h58.51.745,cuing_paradigm_dot,2024.1.5,Win32,59.88023952,682d573fa47f1360d1451895,,,,,,,,,,,238.2493,238.7475,,,238.9882,239.7991,right,,,,,,,,0.45,,,,,,238.7477,238.9879,0.786,,239.7993,"[0.12749993594987047,-0.0680146045654718]","[1,1,1]","[0.07902841570567598,-0.11786807228147554]","[1,1,1]","[0.057532712044817406,0.16660872612508978]","[-1,-1,-1]","[-0.05702417946696626,0.08354844140798853]","[1,1,1]","[-0.11545701470699214,-0.16036760008696785]","[-1,-1,-1]","[-0.011437354516003766,-0.01616496744226611]","[1,1,1]","[0.09581284969802968,0.09848808079631433]","[1,1,1]","[-0.07824309315254253,0.02355017707163251]","[-1,-1,-1]","[-0.13900532156601803,-0.08299710803790838]","[-1,-1,-1]","[0.18703573402803791,-0.045382112430238035]","[-1,-1,-1]","[-0.04018928057747963,-0.13766700785412864]","[1,1,1]","[0.159172855353289,0.10060880410381813]","[-1,-1,-1]","[0.054045865613364046,0.03366078114766185]","[1,1,1]","[0.1311109584746345,-0.015876815068673014]","[1,1,1]","[-0.11262972988322428,0.10920462461263261]","[-1,-1,-1]","[0.06896612824602306,-0.04587421461361355]","[-1,-1,-1]","[-0.06327817560695699,-0.10239060572365843]","[1,1,1]","[0.05354895442547713,-0.16427767422891257]","[1,1,1]","[0.0050510126984936,0.11198904207383482]","[1,1,1]","[-0.18843829050775654,0.036910953250376695]","[-1,-1,-1]","[-0.16385435193242665,-0.019931256221311776]","[-1,-1,-1]","[-0.047892356750717326,0.14359842106427273]","[1,1,1]","[-0.09761109013481542,-0.03835429636969335]","[-1,-1,-1]","[0.03738645186607142,-0.12230342423278022]","[-1,-1,-1]","[0.029279310354011184,-0.033187139037741425]","[1,1,1]","[0.0017453770057805891,-0.09834788484351661]","[-1,-1,-1]","[-0.13221732190899319,0.020893992889611294]","[-1,-1,-1]","[0.19459861354305336,0.02908803092257111]","[1,1,1]","[0.012798494342685955,0.15642652770140622]","[-1,-1,-1]","[0.14113684075245445,-0.13032260552256011]","[-1,-1,-1]","[0.1297543668031008,0.0460660537466102]","[-1,-1,-1]","[-0.13035900490795113,0.14723678053949163]","[-1,-1,-1]","[0.02,0.02]",240.8974,0,18,18,85,1,,,,,,,
,,,,,,,67da6c21bcd71cf297d8db10,682f0fbccd7c08a2b7c6255c,2025-05-22_13h58.51.745,cuing_paradigm_dot,2024.1.5,Win32,59.88023952,682d573fa47f1360d1451895,,,,,,,,,,,240.8991,241.4039,,,241.65,243.1477,,,,,,,,,0.5,,,,,,241.4041,241.6499,,,243.1481,"[-0.06379342520760733,-0.1294368343027959]","[1,1,1]","[0.026113718072994396,0.04312924547334515]","[-1,-1,-1]","[0.08443949659615801,0.05600358600971139]","[1,1,1]","[0.11482135019463988,0.15124017415929542]","[-1,-1,-1]","[0.09267688073400744,-0.1685364701997227]","[1,1,1]","[-0.03817419686391603,0.06787185233797582]","[-1,-1,-1]","[-0.003614715876506793,0.14172771477505747]","[1,1,1]","[-0.024327354566352634,0.18726371448182874]","[-1,-1,-1]","[0.049765091726351296,0.12572857999091214]","[-1,-1,-1]","[-0.1759740014683543,-0.00439450665402573]","[1,1,1]","[-0.07046455772058964,0.1355896788802441]","[-1,-1,-1]","[0.01981096388724275,0.18040345465173035]","[1,1,1]","[-0.12776427310454622,-0.0895790898690778]","[-1,-1,-1]","[-0.1523479588582855,0.09079050804660407]","[1,1,1]","[-0.10134471610970772,-0.006103174236976021]","[1,1,1]","[-0.04990533074829801,-0.1893506610772026]","[1,1,1]","[0.014744997667098525,-0.0804098026268833]","[1,1,1]","[-0.0429411075569981,-0.02442767153901333]","[-1,-1,-1]","[0.09696594795274222,-0.04637354177221702]","[-1,-1,-1]","[0.05956914897337443,-0.06809734791718314]","[1,1,1]","[-0.056046680663658456,-0.07328866064481952]","[1,1,1]","[-0.011752035528659985,-0.11542925236209163]","[1,1,1]","[0.06070509763016496,0.004875791949487584]","[-1,-1,-1]","[-0.07770736589366475,0.03479244855839452]","[-1,-1,-1]","[-0.18427981173869867,0.04897244857216283]","[1,1,1]","[0.1328483924238865,-0.09529670303119667]","[1,1,1]","[0.13365281312165725,0.04997043224992695]","[-1,-1,-1]","[0.17714546215321234,0.01643011559932215]","[1,1,1]","[0.18545478591142806,0.07441824349031312]","[-1,-1,-1]","[0.17594219922898469,-0.051331010310084496]","[-1,-1,-1]","[0.03477892260609579,-0.13987368342992698]","[-1,-1,-1]","[0.14377300980674904,0.12123713050899274]","[-1,-1,-1]","[0.02,0.02]",244.2481,0,19,19,102,1,,,,,,,
,,,,,,,67da6c21bcd71cf297d8db10,682f0fbccd7c08a2b7c6255c,2025-05-22_13h58.51.745,cuing_paradigm_dot,2024.1.5,Win32,59.88023952,682d573fa47f1360d1451895,,,,,,,,,,,244.2496,244.7556,,,244.9985,246.147,left,,,,,,,,0.9,,,,,,244.7556,244.9984,1.1189,,246.1473,"[0.13923785227964264,-0.00000496482170053358]","[1,1,1]","[0.03664835736178334,-0.11763543462037768]","[1,1,1]","[-0.16557139041076924,0.11183785184071139]","[1,1,1]","[0.08239542777326182,0.07597166461825923]","[1,1,1]","[0.17565261809010918,0.0657094135555773]","[1,1,1]","[0.009416154131928372,-0.05801996873215156]","[1,1,1]","[0.13844724989228366,-0.07314442147905766]","[1,1,1]","[-0.11729680425730922,0.12533250015838676]","[1,1,1]","[0.16840010052046345,-0.03689512721223608]","[1,1,1]","[0.023506863348896234,0.045575109533079035]","[1,1,1]","[-0.013888886796216965,0.11669964229749445]","[1,1,1]","[-0.19701795107784542,0.018517136003003268]","[1,1,1]","[-0.08915427037306631,0.009836853028793283]","[1,1,1]","[-0.06210590094287513,0.08402453976307125]","[1,1,1]","[-0.052283694708423006,-0.05303545085270187]","[1,1,1]","[-0.061470730414124625,0.12538007654378155]","[-1,-1,-1]","[0.08135356150079052,-0.02267261231482774]","[-1,-1,-1]","[-0.10883253461837873,-0.1377167819362151]","[1,1,1]","[-0.1575090244740319,-0.11699516878687778]","[1,1,1]","[-0.0950259576986457,-0.09174537513541133]","[1,1,1]","[-0.06854216395665066,-0.17475834298302437]","[1,1,1]","[-0.09543425211661315,-0.035933685564719806]","[1,1,1]","[-0.13449804988388514,-0.07504434037729224]","[1,1,1]","[-0.01025001876819627,0.18276616412126742]","[1,1,1]","[0.0996595237972849,0.1299163186750326]","[1,1,1]","[-0.04029265623032218,0.019408599633478338]","[-1,-1,-1]","[0.037368558164653405,0.12618557100863276]","[1,1,1]","[0.035869953465519015,-0.014303711263912597]","[1,1,1]","[0.14540875242158213,-0.1257148992218134]","[1,1,1]","[0.10621214883842148,-0.10169377448643534]","[1,1,1]","[0.03171706011994538,0.1745914822032921]","[1,1,1]","[0.1220629831215808,0.047369874794904496]","[1,1,1]","[0.02,0.02]",247.2386,0,20,20,181,1,,,,,,,
,,,,,,,67da6c21bcd71cf297d8db10,682f0fbccd7c08a2b7c6255c,2025-05-22_13h58.51.745,cuing_paradigm_dot,2024.1.5,Win32,59.88023952,682d573fa47f1360d1451895,,,,,,,,,,,247.2398,247.7309,,,247.972,249.4733,,,,,,,,,0.5,,,,,,247.7311,247.972,,,249.4734,"[-0.11354261410511365,-0.08229791554488046]","[-1,-1,-1]","[0.05881767855538848,0.07633230950526815]","[-1,-1,-1]","[-0.14614430517698573,-0.0287631371231356]","[1,1,1]","[0.051261422884474515,-0.08568039484353676]","[1,1,1]","[0.13394216359227495,-0.03323789483685338]","[-1,-1,-1]","[-0.12617807152672872,0.01631209872022262]","[1,1,1]","[-0.047602111244134805,-0.017473728113591706]","[1,1,1]","[0.181662988382732,0.02119291485460442]","[1,1,1]","[-0.02227304332369143,0.09032170040368193]","[-1,-1,-1]","[0.09879362310764764,-0.13261596005945958]","[-1,-1,-1]","[-0.061576782418839175,0.03291057516022754]","[1,1,1]","[-0.17611718122962755,0.025218156845530845]","[-1,-1,-1]","[0.002426631222020377,0.18067470487214232]","[1,1,1]","[-0.1702267553460042,0.09947216264583071]","[1,1,1]","[0.15094376484140895,-0.09703633859954401]","[-1,-1,-1]","[0.09280081900910729,0.04580314692675757]","[-1,-1,-1]","[0.1635331451475154,0.06918524036192074]","[1,1,1]","[0.08161557509347277,0.11225816965568823]","[1,1,1]","[0.12008824526047929,0.15414267790768693]","[1,1,1]","[0.03320165882614055,-0.16564128111061371]","[-1,-1,-1]","[-0.047289854038156054,-0.16936655558195227]","[1,1,1]","[0.0046300559310817535,0.12573992747587945]","[-1,-1,-1]","[-0.037250821792177605,-0.09570133900823567]","[-1,-1,-1]","[-0.08205951562567504,0.12740350399795472]","[-1,-1,-1]","[-0.08494558439351754,0.08464230931028414]","[1,1,1]","[-0.10936128440310404,-0.1239693252950736]","[-1,-1,-1]","[0.02210818780930772,0.010709807596071392]","[-1,-1,-1]","[0.001539927019734967,-0.11720407925700385]","[1,1,1]","[-0.09419641741716901,-0.022545500984850236]","[1,1,1]","[0.14208089943361116,0.116619477889506]","[-1,-1,-1]","[0.07244202024164344,0.16919761538088862]","[1,1,1]","[-0.08828088758607479,-0.17245938315955706]","[-1,-1,-1]","[0.02,0.02]",250.5635,0,21,21,119,1,,,,,,,
,,,,,,,67da6c21bcd71cf297d8db10,682f0fbccd7c08a2b7c6255c,2025-05-22_13h58.51.745,cuing_paradigm_dot,2024.1.5,Win32,59.88023952,682d573fa47f1360d1451895,,,,,,,,,,,250.5652,251.0638,,,251.3212,252.097,left,,,,,,,,0.9,,,,,,251.0641,251.321,0.7523,,252.0974,"[-0.18372261811919358,-0.05992119089157598]","[-1,-1,-1]","[0.07964052904405161,0.05896755065620533]","[1,1,1]","[0.11320803717752503,-0.05967259536273564]","[1,1,1]","[0.1461187814817069,0.12333184970268639]","[1,1,1]","[-0.14277909803692596,-0.047186941090873354]","[-1,-1,-1]","[0.1767606156497766,0.028485341691886903]","[1,1,1]","[0.07109252721116821,-0.029216066379643336]","[1,1,1]","[0.004445089180889857,-0.1311723208512013]","[1,1,1]","[-0.18466158595627008,0.07053494723719089]","[1,1,1]","[-0.08303054276025226,0.042013317421303494]","[1,1,1]","[0.07956512684967797,0.1031325180673911]","[1,1,1]","[0.039066816539067926,-0.15381763339250737]","[1,1,1]","[-0.09105363124210136,-0.11881631127966884]","[1,1,1]","[-0.0290677844245556,-0.07148738020857034]","[1,1,1]","[-0.13200785831358777,0.14858605216539872]","[1,1,1]","[-0.0702797161555372,-0.170126904551857]","[1,1,1]","[-0.08109658961296702,0.18060781337743192]","[1,1,1]","[-0.04182743481741287,-0.028147830901659534]","[1,1,1]","[-0.18214942473281087,0.0235473160681103]","[1,1,1]","[0.03821040662882195,0.16084779335770144]","[1,1,1]","[0.051967180423814055,-0.10357416540118569]","[1,1,1]","[0.004110205026190113,0.18916450150831804]","[1,1,1]","[0.10110141282634831,-0.11924412498854031]","[-1,-1,-1]","[-0.13785974227047762,0.023034930425854427]","[1,1,1]","[-0.0014130216011476518,-0.02189405193365374]","[1,1,1]","[0.023884110751716238,-0.19197422788296095]","[1,1,1]","[0.08153848442222875,-0.17299937843578964]","[1,1,1]","[0.16446536743356932,-0.04945519827430683]","[1,1,1]","[0.012524699300799589,0.11108669117944751]","[1,1,1]","[0.009322982254655962,0.025465049380615258]","[1,1,1]","[-0.14050382990860333,-0.11800706371968368]","[1,1,1]","[0.0177637802389931,-0.06704527936287237]","[1,1,1]","[0.02,0.02]",253.1967,0,22,22,190,1,,,,,,,
,,,,,,,67da6c21bcd71cf297d8db10,682f0fbccd7c08a2b7c6255c,2025-05-22_13h58.51.745,cuing_paradigm_dot,2024.1.5,Win32,59.88023952,682d573fa47f1360d1451895,,,,,,,,,,,253.1982,253.6973,,,253.9488,254.5788,left,,,,,,,,0.9,,,,,,253.6977,253.9487,0.6058,,254.579,"[-0.06342134510045881,-0.17885927806812407]","[1,1,1]","[0.06223595754715975,0.11843805490462439]","[1,1,1]","[-0.06742589251269496,-0.08542865680591614]","[1,1,1]","[-0.11199883569505546,-0.06567347397397508]","[1,1,1]","[-0.1295345122522358,0.1520887201718149]","[-1,-1,-1]","[0.02242795449131241,0.17747976230470466]","[1,1,1]","[0.07307627470083931,-0.14363410890513484]","[1,1,1]","[-0.16677913534606212,-0.07497840007692595]","[-1,-1,-1]","[-0.04844227383532951,0.1807408865013143]","[1,1,1]","[0.18940956349744367,-0.01801663920482758]","[1,1,1]","[0.01585269053153192,0.13674234218267087]","[1,1,1]","[-0.06585964163736725,0.06329045663705075]","[1,1,1]","[0.16539976359698866,-0.097145953475253]","[1,1,1]","[0.0981768601569434,0.04074087516886046]","[1,1,1]","[0.06745599685218677,-0.09256376782325573]","[1,1,1]","[0.03890241867911209,0.01930752235938765]","[1,1,1]","[0.10183258011674577,-0.006696147486901788]","[1,1,1]","[0.011785021166897103,-0.0685135143207257]","[1,1,1]","[-0.13487286403872378,-0.007760411525099715]","[1,1,1]","[-0.10454546483771915,0.11532508985554232]","[1,1,1]","[-0.1499986119310119,0.10773005889501362]","[1,1,1]","[0.018498467713806994,-0.18936082130431772]","[1,1,1]","[-0.008173235993029089,-0.1355133449457943]","[1,1,1]","[-0.006580876953793102,0.028844775897136226]","[1,1,1]","[-0.06077024793537475,0.11852770438734227]","[1,1,1]","[0.0017056148380831578,0.09039076679004658]","[1,1,1]","[-0.09897335644866857,-0.025768491849052288]","[1,1,1]","[0.10450785559645258,-0.06804642609878543]","[1,1,1]","[0.04812852737929487,-0.02817868265431697]","[1,1,1]","[0.11732487599503515,-0.10878213164994817]","[1,1,1]","[-0.04151627307589296,-0.01006797206359493]","[1,1,1]","[-0.1162040919509003,0.054779610639891285]","[-1,-1,-1]","[0.02,0.02]",255.6811,0,23,23,191,1,,,,,,,
,,,,,,,67da6c21bcd71cf297d8db10,682f0fbccd7c08a2b7c6255c,2025-05-22_13h58.51.745,cuing_paradigm_dot,2024.1.5,Win32,59.88023952,682d573fa47f1360d1451895,,,,,,,,,,,255.6856,256.18,,,256.4383,257.4472,right,,,,,,,,0.5,,,,,,256.1802,256.4382,0.9863,,257.4476,"[0.09899796103573996,0.12736817734474093]","[-1,-1,-1]","[-0.049065431997545095,-0.12091238067016924]","[1,1,1]","[-0.12407283881934926,0.10688997701977546]","[1,1,1]","[0.1494402298824265,0.02915225872732304]","[-1,-1,-1]","[0.004951163459911535,-0.09764373086515137]","[-1,-1,-1]","[0.04984951027511191,0.009474967376734408]","[-1,-1,-1]","[0.023841435330620987,0.12402381006707817]","[1,1,1]","[0.07279064606907369,-0.11799951558673746]","[-1,-1,-1]","[-0.042675195955626126,0.022431102234795913]","[1,1,1]","[0.015433470023225591,-0.030974040351320564]","[-1,-1,-1]","[-0.026142729591114435,-0.03360424694903314]","[-1,-1,-1]","[-0.12439942478066923,-0.09511748745156268]","[-1,-1,-1]","[-0.03184659784495659,0.18004146042460906]","[1,1,1]","[-0.1591246407228288,-0.056299270645614935]","[-1,-1,-1]","[0.14256178879659567,-0.054452119564639]","[-1,-1,-1]","[-0.10823222528359644,0.1482511394971309]","[1,1,1]","[0.06945775564214524,0.08639421695073773]","[-1,-1,-1]","[0.041219107063197154,-0.18139825338119206]","[1,1,1]","[-0.10005404189545736,-0.1371405713987597]","[-1,-1,-1]","[-0.05143401351276075,0.12853303329551793]","[1,1,1]","[-0.05305037678307772,-0.19172710689661604]","[1,1,1]","[0.16804580356868012,0.07069327567849197]","[1,1,1]","[-0.015243715462586955,0.06834959769037838]","[-1,-1,-1]","[0.0987624348321872,-0.06283680963839923]","[1,1,1]","[0.009084020310299529,0.03051380019906428]","[1,1,1]","[-0.11506545732478371,0.041434725765925495]","[1,1,1]","[0.19647491580802717,-0.033323535265061904]","[-1,-1,-1]","[0.1155716365217885,0.0529319432130335]","[1,1,1]","[-0.05061037259423643,-0.07580891732912079]","[1,1,1]","[0.14984402103561842,-0.12285944377607275]","[1,1,1]","[-0.17183015038621743,0.09796571239459301]","[-1,-1,-1]","[0.0640292713790611,0.18393855364284722]","[-1,-1,-1]","[0.02,0.02]",258.5463,0,24,24,112,1,,,,,,,
,,,,,,,67da6c21bcd71cf297d8db10,682f0fbccd7c08a2b7c6255c,2025-05-22_13h58.51.745,cuing_paradigm_dot,2024.1.5,Win32,59.88023952,682d573fa47f1360d1451895,,,,,,,,,,,258.5482,259.0461,,,259.3044,260.4809,left,,,,,,,,0.55,,,,,,259.0463,259.3044,1.1537,,260.4812,"[0.12921017664943482,0.13140975976941957]","[1,1,1]","[-0.01507512361930476,-0.08700141667284661]","[1,1,1]","[0.01527107608096335,0.1830594288184856]","[-1,-1,-1]","[0.007986102552467542,0.008813642622658527]","[1,1,1]","[0.17660256800085256,-0.07680222367141662]","[1,1,1]","[-0.15705198755630972,-0.07087290213813206]","[-1,-1,-1]","[0.12017262304645757,0.033080522431028894]","[-1,-1,-1]","[0.034293018735723595,-0.11122639259117273]","[-1,-1,-1]","[0.004332766239548567,-0.17935141785958042]","[1,1,1]","[-0.1773643349419422,0.023319761537490317]","[1,1,1]","[0.14134692726500236,-0.046307882715219524]","[1,1,1]","[-0.10297038032282044,-0.12778850548827667]","[-1,-1,-1]","[-0.09866367595817417,0.14339542245430192]","[-1,-1,-1]","[0.08793708880582778,0.14996337521891473]","[-1,-1,-1]","[0.09355058763438596,-0.06979930886343784]","[1,1,1]","[-0.06399442540311288,0.051175506459148035]","[1,1,1]","[0.1262664754894865,-0.11602628575972336]","[-1,-1,-1]","[0.18886515676319754,0.007679935372973946]","[1,1,1]","[0.07681355762467991,0.10361712477819951]","[1,1,1]","[-0.04628363192614501,-0.1527356951101211]","[1,1,1]","[0.07209883635557082,0.05414780313201661]","[-1,-1,-1]","[-0.05659735873747683,0.1898195392014838]","[1,1,1]","[-0.0369816516876005,-0.19352321527931296]","[-1,-1,-1]","[-0.06242651894235398,-0.03175209893467312]","[1,1,1]","[-0.10029115761007172,0.03020420964878928]","[1,1,1]","[0.1000238711524419,-0.14798702727896806]","[-1,-1,-1]","[0.061847269873400695,-0.009069324155283687]","[-1,-1,-1]","[-0.07980661670231745,-0.08473654988805546]","[1,1,1]","[-0.12581869895045997,-0.045696868381529566]","[1,1,1]","[0.016210625962126066,0.1207716615990243]","[-1,-1,-1]","[-0.000689060795627534,-0.037492702279246906]","[-1,-1,-1]","[-0.1141221369947284,0.06858206361891074]","[1,1,1]","[0.02,0.02]",261.5797,0,25,25,135,1,,,,,,,
,,,,,,,67da6c21bcd71cf297d8db10,682f0fbccd7c08a2b7c6255c,2025-05-22_13h58.51.745,cuing_paradigm_dot,2024.1.5,Win32,59.88023952,682d573fa47f1360d1451895,,,,,,,,,,,261.5812,262.0878,,,262.3363,263.3132,right,,,,,,,,0.1,,,,,,262.0878,262.3363,0.9636,,263.3134,"[0.024504536689926467,-0.16715178976261558]","[-1,-1,-1]","[-0.037666145460009855,0.06433243185229885]","[-1,-1,-1]","[0.04472911145816889,-0.10918495812476442]","[1,1,1]","[-0.10676372922112069,-0.1340142086750233]","[1,1,1]","[0.12844559058746657,0.0652719599862068]","[-1,-1,-1]","[0.01632506576267915,0.0881853216950043]","[-1,-1,-1]","[0.08619460369363356,0.058910852209887336]","[-1,-1,-1]","[-0.14425288622853083,-0.02583974188059425]","[-1,-1,-1]","[0.10023157417013545,0.16908985832027393]","[-1,-1,-1]","[-0.08974056698953828,0.01837857709063412]","[-1,-1,-1]","[-0.033569519429172606,-0.1352059580591512]","[-1,-1,-1]","[0.1819406522169772,-0.020517980257876902]","[-1,-1,-1]","[-0.07682697830895382,0.12360969138121268]","[-1,-1,-1]","[0.058083313643046905,0.006713685205454132]","[-1,-1,-1]","[-0.1595537877850781,0.039512161685571964]","[-1,-1,-1]","[-0.03224717641537706,-0.06094470034385956]","[-1,-1,-1]","[0.1363348034762641,-0.12747520715340968]","[-1,-1,-1]","[-0.03128460658786745,0.1835134032496069]","[-1,-1,-1]","[-0.08774876924288567,-0.09218066985753427]","[-1,-1,-1]","[0.14261796570925095,0.12973805601304042]","[-1,-1,-1]","[-0.12424598108977247,0.08507463826353173]","[-1,-1,-1]","[-0.046649022736462174,-0.00254355482113966]","[-1,-1,-1]","[0.00247073825363211,-0.02203148013745334]","[-1,-1,-1]","[0.06277641115041555,0.10186496301122978]","[-1,-1,-1]","[-0.04598797076330525,-0.18475131768510725]","[-1,-1,-1]","[0.17117601681404515,0.07117556431166186]","[-1,-1,-1]","[0.06250135122203768,-0.17991096150664201]","[-1,-1,-1]","[0.01810548192413723,0.02727714777007239]","[-1,-1,-1]","[0.0830912585794903,-0.03539149175753716]","[1,1,1]","[0.18351218971022173,0.030163865941728096]","[-1,-1,-1]","[-0.11713492715442847,0.13263621348397223]","[-1,-1,-1]","[0.000934950950768844,0.14143388540961335]","[-1,-1,-1]","[0.02,0.02]",264.4044,0,26,26,14,1,,,,,,,
,,,,,,,67da6c21bcd71cf297d8db10,682f0fbccd7c08a2b7c6255c,2025-05-22_13h58.51.745,cuing_paradigm_dot,2024.1.5,Win32,59.88023952,682d573fa47f1360d1451895,,,,,,,,,,,264.4049,264.8966,,,265.1356,266.3804,left,,,,,,,,0.55,,,,,,264.8968,265.1356,1.2316,,266.3807,"[-0.06998155676441642,-0.0588543401633534]","[-1,-1,-1]","[0.0596300046982854,0.1847171925399517]","[1,1,1]","[0.032571282677051505,-0.10969872951197877]","[1,1,1]","[0.1344393599006177,-0.09170839472070713]","[-1,-1,-1]","[0.015352231709213392,0.10989254961967874]","[1,1,1]","[-0.09395757089724222,0.1467623656922343]","[-1,-1,-1]","[0.07345874988155349,0.0676259495769635]","[1,1,1]","[-0.16698512911973037,0.07357992848284418]","[1,1,1]","[-0.07381599666424245,-0.1348976108750378]","[1,1,1]","[-0.019816989735792396,0.03594388877996529]","[1,1,1]","[-0.10229044857873576,0.003968341958574533]","[-1,-1,-1]","[0.09619137965686043,0.13659167914213668]","[-1,-1,-1]","[0.1828104986965482,-0.0751921931493592]","[-1,-1,-1]","[0.05893050917833819,-0.027704795029039785]","[-1,-1,-1]","[0.14472832317455336,0.032604656278341304]","[-1,-1,-1]","[0.022660639270518538,0.051015641475273536]","[1,1,1]","[-0.0142420305864481,-0.08221436080736946]","[1,1,1]","[-0.037644649657806194,-0.19538295701237748]","[1,1,1]","[-0.157786476417249,-0.0800370853193154]","[-1,-1,-1]","[-0.08049385909628194,0.06141597392392211]","[-1,-1,-1]","[0.01085745684566482,-0.040295389474562376]","[1,1,1]","[-0.03558063634322916,0.19182572826806774]","[1,1,1]","[-0.11778140033748608,-0.0373329129603252]","[-1,-1,-1]","[-0.09936641055368742,-0.09621325539020295]","[1,1,1]","[0.01908300701224163,0.17145118770898124]","[-1,-1,-1]","[0.13893757927191358,-0.0071504259257595985]","[1,1,1]","[0.004115389898968892,-0.19654566288436165]","[-1,-1,-1]","[-0.042023523380319144,0.14572764449672454]","[1,1,1]","[0.11894922768599309,0.08903824347675657]","[1,1,1]","[-0.16492320548223502,0.030206110689737078]","[1,1,1]","[-0.031656660700541184,0.07781725640675331]","[1,1,1]","[0.11487562861248142,-0.04197324234966587]","[-1,-1,-1]","[0.02,0.02]",267.4804,0,27,27,124,1,,,,,,,
,,,,,,,67da6c21bcd71cf297d8db10,682f0fbccd7c08a2b7c6255c,2025-05-22_13h58.51.745,cuing_paradigm_dot,2024.1.5,Win32,59.88023952,682d573fa47f1360d1451895,,,,,,,,,,,267.4819,267.9875,,,268.2373,269.3298,left,,,,,,,,0.45,,,,,,267.9875,268.2372,1.0827,,269.3301,"[0.16853842559520366,-0.10583332908915176]","[-1,-1,-1]","[-0.12586502256462279,-0.12980752476306953]","[-1,-1,-1]","[0.04170629995755311,0.06371086078143158]","[-1,-1,-1]","[0.11808316468359834,-0.07192724296952113]","[-1,-1,-1]","[-0.11783902416392004,0.013074463886428947]","[-1,-1,-1]","[-0.15249428068022583,0.10655500052528316]","[-1,-1,-1]","[0.03822895127627595,-0.14592651461831388]","[1,1,1]","[0.010129717310456629,-0.04656274223538219]","[1,1,1]","[-0.059938248755805945,0.047101692624847695]","[-1,-1,-1]","[-0.021696707807705082,-0.004612349489063445]","[-1,-1,-1]","[-0.12025350700613834,0.13655004032023021]","[-1,-1,-1]","[-0.01982394501551328,0.057079672386642764]","[1,1,1]","[0.09318629172537718,0.09258923624912585]","[-1,-1,-1]","[0.08553223348884526,-0.10308884235596644]","[-1,-1,-1]","[0.018430613806504282,0.11847839034974521]","[-1,-1,-1]","[-0.07617654868517071,-0.07772249768200623]","[1,1,1]","[-0.12793439678556312,-0.0691337187846008]","[1,1,1]","[0.12819692211303993,0.032807964885137805]","[-1,-1,-1]","[-0.049604651218825235,-0.11779994233291995]","[1,1,1]","[-0.12578955460617983,0.06300336657394147]","[1,1,1]","[-0.03744298781297093,0.1288381948450077]","[1,1,1]","[0.06822792769619804,0.16321845311590788]","[1,1,1]","[-0.06170941893108904,0.09238070126031438]","[-1,-1,-1]","[0.16639086297845862,-0.0007314248543988177]","[-1,-1,-1]","[-0.08427058287857087,-0.037086754915276]","[1,1,1]","[0.03200162028897081,-0.0950961980522676]","[-1,-1,-1]","[-0.1825526551210502,-0.02777697060859316]","[1,1,1]","[0.038992381801560796,-0.009677958158826027]","[-1,-1,-1]","[-0.045777938374006996,-0.17308797540204654]","[-1,-1,-1]","[0.13870269523938292,-0.1426144524601085]","[1,1,1]","[0.10061261312919755,-0.03354650934299431]","[1,1,1]","[-0.1667414021095208,0.0562478018975492]","[1,1,1]","[0.02,0.02]",270.4298,0,28,28,87,1,,,,,,,
,,,,,,,67da6c21bcd71cf297d8db10,682f0fbccd7c08a2b7c6255c,2025-05-22_13h58.51.745,cuing_paradigm_dot,2024.1.5,Win32,59.88023952,682d573fa47f1360d1451895,,,,,,,,,,,270.4313,270.9306,,,271.1875,272.5966,left,,,,,,,,0.5,,,,,,270.9309,271.1875,1.3954,,272.597,"[-0.021916057071056785,0.0492215735616953]","[-1,-1,-1]","[-0.0871036040525513,-0.10708498911499595]","[-1,-1,-1]","[0.055473998371402634,-0.15253512912017175]","[-1,-1,-1]","[0.020363582386035056,0.1966552599398109]","[1,1,1]","[0.03018203265457137,0.030820694586537134]","[-1,-1,-1]","[0.11200752578884143,0.04743387559562842]","[-1,-1,-1]","[-0.06288695608657355,0.13073625488592588]","[-1,-1,-1]","[-0.13772468128078474,-0.12016155476476925]","[1,1,1]","[-0.18609957302204208,-0.06931954965939154]","[1,1,1]","[0.07167835937478736,0.11728322296792693]","[1,1,1]","[0.012831785616501976,-0.1756195822415671]","[1,1,1]","[0.07583472610584054,-0.0921117895250037]","[-1,-1,-1]","[0.018597839411255986,0.13403202186482363]","[-1,-1,-1]","[-0.1287454038277154,0.002901247633659906]","[1,1,1]","[0.015303316211949303,-0.02922725799369109]","[-1,-1,-1]","[0.15509802794682317,0.021385116499252305]","[1,1,1]","[-0.1315672437117576,-0.054976284696932276]","[-1,-1,-1]","[0.03392459583283051,0.07958716626556382]","[-1,-1,-1]","[0.0940433319301847,-0.0026433108056175387]","[1,1,1]","[-0.031310855574599845,-0.1299635975704423]","[-1,-1,-1]","[0.17554385170242678,0.06662963023725539]","[-1,-1,-1]","[-0.13579219730097644,0.09294974664037327]","[1,1,1]","[0.13658199905519347,-0.061492282220409256]","[-1,-1,-1]","[0.07513571236789836,0.07212126046182372]","[1,1,1]","[-0.0296815175762657,-0.05517760364171449]","[1,1,1]","[-0.10741859824633947,0.15406570742719397]","[-1,-1,-1]","[-0.08928716362480159,-0.03236091199487299]","[1,1,1]","[0.18483542162787236,-0.048034237946240045]","[1,1,1]","[0.09372020966981034,-0.13642501346852198]","[-1,-1,-1]","[-0.15146849081587743,0.04704052116175265]","[1,1,1]","[-0.18283891059684418,0.07963275871518827]","[1,1,1]","[-0.178039798710661,0.01102527986758022]","[1,1,1]","[0.02,0.02]",273.6968,0,29,29,97,1,,,,,,,
,,,,,,,67da6c21bcd71cf297d8db10,682f0fbccd7c08a2b7c6255c,2025-05-22_13h58.51.745,cuing_paradigm_dot,2024.1.5,Win32,59.88023952,682d573fa47f1360d1451895,,,,,,,,,,,273.6985,274.1881,,,274.4311,275.4979,left,,,,,,,,0.55,,,,,,274.1883,274.4309,1.0359,,275.4981,"[0.0016168619556035393,0.13065124293150726]","[-1,-1,-1]","[0.04401679627057354,-0.1094457862293063]","[1,1,1]","[0.13864288400904912,0.054739840017100035]","[-1,-1,-1]","[-0.12668524375570278,0.01720455436876749]","[1,1,1]","[-0.033972136183582816,0.10059010378444302]","[1,1,1]","[-0.05020878349730357,-0.0548446794132717]","[1,1,1]","[0.14034676265876303,-0.11083881504033243]","[-1,-1,-1]","[-0.06452696551191592,0.005523096064455659]","[1,1,1]","[-0.19761557375792022,0.005291242233822178]","[-1,-1,-1]","[-0.06408634511222336,-0.15652478844697051]","[-1,-1,-1]","[0.13292182947063255,0.1488964527544484]","[1,1,1]","[0.06042953374410775,0.07292868826956475]","[1,1,1]","[0.09688728427526438,-0.09956020465074089]","[-1,-1,-1]","[0.11566365809812516,-0.14623113490104392]","[-1,-1,-1]","[0.09856692897609233,-0.056945443923718496]","[-1,-1,-1]","[0.03839665715860761,-0.19117652635875138]","[1,1,1]","[0.025326578191939855,0.17939359418575235]","[1,1,1]","[0.15108598600710724,0.11231193129405695]","[1,1,1]","[0.005585353386339149,0.075432370096014]","[1,1,1]","[0.16197063440514362,0.003679440884994178]","[1,1,1]","[0.02153270036352869,0.02019105392892809]","[-1,-1,-1]","[-0.1776430588895057,-0.07064927080885869]","[1,1,1]","[0.07078363740814733,0.11394865068963939]","[1,1,1]","[-0.027489772067811936,-0.11283880456248889]","[1,1,1]","[0.003169780314653474,-0.16148277223028676]","[-1,-1,-1]","[-0.10796491061411079,-0.167401457243191]","[1,1,1]","[0.09946657502802086,0.03917116863074129]","[-1,-1,-1]","[0.03968475033162257,-0.04414755418209046]","[-1,-1,-1]","[-0.038981212029997936,0.036794695354846425]","[-1,-1,-1]","[-0.1073585042000187,-0.04524618304059156]","[1,1,1]","[-0.0458549221181575,0.1836769008791231]","[-1,-1,-1]","[0.002604258355763412,-0.06648491606971006]","[1,1,1]","[0.02,0.02]",276.6012,0,30,30,146,1,,,,,,,
,,,,,,,67da6c21bcd71cf297d8db10,682f0fbccd7c08a2b7c6255c,2025-05-22_13h58.51.745,cuing_paradigm_dot,2024.1.5,Win32,59.88023952,682d573fa47f1360d1451895,,,,,,,,,,,276.6019,277.0974,,,277.3484,278.088,right,,,,,,,,0.1,,,,,,277.0977,277.3482,0.7168,,278.088,"[-0.08526553375039954,-0.11818418489352979]","[-1,-1,-1]","[-0.08066453990705687,0.01017194070185736]","[-1,-1,-1]","[-0.15174883909862585,-0.05184839281488104]","[-1,-1,-1]","[-0.02507837246697844,-0.09653301656037935]","[-1,-1,-1]","[0.14875970678954858,0.01800532238216416]","[-1,-1,-1]","[0.09930364997534527,0.15801649603281073]","[-1,-1,-1]","[0.07878115449931278,0.05104473831717508]","[1,1,1]","[-0.1815967952186044,0.04927958278355039]","[1,1,1]","[-0.06173039474759361,0.16467492948009177]","[-1,-1,-1]","[0.013810789886125146,0.01084553905751031]","[1,1,1]","[0.11546829770017379,-0.1053137177883155]","[-1,-1,-1]","[0.03434325103701258,-0.09211313791569806]","[-1,-1,-1]","[0.09584604536930633,-0.1618049553240405]","[-1,-1,-1]","[-0.04481085019140718,-0.19251398535040215]","[-1,-1,-1]","[0.14461831634924546,-0.047799958303404166]","[-1,-1,-1]","[0.06667594080372113,-0.056653648848327985]","[-1,-1,-1]","[-0.015136507805098478,0.0683251875358835]","[-1,-1,-1]","[0.09135321236466762,0.09756091402785139]","[-1,-1,-1]","[0.017729290371569655,0.0974217144208367]","[-1,-1,-1]","[-0.01033060495443804,-0.029408957307843882]","[-1,-1,-1]","[0.10621979644662569,-0.02299978783105488]","[-1,-1,-1]","[-0.1376520821608701,0.08524446510633124]","[-1,-1,-1]","[0.1557836647050883,0.072165739790268]","[-1,-1,-1]","[0.06576943945106531,0.18771859315023032]","[-1,-1,-1]","[0.05062199313591529,0.13358775395093608]","[-1,-1,-1]","[-0.03529850312511708,-0.13939350104299017]","[-1,-1,-1]","[-0.11111218941747773,0.13741852957159464]","[-1,-1,-1]","[-0.09392885853423596,-0.07537161052302316]","[-1,-1,-1]","[0.12634325243840624,0.11874692039534412]","[-1,-1,-1]","[-0.10675707970575717,-0.16012455493919983]","[-1,-1,-1]","[0.04164068899722823,-0.02025299112659416]","[-1,-1,-1]","[-0.045144663703051854,-0.008950381818138875]","[-1,-1,-1]","[0.02,0.02]",279.18,0,31,31,20,1,,,,,,,
,,,,,,,67da6c21bcd71cf297d8db10,682f0fbccd7c08a2b7c6255c,2025-05-22_13h58.51.745,cuing_paradigm_dot,2024.1.5,Win32,59.88023952,682d573fa47f1360d1451895,,,,,,,,,,,279.1816,279.6793,,,279.9313,281.2148,left,,,,,,,,0.45,,,,,,279.6796,279.9311,1.2583,,281.215,"[-0.06078241755935552,-0.14843753785975752]","[1,1,1]","[-0.1311985011661749,-0.04893191513143282]","[-1,-1,-1]","[0.13277076032215687,0.01178676495637169]","[1,1,1]","[0.17871118947405895,-0.0669897218140068]","[1,1,1]","[-0.008742086447877799,0.0444776670765607]","[-1,-1,-1]","[-0.1114614763050807,0.108819352977424]","[-1,-1,-1]","[0.12061676217325265,0.11297458627297982]","[1,1,1]","[0.16045058822593322,0.09293787496082603]","[-1,-1,-1]","[0.17878025839936376,0.018413959288317]","[1,1,1]","[0.07990525634595112,-0.13936189022774895]","[1,1,1]","[-0.1762042660780584,-0.07611789304224535]","[1,1,1]","[0.005080985767487933,-0.1870264878690611]","[-1,-1,-1]","[-0.10544560126495013,-0.00003862324907111241]","[-1,-1,-1]","[-0.024518731858775254,0.16465752158248315]","[-1,-1,-1]","[-0.030766461750783146,-0.08959374956339491]","[-1,-1,-1]","[-0.07375385053825131,0.16611787628397814]","[-1,-1,-1]","[-0.11373900147876188,0.16220561779977105]","[-1,-1,-1]","[0.07781596948612143,0.028787331192149285]","[1,1,1]","[-0.04917076029454899,-0.036546469017597526]","[-1,-1,-1]","[-0.11819557325634165,0.046496014514380096]","[1,1,1]","[0.12075880515301943,-0.0643907294817083]","[1,1,1]","[0.07407666869273692,0.10461529533203272]","[-1,-1,-1]","[0.03471651609267781,0.18339374645400802]","[-1,-1,-1]","[0.03469197158924587,0.08300460414623385]","[1,1,1]","[0.06592743000571409,-0.03150683926125273]","[-1,-1,-1]","[-0.010753897641506185,-0.1290184763993294]","[1,1,1]","[0.18620805326243528,0.061272282339518126]","[-1,-1,-1]","[0.05228255250146557,-0.10936644959609756]","[-1,-1,-1]","[-0.16477256830035536,0.010981036523524012]","[1,1,1]","[0.02403559277222277,-0.07493253232572138]","[-1,-1,-1]","[-0.10259321985842808,-0.1495329838609983]","[-1,-1,-1]","[0.126100389569875,-0.13119543143902368]","[1,1,1]","[0.02,0.02]",282.3132,0,32,32,89,1,,,,,,,
,,,,,,,67da6c21bcd71cf297d8db10,682f0fbccd7c08a2b7c6255c,2025-05-22_13h58.51.745,cuing_paradigm_dot,2024.1.5,Win32,59.88023952,682d573fa47f1360d1451895,,,,,,,,,,,282.3149,282.8052,,,283.0505,283.9477,left,,,,,,,,0.9,,,,,,282.8052,283.0505,0.8692,,283.9479,"[0.16299553403585784,0.017710710079323067]","[1,1,1]","[0.013721858627345897,-0.17569969193749468]","[1,1,1]","[0.14623105470107148,-0.1346115959640201]","[1,1,1]","[0.1748968381154555,-0.07063912305172594]","[1,1,1]","[-0.13621178054121155,-0.11885643289253067]","[1,1,1]","[-0.07537422203563876,-0.11304293803940502]","[1,1,1]","[-0.04178679194275824,-0.1436194292915731]","[1,1,1]","[-0.09774842219015241,-0.04200463655712911]","[1,1,1]","[-0.047249434037348985,0.039254088171906856]","[1,1,1]","[0.09200366361374875,-0.055217808253903815]","[1,1,1]","[-0.1707882001716231,-0.08364885005053128]","[1,1,1]","[0.11358786243670964,0.12150403405212205]","[1,1,1]","[-0.13871505502381148,0.012571899453502832]","[1,1,1]","[-0.0955252168493164,0.09436553269465213]","[1,1,1]","[0.05737547225252621,-0.011903884371150043]","[1,1,1]","[-0.032483883507630824,0.1930417936198812]","[1,1,1]","[-0.044384024023911554,-0.0422749865744445]","[1,1,1]","[0.019564360877008236,0.18643254046405444]","[1,1,1]","[0.09060856086392295,0.038587960849657627]","[1,1,1]","[0.06930023617193576,-0.18700925566424]","[-1,-1,-1]","[-0.06778654907962732,0.15965976738688484]","[1,1,1]","[-0.1716653544449597,-0.043098096306604286]","[1,1,1]","[0.04627203527005134,-0.10680323210052375]","[1,1,1]","[-0.039017752842190535,0.08208187657762558]","[1,1,1]","[-0.08829622549597459,-0.15182271554894824]","[-1,-1,-1]","[0.045096582641298094,0.09791963382322523]","[1,1,1]","[-0.1815548406696476,0.08173582776199159]","[1,1,1]","[-0.1474770660746226,0.11827956728675212]","[1,1,1]","[-0.08855678869259181,0.012140478401438677]","[1,1,1]","[0.13617665423889833,0.04763515035589174]","[-1,-1,-1]","[0.014577082554471304,0.0665113293409637]","[1,1,1]","[0.001297239616833177,-0.02194448756634222]","[1,1,1]","[0.02,0.02]",285.046,0,33,33,197,1,,,,,,,
,,,,,,,67da6c21bcd71cf297d8db10,682f0fbccd7c08a2b7c6255c,2025-05-22_13h58.51.745,cuing_paradigm_dot,2024.1.5,Win32,59.88023952,682d573fa47f1360d1451895,,,,,,,,,,,285.0473,285.5475,,,285.7866,286.6965,left,,,,,,,,0.6,,,,,,285.5476,285.7865,0.8973,,286.6967,"[0.18392040329444953,0.07209871277361442]","[1,1,1]","[-0.06097804132220106,0.18963655068765017]","[1,1,1]","[-0.10466089398234034,0.057145597763548855]","[-1,-1,-1]","[0.15000060143097788,0.10657753961384252]","[-1,-1,-1]","[-0.003187438967747271,-0.1328257661423177]","[1,1,1]","[-0.06873638766991219,0.10570640968573117]","[1,1,1]","[0.09126391745810167,-0.06322613920691743]","[-1,-1,-1]","[-0.14465868463111053,0.10553419098103327]","[1,1,1]","[0.047913199367235364,-0.12942474494267767]","[1,1,1]","[-0.042945602919193054,0.143603096804764]","[-1,-1,-1]","[-0.11184972410967693,-0.01058765977545507]","[-1,-1,-1]","[-0.041053331368234115,0.011314621346322525]","[1,1,1]","[0.09417100301929932,-0.0066577449795790665]","[1,1,1]","[0.0998320122930552,-0.15840542349160885]","[-1,-1,-1]","[-0.10948866358275788,-0.16074516460952304]","[1,1,1]","[0.15390613521715482,0.008244820658924666]","[1,1,1]","[-0.05277166156502317,0.06386478650673388]","[1,1,1]","[0.05641802399627096,-0.18769184983905532]","[1,1,1]","[0.13010122562832824,-0.038555479588723296]","[1,1,1]","[0.042535902744719606,-0.08903022058719912]","[-1,-1,-1]","[-0.15861844185293686,-0.04441466849936694]","[1,1,1]","[-0.11488449098741886,0.16322699629418208]","[1,1,1]","[0.12008740841830631,0.07639350169878582]","[1,1,1]","[0.15510686835101742,-0.11787078065607118]","[-1,-1,-1]","[0.024159399063054136,0.16217574988435468]","[-1,-1,-1]","[0.010694931325856314,0.10174549434666018]","[-1,-1,-1]","[0.05134177520064176,0.06619308775650609]","[1,1,1]","[-0.07494198537042672,-0.183482467800023]","[-1,-1,-1]","[0.01070024406409232,-0.04527555195060781]","[-1,-1,-1]","[0.07964026153782883,0.11634300885650117]","[-1,-1,-1]","[-0.07530938573753941,-0.08481968480324095]","[1,1,1]","[-0.15292864507545298,0.027974099203643896]","[1,1,1]","[0.02,0.02]",287.7959,0,34,34,161,1,,,,,,,
,,,,,,,67da6c21bcd71cf297d8db10,682f0fbccd7c08a2b7c6255c,2025-05-22_13h58.51.745,cuing_paradigm_dot,2024.1.5,Win32,59.88023952,682d573fa47f1360d1451895,,,,,,,,,,,287.7977,288.2881,,,288.5294,289.2632,right,,,,,,,,0.1,,,,,,288.2882,288.5291,0.7033,,289.2635,"[-0.007992063885339388,0.02300175933937349]","[-1,-1,-1]","[-0.12245264121962458,0.07765056440291448]","[-1,-1,-1]","[0.16528668123843374,0.06578717936414075]","[-1,-1,-1]","[0.03250452106577672,-0.1894936788209347]","[-1,-1,-1]","[-0.07714041264766353,-0.020783084202392343]","[-1,-1,-1]","[0.12871968296221362,-0.09646571395435262]","[1,1,1]","[-0.05723517903966977,-0.10747846266516335]","[-1,-1,-1]","[0.003999836023226763,-0.062139491677882394]","[-1,-1,-1]","[-0.15777544502723326,0.05540922340334436]","[-1,-1,-1]","[0.10076635864644203,0.029170094829728065]","[-1,-1,-1]","[-0.03568046122076178,0.11364481977061847]","[-1,-1,-1]","[-0.08501203832291968,-0.13913369243859353]","[-1,-1,-1]","[0.1116896176266298,0.10700443834745603]","[-1,-1,-1]","[0.05673252963386828,0.12758066522197425]","[-1,-1,-1]","[0.09224535741099,-0.052916995726190574]","[-1,-1,-1]","[0.00801607627998602,0.1565552206805028]","[-1,-1,-1]","[0.10216420218722218,0.16567358847008437]","[-1,-1,-1]","[0.12832591836448753,-0.027624205731109082]","[-1,-1,-1]","[-0.0009278464466607962,0.07953680687163671]","[-1,-1,-1]","[-0.11312433448753607,-0.1022595811005597]","[-1,-1,-1]","[-0.03337498991870396,-0.14178048960069553]","[-1,-1,-1]","[0.03327536248362842,-0.004093865997608794]","[-1,-1,-1]","[0.03869733724095237,-0.13669476855500698]","[-1,-1,-1]","[-0.11273698952809193,0.01723194581056818]","[-1,-1,-1]","[-0.1720237757598779,-0.04519717600996405]","[1,1,1]","[0.13091677027453857,-0.14914634843230717]","[-1,-1,-1]","[0.07929715708531637,-0.12984035311796333]","[-1,-1,-1]","[-0.029479370498680026,0.18294597639892793]","[-1,-1,-1]","[-0.07766584918731713,-0.06619606822285182]","[1,1,1]","[-0.0975379839995995,0.16125732179855856]","[-1,-1,-1]","[-0.19242164933781644,0.022491188916517652]","[-1,-1,-1]","[0.057273743939863155,-0.09259578951588968]","[-1,-1,-1]","[0.02,0.02]",290.363,0,35,35,26,1,,,,,,,
,,,,,,,67da6c21bcd71cf297d8db10,682f0fbccd7c08a2b7c6255c,2025-05-22_13h58.51.745,cuing_paradigm_dot,2024.1.5,Win32,59.88023952,682d573fa47f1360d1451895,,,,,,,,,,,290.3652,290.8639,,,291.1135,292.0885,right,,,,,,,,0.4,,,,,,290.8642,291.1133,0.952,,292.0885,"[-0.03846057993971025,0.04216765816187151]","[-1,-1,-1]","[0.1742140335358998,0.052048364482765175]","[-1,-1,-1]","[0.02954486277388813,0.10465947034007546]","[-1,-1,-1]","[0.14872412746491256,0.110264549647165]","[1,1,1]","[0.05633363202591569,-0.11106414096633534]","[-1,-1,-1]","[0.07784795779945547,0.06270419461602647]","[-1,-1,-1]","[0.008088816098260747,0.004418176111786991]","[1,1,1]","[0.10959255932248634,-0.12050356340811245]","[1,1,1]","[0.012633075423197434,-0.1533895031935053]","[-1,-1,-1]","[0.14383233750088537,0.007022430892920127]","[-1,-1,-1]","[0.10371580466084179,0.15941923310494407]","[-1,-1,-1]","[-0.0651945592792002,-0.15315386985786178]","[1,1,1]","[0.03907704515177403,-0.02388926354687459]","[-1,-1,-1]","[0.18845282768380775,0.012003563124512001]","[-1,-1,-1]","[-0.06522255738377838,0.011630849784347233]","[1,1,1]","[-0.06275451293054783,0.16611838137420426]","[-1,-1,-1]","[0.1556133421823058,-0.044995382352615035]","[1,1,1]","[-0.01569028248588517,-0.0541437931661901]","[1,1,1]","[0.03916823367685042,0.050770781087670865]","[1,1,1]","[-0.16122817935080694,-0.009021032543603796]","[-1,-1,-1]","[-0.18118348806112253,0.07990531771000552]","[1,1,1]","[0.10318653280533284,-0.061520122863672116]","[-1,-1,-1]","[-0.18534098556925735,0.03782472772321447]","[-1,-1,-1]","[0.04078578063226875,-0.1886438032802771]","[1,1,1]","[0.017111515373773055,-0.0963640370848577]","[1,1,1]","[0.13933833758999725,-0.08952840348481796]","[-1,-1,-1]","[-0.12540018303479344,0.010099051478317083]","[-1,-1,-1]","[-0.029380002085826855,-0.11007850934366867]","[-1,-1,-1]","[-0.08977576707533037,-0.06662885864505111]","[1,1,1]","[-0.10972576886833592,0.1191065229912741]","[-1,-1,-1]","[-0.026227237489427818,0.11784930686038984]","[1,1,1]","[-0.07424191872948592,-0.11071799024227541]","[-1,-1,-1]","[0.02,0.02]",293.1794,0,36,36,52,1,,,,,,,
,,,,,,,67da6c21bcd71cf297d8db10,682f0fbccd7c08a2b7c6255c,2025-05-22_13h58.51.745,cuing_paradigm_dot,2024.1.5,Win32,59.88023952,682d573fa47f1360d1451895,,,,,,,,,,,293.181,293.6796,,,293.9314,294.9131,right,,,,,,,,0.5,,,,,,293.6797,293.9312,0.9573,,294.9134,"[-0.10116195622222086,0.05776990353681263]","[-1,-1,-1]","[0.1399027283091191,0.05426242033254223]","[-1,-1,-1]","[0.0728393701704554,-0.003012547380265768]","[-1,-1,-1]","[0.07176369235966068,0.14783065238718993]","[1,1,1]","[0.10388719064040754,-0.15268241013053913]","[-1,-1,-1]","[0.04790264574101864,-0.1939351807150443]","[1,1,1]","[-0.02323290863359573,-0.15768108396283556]","[1,1,1]","[-0.062499870166866416,0.12457884980386608]","[-1,-1,-1]","[-0.09479658654853791,0.17127101811116022]","[1,1,1]","[-0.04595569792103281,-0.016085389921816518]","[-1,-1,-1]","[0.014351427617649118,0.014150526889757663]","[-1,-1,-1]","[-0.1152747841563884,-0.0968827304221889]","[1,1,1]","[0.014809813465549613,-0.09668970497139948]","[1,1,1]","[-0.03799500702285396,-0.07449033077904567]","[-1,-1,-1]","[-0.14988898349055566,0.05988291766394391]","[1,1,1]","[0.05913860754632393,-0.1251818809349465]","[1,1,1]","[0.10410003131062541,-0.06656624398895429]","[1,1,1]","[-0.03290231947900802,0.03839791197689214]","[1,1,1]","[0.1308366712541188,-0.10953859581285748]","[-1,-1,-1]","[0.16789144205653492,-0.05906215550145115]","[-1,-1,-1]","[0.05154603369351382,-0.06333951283726283]","[-1,-1,-1]","[0.11898785609118105,0.09046773937898632]","[1,1,1]","[-0.1693030528556948,-0.08515699450756341]","[-1,-1,-1]","[-0.004666266745851261,0.06894570484790287]","[-1,-1,-1]","[0.04955785849835278,0.05884289377848821]","[-1,-1,-1]","[0.17371997846645826,0.08965812602251726]","[1,1,1]","[0.12793895542011394,0.010581468591911062]","[-1,-1,-1]","[-0.009786391861127548,0.11840711265161935]","[1,1,1]","[-0.12527264473827834,-0.02827215176003567]","[-1,-1,-1]","[0.004099942025060831,-0.04380735374044238]","[1,1,1]","[0.003650208313283144,0.17463568232201832]","[1,1,1]","[-0.09459728443965854,-0.158764413336301]","[1,1,1]","[0.02,0.02]",296.0123,0,37,37,108,1,,,,,,,
,,,,,,,67da6c21bcd71cf297d8db10,682f0fbccd7c08a2b7c6255c,2025-05-22_13h58.51.745,cuing_paradigm_dot,2024.1.5,Win32,59.88023952,682d573fa47f1360d1451895,,,,,,,,,,,296.0138,296.5126,,,296.7511,297.6955,right,,,,,,,,0.6,,,,,,296.5127,296.751,0.9325,,297.6957,"[0.056164460763781066,0.08964036216904349]","[1,1,1]","[-0.1734832092563929,0.06399857280921399]","[-1,-1,-1]","[0.09086619923865345,0.14796651661134544]","[1,1,1]","[-0.04797828932226279,0.17992588821405314]","[1,1,1]","[-0.014715257841711715,-0.11212084339498186]","[1,1,1]","[0.04153149924898138,-0.17773718856143342]","[1,1,1]","[-0.07443257007946998,0.09375853656123435]","[1,1,1]","[-0.19141210821558516,0.00035615995200156204]","[1,1,1]","[0.0765268401765582,-0.1101161051126058]","[1,1,1]","[-0.06412847719258837,-0.04957653020476108]","[1,1,1]","[0.0438691442206349,0.18243140297437674]","[1,1,1]","[0.008422168844906684,0.10769219588745788]","[1,1,1]","[0.029188328149848078,0.05252067967926982]","[1,1,1]","[-0.06889313876734207,-0.006160391518580356]","[-1,-1,-1]","[-0.05916383079743161,-0.14821615054994297]","[1,1,1]","[-0.14163807854564756,-0.012984523807566012]","[-1,-1,-1]","[0.11598876420452332,-0.04903950910105776]","[-1,-1,-1]","[-0.11961467832608372,-0.11937974963650957]","[-1,-1,-1]","[0.15389680934371452,-0.025513615892862957]","[1,1,1]","[-0.15547235321086397,-0.07612797657477838]","[1,1,1]","[-0.004074087151909161,0.007375886973975444]","[-1,-1,-1]","[-0.022258499465910825,-0.028401179292205467]","[1,1,1]","[-0.025030472415866305,0.13428387574971434]","[-1,-1,-1]","[0.12968426613713657,-0.08849832174935184]","[1,1,1]","[-0.0920643680366237,0.14709444809266997]","[1,1,1]","[0.11274950015031648,0.05916328812976115]","[1,1,1]","[0.15635848831620605,0.03376276721185811]","[-1,-1,-1]","[-0.11188944575187111,-0.0639018834876381]","[-1,-1,-1]","[0.1864744961530332,0.005504233682146281]","[-1,-1,-1]","[-0.11204071595337646,0.06631787614314216]","[-1,-1,-1]","[0.018390195695453145,-0.06976543520041423]","[-1,-1,-1]","[0.09179437862372085,-0.15528452857888167]","[-1,-1,-1]","[0.02,0.02]",298.8033,0,38,38,176,1,,,,,,,
,,,,,,,67da6c21bcd71cf297d8db10,682f0fbccd7c08a2b7c6255c,2025-05-22_13h58.51.745,cuing_paradigm_dot,2024.1.5,Win32,59.88023952,682d573fa47f1360d1451895,,,,,,,,,,,298.8038,299.2963,,,299.5371,300.2965,left,,,,,,,,0.6,,,,,,299.2964,299.5371,0.746,,300.2968,"[0.1003052464712128,-0.1337041465558047]","[1,1,1]","[-0.09299490925606314,-0.09052125535515075]","[1,1,1]","[0.024406618686606235,0.1914651126934988]","[1,1,1]","[-0.09337483770784609,0.03487698213179113]","[-1,-1,-1]","[0.13556524852195653,-0.09283511465824368]","[1,1,1]","[0.07264661332426804,0.060012299598371635]","[-1,-1,-1]","[-0.00921787484818394,-0.02957894806096996]","[1,1,1]","[0.06937725605271691,-0.18293841712872172]","[1,1,1]","[0.06482540899031806,0.15563988120090944]","[1,1,1]","[0.12818794894403904,0.07481391815306508]","[1,1,1]","[-0.08346369809999081,0.10752649700842346]","[1,1,1]","[-0.11074387747827516,0.07656507986629092]","[-1,-1,-1]","[-0.17810981009278587,-0.07106019870837131]","[1,1,1]","[0.011860825782591506,-0.14151413874852437]","[1,1,1]","[0.12363348311359292,0.023805254247726632]","[1,1,1]","[0.046743837516409245,-0.015200450352541996]","[1,1,1]","[-0.1888511768379637,0.03040643389687061]","[1,1,1]","[-0.1761820909112474,0.08041232651945847]","[1,1,1]","[0.03618668598385197,-0.1012489840503931]","[-1,-1,-1]","[-0.13380101675536787,0.009649570227212498]","[1,1,1]","[-0.089500705758454,0.17218314998045958]","[1,1,1]","[0.0997535691136088,-0.042078696605378337]","[-1,-1,-1]","[0.0007324963709106963,0.0976774805868322]","[1,1,1]","[-0.04035861030436494,0.109419951766798]","[-1,-1,-1]","[-0.022905716111090484,0.01508053561716587]","[-1,-1,-1]","[-0.11574774115316543,-0.05236788702582587]","[1,1,1]","[0.18211099009947798,-0.07939355816213378]","[-1,-1,-1]","[0.14084713233588714,0.12447423200336122]","[-1,-1,-1]","[-0.07893932989339161,-0.16297527696330064]","[-1,-1,-1]","[0.03233075175302154,0.04888672499772078]","[-1,-1,-1]","[0.19019825855978742,0.010080033123661054]","[-1,-1,-1]","[-0.08472134759877074,-0.019539854170576618]","[-1,-1,-1]","[0.02,0.02]",301.3956,0,39,39,153,1,,,,,,,
,,,,,,,67da6c21bcd71cf297d8db10,682f0fbccd7c08a2b7c6255c,2025-05-22_13h58.51.745,cuing_paradigm_dot,2024.1.5,Win32,59.88023952,682d573fa47f1360d1451895,,,,,,,,,,,301.3973,301.8958,,,302.1547,303.4467,left,,,,,,,,0.55,,,,,,301.896,302.1547,1.2771,,303.4469,"[-0.08604332600977406,-0.04727351159339696]","[-1,-1,-1]","[0.04067600118032618,0.05308347695699056]","[1,1,1]","[0.05672721156775972,-0.09164574336844149]","[1,1,1]","[0.07077751845984484,-0.044742173757088215]","[-1,-1,-1]","[-0.012916983799180182,-0.1841709813951134]","[-1,-1,-1]","[0.19812485035451471,0.01813873274189338]","[-1,-1,-1]","[-0.12848692132434464,-0.08834313977666425]","[-1,-1,-1]","[-0.18226826484449246,-0.044993476034055666]","[1,1,1]","[0.009814887323425184,0.15120471831499308]","[1,1,1]","[-0.11185072225947189,0.08995313625012333]","[1,1,1]","[-0.12282015796751283,0.1286477227998342]","[-1,-1,-1]","[0.09449915219804786,0.14539823190795212]","[1,1,1]","[-0.02446411747753563,-0.12499976102272722]","[1,1,1]","[-0.09108107651351621,0.04899746591661457]","[1,1,1]","[0.06638457518256537,0.11617538367628256]","[1,1,1]","[-0.02831841414916643,0.18085445199280475]","[-1,-1,-1]","[-0.05178507398754852,0.11100387628634266]","[-1,-1,-1]","[-0.06391899450564859,-0.0013482874945563062]","[1,1,1]","[-0.10968570906998747,-0.0018774006854558414]","[-1,-1,-1]","[0.15938395972810662,-0.06083152191788893]","[1,1,1]","[0.11815601121138093,-0.07223230254437883]","[-1,-1,-1]","[-0.16242190427707964,0.06255867491371489]","[1,1,1]","[0.09711207698651649,0.05135619612070636]","[1,1,1]","[0.0038861929067577202,-0.09467395311492809]","[-1,-1,-1]","[-0.08232134025710457,-0.10057412708906856]","[1,1,1]","[-0.18851465089078495,0.000007985428953509513]","[1,1,1]","[0.12753462380888841,0.1194307952398472]","[1,1,1]","[0.02995753987170878,-0.18902520004152867]","[-1,-1,-1]","[-0.02380405842134202,0.03536532687309907]","[-1,-1,-1]","[0.1109228280673275,-0.150602911440616]","[1,1,1]","[0.1262433525900301,-0.002019904460722361]","[-1,-1,-1]","[-0.0020717018966506756,0.07450477783696881]","[1,1,1]","[0.02,0.02]",304.5461,0,40,40,141,1,,,,,,,
,,,,,,,67da6c21bcd71cf297d8db10,682f0fbccd7c08a2b7c6255c,2025-05-22_13h58.51.745,cuing_paradigm_dot,2024.1.5,Win32,59.88023952,682d573fa47f1360d1451895,,,,,,,,,,,304.5483,305.0459,,,305.287,306.0497,right,,,,,,,,0.1,,,,,,305.0461,305.287,0.7564,,306.0497,"[0.009322078591541196,0.0916878576304744]","[-1,-1,-1]","[0.17286709010224632,-0.06935783919971922]","[-1,-1,-1]","[0.060193265732521456,-0.11776853862253098]","[-1,-1,-1]","[0.07168450632179649,0.040501669203153075]","[-1,-1,-1]","[-0.07789776868702634,-0.08932578043893884]","[-1,-1,-1]","[0.08314277539829812,-0.07918933329777393]","[-1,-1,-1]","[0.004869057377981418,-0.1455864460096509]","[-1,-1,-1]","[-0.021830878422946575,-0.017041520168376487]","[-1,-1,-1]","[0.03645819063531044,-0.1818609384463527]","[1,1,1]","[-0.006149405255145426,0.19203330640157396]","[-1,-1,-1]","[0.07909358622721427,0.12359133951029845]","[1,1,1]","[-0.06022191785772986,-0.1904229237377674]","[-1,-1,-1]","[-0.06871057903018568,0.04665055464893667]","[-1,-1,-1]","[0.16491717560172273,0.056227986012523296]","[-1,-1,-1]","[-0.08379599851452647,-0.037996828695274903]","[-1,-1,-1]","[0.13325837147189543,-0.11285340986027285]","[-1,-1,-1]","[-0.16533796064740397,0.0893404228978824]","[-1,-1,-1]","[0.03966051746532931,0.06448137657459879]","[1,1,1]","[-0.0935568144648933,-0.12708109103972592]","[-1,-1,-1]","[0.045956534762794904,0.0005982438919339576]","[-1,-1,-1]","[-0.026820031614648028,0.02477133273539385]","[-1,-1,-1]","[0.12726452471889502,-0.06173629172391907]","[-1,-1,-1]","[-0.12890895806761912,0.02023141804369676]","[-1,-1,-1]","[0.09554110605723043,0.07883103412490593]","[-1,-1,-1]","[0.13865452394398278,0.13180667489921993]","[-1,-1,-1]","[0.19450490501886888,0.007153088283153675]","[-1,-1,-1]","[0.05195760466462133,-0.04750678420895908]","[-1,-1,-1]","[0.11379802696782847,0.042620419177602155]","[-1,-1,-1]","[-0.10626552051864478,-0.16835664408945952]","[-1,-1,-1]","[-0.13371448154087165,-0.0946555830184707]","[-1,-1,-1]","[-0.030936557262099124,0.09809443142546269]","[-1,-1,-1]","[-0.058750102423814926,0.1458103807421812]","[-1,-1,-1]","[0.02,0.02]",307.1457,0,41,41,8,1,,,,,,,
,,,,,,,67da6c21bcd71cf297d8db10,682f0fbccd7c08a2b7c6255c,2025-05-22_13h58.51.745,cuing_paradigm_dot,2024.1.5,Win32,59.88023952,682d573fa47f1360d1451895,,,,,,,,,,,307.1472,307.6454,,,307.9039,308.8142,right,,,,,,,,0.55,,,,,,307.6455,307.9038,0.8953,,308.8144,"[-0.021982865306007772,0.12170607202331653]","[1,1,1]","[-0.10677922831638273,0.001311848669224351]","[-1,-1,-1]","[-0.18970008089630552,0.0516432738825705]","[1,1,1]","[-0.027005494978552758,-0.10763121433047021]","[1,1,1]","[0.11856115234120831,-0.1513288859169557]","[1,1,1]","[0.10198173267071536,0.1228108995717513]","[-1,-1,-1]","[-0.08188938453413946,0.16180061342771754]","[1,1,1]","[-0.012543801667608616,-0.1582097720713717]","[1,1,1]","[0.07238564022202144,-0.056300942423885295]","[1,1,1]","[0.13572066977450023,0.01982032901190334]","[1,1,1]","[0.10878404863788481,-0.10981995391269664]","[-1,-1,-1]","[-0.17472968517333579,-0.026555898711345935]","[1,1,1]","[-0.0640374821800788,-0.13984155555521913]","[1,1,1]","[0.057544814105253216,0.011139252143141928]","[-1,-1,-1]","[-0.12563942205334172,-0.15435726626171484]","[1,1,1]","[-0.12711779187524946,-0.040977008059395685]","[-1,-1,-1]","[-0.12367636200569694,-0.09893165429619401]","[1,1,1]","[-0.16233564405618298,0.02204762732604856]","[1,1,1]","[-0.13006725552309312,0.1137902550136974]","[-1,-1,-1]","[0.039261209592554934,-0.1429872991195832]","[-1,-1,-1]","[0.04858596830888666,0.11138931827176575]","[1,1,1]","[0.1344894597203352,-0.03348167626412449]","[1,1,1]","[0.002569302480888862,0.05540566851787392]","[-1,-1,-1]","[-0.06436716614641426,0.06148386659274511]","[-1,-1,-1]","[0.10333371980222247,0.04741813019317739]","[1,1,1]","[0.1541492061343327,0.1141271961427684]","[-1,-1,-1]","[0.1576959456613499,-0.09803119530750745]","[-1,-1,-1]","[-0.0468907644020582,-0.05583363617067161]","[1,1,1]","[0.019651090754058572,-0.021807835666108753]","[-1,-1,-1]","[0.005848484714407782,-0.19704829688974998]","[1,1,1]","[-0.035688436307293535,0.16777077287686581]","[-1,-1,-1]","[0.185907476297007,-0.011269772788963222]","[-1,-1,-1]","[0.02,0.02]",309.9128,0,42,42,140,1,,,,,,,
,,,,,,,67da6c21bcd71cf297d8db10,682f0fbccd7c08a2b7c6255c,2025-05-22_13h58.51.745,cuing_paradigm_dot,2024.1.5,Win32,59.88023952,682d573fa47f1360d1451895,,,,,,,,,,,309.9144,310.4132,,,310.6697,311.5802,right,,,,,,,,0.6,,,,,,310.4134,310.6697,0.896,,311.5805,"[-0.049467465102914734,-0.12694834844438996]","[1,1,1]","[0.016154628143760976,-0.036842171272694166]","[-1,-1,-1]","[0.09164153922948058,0.17700782953731484]","[1,1,1]","[-0.14580402622108696,-0.11039609811013283]","[1,1,1]","[-0.0026378557522769926,0.07478253877998002]","[1,1,1]","[0.15106416037450973,0.10343035422856332]","[-1,-1,-1]","[0.06943632635914035,0.05944484419211926]","[1,1,1]","[0.005885381673550098,-0.1851032022057928]","[-1,-1,-1]","[0.1794230978790165,-0.04059400898696482]","[1,1,1]","[-0.13534263818651168,0.0958442623359505]","[-1,-1,-1]","[-0.08828271771493268,-0.0986323847624548]","[1,1,1]","[0.009606584892969604,0.18742623878748438]","[-1,-1,-1]","[0.021376328966738068,0.0048740397557685096]","[1,1,1]","[0.16514415040364827,-0.10337796757076903]","[-1,-1,-1]","[0.1158426771721114,-0.02301112736319643]","[-1,-1,-1]","[0.17759514972758908,0.041208624507828834]","[1,1,1]","[-0.15801779566569435,0.04274209045516931]","[1,1,1]","[-0.146792193980626,-0.023834871496833086]","[1,1,1]","[-0.028899068913714923,0.16059067302515034]","[1,1,1]","[0.08756641323493611,-0.09712792143466221]","[-1,-1,-1]","[-0.08886211306922166,0.15099143000758233]","[1,1,1]","[-0.08267207542457064,-0.006124856585358542]","[-1,-1,-1]","[0.06800970708506617,-0.022877717679993075]","[1,1,1]","[0.02577100369467839,0.144916678228697]","[-1,-1,-1]","[-0.11076120379785127,0.05219068005843009]","[1,1,1]","[0.06835186543829921,-0.18053307754220865]","[1,1,1]","[0.043795160820273425,-0.07851088609103989]","[1,1,1]","[0.00118948010200644,-0.0981924035938926]","[-1,-1,-1]","[0.08206742637170103,0.1021262753311247]","[1,1,1]","[-0.04331064159483074,0.05799877721482999]","[-1,-1,-1]","[-0.06426126267210111,-0.04402972441698473]","[-1,-1,-1]","[-0.07977294497176157,0.08848682069135555]","[1,1,1]","[0.02,0.02]",312.6792,0,43,43,156,1,,,,,,,
,,,,,,,67da6c21bcd71cf297d8db10,682f0fbccd7c08a2b7c6255c,2025-05-22_13h58.51.745,cuing_paradigm_dot,2024.1.5,Win32,59.88023952,682d573fa47f1360d1451895,,,,,,,,,,,312.6809,313.1789,,,313.4358,314.413,right,,,,,,,,0.5,,,,,,313.1791,313.4358,0.9628,,314.4132,"[0.05537030210910211,0.1817143867085033]","[-1,-1,-1]","[-0.05598055602945561,0.18328930872615193]","[-1,-1,-1]","[0.033233232648258906,-0.12981886779157004]","[1,1,1]","[0.16633931065925403,-0.005313157574844024]","[1,1,1]","[-0.05270738819444899,0.09158039388181889]","[-1,-1,-1]","[0.16631732475545638,-0.0894315046115532]","[-1,-1,-1]","[-0.11174870289746203,-0.01834303133093969]","[-1,-1,-1]","[0.07192116893533683,-0.05807799546046463]","[-1,-1,-1]","[-0.1282140913905291,-0.09751246895202502]","[1,1,1]","[-0.035374716803964416,-0.1194635358739376]","[1,1,1]","[0.13167793374920594,-0.13098668135091088]","[-1,-1,-1]","[-0.17442297713624116,0.061151728719686445]","[-1,-1,-1]","[0.06113739568768281,0.07461234853884328]","[-1,-1,-1]","[0.08128861347291381,-0.16493295825450985]","[1,1,1]","[-0.16516036840895026,-0.08049076649814696]","[-1,-1,-1]","[-0.04736594074682601,0.04854313834933117]","[1,1,1]","[-0.006178852633686546,0.17339923929382217]","[1,1,1]","[0.12014269114904573,0.09033748788415202]","[1,1,1]","[0.006923699049652993,-0.0904877344988954]","[1,1,1]","[0.091435720093697,-0.09411919829046099]","[-1,-1,-1]","[-0.0265310762541929,-0.02661680246429685]","[1,1,1]","[-0.19152874981216028,0.005829608092642714]","[1,1,1]","[-0.09559771396782259,-0.1584804677025075]","[1,1,1]","[0.17424191786156337,0.06533745064124462]","[-1,-1,-1]","[0.07154628428955523,0.032280239475495145]","[1,1,1]","[0.08131651320095959,0.14479017437855127]","[-1,-1,-1]","[0.11381500071799328,0.05032371661323582]","[1,1,1]","[-0.122990361707463,0.026682817480119296]","[-1,-1,-1]","[0.01925590352450734,0.03502960343803432]","[-1,-1,-1]","[-0.06158623937906222,-0.18924265291465361]","[1,1,1]","[0.18662461320640628,-0.041371579120461015]","[-1,-1,-1]","[-0.03846015203748707,0.13376767051197794]","[1,1,1]","[0.02,0.02]",315.5126,0,44,44,107,1,,,,,,,
