right,left,explain.started,explain.stopped,key_resp_3.keys,key_resp_3.rt,key_resp_3.duration,participant,session,date,expName,psychopyVersion,OS,frameRate,study_id,explain_2.started,explain_2.stopped,key_resp_4.keys,key_resp_4.rt,key_resp_4.duration,explain_3.started,explain_3.stopped,key_resp_5.keys,key_resp_5.rt,key_resp_5.duration,fixation.started,fixation.stopped,practice.started,practice.stopped,response.started,response.stopped,key_resp.keys,key_resp.rt,key_resp.duration,feedback.started,feedback.stopped,trials_2.thisRepN,trials_2.thisTrialN,trials_2.thisN,trials_2.thisIndex,trials_2.ran,white_ratio,explain_4.started,explain_4.stopped,key_resp_6.keys,key_resp_6.rt,key_resp_6.duration,dotDisplay.started,dotDisplay.stopped,ITI.started,polygon_1.pos,polygon_1.color,polygon_2.pos,polygon_2.color,polygon_3.pos,polygon_3.color,polygon_4.pos,polygon_4.color,polygon_5.pos,polygon_5.color,polygon_6.pos,polygon_6.color,polygon_7.pos,polygon_7.color,polygon_8.pos,polygon_8.color,polygon_9.pos,polygon_9.color,polygon_10.pos,polygon_10.color,polygon_11.pos,polygon_11.color,polygon_12.pos,polygon_12.color,polygon_13.pos,polygon_13.color,polygon_14.pos,polygon_14.color,polygon_15.pos,polygon_15.color,polygon_16.pos,polygon_16.color,polygon_17.pos,polygon_17.color,polygon_18.pos,polygon_18.color,polygon_19.pos,polygon_19.color,polygon_20.pos,polygon_20.color,polygon_21.pos,polygon_21.color,polygon_22.pos,polygon_22.color,polygon_23.pos,polygon_23.color,polygon_24.pos,polygon_24.color,polygon_25.pos,polygon_25.color,polygon_26.pos,polygon_26.color,polygon_27.pos,polygon_27.color,polygon_28.pos,polygon_28.color,polygon_29.pos,polygon_29.color,polygon_30.pos,polygon_30.color,polygon_31.pos,polygon_31.color,polygon_32.pos,polygon_32.color,dot_size,ITI.stopped,trials.thisRepN,trials.thisTrialN,trials.thisN,trials.thisIndex,trials.ran,break_2.started,break_2.stopped,trials_3.thisRepN,trials_3.thisTrialN,trials_3.thisN,trials_3.thisIndex,trials_3.ran
subject chose black,subject chose white,0.0005,35.0429,space,20.0326,,67e54929de08a1cdb4e08723,682f0ff08ae6c08e95dc106e,2025-05-22_13h53.34.686,cuing_paradigm_dot,2024.1.5,Win32,59.52380952,682d573fa47f1360d1451895,,,,,,,,,,,,,,,,,,,,,,,,,,,,,,,,,,,,,,,,,,,,,,,,,,,,,,,,,,,,,,,,,,,,,,,,,,,,,,,,,,,,,,,,,,,,,,,,,,,,,,,,,,,,,,,,,
,,,,,,,67e54929de08a1cdb4e08723,682f0ff08ae6c08e95dc106e,2025-05-22_13h53.34.686,cuing_paradigm_dot,2024.1.5,Win32,59.52380952,682d573fa47f1360d1451895,35.0437,67.312,space,2.2411,,,,,,,,,,,,,,,,,,,,,,,,,,,,,,,,,,,,,,,,,,,,,,,,,,,,,,,,,,,,,,,,,,,,,,,,,,,,,,,,,,,,,,,,,,,,,,,,,,,,,,,,,,,,,
,,,,,,,67e54929de08a1cdb4e08723,682f0ff08ae6c08e95dc106e,2025-05-22_13h53.34.686,cuing_paradigm_dot,2024.1.5,Win32,59.52380952,682d573fa47f1360d1451895,,,,,,67.3125,71.6608,space,1.3383,,,,,,,,,,,,,,,,,,,,,,,,,,,,,,,,,,,,,,,,,,,,,,,,,,,,,,,,,,,,,,,,,,,,,,,,,,,,,,,,,,,,,,,,,,,,,,,,,,,,,,,,
,,,,,,,67e54929de08a1cdb4e08723,682f0ff08ae6c08e95dc106e,2025-05-22_13h53.34.686,cuing_paradigm_dot,2024.1.5,Win32,59.52380952,682d573fa47f1360d1451895,,,,,,,,,,,71.749,72.1638,72.1649,72.4107,72.4111,73.6145,right,1.1553,,73.615,74.7146,0,0,0,1,1,0.2,,,,,,,,,,,,,,,,,,,,,,,,,,,,,,,,,,,,,,,,,,,,,,,,,,,,,,,,,,,,,,,,,,,,,,,,,,,,,,,,,,,,,,
,,,,,,,67e54929de08a1cdb4e08723,682f0ff08ae6c08e95dc106e,2025-05-22_13h53.34.686,cuing_paradigm_dot,2024.1.5,Win32,59.52380952,682d573fa47f1360d1451895,,,,,,,,,,,74.7166,75.2137,75.2137,75.4498,75.45,76.3647,left,0.8993,,76.365,77.4653,0,1,1,0,1,0.8,,,,,,,,,,,,,,,,,,,,,,,,,,,,,,,,,,,,,,,,,,,,,,,,,,,,,,,,,,,,,,,,,,,,,,,,,,,,,,,,,,,,,,
,,,,,,,67e54929de08a1cdb4e08723,682f0ff08ae6c08e95dc106e,2025-05-22_13h53.34.686,cuing_paradigm_dot,2024.1.5,Win32,59.52380952,682d573fa47f1360d1451895,,,,,,,,,,,,,,,,,,,,,,,,,,,,77.4664,88.7331,space,8.2621,,,,,,,,,,,,,,,,,,,,,,,,,,,,,,,,,,,,,,,,,,,,,,,,,,,,,,,,,,,,,,,,,,,,,,,,,,,,,,,,,,
,,,,,,,67e54929de08a1cdb4e08723,682f0ff08ae6c08e95dc106e,2025-05-22_13h53.34.686,cuing_paradigm_dot,2024.1.5,Win32,59.52380952,682d573fa47f1360d1451895,,,,,,,,,,,88.7672,89.2371,,,89.4665,90.9628,,,,,,,,,,,0.5,,,,,,89.2384,89.4664,90.964,"[0.08482206333096995,-0.06596188477733704]","[-1,-1,-1]","[0.007367563274836593,0.1791755725551433]","[-1,-1,-1]","[-0.1555900822720974,0.09902264786316899]","[-1,-1,-1]","[-0.06220227127123876,0.13928074369069315]","[-1,-1,-1]","[-0.021930053213363155,-0.04307305134487087]","[1,1,1]","[-0.005308712010659977,-0.09833958500444279]","[1,1,1]","[-0.08440260368601538,0.0892781333976603]","[-1,-1,-1]","[-0.17484042864081878,0.027092368659967423]","[-1,-1,-1]","[-0.01872770256250831,-0.19481961145795834]","[1,1,1]","[-0.009437817248844831,0.012476647098984644]","[-1,-1,-1]","[0.04752679945209695,0.0796803020372636]","[1,1,1]","[0.17252094043940236,-0.09650536148860044]","[1,1,1]","[-0.0568884356625915,0.004616237022114269]","[1,1,1]","[0.10160705849484127,0.1499189028487564]","[1,1,1]","[-0.03695948364400148,-0.14271352207962307]","[1,1,1]","[-0.16662015068832398,-0.05303744361480429]","[-1,-1,-1]","[-0.025114992075573845,0.07099472958224744]","[1,1,1]","[-0.07413602376654892,-0.08100819752435383]","[-1,-1,-1]","[0.04476841971253317,0.022526858687305227]","[1,1,1]","[0.01737300377704761,-0.16139785526488665]","[1,1,1]","[0.042191681982678864,0.1549305734993672]","[1,1,1]","[0.14577833819068386,0.016593053216097373]","[-1,-1,-1]","[-0.09845072135409151,-0.15950762740127614]","[1,1,1]","[0.06539121344261385,0.18849378003339673]","[1,1,1]","[-0.040432290690903185,0.18668517347212998]","[-1,-1,-1]","[-0.14717774941166248,-0.09465167076314769]","[-1,-1,-1]","[-0.12992607432414788,0.030429757997420773]","[-1,-1,-1]","[-0.11114421060573622,0.1468192526527438]","[-1,-1,-1]","[0.09131839864172776,0.08414768248921256]","[-1,-1,-1]","[0.1078628390813315,-0.16036321482947485]","[1,1,1]","[0.1246541150618974,-0.09611733650897694]","[-1,-1,-1]","[0.191426894387005,-0.05089363057222065]","[1,1,1]","[0.02,0.02]",92.0649,0,0,0,118,1,,,,,,,
,,,,,,,67e54929de08a1cdb4e08723,682f0ff08ae6c08e95dc106e,2025-05-22_13h53.34.686,cuing_paradigm_dot,2024.1.5,Win32,59.52380952,682d573fa47f1360d1451895,,,,,,,,,,,92.0675,92.5645,,,92.8159,93.9161,left,1.085,,,,,,,,,0.6,,,,,,92.5647,92.8158,93.9164,"[0.1131678497072874,-0.023476708243458693]","[1,1,1]","[0.18042115484878932,-0.08092116919311527]","[1,1,1]","[0.13596964815754894,-0.09385899988752071]","[1,1,1]","[0.17749777313425064,0.044472910803646855]","[1,1,1]","[-0.12444530096765552,-0.15309508398082214]","[-1,-1,-1]","[-0.04032111093996306,0.05376164887554616]","[-1,-1,-1]","[0.0726958075248928,-0.09400607903268704]","[-1,-1,-1]","[-0.11457495736021932,0.030334433994514135]","[-1,-1,-1]","[-0.15739365229365004,0.04635681098409901]","[1,1,1]","[0.08391918949969553,0.07081372855768053]","[1,1,1]","[-0.18325891043244966,0.0025136583899155874]","[-1,-1,-1]","[0.015332818858280781,0.04938190151333864]","[-1,-1,-1]","[-0.11585224104775606,0.14972673836770203]","[1,1,1]","[0.11365141266204293,-0.13989849507827173]","[1,1,1]","[-0.007888634060638779,0.08622009919298261]","[-1,-1,-1]","[-0.14150278241775033,-0.021959423495928398]","[-1,-1,-1]","[0.03975887374943142,0.13232571857018635]","[1,1,1]","[0.12375185677274415,0.11839138286896624]","[1,1,1]","[-0.037641837182033615,0.0070211563940741845]","[1,1,1]","[0.026622364128432836,-0.08461110721961727]","[1,1,1]","[-0.04268170567946167,-0.06589249351756755]","[1,1,1]","[0.05766029779831683,0.012283438995314984]","[-1,-1,-1]","[0.007536723067341467,-0.13608935499502994]","[1,1,1]","[-0.0643396790994046,0.1547773123700263]","[-1,-1,-1]","[-0.12591631494149816,-0.10240658679044433]","[1,1,1]","[-0.004372149634263508,-0.03984492278037637]","[1,1,1]","[-0.015130959077103875,0.16351189382528547]","[1,1,1]","[-0.03188860076765108,-0.1473078291392447]","[-1,-1,-1]","[0.03336993783609548,0.19075754152702654]","[1,1,1]","[0.0741703999405939,0.16437531150514134]","[-1,-1,-1]","[-0.08041470203845759,-0.14903700364272865]","[-1,-1,-1]","[-0.061841357104380754,0.11172610318117664]","[1,1,1]","[0.02,0.02]",95.0153,0,1,1,156,1,,,,,,,
,,,,,,,67e54929de08a1cdb4e08723,682f0ff08ae6c08e95dc106e,2025-05-22_13h53.34.686,cuing_paradigm_dot,2024.1.5,Win32,59.52380952,682d573fa47f1360d1451895,,,,,,,,,,,95.0169,95.5152,,,95.757,96.4238,right,0.6531,,,,,,,,,0.1,,,,,,95.5153,95.7569,96.4239,"[0.14069767485855827,0.03372189261335249]","[-1,-1,-1]","[0.06273762942856875,-0.0743634721901738]","[-1,-1,-1]","[-0.15824433003769778,0.004136711426207355]","[-1,-1,-1]","[0.12904009141700734,0.10680529812053113]","[-1,-1,-1]","[-0.06506307204558193,-0.045544913297194574]","[-1,-1,-1]","[0.12455884325427832,-0.11936801034717254]","[-1,-1,-1]","[0.03274056989621088,0.0031083251454839967]","[-1,-1,-1]","[0.049624933211682196,-0.1379905215235887]","[-1,-1,-1]","[0.08521609175158347,0.13857065392904974]","[-1,-1,-1]","[-0.11798258570440687,0.013572502174415206]","[-1,-1,-1]","[-0.02300022216004114,0.058871158771970175]","[1,1,1]","[0.009733793210656913,0.19347310161452172]","[-1,-1,-1]","[0.16974780379116244,-0.10383605789790874]","[-1,-1,-1]","[0.08995044666560906,-0.17055365870220396]","[-1,-1,-1]","[-0.01263530786821526,-0.05556751862355618]","[-1,-1,-1]","[-0.12386173479802758,0.13366053250367319]","[-1,-1,-1]","[0.1838792409882876,0.06300742869838753]","[-1,-1,-1]","[-0.0812855326377401,0.06811326311520824]","[-1,-1,-1]","[0.0011779069343990105,-0.12215978189255]","[-1,-1,-1]","[-0.1068629169540973,-0.1281944657830656]","[-1,-1,-1]","[0.025331603389002016,0.05457533543502554]","[-1,-1,-1]","[-0.03067877726581216,0.11906796203341029]","[-1,-1,-1]","[0.08465561741477998,0.09353739282410707]","[-1,-1,-1]","[-0.14652227431155967,0.09987006862969307]","[-1,-1,-1]","[-0.04671845747726036,-0.09350753441094357]","[-1,-1,-1]","[-0.13345078488524387,-0.0651972099617527]","[-1,-1,-1]","[0.013299980498234474,-0.18920683040607503]","[-1,-1,-1]","[-0.06340429711201406,0.16239881737564554]","[-1,-1,-1]","[-0.0063475516819132115,-0.0058644421869557895]","[-1,-1,-1]","[0.04582319798913061,0.16780208275548128]","[1,1,1]","[0.1840101032078271,-0.03737351799459797]","[1,1,1]","[0.041284262378665955,0.10425004020090177]","[-1,-1,-1]","[0.02,0.02]",97.5243,0,2,2,24,1,,,,,,,
,,,,,,,67e54929de08a1cdb4e08723,682f0ff08ae6c08e95dc106e,2025-05-22_13h53.34.686,cuing_paradigm_dot,2024.1.5,Win32,59.52380952,682d573fa47f1360d1451895,,,,,,,,,,,97.526,98.0246,,,98.2747,98.9589,left,0.67,,,,,,,,,0.6,,,,,,98.0247,98.2746,98.959,"[0.07060057869484113,-0.16276814622602293]","[1,1,1]","[-0.03811028016880994,0.16191229071183696]","[-1,-1,-1]","[0.08248809756655172,-0.03509417966123307]","[1,1,1]","[0.16294280996816202,-0.0542040336565]","[1,1,1]","[0.018370538973697975,0.16072068927053423]","[-1,-1,-1]","[-0.028324098529702826,0.05326110323089333]","[-1,-1,-1]","[0.12372959715589894,-0.0714154356257088]","[1,1,1]","[0.06512135693722162,0.1692460525680319]","[1,1,1]","[0.027074257859398376,-0.1766456435882448]","[1,1,1]","[-0.08157473264630088,0.08467825669324537]","[-1,-1,-1]","[-0.11972798118566438,-0.14852891080475913]","[1,1,1]","[-0.07391314778153543,-0.17780402623234498]","[1,1,1]","[-0.039770770857428764,0.11611618920031042]","[-1,-1,-1]","[-0.1758572460923337,-0.017764116242645074]","[-1,-1,-1]","[-0.002117435468595425,-0.01896958579625625]","[1,1,1]","[-0.02717711959183289,-0.14922893379412058]","[-1,-1,-1]","[-0.15293444113492977,-0.09480763281909171]","[1,1,1]","[-0.10525293435015728,-0.0478045684384645]","[1,1,1]","[-0.08549140115779927,0.025461212268130355]","[-1,-1,-1]","[-0.009613996863008461,-0.06961875624427259]","[1,1,1]","[0.18634077725500228,0.01194898433231209]","[1,1,1]","[-0.12998208231117198,0.005986356642605671]","[-1,-1,-1]","[0.07308676359893573,0.06265251901929758]","[1,1,1]","[-0.15032689236583013,0.05269728079282791]","[1,1,1]","[0.10520867866218424,0.008301083454818944]","[1,1,1]","[-0.07317325311232435,-0.12974933703031027]","[1,1,1]","[0.05419580267128713,0.021780378651190813]","[1,1,1]","[0.1366716651698049,0.08198713225149754]","[-1,-1,-1]","[0.04491886755140787,-0.07776463794957919]","[-1,-1,-1]","[0.08972752980732397,0.11610786000649075]","[1,1,1]","[-0.13371860802364136,0.09261142670893502]","[-1,-1,-1]","[0.030278067273136908,0.09895962888974094]","[-1,-1,-1]","[0.02,0.02]",100.0591,0,3,3,167,1,,,,,,,
,,,,,,,67e54929de08a1cdb4e08723,682f0ff08ae6c08e95dc106e,2025-05-22_13h53.34.686,cuing_paradigm_dot,2024.1.5,Win32,59.52380952,682d573fa47f1360d1451895,,,,,,,,,,,100.061,100.5592,,,100.8093,101.3923,right,0.5681,,,,,,,,,0.55,,,,,,100.5594,100.8093,101.3924,"[-0.04287256133015518,0.19529260730237472]","[-1,-1,-1]","[-0.015451458195141623,0.13928814357091343]","[1,1,1]","[0.15155723738433682,0.06514488536314225]","[1,1,1]","[-0.006516078384211682,-0.13206009339265176]","[-1,-1,-1]","[-0.13302728827498167,-0.10029389122424823]","[-1,-1,-1]","[0.1694677281087657,0.005096677027466526]","[1,1,1]","[0.16702688861966225,-0.0774473373139773]","[1,1,1]","[0.06566849959553647,-0.06287012296141663]","[-1,-1,-1]","[0.10942773038021428,0.08934787487143198]","[1,1,1]","[-0.094967040318556,0.08670616959999194]","[1,1,1]","[-0.14654297506363023,0.02812969740896137]","[1,1,1]","[-0.07768833753834287,-0.14383331761117862]","[1,1,1]","[0.1170995532565482,-0.06303170368818936]","[-1,-1,-1]","[-0.033293568071700176,-0.1799824939979164]","[-1,-1,-1]","[-0.006578767391231779,0.0333834359458488]","[1,1,1]","[0.08040930750093472,0.17395543166764485]","[-1,-1,-1]","[0.0009216953727186199,0.07289598403097663]","[1,1,1]","[0.0020336678405190474,-0.07850966016461822]","[1,1,1]","[0.0439272778617557,-0.1593418648969446]","[-1,-1,-1]","[0.03004247672673827,0.179877009122532]","[-1,-1,-1]","[0.08871283463720647,-0.16523458190317444]","[-1,-1,-1]","[-0.05053520255733157,-0.03400626484158316]","[-1,-1,-1]","[-0.08653184165539893,-0.07948945321204688]","[1,1,1]","[-0.1609611997006737,0.11280492939867168]","[1,1,1]","[0.0731499810227773,0.05005458871443267]","[1,1,1]","[0.1498573050757379,-0.0392339227195341]","[-1,-1,-1]","[-0.16841855004464457,-0.03328049001138815]","[-1,-1,-1]","[0.04496724127615305,-0.015512359871853822]","[1,1,1]","[-0.12309975529465746,-0.025826645943408996]","[-1,-1,-1]","[0.11739238466118976,-0.12473753854674569]","[1,1,1]","[0.0959352946861534,0.01649216117422555]","[1,1,1]","[-0.10148551570797573,0.1369132558772567]","[1,1,1]","[0.02,0.02]",102.4936,0,4,4,131,1,,,,,,,
,,,,,,,67e54929de08a1cdb4e08723,682f0ff08ae6c08e95dc106e,2025-05-22_13h53.34.686,cuing_paradigm_dot,2024.1.5,Win32,59.52380952,682d573fa47f1360d1451895,,,,,,,,,,,102.4953,102.9935,,,103.2365,103.754,left,0.5016,,,,,,,,,0.55,,,,,,102.9936,103.2365,103.7541,"[-0.14096338566071137,-0.1338088814365992]","[-1,-1,-1]","[-0.08460551288767394,0.039864178455723855]","[-1,-1,-1]","[0.08951949404982092,-0.16336631906692792]","[-1,-1,-1]","[0.031245541499185715,0.18332848755400147]","[-1,-1,-1]","[0.10438621753953155,0.11473465498909584]","[-1,-1,-1]","[-0.10704598991888672,-0.16384809484596347]","[-1,-1,-1]","[0.021814870995871056,-0.09790586191700475]","[1,1,1]","[-0.10935763411502873,-0.05362961478532637]","[1,1,1]","[0.12071815077118675,-0.0049097433614852665]","[-1,-1,-1]","[-0.11165685234312392,0.07240673615153183]","[1,1,1]","[-0.03620011830639489,0.17656380784482825]","[-1,-1,-1]","[-0.04678618175813827,-0.07254473395235726]","[1,1,1]","[-0.0001578232283420069,0.14305778635912775]","[-1,-1,-1]","[0.11470432189296575,-0.05489845358857218]","[1,1,1]","[0.07407200444959844,-0.0063069589520274695]","[-1,-1,-1]","[-0.008509039199848183,-0.18576853591833054]","[-1,-1,-1]","[0.12164483909256428,-0.11395084421546324]","[1,1,1]","[0.06917453829174686,0.07096859609752118]","[1,1,1]","[-0.13111087815091113,-0.007392929565607742]","[1,1,1]","[0.1790322713044587,-0.07486413491671834]","[-1,-1,-1]","[-0.024571997017713298,-0.03032233850626417]","[1,1,1]","[0.06400849953438285,-0.12066322278254861]","[1,1,1]","[-0.1199402860805241,-0.09798418745547154]","[1,1,1]","[0.03837466624186154,-0.060406504065276055]","[1,1,1]","[0.026679211795737637,0.10851137018397762]","[-1,-1,-1]","[0.1675054982912885,0.054416082726314874]","[1,1,1]","[-0.14385423253982746,0.11734737574708055]","[1,1,1]","[-0.17470987579501532,0.08285085989733189]","[1,1,1]","[-0.004981968888752388,0.05785147744925065]","[1,1,1]","[-0.19774032015879728,-0.008348187367444908]","[1,1,1]","[0.09017061801613713,0.16964453395694806]","[-1,-1,-1]","[-0.07685166352976973,0.1252850386853862]","[1,1,1]","[0.02,0.02]",104.8459,0,5,5,143,1,,,,,,,
,,,,,,,67e54929de08a1cdb4e08723,682f0ff08ae6c08e95dc106e,2025-05-22_13h53.34.686,cuing_paradigm_dot,2024.1.5,Win32,59.52380952,682d573fa47f1360d1451895,,,,,,,,,,,104.8465,105.3358,,,105.586,106.1392,right,0.5357,,,,,,,,,0.5,,,,,,105.3359,105.586,106.1393,"[-0.00476947690456325,0.18286701658776655]","[-1,-1,-1]","[-0.023721618061972333,0.04668022904897326]","[1,1,1]","[0.11596048419785637,-0.03969451333234948]","[1,1,1]","[0.0671565896788242,0.1366723012216788]","[-1,-1,-1]","[0.15691881359045126,-0.0795511708967203]","[-1,-1,-1]","[-0.1608718870102311,0.11292447169625167]","[-1,-1,-1]","[-0.11922040885309056,0.1463661058851017]","[-1,-1,-1]","[-0.007619356740929745,0.1363847033968716]","[-1,-1,-1]","[-0.1631111037566329,-0.06712811922548095]","[-1,-1,-1]","[0.10276755576831058,0.043017497327479046]","[1,1,1]","[-0.14117903849038735,0.006420616747297527]","[1,1,1]","[-0.04956132761899871,-0.07534657451470653]","[1,1,1]","[0.19856037942345517,0.005516982492339031]","[-1,-1,-1]","[-0.0180505045596818,-0.1146480744831576]","[-1,-1,-1]","[0.048859607116424356,0.06285133095796239]","[1,1,1]","[0.016300707251641542,0.09116089756958513]","[-1,-1,-1]","[-0.10539420301543549,-0.09256926564125213]","[1,1,1]","[-0.1881464198143617,-0.0013411986542920815]","[-1,-1,-1]","[-0.08899868358204749,0.0011024708404561844]","[1,1,1]","[-0.16862680682886327,0.0428443267255137]","[1,1,1]","[0.05323027092616629,-0.15889950350092719]","[-1,-1,-1]","[0.0194971394991779,-0.05062977973638491]","[-1,-1,-1]","[-0.11827559194904465,0.07629098665665231]","[1,1,1]","[0.1685598487649892,0.05862673936136533]","[-1,-1,-1]","[0.02029887356708153,-0.18831409714540912]","[1,1,1]","[0.06252810921801956,-0.11717218686770395]","[1,1,1]","[-0.07002149071799775,0.11934942845962503]","[1,1,1]","[0.10062644887958769,-0.10434618989589609]","[-1,-1,-1]","[-0.07535843158573392,0.1662677142068793]","[1,1,1]","[-0.07152266702261682,0.046407729346167284]","[-1,-1,-1]","[0.12465768350911306,-0.14556826584759933]","[1,1,1]","[0.038611349540547624,0.012189933553132935]","[1,1,1]","[0.02,0.02]",107.2292,0,6,6,105,1,,,,,,,
,,,,,,,67e54929de08a1cdb4e08723,682f0ff08ae6c08e95dc106e,2025-05-22_13h53.34.686,cuing_paradigm_dot,2024.1.5,Win32,59.52380952,682d573fa47f1360d1451895,,,,,,,,,,,107.231,107.7208,,,107.9634,108.5466,left,0.5683,,,,,,,,,0.55,,,,,,107.7208,107.9633,108.5467,"[-0.00890500761741773,-0.112168203570677]","[1,1,1]","[0.19914007692933192,-0.01786970204176957]","[-1,-1,-1]","[0.12149820913742014,-0.024524791281071538]","[-1,-1,-1]","[-0.07697472798194559,-0.10070508304547354]","[-1,-1,-1]","[-0.09363509245196427,-0.024993339564806986]","[1,1,1]","[0.01958973609903662,-0.18074501406219876]","[1,1,1]","[-0.07781671212988862,0.11051552117339265]","[1,1,1]","[-0.012700003024288154,0.18869634024007118]","[-1,-1,-1]","[0.07681584141588536,-0.054481366266343624]","[1,1,1]","[0.03312146641994442,0.02193268757882221]","[-1,-1,-1]","[0.03434494313524113,-0.1181013127321624]","[1,1,1]","[-0.06225723073799683,-0.16687615993260954]","[-1,-1,-1]","[0.07946751531144255,-0.11165875484445796]","[-1,-1,-1]","[-0.12261426472123964,0.08419454899844327]","[-1,-1,-1]","[0.1062690054544142,0.07812710849074853]","[1,1,1]","[-0.005397378044360924,-0.05507086144525486]","[1,1,1]","[-0.1747981343358217,0.014968170418027284]","[1,1,1]","[-0.10575288705975018,-0.1323348266195369]","[1,1,1]","[0.0836889966694212,-0.16048817994662817]","[1,1,1]","[0.06685601424159844,0.17175659596372536]","[-1,-1,-1]","[-0.14186171607473075,-0.045284770807880535]","[-1,-1,-1]","[-0.04674980130749916,-0.049625237430965766]","[1,1,1]","[-0.03145485847981066,0.012560502460781093]","[-1,-1,-1]","[0.1296419520233162,-0.07628628616059832]","[1,1,1]","[-0.03280774682864987,0.11857552884505622]","[-1,-1,-1]","[-0.17193198558314451,-0.0811916427506018]","[1,1,1]","[0.027457518559286558,0.15144120094814667]","[-1,-1,-1]","[-0.11634011572671499,0.14564346271040712]","[1,1,1]","[0.10461238555039667,0.12857743252714898]","[1,1,1]","[-0.016304060377835744,0.054378368889839816]","[1,1,1]","[0.15852599866552416,-0.0019207079357440936]","[-1,-1,-1]","[0.013566807446196509,0.1061915231715427]","[1,1,1]","[0.02,0.02]",109.6464,0,7,7,146,1,,,,,,,
,,,,,,,67e54929de08a1cdb4e08723,682f0ff08ae6c08e95dc106e,2025-05-22_13h53.34.686,cuing_paradigm_dot,2024.1.5,Win32,59.52380952,682d573fa47f1360d1451895,,,,,,,,,,,109.6479,110.1466,,,110.4011,110.7642,right,0.3504,,,,,,,,,0.4,,,,,,110.1466,110.4009,110.7644,"[-0.08742865592675399,0.1774054193506368]","[-1,-1,-1]","[-0.17656978848325555,-0.05208881633426993]","[1,1,1]","[-0.0944774108512331,-0.13907134605873123]","[-1,-1,-1]","[0.03564017602352268,0.13851053963258808]","[-1,-1,-1]","[-0.10240424119103267,0.06054185461911427]","[1,1,1]","[0.17649679201775237,-0.05545426576727074]","[-1,-1,-1]","[0.013662622796985192,0.06865381502091408]","[1,1,1]","[0.01294264061345869,-0.10457286735478152]","[1,1,1]","[-0.029649225033069368,-0.18496166400725422]","[-1,-1,-1]","[0.07387018208546528,0.05789238650487277]","[-1,-1,-1]","[-0.06292293735272877,0.11033658256684187]","[1,1,1]","[0.08274203195037294,0.16266054154297294]","[-1,-1,-1]","[0.14056405136009567,0.022313073510563403]","[-1,-1,-1]","[0.037747921073874674,-0.180907900967934]","[-1,-1,-1]","[-0.028344512380431734,0.03942946152942991]","[1,1,1]","[0.0472749164471737,-0.015488901587831018]","[-1,-1,-1]","[-0.04700995773873358,-0.029161047675821252]","[-1,-1,-1]","[-0.07681334260636997,-0.07433296240365532]","[-1,-1,-1]","[-0.03166219274191126,-0.10601911895337403]","[-1,-1,-1]","[0.13932247674772327,-0.0771683832468707]","[-1,-1,-1]","[0.11218057720832761,0.10126476061322973]","[1,1,1]","[0.10214981369560194,-0.05828608932674854]","[1,1,1]","[-0.19882584335411624,0.009634022262850145]","[1,1,1]","[-0.15482972147384733,-0.11326661524074014]","[1,1,1]","[0.17390514343053234,-0.003221691997278003]","[1,1,1]","[0.10430686560023487,-0.15020923262703936]","[1,1,1]","[0.05830898489657015,-0.05851180912778168]","[1,1,1]","[-0.11783197222465219,0.11885963953885179]","[-1,-1,-1]","[0.00320408435682217,-0.005613023422251105]","[-1,-1,-1]","[0.08021211857674865,-0.11346714728963145]","[-1,-1,-1]","[-0.11508331724675536,-0.03065714673962382]","[-1,-1,-1]","[-0.06899532008223443,0.02073137553995009]","[-1,-1,-1]","[0.02,0.02]",111.8655,0,8,8,33,1,,,,,,,
,,,,,,,67e54929de08a1cdb4e08723,682f0ff08ae6c08e95dc106e,2025-05-22_13h53.34.686,cuing_paradigm_dot,2024.1.5,Win32,59.52380952,682d573fa47f1360d1451895,,,,,,,,,,,111.8663,112.3657,,,112.6151,113.1994,right,0.5694,,,,,,,,,0.4,,,,,,112.3658,112.615,113.1994,"[-0.03508652775416285,0.08281673269987247]","[-1,-1,-1]","[0.14122180046422428,-0.13107599143612914]","[1,1,1]","[0.04764564799823611,0.19096205731142923]","[-1,-1,-1]","[-0.10384122619351126,0.13511497288966934]","[1,1,1]","[-0.00006905978939571505,-0.18817704360821175]","[1,1,1]","[0.1546218718226925,-0.09326802399614852]","[-1,-1,-1]","[0.12189686811946619,-0.012278966191468458]","[1,1,1]","[-0.031312481948483066,0.157338449871816]","[-1,-1,-1]","[-0.014687535986218126,0.19806462524878213]","[1,1,1]","[-0.16214855244184873,-0.09573077935895957]","[-1,-1,-1]","[0.13551014920708154,0.0883935395915692]","[-1,-1,-1]","[-0.07434906318102379,-0.1828790543947774]","[-1,-1,-1]","[0.010605884321408349,-0.0383905647301491]","[-1,-1,-1]","[0.016252227145425815,0.09061812969878051]","[1,1,1]","[0.14015936776775678,0.13517039006794518]","[-1,-1,-1]","[0.1079516541462799,0.16589141869907048]","[-1,-1,-1]","[0.08268629392782975,0.07344636004925172]","[-1,-1,-1]","[-0.05619292257600125,-0.042121396871682565]","[-1,-1,-1]","[-0.19226342541270172,0.012031982743026508]","[1,1,1]","[-0.036723923227257864,0.03422881687874713]","[1,1,1]","[0.07716163500133956,-0.165782108057869]","[1,1,1]","[-0.12876760770739504,-0.003620793899522274]","[1,1,1]","[-0.12713213961704417,0.07321311187555694]","[-1,-1,-1]","[0.0814713960047858,-0.023715214127048564]","[-1,-1,-1]","[0.05182344457699426,-0.09114778707522035]","[-1,-1,-1]","[0.050494475286163444,0.021881659999599935]","[-1,-1,-1]","[-0.09449367425715789,0.036094377229311775]","[1,1,1]","[-0.09037966549194096,-0.10971992348950477]","[-1,-1,-1]","[0.17446065989396084,-0.000011603870700241228]","[1,1,1]","[0.007350072995058978,-0.14798474749311114]","[-1,-1,-1]","[0.17606021621276655,0.0633270387341141]","[-1,-1,-1]","[-0.1792366913866766,0.0579340385948605]","[1,1,1]","[0.02,0.02]",114.2997,0,9,9,42,1,,,,,,,
,,,,,,,67e54929de08a1cdb4e08723,682f0ff08ae6c08e95dc106e,2025-05-22_13h53.34.686,cuing_paradigm_dot,2024.1.5,Win32,59.52380952,682d573fa47f1360d1451895,,,,,,,,,,,114.3003,114.7998,,,115.0495,115.6342,left,0.5698,,,,,,,,,0.45,,,,,,114.7998,115.0495,115.6343,"[-0.006388882987699466,0.07605121716548927]","[-1,-1,-1]","[0.07663643760595383,-0.15254646130977864]","[-1,-1,-1]","[-0.04868180219771055,-0.16467521016698333]","[1,1,1]","[0.09279409987052986,0.09621119262914012]","[-1,-1,-1]","[-0.11296706254243429,0.06731423108161103]","[-1,-1,-1]","[-0.10994212490013033,0.14897897767941215]","[-1,-1,-1]","[0.1461797890930987,0.06404558035359287]","[-1,-1,-1]","[-0.06841806612633103,-0.09309082702047596]","[-1,-1,-1]","[0.029766292425605027,0.1270261179785723]","[1,1,1]","[0.14362626574288728,-0.06099465219077813]","[-1,-1,-1]","[0.088096503309009,0.02213469611477079]","[-1,-1,-1]","[-0.12052128664880385,0.027659509093487647]","[-1,-1,-1]","[-0.18191831621008056,-0.014488168672164639]","[-1,-1,-1]","[-0.15241404953830107,-0.08707504574524291]","[-1,-1,-1]","[0.010840853801523387,0.1985225958940016]","[1,1,1]","[0.10959277202508834,-0.0956302126810406]","[1,1,1]","[-0.10790950298797908,-0.14899137457036501]","[1,1,1]","[-0.05558166825788623,-0.009375012270901298]","[-1,-1,-1]","[-0.1069099120269925,-0.0643230064706935]","[-1,-1,-1]","[-0.0815978286734825,0.1809033085137753]","[1,1,1]","[-0.050286249360675585,0.07056150118026466]","[1,1,1]","[0.0783655570569433,-0.03376073271754411]","[1,1,1]","[0.021604204922314334,-0.15353455731123958]","[1,1,1]","[-0.03952623872080022,0.163306288761512]","[-1,-1,-1]","[0.18682339603177395,-0.004881345716636988]","[1,1,1]","[-0.016226154162330635,-0.19070474527762787]","[1,1,1]","[0.03687874906629145,-0.04484499944613749]","[-1,-1,-1]","[-0.14722014797866237,0.10834292389555715]","[-1,-1,-1]","[-0.004252964997942567,-0.057511116269002016]","[1,1,1]","[0.1289915556680188,0.011697146041722867]","[1,1,1]","[-0.013152221093104636,-0.005445720754725901]","[1,1,1]","[-0.185901105337478,0.055319109094891676]","[-1,-1,-1]","[0.02,0.02]",116.7343,0,10,10,61,1,,,,,,,
,,,,,,,67e54929de08a1cdb4e08723,682f0ff08ae6c08e95dc106e,2025-05-22_13h53.34.686,cuing_paradigm_dot,2024.1.5,Win32,59.52380952,682d573fa47f1360d1451895,,,,,,,,,,,116.7351,117.2345,,,117.4748,117.9931,right,0.5012,,,,,,,,,0.55,,,,,,117.2347,117.4747,117.9933,"[0.07671538804045465,0.1705827354947807]","[1,1,1]","[0.028097170566110226,0.08964503099421735]","[-1,-1,-1]","[0.10442927758072282,0.09223463443483089]","[-1,-1,-1]","[0.05983716808539909,-0.02631325899532975]","[1,1,1]","[0.052872683147067716,0.1270211165899794]","[1,1,1]","[0.12125841171850132,-0.013583896005534054]","[-1,-1,-1]","[-0.020954672172866815,0.13260753759985044]","[-1,-1,-1]","[-0.014007573072324427,-0.13065730137207204]","[1,1,1]","[-0.10299848468683309,-0.09529084944270534]","[-1,-1,-1]","[0.046747910444749484,-0.13500816514485994]","[1,1,1]","[0.14694974179393855,-0.11192484230862168]","[-1,-1,-1]","[0.08728558057883234,-0.11015929827381037]","[1,1,1]","[0.021158243452734215,-0.1945932906011054]","[1,1,1]","[-0.0018004580833190411,0.04744253230774414]","[1,1,1]","[-0.06225305680565423,0.09796101809076237]","[1,1,1]","[-0.12477280594808111,0.14609278918089466]","[1,1,1]","[0.022961200779275468,0.15380274667278546]","[-1,-1,-1]","[-0.04730920550022903,-0.08672623468482701]","[1,1,1]","[-0.13058968048625247,-0.0003259422553666114]","[-1,-1,-1]","[-0.1495754624641698,0.1137477942592548]","[1,1,1]","[0.018307187511356075,-0.086728748358972]","[-1,-1,-1]","[-0.0774878198929352,-0.12766507904224758]","[-1,-1,-1]","[-0.04560217638974869,-0.036808037121068754]","[-1,-1,-1]","[0.06048248150717772,-0.1814136516153974]","[1,1,1]","[-0.05168342651784706,-0.16987876157653634]","[1,1,1]","[0.1909783901949113,-0.03940890578586062]","[-1,-1,-1]","[-0.11354927022495713,-0.048943877150514785]","[1,1,1]","[-0.17711240459541386,0.05461548731658522]","[1,1,1]","[0.13501617190136084,0.1471297303722111]","[1,1,1]","[0.19012877478865367,0.04192043621695622]","[-1,-1,-1]","[0.08698599197665341,0.01927183084821282]","[-1,-1,-1]","[-0.09345000214151512,0.018280446914471216]","[1,1,1]","[0.02,0.02]",119.084,0,11,11,138,1,,,,,,,
,,,,,,,67e54929de08a1cdb4e08723,682f0ff08ae6c08e95dc106e,2025-05-22_13h53.34.686,cuing_paradigm_dot,2024.1.5,Win32,59.52380952,682d573fa47f1360d1451895,,,,,,,,,,,119.0855,119.5758,,,119.819,120.0515,right,0.2189,,,,,,,,,0.6,,,,,,119.5759,119.8189,120.0515,"[-0.05852010153331054,0.0166494248502672]","[1,1,1]","[-0.07021189305609517,-0.15475617636395142]","[1,1,1]","[0.08532828278956302,-0.13158142064081882]","[1,1,1]","[-0.011023730922604067,0.056914043560994186]","[1,1,1]","[-0.154150981919367,0.08040134146262716]","[1,1,1]","[-0.04974161809601072,0.15191877067690215]","[-1,-1,-1]","[-0.13481486661558026,-0.10439349103226389]","[-1,-1,-1]","[0.16133687580108033,-0.04203187963432453]","[-1,-1,-1]","[0.10897853139638304,0.06029904804419251]","[1,1,1]","[-0.10324129113066859,0.018845167784439835]","[1,1,1]","[-0.03719639748131539,-0.10790190049412152]","[-1,-1,-1]","[0.09456697472707504,-0.08371127214910508]","[-1,-1,-1]","[-0.16554911475270404,-0.07447343159548321]","[-1,-1,-1]","[0.11935250528423982,0.16037905804693325]","[1,1,1]","[-0.15537388017945142,-0.02700880931774433]","[-1,-1,-1]","[0.055318491329482605,0.10819494841311626]","[-1,-1,-1]","[0.026368522205385814,-0.16023562257080975]","[1,1,1]","[0.15289782604766827,0.010749610666340462]","[1,1,1]","[0.06007879727262018,-0.055069498102401665]","[-1,-1,-1]","[0.11270585979459011,0.10255551865902326]","[1,1,1]","[0.09361655814272837,-0.02329121629592645]","[1,1,1]","[0.00559500643760707,0.1142439111839546]","[-1,-1,-1]","[0.02233016711798605,0.15562002722939422]","[1,1,1]","[-0.19620364268675064,-0.0006857579573171574]","[1,1,1]","[-0.005351774295282812,0.195933338889448]","[1,1,1]","[0.0020375870033615164,-0.020633222444986873]","[-1,-1,-1]","[0.002586227452105863,-0.09192415428936183]","[1,1,1]","[-0.07399946229053403,-0.04486639733642395]","[-1,-1,-1]","[-0.1258844304921047,-0.05445961637382878]","[1,1,1]","[-0.12045171373612863,0.12520973699905152]","[1,1,1]","[0.025714730201327134,0.031680197875607274]","[1,1,1]","[-0.05123414277403355,0.09668618972269998]","[-1,-1,-1]","[0.02,0.02]",121.1514,0,12,12,173,1,,,,,,,
,,,,,,,67e54929de08a1cdb4e08723,682f0ff08ae6c08e95dc106e,2025-05-22_13h53.34.686,cuing_paradigm_dot,2024.1.5,Win32,59.52380952,682d573fa47f1360d1451895,,,,,,,,,,,121.1529,121.6518,,,121.902,122.686,right,0.7695,,,,,,,,,0.4,,,,,,121.6519,121.9019,122.686,"[0.008746620964558752,0.05632743707461203]","[1,1,1]","[-0.06492580838623704,-0.006573151275426238]","[-1,-1,-1]","[-0.046666125097350776,0.08753473762615015]","[-1,-1,-1]","[0.04765181966615818,0.028754753642125666]","[-1,-1,-1]","[0.05266811903285661,0.18833924342211603]","[1,1,1]","[-0.012143624432230646,-0.03776334418233424]","[1,1,1]","[0.13077196257995663,-0.10693574843139654]","[1,1,1]","[0.16710260700908536,0.05532323812525319]","[-1,-1,-1]","[-0.17357576549424397,-0.07117657002282116]","[-1,-1,-1]","[-0.0746133835008926,-0.10700909606380392]","[-1,-1,-1]","[0.13575832339309873,-0.05205277818432444]","[-1,-1,-1]","[-0.15611524483658787,0.021098430485815993]","[-1,-1,-1]","[0.0732212649070105,-0.09933760534070589]","[1,1,1]","[-0.0672717471666458,-0.05337138255239706]","[1,1,1]","[0.032814372181296486,-0.13151532261061633]","[-1,-1,-1]","[0.13131208243537906,0.12605898874146806]","[-1,-1,-1]","[0.012595861644477109,0.17999599098541316]","[1,1,1]","[0.19649482942198254,0.023350925060686756]","[1,1,1]","[0.00821898821443536,-0.1827560338897982]","[-1,-1,-1]","[-0.18238993348294913,0.06594452891312899]","[-1,-1,-1]","[0.09307421235181808,-0.14071607383690923]","[-1,-1,-1]","[0.03221408577712322,-0.0895487950697454]","[1,1,1]","[-0.1337470410501857,0.09201131359347521]","[1,1,1]","[-0.08397433770407782,0.13208018354987425]","[1,1,1]","[0.10175557707549188,0.025277878482008284]","[-1,-1,-1]","[-0.10023988173066194,0.051781224443117065]","[-1,-1,-1]","[0.18410012385618052,-0.051244033745992686]","[-1,-1,-1]","[-0.16209210212755712,-0.11238304839298247]","[1,1,1]","[-0.03485573925962765,-0.1385221145866822]","[-1,-1,-1]","[-0.057815286123077056,-0.17947286341992602]","[-1,-1,-1]","[0.09627756041757674,-0.021723647360167707]","[1,1,1]","[-0.12463499721849117,-0.08130826961229619]","[-1,-1,-1]","[0.02,0.02]",123.7864,0,13,13,37,1,,,,,,,
,,,,,,,67e54929de08a1cdb4e08723,682f0ff08ae6c08e95dc106e,2025-05-22_13h53.34.686,cuing_paradigm_dot,2024.1.5,Win32,59.52380952,682d573fa47f1360d1451895,,,,,,,,,,,123.7878,124.2864,,,124.5299,125.0481,left,0.5028,,,,,,,,,0.9,,,,,,124.2864,124.5299,125.0481,"[0.08271304226520676,0.18172132995601792]","[1,1,1]","[-0.06370275649663766,-0.04690845854988061]","[1,1,1]","[-0.1506834439230601,-0.03102508633196816]","[-1,-1,-1]","[-0.12095729249972322,-0.1280132397377696]","[1,1,1]","[0.05303380891266743,-0.16880954151454433]","[1,1,1]","[-0.013003871434195156,0.07720614918720999]","[-1,-1,-1]","[0.14763861858441252,0.02734216473858603]","[1,1,1]","[-0.11037290443361432,0.15014350343374464]","[1,1,1]","[-0.08510534518334575,0.05648008497528806]","[1,1,1]","[0.044831205795652765,-0.06214884810031111]","[1,1,1]","[-0.048030245355775034,0.16328039873228187]","[1,1,1]","[0.18266481227195677,-0.021922888597606705]","[1,1,1]","[-0.001170369490368013,-0.11435624762634014]","[1,1,1]","[-0.028773986823702982,-0.17882591594391414]","[1,1,1]","[0.06912181736239363,0.083935628015355]","[1,1,1]","[-0.1893783661876065,-0.01683089270138744]","[1,1,1]","[-0.07148817122498258,-0.10057184445939436]","[1,1,1]","[0.002896271768946788,-0.005048151730824831]","[1,1,1]","[-0.1518905649534102,0.1139457955938119]","[1,1,1]","[0.11628337215449326,-0.07916788454478434]","[1,1,1]","[-0.09613957945117889,-0.02103850979605033]","[1,1,1]","[-0.006485314259344531,0.16931413429823125]","[1,1,1]","[-0.11028311908604273,0.08951968912168533]","[-1,-1,-1]","[-0.17954502718224755,0.03489621907116968]","[1,1,1]","[-0.08777455547152768,-0.16375412861369737]","[1,1,1]","[0.03930486850709346,0.16772167285886128]","[1,1,1]","[0.13527108843411953,0.10429967878608912]","[1,1,1]","[-0.04022595083706353,0.01645885057586783]","[1,1,1]","[0.08077487391380435,0.12907201578344546]","[1,1,1]","[0.0774216372822737,-0.014873038161214188]","[1,1,1]","[0.17220093495894617,0.06589178440463969]","[1,1,1]","[-0.1707349702391354,-0.08531915066805204]","[1,1,1]","[0.02,0.02]",126.1465,0,14,14,207,1,,,,,,,
,,,,,,,67e54929de08a1cdb4e08723,682f0ff08ae6c08e95dc106e,2025-05-22_13h53.34.686,cuing_paradigm_dot,2024.1.5,Win32,59.52380952,682d573fa47f1360d1451895,,,,,,,,,,,126.1476,126.647,,,126.9989,127.4018,right,0.393,,,,,,,,,0.1,,,,,,126.6472,126.9989,127.4018,"[0.10574443588471374,0.050778852475199344]","[-1,-1,-1]","[0.13044501558677873,0.1267006633650514]","[-1,-1,-1]","[-0.03953121379581763,-0.09065478833461092]","[-1,-1,-1]","[0.027414485243293825,-0.0928616554188428]","[1,1,1]","[-0.07752173218236663,-0.025323153733472405]","[-1,-1,-1]","[0.0701753616533624,0.08237987312580501]","[-1,-1,-1]","[-0.1872826092855797,0.062470541920493436]","[-1,-1,-1]","[-0.16503815126396582,-0.11212860976426944]","[-1,-1,-1]","[0.0006729461700676591,0.19909359621938583]","[-1,-1,-1]","[0.16754771029620005,-0.1078184886016379]","[-1,-1,-1]","[0.04404350997899967,-0.1888838991626449]","[-1,-1,-1]","[0.18342526415694077,-0.05092514228205763]","[-1,-1,-1]","[-0.1481931331289356,0.1044444281027467]","[-1,-1,-1]","[-0.008681564772254471,-0.01728987672032528]","[-1,-1,-1]","[-0.01948520270416492,-0.1635276117366315]","[-1,-1,-1]","[0.0727736637821012,-0.09438160361314753]","[1,1,1]","[-0.07518207762913605,0.1532094077900568]","[-1,-1,-1]","[0.03068504722715981,0.05842908568724673]","[-1,-1,-1]","[0.006114844447850435,0.09871852680283373]","[-1,-1,-1]","[0.03023677041324053,-0.1445213328451918]","[-1,-1,-1]","[0.10791164990577407,-0.012561345304213548]","[-1,-1,-1]","[-0.08065811934900069,-0.11794279090361344]","[-1,-1,-1]","[0.15608131265089442,0.0665353660701447]","[-1,-1,-1]","[0.09147121746721712,-0.15392015820433994]","[-1,-1,-1]","[-0.10867855421864692,0.02346812100205896]","[-1,-1,-1]","[-0.12589241740818544,0.06462011501086605]","[-1,-1,-1]","[-0.16964280852987865,0.011290379645089945]","[-1,-1,-1]","[0.06452482867915811,-0.023839466087956663]","[-1,-1,-1]","[0.0407017717345147,0.16711126325825032]","[-1,-1,-1]","[0.190221790487097,0.03092049458639077]","[1,1,1]","[0.03385214088645034,-0.05041350696949366]","[-1,-1,-1]","[0.009124802200537727,0.02075809972221263]","[-1,-1,-1]","[0.02,0.02]",128.4973,0,15,15,25,1,,,,,,,
,,,,,,,67e54929de08a1cdb4e08723,682f0ff08ae6c08e95dc106e,2025-05-22_13h53.34.686,cuing_paradigm_dot,2024.1.5,Win32,59.52380952,682d573fa47f1360d1451895,,,,,,,,,,,128.4989,128.9885,,,129.2309,129.7577,right,0.5104,,,,,,,,,0.55,,,,,,128.9886,129.2308,129.7578,"[0.13633000897422953,0.08953198411836172]","[1,1,1]","[0.048644080501878156,0.007436260637841513]","[-1,-1,-1]","[0.11958252783959007,0.026192725302438487]","[1,1,1]","[0.014819540181250009,0.1340697568594817]","[1,1,1]","[-0.19026306913963945,0.02806056434140243]","[1,1,1]","[-0.08610576214276262,0.025348685715355663]","[1,1,1]","[0.11064484708443745,-0.025925888438323524]","[-1,-1,-1]","[0.00601063950953747,-0.18753113456604886]","[1,1,1]","[-0.08850907875275012,-0.08786096335040293]","[-1,-1,-1]","[-0.1077294101745925,-0.03984556401418694]","[1,1,1]","[-0.03746524859547346,0.061728496350662895]","[-1,-1,-1]","[-0.141684379085689,-0.13865978681770208]","[1,1,1]","[0.1844605735636956,-0.07169041252183092]","[-1,-1,-1]","[0.1270013729857583,0.14357349146750886]","[-1,-1,-1]","[-0.10566175526717879,0.10659005447957537]","[1,1,1]","[-0.014238219738075292,-0.04186207192787796]","[-1,-1,-1]","[-0.06447786323978896,0.18292638501517233]","[-1,-1,-1]","[-0.06577876627120673,0.13568043800277252]","[-1,-1,-1]","[-0.025922288547269707,0.11422817658579439]","[-1,-1,-1]","[-0.14932786126569084,-0.0844892889755251]","[1,1,1]","[0.006848632830681779,0.03948394736065627]","[1,1,1]","[-0.06224064167908182,-0.18965765951850214]","[-1,-1,-1]","[-0.11164081639605228,0.1523438215421692]","[1,1,1]","[0.058000055861110206,-0.13461565905639247]","[-1,-1,-1]","[0.03002594131574827,-0.0645834162668799]","[1,1,1]","[0.1277536949062555,-0.14325532757840598]","[1,1,1]","[0.093127385869557,-0.07984681676651587]","[1,1,1]","[0.0837718979209174,-0.18117362255105507]","[1,1,1]","[0.15765201289882017,-0.004798841874106631]","[1,1,1]","[-0.18608782205628321,-0.06726377358748246]","[1,1,1]","[-0.1755633589665563,0.08823239141076232]","[-1,-1,-1]","[0.05466263137915627,0.12945512887713573]","[-1,-1,-1]","[0.02,0.02]",130.8463,0,16,16,142,1,,,,,,,
,,,,,,,67e54929de08a1cdb4e08723,682f0ff08ae6c08e95dc106e,2025-05-22_13h53.34.686,cuing_paradigm_dot,2024.1.5,Win32,59.52380952,682d573fa47f1360d1451895,,,,,,,,,,,130.848,131.3482,,,131.5919,132.09,left,0.4843,,,,,,,,,0.45,,,,,,131.3483,131.5918,132.0901,"[0.06904952796221693,0.14270086689667824]","[-1,-1,-1]","[-0.09303819554465892,0.000192378306091126]","[-1,-1,-1]","[-0.022451850844141908,0.12806238141067613]","[1,1,1]","[-0.023786516581765123,-0.11034877452356848]","[1,1,1]","[-0.15875065828953022,-0.07505639139630307]","[1,1,1]","[-0.06943675116216963,0.15639052145656523]","[1,1,1]","[0.021728580982799495,-0.07169530852537766]","[-1,-1,-1]","[0.06914808756925116,-0.06197977801354524]","[1,1,1]","[0.16695845687116562,0.013941213784975115]","[-1,-1,-1]","[-0.05621784242966716,-0.1490555633993937]","[-1,-1,-1]","[0.14948649054606938,0.055156866748398]","[-1,-1,-1]","[-0.09202556023023573,-0.0946480360533235]","[-1,-1,-1]","[-0.1450875607204503,0.11229715553766731]","[1,1,1]","[0.1037486546911806,0.061130597627555495]","[1,1,1]","[-0.10153972474170696,0.13059330162488608]","[-1,-1,-1]","[0.12074283279669261,-0.007587581074249715]","[-1,-1,-1]","[0.0024027797883931453,0.07537679623548908]","[-1,-1,-1]","[-0.009375000340669855,0.19005809333237386]","[-1,-1,-1]","[0.0013466866267698692,-0.004498249070471905]","[1,1,1]","[-0.1304980662433366,0.04708938248852164]","[-1,-1,-1]","[0.14469638740306204,0.10250803841056463]","[-1,-1,-1]","[0.05232678924134964,0.01504988875012502]","[1,1,1]","[0.13524098520448052,-0.05096311807543502]","[1,1,1]","[0.16462442949424536,-0.11218478947224818]","[1,1,1]","[0.06928580386256067,-0.12592782067301572]","[-1,-1,-1]","[-0.016414508135551176,-0.05887377099223341]","[-1,-1,-1]","[-0.06781274986693606,0.07664108816895253]","[1,1,1]","[0.02431325702303518,0.13538211592560517]","[-1,-1,-1]","[0.12607449601293041,-0.14397907563951892]","[1,1,1]","[-0.10904402810235024,-0.15025426629613228]","[-1,-1,-1]","[0.08899224515907941,-0.17761650274630822]","[1,1,1]","[0.015295061889250828,-0.1309504352442588]","[-1,-1,-1]","[0.02,0.02]",133.1903,0,17,17,69,1,,,,,,,
,,,,,,,67e54929de08a1cdb4e08723,682f0ff08ae6c08e95dc106e,2025-05-22_13h53.34.686,cuing_paradigm_dot,2024.1.5,Win32,59.52380952,682d573fa47f1360d1451895,,,,,,,,,,,133.1918,133.6909,,,133.9351,134.2503,right,0.3011,,,,,,,,,0.9,,,,,,133.6911,133.935,134.2505,"[0.02440094785041735,0.09955608683034237]","[1,1,1]","[0.005864537209190056,-0.07833835094988033]","[1,1,1]","[0.04652232789839131,-0.18788937863058855]","[1,1,1]","[-0.14196828177431697,-0.052425323771387825]","[-1,-1,-1]","[-0.144566983830827,0.0037601568707167077]","[1,1,1]","[0.1121057119833003,-0.08538874812031282]","[1,1,1]","[-0.13765369725471166,-0.11776816082509461]","[1,1,1]","[0.014733222615017888,0.019430956504387416]","[1,1,1]","[0.11958480793054879,-0.1507487217278224]","[1,1,1]","[0.0045834364578226485,0.14572726011213863]","[-1,-1,-1]","[0.15536397597929344,-0.05804774336642501]","[-1,-1,-1]","[-0.072328905819181,-0.14496532396458595]","[1,1,1]","[-0.05975505092285366,-0.046027554657645554]","[1,1,1]","[-0.16963162041783658,-0.09075973568822111]","[1,1,1]","[-0.019336009907440173,-0.003683242984096947]","[1,1,1]","[-0.16319298136108343,0.10942150169786716]","[1,1,1]","[0.08428399515014046,0.08312957551810846]","[1,1,1]","[0.15634444418217747,0.10167271497127325]","[1,1,1]","[0.1109169105526094,0.1474906196260479]","[1,1,1]","[-0.08280956612342699,0.03332418606867004]","[1,1,1]","[0.018119900524652288,-0.12753895852726244]","[1,1,1]","[-0.010623167510694562,0.07077066410858654]","[1,1,1]","[0.19250924604660127,-0.0411623233035171]","[1,1,1]","[0.19154247257527943,0.02709370586305312]","[1,1,1]","[0.18126030838895352,0.06986522998562955]","[1,1,1]","[-0.09258370790260208,-0.08849900841558345]","[1,1,1]","[-0.10209210897770332,0.07652072476626146]","[1,1,1]","[-0.18632897787744632,0.0566325803713827]","[1,1,1]","[0.11851762742192452,-0.01791131904683093]","[1,1,1]","[-0.10633684107919195,-0.021614371843709415]","[1,1,1]","[0.063241571486196,-0.015157702792954177]","[1,1,1]","[0.085422317277974,-0.1744861350875598]","[1,1,1]","[0.02,0.02]",135.3501,0,18,18,201,1,,,,,,,
,,,,,,,67e54929de08a1cdb4e08723,682f0ff08ae6c08e95dc106e,2025-05-22_13h53.34.686,cuing_paradigm_dot,2024.1.5,Win32,59.52380952,682d573fa47f1360d1451895,,,,,,,,,,,135.3515,135.8473,,,136.0931,136.7923,right,0.6853,,,,,,,,,0.4,,,,,,135.8473,136.093,136.7933,"[-0.0659064957821505,-0.1531352602282746]","[-1,-1,-1]","[0.06864171289202302,-0.12224673732785797]","[1,1,1]","[-0.017992523208204752,-0.19061474350738508]","[-1,-1,-1]","[-0.11038331607000128,-0.016422108373430524]","[1,1,1]","[0.01722708721800687,0.1778166435832566]","[-1,-1,-1]","[0.031136275439885664,0.011639106002849422]","[1,1,1]","[0.1343324922383889,-0.029998264240782346]","[1,1,1]","[0.07422787028901348,0.03408767709081681]","[1,1,1]","[0.06404612636327378,0.08521189857811871]","[-1,-1,-1]","[0.02302042232368326,-0.08831124320090722]","[1,1,1]","[0.043076037470150236,0.12185470399156745]","[-1,-1,-1]","[-0.14822195471804075,0.006188339744512966]","[-1,-1,-1]","[0.07786456669945159,0.15566620454168642]","[-1,-1,-1]","[-0.16721390137982026,-0.039066394450263726]","[1,1,1]","[0.09047072881402907,-0.002704664134959296]","[1,1,1]","[-0.04242298230975292,-0.04811428364775552]","[-1,-1,-1]","[-0.056527657406214064,0.06957922552699748]","[1,1,1]","[0.15048673293329679,0.1269946276207707]","[1,1,1]","[-0.027494570863976556,0.1098095572900409]","[1,1,1]","[-0.015087651206185212,-0.11229836327766186]","[1,1,1]","[0.18805050279247865,0.05441465196689562]","[-1,-1,-1]","[-0.13774650929433854,-0.09225344411616455]","[-1,-1,-1]","[0.12083151336777535,-0.126031224233115]","[1,1,1]","[0.1417847910543253,0.0461408068457836]","[-1,-1,-1]","[-0.021843413723300793,0.01388645138497136]","[-1,-1,-1]","[-0.11853824685243652,0.15464898975116942]","[-1,-1,-1]","[-0.09755792853688079,-0.09757818301091187]","[-1,-1,-1]","[-0.14476289893247207,0.1140550127061324]","[-1,-1,-1]","[0.16006803772130415,-0.10745605566919059]","[-1,-1,-1]","[-0.07429148600970627,0.007585398315765328]","[-1,-1,-1]","[-0.10997441650759947,-0.05823737710096344]","[-1,-1,-1]","[0.02429764670142561,-0.15049558864673743]","[-1,-1,-1]","[0.02,0.02]",137.8926,0,19,19,31,1,,,,,,,
,,,,,,,67e54929de08a1cdb4e08723,682f0ff08ae6c08e95dc106e,2025-05-22_13h53.34.686,cuing_paradigm_dot,2024.1.5,Win32,59.52380952,682d573fa47f1360d1451895,,,,,,,,,,,137.8934,138.3927,,,138.6429,139.1931,left,0.5353,,,,,,,,,0.4,,,,,,138.3927,138.6429,139.1932,"[0.11352075756698717,-0.1276484186070223]","[1,1,1]","[-0.08869883537086351,0.02202548629930349]","[-1,-1,-1]","[-0.004272434104768016,-0.09952119188712605]","[-1,-1,-1]","[0.14740003577553112,0.068142832590257]","[1,1,1]","[0.00608404376895986,-0.0060911951751903]","[-1,-1,-1]","[-0.06359494021676378,0.10295444329028579]","[-1,-1,-1]","[-0.1651102482158892,-0.08303762419014593]","[1,1,1]","[0.07816027398458092,0.13660480049399137]","[1,1,1]","[-0.11913775230600597,-0.011009954393213282]","[1,1,1]","[0.0380793886551884,0.15515410185201126]","[-1,-1,-1]","[-0.0595003959191712,0.18336917287201257]","[1,1,1]","[0.053771718951089204,0.09902215850873809]","[-1,-1,-1]","[-0.19097691949292672,0.026068939941837573]","[-1,-1,-1]","[0.0359918641000997,-0.15383044807161397]","[-1,-1,-1]","[0.1635473196987606,-0.11107712149490712]","[1,1,1]","[0.12297869913828055,0.1414523091540451]","[-1,-1,-1]","[-0.18713171863533568,0.06886956022342301]","[1,1,1]","[0.09042739538337013,-0.08729056413471485]","[-1,-1,-1]","[0.05486819114001607,0.0008737950360193197]","[-1,-1,-1]","[-0.02831521977533248,0.03934096500277273]","[-1,-1,-1]","[-0.043786884103837645,-0.08133181307389868]","[1,1,1]","[0.19046913655767855,0.025167120344003327]","[-1,-1,-1]","[-0.09825307441577916,-0.05132098547403691]","[-1,-1,-1]","[0.16947457584411452,-0.03633925981010174]","[1,1,1]","[-0.06199957474054245,0.06119479526078781]","[-1,-1,-1]","[0.12205368276982229,-0.05967996150826851]","[-1,-1,-1]","[0.09047138090780069,0.05435906483592396]","[1,1,1]","[-0.0044596502134191425,0.09917953832338965]","[-1,-1,-1]","[-0.07402071003490553,-0.16039802581616336]","[-1,-1,-1]","[-0.10644050778890955,0.12526904013945317]","[-1,-1,-1]","[0.022181146160692212,0.038260344638901114]","[1,1,1]","[0.05025736406828247,-0.05700316862363459]","[1,1,1]","[0.02,0.02]",140.2938,0,20,20,51,1,,,,,,,
,,,,,,,67e54929de08a1cdb4e08723,682f0ff08ae6c08e95dc106e,2025-05-22_13h53.34.686,cuing_paradigm_dot,2024.1.5,Win32,59.52380952,682d573fa47f1360d1451895,,,,,,,,,,,140.2956,140.7937,,,141.0373,141.7711,left,0.7184,,,,,,,,,0.4,,,,,,140.7938,141.0372,141.7712,"[0.10846937428769589,-0.09060011630636236]","[-1,-1,-1]","[-0.13843883729981962,-0.06411123005026495]","[-1,-1,-1]","[0.054200193772568704,-0.12540779886497894]","[-1,-1,-1]","[0.11703464952494733,0.0535072848965541]","[-1,-1,-1]","[0.11545264518149394,-0.038409885728205494]","[1,1,1]","[-0.15336539413923478,0.0397814424614942]","[-1,-1,-1]","[-0.07422236767054892,0.18368161389948612]","[1,1,1]","[0.16829306142564063,0.050159973680031326]","[-1,-1,-1]","[-0.10023801853573361,-0.017160769035568034]","[-1,-1,-1]","[-0.016464097817780608,0.03397644897651574]","[1,1,1]","[0.17027508748887576,-0.004299174994560569]","[-1,-1,-1]","[0.0670633527444772,0.052072708968070903]","[1,1,1]","[0.12819409408899543,-0.1474820463626905]","[1,1,1]","[0.0018250203269980793,0.11080167611653007]","[1,1,1]","[-0.14849535577112194,-0.00292417435652328]","[-1,-1,-1]","[-0.10351469696980165,-0.12312148335901558]","[1,1,1]","[0.17888910293889448,-0.07810748762846047]","[-1,-1,-1]","[-0.11161651829643912,0.09403946469085273]","[-1,-1,-1]","[0.026233248469257165,-0.011790826742624135]","[-1,-1,-1]","[-0.0650481984801056,0.05979962795292316]","[1,1,1]","[-0.10849672786152742,0.15912093136597924]","[-1,-1,-1]","[-0.1467053093847077,-0.1166059152513695]","[-1,-1,-1]","[-0.01264629648076628,0.17940627153893007]","[1,1,1]","[-0.021860033803617188,-0.16480450469069172]","[-1,-1,-1]","[-0.04512207954690125,-0.059808875818420655]","[1,1,1]","[0.06341578036659974,-0.05786841780049016]","[-1,-1,-1]","[0.0299767060194535,0.18916496405440747]","[-1,-1,-1]","[-0.05212840749100315,-0.13079370844805513]","[1,1,1]","[0.09903360862461699,0.1638369684714327]","[1,1,1]","[-0.19109306926052777,-0.02671083724513502]","[-1,-1,-1]","[0.05986937440432829,0.011031804345469735]","[-1,-1,-1]","[0.02866676157031129,-0.16318141229262098]","[1,1,1]","[0.02,0.02]",142.8696,0,21,21,54,1,,,,,,,
,,,,,,,67e54929de08a1cdb4e08723,682f0ff08ae6c08e95dc106e,2025-05-22_13h53.34.686,cuing_paradigm_dot,2024.1.5,Win32,59.52380952,682d573fa47f1360d1451895,,,,,,,,,,,142.8714,143.3707,,,143.6198,144.3227,right,0.6852,,,,,,,,,0.1,,,,,,143.3708,143.6197,144.3229,"[0.03317541408070527,0.022118340554172375]","[-1,-1,-1]","[-0.14383894300565625,0.06353127168017035]","[-1,-1,-1]","[0.07623143470995775,0.038146753116004586]","[-1,-1,-1]","[-0.04016792123405187,0.08092629574953276]","[-1,-1,-1]","[0.056691106062932574,-0.05957225360801413]","[-1,-1,-1]","[-0.08258647673192634,-0.044367481698608435]","[-1,-1,-1]","[0.040238295436354904,0.1862478676587363]","[-1,-1,-1]","[0.1661685067944121,-0.04938509274009204]","[-1,-1,-1]","[0.13021153996998544,0.04113372250204558]","[-1,-1,-1]","[-0.12459541646822242,0.12293405837193011]","[-1,-1,-1]","[-0.03957152825822118,-0.0038468522117796407]","[-1,-1,-1]","[-0.04982760208562102,0.1883612459702922]","[-1,-1,-1]","[0.03530107393298905,-0.1871850407362861]","[-1,-1,-1]","[0.08144789847363437,-0.15241793229342848]","[-1,-1,-1]","[-0.01048458561870194,-0.19565995421629429]","[-1,-1,-1]","[-0.009892784345007496,-0.0955839866611977]","[1,1,1]","[-0.0049476858232513,0.1574816777126831]","[-1,-1,-1]","[-0.1908399089457949,-0.040189937645247135]","[-1,-1,-1]","[0.05991095985739197,-0.1089527696757429]","[-1,-1,-1]","[-0.1477577233137582,-0.13014435615797393]","[-1,-1,-1]","[-0.12586696910141507,-0.07081162688846272]","[-1,-1,-1]","[-0.07133125678857351,0.037228824904376484]","[-1,-1,-1]","[-0.09255532912878424,-0.16486065223503207]","[-1,-1,-1]","[0.0015549832358617592,0.07624829791990735]","[1,1,1]","[0.11917336857492092,-0.11799470964350188]","[-1,-1,-1]","[0.09156720476561706,0.12215058088415796]","[-1,-1,-1]","[0.10680331034801863,0.15948967794885605]","[-1,-1,-1]","[0.031597613952373274,-0.14277973562123025]","[-1,-1,-1]","[0.16182119858422592,0.07825874867137211]","[-1,-1,-1]","[0.1455918745532277,-0.0031512944778826707]","[-1,-1,-1]","[0.000255989732784136,-0.02599856249032788]","[1,1,1]","[-0.04738284447908998,0.14480410435006377]","[-1,-1,-1]","[0.02,0.02]",145.4212,0,22,22,6,1,,,,,,,
,,,,,,,67e54929de08a1cdb4e08723,682f0ff08ae6c08e95dc106e,2025-05-22_13h53.34.686,cuing_paradigm_dot,2024.1.5,Win32,59.52380952,682d573fa47f1360d1451895,,,,,,,,,,,145.4257,145.9214,,,146.1716,146.4285,right,0.2399,,,,,,,,,0.6,,,,,,145.9214,146.1715,146.4285,"[0.08525829461800273,-0.161213647587923]","[1,1,1]","[-0.027171074385110842,-0.09427805279959889]","[1,1,1]","[0.1503721547286071,0.0014270917741346638]","[1,1,1]","[0.16829319883136556,0.10549543342804507]","[-1,-1,-1]","[-0.08416596988737407,-0.03492826799091297]","[1,1,1]","[0.015348694073356841,-0.10818927991055774]","[1,1,1]","[0.015151447490951438,-0.16188432238623882]","[-1,-1,-1]","[0.014784946419552426,0.12300521708284792]","[-1,-1,-1]","[-0.01998831890629608,-0.025513617736568333]","[-1,-1,-1]","[-0.13177401392939486,0.141128074579341]","[-1,-1,-1]","[-0.030504468719694856,0.056742690342187804]","[1,1,1]","[-0.1931454507205313,0.0411825534888382]","[1,1,1]","[-0.18388643006452696,-0.07219507784342023]","[1,1,1]","[-0.04047706629526813,-0.1367895858336661]","[-1,-1,-1]","[-0.15178854171489295,0.05475432965715085]","[1,1,1]","[0.19100114695824497,0.02382453589082845]","[-1,-1,-1]","[-0.14857433418014124,-0.011688577909377332]","[1,1,1]","[-0.09426790157190502,0.15628014656618056]","[-1,-1,-1]","[-0.10131181183224185,-0.16854947769051803]","[1,1,1]","[0.10992487888829998,0.0598655757370899]","[1,1,1]","[0.06102352059807526,0.11917079801172459]","[1,1,1]","[0.0686193277478416,-0.06601568431447218]","[1,1,1]","[0.058772400901372,0.03356034587915232]","[-1,-1,-1]","[0.1519855889796939,-0.10538357038364166]","[1,1,1]","[0.10436113528419017,0.162155331218639]","[-1,-1,-1]","[0.02657314493207245,0.06690946641395192]","[1,1,1]","[0.07971906637286427,-0.026144560160208996]","[-1,-1,-1]","[0.02541562634784643,0.0017448347186165198]","[1,1,1]","[-0.058829894314490656,0.13044541833459378]","[1,1,1]","[0.12457106864485203,-0.14195752644062617]","[-1,-1,-1]","[0.15313815117014076,0.06492777432280508]","[-1,-1,-1]","[-0.09454609678555677,0.06955573131115375]","[1,1,1]","[0.02,0.02]",147.5205,0,23,23,179,1,,,,,,,
,,,,,,,67e54929de08a1cdb4e08723,682f0ff08ae6c08e95dc106e,2025-05-22_13h53.34.686,cuing_paradigm_dot,2024.1.5,Win32,59.52380952,682d573fa47f1360d1451895,,,,,,,,,,,147.5221,148.0227,,,148.2735,148.7079,right,0.4188,,,,,,,,,0.5,,,,,,148.023,148.2733,148.708,"[0.14481678952865076,-0.01236107606614372]","[1,1,1]","[-0.06406218665805967,-0.10352397532323092]","[-1,-1,-1]","[-0.11288055741759834,-0.055014553397868815]","[-1,-1,-1]","[0.047205742539876486,0.08959236101419346]","[-1,-1,-1]","[0.07038203659998206,-0.11609856542437445]","[1,1,1]","[-0.1511330227828957,-0.11263342262811873]","[-1,-1,-1]","[0.1476478376616651,0.03369684729722009]","[-1,-1,-1]","[0.1359347793706701,-0.06286378648706985]","[-1,-1,-1]","[-0.029785362628298014,0.10795203429132583]","[1,1,1]","[-0.07559205802692096,0.1028886433472638]","[1,1,1]","[0.0029386063090109677,-0.1313720315737886]","[-1,-1,-1]","[-0.05628829492270513,-0.18029639173265394]","[1,1,1]","[0.10000423110840582,0.10445481479007995]","[1,1,1]","[0.08528289512806271,0.14681199287237234]","[-1,-1,-1]","[0.05435379274955767,-0.04947866342445019]","[-1,-1,-1]","[0.020395206518086656,-0.01607116156981941]","[-1,-1,-1]","[-0.1157816154386695,0.09249766155170153]","[1,1,1]","[-0.11798782728752322,0.03621687897744784]","[-1,-1,-1]","[0.1650128129924986,-0.1041253157306498]","[1,1,1]","[-0.0555468048432747,0.045404637654538574]","[1,1,1]","[0.10765710807805345,-0.15999881580022782]","[1,1,1]","[0.08135728237396346,0.051750330825126256]","[1,1,1]","[0.03432961241276142,-0.18284919301323058]","[-1,-1,-1]","[0.1347339915812871,0.07787681423664719]","[1,1,1]","[-0.16713943596843164,-0.06544913983172033]","[-1,-1,-1]","[-0.0756832154097216,0.17748084477994594]","[-1,-1,-1]","[-0.009928563877903938,-0.051784621241470215]","[1,1,1]","[-0.1417110259848125,0.13695188667883604]","[1,1,1]","[0.19835652368424458,0.01161755107333635]","[-1,-1,-1]","[0.0005496255607368025,0.19246642884333195]","[1,1,1]","[0.060807597125991715,0.00874653643086743]","[1,1,1]","[-0.09091155603211565,-0.1335792937277292]","[-1,-1,-1]","[0.02,0.02]",149.8067,0,24,24,104,1,,,,,,,
,,,,,,,67e54929de08a1cdb4e08723,682f0ff08ae6c08e95dc106e,2025-05-22_13h53.34.686,cuing_paradigm_dot,2024.1.5,Win32,59.52380952,682d573fa47f1360d1451895,,,,,,,,,,,149.8086,150.3072,,,150.5597,151.1564,left,0.5826,,,,,,,,,0.55,,,,,,150.3073,150.5594,151.1572,"[-0.09347462450628698,-0.13890441226073608]","[1,1,1]","[0.07228081176661197,-0.1348833650489688]","[1,1,1]","[0.1278141225247885,-0.14766170510431023]","[1,1,1]","[0.17072527629867523,-0.018732379469104617]","[1,1,1]","[0.035163973572563734,-0.061381769795564145]","[1,1,1]","[-0.0007388407339228664,0.027214176026807313]","[-1,-1,-1]","[0.0746158290642514,-0.037976005294678615]","[1,1,1]","[-0.10491501520493046,-0.07655701360917125]","[1,1,1]","[-0.03006079161411889,0.11557027418107425]","[-1,-1,-1]","[-0.08421894112017717,0.14137968837449835]","[-1,-1,-1]","[0.15088756181411772,0.0636157412516156]","[1,1,1]","[0.12726398573834613,-0.051331658079184356]","[1,1,1]","[0.04765301007779323,0.11455418781368146]","[-1,-1,-1]","[0.049999955062578726,-0.17349566003619493]","[-1,-1,-1]","[0.12966481340843755,0.12353304802662737]","[1,1,1]","[-0.1864476357448636,0.025076519388793222]","[-1,-1,-1]","[0.07476545009947415,0.16384668752630857]","[-1,-1,-1]","[-0.0796487011918239,0.052511260903900556]","[1,1,1]","[-0.11597901728874947,0.022886186601738957]","[-1,-1,-1]","[-0.03584590976499183,0.050174077715653326]","[1,1,1]","[-0.06337320710043148,-0.040934284467386166]","[1,1,1]","[-0.001777498647514125,-0.08859962151787847]","[1,1,1]","[-0.0035907874141734423,-0.023971839443118502]","[1,1,1]","[0.11561542640424866,0.036325311735239584]","[-1,-1,-1]","[-0.19095084068048074,-0.019759798294567376]","[-1,-1,-1]","[-0.060076258270132674,-0.18051594026467754]","[1,1,1]","[-0.004141506543925534,0.19963435621816752]","[-1,-1,-1]","[-0.12927227799969207,0.14470038408182043]","[-1,-1,-1]","[-0.17850851961533098,0.08778078145305206]","[1,1,1]","[-0.030171545965465684,0.16573732629740384]","[1,1,1]","[0.055511381649286595,0.029943509769253435]","[-1,-1,-1]","[-0.028251457365327845,-0.13752619060967716]","[-1,-1,-1]","[0.02,0.02]",152.2572,0,25,25,139,1,,,,,,,
,,,,,,,67e54929de08a1cdb4e08723,682f0ff08ae6c08e95dc106e,2025-05-22_13h53.34.686,cuing_paradigm_dot,2024.1.5,Win32,59.52380952,682d573fa47f1360d1451895,,,,,,,,,,,152.2587,152.7579,,,153.0013,153.5834,right,0.569,,,,,,,,,0.4,,,,,,152.7581,153.0011,153.5835,"[-0.14670610835755857,-0.12082449326746762]","[-1,-1,-1]","[0.19439493937811744,0.03211239217319558]","[-1,-1,-1]","[0.0502386598737246,-0.13868582564858425]","[1,1,1]","[0.07233568245531168,0.17791127766744172]","[-1,-1,-1]","[-0.06882926942139866,0.03757779397311845]","[-1,-1,-1]","[-0.05606052491149599,0.15510031800297167]","[1,1,1]","[-0.11168723951611145,-0.15787485290954148]","[-1,-1,-1]","[0.17421302375525854,-0.059742322977699595]","[-1,-1,-1]","[-0.1769148074970604,-0.06540079894982805]","[1,1,1]","[-0.11010739892140287,0.008820392296949144]","[-1,-1,-1]","[-0.00318826567571864,-0.055793707269554106]","[-1,-1,-1]","[-0.13768596643455144,0.03949395071052335]","[-1,-1,-1]","[-0.16167643881184673,-0.02454563622030816]","[-1,-1,-1]","[0.12544958849362853,0.08151366247942517]","[-1,-1,-1]","[0.0982725447477308,-0.03782067321958087]","[-1,-1,-1]","[0.002436199831339749,0.11557789869772353]","[-1,-1,-1]","[-0.01839223408577096,0.1902052996766658]","[1,1,1]","[-0.05425692842754457,-0.0476155954887084]","[1,1,1]","[-0.015411729716483545,-0.14461293103245568]","[-1,-1,-1]","[0.041234476876360074,0.056165128598190645]","[-1,-1,-1]","[0.029160237799382108,-0.029589490758268777]","[1,1,1]","[-0.11291739158198849,-0.0948142824344743]","[-1,-1,-1]","[-0.050487349427095235,0.0020079825103904584]","[1,1,1]","[0.053087237383335824,0.012820504739032412]","[1,1,1]","[0.06430087289679415,0.10798975392613147]","[-1,-1,-1]","[-0.09915974925072213,0.14012216413015957]","[1,1,1]","[-0.0736717073805112,0.0947813413598667]","[1,1,1]","[0.10250092140877463,-0.1187782790751756]","[1,1,1]","[0.16949426673419368,0.08466980221517251]","[1,1,1]","[-0.12094594826379489,0.09000029124354515]","[1,1,1]","[0.09224788368072247,0.0017282080102289984]","[-1,-1,-1]","[0.03318812153075624,-0.1924481999566044]","[-1,-1,-1]","[0.02,0.02]",154.6837,0,26,26,56,1,,,,,,,
,,,,,,,67e54929de08a1cdb4e08723,682f0ff08ae6c08e95dc106e,2025-05-22_13h53.34.686,cuing_paradigm_dot,2024.1.5,Win32,59.52380952,682d573fa47f1360d1451895,,,,,,,,,,,154.6856,155.1837,,,155.4351,156.0342,left,0.5843,,,,,,,,,0.6,,,,,,155.1839,155.4351,156.0343,"[0.11449471176115503,0.15238272435482203]","[-1,-1,-1]","[0.05217737294677905,-0.11632291281721738]","[-1,-1,-1]","[-0.1549786042289563,0.0037824171992906098]","[1,1,1]","[-0.01201848081910624,0.16997081245293047]","[-1,-1,-1]","[0.011845242895604773,-0.031314424355022866]","[1,1,1]","[-0.09066806834694299,0.04111103869449273]","[-1,-1,-1]","[0.1648888440373708,-0.03201062077350547]","[-1,-1,-1]","[0.03972187037652182,0.1835517137027315]","[1,1,1]","[-0.04201349205711971,0.1003575438577248]","[1,1,1]","[-0.016359420346588174,-0.14631266557006184]","[1,1,1]","[0.05768724121384624,0.11586778009784253]","[1,1,1]","[-0.13513241912578908,-0.05968498300443389]","[-1,-1,-1]","[-0.030783660620355664,0.04868449835502506]","[1,1,1]","[-0.1052503381729991,0.1126491080205147]","[-1,-1,-1]","[0.005689205537171421,-0.1823317368123673]","[1,1,1]","[0.026359351256002524,0.08247407831592214]","[-1,-1,-1]","[0.1293052005656745,0.09798011048453231]","[1,1,1]","[0.0484948075732606,-0.17003029590248014]","[-1,-1,-1]","[0.11461810953725778,0.03965200351776603]","[-1,-1,-1]","[0.09685251029063781,-0.03846967015447346]","[1,1,1]","[-0.11743359402899325,-0.15961023945968444]","[1,1,1]","[-0.1583107953072237,-0.0943335491591806]","[1,1,1]","[0.06602305139609786,0.054439735180452156]","[1,1,1]","[-0.053660126823393765,0.16928858401809993]","[1,1,1]","[-0.09120300706906966,-0.08574947964828099]","[-1,-1,-1]","[0.060502529554530504,-0.07383637944970271]","[1,1,1]","[-0.04040270846420962,-0.02112242019361661]","[-1,-1,-1]","[-0.10054026601419865,-0.005465127414660759]","[1,1,1]","[-0.03685400008798588,-0.06859252484026855]","[1,1,1]","[0.16940147193323576,0.07056121890310482]","[-1,-1,-1]","[0.146306283382311,0.011936921113750379]","[1,1,1]","[-0.05949579366414284,-0.15864231097273326]","[1,1,1]","[0.02,0.02]",157.1346,0,27,27,176,1,,,,,,,
,,,,,,,67e54929de08a1cdb4e08723,682f0ff08ae6c08e95dc106e,2025-05-22_13h53.34.686,cuing_paradigm_dot,2024.1.5,Win32,59.52380952,682d573fa47f1360d1451895,,,,,,,,,,,157.1361,157.6349,,,157.8858,158.2024,right,0.3013,,,,,,,,,0.1,,,,,,157.635,157.8856,158.2025,"[-0.1044655472610325,-0.026513290147445818]","[-1,-1,-1]","[0.11182083572917906,-0.020949237966774687]","[-1,-1,-1]","[-0.18752869892940036,-0.06353727434685118]","[1,1,1]","[-0.0026312785224650876,0.0907354871080315]","[-1,-1,-1]","[-0.052882478462021106,-0.11659519715552998]","[-1,-1,-1]","[0.11128465897763769,0.01945417128626697]","[-1,-1,-1]","[-0.05668996799254256,0.1865358218669415]","[-1,-1,-1]","[-0.016879506570611973,0.03606623279155751]","[-1,-1,-1]","[0.10448862040851095,0.1562142302119228]","[-1,-1,-1]","[-0.000687751254880483,-0.10745193008824666]","[1,1,1]","[0.061675291719622986,-0.11941379174046234]","[-1,-1,-1]","[0.17067219198328307,0.05583316111877871]","[-1,-1,-1]","[-0.005290163560759046,-0.05837004772757935]","[-1,-1,-1]","[-0.09516553788019898,-0.0731696427403589]","[-1,-1,-1]","[-0.017754885875010923,0.16061236092239395]","[-1,-1,-1]","[-0.05800770529303727,0.030219458071193462]","[-1,-1,-1]","[-0.017189467827879404,-0.18698103485391693]","[-1,-1,-1]","[0.14859720664616247,0.003802024988741179]","[-1,-1,-1]","[-0.12662416442234772,0.1366259836937433]","[-1,-1,-1]","[-0.11951224367067419,0.06895329269406476]","[-1,-1,-1]","[0.04155637020177732,0.16759803231788897]","[1,1,1]","[0.04664307409840682,0.12216986370617458]","[-1,-1,-1]","[0.15009022772836922,-0.0424279064983022]","[-1,-1,-1]","[-0.10679498906206457,-0.1674392392469918]","[-1,-1,-1]","[0.12731777934567387,0.09300625440518699]","[-1,-1,-1]","[0.02923854507965302,0.013198672711513334]","[-1,-1,-1]","[-0.06450167976628801,0.1453876687702541]","[-1,-1,-1]","[-0.08865639033039223,0.10650011557569307]","[-1,-1,-1]","[-0.14567036251983545,-0.06643048982676016]","[-1,-1,-1]","[-0.13374624950833927,-0.11342461610066244]","[-1,-1,-1]","[0.07121189926401826,0.012402479806958694]","[-1,-1,-1]","[-0.1729230784514748,0.0009892715251889654]","[-1,-1,-1]","[0.02,0.02]",159.3026,0,28,28,27,1,,,,,,,
,,,,,,,67e54929de08a1cdb4e08723,682f0ff08ae6c08e95dc106e,2025-05-22_13h53.34.686,cuing_paradigm_dot,2024.1.5,Win32,59.52380952,682d573fa47f1360d1451895,,,,,,,,,,,159.304,159.8024,,,160.0535,160.1861,right,0.1188,,,,,,,,,0.45,,,,,,159.8024,160.0533,160.1862,"[-0.10187430293526345,0.07359891327501028]","[1,1,1]","[-0.08113519448916592,0.17385841454802012]","[1,1,1]","[0.04933758506686927,0.06429317682162652]","[1,1,1]","[0.18335727853188466,0.0198430376001229]","[-1,-1,-1]","[0.12411404381498904,0.028716312842849034]","[1,1,1]","[0.1095371584459591,-0.06104997766436104]","[-1,-1,-1]","[0.17479535208544056,-0.07118158842623039]","[-1,-1,-1]","[-0.18250531865791536,-0.047185246074803316]","[-1,-1,-1]","[-0.03247338086995292,-0.020134294543863774]","[-1,-1,-1]","[-0.09260312450459646,0.028749098927035293]","[1,1,1]","[-0.13359655050503252,-0.06471479553160123]","[1,1,1]","[-0.1391071019819313,0.12896904643807974]","[-1,-1,-1]","[-0.005064786395792038,0.019959166589836822]","[1,1,1]","[-0.01940111921598536,-0.13508837745211966]","[1,1,1]","[0.1660039192662689,0.10515410298768596]","[-1,-1,-1]","[-0.09215367778886653,-0.062487384710483714]","[-1,-1,-1]","[0.0008718898697764976,0.10831086750107705]","[1,1,1]","[-0.040572632668386184,0.17139676824107877]","[1,1,1]","[0.0017776344525592973,-0.0926450762457707]","[-1,-1,-1]","[-0.04805839748944559,-0.190918928110901]","[-1,-1,-1]","[0.05146295288980081,-0.10463362307920399]","[1,1,1]","[0.18339948780638826,0.06379542297331338]","[1,1,1]","[-0.09267131872891271,-0.12913069769830365]","[1,1,1]","[-0.1399403235509825,-0.1244008990628681]","[-1,-1,-1]","[0.060721503986485334,-0.17302358271695603]","[-1,-1,-1]","[0.06379072072861654,0.10641424705317135]","[-1,-1,-1]","[0.09868655469783176,-0.11866407016228438]","[-1,-1,-1]","[-0.19570328416493055,0.008265360468916719]","[-1,-1,-1]","[0.15028409610302101,-0.026371731046575985]","[-1,-1,-1]","[0.06579692198584178,-0.04879009189561014]","[1,1,1]","[0.11268829678968421,0.13918146105766696]","[-1,-1,-1]","[-0.04606872878976926,-0.07272675024118176]","[-1,-1,-1]","[0.02,0.02]",161.2872,0,29,29,80,1,,,,,,,
,,,,,,,67e54929de08a1cdb4e08723,682f0ff08ae6c08e95dc106e,2025-05-22_13h53.34.686,cuing_paradigm_dot,2024.1.5,Win32,59.52380952,682d573fa47f1360d1451895,,,,,,,,,,,161.2887,161.7867,,,162.0377,162.8705,right,0.8186,,,,,,,,,0.5,,,,,,161.7868,162.0377,162.8706,"[-0.1428044459875004,0.034219677704129696]","[1,1,1]","[-0.036693992519062045,0.15014035577528823]","[-1,-1,-1]","[0.02246952807891614,-0.11243421059326567]","[1,1,1]","[-0.09223840820750097,-0.04593441606567876]","[-1,-1,-1]","[0.12318671314880951,-0.12858152267345177]","[1,1,1]","[-0.1884372863679359,0.031652818949487]","[1,1,1]","[0.044580359428215845,-0.1864097269091559]","[-1,-1,-1]","[0.05603343358837761,0.19079077944361453]","[-1,-1,-1]","[-0.04657910052293652,0.10341743537575604]","[-1,-1,-1]","[-0.03564685891621686,-0.1433674196667066]","[1,1,1]","[0.08615348572263515,-0.054083074846225654]","[1,1,1]","[-0.1226958323309733,0.10950399915512934]","[-1,-1,-1]","[-0.1255740876926644,-0.02164852120664434]","[1,1,1]","[0.17113949111908033,-0.0808263475792011]","[1,1,1]","[-0.030907031473506676,-0.10097974964325816]","[1,1,1]","[-0.09154325209889669,0.08185487746119215]","[-1,-1,-1]","[-0.06899947537253613,-0.08713746229595846]","[-1,-1,-1]","[0.1875387658363281,-0.00132117276923049]","[1,1,1]","[0.08776260532887165,0.041513833349761074]","[-1,-1,-1]","[-0.09828404456550453,0.019313151379807537]","[-1,-1,-1]","[0.05993504285975055,0.09228614329216205]","[-1,-1,-1]","[0.1875830575919171,0.04336510273298895]","[1,1,1]","[0.020921077296023428,0.055446204744203025]","[1,1,1]","[0.11400948051539958,-0.02034269397825214]","[1,1,1]","[-0.03652385252099454,0.05124874248186507]","[-1,-1,-1]","[0.07803425748027738,-0.12115328385911012]","[-1,-1,-1]","[-0.00036655519276808883,-0.1694464365320651]","[1,1,1]","[-0.17965226511748783,-0.07643981315356146]","[-1,-1,-1]","[-0.02223564550006308,-0.004914266371444719]","[-1,-1,-1]","[0.13042791424954822,0.10097363676666078]","[1,1,1]","[-0.06242062424333885,-0.012609842111059736]","[-1,-1,-1]","[-0.15105817456657483,-0.11894616303667435]","[1,1,1]","[0.02,0.02]",163.9709,0,30,30,110,1,,,,,,,
,,,,,,,67e54929de08a1cdb4e08723,682f0ff08ae6c08e95dc106e,2025-05-22_13h53.34.686,cuing_paradigm_dot,2024.1.5,Win32,59.52380952,682d573fa47f1360d1451895,,,,,,,,,,,163.9723,164.4719,,,164.7225,164.9883,left,0.2471,,,,,,,,,0.5,,,,,,164.472,164.7224,164.9884,"[0.04471787530143994,-0.14649519314337378]","[1,1,1]","[0.025780065401803887,-0.056236141117832296]","[-1,-1,-1]","[-0.10033423586670968,0.08495005872354255]","[-1,-1,-1]","[0.1289542174619311,-0.1359444623547971]","[-1,-1,-1]","[-0.04561103179747462,0.06705570730138895]","[-1,-1,-1]","[-0.018328069557908323,0.12275319689484823]","[1,1,1]","[0.11278903382326363,0.09806197016899429]","[-1,-1,-1]","[0.06591635549909539,-0.047778737152873535]","[1,1,1]","[0.16712237074719685,0.033839804521340854]","[-1,-1,-1]","[-0.0009180157233849845,0.1772716490755363]","[-1,-1,-1]","[0.15270918047105578,0.12204062832518317]","[-1,-1,-1]","[0.009409326489887859,0.08512660614669691]","[1,1,1]","[0.0892461823121797,0.13261002569338234]","[1,1,1]","[-0.046073336848738995,0.013731924454337187]","[-1,-1,-1]","[-0.08402402105459632,0.1746253588682149]","[-1,-1,-1]","[-0.05402204065441576,-0.18210778247717815]","[1,1,1]","[-0.1408235189441152,-0.0778510318450436]","[-1,-1,-1]","[0.08702903367230662,0.04802386569512387]","[1,1,1]","[-0.18238183029680696,-0.024507979969383517]","[1,1,1]","[0.07455845480404574,-0.1094635109873709]","[1,1,1]","[0.14832576698547467,-0.06762370351822551]","[1,1,1]","[-0.1418391687624646,0.13153488824386173]","[-1,-1,-1]","[-0.029312400884231437,-0.11296252579631601]","[1,1,1]","[-0.017028270088696663,-0.04524080529949578]","[-1,-1,-1]","[0.028465285885464552,0.037608703373433534]","[-1,-1,-1]","[-0.08442322597511545,-0.09326768595704904]","[-1,-1,-1]","[0.016378397764232402,-0.1930758741696293]","[1,1,1]","[-0.11997699810835691,-0.1141984378090944]","[-1,-1,-1]","[-0.19362001109428426,0.04214047486769865]","[1,1,1]","[-0.05843111751700515,0.11095657356068188]","[1,1,1]","[-0.08926091006850889,0.023959000908514782]","[1,1,1]","[-0.008823782218016728,-0.15840882837758447]","[1,1,1]","[0.02,0.02]",166.0886,0,31,31,108,1,,,,,,,
,,,,,,,67e54929de08a1cdb4e08723,682f0ff08ae6c08e95dc106e,2025-05-22_13h53.34.686,cuing_paradigm_dot,2024.1.5,Win32,59.52380952,682d573fa47f1360d1451895,,,,,,,,,,,166.09,166.5888,,,166.8401,167.2062,right,0.3517,,,,,,,,,0.4,,,,,,166.5889,166.8398,167.2064,"[-0.10248497399459434,0.0021372351295839294]","[-1,-1,-1]","[-0.060497537950859465,-0.17223948343252368]","[-1,-1,-1]","[0.07180132470720924,0.17113502067127095]","[-1,-1,-1]","[0.16990245850155322,-0.032378757165530764]","[1,1,1]","[0.058600562557390545,-0.10725114409880328]","[-1,-1,-1]","[-0.03805723098720034,0.17484661838997423]","[1,1,1]","[0.09334796592308871,-0.07681791023753266]","[1,1,1]","[0.012236742071761675,0.09048699332474545]","[-1,-1,-1]","[-0.17657135974777033,-0.09067375115316559]","[-1,-1,-1]","[0.02057110278555554,0.18596919868590903]","[-1,-1,-1]","[0.11340361482106381,0.04398925684951723]","[-1,-1,-1]","[-0.007710613315261998,-0.12586961378043884]","[-1,-1,-1]","[0.027414153995124375,-0.0431675033230451]","[1,1,1]","[-0.11779037333735379,-0.14252653615481217]","[1,1,1]","[-0.030736693131569365,0.051685588138172034]","[-1,-1,-1]","[-0.023250474519864638,-0.1925463178357203]","[1,1,1]","[-0.1320465120610014,-0.08874008137888953]","[1,1,1]","[-0.12916510585586155,0.08167559385821431]","[1,1,1]","[0.17625980715170345,-0.09138488287272202]","[1,1,1]","[-0.034948970192391814,-0.017697558766620953]","[-1,-1,-1]","[0.17438595258606204,0.07657366773461839]","[1,1,1]","[0.06750625109481272,-0.15877573839185186]","[-1,-1,-1]","[-0.040414861913537714,0.12883642744949103]","[-1,-1,-1]","[0.09046054172224198,-0.030131308130244613]","[1,1,1]","[0.047742839548279424,0.05114968086506761]","[-1,-1,-1]","[0.07245150917394841,0.010378666008644453]","[-1,-1,-1]","[-0.16536398852220657,0.02863563923609768]","[-1,-1,-1]","[-0.1431473011688732,-0.036863047746476106]","[-1,-1,-1]","[0.11540642055139014,-0.13868518464521723]","[-1,-1,-1]","[0.09573132089464163,0.09199823936724501]","[1,1,1]","[-0.06347381710670288,-0.11751541213960734]","[1,1,1]","[-0.1158144962373462,0.1229794112129515]","[-1,-1,-1]","[0.02,0.02]",168.3067,0,32,32,52,1,,,,,,,
,,,,,,,67e54929de08a1cdb4e08723,682f0ff08ae6c08e95dc106e,2025-05-22_13h53.34.686,cuing_paradigm_dot,2024.1.5,Win32,59.52380952,682d573fa47f1360d1451895,,,,,,,,,,,168.3084,168.8065,,,169.0581,169.5071,left,0.4343,,,,,,,,,0.5,,,,,,168.8066,169.0581,169.5072,"[0.17539247605589955,0.06470108430791785]","[-1,-1,-1]","[-0.004029655589166344,0.0831033058510263]","[1,1,1]","[0.03941137262009398,-0.13556174806996485]","[1,1,1]","[0.054308005679023885,-0.059810331612546605]","[1,1,1]","[-0.12951402818549138,0.14158576451959737]","[1,1,1]","[0.19278203333511462,-0.031685369429467536]","[-1,-1,-1]","[0.12446497584281332,-0.1267358682752856]","[1,1,1]","[0.03636973503789681,0.06057331467878035]","[1,1,1]","[-0.09851340838314673,-0.025372106500282415]","[-1,-1,-1]","[-0.04215446643928717,0.0037816130502981845]","[-1,-1,-1]","[0.08072425543236589,0.10615400044393411]","[-1,-1,-1]","[0.0039061451003395997,0.02657483768319775]","[1,1,1]","[0.17236735080451707,-0.07737914985941956]","[-1,-1,-1]","[-0.1049437851996172,-0.15572215967282074]","[-1,-1,-1]","[0.11519801330799426,-0.047192847900931825]","[-1,-1,-1]","[-0.09987405563514348,-0.07171525091527128]","[-1,-1,-1]","[0.011121298758650715,-0.054477469271799174]","[1,1,1]","[0.11801826134444798,0.13479135936408965]","[-1,-1,-1]","[-0.16463293778147842,0.008178265378155426]","[-1,-1,-1]","[0.02933473093782679,-0.008010896855889587]","[1,1,1]","[-0.0633069153191351,-0.15381667453935205]","[1,1,1]","[-0.15558607391643464,-0.09479772821870638]","[1,1,1]","[0.09095634768192441,-0.006415827954317282]","[1,1,1]","[0.07514939952282237,-0.1754188372808619]","[1,1,1]","[0.15438807810004007,-0.010439189936104485]","[-1,-1,-1]","[-0.1791562166670185,0.08776743069197823]","[-1,-1,-1]","[-0.06567285373624066,-0.0927582001502259]","[1,1,1]","[-0.10761712441762283,0.10568659246416356]","[-1,-1,-1]","[-0.08550594034509254,0.17381101182721054]","[1,1,1]","[0.03346425486385937,0.1866705588122326]","[-1,-1,-1]","[-0.018822020998038896,0.12228575687739476]","[1,1,1]","[0.02391258370801436,-0.17545342112305645]","[-1,-1,-1]","[0.02,0.02]",170.6072,0,33,33,93,1,,,,,,,
,,,,,,,67e54929de08a1cdb4e08723,682f0ff08ae6c08e95dc106e,2025-05-22_13h53.34.686,cuing_paradigm_dot,2024.1.5,Win32,59.52380952,682d573fa47f1360d1451895,,,,,,,,,,,170.6089,171.1076,,,171.3588,171.5583,right,0.1846,,,,,,,,,0.9,,,,,,171.1077,171.3587,171.5584,"[0.07518000552005892,0.04910156915674603]","[1,1,1]","[-0.1421380919399724,-0.13314846697228122]","[1,1,1]","[-0.1682630117940882,0.10372809332259077]","[1,1,1]","[-0.04564880250304188,0.10704246467042956]","[1,1,1]","[0.12603187959768508,0.08024789142417212]","[1,1,1]","[0.10435055784062176,-0.0028294084639548015]","[1,1,1]","[-0.10955974685257955,-0.10448615698503048]","[1,1,1]","[0.03986845126938336,0.1314268379438412]","[1,1,1]","[-0.005585384652898576,-0.13101996622966047]","[1,1,1]","[-0.03204950327770611,-0.06873729431190699]","[1,1,1]","[-0.18560075061367667,-0.0481883055680741]","[1,1,1]","[-0.09546671919963955,0.13598168396196975]","[1,1,1]","[-0.02600037186812001,0.0717829660915606]","[1,1,1]","[0.03895711711139459,-0.057428872681207076]","[1,1,1]","[-0.09468648147521648,-0.02183988866352547]","[-1,-1,-1]","[-0.0021373705175740947,-0.02850706508852769]","[1,1,1]","[-0.0029493742350201898,0.1952043063134128]","[1,1,1]","[-0.02760590017121658,0.14516983841384717]","[1,1,1]","[-0.06325289325983154,0.18073646609948665]","[1,1,1]","[-0.05835378764396055,0.03725850640408338]","[-1,-1,-1]","[0.010513252325601432,0.04754252072330138]","[1,1,1]","[0.07919770084874944,0.09593037877133197]","[1,1,1]","[0.002682806707769006,-0.1784656189314015]","[1,1,1]","[0.11950630831203572,-0.07614416528508773]","[1,1,1]","[0.16220466657279797,-0.029601502923819037]","[1,1,1]","[-0.19647272763111884,0.017028563062051676]","[1,1,1]","[-0.1597572510028225,-0.004329351248505967]","[-1,-1,-1]","[0.039255169342921524,-0.13176130452741644]","[1,1,1]","[-0.05928600244735536,-0.11511785643813478]","[1,1,1]","[0.0778409712369626,-0.17855594986896564]","[1,1,1]","[0.16895492518744473,0.10374768241571417]","[1,1,1]","[0.19346050697373665,0.024721290443401177]","[1,1,1]","[0.02,0.02]",172.6586,0,34,34,202,1,,,,,,,
,,,,,,,67e54929de08a1cdb4e08723,682f0ff08ae6c08e95dc106e,2025-05-22_13h53.34.686,cuing_paradigm_dot,2024.1.5,Win32,59.52380952,682d573fa47f1360d1451895,,,,,,,,,,,172.6602,173.1585,,,173.4022,174.1028,right,0.6835,,,,,,,,,0.45,,,,,,173.1585,173.4022,174.1029,"[-0.07798976308787915,0.09401215357074025]","[1,1,1]","[-0.03744572949909674,-0.009833268161873406]","[-1,-1,-1]","[-0.12872729552150738,0.0358011671421706]","[-1,-1,-1]","[-0.07621236901714021,0.16566742756885341]","[-1,-1,-1]","[-0.006779650936902523,-0.14718486130306538]","[-1,-1,-1]","[0.031560987030231656,-0.16264278528545037]","[1,1,1]","[0.07980226885149576,0.038883846145024346]","[1,1,1]","[-0.14898433753055698,0.07377081973662482]","[-1,-1,-1]","[-0.04344426346863821,-0.17534109999741362]","[1,1,1]","[-0.04463675104271548,0.05082436126327638]","[1,1,1]","[-0.14879943544376326,-0.020879796973966063]","[1,1,1]","[0.15279736544828504,0.040580986753614726]","[1,1,1]","[0.0022590240895688017,0.14011221225285503]","[1,1,1]","[-0.12800889410253183,0.13800053566698112]","[1,1,1]","[-0.05916741926068999,-0.07593652080831141]","[1,1,1]","[0.03502920230389158,-0.062091474709944]","[-1,-1,-1]","[-0.1513974174418438,-0.08911636503460538]","[-1,-1,-1]","[0.14515969961240327,-0.09311266946989011]","[-1,-1,-1]","[0.14173796889935797,-0.0001758505085971054]","[1,1,1]","[-0.1899316684241918,-0.03539041035375338]","[-1,-1,-1]","[0.0058133234229953866,0.06694732871756343]","[-1,-1,-1]","[0.11457637728642014,0.16153485864839226]","[-1,-1,-1]","[-0.05083731612262315,-0.12209218309088715]","[-1,-1,-1]","[-0.10510677622359126,-0.030480691250475273]","[1,1,1]","[0.1023522667624346,-0.1253800864009439]","[1,1,1]","[0.0920314910174275,0.12681947323519416]","[-1,-1,-1]","[-0.019563403183583246,-0.0889633087470872]","[-1,-1,-1]","[0.18644993363946855,-0.015484445525517528]","[-1,-1,-1]","[-0.11905859813139576,-0.1338835986890019]","[-1,-1,-1]","[-0.029126955091666615,0.18794311161848942]","[1,1,1]","[0.11996581424954215,-0.056245716090602735]","[-1,-1,-1]","[-0.004526782635230293,0.020823914442262722]","[-1,-1,-1]","[0.02,0.02]",175.2019,0,35,35,84,1,,,,,,,
,,,,,,,67e54929de08a1cdb4e08723,682f0ff08ae6c08e95dc106e,2025-05-22_13h53.34.686,cuing_paradigm_dot,2024.1.5,Win32,59.52380952,682d573fa47f1360d1451895,,,,,,,,,,,175.2028,175.7022,,,175.9512,176.6398,left,0.6714,,,,,,,,,0.5,,,,,,175.7023,175.9512,176.6399,"[0.07511913300808568,-0.08111143356046309]","[-1,-1,-1]","[-0.1009158901114836,-0.02058216278097085]","[-1,-1,-1]","[-0.05413319250159457,-0.14860689585619927]","[-1,-1,-1]","[-0.10961428271654165,-0.0854899809593563]","[1,1,1]","[-0.03842980926296755,0.091991589505179]","[1,1,1]","[0.12166439479673612,-0.1464469347494242]","[1,1,1]","[-0.043601981560369076,-0.0961953729534566]","[1,1,1]","[0.13298827410865682,0.1118605577062499]","[1,1,1]","[-0.07349826064009217,0.15113962641496798]","[-1,-1,-1]","[-0.027650536885834916,0.03345654534991094]","[-1,-1,-1]","[-0.09996747155360103,0.03727708156919574]","[1,1,1]","[0.02868723524481865,0.09886599111985261]","[1,1,1]","[0.1515686429765346,-0.09696592444077005]","[1,1,1]","[-0.0192085602344674,0.17417702659559153]","[1,1,1]","[0.1074947639738927,0.05535600686754739]","[-1,-1,-1]","[0.027374324163525903,0.16199706138699727]","[1,1,1]","[-0.11080889818216676,0.08699193175118358]","[-1,-1,-1]","[-0.18920596667550116,-0.03020467907270949]","[1,1,1]","[-0.16592847977824451,0.05876731910086363]","[-1,-1,-1]","[0.16642147829032428,0.08235414412175981]","[-1,-1,-1]","[0.08431364159166789,0.1797852868294841]","[-1,-1,-1]","[-0.007624162999629599,-0.18209062164343956]","[1,1,1]","[0.039361274473020715,0.03531621213903936]","[1,1,1]","[0.1457159714611063,-0.02441813787224519]","[-1,-1,-1]","[0.10650393506046217,-0.050822620032573707]","[1,1,1]","[0.0010843017232674648,-0.09604397701678878]","[-1,-1,-1]","[-0.05918657186602713,-0.017504755614723116]","[-1,-1,-1]","[0.1799792393780296,0.007825805981134793]","[1,1,1]","[0.0743570504474544,-0.014518032441287547]","[-1,-1,-1]","[-0.008353108482230507,0.12285371253985546]","[-1,-1,-1]","[0.07156781769726976,0.07547531759941603]","[-1,-1,-1]","[0.036595139471296396,-0.15321209951962853]","[1,1,1]","[0.02,0.02]",177.7353,0,36,36,103,1,,,,,,,
,,,,,,,67e54929de08a1cdb4e08723,682f0ff08ae6c08e95dc106e,2025-05-22_13h53.34.686,cuing_paradigm_dot,2024.1.5,Win32,59.52380952,682d573fa47f1360d1451895,,,,,,,,,,,177.737,178.2361,,,178.4794,179.2449,left,0.7515,,,,,,,,,0.6,,,,,,178.2362,178.4793,179.245,"[-0.023749805136963873,0.010700482374672022]","[1,1,1]","[0.18198996784011595,-0.02196139609648761]","[1,1,1]","[-0.17590834170642627,-0.019414603761206788]","[1,1,1]","[-0.06682993097377492,-0.02397218042940742]","[1,1,1]","[-0.08637316272782739,-0.11888134780222928]","[1,1,1]","[-0.018365712521486516,-0.16605386178685808]","[1,1,1]","[-0.12370120843305042,0.014132303155667398]","[1,1,1]","[0.14894689292549781,0.057975870004256226]","[1,1,1]","[-0.11344387250397389,0.12282089343187222]","[-1,-1,-1]","[0.054188395951546016,-0.10958331750162542]","[1,1,1]","[0.09282837836937427,0.02946818418883896]","[-1,-1,-1]","[0.027650956606873316,0.007695078780380558]","[-1,-1,-1]","[-0.10003117251501006,0.06192429189815556]","[-1,-1,-1]","[-0.03812999454378799,-0.1270613470417368]","[1,1,1]","[0.02720776145504217,-0.03235338760978306]","[1,1,1]","[0.1405641422305943,-0.08834996149028924]","[1,1,1]","[-0.15838314484830676,-0.07350439891302382]","[-1,-1,-1]","[-0.05024450564818326,0.09513087002328388]","[1,1,1]","[-0.10592602570271598,-0.05019840168415632]","[-1,-1,-1]","[0.1113572727920746,0.09032323708875388]","[1,1,1]","[-0.042114794684387724,0.1349544062602599]","[-1,-1,-1]","[0.04180620242046842,0.12936550265970423]","[-1,-1,-1]","[0.07106820159147166,-0.17816335210456116]","[-1,-1,-1]","[0.021711782608353016,-0.15314643624381485]","[-1,-1,-1]","[0.08294518584110784,0.13964335243897064]","[-1,-1,-1]","[0.16343032443540675,0.09644666840900844]","[1,1,1]","[0.04230013289465033,0.07075136585251135]","[1,1,1]","[0.09492711601568807,-0.04319680676498424]","[-1,-1,-1]","[0.18036922840855582,0.02902994400238098]","[1,1,1]","[-0.17674990959056655,0.08793596957549911]","[1,1,1]","[0.096070840898778,-0.12038649060765534]","[-1,-1,-1]","[-0.04341518928275014,-0.07293884711768825]","[1,1,1]","[0.02,0.02]",180.345,0,37,37,155,1,,,,,,,
,,,,,,,67e54929de08a1cdb4e08723,682f0ff08ae6c08e95dc106e,2025-05-22_13h53.34.686,cuing_paradigm_dot,2024.1.5,Win32,59.52380952,682d573fa47f1360d1451895,,,,,,,,,,,180.347,180.8454,,,181.089,181.4973,right,0.3935,,,,,,,,,0.45,,,,,,180.8454,181.0889,181.4975,"[0.08055951090559596,0.04427526360767914]","[1,1,1]","[-0.12844611744976342,0.01253427808519747]","[1,1,1]","[0.11498691105578154,-0.13928403130784237]","[1,1,1]","[0.17009340936350495,-0.005442623695240293]","[-1,-1,-1]","[-0.04641581548882678,0.1354707353034501]","[-1,-1,-1]","[0.05828860097483605,0.15667707719222532]","[-1,-1,-1]","[0.09256879776557106,-0.05750377684658958]","[1,1,1]","[-0.189619465412995,-0.054932774025508606]","[-1,-1,-1]","[0.014479195195353506,0.15238837305509945]","[1,1,1]","[-0.012101211310437692,0.0052946932372313705]","[1,1,1]","[-0.0029530924300441314,-0.035124194550810305]","[-1,-1,-1]","[-0.0010167704154555558,0.06289619939378698]","[1,1,1]","[-0.16510162352744454,0.08495788285465336]","[1,1,1]","[-0.07628660781966384,0.08529179273996718]","[1,1,1]","[-0.0605987522266634,0.005554874177435758]","[-1,-1,-1]","[-0.19250416673864829,-0.0063870693004314475]","[-1,-1,-1]","[-0.08084489845784347,-0.0807471777296733]","[-1,-1,-1]","[0.18395597898496405,-0.07235640893790299]","[1,1,1]","[-0.018693404154669992,-0.1890795908921854]","[-1,-1,-1]","[0.02404781169555097,0.10643589817045299]","[-1,-1,-1]","[0.07358446190570399,-0.1705271414449473]","[-1,-1,-1]","[-0.0867480474552193,-0.031767449463091194]","[1,1,1]","[-0.06228866103108902,0.18482558395052712]","[1,1,1]","[0.12364153825546276,0.0492101905710424]","[1,1,1]","[-0.12666413818601616,0.06073937841002389]","[-1,-1,-1]","[0.04402551910402691,0.07054429511455207]","[-1,-1,-1]","[0.03457501862941067,-0.07994285395538736]","[-1,-1,-1]","[-0.10385954215053743,-0.1349911334961078]","[-1,-1,-1]","[-0.0023879047867962355,0.19623834637941823]","[1,1,1]","[-0.04142293895428765,0.05728738322313429]","[-1,-1,-1]","[-0.030961866975774355,-0.1274255472467901]","[-1,-1,-1]","[0.12902618702483445,-0.09301504083369608]","[-1,-1,-1]","[0.02,0.02]",182.588,0,38,38,67,1,,,,,,,
,,,,,,,67e54929de08a1cdb4e08723,682f0ff08ae6c08e95dc106e,2025-05-22_13h53.34.686,cuing_paradigm_dot,2024.1.5,Win32,59.52380952,682d573fa47f1360d1451895,,,,,,,,,,,182.5897,183.0884,,,183.3308,183.9472,left,0.6024,,,,,,,,,0.5,,,,,,183.0885,183.3305,183.9475,"[-0.17007449983065548,-0.04527091187724216]","[-1,-1,-1]","[-0.06354628292863074,0.14777544093365144]","[1,1,1]","[0.08456879852448473,0.03962187759184353]","[-1,-1,-1]","[-0.12942676122522936,0.054588094201202614]","[1,1,1]","[-0.06318684938574597,-0.1742583746621832]","[1,1,1]","[-0.07486701673339921,0.03170038565574897]","[1,1,1]","[-0.035292536342352944,-0.08379321456482469]","[-1,-1,-1]","[0.09549464018207862,-0.17057784747277246]","[1,1,1]","[-0.008470266603817453,0.17884465077065065]","[1,1,1]","[-0.014437988313615124,-0.14972995962577493]","[-1,-1,-1]","[0.028698714291627337,-0.11383949574492706]","[1,1,1]","[0.169403446012562,0.062338411756045924]","[1,1,1]","[0.07768175610481222,-0.07918093102877438]","[1,1,1]","[0.09359696246480016,-0.11813709843184103]","[1,1,1]","[0.07753932965203976,0.09910573733974916]","[1,1,1]","[0.19328920236505673,0.013609077179459425]","[-1,-1,-1]","[-0.16378081771412592,-0.0891718645764982]","[-1,-1,-1]","[0.059287294333163196,0.16536153683423488]","[-1,-1,-1]","[0.011866178951801903,-0.1951880438673051]","[-1,-1,-1]","[-0.09140020881266572,-0.05980608908879428]","[-1,-1,-1]","[-0.10086554353335606,-0.11213777618460762]","[-1,-1,-1]","[0.013713088289703669,0.07203334582572676]","[1,1,1]","[0.08257201781517867,-0.014826461727489762]","[-1,-1,-1]","[0.13126699489996047,-0.008762180183618127]","[-1,-1,-1]","[-0.1344030526843056,0.135965984241514]","[1,1,1]","[-0.16446785839349273,0.007782560386572643]","[-1,-1,-1]","[0.1231061724156167,0.1477573776802273]","[-1,-1,-1]","[0.17104561200197638,-0.03415868176761521]","[-1,-1,-1]","[-0.06254777034018784,-0.13303984783540349]","[1,1,1]","[-0.17843838315804028,0.060452615008731635]","[-1,-1,-1]","[-0.03889247265915528,0.09899575754063705]","[1,1,1]","[-0.014633131698911686,-0.03359483706476805]","[1,1,1]","[0.02,0.02]",185.0394,0,39,39,107,1,,,,,,,
,,,,,,,67e54929de08a1cdb4e08723,682f0ff08ae6c08e95dc106e,2025-05-22_13h53.34.686,cuing_paradigm_dot,2024.1.5,Win32,59.52380952,682d573fa47f1360d1451895,,,,,,,,,,,185.0417,185.5309,,,185.7821,186.3485,left,0.5519,,,,,,,,,0.9,,,,,,185.531,185.7819,186.3485,"[0.05201064873937941,0.13987824366464327]","[1,1,1]","[-0.08297324139361971,-0.14208020280655065]","[1,1,1]","[0.06389150286252124,-0.02575021227332707]","[1,1,1]","[-0.01892510766701889,-0.10101742878133055]","[1,1,1]","[-0.012456097565183556,0.10517062415579095]","[1,1,1]","[0.16169815906520676,-0.011582512525111456]","[1,1,1]","[-0.137645961229661,0.04330986881536667]","[1,1,1]","[-0.11621377047486522,-0.02843764330286771]","[1,1,1]","[-0.19524584776253773,0.016510593926308183]","[1,1,1]","[-0.01941461992716034,-0.02631243801793881]","[1,1,1]","[0.11741468970064553,-0.11334777982943679]","[1,1,1]","[-0.03846556034887096,0.13874406884769094]","[1,1,1]","[-0.014343903347785745,-0.14961765361868257]","[1,1,1]","[-0.15168178559891543,-0.008630234527710137]","[1,1,1]","[0.15193066162334418,0.08348305444926608]","[1,1,1]","[0.01761870813285475,-0.1762996040459327]","[1,1,1]","[0.18134390152118424,-0.06701153578131351]","[-1,-1,-1]","[0.0215307696388309,-0.1121376575105173]","[1,1,1]","[0.08533246192341466,0.02097170558526321]","[1,1,1]","[-0.14707451259058382,-0.10580087216566308]","[1,1,1]","[-0.029617258971939935,0.057689429106880415]","[1,1,1]","[0.07331127317337867,-0.1483185972188306]","[1,1,1]","[0.019555891366549998,0.18278787036284053]","[1,1,1]","[0.05295734327244317,0.09921624124001535]","[-1,-1,-1]","[0.12715790635969773,-0.04986243649693769]","[1,1,1]","[-0.11395687931589615,0.08912813407026335]","[1,1,1]","[-0.06399768708398257,0.1767354024628227]","[1,1,1]","[0.052180500855945666,0.04688045647066972]","[-1,-1,-1]","[0.09456825326737911,0.14905861773905826]","[1,1,1]","[0.08583741323820306,0.07194214412626386]","[1,1,1]","[-0.09017836339193754,0.032201336668333705]","[1,1,1]","[0.11638849325017457,0.11256431740493487]","[1,1,1]","[0.02,0.02]",187.4483,0,40,40,189,1,,,,,,,
,,,,,,,67e54929de08a1cdb4e08723,682f0ff08ae6c08e95dc106e,2025-05-22_13h53.34.686,cuing_paradigm_dot,2024.1.5,Win32,59.52380952,682d573fa47f1360d1451895,,,,,,,,,,,187.4502,187.9486,,,188.1999,188.5331,right,0.3196,,,,,,,,,0.45,,,,,,187.9487,188.1998,188.5332,"[-0.18406801127641836,-0.01783349705663]","[1,1,1]","[0.1309732460946286,0.030926014752412665]","[1,1,1]","[-0.16134805651840275,-0.058862988474306877]","[-1,-1,-1]","[-0.11498060482569972,-0.041073442484226896]","[-1,-1,-1]","[-0.0022512277360344766,0.17164553020534987]","[-1,-1,-1]","[-0.006731892939173377,-0.12090434718158397]","[-1,-1,-1]","[-0.05992965967606604,-0.05505415913595458]","[-1,-1,-1]","[0.061904560145276365,-0.13852738213517782]","[-1,-1,-1]","[-0.14049127265443256,0.09854657145908699]","[1,1,1]","[0.0713731893447033,0.036540210310368075]","[-1,-1,-1]","[0.15935490266219918,-0.10126824166727204]","[1,1,1]","[-0.036897016272251615,0.0703537546827909]","[1,1,1]","[0.04915792561066535,0.08636907630121535]","[1,1,1]","[-0.1315219401270212,-0.08570315657059228]","[-1,-1,-1]","[-0.04499316853518934,0.00668603472054769]","[-1,-1,-1]","[-0.033701733787411293,-0.17092161885118373]","[-1,-1,-1]","[0.017908330736624335,0.127108950497343]","[1,1,1]","[0.11324352958844218,0.09936324749092836]","[1,1,1]","[0.1933069386306952,-0.03203865747345348]","[-1,-1,-1]","[-0.0643989541110095,-0.1423959965512257]","[1,1,1]","[-0.03384896204321852,0.14650505999320157]","[1,1,1]","[-0.1430840757511616,0.023802729469544252]","[-1,-1,-1]","[-0.12227149513507657,0.14127352570569007]","[1,1,1]","[0.09803268697850523,-0.03511412794165762]","[1,1,1]","[-0.08142769418285317,0.044350563950027615]","[-1,-1,-1]","[0.01215972456881805,-0.1700381119929021]","[-1,-1,-1]","[0.06393517990665376,-0.012394658922072784]","[-1,-1,-1]","[0.002185270057983176,-0.03445213806809495]","[1,1,1]","[0.16695574144476474,0.0014038073893603042]","[-1,-1,-1]","[-0.18202323646674476,0.03437268496393744]","[-1,-1,-1]","[0.16555969023445544,0.09077088328288971]","[1,1,1]","[-0.08881830251364363,-0.10602317328887474]","[-1,-1,-1]","[0.02,0.02]",189.6327,0,41,41,60,1,,,,,,,
,,,,,,,67e54929de08a1cdb4e08723,682f0ff08ae6c08e95dc106e,2025-05-22_13h53.34.686,cuing_paradigm_dot,2024.1.5,Win32,59.52380952,682d573fa47f1360d1451895,,,,,,,,,,,189.6343,190.1333,,,190.378,190.9598,left,0.5684,,,,,,,,,0.4,,,,,,190.1334,190.3779,190.96,"[0.011024380607446888,-0.029042982948058765]","[-1,-1,-1]","[-0.02471476639966183,0.151358810846214]","[-1,-1,-1]","[0.10293047646095875,0.047944417698524554]","[-1,-1,-1]","[0.06651280700651095,0.022866588987569842]","[1,1,1]","[-0.128520418984933,-0.03502360678870156]","[-1,-1,-1]","[-0.07514666452241653,0.04282210709481081]","[1,1,1]","[0.028190188319008148,-0.12489589734601476]","[-1,-1,-1]","[-0.13219008272294694,-0.14442890918523713]","[-1,-1,-1]","[-0.13471204106089887,0.021576436062536595]","[-1,-1,-1]","[-0.013724843204558815,-0.1164252762587113]","[1,1,1]","[-0.18637634868341843,0.06949103560873583]","[-1,-1,-1]","[-0.06952350128694279,0.15151568159666945]","[-1,-1,-1]","[0.132971261803237,0.08399195191710952]","[1,1,1]","[-0.08413860515099507,-0.0887380210954945]","[1,1,1]","[0.08419563408071534,0.15830105403866154]","[-1,-1,-1]","[0.17422753856656503,-0.0712997234011272]","[-1,-1,-1]","[0.0844896202551122,0.08939198735745948]","[-1,-1,-1]","[-0.1263061111169641,-0.089777362955898]","[1,1,1]","[0.003145362095601362,0.03056448306277728]","[-1,-1,-1]","[-0.11541495601261931,0.08776960817605742]","[-1,-1,-1]","[-0.021266290271741834,0.08884041289287618]","[-1,-1,-1]","[0.1669536589091455,0.03568436697103923]","[1,1,1]","[0.007332875220791246,-0.0792382833497655]","[1,1,1]","[0.050743528819035065,-0.07082074715948156]","[1,1,1]","[0.09326815870884574,-0.028724081298222157]","[-1,-1,-1]","[0.03611133453692185,0.09989372963947053]","[1,1,1]","[-0.14667334185938025,0.12176539957454899]","[1,1,1]","[-0.0673837241204755,0.0015426331401567487]","[-1,-1,-1]","[0.14537372376429247,0.13703429429010977]","[1,1,1]","[-0.021609416436865918,-0.17069446966394178]","[1,1,1]","[0.1396520652280706,-0.019239826579506455]","[-1,-1,-1]","[0.044015975183903655,0.19074159324233164]","[-1,-1,-1]","[0.02,0.02]",192.0587,0,42,42,47,1,,,,,,,
,,,,,,,67e54929de08a1cdb4e08723,682f0ff08ae6c08e95dc106e,2025-05-22_13h53.34.686,cuing_paradigm_dot,2024.1.5,Win32,59.52380952,682d573fa47f1360d1451895,,,,,,,,,,,192.0607,192.5598,,,192.8103,192.9632,right,0.1358,,,,,,,,,0.1,,,,,,192.5598,192.81,192.9632,"[0.15894893822167605,0.04842962396891202]","[-1,-1,-1]","[0.07202554299066492,0.06177965520029507]","[-1,-1,-1]","[0.1712068799882574,-0.0032882119179900356]","[-1,-1,-1]","[-0.006591504788733584,0.09161800463945623]","[-1,-1,-1]","[-0.1452656357063697,0.11154711306941191]","[-1,-1,-1]","[0.06531257377354464,-0.00042083347510361066]","[-1,-1,-1]","[-0.06435457476401608,-0.09056486028899009]","[-1,-1,-1]","[0.09782385143769946,0.14702324598085323]","[-1,-1,-1]","[-0.07176722976051549,-0.1524200808398292]","[-1,-1,-1]","[0.0348016099261242,0.17908484482961234]","[-1,-1,-1]","[-0.00806386783969373,-0.08298798654562821]","[-1,-1,-1]","[-0.08331792923895077,0.06537020456652005]","[1,1,1]","[0.042182518886496934,-0.1568733780899437]","[-1,-1,-1]","[-0.14835872771697253,0.07080316554487216]","[-1,-1,-1]","[0.08068141310773454,-0.11457379123977682]","[1,1,1]","[0.0031198530540142416,-0.14726730752759673]","[-1,-1,-1]","[0.1208760631146197,0.08093235140711438]","[-1,-1,-1]","[-0.1957187648235663,-0.012888381726597158]","[-1,-1,-1]","[0.12123746735883548,-0.1491614107061825]","[-1,-1,-1]","[-0.004658386077369582,-0.01624298420287236]","[-1,-1,-1]","[0.08464970250608085,-0.06858815711561966]","[-1,-1,-1]","[0.085100993255554,-0.16671534673961275]","[-1,-1,-1]","[-0.08706728744217557,0.006555145057320457]","[1,1,1]","[-0.018142023650501778,0.16673947651611415]","[-1,-1,-1]","[0.1372017901959455,0.12606820372627725]","[-1,-1,-1]","[-0.05275963956458703,-0.047476544394557]","[-1,-1,-1]","[-0.11895690005254493,-0.11226520063144912]","[-1,-1,-1]","[0.14912901783766944,-0.05134229912011099]","[-1,-1,-1]","[0.19407407725723222,-0.04186581269503186]","[-1,-1,-1]","[-0.052623739797153936,0.11806112484171305]","[-1,-1,-1]","[-0.09654994122388307,-0.05308253644762431]","[-1,-1,-1]","[0.11914362197649282,-0.003601981359662825]","[-1,-1,-1]","[0.02,0.02]",194.0518,0,43,43,20,1,,,,,,,
,,,,,,,67e54929de08a1cdb4e08723,682f0ff08ae6c08e95dc106e,2025-05-22_13h53.34.686,cuing_paradigm_dot,2024.1.5,Win32,59.52380952,682d573fa47f1360d1451895,,,,,,,,,,,194.0536,194.5431,,,194.7946,195.0453,right,0.2348,,,,,,,,,0.5,,,,,,194.5432,194.7946,195.0454,"[0.1596459825452032,-0.07884025483256121]","[-1,-1,-1]","[0.10239271928301484,0.08030116537679216]","[1,1,1]","[0.010143192414074614,0.15676306609117333]","[-1,-1,-1]","[0.0037585731279097287,0.0901939654512734]","[-1,-1,-1]","[-0.15515337353547662,0.04810008735602466]","[-1,-1,-1]","[-0.007687881198522407,0.01300019778199808]","[1,1,1]","[0.11616577814615393,0.16204562727649943]","[-1,-1,-1]","[-0.006166582922265012,-0.043602615838649425]","[-1,-1,-1]","[0.05151187689863827,-0.1300202387066471]","[-1,-1,-1]","[0.06093239803003788,0.16159405818992068]","[-1,-1,-1]","[0.03556113053944965,0.19528950778030169]","[-1,-1,-1]","[0.1306379976536636,0.016206376643571573]","[-1,-1,-1]","[0.07972290099112042,0.004743510783805991]","[1,1,1]","[-0.02847474616556993,-0.10678325722782507]","[-1,-1,-1]","[-0.15249816827576412,-0.029518295639437083]","[1,1,1]","[-0.0402149034589178,0.09696841754149936]","[-1,-1,-1]","[0.09397385643184293,-0.05808220596526696]","[1,1,1]","[-0.05676937068329225,-0.14341680512104868]","[1,1,1]","[-0.11025035966494243,-0.12504630403797087]","[1,1,1]","[-0.15293672937423716,0.09624198247202416]","[1,1,1]","[-0.0531417217011055,0.18399729113242058]","[-1,-1,-1]","[-0.11717107984198426,-0.0015983189214624253]","[-1,-1,-1]","[0.05215696971271863,-0.03808065157880063]","[1,1,1]","[0.046667652062786134,0.040758793068546816]","[1,1,1]","[-0.13908572110679074,0.1371533049838856]","[1,1,1]","[-0.04629838628966622,-0.043562267499022055]","[1,1,1]","[-0.10495900886064284,0.09433827856922926]","[-1,-1,-1]","[0.14486806603518843,-0.12293416527277391]","[1,1,1]","[0.18613837104094771,0.06369390873138225]","[1,1,1]","[0.1901606352702143,0.0169535847741094]","[-1,-1,-1]","[-0.09850514892506687,-0.050786494038558797]","[1,1,1]","[-0.09990256419012776,0.052201292918018005]","[1,1,1]","[0.02,0.02]",196.1441,0,44,44,90,1,,,,,,,
