right,left,explain.started,explain.stopped,key_resp_3.keys,key_resp_3.rt,key_resp_3.duration,participant,session,date,expName,psychopyVersion,OS,frameRate,study_id,explain_2.started,explain_2.stopped,key_resp_4.keys,key_resp_4.rt,key_resp_4.duration,explain_3.started,explain_3.stopped,key_resp_5.keys,key_resp_5.rt,key_resp_5.duration,fixation.started,fixation.stopped,practice.started,practice.stopped,response.started,response.stopped,key_resp.keys,key_resp.rt,key_resp.duration,feedback.started,feedback.stopped,trials_2.thisRepN,trials_2.thisTrialN,trials_2.thisN,trials_2.thisIndex,trials_2.ran,white_ratio,explain_4.started,explain_4.stopped,key_resp_6.keys,key_resp_6.rt,key_resp_6.duration,dotDisplay.started,dotDisplay.stopped,ITI.started,polygon_1.pos,polygon_1.color,polygon_2.pos,polygon_2.color,polygon_3.pos,polygon_3.color,polygon_4.pos,polygon_4.color,polygon_5.pos,polygon_5.color,polygon_6.pos,polygon_6.color,polygon_7.pos,polygon_7.color,polygon_8.pos,polygon_8.color,polygon_9.pos,polygon_9.color,polygon_10.pos,polygon_10.color,polygon_11.pos,polygon_11.color,polygon_12.pos,polygon_12.color,polygon_13.pos,polygon_13.color,polygon_14.pos,polygon_14.color,polygon_15.pos,polygon_15.color,polygon_16.pos,polygon_16.color,polygon_17.pos,polygon_17.color,polygon_18.pos,polygon_18.color,polygon_19.pos,polygon_19.color,polygon_20.pos,polygon_20.color,polygon_21.pos,polygon_21.color,polygon_22.pos,polygon_22.color,polygon_23.pos,polygon_23.color,polygon_24.pos,polygon_24.color,polygon_25.pos,polygon_25.color,polygon_26.pos,polygon_26.color,polygon_27.pos,polygon_27.color,polygon_28.pos,polygon_28.color,polygon_29.pos,polygon_29.color,polygon_30.pos,polygon_30.color,polygon_31.pos,polygon_31.color,polygon_32.pos,polygon_32.color,dot_size,ITI.stopped,trials.thisRepN,trials.thisTrialN,trials.thisN,trials.thisIndex,trials.ran,break_2.started,break_2.stopped,trials_3.thisRepN,trials_3.thisTrialN,trials_3.thisN,trials_3.thisIndex,trials_3.ran
subject chose black,subject chose white,0.0006,48.3612,space,33.3383,,67e94945e5f6a3090ed5a9d0,682f2ed21c6101cee8c4fcc6,2025-05-22_16h05.16.108,cuing_paradigm_dot,2024.1.5,Win32,59.17159763,682d573fa47f1360d1451895,,,,,,,,,,,,,,,,,,,,,,,,,,,,,,,,,,,,,,,,,,,,,,,,,,,,,,,,,,,,,,,,,,,,,,,,,,,,,,,,,,,,,,,,,,,,,,,,,,,,,,,,,,,,,,,,,
,,,,,,,67e94945e5f6a3090ed5a9d0,682f2ed21c6101cee8c4fcc6,2025-05-22_16h05.16.108,cuing_paradigm_dot,2024.1.5,Win32,59.17159763,682d573fa47f1360d1451895,48.3616,92.7102,space,14.334,,,,,,,,,,,,,,,,,,,,,,,,,,,,,,,,,,,,,,,,,,,,,,,,,,,,,,,,,,,,,,,,,,,,,,,,,,,,,,,,,,,,,,,,,,,,,,,,,,,,,,,,,,,,,
,,,,,,,67e94945e5f6a3090ed5a9d0,682f2ed21c6101cee8c4fcc6,2025-05-22_16h05.16.108,cuing_paradigm_dot,2024.1.5,Win32,59.17159763,682d573fa47f1360d1451895,,,,,,92.7105,100.9401,space,5.2096,,,,,,,,,,,,,,,,,,,,,,,,,,,,,,,,,,,,,,,,,,,,,,,,,,,,,,,,,,,,,,,,,,,,,,,,,,,,,,,,,,,,,,,,,,,,,,,,,,,,,,,,
,,,,,,,67e94945e5f6a3090ed5a9d0,682f2ed21c6101cee8c4fcc6,2025-05-22_16h05.16.108,cuing_paradigm_dot,2024.1.5,Win32,59.17159763,682d573fa47f1360d1451895,,,,,,,,,,,100.9817,101.4544,101.4553,101.706,101.7063,102.3894,left,0.6182,,102.3905,103.4896,0,0,0,0,1,0.8,,,,,,,,,,,,,,,,,,,,,,,,,,,,,,,,,,,,,,,,,,,,,,,,,,,,,,,,,,,,,,,,,,,,,,,,,,,,,,,,,,,,,,
,,,,,,,67e94945e5f6a3090ed5a9d0,682f2ed21c6101cee8c4fcc6,2025-05-22_16h05.16.108,cuing_paradigm_dot,2024.1.5,Win32,59.17159763,682d573fa47f1360d1451895,,,,,,,,,,,103.4908,103.9887,103.9887,104.2385,104.2386,104.7242,right,0.4587,,104.7246,105.8208,0,1,1,1,1,0.2,,,,,,,,,,,,,,,,,,,,,,,,,,,,,,,,,,,,,,,,,,,,,,,,,,,,,,,,,,,,,,,,,,,,,,,,,,,,,,,,,,,,,,
,,,,,,,67e94945e5f6a3090ed5a9d0,682f2ed21c6101cee8c4fcc6,2025-05-22_16h05.16.108,cuing_paradigm_dot,2024.1.5,Win32,59.17159763,682d573fa47f1360d1451895,,,,,,,,,,,,,,,,,,,,,,,,,,,,105.8213,120.3929,space,11.5503,,,,,,,,,,,,,,,,,,,,,,,,,,,,,,,,,,,,,,,,,,,,,,,,,,,,,,,,,,,,,,,,,,,,,,,,,,,,,,,,,,
,,,,,,,67e94945e5f6a3090ed5a9d0,682f2ed21c6101cee8c4fcc6,2025-05-22_16h05.16.108,cuing_paradigm_dot,2024.1.5,Win32,59.17159763,682d573fa47f1360d1451895,,,,,,,,,,,120.4308,120.9032,,,121.1557,121.7046,left,0.5363,,,,,,,,,0.55,,,,,,120.9049,121.1555,121.7054,"[0.040704741653414964,0.14694586543333066]","[-1,-1,-1]","[-0.11605825327377527,0.034118339001747024]","[1,1,1]","[-0.06735726876048456,0.17500943533765628]","[-1,-1,-1]","[-0.049588011473498755,-0.16931964432968352]","[1,1,1]","[-0.07377781932004913,0.07326883724588464]","[-1,-1,-1]","[0.03079194635014874,-0.0700081167171131]","[1,1,1]","[0.06495739100477131,-0.09393468354194141]","[1,1,1]","[-0.11168719418572193,-0.03247223074951321]","[1,1,1]","[-0.1878065443803537,0.04902124087969964]","[-1,-1,-1]","[-0.10958501768052271,0.1195564058449027]","[1,1,1]","[0.07393793000226126,0.0014667598428615613]","[-1,-1,-1]","[-0.006737754503459945,-0.15737190649255456]","[1,1,1]","[0.10601630228482528,0.09241464159312013]","[1,1,1]","[-0.051883728038611875,-0.045813725026337286]","[-1,-1,-1]","[0.17467393729845163,0.056843954941321655]","[-1,-1,-1]","[-0.009607461967953356,-0.06968503828695433]","[-1,-1,-1]","[0.015940613644397618,-0.10840636880620554]","[1,1,1]","[0.0651185081417781,0.08842996453036915]","[1,1,1]","[0.06557984362516843,-0.1470947027500361]","[1,1,1]","[0.13304219465510778,-0.07166991322953928]","[-1,-1,-1]","[0.07180269071194156,0.04582134493033175]","[-1,-1,-1]","[-0.014627824362249154,0.0672609756307318]","[-1,-1,-1]","[-0.15164063537046726,-0.050712075455324336]","[1,1,1]","[-0.04278379706326324,-0.11490120124438843]","[1,1,1]","[0.01076001781456297,0.10849328558587343]","[1,1,1]","[-0.1262401708293529,-0.134016178347914]","[1,1,1]","[0.06319187095080081,0.184064029707176]","[-1,-1,-1]","[0.15163107579928767,0.011025425238522046]","[1,1,1]","[0.14644382284398128,0.08744676229979]","[-1,-1,-1]","[0.115557256185182,-0.14098434385949024]","[-1,-1,-1]","[-0.17335105915459464,0.08739050650589444]","[1,1,1]","[-0.011518197138261724,0.0038466994482311014]","[1,1,1]","[0.02,0.02]",122.8045,0,0,0,140,1,,,,,,,
,,,,,,,67e94945e5f6a3090ed5a9d0,682f2ed21c6101cee8c4fcc6,2025-05-22_16h05.16.108,cuing_paradigm_dot,2024.1.5,Win32,59.17159763,682d573fa47f1360d1451895,,,,,,,,,,,122.8056,123.3043,,,123.5546,124.0713,right,0.5001,,,,,,,,,0.5,,,,,,123.3045,123.5545,124.0715,"[-0.14043768174592614,0.11517855964484319]","[-1,-1,-1]","[0.13816749307620546,-0.0659345047394501]","[-1,-1,-1]","[0.071390126195721,-0.06440165833798202]","[1,1,1]","[-0.12036760277599096,-0.09207909946969342]","[-1,-1,-1]","[-0.07824952246119728,0.14824637111297367]","[1,1,1]","[-0.010060857282253009,0.10942904656196925]","[1,1,1]","[0.04866096634668691,0.15081365648455458]","[-1,-1,-1]","[0.07964786026888925,-0.1790740840884145]","[-1,-1,-1]","[-0.05727054233443642,-0.11521290242804448]","[1,1,1]","[-0.010269727444414638,-0.17012130105501888]","[1,1,1]","[0.13788977497163493,0.019752140101699667]","[1,1,1]","[-0.022560640045119006,0.047729388268852514]","[1,1,1]","[0.06564390674586743,0.10554661231632335]","[-1,-1,-1]","[-0.0011222016815996417,0.1996029922800237]","[-1,-1,-1]","[-0.16242834355576943,0.05228002789882119]","[-1,-1,-1]","[0.03350584819328956,-0.08293249439416045]","[-1,-1,-1]","[0.1502749764025952,0.09599197925462803]","[1,1,1]","[-0.02038743677059029,-0.002368399739582572]","[-1,-1,-1]","[0.0038103073957922984,-0.04802059795051285]","[-1,-1,-1]","[-0.10650390517891761,0.05708992929701379]","[1,1,1]","[0.18858020132268474,0.05862711082417871]","[1,1,1]","[-0.09954815733594294,-0.13832158447469992]","[-1,-1,-1]","[-0.07107017328289275,0.09133396849630017]","[-1,-1,-1]","[0.054344144062384164,-0.1331706716650025]","[-1,-1,-1]","[0.10707159517059443,-0.011682986384664721]","[1,1,1]","[-0.19400366410166217,0.019160411932974623]","[1,1,1]","[-0.06801414089960896,-0.05192933164191878]","[-1,-1,-1]","[0.1239973992876918,-0.10866313572339505]","[1,1,1]","[0.06749707340228621,0.061462578493070415]","[1,1,1]","[-0.1670986675325691,-0.09100192036929321]","[-1,-1,-1]","[-0.07683100870717643,-0.1801159455965542]","[1,1,1]","[-0.16416095631393374,-0.024342366080144288]","[1,1,1]","[0.02,0.02]",125.1701,0,1,1,116,1,,,,,,,
,,,,,,,67e94945e5f6a3090ed5a9d0,682f2ed21c6101cee8c4fcc6,2025-05-22_16h05.16.108,cuing_paradigm_dot,2024.1.5,Win32,59.17159763,682d573fa47f1360d1451895,,,,,,,,,,,125.1716,125.6677,,,125.9218,126.4382,right,0.4998,,,,,,,,,0.45,,,,,,125.6677,125.9216,126.4384,"[-0.0005083386984473977,0.17042596604527746]","[-1,-1,-1]","[-0.02052772708757206,-0.039192567782453606]","[1,1,1]","[0.138047896459931,-0.0723694806829319]","[1,1,1]","[0.12032880374233254,0.10270629157714192]","[1,1,1]","[0.021701730714170378,-0.06181375218651693]","[-1,-1,-1]","[0.03605060901090885,0.09849638516618922]","[-1,-1,-1]","[-0.11766159732698458,0.063181444906697]","[1,1,1]","[0.06031427665504665,-0.015287264772415895]","[-1,-1,-1]","[-0.08716036411952471,0.10970037975983318]","[1,1,1]","[-0.1579595955765727,-0.03251921189073147]","[-1,-1,-1]","[-0.09322554113661372,-0.08736171674325925]","[1,1,1]","[-0.059658479619154464,0.07398597821376]","[-1,-1,-1]","[-0.0805591706768746,-0.038212168621738526]","[1,1,1]","[0.04847178917634851,0.18238610503294914]","[-1,-1,-1]","[-0.007685905455670421,0.06382022833428143]","[-1,-1,-1]","[0.07462164536972639,-0.16730574416793434]","[-1,-1,-1]","[0.109903302963703,0.029275040357200216]","[1,1,1]","[0.04477573894017163,0.04864606197804348]","[1,1,1]","[-0.0165627306118599,-0.08946229193836419]","[-1,-1,-1]","[0.11596909566686538,-0.02140354160944129]","[-1,-1,-1]","[-0.12577848585976023,0.008236652350522651]","[1,1,1]","[0.19195849434108853,0.027853695714306344]","[-1,-1,-1]","[0.10233213148130339,-0.13548308135647782]","[-1,-1,-1]","[-0.034754903700679206,0.002966087621625784]","[-1,-1,-1]","[-0.17451399600368475,0.007601826462601783]","[1,1,1]","[0.13307704220552713,0.06308611990118437]","[-1,-1,-1]","[0.0815556545495412,0.11528327541631299]","[-1,-1,-1]","[0.02469331435901875,-0.15012757772102328]","[1,1,1]","[-0.02389589547241317,-0.1331575802839716]","[1,1,1]","[0.13873505973914854,-0.11816215838419125]","[-1,-1,-1]","[0.01367225722104109,-0.1951105919437064]","[1,1,1]","[-0.11848436906880117,-0.14035971105942685]","[-1,-1,-1]","[0.02,0.02]",127.5368,0,2,2,77,1,,,,,,,
,,,,,,,67e94945e5f6a3090ed5a9d0,682f2ed21c6101cee8c4fcc6,2025-05-22_16h05.16.108,cuing_paradigm_dot,2024.1.5,Win32,59.17159763,682d573fa47f1360d1451895,,,,,,,,,,,127.5383,128.0368,,,128.2876,128.672,left,0.3693,,,,,,,,,0.9,,,,,,128.0376,128.2874,128.6723,"[0.07893049609122597,-0.13961575079957889]","[1,1,1]","[-0.11002303362163543,-0.1449061448116196]","[1,1,1]","[-0.0591967022451166,0.029126787455439986]","[1,1,1]","[0.025565887799930406,0.03944578503151384]","[-1,-1,-1]","[-0.17409271185315975,0.03574382392522389]","[1,1,1]","[0.017539883932214267,0.12741958077295998]","[-1,-1,-1]","[0.09644271610859981,0.08298103821832117]","[1,1,1]","[-0.14824159453824098,-0.12218433166777243]","[1,1,1]","[0.010734496942459548,-0.11587280913228008]","[1,1,1]","[-0.16370490767442683,0.11369258587984882]","[1,1,1]","[0.0765931862210976,-0.06050740717971107]","[1,1,1]","[0.016520519784667082,0.18130319271293013]","[1,1,1]","[0.05701553329707765,-0.005329154810946111]","[1,1,1]","[0.15348620139547559,0.11837044289800341]","[1,1,1]","[-0.14257460151134416,0.0035481058639193082]","[1,1,1]","[-0.15106064137930184,-0.07799532488188192]","[1,1,1]","[0.09132164435726907,0.029824370782173704]","[1,1,1]","[-0.11674113231054171,0.150534686420634]","[1,1,1]","[0.005081102691902962,-0.16360305769630903]","[1,1,1]","[-0.11604203190113949,0.0394041931504668]","[1,1,1]","[0.15330040093203573,-0.008957211346229704]","[-1,-1,-1]","[-0.06429930000599778,0.08913413816381192]","[1,1,1]","[0.17524984503515564,-0.06708184649054075]","[1,1,1]","[-0.09597957630169367,-0.03495475285088598]","[1,1,1]","[-0.1906281901273126,-0.05487731158688315]","[1,1,1]","[-0.11881072049272969,0.09418661321264901]","[1,1,1]","[0.07085549334209433,0.13787049006669486]","[1,1,1]","[0.17702079588163253,0.08283229932458169]","[1,1,1]","[-0.039000413555719024,-0.08846116875175482]","[1,1,1]","[-0.0989845172760332,-0.07489557605904555]","[1,1,1]","[0.04736715231756572,-0.09573293878235932]","[1,1,1]","[-0.06418236513008095,0.1477095744895383]","[1,1,1]","[0.02,0.02]",129.7701,0,3,3,193,1,,,,,,,
,,,,,,,67e94945e5f6a3090ed5a9d0,682f2ed21c6101cee8c4fcc6,2025-05-22_16h05.16.108,cuing_paradigm_dot,2024.1.5,Win32,59.17159763,682d573fa47f1360d1451895,,,,,,,,,,,129.7711,130.2698,,,130.5204,130.9211,right,0.3847,,,,,,,,,0.4,,,,,,130.27,130.5204,130.9213,"[0.09468803634319993,-0.15627168208655234]","[-1,-1,-1]","[0.06302889217341723,-0.04780315413661657]","[-1,-1,-1]","[-0.1442681261483408,-0.00634799411758636]","[1,1,1]","[-0.07351365937663486,0.05200532948161559]","[-1,-1,-1]","[-0.1528873638313377,0.050199508643296704]","[1,1,1]","[-0.1320658294518461,-0.1278334089534223]","[-1,-1,-1]","[0.05387115833949296,-0.19002455786995828]","[1,1,1]","[-0.06885101471879641,-0.16360797222627796]","[-1,-1,-1]","[-0.1476334357903923,-0.05827384955943742]","[-1,-1,-1]","[0.007926667618678043,0.14911019803460293]","[1,1,1]","[0.12206465894652557,-0.048979468663521646]","[-1,-1,-1]","[-0.09593602085380241,-0.014381956949922284]","[1,1,1]","[0.008075618623640661,0.05704679838110537]","[-1,-1,-1]","[0.047600954479527564,0.002016506914730569]","[1,1,1]","[0.1892892288423229,0.003156022909122883]","[1,1,1]","[0.16222608951853718,0.09303615991869543]","[-1,-1,-1]","[-0.06758644491609515,-0.12323404546088616]","[-1,-1,-1]","[0.023180408549428363,-0.16125757706650098]","[-1,-1,-1]","[0.19384562316090517,-0.03824522766249635]","[-1,-1,-1]","[0.07292308700868669,0.10119583369428897]","[-1,-1,-1]","[0.11591666837513574,0.08559825491005778]","[-1,-1,-1]","[0.09392908539686172,-0.07763431052796269]","[-1,-1,-1]","[-0.01018366371129314,-0.011931220764249812]","[1,1,1]","[0.007979194404666939,-0.07262741503100253]","[-1,-1,-1]","[-0.05087276529923346,-0.004468472239616632]","[-1,-1,-1]","[0.1480773025423058,-0.00732864784190959]","[1,1,1]","[-0.13048735762171498,0.14701008814932062]","[1,1,1]","[-0.015480390414183125,-0.11823725665425149]","[1,1,1]","[0.09301506340601967,0.16385376928783218]","[-1,-1,-1]","[-0.057938546640207776,0.17963302636469464]","[-1,-1,-1]","[-0.19410629315988287,-0.04589267980405516]","[1,1,1]","[-0.06156440936422422,-0.06959058940477121]","[1,1,1]","[0.02,0.02]",132.02,0,4,4,35,1,,,,,,,
,,,,,,,67e94945e5f6a3090ed5a9d0,682f2ed21c6101cee8c4fcc6,2025-05-22_16h05.16.108,cuing_paradigm_dot,2024.1.5,Win32,59.17159763,682d573fa47f1360d1451895,,,,,,,,,,,132.0215,132.5195,,,132.7714,133.4706,right,0.6859,,,,,,,,,0.55,,,,,,132.5196,132.7713,133.4707,"[-0.023508564892037922,-0.1755588631499524]","[1,1,1]","[-0.07216766794933008,-0.14340588295723364]","[-1,-1,-1]","[0.19103200821135552,0.0014505060244126616]","[-1,-1,-1]","[0.08360682991359902,-0.03826203211108667]","[-1,-1,-1]","[-0.08274499054423518,-0.09582254650120016]","[-1,-1,-1]","[0.17326077091509245,-0.08923437878471781]","[-1,-1,-1]","[-0.1021230779006151,0.09368278056551872]","[-1,-1,-1]","[0.12396550307731702,0.13337412501604728]","[1,1,1]","[0.020371255586905047,-0.13003745246300183]","[-1,-1,-1]","[0.12187595758643412,0.08352159431545567]","[-1,-1,-1]","[-0.01969367389301284,0.09443843730779966]","[-1,-1,-1]","[0.06783946302935381,-0.1823784031831424]","[1,1,1]","[0.04957238248725191,0.10516294633948417]","[1,1,1]","[-0.08638261681462889,-0.049914301401739275]","[1,1,1]","[-0.12008543743375759,-0.011387078228643478]","[1,1,1]","[-0.05976467485707083,0.1432389851874914]","[-1,-1,-1]","[-0.08421022245670641,0.015181163504790809]","[1,1,1]","[0.042243001346966846,-0.046441347429041054]","[-1,-1,-1]","[0.11032319010931765,0.0018364964818389203]","[1,1,1]","[0.015466693865041901,0.16695613524851632]","[-1,-1,-1]","[-0.1141801036171475,0.04511313079441464]","[1,1,1]","[-0.1803060995097059,0.008362647867761957]","[1,1,1]","[0.07893978422988075,0.1411123453134231]","[-1,-1,-1]","[-0.03604312359802082,-0.0624555284459499]","[-1,-1,-1]","[-0.1079487143178842,0.1649235880019304]","[1,1,1]","[0.03808306036933243,0.0234465110478191]","[1,1,1]","[-0.19143153378977934,-0.05757034876030762]","[1,1,1]","[0.08199906663579178,-0.1368325708454637]","[1,1,1]","[-0.15083336339443024,-0.03952534502152417]","[1,1,1]","[-0.02816625621841407,0.041363579798045357]","[1,1,1]","[-0.12372012007800198,-0.12968522949416977]","[1,1,1]","[0.055069360226350415,0.0653628932234385]","[1,1,1]","[0.02,0.02]",134.5707,0,5,5,148,1,,,,,,,
,,,,,,,67e94945e5f6a3090ed5a9d0,682f2ed21c6101cee8c4fcc6,2025-05-22_16h05.16.108,cuing_paradigm_dot,2024.1.5,Win32,59.17159763,682d573fa47f1360d1451895,,,,,,,,,,,134.5716,135.0701,,,135.3206,135.8874,left,0.5521,,,,,,,,,0.6,,,,,,135.0703,135.3205,135.8876,"[-0.05024334342158493,0.1436018067511111]","[-1,-1,-1]","[-0.16207925575976123,0.08090620726167899]","[1,1,1]","[-0.06435388060584238,-0.12522641895686779]","[-1,-1,-1]","[-0.08144500960235147,-0.038615621827556436]","[1,1,1]","[0.13820467095979405,-0.005335537182420385]","[1,1,1]","[0.022238100606215762,0.022757781723279986]","[1,1,1]","[0.04025312628306769,-0.03655004144334411]","[1,1,1]","[0.01817536365363056,0.07854011809121998]","[1,1,1]","[0.17017517254361597,-0.09960616363024642]","[1,1,1]","[0.1972146385199004,-0.02331398202898411]","[-1,-1,-1]","[0.1476779697258546,0.05759932605950393]","[1,1,1]","[-0.08409703054797556,0.09553159356516132]","[1,1,1]","[-0.12679103180117524,-0.03114330936244239]","[-1,-1,-1]","[0.007693338115038407,-0.16486535362810006]","[1,1,1]","[-0.1509138845643673,-0.06483453928820099]","[1,1,1]","[-0.13644305344028912,0.03738959832716983]","[1,1,1]","[0.0638118649002232,0.1029511805378135]","[1,1,1]","[-0.021764892655364212,-0.011175596865621935]","[-1,-1,-1]","[0.06993270843292408,-0.10201131867944824]","[-1,-1,-1]","[0.07931933641187265,0.0650932362233043]","[1,1,1]","[-0.1292570502736175,0.11086020192308677]","[-1,-1,-1]","[0.1278920415896875,-0.11204137442368944]","[-1,-1,-1]","[-0.021815104423828727,-0.13354607779598662]","[1,1,1]","[-0.16734223813706997,-0.01437284163020405]","[1,1,1]","[0.04706779243740572,0.18609849579260387]","[-1,-1,-1]","[-0.04827021387092965,0.07271433276416508]","[1,1,1]","[-0.013428435678624426,-0.08833016933312812]","[-1,-1,-1]","[-0.00888260129893037,0.18941776874347946]","[1,1,1]","[-0.07317150082265293,-0.1747746305989764]","[1,1,1]","[0.09142256114236802,-0.15254460895192823]","[-1,-1,-1]","[0.12205960763116938,0.12604964168902463]","[-1,-1,-1]","[0.18403737417475186,0.03828812598896814]","[-1,-1,-1]","[0.02,0.02]",136.986,0,6,6,170,1,,,,,,,
,,,,,,,67e94945e5f6a3090ed5a9d0,682f2ed21c6101cee8c4fcc6,2025-05-22_16h05.16.108,cuing_paradigm_dot,2024.1.5,Win32,59.17159763,682d573fa47f1360d1451895,,,,,,,,,,,136.9876,137.4862,,,137.7381,138.1375,left,0.3828,,,,,,,,,0.9,,,,,,137.487,137.738,138.1376,"[-0.0019396258718068988,0.16398876953153294]","[1,1,1]","[-0.10360498691732863,-0.08762775482001073]","[-1,-1,-1]","[0.09763402278562319,0.16574907290731933]","[1,1,1]","[0.15085747125402854,0.048715190607395126]","[-1,-1,-1]","[0.051472219376721376,-0.10971534576677679]","[1,1,1]","[0.0732711063372378,0.1270890659613157]","[1,1,1]","[-0.11200196684671339,0.03905011449530095]","[1,1,1]","[-0.041078069623216584,-0.04728545108108902]","[1,1,1]","[-0.032727942222186376,0.10024793930041352]","[1,1,1]","[-0.05952513705738793,-0.11966184142333974]","[1,1,1]","[0.059007180653647004,-0.008530672067744178]","[1,1,1]","[-0.0963465987066597,0.12383954192111322]","[1,1,1]","[-0.14167506578879507,-0.024557743423740154]","[1,1,1]","[0.037051439198440596,-0.04360543354105323]","[1,1,1]","[-0.14769778193819447,-0.08462260946813378]","[1,1,1]","[-0.13989691893654577,-0.13438803427183188]","[1,1,1]","[0.13067883701545083,-0.08317256259571318]","[1,1,1]","[0.11295552549745337,-0.04175066078500337]","[1,1,1]","[-0.0007436736039767469,-0.1485739307101468]","[1,1,1]","[0.014433471289458355,-0.09458916755738786]","[1,1,1]","[0.08204594257360762,0.06483044398833286]","[1,1,1]","[-0.14476843477036655,0.11787650896053387]","[1,1,1]","[0.033564904843948654,-0.18881592039677855]","[-1,-1,-1]","[0.16098593543175937,-0.11174675597613135]","[1,1,1]","[0.1341430574042609,0.10077653921110737]","[1,1,1]","[0.021248172140586104,0.09902332783491859]","[1,1,1]","[-0.18997985150022464,0.0350007360605108]","[1,1,1]","[-0.019215248717112388,0.010061046077435836]","[1,1,1]","[0.08773630230793403,-0.13291322946940648]","[1,1,1]","[0.1237382466500501,0.017369974016542156]","[1,1,1]","[0.1667663613793246,0.007605844203805226]","[1,1,1]","[-0.0840830913028071,-0.0486726125890792]","[1,1,1]","[0.02,0.02]",139.2364,0,7,7,185,1,,,,,,,
,,,,,,,67e94945e5f6a3090ed5a9d0,682f2ed21c6101cee8c4fcc6,2025-05-22_16h05.16.108,cuing_paradigm_dot,2024.1.5,Win32,59.17159763,682d573fa47f1360d1451895,,,,,,,,,,,139.2386,139.7357,,,139.9867,140.4041,right,0.4009,,,,,,,,,0.1,,,,,,139.7357,139.9866,140.4042,"[-0.14500560077477553,-0.018555085672681094]","[-1,-1,-1]","[-0.004544386342771655,-0.03503065615814689]","[-1,-1,-1]","[0.04724525583059674,-0.0021544482082088167]","[-1,-1,-1]","[-0.13335616371127518,0.10166735978624236]","[-1,-1,-1]","[-0.058438253968678223,-0.0013339335321720775]","[-1,-1,-1]","[0.11170362185007918,-0.12695072045580563]","[-1,-1,-1]","[-0.1268020500249147,-0.06454868620939666]","[-1,-1,-1]","[0.09769845299863618,0.09306549075707732]","[1,1,1]","[-0.0972028223447381,-0.13857712883966106]","[-1,-1,-1]","[0.17103619123431668,-0.009422816790066114]","[-1,-1,-1]","[-0.08822129179796316,-0.08601665725995311]","[-1,-1,-1]","[0.039898425032972626,-0.10526488421871927]","[-1,-1,-1]","[0.10395462773688238,-0.07362070506071168]","[-1,-1,-1]","[0.18321150025307023,-0.07647237620386889]","[-1,-1,-1]","[0.0017124202885569694,0.007050927537820656]","[-1,-1,-1]","[-0.004846128037568754,-0.17771295636972934]","[1,1,1]","[-0.059417063380151944,0.15264673431620118]","[-1,-1,-1]","[0.028515824120362847,0.11382315317910251]","[-1,-1,-1]","[0.09443439132763508,0.00725799355895894]","[-1,-1,-1]","[-0.052385193679804085,0.08404372625918112]","[-1,-1,-1]","[-0.07352148982506504,0.039196731344249294]","[-1,-1,-1]","[-0.04288015633673646,-0.1557007652159581]","[-1,-1,-1]","[-0.011521135497924878,-0.09751314260404265]","[-1,-1,-1]","[-0.10830492385242114,0.007538096186113671]","[-1,-1,-1]","[-0.11148976802354232,0.06537296611232288]","[-1,-1,-1]","[-0.1737187371054061,0.023151070457916218]","[-1,-1,-1]","[-0.006526033260554055,0.1810884430580201]","[-1,-1,-1]","[0.15289656885353103,0.051186152290097216]","[-1,-1,-1]","[0.04047539610254416,-0.05137803344838505]","[-1,-1,-1]","[-0.1544954728413259,-0.11789844002107168]","[-1,-1,-1]","[-0.10284351487121897,0.14149161744585592]","[1,1,1]","[0.06728925502618026,-0.1655956333824197]","[-1,-1,-1]","[0.02,0.02]",141.5036,0,8,8,6,1,,,,,,,
,,,,,,,67e94945e5f6a3090ed5a9d0,682f2ed21c6101cee8c4fcc6,2025-05-22_16h05.16.108,cuing_paradigm_dot,2024.1.5,Win32,59.17159763,682d573fa47f1360d1451895,,,,,,,,,,,141.5045,142.0028,,,142.2541,142.6361,left,0.3673,,,,,,,,,0.6,,,,,,142.0036,142.254,142.6364,"[-0.03788974282308809,-0.12878898122044538]","[1,1,1]","[-0.07276492244984079,0.051269520685167276]","[1,1,1]","[0.10647974668822967,-0.013660623191243837]","[1,1,1]","[0.08165681073903736,-0.1377134884143158]","[1,1,1]","[-0.11460529182063038,0.12207535376440497]","[1,1,1]","[-0.15712764901748272,0.09082669415309347]","[1,1,1]","[-0.1757884081462804,-0.09143153800919439]","[1,1,1]","[-0.01722772815404951,0.020916344983630975]","[1,1,1]","[-0.07801457806451804,-0.17365603721046458]","[1,1,1]","[0.005182780228017997,-0.16450838121953315]","[-1,-1,-1]","[0.0406609060607886,0.03572353241146044]","[-1,-1,-1]","[0.04577908741509851,-0.024747215674455408]","[-1,-1,-1]","[-0.09828928802294586,0.0015919770367604886]","[-1,-1,-1]","[0.0772321576435834,0.08848740930663837]","[1,1,1]","[-0.03336377855684511,-0.018584694368060848]","[-1,-1,-1]","[-0.1405808047645374,0.04444584847328093]","[1,1,1]","[0.033952061477036125,-0.12053584374088307]","[1,1,1]","[0.14078889881512943,0.1078699952645662]","[-1,-1,-1]","[0.009573545852838119,0.16856728276899108]","[1,1,1]","[-0.06453653930576912,-0.05087786363182397]","[1,1,1]","[0.1933771621510478,-0.01273700733410043]","[-1,-1,-1]","[-0.11292036365030711,-0.14051919064421142]","[1,1,1]","[0.19654607246896977,0.03177389295854646]","[1,1,1]","[0.039954019935167326,0.1322928775174929]","[-1,-1,-1]","[0.05714007497542563,0.18628701427553132]","[1,1,1]","[0.1402080007022457,-0.09181743248542415]","[1,1,1]","[0.04581511219632109,-0.06692415132112638]","[1,1,1]","[-0.07805580318228589,0.09526379327762395]","[-1,-1,-1]","[-0.08240999369065762,-0.10417015556347307]","[-1,-1,-1]","[0.10908572939318233,0.14241946874774877]","[-1,-1,-1]","[-0.022886544626354782,0.10381406667135785]","[-1,-1,-1]","[0.15667212187723448,0.027031567703850297]","[-1,-1,-1]","[0.02,0.02]",143.7358,0,9,9,151,1,,,,,,,
,,,,,,,67e94945e5f6a3090ed5a9d0,682f2ed21c6101cee8c4fcc6,2025-05-22_16h05.16.108,cuing_paradigm_dot,2024.1.5,Win32,59.17159763,682d573fa47f1360d1451895,,,,,,,,,,,143.7374,144.2368,,,144.4872,144.8031,right,0.302,,,,,,,,,0.1,,,,,,144.2369,144.4872,144.8031,"[-0.1594081088517683,-0.016824534285830157]","[-1,-1,-1]","[-0.1765108192019427,0.021299543671831025]","[-1,-1,-1]","[-0.11957361572856952,0.020921076703815846]","[-1,-1,-1]","[0.12483825651731777,0.09354837399994922]","[-1,-1,-1]","[-0.0629384871251532,-0.07992836741472839]","[1,1,1]","[-0.10174191667354783,-0.06231977108843041]","[-1,-1,-1]","[0.15961104068135107,-0.06900866385853036]","[-1,-1,-1]","[0.023197079557640325,0.11519401816888389]","[-1,-1,-1]","[0.02732503058162069,0.05354306537987387]","[-1,-1,-1]","[-0.110815707925073,0.08254666251028106]","[-1,-1,-1]","[-0.10238383501014242,0.13197510842661012]","[-1,-1,-1]","[0.05149412365975533,-0.10353491327359003]","[-1,-1,-1]","[-0.020425799015822903,0.14629778297038465]","[-1,-1,-1]","[0.15365382160569527,-0.12685719454086786]","[-1,-1,-1]","[0.06047263148997129,0.08786252500869632]","[-1,-1,-1]","[-0.04738960875585395,0.0162606221785882]","[-1,-1,-1]","[-0.1512560097454588,0.09455296901546496]","[1,1,1]","[0.16137418626650865,0.06186066329089354]","[1,1,1]","[0.19899036895927777,0.012730528513069819]","[-1,-1,-1]","[0.19461393270855395,-0.0345089666322753]","[-1,-1,-1]","[0.03990395275684856,-0.15783459943460867]","[-1,-1,-1]","[-0.00322006174020909,-0.06793024624544326]","[-1,-1,-1]","[0.1260943621776259,0.011142588800963303]","[-1,-1,-1]","[0.10030856926670034,-0.14476675837888933]","[-1,-1,-1]","[-0.11475536279984595,-0.15184912858499702]","[-1,-1,-1]","[0.11393792422370268,-0.034494503493519374]","[-1,-1,-1]","[-0.026001362974112784,-0.15341598818357222]","[-1,-1,-1]","[0.02120857598805329,0.17563945615153698]","[-1,-1,-1]","[-0.08313663752696489,-0.11958513384169348]","[-1,-1,-1]","[-0.04608707793667672,-0.04321996145810249]","[-1,-1,-1]","[-0.037637266562887066,0.07181026972649453]","[-1,-1,-1]","[-0.04906839904057209,0.1805502410090394]","[-1,-1,-1]","[0.02,0.02]",145.9023,0,10,10,8,1,,,,,,,
,,,,,,,67e94945e5f6a3090ed5a9d0,682f2ed21c6101cee8c4fcc6,2025-05-22_16h05.16.108,cuing_paradigm_dot,2024.1.5,Win32,59.17159763,682d573fa47f1360d1451895,,,,,,,,,,,145.904,146.4021,,,146.6538,147.0668,left,0.4052,,,,,,,,,0.9,,,,,,146.4022,146.6537,147.067,"[-0.055072201711553775,0.016562183304435023]","[1,1,1]","[-0.017146098836942295,-0.019049665100373883]","[1,1,1]","[0.02493248294429306,0.06416334194329412]","[1,1,1]","[-0.00856226818588016,-0.10815218425417748]","[1,1,1]","[0.14045042169819408,0.08826145010986904]","[1,1,1]","[0.1645752029023524,-0.06300079847827374]","[1,1,1]","[0.12231880038162903,0.022830247866020715]","[1,1,1]","[-0.038107240826301236,0.13448183464850935]","[1,1,1]","[0.038486118260615376,0.18528351212923036]","[-1,-1,-1]","[-0.11852583677009294,-0.09598591989266199]","[1,1,1]","[0.045119794336473874,-0.05663106277767765]","[1,1,1]","[-0.10116746709293922,0.07768920250985345]","[1,1,1]","[-0.16626861713604413,0.08817918386869904]","[1,1,1]","[0.05102732025362999,-0.1581160912274236]","[1,1,1]","[-0.057977548918463635,-0.03480918013521952]","[1,1,1]","[-0.143553772637717,-0.1275007334230615]","[1,1,1]","[0.10437275806647081,-0.12895752859126267]","[1,1,1]","[0.19391144617571104,0.02608567237861423]","[1,1,1]","[-0.07056783404723199,0.10704905604737855]","[1,1,1]","[0.07705364699571902,-0.027122907588831485]","[1,1,1]","[-0.17139168228528592,0.00562545159243901]","[1,1,1]","[-0.10231518531583099,-0.02371581536058523]","[1,1,1]","[0.13132505819985604,0.13592374912853394]","[1,1,1]","[0.024696087361484893,0.12184565514349367]","[1,1,1]","[-0.023246940951921154,0.07886171656923652]","[1,1,1]","[0.04703997513985545,0.026350576972257556]","[-1,-1,-1]","[0.06684067894975179,-0.10016939656816203]","[1,1,1]","[-0.00586021786580234,0.1775272338887635]","[1,1,1]","[0.08699126811802954,0.1390428406342797]","[1,1,1]","[-0.15200501687949247,-0.04904576921403037]","[1,1,1]","[0.12250034531855004,-0.05568433050985672]","[1,1,1]","[-0.10222938024747957,-0.1391336241658465]","[-1,-1,-1]","[0.02,0.02]",148.1689,0,11,11,182,1,,,,,,,
,,,,,,,67e94945e5f6a3090ed5a9d0,682f2ed21c6101cee8c4fcc6,2025-05-22_16h05.16.108,cuing_paradigm_dot,2024.1.5,Win32,59.17159763,682d573fa47f1360d1451895,,,,,,,,,,,148.17,148.6689,,,148.92,149.2185,left,0.2917,,,,,,,,,0.9,,,,,,148.6689,148.9199,149.2186,"[-0.017780195759045627,-0.18344616151520615]","[1,1,1]","[0.07715035678511753,-0.10041752695660366]","[1,1,1]","[-0.09574462873965256,-0.16190397576990825]","[-1,-1,-1]","[-0.06660962755163151,0.14066370989760152]","[1,1,1]","[-0.16935124684249023,0.06040990844819176]","[1,1,1]","[-0.06077568341190165,-0.0045869412328154655]","[1,1,1]","[0.04325887274123048,0.08101827267368267]","[1,1,1]","[-0.16081676588694008,-0.046830423643285726]","[1,1,1]","[0.1680742173294109,0.10825337694593382]","[1,1,1]","[-0.011130202912707606,0.1760939245325817]","[1,1,1]","[-0.12870844947157428,0.0483754556615413]","[1,1,1]","[-0.020260882523322706,-0.1271496299812947]","[1,1,1]","[0.015290854653299487,-0.04925420541970965]","[1,1,1]","[0.1275318270602447,0.060083585155540284]","[1,1,1]","[0.05698877144889671,0.1532861640664047]","[1,1,1]","[0.14312653224897917,-0.11763745979205632]","[1,1,1]","[0.041313662312030604,-0.152279036308235]","[1,1,1]","[0.1417944197470585,-0.05820459093094972]","[1,1,1]","[0.17130417874381937,-0.015207891585100988]","[1,1,1]","[-0.13259118539819587,0.14464533917417363]","[1,1,1]","[0.1296265254791255,0.14112140615180235]","[1,1,1]","[-0.05457714279092546,0.181132376504966]","[1,1,1]","[-0.010920254295880916,0.12459967888405518]","[1,1,1]","[-0.1429606834372562,0.09827202187853948]","[1,1,1]","[0.07445787656454966,0.035416687862504195]","[1,1,1]","[-0.018716483732189763,0.07915307722183319]","[1,1,1]","[-0.19250172831301535,-0.015488923683901808]","[1,1,1]","[-0.008579861155061555,-0.015625691339349646]","[-1,-1,-1]","[0.03654856901780692,-0.09883072580308577]","[1,1,1]","[-0.09446626296295547,0.02057420917742355]","[1,1,1]","[0.036109142172592174,0.022473861284981227]","[1,1,1]","[0.06044683747321021,-0.011408100880521537]","[-1,-1,-1]","[0.02,0.02]",150.3189,0,12,12,207,1,,,,,,,
,,,,,,,67e94945e5f6a3090ed5a9d0,682f2ed21c6101cee8c4fcc6,2025-05-22_16h05.16.108,cuing_paradigm_dot,2024.1.5,Win32,59.17159763,682d573fa47f1360d1451895,,,,,,,,,,,150.3204,150.8198,,,151.0703,151.62,right,0.538,,,,,,,,,0.5,,,,,,150.8198,151.0703,151.6201,"[0.12744222428924867,-0.012362832489278788]","[-1,-1,-1]","[0.03206111492376616,-0.0215052495566539]","[1,1,1]","[0.18635676035376486,-0.06629761383728423]","[1,1,1]","[0.12059826596552674,-0.09516239464154705]","[1,1,1]","[-0.03502948962406261,0.08267410631703893]","[-1,-1,-1]","[-0.10973494458442375,0.1131113677771128]","[1,1,1]","[-0.05241213595404841,-0.154569254018653]","[1,1,1]","[-0.06244628348163354,-0.040085825355973485]","[-1,-1,-1]","[-0.15002626085256854,0.05946879713606588]","[-1,-1,-1]","[0.004325940235517544,0.15274589012043274]","[-1,-1,-1]","[-0.16441509735886398,-0.04784306228014045]","[1,1,1]","[-0.04523829180891239,0.17919751735769707]","[-1,-1,-1]","[-0.08164369194584888,-0.09665916623279025]","[-1,-1,-1]","[-0.005903108990190083,0.033081940892969064]","[1,1,1]","[-0.031419551576073956,-0.07237866707370126]","[-1,-1,-1]","[-0.04876361974259979,0.0378851352901559]","[1,1,1]","[-0.09440024245173882,0.06486308486892853]","[-1,-1,-1]","[0.05887361859508978,0.08396963984817972]","[-1,-1,-1]","[-0.13274078737553047,0.018545304776761792]","[-1,-1,-1]","[0.10106494439937533,0.09362409403796385]","[-1,-1,-1]","[-0.08203535356342558,0.14462573137327742]","[-1,-1,-1]","[0.023789370085642282,-0.19648139891691585]","[1,1,1]","[0.07499312907121139,-0.003993547541328254]","[1,1,1]","[0.1347530271234335,-0.05338075148388924]","[1,1,1]","[0.1349415491006238,0.1265433424380751]","[1,1,1]","[-0.090862470738108,-0.006923655896861613]","[1,1,1]","[0.08806258999387177,-0.11991155296115119]","[1,1,1]","[-0.17472481248062322,-0.09171540739183397]","[-1,-1,-1]","[0.08897195331001265,-0.05284939708293582]","[1,1,1]","[0.19893565500665597,0.012914893145254841]","[-1,-1,-1]","[0.12131154455873867,-0.14465456402423077]","[-1,-1,-1]","[-0.16759157423600735,0.0981328172028334]","[1,1,1]","[0.02,0.02]",152.7187,0,13,13,114,1,,,,,,,
,,,,,,,67e94945e5f6a3090ed5a9d0,682f2ed21c6101cee8c4fcc6,2025-05-22_16h05.16.108,cuing_paradigm_dot,2024.1.5,Win32,59.17159763,682d573fa47f1360d1451895,,,,,,,,,,,152.7203,153.2197,,,153.4696,154.003,right,0.5198,,,,,,,,,0.4,,,,,,153.2198,153.4696,154.003,"[0.12196976276982445,0.016645749719035003]","[1,1,1]","[-0.12859329627923602,-0.1345424533814522]","[-1,-1,-1]","[0.16778427166606646,-0.08987999722160203]","[1,1,1]","[0.12404748948452086,0.1026844759767859]","[-1,-1,-1]","[0.08863164829014603,0.14912250443851122]","[-1,-1,-1]","[-0.12600768195995235,-0.03604243494205079]","[1,1,1]","[0.09989924971388002,-0.0895157528011157]","[-1,-1,-1]","[-0.06599747746511375,0.049017647040434785]","[-1,-1,-1]","[-0.012879115962068801,-0.1603190881690168]","[-1,-1,-1]","[0.14337356151511715,-0.030596835220732425]","[-1,-1,-1]","[-0.07515129220989113,0.13031627199277826]","[1,1,1]","[-0.012537222846346079,-0.11653224862464458]","[1,1,1]","[0.06025188571840606,-0.17781835719548866]","[1,1,1]","[0.018662773955177427,0.10549625555969132]","[-1,-1,-1]","[0.014099518953164166,-0.03592600996611164]","[1,1,1]","[0.13391778954166964,0.1472223259184933]","[-1,-1,-1]","[0.004957784807265989,0.056637680929156206]","[1,1,1]","[-0.03581851018517754,0.17172161568706146]","[-1,-1,-1]","[-0.06872503924092298,-0.17070802677502206]","[-1,-1,-1]","[-0.10996112275714368,0.0469691364530122]","[1,1,1]","[-0.19012601110927194,0.0017868060718287714]","[-1,-1,-1]","[0.07943710296586977,0.026969694710378543]","[-1,-1,-1]","[-0.020846065800273702,0.004926862479670551]","[1,1,1]","[0.16667053830966974,0.0638843905498703]","[-1,-1,-1]","[-0.029802818444949235,-0.05429632200076908]","[-1,-1,-1]","[0.0585755840323793,0.10908731200110235]","[-1,-1,-1]","[-0.15642708818611756,-0.07679993908998504]","[-1,-1,-1]","[-0.09176005053812349,-0.07144030108321009]","[1,1,1]","[-0.15279897972781278,0.08539653206719545]","[-1,-1,-1]","[0.061073051526490764,-0.12561187538686838]","[1,1,1]","[-0.1329988737810088,0.004235285793188754]","[-1,-1,-1]","[0.12307305404108149,-0.1503298274082356]","[1,1,1]","[0.02,0.02]",155.102,0,14,14,41,1,,,,,,,
,,,,,,,67e94945e5f6a3090ed5a9d0,682f2ed21c6101cee8c4fcc6,2025-05-22_16h05.16.108,cuing_paradigm_dot,2024.1.5,Win32,59.17159763,682d573fa47f1360d1451895,,,,,,,,,,,155.1034,155.602,,,155.8535,156.7164,left,0.8503,,,,,,,,,0.6,,,,,,155.6021,155.8534,156.7164,"[0.09749992727701472,0.1202490130709776]","[-1,-1,-1]","[0.031160525670649464,-0.10469269287985433]","[-1,-1,-1]","[0.05551728141202651,-0.010901908063430613]","[-1,-1,-1]","[0.13780574682522054,0.0009444126549742183]","[-1,-1,-1]","[-0.04572897637777123,0.04851868280413792]","[1,1,1]","[0.1955916712870944,0.037789567881460984]","[-1,-1,-1]","[-0.011773728796638705,0.17251972867067508]","[1,1,1]","[0.08659407515196944,-0.11888022945448651]","[-1,-1,-1]","[-0.005755051551827934,0.04259241787018823]","[1,1,1]","[0.14539982749635816,-0.08101764384729016]","[-1,-1,-1]","[0.05905282158887202,-0.18302875690616133]","[-1,-1,-1]","[-0.0894257706078882,-0.13963542587959052]","[1,1,1]","[0.06841167781865716,-0.07864960766952411]","[1,1,1]","[0.08705769237599648,0.022376220264567225]","[-1,-1,-1]","[0.017657878138822754,-0.1721180281308946]","[1,1,1]","[-0.17857276756295343,0.0006887713518023121]","[-1,-1,-1]","[0.16105841718643543,0.08272194896264372]","[1,1,1]","[-0.08138412830240695,0.16181056241971825]","[1,1,1]","[-0.14474326128300372,0.09711381420501136]","[1,1,1]","[-0.05617783661567601,-0.010056941429397238]","[1,1,1]","[-0.01168461603811536,0.10105002726443754]","[1,1,1]","[0.06692194963515363,0.15376749042430998]","[1,1,1]","[0.17845502807417207,-0.006025974499778241]","[1,1,1]","[0.05000333864265127,0.09999848045798287]","[1,1,1]","[-0.15395815899232007,-0.10630618966683524]","[-1,-1,-1]","[-0.0629289096395002,-0.05805551739926528]","[1,1,1]","[-0.011468869079223653,-0.06970483964977935]","[-1,-1,-1]","[0.04314437145095461,0.040536171929192934]","[1,1,1]","[-0.046845731172066335,-0.15220392611495917]","[-1,-1,-1]","[0.1298582590756934,0.04145044060939228]","[1,1,1]","[-0.10254285048527263,-0.07993983836979142]","[1,1,1]","[-0.02102639737044375,-0.03030337400028609]","[1,1,1]","[0.02,0.02]",157.8178,0,15,15,153,1,,,,,,,
,,,,,,,67e94945e5f6a3090ed5a9d0,682f2ed21c6101cee8c4fcc6,2025-05-22_16h05.16.108,cuing_paradigm_dot,2024.1.5,Win32,59.17159763,682d573fa47f1360d1451895,,,,,,,,,,,157.8198,158.3179,,,158.5691,159.1193,right,0.5399,,,,,,,,,0.45,,,,,,158.318,158.5685,159.1193,"[0.008752632399228093,-0.007835578562064488]","[1,1,1]","[0.0620934865997494,0.015083990119302872]","[1,1,1]","[-0.01582014056076393,-0.13568872133297097]","[-1,-1,-1]","[-0.1599260155011168,-0.07993970120296619]","[1,1,1]","[-0.06972608188309105,-0.014781710106798867]","[-1,-1,-1]","[-0.1505959759262269,0.06845016907586718]","[-1,-1,-1]","[-0.026144633847512238,-0.08187831061460257]","[-1,-1,-1]","[-0.008414819386292226,0.08976386177411205]","[-1,-1,-1]","[-0.047174996680934396,0.129874992530514]","[-1,-1,-1]","[0.1243459666423233,-0.06639536223046587]","[-1,-1,-1]","[-0.19810794651254815,-0.02694160735304093]","[-1,-1,-1]","[0.04967658395286934,-0.18897182270074964]","[1,1,1]","[0.0269911183079955,0.15264518206210873]","[-1,-1,-1]","[-0.04947105825054449,-0.16515461048243055]","[1,1,1]","[0.06508697476992724,0.07896157885516335]","[-1,-1,-1]","[-0.12669736724420216,-0.019506809570731365]","[-1,-1,-1]","[-0.09842336694690851,0.11511009754840636]","[1,1,1]","[0.16968105427228491,-0.012755396676450967]","[-1,-1,-1]","[0.017921048308944157,-0.08472763058725792]","[1,1,1]","[0.11494966880001144,0.05669276281075427]","[-1,-1,-1]","[0.04739137174577432,-0.03818872739926636]","[-1,-1,-1]","[0.11029656223579588,-0.02106566416530365]","[1,1,1]","[0.1545579419731973,0.1186082021372534]","[1,1,1]","[0.08291871609083179,-0.09250165414353466]","[-1,-1,-1]","[-0.1156259400695227,-0.10067986577403502]","[1,1,1]","[0.11610236205625246,0.1399415811440388]","[-1,-1,-1]","[0.019811125354792486,0.05233139238691059]","[1,1,1]","[-0.06471010837509814,0.034674225937515124]","[1,1,1]","[-0.08003365181305348,-0.05701538972210082]","[-1,-1,-1]","[0.011848343653468128,-0.17558446278384393]","[-1,-1,-1]","[0.07020045249009951,-0.14146080896957045]","[1,1,1]","[0.1575355935950299,0.057681375265412275]","[1,1,1]","[0.02,0.02]",160.2186,0,16,16,63,1,,,,,,,
,,,,,,,67e94945e5f6a3090ed5a9d0,682f2ed21c6101cee8c4fcc6,2025-05-22_16h05.16.108,cuing_paradigm_dot,2024.1.5,Win32,59.17159763,682d573fa47f1360d1451895,,,,,,,,,,,160.2194,160.7176,,,160.9687,161.5027,left,0.5205,,,,,,,,,0.6,,,,,,160.7177,160.9686,161.5028,"[-0.011606871773910815,-0.07461493309917792]","[1,1,1]","[0.03984367228781397,0.1145859933671928]","[1,1,1]","[0.11631918795389608,-0.034670124787514564]","[1,1,1]","[-0.07454919308528697,0.07269484525788587]","[1,1,1]","[-0.06024995156771501,-0.004723738143392828]","[1,1,1]","[0.16317006626479705,0.0709305857926694]","[-1,-1,-1]","[-0.03430133731611984,0.07448668826581221]","[-1,-1,-1]","[-0.17151455024804318,0.05769951991268628]","[-1,-1,-1]","[-0.1000412055866848,-0.07612037307620716]","[1,1,1]","[0.11395129083354859,0.006159859699324293]","[1,1,1]","[-0.017803576337339606,0.12308241237054698]","[1,1,1]","[-0.13787728252572987,-0.12450121769400997]","[1,1,1]","[-0.14628974497306835,0.10120704470631871]","[-1,-1,-1]","[0.0020281297499511143,0.030643848659522]","[1,1,1]","[-0.04645633932019179,-0.12795217534145711]","[1,1,1]","[-0.17053489109639924,-0.003788998936767892]","[-1,-1,-1]","[0.026805889887616095,0.17615110596225203]","[1,1,1]","[-0.11380510653778193,-0.15821929837553425]","[1,1,1]","[0.11927492815886313,0.138545386700856]","[-1,-1,-1]","[0.07452663097474502,0.06335966947104822]","[-1,-1,-1]","[0.15424541865529898,-0.08892817813334153]","[-1,-1,-1]","[0.08642419325369974,-0.11822974479051468]","[1,1,1]","[0.06755637796260283,0.007023988731054028]","[-1,-1,-1]","[-0.05096520844544969,-0.172584751801537]","[1,1,1]","[0.030587379762052638,-0.01239276408466884]","[-1,-1,-1]","[0.05110882540073771,-0.09303018099320598]","[1,1,1]","[-0.0780107068403423,0.15930089913170792]","[1,1,1]","[0.09352396476946778,-0.16957274282852766]","[1,1,1]","[-0.14188825246029582,-0.04580390480264773]","[-1,-1,-1]","[0.016414884241180476,-0.17707892794570787]","[-1,-1,-1]","[0.16959425167482198,0.0075193517204986534]","[-1,-1,-1]","[-0.11727814202486456,0.027383509633395073]","[1,1,1]","[0.02,0.02]",162.6016,0,17,17,160,1,,,,,,,
,,,,,,,67e94945e5f6a3090ed5a9d0,682f2ed21c6101cee8c4fcc6,2025-05-22_16h05.16.108,cuing_paradigm_dot,2024.1.5,Win32,59.17159763,682d573fa47f1360d1451895,,,,,,,,,,,162.6025,163.1015,,,163.3518,163.9876,right,0.6191,,,,,,,,,0.45,,,,,,163.1016,163.3518,163.9877,"[-0.1733468853377103,0.0569351888329757]","[-1,-1,-1]","[0.16365167214739873,0.0233194919689914]","[1,1,1]","[0.07366468956612099,0.04395646702195345]","[-1,-1,-1]","[-0.1250856237826288,-0.08145649463328344]","[-1,-1,-1]","[-0.1255972155512713,0.12610473232685776]","[-1,-1,-1]","[0.00815171003046893,0.15680470049698253]","[-1,-1,-1]","[0.04874673906058402,-0.16844513925866]","[-1,-1,-1]","[0.02120627481102562,0.05491307833687508]","[1,1,1]","[-0.061978306403072954,0.0869811408447256]","[-1,-1,-1]","[0.17854944938451778,-0.016155400199689293]","[-1,-1,-1]","[0.14006007892548622,0.06205204185031821]","[-1,-1,-1]","[0.05218697599761993,0.1190570809531726]","[1,1,1]","[0.13095314083212645,-0.14539017996369424]","[-1,-1,-1]","[-0.02450888706690381,-0.010475774388726483]","[1,1,1]","[0.1078629227324245,0.09703804398530443]","[1,1,1]","[-0.08259652713450517,-0.13549439684777143]","[1,1,1]","[-0.054949510978678145,0.030771413936404608]","[-1,-1,-1]","[-0.027777534880588026,-0.08518085091211275]","[1,1,1]","[-0.08360426887484602,-0.07965119972012366]","[-1,-1,-1]","[0.028128926000881196,-0.09079172008191891]","[-1,-1,-1]","[-0.18664778986535854,0.008552142566305213]","[-1,-1,-1]","[-0.13758145452487563,0.02498395884919357]","[1,1,1]","[0.10712838446177401,-0.046708763288977315]","[1,1,1]","[0.08846416224511598,0.1776108637774361]","[1,1,1]","[0.08665796984543893,-0.15517720063767576]","[1,1,1]","[0.1600706882263316,-0.0816746624523671]","[1,1,1]","[0.1911009207223343,-0.05631537657497808]","[-1,-1,-1]","[0.08461293516725304,-0.08921375885691576]","[1,1,1]","[-0.16844901793807673,-0.05877641067043405]","[-1,-1,-1]","[-0.14764015459100027,-0.021695494258472607]","[-1,-1,-1]","[-0.05765329814493121,-0.17034341238614148]","[1,1,1]","[-0.09276891537681937,0.15395076979403724]","[-1,-1,-1]","[0.02,0.02]",165.0852,0,18,18,73,1,,,,,,,
,,,,,,,67e94945e5f6a3090ed5a9d0,682f2ed21c6101cee8c4fcc6,2025-05-22_16h05.16.108,cuing_paradigm_dot,2024.1.5,Win32,59.17159763,682d573fa47f1360d1451895,,,,,,,,,,,165.0862,165.5847,,,165.8367,166.4183,left,0.566,,,,,,,,,0.55,,,,,,165.5848,165.8366,166.4184,"[0.039136742991884924,-0.15598226850982333]","[1,1,1]","[-0.16569028394938343,-0.06856698330533438]","[1,1,1]","[0.10382164340770805,0.13505994875966473]","[1,1,1]","[-0.1823756004554861,0.05301536670904547]","[1,1,1]","[0.09585180521535619,-0.17209150569207277]","[1,1,1]","[-0.09579910795012832,0.16037484765595922]","[-1,-1,-1]","[0.12525953250737887,0.061928226374647954]","[1,1,1]","[0.04300948442897031,-0.03110685027188685]","[1,1,1]","[-0.16092304480364222,0.10023848668330879]","[1,1,1]","[-0.05145761154825464,-0.1869995891272286]","[1,1,1]","[-0.11008465256593457,-0.1361144295845629]","[-1,-1,-1]","[0.0469451637697874,0.0923508397816031]","[1,1,1]","[0.0025371478910734286,-0.10703012853342007]","[-1,-1,-1]","[0.05588680269218762,0.14136279778220606]","[1,1,1]","[0.19090527273205438,-0.05463777276204309]","[-1,-1,-1]","[-0.0475680031595318,0.1409383414309859]","[1,1,1]","[-0.13647231580186264,0.021543768710742563]","[1,1,1]","[0.19175418568624314,0.042589538604379654]","[-1,-1,-1]","[-0.031564624331140316,-0.020259066394752213]","[-1,-1,-1]","[-0.07924171881188567,0.10766459175479766]","[-1,-1,-1]","[-0.049992682023437415,-0.11390287629426708]","[-1,-1,-1]","[0.09505321213213518,-0.045574988496825376]","[-1,-1,-1]","[0.11817791592037288,-0.007891115425144255]","[1,1,1]","[-0.18846335370684408,0.005565735040082547]","[1,1,1]","[0.02731060719049109,-0.07444451071912107]","[1,1,1]","[-0.11543322839467338,0.07137699956517282]","[-1,-1,-1]","[-0.037306800256229664,0.08101037761007276]","[-1,-1,-1]","[0.06700910276192912,0.18704580952968214]","[-1,-1,-1]","[0.1506406702899411,0.12308014607000481]","[-1,-1,-1]","[0.08490765008326777,-0.11298775091168792]","[1,1,1]","[-0.09182791410517882,-0.17562432438462214]","[-1,-1,-1]","[-0.09167707953407851,-0.04055682773355684]","[1,1,1]","[0.02,0.02]",167.5184,0,19,19,143,1,,,,,,,
,,,,,,,67e94945e5f6a3090ed5a9d0,682f2ed21c6101cee8c4fcc6,2025-05-22_16h05.16.108,cuing_paradigm_dot,2024.1.5,Win32,59.17159763,682d573fa47f1360d1451895,,,,,,,,,,,167.519,168.018,,,168.2687,168.6361,left,0.3513,,,,,,,,,0.9,,,,,,168.018,168.2686,168.6363,"[-0.027621871690745994,-0.10124925620415537]","[1,1,1]","[-0.05882405174141062,-0.06951735302827344]","[1,1,1]","[0.044223503389862806,0.05513999627629172]","[1,1,1]","[0.053495555072430784,0.11963338528380772]","[1,1,1]","[-0.11684433471409175,-0.049860498001364086]","[1,1,1]","[-0.0416780577632731,-0.19522484656682745]","[1,1,1]","[-0.15579056632743415,0.06672777949983111]","[-1,-1,-1]","[0.050814828540385645,-0.06052744168465719]","[1,1,1]","[-0.024490225081670154,0.08918677724711127]","[1,1,1]","[-0.18651190088550496,0.035196518790984836]","[-1,-1,-1]","[-0.15991868637171136,-0.0008466317453575663]","[1,1,1]","[-0.020821147816267496,0.01802457396069237]","[1,1,1]","[0.006726874887353003,0.13442455167982414]","[1,1,1]","[0.13690771497146234,0.08802405260690357]","[1,1,1]","[-0.12690961849756432,-0.12523614887615853]","[1,1,1]","[-0.15364884699546144,-0.074359708972233]","[1,1,1]","[0.04936714383439602,0.16497941132874133]","[1,1,1]","[-0.12854643080975006,0.14452551291590934]","[1,1,1]","[0.10892490650659453,-0.04605393393918298]","[1,1,1]","[-0.07930808155683952,0.01716235434965709]","[1,1,1]","[-0.08078384140314485,0.10647805826304345]","[1,1,1]","[0.18848198630161156,0.03416969911391903]","[1,1,1]","[-0.016439732915634348,-0.15087038445705356]","[1,1,1]","[0.11024804960411766,-0.1082865923076503]","[1,1,1]","[-0.1896911445454845,-0.03768525422933398]","[1,1,1]","[-0.11447759983866876,0.06746562302273054]","[1,1,1]","[0.12345246269536482,-0.1469215408750666]","[1,1,1]","[0.03350023821834056,0.014700971917117465]","[1,1,1]","[0.0972217029699435,0.07376547016002874]","[1,1,1]","[0.0579529876338697,-0.1394116782416953]","[-1,-1,-1]","[0.16780332751829505,-0.04662843009542079]","[1,1,1]","[-0.0747335009017508,-0.14400557553470547]","[1,1,1]","[0.02,0.02]",169.735,0,20,20,191,1,,,,,,,
,,,,,,,67e94945e5f6a3090ed5a9d0,682f2ed21c6101cee8c4fcc6,2025-05-22_16h05.16.108,cuing_paradigm_dot,2024.1.5,Win32,59.17159763,682d573fa47f1360d1451895,,,,,,,,,,,169.7363,170.2343,,,170.4853,171.3205,left,0.8298,,,,,,,,,0.5,,,,,,170.2344,170.4851,171.3206,"[0.087126286756896,-0.14731300516223889]","[-1,-1,-1]","[-0.027229918143066318,-0.1798028398090911]","[-1,-1,-1]","[-0.04855404933968692,-0.10024142831591684]","[-1,-1,-1]","[-0.11208521455992147,-0.16271612111965256]","[-1,-1,-1]","[0.177877936981691,-0.04479256357537163]","[-1,-1,-1]","[-0.014189815518058934,0.01860355313262576]","[-1,-1,-1]","[0.0535014144517314,-0.014973567213735123]","[-1,-1,-1]","[0.017796655468731548,0.1734816204695193]","[1,1,1]","[-0.010999257426073359,0.05959059353805955]","[1,1,1]","[0.1218696596917676,0.08873827841449791]","[1,1,1]","[0.028375356467765536,-0.15500813581525213]","[1,1,1]","[0.030956512314136958,-0.04968582804824659]","[-1,-1,-1]","[-0.11712395246084563,-0.02937158922933171]","[-1,-1,-1]","[-0.10203847032647632,0.08241795936855595]","[-1,-1,-1]","[0.15399356043210077,-0.09471659703498524]","[1,1,1]","[-0.1557037533505293,0.09042555369450701]","[-1,-1,-1]","[-0.08630287857237146,0.021830356327023077]","[1,1,1]","[0.19621767757501674,0.014455867576904315]","[-1,-1,-1]","[-0.042179736094808344,-0.032546941917476854]","[1,1,1]","[0.0785937034428351,0.040208428124534144]","[1,1,1]","[0.16188536167788695,0.07173603930110319]","[1,1,1]","[0.09509822723845796,-0.041378311597198666]","[1,1,1]","[-0.1946614640889207,-0.007846703700976026]","[-1,-1,-1]","[0.12604370402582807,0.04225846292534829]","[1,1,1]","[-0.13611510096574664,0.041084520658832745]","[1,1,1]","[-0.13914791595826737,-0.11578754760707159]","[-1,-1,-1]","[-0.11910445416420186,-0.0765384822522383]","[-1,-1,-1]","[-0.058707506150761965,0.11867204161924017]","[1,1,1]","[0.142053130553629,-0.006062291575765015]","[-1,-1,-1]","[0.06559589941983979,-0.18200094449746818]","[1,1,1]","[0.02839302164670955,0.11478319517232687]","[1,1,1]","[-0.05899988217080081,0.18514205241511805]","[1,1,1]","[0.02,0.02]",172.4177,0,21,21,108,1,,,,,,,
,,,,,,,67e94945e5f6a3090ed5a9d0,682f2ed21c6101cee8c4fcc6,2025-05-22_16h05.16.108,cuing_paradigm_dot,2024.1.5,Win32,59.17159763,682d573fa47f1360d1451895,,,,,,,,,,,172.4187,172.9179,,,173.169,173.6005,left,0.4168,,,,,,,,,0.9,,,,,,172.918,173.169,173.6006,"[0.015670192331101562,0.009621656559786076]","[-1,-1,-1]","[0.07356393957950001,-0.1836310912906186]","[1,1,1]","[-0.021042693305081753,-0.031972125830478475]","[1,1,1]","[-0.13516294756247663,0.02383584470472936]","[1,1,1]","[0.1077992434009165,0.1320911005931625]","[1,1,1]","[-0.04414785710426629,-0.12686695208427534]","[1,1,1]","[0.09421916869180329,-0.050096462283795676]","[1,1,1]","[0.17393606677388262,0.08142704195083685]","[-1,-1,-1]","[-0.11791608970011994,-0.06952564596091815]","[1,1,1]","[-0.045398053393594685,-0.16857763763386308]","[1,1,1]","[0.0660693852908994,0.04209577350841364]","[1,1,1]","[-0.10989782156130884,-0.11039776980508562]","[1,1,1]","[0.05860336987179978,-0.07832900834148022]","[1,1,1]","[-0.04442485879301084,0.11888147957105553]","[1,1,1]","[0.1544878756189806,-0.05015144803437089]","[1,1,1]","[-0.08209742146358703,0.0912952830799835]","[1,1,1]","[0.13765751678867924,0.004841791412148301]","[1,1,1]","[-0.06276618842091074,-0.0008960758612383789]","[1,1,1]","[-0.11699756237574181,0.12096601489019863]","[1,1,1]","[0.04390689561921743,-0.03469615621865527]","[1,1,1]","[0.17946097086642335,-0.08677349202880569]","[1,1,1]","[-0.15420506378249793,0.08705329813736118]","[1,1,1]","[-0.0723997472455498,-0.08724256175134855]","[1,1,1]","[0.09716477840087824,-0.0005159858354586752]","[-1,-1,-1]","[0.10229160133349594,-0.0908169799293421]","[1,1,1]","[0.0022468697822841297,0.10058800206279496]","[1,1,1]","[-0.09959847172916805,-0.028456100167469415]","[1,1,1]","[0.03458466694107206,-0.1961993258836162]","[1,1,1]","[0.05735723931140912,0.09953070893810798]","[1,1,1]","[0.03857925070726524,0.1835158448982296]","[1,1,1]","[-0.04381370891771131,0.0702325872895728]","[1,1,1]","[-0.011424956600017232,0.19172607615851991]","[1,1,1]","[0.02,0.02]",174.7007,0,22,22,181,1,,,,,,,
,,,,,,,67e94945e5f6a3090ed5a9d0,682f2ed21c6101cee8c4fcc6,2025-05-22_16h05.16.108,cuing_paradigm_dot,2024.1.5,Win32,59.17159763,682d573fa47f1360d1451895,,,,,,,,,,,174.7016,175.2013,,,175.4509,175.886,left,0.4276,,,,,,,,,0.9,,,,,,175.2013,175.4508,175.8861,"[-0.18141655170618556,0.07698231011710908]","[1,1,1]","[-0.10397103923834798,-0.0049503788073561785]","[1,1,1]","[0.025185348779688733,-0.012747980704920501]","[1,1,1]","[-0.04524036852746668,0.18480835570575987]","[1,1,1]","[-0.11101265532611343,0.08515901112336209]","[1,1,1]","[-0.023128343777325745,-0.04860570075455987]","[1,1,1]","[-0.0036403301789732067,-0.16239507858564922]","[1,1,1]","[0.026758865351294722,-0.0817765823717674]","[1,1,1]","[-0.025029999109908677,0.12481289716058416]","[1,1,1]","[-0.054407587477814816,-0.15359485109171545]","[1,1,1]","[0.15444106660008303,-0.005844109666498272]","[1,1,1]","[-0.10432475044127582,-0.15059035646024144]","[-1,-1,-1]","[-0.06982044871703666,0.12652633333048016]","[1,1,1]","[0.07106581784862938,0.13296699053406347]","[1,1,1]","[-0.1376577651783079,-0.09649190795758114]","[1,1,1]","[-0.15047079330213448,-0.005381073267513261]","[1,1,1]","[0.030931298940622683,0.13921561014451628]","[1,1,1]","[-0.1612226052393708,-0.044142665989663016]","[1,1,1]","[-0.08627728958120029,-0.061273388110515394]","[1,1,1]","[0.1991773509710858,0.0011899848000001415]","[1,1,1]","[-0.09635498914960186,-0.10608907133276006]","[1,1,1]","[0.0781038242732763,-0.1356587240305178]","[1,1,1]","[-0.10766101178094771,0.1475318778528238]","[1,1,1]","[0.09929189418076718,-0.08235571186718951]","[1,1,1]","[0.04636876078565513,0.1798515371255132]","[1,1,1]","[0.13110671684105613,0.04487401294499729]","[1,1,1]","[0.11895876973120643,0.08434739358113146]","[1,1,1]","[0.09321993245887353,-0.03272272153587238]","[-1,-1,-1]","[0.12208748114759792,-0.15287702793145536]","[1,1,1]","[-0.02825721041336278,-0.19483735144513742]","[-1,-1,-1]","[-0.13316369527065441,0.04238380679748026]","[1,1,1]","[0.05352488469083702,0.08276074069631423]","[1,1,1]","[0.02,0.02]",176.984,0,23,23,186,1,,,,,,,
,,,,,,,67e94945e5f6a3090ed5a9d0,682f2ed21c6101cee8c4fcc6,2025-05-22_16h05.16.108,cuing_paradigm_dot,2024.1.5,Win32,59.17159763,682d573fa47f1360d1451895,,,,,,,,,,,176.9849,177.484,,,177.7353,178.5675,right,0.8181,,,,,,,,,0.5,,,,,,177.4841,177.7352,178.5675,"[0.07927908454809708,0.0759496851297153]","[1,1,1]","[-0.14646394263229906,-0.016542018245023285]","[-1,-1,-1]","[-0.0014740147667293962,-0.04237731975475429]","[-1,-1,-1]","[0.107058440921816,-0.03530196293248558]","[-1,-1,-1]","[-0.0588924849885298,0.04197322460540541]","[-1,-1,-1]","[-0.05977663425055958,-0.13574718956210644]","[-1,-1,-1]","[0.13829020432530229,-0.06458931434861748]","[-1,-1,-1]","[-0.011120122576324725,0.03324861512888402]","[-1,-1,-1]","[-0.009834353897333283,0.13751617157023613]","[1,1,1]","[0.051065316887455046,-0.026041999769644927]","[1,1,1]","[0.042889335429461384,-0.07172539948125718]","[1,1,1]","[0.13033305145795682,0.03061016864556847]","[-1,-1,-1]","[0.03595471136339391,0.060568788643512006]","[1,1,1]","[-0.07637144189298883,0.14756323732987173]","[1,1,1]","[-0.014014346408943742,-0.14131491935145063]","[1,1,1]","[-0.10100552938942318,-0.04008852905513073]","[1,1,1]","[-0.09927476667142593,0.0010316815746528648]","[-1,-1,-1]","[0.1238977522892136,0.11766677308348968]","[1,1,1]","[0.056399060876500894,-0.17332856467193972]","[-1,-1,-1]","[-0.03294452374510934,0.08756907413430183]","[-1,-1,-1]","[-0.182593800676619,-0.06913702916262758]","[-1,-1,-1]","[0.18639188768002052,0.014544163917478037]","[-1,-1,-1]","[0.1724528515676176,0.06734444373807945]","[-1,-1,-1]","[-0.19405813007503459,0.010180547733688693]","[-1,-1,-1]","[-0.11749753136486996,-0.10299068169338338]","[1,1,1]","[-0.014600382362097385,0.1988192964511625]","[1,1,1]","[-0.12883027835308597,0.11077355040016862]","[1,1,1]","[-0.16778292370335654,0.0943221285895317]","[1,1,1]","[0.05120809118974537,0.10758802200430567]","[1,1,1]","[0.05494072154173674,0.16147663995573278]","[1,1,1]","[-0.11297837499399145,-0.16111004297681616]","[1,1,1]","[-0.13647967953808102,0.04987217368843815]","[-1,-1,-1]","[0.02,0.02]",179.6677,0,24,24,93,1,,,,,,,
,,,,,,,67e94945e5f6a3090ed5a9d0,682f2ed21c6101cee8c4fcc6,2025-05-22_16h05.16.108,cuing_paradigm_dot,2024.1.5,Win32,59.17159763,682d573fa47f1360d1451895,,,,,,,,,,,179.6687,180.1679,,,180.418,180.887,right,0.4637,,,,,,,,,0.4,,,,,,180.1679,180.4179,180.8871,"[-0.10474479854347003,-0.03207074185583459]","[1,1,1]","[0.0942675892444898,-0.17454460852467985]","[-1,-1,-1]","[0.012839593142795917,0.14803785640954964]","[-1,-1,-1]","[-0.11500687038753957,0.05573558534546319]","[-1,-1,-1]","[-0.02184286587548728,-0.17315048521160117]","[-1,-1,-1]","[0.08109653862188418,-0.10140504589504419]","[1,1,1]","[-0.0050108147932974734,-0.03977284644757336]","[-1,-1,-1]","[-0.06246028157830224,0.029325469987859357]","[1,1,1]","[-0.010938522161673226,0.004259956655831793]","[1,1,1]","[-0.1069746594708106,-0.15810081481546834]","[1,1,1]","[0.07040087807192244,0.07036145690979873]","[1,1,1]","[0.13051346797309132,-0.052397327209567024]","[1,1,1]","[0.09735838654716586,0.009552504325027866]","[-1,-1,-1]","[0.038873736506227774,-0.1474979756557004]","[1,1,1]","[0.006796725720839513,0.19092408553508472]","[1,1,1]","[-0.0320807035447901,0.1444759057540979]","[-1,-1,-1]","[-0.12689544046483006,-0.0913588502959363]","[-1,-1,-1]","[0.17485688737361565,0.07924710370497783]","[-1,-1,-1]","[0.09809453379366248,0.14002464514784888]","[1,1,1]","[-0.16063769686444543,0.05419436463943126]","[-1,-1,-1]","[0.14458951926716576,0.003548169547292265]","[-1,-1,-1]","[0.12419825826479264,0.0633614813861295]","[1,1,1]","[-0.16879497208249072,-0.03508451613567121]","[1,1,1]","[-0.040346976320177565,-0.06896067350063563]","[-1,-1,-1]","[-0.050297011117885766,0.07794943147304553]","[-1,-1,-1]","[-0.0774860483601288,0.15771043907808752]","[1,1,1]","[0.001859248024716295,-0.12240931133146286]","[-1,-1,-1]","[0.08930753216557816,-0.044480742297305795]","[-1,-1,-1]","[-0.14338371750740214,-0.13850475342792015]","[-1,-1,-1]","[-0.06346876014700548,-0.16091329115988384]","[-1,-1,-1]","[-0.03455651222543296,0.19394074691261523]","[-1,-1,-1]","[0.04986719883259608,-0.1904834412700042]","[-1,-1,-1]","[0.02,0.02]",181.9843,0,25,25,51,1,,,,,,,
,,,,,,,67e94945e5f6a3090ed5a9d0,682f2ed21c6101cee8c4fcc6,2025-05-22_16h05.16.108,cuing_paradigm_dot,2024.1.5,Win32,59.17159763,682d573fa47f1360d1451895,,,,,,,,,,,181.9852,182.4834,,,182.7336,183.2005,left,0.4582,,,,,,,,,0.9,,,,,,182.4834,182.7336,183.2006,"[-0.04299247758756986,0.023888350210385118]","[-1,-1,-1]","[-0.09178727445157052,-0.02598537138716487]","[1,1,1]","[-0.09846474882373651,-0.11956172304206204]","[1,1,1]","[0.12968640381419233,-0.002036719591144083]","[1,1,1]","[0.006427563602701028,0.09155648546955873]","[1,1,1]","[-0.0327617531975186,-0.1063280135558686]","[1,1,1]","[0.1729678416330878,0.007557888104792803]","[1,1,1]","[0.022498762871079204,0.16557326736737607]","[1,1,1]","[-0.1361175389327878,0.1404320733573524]","[1,1,1]","[-0.13137130017196064,-0.09285377294297069]","[1,1,1]","[0.15816915390981384,0.12088709114565173]","[-1,-1,-1]","[-0.054725092053667726,-0.1651831617696195]","[1,1,1]","[0.07048098713398021,-0.07903312634951276]","[1,1,1]","[0.05568748043797284,0.08668401875418213]","[1,1,1]","[0.12137987857874107,-0.14905443608062433]","[1,1,1]","[0.0975653629925268,0.15424199362145244]","[1,1,1]","[-0.13785700639088144,0.03214074729548856]","[1,1,1]","[-0.1362419321013877,-0.1393706533721567]","[1,1,1]","[0.02643684486476927,-0.013641073265479083]","[1,1,1]","[-0.07029032036893315,-0.0905719138457103]","[1,1,1]","[0.08301823404030417,-0.02557760474956418]","[1,1,1]","[-0.06029062018584958,0.08003149801335252]","[1,1,1]","[-0.12548607210502477,0.07322407282888493]","[-1,-1,-1]","[-0.07742656776694881,0.12694741978614293]","[1,1,1]","[-0.13787577662949238,-0.016992629786014686]","[1,1,1]","[0.1638633687961442,0.05771016330159194]","[1,1,1]","[-0.042875709646802894,0.15485938042899064]","[1,1,1]","[0.14530871859003985,-0.06122391756904942]","[1,1,1]","[0.10303740074663804,0.03521463381322582]","[1,1,1]","[0.03391221973837195,0.04466491549070237]","[1,1,1]","[0.014705871618387562,-0.12480923557929977]","[1,1,1]","[-0.18058940703023146,0.0470702903888626]","[1,1,1]","[0.02,0.02]",184.3005,0,26,26,200,1,,,,,,,
,,,,,,,67e94945e5f6a3090ed5a9d0,682f2ed21c6101cee8c4fcc6,2025-05-22_16h05.16.108,cuing_paradigm_dot,2024.1.5,Win32,59.17159763,682d573fa47f1360d1451895,,,,,,,,,,,184.3013,184.801,,,185.0516,185.4675,right,0.4071,,,,,,,,,0.45,,,,,,184.801,185.0515,185.4676,"[-0.004191280209739773,-0.031781467737987415]","[-1,-1,-1]","[-0.010743440009413468,0.0478118885044903]","[-1,-1,-1]","[-0.06357765078778631,0.1883450628611366]","[-1,-1,-1]","[-0.05271991574298388,-0.15946786291441267]","[-1,-1,-1]","[0.006041651180639714,0.09624070041793371]","[1,1,1]","[0.047875781697599734,-0.13211996060235803]","[-1,-1,-1]","[-0.0735742319250595,0.14667886800543264]","[1,1,1]","[0.05538819693561334,0.14275354980272295]","[-1,-1,-1]","[-0.11020919377977265,-0.05678305878615327]","[1,1,1]","[-0.08055285625178968,0.006377143995435382]","[1,1,1]","[-0.17075806625387083,-0.05695428882070225]","[1,1,1]","[-0.00618298866466809,-0.0842249677012519]","[1,1,1]","[0.17488467082609338,-0.050270630746179046]","[1,1,1]","[-0.14835840084426558,-0.006873502899016384]","[1,1,1]","[0.1426492134571759,0.026237611292817056]","[1,1,1]","[0.19462214199199826,0.011532860206556821]","[1,1,1]","[0.09336853632288124,0.10249291617054744]","[-1,-1,-1]","[0.024355106549680264,-0.18265929311970602]","[1,1,1]","[-0.10061099220991972,-0.09725991252267663]","[-1,-1,-1]","[-0.13523559914098335,0.04613612368277616]","[-1,-1,-1]","[-0.13005546939948615,0.12464513479119264]","[-1,-1,-1]","[-0.07070189270301461,-0.044584653626370915]","[-1,-1,-1]","[0.12763004979170883,-0.12790055015308488]","[-1,-1,-1]","[0.13159659559895737,0.11521724072399508]","[-1,-1,-1]","[-0.06870427058696935,0.06329884674213707]","[1,1,1]","[0.04645381026497755,-0.006937238084019107]","[-1,-1,-1]","[-0.11959886932049017,-0.15441124184276864]","[-1,-1,-1]","[-0.18926011592966657,-0.01814677887027897]","[-1,-1,-1]","[-0.025798218727700144,0.13527200478635923]","[1,1,1]","[0.1223283344862216,-0.03706198961432934]","[-1,-1,-1]","[0.10985202182920933,0.06351087526422165]","[1,1,1]","[-0.0573598049848699,-0.09250977256758122]","[-1,-1,-1]","[0.02,0.02]",186.5672,0,27,27,70,1,,,,,,,
,,,,,,,67e94945e5f6a3090ed5a9d0,682f2ed21c6101cee8c4fcc6,2025-05-22_16h05.16.108,cuing_paradigm_dot,2024.1.5,Win32,59.17159763,682d573fa47f1360d1451895,,,,,,,,,,,186.5684,187.0662,,,187.3171,187.7676,right,0.4383,,,,,,,,,0.1,,,,,,187.0663,187.3169,187.7678,"[-0.001048530413615341,0.15595492519215684]","[-1,-1,-1]","[0.15850157733547782,-0.022311827205235824]","[-1,-1,-1]","[-0.06582049586755165,0.03287147805502814]","[-1,-1,-1]","[-0.15254180096188366,-0.022692069354116065]","[-1,-1,-1]","[-0.14288066551572737,0.030903534974971815]","[-1,-1,-1]","[-0.08069072800539326,-0.12391302780705922]","[-1,-1,-1]","[0.07067137944301524,-0.13311728841037274]","[-1,-1,-1]","[0.09784895147454666,0.13697612952406557]","[-1,-1,-1]","[-0.0908634630586807,-0.17786662196207365]","[1,1,1]","[0.0729036444150558,0.011712070984258954]","[-1,-1,-1]","[-0.09026551556292502,-0.023877731364326044]","[-1,-1,-1]","[-0.025133136767633634,-0.15588325762618507]","[-1,-1,-1]","[-0.10056398535432147,0.06756338787379153]","[-1,-1,-1]","[-0.03122271500829229,0.09883099571973668]","[-1,-1,-1]","[-0.11450122336246855,-0.08437534149938866]","[-1,-1,-1]","[0.1126791518138366,-0.05072282448228612]","[-1,-1,-1]","[-0.14967068972376357,0.08117046522182998]","[1,1,1]","[0.03241345716997465,-0.16087195328366083]","[-1,-1,-1]","[0.02855767735205595,0.053798101713932345]","[-1,-1,-1]","[-0.1690442999123959,-0.06607636242772943]","[-1,-1,-1]","[0.035871502418831316,0.13428743351327327]","[-1,-1,-1]","[0.09254844513627024,0.04916115231226516]","[-1,-1,-1]","[0.020196678789369624,-0.11682300073142425]","[-1,-1,-1]","[-0.04788048095648018,-0.023896765665749494]","[-1,-1,-1]","[-0.08287973588860609,0.10890147634495011]","[-1,-1,-1]","[-0.019853307075548682,0.19126585791038456]","[1,1,1]","[-0.01154871272550062,0.047033644624326486]","[-1,-1,-1]","[0.1603103327429111,0.047989505718351554]","[-1,-1,-1]","[0.04447800884229298,-0.019757374611992725]","[-1,-1,-1]","[-0.12075313247787944,0.12473773629712367]","[-1,-1,-1]","[-0.1799314883932137,0.052492844749587035]","[-1,-1,-1]","[0.05783302312637795,0.18680398967983114]","[-1,-1,-1]","[0.02,0.02]",188.8668,0,28,28,20,1,,,,,,,
,,,,,,,67e94945e5f6a3090ed5a9d0,682f2ed21c6101cee8c4fcc6,2025-05-22_16h05.16.108,cuing_paradigm_dot,2024.1.5,Win32,59.17159763,682d573fa47f1360d1451895,,,,,,,,,,,188.8678,189.3669,,,189.6178,190.3,left,0.6692,,,,,,,,,0.55,,,,,,189.3669,189.6177,190.3001,"[0.17692465355438922,-0.08250447978593224]","[-1,-1,-1]","[0.01595838857692545,0.12354450251765403]","[1,1,1]","[-0.12438181262480884,0.036781233871861496]","[1,1,1]","[0.10271207214713016,-0.14068257810793566]","[1,1,1]","[-0.16179432435885752,0.08098907833581726]","[1,1,1]","[-0.027419073747985273,-0.04973466817967097]","[1,1,1]","[-0.05258152189048947,0.04654724448180313]","[-1,-1,-1]","[-0.16985360266888885,0.03090574089852051]","[-1,-1,-1]","[0.06726354360361445,-0.014880115590011662]","[-1,-1,-1]","[0.12276896354364746,0.11095122804559018]","[-1,-1,-1]","[0.02738826193901116,0.19026593590312163]","[-1,-1,-1]","[-0.059351712369021765,-0.0805935803217981]","[1,1,1]","[0.18622274404634281,0.03610149996570373]","[1,1,1]","[0.07198614130513768,0.10725983040818564]","[1,1,1]","[-0.004566523751486541,-0.16513669952696786]","[1,1,1]","[-0.029946289906740794,0.17762797908756775]","[1,1,1]","[0.04520688232540105,0.07464872421448811]","[1,1,1]","[0.030898510483723773,-0.11440975775965152]","[-1,-1,-1]","[0.0046514077310717775,0.01265868725271275]","[1,1,1]","[-0.18219131726311252,-0.02590316060566176]","[-1,-1,-1]","[0.1251735941469709,0.010017513855706555]","[1,1,1]","[-0.05949738849836435,0.10843354719146743]","[-1,-1,-1]","[0.10116878010108832,0.1621044654775176]","[1,1,1]","[0.1391534373303605,0.07417194464027135]","[1,1,1]","[-0.11803926605387126,-0.13048106861854222]","[-1,-1,-1]","[-0.11436358363447569,-0.05055965487014529]","[-1,-1,-1]","[-0.014962769877653282,0.06223390506183]","[-1,-1,-1]","[-0.09711493937863178,0.15906317910892223]","[1,1,1]","[0.022380933233649643,-0.06632149922213805]","[1,1,1]","[-0.06089220019090473,-0.18782152763656831]","[-1,-1,-1]","[0.18162602629981628,0.078582753358256]","[-1,-1,-1]","[0.07569400410185752,-0.17698318710393057]","[1,1,1]","[0.02,0.02]",191.4,0,29,29,121,1,,,,,,,
,,,,,,,67e94945e5f6a3090ed5a9d0,682f2ed21c6101cee8c4fcc6,2025-05-22_16h05.16.108,cuing_paradigm_dot,2024.1.5,Win32,59.17159763,682d573fa47f1360d1451895,,,,,,,,,,,191.4009,191.9009,,,192.1504,192.5996,right,0.4318,,,,,,,,,0.1,,,,,,191.901,192.1504,192.5998,"[-0.018257399265290943,-0.10726260377271758]","[-1,-1,-1]","[0.007958615956035168,0.1338447975928871]","[-1,-1,-1]","[-0.01194548237852626,0.18363042418739456]","[-1,-1,-1]","[0.00447953503282883,-0.16267275806412873]","[-1,-1,-1]","[0.04989827831735249,-0.14705821900803293]","[-1,-1,-1]","[-0.04620521893779446,0.04129235276842045]","[-1,-1,-1]","[-0.19138283262944122,-0.031366543674061886]","[-1,-1,-1]","[0.04181383453206104,0.1557444739322865]","[1,1,1]","[0.11326357134301808,0.11493570438679526]","[-1,-1,-1]","[0.08893064254905723,0.004412362186174988]","[1,1,1]","[-0.11339103061393556,0.022335096472705547]","[-1,-1,-1]","[0.06497556314504399,0.06299155913141605]","[-1,-1,-1]","[0.10212828819756367,-0.1679422896839945]","[-1,-1,-1]","[0.16247745192414556,0.03471149346965378]","[-1,-1,-1]","[-0.12024276853378928,-0.08898729358724493]","[-1,-1,-1]","[0.09408186885407628,0.15704570405652254]","[-1,-1,-1]","[0.10046307573528628,-0.043219066209080975]","[1,1,1]","[-0.12715931934650807,-0.047642348972859856]","[-1,-1,-1]","[-0.0536838249482327,0.13925490499627025]","[-1,-1,-1]","[-0.1930919984015049,0.03597448719120874]","[-1,-1,-1]","[0.15583827644659815,-0.03446631650713706]","[-1,-1,-1]","[-0.17838985555684414,0.07739981124218961]","[-1,-1,-1]","[0.05552342131557385,-0.08075589968244629]","[-1,-1,-1]","[-0.06608667939110321,-0.10505753017730197]","[-1,-1,-1]","[-0.14871997357291766,0.0014089738412000228]","[-1,-1,-1]","[-0.1287997846802348,0.08087465602705216]","[-1,-1,-1]","[0.1782409560547658,-0.08641307910503108]","[-1,-1,-1]","[-0.057478580940327824,-0.05962455235740731]","[-1,-1,-1]","[-0.01584012664799149,-0.012693027544894344]","[-1,-1,-1]","[-0.060912547141368054,-0.14516569053032172]","[-1,-1,-1]","[0.032422698134632826,-0.04047140469825112]","[-1,-1,-1]","[0.022441097267786956,0.06303434978202938]","[-1,-1,-1]","[0.02,0.02]",193.7001,0,30,30,3,1,,,,,,,
,,,,,,,67e94945e5f6a3090ed5a9d0,682f2ed21c6101cee8c4fcc6,2025-05-22_16h05.16.108,cuing_paradigm_dot,2024.1.5,Win32,59.17159763,682d573fa47f1360d1451895,,,,,,,,,,,193.7012,194.1998,,,194.4501,194.9361,left,0.4793,,,,,,,,,0.9,,,,,,194.1999,194.45,194.9361,"[-0.02591247548586343,0.09601695175572333]","[-1,-1,-1]","[0.04372783597835762,0.09452784000144364]","[-1,-1,-1]","[0.009030325183927561,-0.16546172489926794]","[1,1,1]","[-0.17971933573211815,0.01738887130998077]","[1,1,1]","[0.02156066867363244,0.1627404456564715]","[1,1,1]","[-0.09386388010893579,-0.04394466981071844]","[1,1,1]","[-0.03625142368058713,-0.07952613037539492]","[1,1,1]","[0.08008195315191081,-0.07423179885333693]","[1,1,1]","[0.14745691029117192,0.0029061800965785216]","[1,1,1]","[-0.05990727323163825,0.1879027900937073]","[-1,-1,-1]","[-0.11013720618876834,-0.005698381577330057]","[1,1,1]","[0.09157400467116943,0.12080731363155878]","[1,1,1]","[0.14273936895484826,0.06469743409639415]","[1,1,1]","[-0.13681515534087418,-0.10148136777733183]","[1,1,1]","[0.1149524368098359,-0.04998935251240128]","[1,1,1]","[0.04239323365869295,-0.09283965335751107]","[1,1,1]","[-0.13393406243510822,0.11073969467454586]","[1,1,1]","[0.0878861484376678,0.03809605323135944]","[1,1,1]","[-0.03350770887559624,-0.028729112545724536]","[1,1,1]","[0.08625429142967034,-0.16375614541323474]","[1,1,1]","[0.08963121292493405,0.1641104265889661]","[1,1,1]","[-0.10921917758817287,-0.13514231999282156]","[1,1,1]","[-0.07469424571972622,-0.18292393822141614]","[1,1,1]","[-0.13845040020878635,-0.05883773699470864]","[1,1,1]","[-0.1866457004098826,-0.056686897981474874]","[1,1,1]","[0.1173244039773974,-0.11605069581997625]","[1,1,1]","[-0.042570387668053815,0.13997091587229624]","[1,1,1]","[0.1661120141884685,-0.033315699472793434]","[1,1,1]","[-0.0664641505356909,0.001317390734372643]","[1,1,1]","[-0.06968292800514544,0.0449427842580174]","[1,1,1]","[-0.08783265678197888,0.1407743980134896]","[1,1,1]","[-0.03207525102957133,0.02294568174014811]","[1,1,1]","[0.02,0.02]",196.033,0,31,31,199,1,,,,,,,
,,,,,,,67e94945e5f6a3090ed5a9d0,682f2ed21c6101cee8c4fcc6,2025-05-22_16h05.16.108,cuing_paradigm_dot,2024.1.5,Win32,59.17159763,682d573fa47f1360d1451895,,,,,,,,,,,196.0344,196.5331,,,196.7836,197.1683,right,0.378,,,,,,,,,0.1,,,,,,196.5332,196.7835,197.1684,"[0.17686954086581366,-0.03004316261677934]","[-1,-1,-1]","[-0.033740036713422614,-0.07502648905021594]","[-1,-1,-1]","[0.1300874641967826,0.0563938195789139]","[-1,-1,-1]","[-0.04187958666446607,0.10251093424782298]","[-1,-1,-1]","[-0.06792715108623511,0.06713381657133123]","[-1,-1,-1]","[-0.0817512248770045,0.16369449226845537]","[-1,-1,-1]","[0.09454559540501303,0.17070571775112475]","[-1,-1,-1]","[0.09298433115219035,-0.13369147440761808]","[-1,-1,-1]","[0.017480063046102518,0.06870772335128354]","[-1,-1,-1]","[-0.08640249307868628,0.12394347208468617]","[-1,-1,-1]","[-0.06375542903446439,-0.039502953908146905]","[-1,-1,-1]","[0.038453239860921806,-0.03234412061638327]","[-1,-1,-1]","[0.056101808905511384,0.18574096635975373]","[-1,-1,-1]","[-0.09387011895680475,-0.0755540505045281]","[-1,-1,-1]","[-0.13433405173707857,0.1274082121585844]","[-1,-1,-1]","[0.05613103042469486,-0.1089943784389414]","[-1,-1,-1]","[0.07171095634132603,0.04369634175240166]","[-1,-1,-1]","[-0.18064828518698994,0.07776806948842126]","[-1,-1,-1]","[-0.10758079765907086,-0.024539824168935694]","[-1,-1,-1]","[-0.07249370469061694,-0.15326245975678762]","[-1,-1,-1]","[0.10633977771170688,0.013867555280817234]","[-1,-1,-1]","[0.006808212404990765,0.14284343910781733]","[-1,-1,-1]","[-0.01878290940237227,0.0030208062330861567]","[-1,-1,-1]","[-0.013481412733746841,-0.16265035273339443]","[1,1,1]","[0.15604480659589037,-0.09222106082827038]","[1,1,1]","[-0.18018451893902632,-0.010371797495992938]","[-1,-1,-1]","[-0.11944648369251033,0.05981943062495503]","[-1,-1,-1]","[0.06219927729856489,0.0019202698438023909]","[-1,-1,-1]","[-0.11845470348621057,-0.1368659823500546]","[-1,-1,-1]","[0.06484781283489219,0.14260848937803952]","[-1,-1,-1]","[-0.0004702462887874161,-0.044254078089955934]","[1,1,1]","[0.1339405094550559,0.11240676430341057]","[-1,-1,-1]","[0.02,0.02]",198.266,0,32,32,0,1,,,,,,,
,,,,,,,67e94945e5f6a3090ed5a9d0,682f2ed21c6101cee8c4fcc6,2025-05-22_16h05.16.108,cuing_paradigm_dot,2024.1.5,Win32,59.17159763,682d573fa47f1360d1451895,,,,,,,,,,,198.2673,198.7661,,,199.0172,199.5163,left,0.4839,,,,,,,,,0.55,,,,,,198.7661,199.0171,199.5163,"[0.11292781550848972,-0.049726452770455995]","[1,1,1]","[-0.17041009552181074,0.088814070350844]","[-1,-1,-1]","[0.03972448162049216,-0.17294156462968238]","[1,1,1]","[0.022413098005100784,0.1410222525221709]","[-1,-1,-1]","[0.08648824668999214,-0.1780560020405933]","[1,1,1]","[0.042434253783199434,-0.07758953367314002]","[-1,-1,-1]","[0.03884341287882941,-0.00102746665747035]","[-1,-1,-1]","[-0.16285635475307855,-0.10213483495797902]","[1,1,1]","[-0.02327562907745225,-0.180197738296831]","[1,1,1]","[-0.11006062288116414,0.01934039464030587]","[-1,-1,-1]","[-0.02302732463278306,0.1807795343810213]","[-1,-1,-1]","[-0.1948821814712237,0.014255621359593473]","[1,1,1]","[-0.03674674218642842,0.09178104208232925]","[-1,-1,-1]","[-0.14140808897573662,-0.02551317336867087]","[1,1,1]","[0.07453469598400939,0.08517472978879481]","[-1,-1,-1]","[-0.0956851989986014,-0.11836864343253453]","[1,1,1]","[-0.13025582752872947,0.08642899264062724]","[1,1,1]","[-0.13550578536428448,-0.1319655894418825]","[1,1,1]","[-0.07671155007117657,0.09589400689431359]","[1,1,1]","[0.14106444191553427,0.14089226540384928]","[-1,-1,-1]","[0.16576297736754034,-0.10049203092198786]","[-1,-1,-1]","[-0.19231973815096545,-0.033732328080341906]","[-1,-1,-1]","[0.16482962605519352,0.03924781135958567]","[-1,-1,-1]","[0.11903565680983863,-0.08993796712620489]","[1,1,1]","[-0.00007582419583490726,-0.08336915943851315]","[-1,-1,-1]","[-0.00642740799027707,-0.03673899012598492]","[1,1,1]","[0.08553802089047485,0.006304805271527198]","[1,1,1]","[0.026610466947329756,0.10063761319628066]","[1,1,1]","[0.12166049910424606,0.06345027846586918]","[1,1,1]","[-0.014672745474500395,0.01612465000199868]","[1,1,1]","[-0.09800158918670603,0.1569054614312076]","[1,1,1]","[0.05609165186931903,0.03917972137452723]","[-1,-1,-1]","[0.02,0.02]",200.6162,0,33,33,136,1,,,,,,,
,,,,,,,67e94945e5f6a3090ed5a9d0,682f2ed21c6101cee8c4fcc6,2025-05-22_16h05.16.108,cuing_paradigm_dot,2024.1.5,Win32,59.17159763,682d573fa47f1360d1451895,,,,,,,,,,,200.6169,201.1164,,,201.3665,201.8995,right,0.523,,,,,,,,,0.6,,,,,,201.1164,201.3664,201.9,"[-0.11161246667155666,-0.06288791759575756]","[1,1,1]","[-0.033063343671587316,0.022817996764917924]","[1,1,1]","[0.10938494872246209,0.09282927779440095]","[1,1,1]","[0.057521096276330716,0.17751562018561984]","[-1,-1,-1]","[0.08927246434026216,-0.16292906532645515]","[1,1,1]","[-0.006613441887074617,-0.1598084069508459]","[-1,-1,-1]","[0.04976281850905132,0.09150209809609788]","[1,1,1]","[-0.020638390304506125,0.18371325956341036]","[-1,-1,-1]","[0.14330466511353543,0.06175370248371407]","[-1,-1,-1]","[-0.15145699461529336,0.07327157217582306]","[1,1,1]","[-0.0911888312952619,0.11501013430010075]","[1,1,1]","[0.1494637446724288,-0.04353438776809077]","[1,1,1]","[-0.09152913830058179,0.0729744236577085]","[1,1,1]","[-0.19147864847946602,-0.021395468671772982]","[1,1,1]","[0.024168414518891332,-0.023157940783954088]","[1,1,1]","[0.02041145543974008,0.13111761415444217]","[-1,-1,-1]","[0.14840310774708843,-0.09093507850515631]","[-1,-1,-1]","[0.12014871148755485,-0.12925931095375953]","[-1,-1,-1]","[-0.10024371091071912,0.01009759008561479]","[1,1,1]","[0.13432690176469086,0.127173967669308]","[-1,-1,-1]","[-0.06469869586101082,-0.07351575418152927]","[1,1,1]","[0.0091614902158434,0.02976374384523067]","[1,1,1]","[0.055163756599437855,-0.18665207223446986]","[1,1,1]","[-0.017640870414858442,-0.03739814252841145]","[-1,-1,-1]","[-0.027948045070049846,-0.09648046214460641]","[-1,-1,-1]","[-0.1306534688159343,-0.14803821669749523]","[-1,-1,-1]","[0.11195777382426156,0.1641837914248676]","[1,1,1]","[-0.15676619331758093,-0.09539137783563342]","[1,1,1]","[-0.1382368782776506,0.13611082774386538]","[1,1,1]","[-0.07484582140457048,0.1523952566556088]","[-1,-1,-1]","[-0.005292604395715016,0.0773298422077775]","[-1,-1,-1]","[0.10123800527369965,0.007589879988828957]","[1,1,1]","[0.02,0.02]",202.9987,0,34,34,150,1,,,,,,,
,,,,,,,67e94945e5f6a3090ed5a9d0,682f2ed21c6101cee8c4fcc6,2025-05-22_16h05.16.108,cuing_paradigm_dot,2024.1.5,Win32,59.17159763,682d573fa47f1360d1451895,,,,,,,,,,,202.9995,203.5001,,,203.7502,204.1993,left,0.4335,,,,,,,,,0.6,,,,,,203.5002,203.7501,204.1994,"[0.1312095008493769,0.09996486245672753]","[-1,-1,-1]","[0.13368226893362412,0.023362316985507704]","[1,1,1]","[-0.06485590607969312,-0.14856299001045364]","[-1,-1,-1]","[0.008437642269140289,0.13102407047316603]","[-1,-1,-1]","[0.1384232127530211,-0.08064233493882114]","[-1,-1,-1]","[-0.04418923965459235,0.14743964731500733]","[1,1,1]","[-0.052394803706555346,0.0357270416018247]","[1,1,1]","[-0.0051095161656251244,-0.12999803658749243]","[-1,-1,-1]","[0.10163989086116404,-0.1260455744158064]","[-1,-1,-1]","[-0.1397612515496769,-0.05036934993871247]","[-1,-1,-1]","[-0.00120479659941225,-0.014014589535983332]","[1,1,1]","[-0.0057919222158376105,-0.19688244131112786]","[1,1,1]","[0.09688253513307558,-0.04890452384700198]","[1,1,1]","[0.014684125006008547,0.08822862679072864]","[-1,-1,-1]","[0.04695245065226504,-0.1572689348861257]","[1,1,1]","[0.15734880848186283,-0.013313747485629215]","[1,1,1]","[0.19727479437522769,-0.02471605961401468]","[1,1,1]","[-0.1812608650342733,0.008774083258904075]","[-1,-1,-1]","[-0.1085529117537212,0.16748019901487848]","[1,1,1]","[0.03084724175277042,0.04257316408943707]","[1,1,1]","[0.07954487576096772,0.051260338321701925]","[1,1,1]","[-0.07706739569062084,-0.03242389376946243]","[1,1,1]","[-0.1799460753047257,-0.0573476479359951]","[1,1,1]","[-0.17274307692251248,0.08603740102896712]","[1,1,1]","[0.04044358124635367,-0.11300581980572307]","[1,1,1]","[0.047179958705034435,0.19296321164213487]","[-1,-1,-1]","[-0.1309253358834351,-0.1435151181310156]","[-1,-1,-1]","[-0.09705211449031094,0.09719769162231226]","[1,1,1]","[0.1458459994563968,-0.12724160292696812]","[-1,-1,-1]","[0.05385960875565519,-0.0748976363668776]","[1,1,1]","[0.08867027521461049,0.1554064482753279]","[1,1,1]","[-0.022860632566492272,-0.0709715068393953]","[-1,-1,-1]","[0.02,0.02]",205.2998,0,35,35,152,1,,,,,,,
,,,,,,,67e94945e5f6a3090ed5a9d0,682f2ed21c6101cee8c4fcc6,2025-05-22_16h05.16.108,cuing_paradigm_dot,2024.1.5,Win32,59.17159763,682d573fa47f1360d1451895,,,,,,,,,,,205.3007,205.799,,,206.052,206.9655,right,0.9006,,,,,,,,,0.5,,,,,,205.799,206.0519,206.9656,"[-0.03469978320191533,0.14620932295656466]","[-1,-1,-1]","[-0.02315105630468078,-0.1366287770032181]","[1,1,1]","[0.06902907503842563,-0.04256447205099285]","[-1,-1,-1]","[0.010440036553674897,-0.0633108215462085]","[1,1,1]","[-0.14878897737530464,0.012818980338522537]","[1,1,1]","[-0.19258605659036915,-0.02464544878884494]","[1,1,1]","[0.00029652188158435115,0.013815170353326222]","[1,1,1]","[-0.0596043757845285,-0.18738156013449656]","[-1,-1,-1]","[0.008716287522168662,0.12405806063664775]","[-1,-1,-1]","[-0.053811589848778756,-0.045020623813654584]","[1,1,1]","[0.12139109723474246,-0.09607154593428596]","[-1,-1,-1]","[0.09468843763540562,0.023259178373618187]","[1,1,1]","[-0.07143269977069053,-0.10340042595106273]","[-1,-1,-1]","[-0.06959973819917044,0.12254963314878463]","[-1,-1,-1]","[0.11052435838130714,-0.035578196240794634]","[-1,-1,-1]","[0.047130327705902364,-0.09069154300527689]","[-1,-1,-1]","[-0.10958353975754809,0.1454211634418077]","[-1,-1,-1]","[-0.12187173249621934,-0.07724581222486457]","[-1,-1,-1]","[-0.1378861204192682,0.0791457433412578]","[1,1,1]","[0.14907002114422435,0.00628958846535333]","[1,1,1]","[0.19668706305039976,-0.030186216047031932]","[-1,-1,-1]","[-0.04503302352773845,0.0763311092687464]","[1,1,1]","[0.14784787739877542,0.07064150053462945]","[-1,-1,-1]","[0.19091416232189998,0.044637391206143504]","[1,1,1]","[-0.048942066859987234,0.03077388116486424]","[1,1,1]","[-0.10517627605329977,0.030457586711410415]","[-1,-1,-1]","[0.02874176101460717,0.08276935107210519]","[-1,-1,-1]","[0.022575674166650236,0.19306464119466274]","[-1,-1,-1]","[0.09034855421243405,-0.17007031518889537]","[1,1,1]","[0.09444002150415258,0.10139215003092703]","[1,1,1]","[-0.07814782410718488,-0.010993048271858695]","[1,1,1]","[-0.08749303757282953,0.076953402198299]","[1,1,1]","[0.02,0.02]",208.0659,0,36,36,101,1,,,,,,,
,,,,,,,67e94945e5f6a3090ed5a9d0,682f2ed21c6101cee8c4fcc6,2025-05-22_16h05.16.108,cuing_paradigm_dot,2024.1.5,Win32,59.17159763,682d573fa47f1360d1451895,,,,,,,,,,,208.0669,208.5653,,,208.8161,209.5187,left,0.6974,,,,,,,,,0.55,,,,,,208.5654,208.8161,209.5187,"[0.05749303005201915,0.11784550578805703]","[-1,-1,-1]","[0.034872708337053304,0.06695294045996052]","[1,1,1]","[-0.11234078133800315,-0.010948810226246032]","[1,1,1]","[-0.007906266488809995,0.1715068179958065]","[-1,-1,-1]","[0.13278488910652694,0.008835723749555982]","[-1,-1,-1]","[0.07105130487035186,-0.03846519902218323]","[1,1,1]","[-0.028963946550146932,-0.11388815283002897]","[1,1,1]","[0.18286616100136907,-0.07193623891144305]","[1,1,1]","[0.10508918932685686,-0.1001146813302712]","[1,1,1]","[0.11698030097268786,0.13683126830025552]","[-1,-1,-1]","[0.1596751230448296,0.0699584853425501]","[1,1,1]","[-0.07809474306801789,0.09584179189109303]","[1,1,1]","[-0.033003403832124155,-0.16346417599208854]","[1,1,1]","[-0.10051921232918638,0.14043885432160286]","[1,1,1]","[-0.06325422910667075,-0.04679960104217763]","[-1,-1,-1]","[0.08894779559513626,0.05004597950853313]","[1,1,1]","[0.054236189522484476,0.18946375462937592]","[-1,-1,-1]","[0.18384556468771496,-0.024333639539629665]","[-1,-1,-1]","[0.11537736462835656,-0.14182808816489204]","[1,1,1]","[-0.0722869161282453,0.16945709856089244]","[-1,-1,-1]","[-0.008955147785739853,0.11546572090971031]","[-1,-1,-1]","[-0.14524404711713385,-0.09287733376156597]","[1,1,1]","[0.04206896234516618,-0.09215480296947845]","[-1,-1,-1]","[-0.1887048708995533,-0.03775599518438761]","[-1,-1,-1]","[-0.03681961556239001,0.06092985087375]","[-1,-1,-1]","[-0.12226119698940453,-0.1581218376304816]","[-1,-1,-1]","[0.031387236773920246,-0.04608659926143006]","[1,1,1]","[0.15837770364487047,0.11228618724964988]","[-1,-1,-1]","[0.028417893922869013,-0.13801306010022724]","[1,1,1]","[-0.007535763504397714,-0.19483310672726933]","[1,1,1]","[-0.14869675258970008,0.12340786128182227]","[1,1,1]","[-0.017800744306067276,-0.06000287518212964]","[1,1,1]","[0.02,0.02]",210.6163,0,37,37,129,1,,,,,,,
,,,,,,,67e94945e5f6a3090ed5a9d0,682f2ed21c6101cee8c4fcc6,2025-05-22_16h05.16.108,cuing_paradigm_dot,2024.1.5,Win32,59.17159763,682d573fa47f1360d1451895,,,,,,,,,,,210.6169,211.1151,,,211.367,211.7527,right,0.38,,,,,,,,,0.1,,,,,,211.1151,211.3669,211.7527,"[-0.06414140034398519,0.02599107261298791]","[-1,-1,-1]","[0.16278053510595905,-0.059727261181062176]","[-1,-1,-1]","[-0.01659185175234644,0.18210731198676358]","[-1,-1,-1]","[0.08764139267950243,0.14845384947141613]","[-1,-1,-1]","[-0.14619797608432203,0.012129492801733597]","[-1,-1,-1]","[0.08688212756049238,0.07581168533697318]","[-1,-1,-1]","[-0.0695541574236617,-0.17889755386638245]","[-1,-1,-1]","[-0.08595320112420075,0.10771781278982034]","[-1,-1,-1]","[0.06655785603545797,-0.011605034297562607]","[-1,-1,-1]","[0.11124869714459043,-0.11129899639089555]","[-1,-1,-1]","[0.04987153550938237,0.18598622313223304]","[-1,-1,-1]","[-0.013375837340302225,-0.00018358104993163743]","[-1,-1,-1]","[0.03209840158661267,-0.04676294099587122]","[-1,-1,-1]","[0.16428217350825552,0.07525652850845799]","[-1,-1,-1]","[0.013725167558517428,0.0701202075211912]","[-1,-1,-1]","[0.05288385459698794,-0.10985011735648244]","[-1,-1,-1]","[-0.1336920597790019,0.14689713517957112]","[1,1,1]","[0.008166040261041167,0.14827676991840838]","[-1,-1,-1]","[-0.13588278034584034,0.06145943748270836]","[-1,-1,-1]","[0.13521363168178266,0.1327017710879854]","[-1,-1,-1]","[-0.0008284040338733187,-0.1589836139520076]","[-1,-1,-1]","[-0.025269053727457892,0.09993000542836941]","[1,1,1]","[-0.12177086652129014,-0.055486400872954145]","[-1,-1,-1]","[0.09432569070288511,0.03627808450706434]","[1,1,1]","[-0.08298699650012209,-0.109019525087845]","[-1,-1,-1]","[0.10764664995138815,-0.018527536438446165]","[-1,-1,-1]","[-0.058901161908293295,-0.0751382730478634]","[-1,-1,-1]","[0.059503609853841434,-0.18505039853209607]","[-1,-1,-1]","[-0.13627703051180687,-0.1158029334837151]","[-1,-1,-1]","[0.0762680445809252,-0.06458965910438207]","[-1,-1,-1]","[-0.041263779725145715,-0.1210014410858959]","[-1,-1,-1]","[-0.19385188673145132,0.04035077565207185]","[-1,-1,-1]","[0.02,0.02]",212.8483,0,38,38,12,1,,,,,,,
,,,,,,,67e94945e5f6a3090ed5a9d0,682f2ed21c6101cee8c4fcc6,2025-05-22_16h05.16.108,cuing_paradigm_dot,2024.1.5,Win32,59.17159763,682d573fa47f1360d1451895,,,,,,,,,,,212.8504,213.3487,,,213.5996,214.0681,right,0.4624,,,,,,,,,0.45,,,,,,213.3489,213.5996,214.0682,"[-0.04808232333015894,-0.1588431874758826]","[-1,-1,-1]","[-0.1799241128910354,0.011615230118140772]","[-1,-1,-1]","[-0.16624435483920413,0.06535926759847664]","[-1,-1,-1]","[-0.11687073859090882,-0.07574597879350335]","[1,1,1]","[-0.18306971562574373,-0.04763196120945749]","[1,1,1]","[-0.12805776836105043,-0.0031576910074581546]","[-1,-1,-1]","[0.1905815259180794,-0.05653941020115129]","[-1,-1,-1]","[0.08681613650441383,0.08642951174826857]","[1,1,1]","[0.07294159655935481,-0.08367053338869447]","[1,1,1]","[0.15476131531170115,0.1266232209661121]","[1,1,1]","[0.07537324761091234,-0.1778032102760722]","[-1,-1,-1]","[0.035589806887608155,0.16901337624880353]","[-1,-1,-1]","[-0.0010125743423873177,-0.008184644906599972]","[-1,-1,-1]","[0.12286364363573203,-0.04160707956582737]","[-1,-1,-1]","[-0.05337217229324376,-0.027292549263156086]","[-1,-1,-1]","[-0.030164868104442667,0.058438340298979354]","[-1,-1,-1]","[-0.059808954471602914,0.1239483970934461]","[-1,-1,-1]","[0.024285026201738887,-0.16855293938284902]","[1,1,1]","[-0.017120621133478012,0.16464250059885796]","[-1,-1,-1]","[-0.053612610373565774,-0.08505156437934866]","[-1,-1,-1]","[0.07523020042144567,-0.023322759282281717]","[1,1,1]","[-0.05579428670738579,0.022771904332559843]","[-1,-1,-1]","[0.08855645413531776,0.02215798401456141]","[-1,-1,-1]","[0.01194158540049297,0.06457757054989427]","[1,1,1]","[0.17582446443658273,0.06440553460455689]","[1,1,1]","[-0.08778737135724086,0.15817002234256666]","[1,1,1]","[-0.11340125751352806,0.10383445433754117]","[1,1,1]","[-0.009099336116121692,-0.05929688639707147]","[1,1,1]","[0.11749301045622801,-0.13346531586325347]","[-1,-1,-1]","[0.17758729786209448,-0.007156606746957638]","[1,1,1]","[-0.10848730723305032,0.04647151410606797]","[1,1,1]","[0.06384647869834172,-0.13320846578085593]","[-1,-1,-1]","[0.02,0.02]",215.1666,0,39,39,60,1,,,,,,,
,,,,,,,67e94945e5f6a3090ed5a9d0,682f2ed21c6101cee8c4fcc6,2025-05-22_16h05.16.108,cuing_paradigm_dot,2024.1.5,Win32,59.17159763,682d573fa47f1360d1451895,,,,,,,,,,,215.1673,215.6656,,,215.9164,216.3512,right,0.4289,,,,,,,,,0.45,,,,,,215.6658,215.9163,216.3512,"[0.0631661309074193,0.0768142074280291]","[-1,-1,-1]","[0.057805787681697994,0.1300365185210478]","[1,1,1]","[0.08751684536874378,-0.14235551284024256]","[-1,-1,-1]","[0.10904587639660396,-0.032806389230927914]","[-1,-1,-1]","[-0.16391398330268306,-0.11162693735182835]","[-1,-1,-1]","[0.03906258740643789,-0.19410368312881127]","[-1,-1,-1]","[0.18974868492113475,0.021330416570764985]","[1,1,1]","[-0.020861259638411695,-0.16183801752145516]","[1,1,1]","[0.1173384401119033,0.11388360083485351]","[1,1,1]","[0.16076188362822075,-0.014350664159230532]","[1,1,1]","[-0.10185519516771056,0.07675752943751439]","[1,1,1]","[-0.16729999914454746,0.09217419030020908]","[-1,-1,-1]","[0.059227568507677464,-0.05450254273542768]","[-1,-1,-1]","[0.05647896707887524,0.010685074145201695]","[1,1,1]","[-0.03390143022864161,0.1653646029462145]","[-1,-1,-1]","[-0.042181784685982986,-0.08810368834729596]","[-1,-1,-1]","[-0.16439312500791203,-0.02440751555810409]","[-1,-1,-1]","[0.0028260356066603758,0.04186072281130925]","[-1,-1,-1]","[-0.14775434237557764,0.04931450380757731]","[-1,-1,-1]","[-0.04048193339753525,-0.021377602554793925]","[-1,-1,-1]","[-0.08955582580104968,-0.07479484813953956]","[-1,-1,-1]","[-0.10468433275223442,-0.16712267708869424]","[1,1,1]","[-0.05558291286912335,0.05859472812763705]","[-1,-1,-1]","[0.039105411624136034,0.18564197702016147]","[1,1,1]","[0.1274301129952794,0.02585311092079769]","[1,1,1]","[0.006735212517280581,-0.11919568346054005]","[-1,-1,-1]","[0.008025865944914274,-0.07038421560533488]","[-1,-1,-1]","[-0.04477035649654442,0.10372803079074067]","[1,1,1]","[-0.13365357236742612,-0.05143120609229475]","[1,1,1]","[0.12295015163798295,-0.09225728089521254]","[1,1,1]","[0.059601690778263286,-0.11258047700189498]","[-1,-1,-1]","[0.13868007411586009,-0.13674940802452049]","[1,1,1]","[0.02,0.02]",217.4483,0,40,40,68,1,,,,,,,
,,,,,,,67e94945e5f6a3090ed5a9d0,682f2ed21c6101cee8c4fcc6,2025-05-22_16h05.16.108,cuing_paradigm_dot,2024.1.5,Win32,59.17159763,682d573fa47f1360d1451895,,,,,,,,,,,217.4493,217.9501,,,218.1991,218.5176,right,0.3107,,,,,,,,,0.1,,,,,,217.9501,218.1989,218.5176,"[-0.01024295144248145,0.09111014754017924]","[-1,-1,-1]","[-0.09164249033302455,-0.041146808001243394]","[-1,-1,-1]","[-0.058454947320181,0.1336645021374697]","[-1,-1,-1]","[0.12942204678713443,-0.10729528985811865]","[1,1,1]","[-0.03368175106838288,0.034284323945338965]","[-1,-1,-1]","[0.1486253962073187,-0.011564372306538546]","[-1,-1,-1]","[0.07664474271366756,-0.12973042781952504]","[-1,-1,-1]","[0.033003824858441964,0.003088523877393861]","[-1,-1,-1]","[-0.09016464926339764,0.0931527044913547]","[1,1,1]","[-0.16357131144103895,0.009897821191460751]","[-1,-1,-1]","[-0.15938365236240637,-0.11218779473151613]","[-1,-1,-1]","[0.17557271658873863,0.03589311141985939]","[-1,-1,-1]","[0.000648982073780947,-0.034466981637289416]","[-1,-1,-1]","[0.031435263032527805,-0.19344409937483115]","[1,1,1]","[0.03445348975469597,0.10790933995627877]","[-1,-1,-1]","[0.08176624603025567,0.05142001674700972]","[-1,-1,-1]","[-0.022137449172069674,-0.07207924253047608]","[-1,-1,-1]","[-0.04078047521405191,-0.11141443029292539]","[-1,-1,-1]","[0.09674601364768264,0.14900952846695945]","[-1,-1,-1]","[0.11789053143562754,-0.05430925564888045]","[-1,-1,-1]","[0.08219525012376319,-0.08253918138299106]","[-1,-1,-1]","[0.09895297551347867,-0.011989308567193779]","[-1,-1,-1]","[-0.05276723028370801,0.0764799028900333]","[-1,-1,-1]","[-0.04004600297397272,-0.1721886712311294]","[-1,-1,-1]","[0.022993099136650454,-0.06868611203449147]","[-1,-1,-1]","[-0.1374843160156988,0.06735998500575324]","[-1,-1,-1]","[-0.13525185998697098,0.12842350552737875]","[-1,-1,-1]","[0.1641602182633455,0.09208315326727012]","[-1,-1,-1]","[0.009340711403058193,0.1666319212758336]","[-1,-1,-1]","[0.002500560563872424,-0.15839122496729002]","[-1,-1,-1]","[0.1677864675398837,-0.05457655207046444]","[-1,-1,-1]","[0.12242690277859931,0.08895931927104812]","[-1,-1,-1]","[0.02,0.02]",219.6155,0,41,41,26,1,,,,,,,
,,,,,,,67e94945e5f6a3090ed5a9d0,682f2ed21c6101cee8c4fcc6,2025-05-22_16h05.16.108,cuing_paradigm_dot,2024.1.5,Win32,59.17159763,682d573fa47f1360d1451895,,,,,,,,,,,219.6167,220.1147,,,220.3733,221.1484,right,0.7557,,,,,,,,,0.55,,,,,,220.1147,220.3732,221.1485,"[-0.08092506555300628,-0.11638257090876035]","[1,1,1]","[0.03968945032273994,0.06264759305411687]","[-1,-1,-1]","[0.06602494263506982,-0.08673024876996975]","[-1,-1,-1]","[0.11421212960415315,0.13123298123534646]","[1,1,1]","[0.03711655514056607,-0.017472030139375986]","[1,1,1]","[0.07763708603933202,-0.02288219950870382]","[1,1,1]","[-0.005095836082895071,-0.14981440508186444]","[1,1,1]","[0.14014579837521768,-0.018705086161707508]","[-1,-1,-1]","[-0.03160094510143492,0.14211335438056621]","[1,1,1]","[-0.12695820460492807,0.14650494264716676]","[1,1,1]","[-0.025124918990182293,0.07511158883570827]","[-1,-1,-1]","[0.054281230858970665,0.1515514155723407]","[1,1,1]","[0.08777037398145462,-0.12062750865474198]","[1,1,1]","[-0.04135349700632818,-0.1795546083258616]","[-1,-1,-1]","[0.12726005846759103,-0.11403677628560066]","[1,1,1]","[0.1817295086811931,0.056621824465725716]","[1,1,1]","[0.09345467436812112,0.025914188420146065]","[1,1,1]","[0.03612788436953869,-0.1585409638315234]","[-1,-1,-1]","[0.08559052307552607,-0.17206346774604242]","[1,1,1]","[-0.050907727841545805,0.03797804490492207]","[1,1,1]","[-0.004037278936491259,-0.0177530648376236]","[-1,-1,-1]","[-0.057122989945052514,-0.0019314990563745256]","[-1,-1,-1]","[0.010398208648040473,0.03514170915443741]","[-1,-1,-1]","[-0.18585753771841224,-0.026201916795824936]","[-1,-1,-1]","[-0.09187842060945244,0.06240616692919816]","[-1,-1,-1]","[-0.16922033595680425,0.09725157851856012]","[1,1,1]","[0.14016065978671835,0.04302720669223819]","[1,1,1]","[0.033574797661649794,0.18744580727582041]","[-1,-1,-1]","[-0.13965614496602244,-0.0617462751793243]","[-1,-1,-1]","[0.0395594787172611,0.11356050647659774]","[1,1,1]","[-0.13164196962501662,0.05657480290671102]","[-1,-1,-1]","[-0.10439550279187329,-0.03549892097217614]","[1,1,1]","[0.02,0.02]",222.2485,0,42,42,131,1,,,,,,,
,,,,,,,67e94945e5f6a3090ed5a9d0,682f2ed21c6101cee8c4fcc6,2025-05-22_16h05.16.108,cuing_paradigm_dot,2024.1.5,Win32,59.17159763,682d573fa47f1360d1451895,,,,,,,,,,,222.2496,222.7486,,,223.0015,223.5821,right,0.5741,,,,,,,,,0.4,,,,,,222.7487,223.0014,223.5822,"[-0.0795660991035878,0.035087930152483314]","[-1,-1,-1]","[0.009294267604819606,-0.042437815981161975]","[1,1,1]","[-0.025148354304674228,0.138988612555068]","[-1,-1,-1]","[0.05127343704240613,0.12433836929683788]","[1,1,1]","[0.1388384139038688,-0.08349319939881215]","[1,1,1]","[-0.034174712649082006,-0.14627623857310032]","[1,1,1]","[0.09864443454958789,0.09414701933469641]","[-1,-1,-1]","[-0.06476342746512466,0.08373789687515534]","[-1,-1,-1]","[-0.1742020506531627,0.0972592616979399]","[-1,-1,-1]","[0.04597409210582368,-0.17419913666183426]","[-1,-1,-1]","[0.14272515870644373,0.09701774535764236]","[-1,-1,-1]","[-0.13365742243167125,0.06019700131321247]","[1,1,1]","[-0.10433126559716177,-0.09660980232056339]","[1,1,1]","[-0.1941021983484089,-0.044190267778909505]","[1,1,1]","[0.18066253818084332,0.0629349872622954]","[1,1,1]","[-0.01759575443445503,-0.00037315275991473234]","[-1,-1,-1]","[0.1948832217874431,-0.011063482135234379]","[-1,-1,-1]","[0.03161580873107004,-0.00279324205061657]","[-1,-1,-1]","[0.12698054817914045,0.03665030839958883]","[-1,-1,-1]","[0.0653701692062932,0.05009808177309111]","[-1,-1,-1]","[0.153868419059648,0.0062168952058768955]","[-1,-1,-1]","[-0.07149382162020651,-0.007150271639465119]","[-1,-1,-1]","[-0.07464694504816097,0.169479658921396]","[-1,-1,-1]","[0.08162944036978627,-0.09011907780572079]","[1,1,1]","[-0.0553659545171738,-0.08558530708081949]","[1,1,1]","[-0.10342654229329014,-0.1383928515201043]","[1,1,1]","[0.10995646230126585,0.1595674386080245]","[-1,-1,-1]","[-0.14280701918614291,-0.04341460308180338]","[-1,-1,-1]","[0.05751101761768136,0.18950168703390924]","[-1,-1,-1]","[0.036430369648802086,0.08361670288279477]","[-1,-1,-1]","[-0.14470881752619505,-0.12506390995290315]","[1,1,1]","[0.15033231159974386,-0.12563406588418766]","[1,1,1]","[0.02,0.02]",224.6812,0,43,43,43,1,,,,,,,
,,,,,,,67e94945e5f6a3090ed5a9d0,682f2ed21c6101cee8c4fcc6,2025-05-22_16h05.16.108,cuing_paradigm_dot,2024.1.5,Win32,59.17159763,682d573fa47f1360d1451895,,,,,,,,,,,224.6821,225.1822,,,225.4322,225.965,right,0.5223,,,,,,,,,0.4,,,,,,225.1823,225.4322,225.9651,"[0.07748910078420047,0.023022064958966415]","[-1,-1,-1]","[0.08820307760523932,-0.17392564542386815]","[1,1,1]","[-0.12715174604253704,0.07471032540042488]","[1,1,1]","[0.010648298644150275,-0.013016712614149889]","[1,1,1]","[0.06920587982395278,0.17046113096837198]","[1,1,1]","[-0.06147835104980739,0.12355359738626176]","[-1,-1,-1]","[0.013596926547962785,0.11902019575407322]","[-1,-1,-1]","[-0.042420207880195133,-0.06062232282526139]","[1,1,1]","[-0.19325459696617237,-0.040289961492694655]","[-1,-1,-1]","[0.12614995065109683,-0.04346987530750433]","[-1,-1,-1]","[-0.10282836537376916,-0.021605645809816228]","[-1,-1,-1]","[-0.12616856122908995,-0.06615987723909825]","[-1,-1,-1]","[0.05720164004063561,-0.0643266511633602]","[1,1,1]","[-0.16409168945079566,-0.08150763916567778]","[-1,-1,-1]","[0.1448956204527228,0.08880737339994672]","[-1,-1,-1]","[-0.028938591264946693,0.01132628988336134]","[1,1,1]","[0.04533137072277865,-0.18305519612709478]","[1,1,1]","[-0.07622740504034956,0.03696661639243665]","[-1,-1,-1]","[0.1355278871937416,-0.13661591252771257]","[-1,-1,-1]","[0.18022762124363947,0.0023879050975947275]","[-1,-1,-1]","[0.0038458609779147284,0.03519070241136601]","[1,1,1]","[-0.1247182817105535,0.032506147331197145]","[1,1,1]","[-0.14154674553644478,0.13168270898555778]","[-1,-1,-1]","[0.01826624190361503,-0.12465116027517727]","[-1,-1,-1]","[0.031468526744235156,0.1840130672552528]","[-1,-1,-1]","[0.10105534375803243,-0.11288125943489076]","[-1,-1,-1]","[-0.017289039127998698,0.14636390261758536]","[-1,-1,-1]","[-0.08172394424704293,-0.07791219420006788]","[-1,-1,-1]","[-0.11791819695216677,-0.11132853648994827]","[1,1,1]","[-0.1814187103537741,0.021061754962718886]","[1,1,1]","[0.13672549842075216,-0.0035499261514359975]","[1,1,1]","[-0.03645458486003474,0.18679297215821844]","[-1,-1,-1]","[0.02,0.02]",227.0643,0,44,44,59,1,,,,,,,
