right,left,explain.started,explain.stopped,key_resp_3.keys,key_resp_3.rt,key_resp_3.duration,participant,session,date,expName,psychopyVersion,OS,frameRate,study_id,explain_2.started,explain_2.stopped,key_resp_4.keys,key_resp_4.rt,key_resp_4.duration,explain_3.started,explain_3.stopped,key_resp_5.keys,key_resp_5.rt,key_resp_5.duration,fixation.started,fixation.stopped,practice.started,practice.stopped,response.started,response.stopped,key_resp.keys,feedback.started,feedback.stopped,trials_2.thisRepN,trials_2.thisTrialN,trials_2.thisN,trials_2.thisIndex,trials_2.ran,white_ratio,explain_4.started,explain_4.stopped,key_resp_6.keys,key_resp_6.rt,key_resp_6.duration,dotDisplay.started,dotDisplay.stopped,key_resp.rt,key_resp.duration,ITI.started,polygon_1.pos,polygon_1.color,polygon_2.pos,polygon_2.color,polygon_3.pos,polygon_3.color,polygon_4.pos,polygon_4.color,polygon_5.pos,polygon_5.color,polygon_6.pos,polygon_6.color,polygon_7.pos,polygon_7.color,polygon_8.pos,polygon_8.color,polygon_9.pos,polygon_9.color,polygon_10.pos,polygon_10.color,polygon_11.pos,polygon_11.color,polygon_12.pos,polygon_12.color,polygon_13.pos,polygon_13.color,polygon_14.pos,polygon_14.color,polygon_15.pos,polygon_15.color,polygon_16.pos,polygon_16.color,polygon_17.pos,polygon_17.color,polygon_18.pos,polygon_18.color,polygon_19.pos,polygon_19.color,polygon_20.pos,polygon_20.color,polygon_21.pos,polygon_21.color,polygon_22.pos,polygon_22.color,polygon_23.pos,polygon_23.color,polygon_24.pos,polygon_24.color,polygon_25.pos,polygon_25.color,polygon_26.pos,polygon_26.color,polygon_27.pos,polygon_27.color,polygon_28.pos,polygon_28.color,polygon_29.pos,polygon_29.color,polygon_30.pos,polygon_30.color,polygon_31.pos,polygon_31.color,polygon_32.pos,polygon_32.color,dot_size,ITI.stopped,trials.thisRepN,trials.thisTrialN,trials.thisN,trials.thisIndex,trials.ran,break_2.started,break_2.stopped,trials_3.thisRepN,trials_3.thisTrialN,trials_3.thisN,trials_3.thisIndex,trials_3.ran
subject chose black,subject chose white,0.0004,154.58,space,139.5585,,67f8cb31eeea81a0e4c8a853,682f10192dfdaca3b062d32f,2025-05-22_13h56.19.362,cuing_paradigm_dot,2024.1.5,Win32,59.17159763,682d573fa47f1360d1451895,,,,,,,,,,,,,,,,,,,,,,,,,,,,,,,,,,,,,,,,,,,,,,,,,,,,,,,,,,,,,,,,,,,,,,,,,,,,,,,,,,,,,,,,,,,,,,,,,,,,,,,,,,,,,,,,,
,,,,,,,67f8cb31eeea81a0e4c8a853,682f10192dfdaca3b062d32f,2025-05-22_13h56.19.362,cuing_paradigm_dot,2024.1.5,Win32,59.17159763,682d573fa47f1360d1451895,154.5817,195.654,space,11.0557,,,,,,,,,,,,,,,,,,,,,,,,,,,,,,,,,,,,,,,,,,,,,,,,,,,,,,,,,,,,,,,,,,,,,,,,,,,,,,,,,,,,,,,,,,,,,,,,,,,,,,,,,,,,,
,,,,,,,67f8cb31eeea81a0e4c8a853,682f10192dfdaca3b062d32f,2025-05-22_13h56.19.362,cuing_paradigm_dot,2024.1.5,Win32,59.17159763,682d573fa47f1360d1451895,,,,,,195.6548,201.6521,space,2.9748,,,,,,,,,,,,,,,,,,,,,,,,,,,,,,,,,,,,,,,,,,,,,,,,,,,,,,,,,,,,,,,,,,,,,,,,,,,,,,,,,,,,,,,,,,,,,,,,,,,,,,,,
,,,,,,,67f8cb31eeea81a0e4c8a853,682f10192dfdaca3b062d32f,2025-05-22_13h56.19.362,cuing_paradigm_dot,2024.1.5,Win32,59.17159763,682d573fa47f1360d1451895,,,,,,,,,,,201.7536,202.1671,202.1688,202.4176,202.418,203.9178,,203.9185,205.0175,0,0,0,1,1,0.2,,,,,,,,,,,,,,,,,,,,,,,,,,,,,,,,,,,,,,,,,,,,,,,,,,,,,,,,,,,,,,,,,,,,,,,,,,,,,,,,,,,,,,,,
,,,,,,,67f8cb31eeea81a0e4c8a853,682f10192dfdaca3b062d32f,2025-05-22_13h56.19.362,cuing_paradigm_dot,2024.1.5,Win32,59.17159763,682d573fa47f1360d1451895,,,,,,,,,,,205.0195,205.5163,205.5166,205.7544,205.7545,207.2496,,207.25,208.3493,0,1,1,0,1,0.8,,,,,,,,,,,,,,,,,,,,,,,,,,,,,,,,,,,,,,,,,,,,,,,,,,,,,,,,,,,,,,,,,,,,,,,,,,,,,,,,,,,,,,,,
,,,,,,,67f8cb31eeea81a0e4c8a853,682f10192dfdaca3b062d32f,2025-05-22_13h56.19.362,cuing_paradigm_dot,2024.1.5,Win32,59.17159763,682d573fa47f1360d1451895,,,,,,,,,,,,,,,,,,,,,,,,,,208.3508,228.2644,space,16.8901,,,,,,,,,,,,,,,,,,,,,,,,,,,,,,,,,,,,,,,,,,,,,,,,,,,,,,,,,,,,,,,,,,,,,,,,,,,,,,,,,,,,
,,,,,,,67f8cb31eeea81a0e4c8a853,682f10192dfdaca3b062d32f,2025-05-22_13h56.19.362,cuing_paradigm_dot,2024.1.5,Win32,59.17159763,682d573fa47f1360d1451895,,,,,,,,,,,228.3141,228.7773,,,229.0205,230.3784,right,,,,,,,,0.1,,,,,,228.7781,229.0202,1.3431,,230.3803,"[0.10134675982643886,0.14874285091341855]","[-1,-1,-1]","[-0.06887139956129239,-0.06204101325173575]","[-1,-1,-1]","[0.1744900170962679,0.029727527673607042]","[-1,-1,-1]","[0.07713587394408446,-0.09796494440497593]","[-1,-1,-1]","[0.049570096856490935,-0.047128151940576436]","[1,1,1]","[-0.03693238326641136,0.08304589123346004]","[-1,-1,-1]","[0.04762707193074608,0.03104561531992161]","[1,1,1]","[0.029130003974895582,0.17862341892267827]","[-1,-1,-1]","[-0.15655111800526877,0.021484605827600225]","[-1,-1,-1]","[-0.14377667382779152,-0.05811150376471359]","[-1,-1,-1]","[0.10310937150614817,0.03846065279844979]","[1,1,1]","[0.18590354284978872,-0.019274861624546745]","[-1,-1,-1]","[-0.11157737723019195,-0.09030424991278405]","[-1,-1,-1]","[0.14561188869393954,-0.12757799351739033]","[-1,-1,-1]","[-0.06652131109190901,0.024472540961611892]","[-1,-1,-1]","[0.14196396123673974,0.08177945245974236]","[-1,-1,-1]","[-0.07561375119420122,0.15368087578612669]","[-1,-1,-1]","[-0.17598953640427048,0.08620243903854731]","[-1,-1,-1]","[-0.047973406364904804,-0.16835231410826018]","[-1,-1,-1]","[0.0957347140037447,-0.13759339599327852]","[-1,-1,-1]","[0.007998538963136037,-0.07355863963581577]","[-1,-1,-1]","[0.05474318028557044,0.12485875248662252]","[-1,-1,-1]","[0.14535946109832285,-0.03627420415587154]","[-1,-1,-1]","[0.011431121132411974,0.10069695083892179]","[-1,-1,-1]","[0.07543582458068891,-0.014971182431644596]","[-1,-1,-1]","[-0.13681748715063016,0.09800108190236635]","[-1,-1,-1]","[0.023660154817567034,-0.13747822306763383]","[-1,-1,-1]","[-0.10425876647861468,0.05704733088649334]","[-1,-1,-1]","[-0.02436320893185394,0.18592407950194445]","[-1,-1,-1]","[-0.022339045486957834,-0.024509761089498816]","[-1,-1,-1]","[-0.18699525236228465,-0.06028008819712572]","[-1,-1,-1]","[0.133611069651828,0.007812956459675929]","[-1,-1,-1]","[0.02,0.02]",231.4791,0,0,0,21,1,,,,,,,
,,,,,,,67f8cb31eeea81a0e4c8a853,682f10192dfdaca3b062d32f,2025-05-22_13h56.19.362,cuing_paradigm_dot,2024.1.5,Win32,59.17159763,682d573fa47f1360d1451895,,,,,,,,,,,231.4806,231.9781,,,232.229,233.7273,,,,,,,,,0.55,,,,,,231.9789,232.2289,,,233.7274,"[-0.14578125803348616,0.10498743104563618]","[-1,-1,-1]","[0.056026883125807406,0.03696442276586786]","[-1,-1,-1]","[-0.14367290584859496,-0.13436211790475489]","[-1,-1,-1]","[0.1526096417307016,-0.12565944113363597]","[1,1,1]","[-0.08105633614178692,-0.16286439007785417]","[1,1,1]","[0.005527778651461065,-0.11352641012662]","[1,1,1]","[-0.006322769411769053,-0.16349625514329488]","[-1,-1,-1]","[0.04813326084439564,0.16008000403310582]","[-1,-1,-1]","[0.13800876933076717,-0.01937779944560102]","[1,1,1]","[-0.19420184460754164,-0.016151211838794664]","[1,1,1]","[0.14066787743585982,-0.0714978993351273]","[1,1,1]","[-0.03170125529815109,0.026392501274349098]","[1,1,1]","[0.03858826405555446,0.12023875893411215]","[1,1,1]","[0.06197178570500485,-0.07393938159343004]","[-1,-1,-1]","[-0.10850994615036282,-0.049665923919133076]","[1,1,1]","[-0.07164902031020963,0.15000067650740545]","[1,1,1]","[-0.07275338880393714,-0.07266108737211444]","[-1,-1,-1]","[-0.08469388114437033,0.07765144469106879]","[1,1,1]","[0.15610357451739762,0.08858170126270531]","[-1,-1,-1]","[-0.03278001183952356,-0.1007561115466418]","[1,1,1]","[0.09791895470193922,-0.16245651464677338]","[1,1,1]","[0.1297588610077989,0.12351033332264141]","[-1,-1,-1]","[0.029954875048210435,-0.03746645465778827]","[1,1,1]","[-0.022999211530537533,0.13687987414119943]","[1,1,1]","[0.007521427259619264,0.05679494642508175]","[-1,-1,-1]","[-0.16035933433502816,0.039986853100262704]","[-1,-1,-1]","[0.14032307461054933,0.024840004164532973]","[1,1,1]","[0.05367741554563904,-0.17198747537947753]","[-1,-1,-1]","[0.0858671700439152,0.11433312338388096]","[-1,-1,-1]","[0.10306211483794572,-0.11280419874201543]","[1,1,1]","[-0.06023896810502428,-0.017081896980228932]","[1,1,1]","[0.18338373177063097,0.019306292351421468]","[-1,-1,-1]","[0.02,0.02]",234.827,0,1,1,136,1,,,,,,,
,,,,,,,67f8cb31eeea81a0e4c8a853,682f10192dfdaca3b062d32f,2025-05-22_13h56.19.362,cuing_paradigm_dot,2024.1.5,Win32,59.17159763,682d573fa47f1360d1451895,,,,,,,,,,,234.8283,235.326,,,235.579,236.7266,left,,,,,,,,0.9,,,,,,235.326,235.5789,1.1314,,236.727,"[-0.031210976465943084,-0.055915897527016034]","[1,1,1]","[-0.10248893940562545,-0.09009131625373334]","[1,1,1]","[0.009883256251943202,0.19081335668826926]","[1,1,1]","[-0.014813153241280592,0.07732091237304796]","[1,1,1]","[-0.06895433435644376,0.017748381036274172]","[1,1,1]","[-0.18612930448496462,-0.051995996987265224]","[-1,-1,-1]","[-0.02439113065760208,-0.1144623093559858]","[1,1,1]","[0.03077811580178814,-0.1639778093941535]","[1,1,1]","[0.03199826483416054,-0.04023184575947857]","[1,1,1]","[0.09464909299469837,0.0035101712469819777]","[-1,-1,-1]","[-0.1046527273272135,0.16393438185598008]","[1,1,1]","[0.08465227377539376,0.09779645985807452]","[1,1,1]","[0.06491613456134762,0.16910683882935684]","[1,1,1]","[-0.13944737345096564,-0.05212058171731253]","[1,1,1]","[-0.07197571954646664,0.10191166862239208]","[1,1,1]","[-0.11437982458185945,-0.13283873997945855]","[1,1,1]","[0.02849373874894725,-0.10215037749699497]","[1,1,1]","[-0.1442876753682869,0.127008387664602]","[1,1,1]","[0.09259091360745789,-0.14203598693404365]","[1,1,1]","[0.0983568705590299,-0.04575467887715276]","[1,1,1]","[-0.0568819205960615,-0.1682213847135659]","[1,1,1]","[-0.11226579409765589,0.06961050509371215]","[1,1,1]","[-0.19236828808584164,0.03334034333554358]","[-1,-1,-1]","[0.020599746197956226,0.011126321076727144]","[1,1,1]","[0.18544970144772768,0.03821903961955564]","[1,1,1]","[0.1088554422032339,0.0536909649471483]","[1,1,1]","[-0.12736711840879847,0.024614046801626027]","[1,1,1]","[0.1215592937140695,-0.0885140355242168]","[1,1,1]","[-0.06243200609219465,-0.0902123905793165]","[1,1,1]","[0.18146118539382639,-0.06836538209607247]","[1,1,1]","[0.12671764383928122,0.13376906346631445]","[1,1,1]","[0.1611015930171044,0.10356740685490635]","[1,1,1]","[0.02,0.02]",237.8265,0,2,2,206,1,,,,,,,
,,,,,,,67f8cb31eeea81a0e4c8a853,682f10192dfdaca3b062d32f,2025-05-22_13h56.19.362,cuing_paradigm_dot,2024.1.5,Win32,59.17159763,682d573fa47f1360d1451895,,,,,,,,,,,237.8282,238.3266,,,238.5812,239.6436,left,,,,,,,,0.4,,,,,,238.3267,238.5811,1.0401,,239.6438,"[-0.1502914116642722,-0.11992887742393185]","[-1,-1,-1]","[-0.16651353870091865,0.016281240172767907]","[-1,-1,-1]","[-0.17759578613133947,-0.046099826178142636]","[-1,-1,-1]","[-0.07905186808595928,0.11057019512431887]","[-1,-1,-1]","[-0.15106516373579384,0.10660520213627342]","[1,1,1]","[0.01786898997989428,0.10785306541714888]","[-1,-1,-1]","[-0.007320597856933043,0.05844473676476463]","[1,1,1]","[0.0890780577032337,-0.15799908007668845]","[1,1,1]","[0.1432763712068531,-0.11706757328794064]","[1,1,1]","[0.11816550192721025,0.021924647702374647]","[-1,-1,-1]","[0.05821144068991544,0.03544659260751045]","[1,1,1]","[-0.06283684372798065,-0.07541036431648444]","[1,1,1]","[-0.10029549787647679,0.044603217078126055]","[1,1,1]","[0.07023344047371502,0.17333228189216834]","[1,1,1]","[0.15753739462160704,-0.07176605646102524]","[1,1,1]","[0.009867784344415143,0.15992224145687725]","[-1,-1,-1]","[-0.016361449982416443,-0.09408600906519597]","[1,1,1]","[-0.10819006587581802,-0.15402713319233685]","[1,1,1]","[-0.0716398321667496,-0.18114391916839412]","[-1,-1,-1]","[-0.018108954399835293,-0.03143153358645949]","[-1,-1,-1]","[-0.10898604834207538,-0.028287362666000408]","[-1,-1,-1]","[0.1480322062989613,0.0940993332960357]","[-1,-1,-1]","[-0.05390311783416014,0.06230594212478182]","[-1,-1,-1]","[0.10115526700176822,0.09291625554999441]","[-1,-1,-1]","[0.039350796595060245,-0.022885215073310348]","[-1,-1,-1]","[-0.06359170713895831,-0.025526234490636738]","[1,1,1]","[0.15745725032908284,0.012532011565488745]","[1,1,1]","[0.06535193232276854,0.12417737273481547]","[-1,-1,-1]","[0.1000562162602492,-0.06583140086306392]","[-1,-1,-1]","[-0.12170709063051642,0.13396223102674676]","[-1,-1,-1]","[-0.04113104509088061,0.18517162329609105]","[-1,-1,-1]","[0.03206274240048639,-0.06576100443120904]","[-1,-1,-1]","[0.02,0.02]",240.7416,0,3,3,37,1,,,,,,,
,,,,,,,67f8cb31eeea81a0e4c8a853,682f10192dfdaca3b062d32f,2025-05-22_13h56.19.362,cuing_paradigm_dot,2024.1.5,Win32,59.17159763,682d573fa47f1360d1451895,,,,,,,,,,,240.7433,241.2424,,,241.4959,242.176,right,,,,,,,,0.1,,,,,,241.243,241.4959,0.6532,,242.1765,"[0.010807381736950249,-0.005923417216648716]","[-1,-1,-1]","[-0.07235070920882469,0.058482413958033455]","[-1,-1,-1]","[-0.024876838984907505,-0.18134694336788104]","[-1,-1,-1]","[-0.1756700101258777,-0.06088773565040349]","[-1,-1,-1]","[-0.15461017760651632,0.012712627942647572]","[-1,-1,-1]","[0.0361914497049384,0.11838320529640455]","[-1,-1,-1]","[0.0651345884977882,-0.08767541778473995]","[-1,-1,-1]","[0.14837943795043593,-0.09627932011706493]","[-1,-1,-1]","[-0.052248259934628845,-0.024444291929538495]","[-1,-1,-1]","[-0.08765225081729676,0.10563532341854615]","[1,1,1]","[0.055532286796286974,0.045791518768716725]","[-1,-1,-1]","[0.09885575427637142,0.008875597526669088]","[-1,-1,-1]","[-0.07470138111892854,-0.183892832739685]","[-1,-1,-1]","[0.15540985936271165,-0.04422590282445065]","[-1,-1,-1]","[-0.11608856955681264,-0.1479080888229372]","[-1,-1,-1]","[-0.11216504716578056,-0.04384218357524166]","[-1,-1,-1]","[0.07967823608330876,0.17559642676242218]","[-1,-1,-1]","[0.02129295123473442,0.08075446242075986]","[-1,-1,-1]","[-0.1465806878151359,0.11718759291365484]","[-1,-1,-1]","[0.11362089823086194,0.11139155486585167]","[-1,-1,-1]","[0.14530230593378668,0.0011482820192734362]","[-1,-1,-1]","[0.12900792042427828,0.0739223250254656]","[-1,-1,-1]","[-0.11207529029292237,0.05156659027638642]","[-1,-1,-1]","[-0.07889129785381596,0.15767406419605048]","[1,1,1]","[0.19590196211528513,-0.030362208442846938]","[-1,-1,-1]","[0.03227258785195257,-0.17988862146834453]","[-1,-1,-1]","[-0.1514532379991762,0.058969208895673614]","[1,1,1]","[0.03981730051627674,0.16455110987097343]","[-1,-1,-1]","[-0.028149038023280976,0.044640491058196285]","[-1,-1,-1]","[0.16303968815534464,0.10421006393930862]","[-1,-1,-1]","[-0.03874432072361585,-0.06702271199968919]","[-1,-1,-1]","[0.0185652098356988,-0.08703983328860537]","[-1,-1,-1]","[0.02,0.02]",243.2759,0,4,4,29,1,,,,,,,
,,,,,,,67f8cb31eeea81a0e4c8a853,682f10192dfdaca3b062d32f,2025-05-22_13h56.19.362,cuing_paradigm_dot,2024.1.5,Win32,59.17159763,682d573fa47f1360d1451895,,,,,,,,,,,243.2775,243.7756,,,244.0268,244.8256,left,,,,,,,,0.9,,,,,,243.7758,244.0267,0.7903,,244.8258,"[0.03988184868543695,0.03575368912584408]","[1,1,1]","[-0.08746411811946342,0.00644895339160774]","[1,1,1]","[0.07161845584259549,-0.05382275377437538]","[-1,-1,-1]","[-0.15568714870114211,0.1237355124817293]","[1,1,1]","[-0.07580365404707648,-0.14109219443118592]","[1,1,1]","[-0.038549328649890975,-0.057862446391238505]","[1,1,1]","[0.09433661472514285,-0.17509598824445963]","[1,1,1]","[-0.16215960193385964,0.010939431373068697]","[1,1,1]","[0.1824058724274906,0.012855688152096197]","[1,1,1]","[-0.06908769043743114,0.09118076627905765]","[1,1,1]","[-0.003246754143962564,-0.16953475990559916]","[1,1,1]","[-0.1209317011770771,0.09461733200246292]","[1,1,1]","[0.03702890586781192,-0.01142663896092314]","[1,1,1]","[0.05812630007078486,-0.10646860112916533]","[1,1,1]","[-0.12022738938076137,0.04756938440967268]","[1,1,1]","[-0.13937894818989927,-0.0815800127011267]","[1,1,1]","[0.12384490889938268,-0.0504888235909924]","[1,1,1]","[-0.17059596889631387,0.08423399725511119]","[1,1,1]","[0.02068168941130924,0.1117638771530083]","[1,1,1]","[-0.00284876243229565,-0.1138654766290363]","[1,1,1]","[0.08089216172466498,0.1610693614092001]","[1,1,1]","[0.10305078738375903,-0.09420871015060531]","[1,1,1]","[0.12281220169423676,0.03171878358884803]","[-1,-1,-1]","[-0.1821354665955778,-0.07744569314622474]","[1,1,1]","[-0.058578497037422364,0.17834350826433754]","[1,1,1]","[0.16945803062894815,-0.061050530844211824]","[1,1,1]","[-0.024504505905988416,0.07778838997298382]","[1,1,1]","[0.1362233702500207,0.14055737502261173]","[1,1,1]","[0.18089343014007317,0.07601828245721093]","[1,1,1]","[-0.08054295745148608,0.13569100610388504]","[1,1,1]","[0.03320660319675541,-0.14700072232851782]","[-1,-1,-1]","[-0.007955689542988222,0.036697022283993914]","[1,1,1]","[0.02,0.02]",245.9248,0,5,5,192,1,,,,,,,
,,,,,,,67f8cb31eeea81a0e4c8a853,682f10192dfdaca3b062d32f,2025-05-22_13h56.19.362,cuing_paradigm_dot,2024.1.5,Win32,59.17159763,682d573fa47f1360d1451895,,,,,,,,,,,245.9261,246.4251,,,246.6775,247.307,left,,,,,,,,0.9,,,,,,246.4252,246.6774,0.6013,,247.3073,"[-0.06880445062509001,0.107269738549327]","[1,1,1]","[-0.029800233005849615,-0.03586530252143283]","[1,1,1]","[-0.15718085490764552,0.06355373454536055]","[1,1,1]","[0.14658774516393364,-0.050719570070801495]","[1,1,1]","[-0.10682112767430432,0.029998414612313368]","[1,1,1]","[-0.1532347466716329,0.11525855854447996]","[-1,-1,-1]","[-0.08247529415301466,0.1779046094299794]","[1,1,1]","[-0.002329097401068826,0.07257366420167319]","[1,1,1]","[0.017105310273707538,0.03694863299822113]","[1,1,1]","[-0.03106577383222492,-0.1631807615045116]","[1,1,1]","[0.01658719659283533,-0.13097697230203315]","[1,1,1]","[-0.0022701765633126843,0.12036003366114735]","[1,1,1]","[0.055811281706428906,-0.07445768049541256]","[1,1,1]","[0.07461206496839687,-0.14947674713843964]","[1,1,1]","[0.09320539109922521,-0.10314758055068356]","[1,1,1]","[0.0026942963618599336,-0.011214807204944981]","[1,1,1]","[0.13007956181653357,0.14829684654216133]","[1,1,1]","[0.04648966225019901,0.0871333338485776]","[1,1,1]","[-0.12777626159487668,-0.06976065412049501]","[1,1,1]","[-0.0301458619183025,0.027623394716807338]","[-1,-1,-1]","[-0.029998075287125878,0.17138837701377235]","[1,1,1]","[0.05462803205510381,-0.015238920818015507]","[1,1,1]","[-0.08129855660157939,-0.1303156560366108]","[-1,-1,-1]","[0.1347057422032425,0.0722365788360538]","[1,1,1]","[0.08245084988432282,0.022865211468450736]","[1,1,1]","[0.012310877827239173,-0.0814417492018035]","[1,1,1]","[-0.19136228104333006,0.0013162100023421327]","[1,1,1]","[-0.07245106414227345,-0.004261297134638259]","[1,1,1]","[-0.049269113734515195,-0.10312007216456655]","[1,1,1]","[0.004988507570306384,-0.18089385981161227]","[1,1,1]","[0.1855877908303817,0.021335187082078055]","[1,1,1]","[0.09565841022657352,0.11697485907682756]","[1,1,1]","[0.02,0.02]",248.4083,0,6,6,209,1,,,,,,,
,,,,,,,67f8cb31eeea81a0e4c8a853,682f10192dfdaca3b062d32f,2025-05-22_13h56.19.362,cuing_paradigm_dot,2024.1.5,Win32,59.17159763,682d573fa47f1360d1451895,,,,,,,,,,,248.4095,248.9083,,,249.1639,250.0912,left,,,,,,,,0.55,,,,,,248.9086,249.1638,0.9096,,250.0913,"[0.13236292233198754,-0.07595548175504241]","[1,1,1]","[-0.18078489608702641,-0.016370655288369784]","[1,1,1]","[0.0903890267243288,0.07832323227725702]","[1,1,1]","[-0.035088775435411286,0.1638430765628107]","[1,1,1]","[-0.1312310793004376,0.10935513499437952]","[1,1,1]","[-0.11308091314213226,-0.08671879548067606]","[1,1,1]","[-0.14838751006639422,-0.10804980292201402]","[1,1,1]","[-0.040009290861278336,-0.12034560794651634]","[-1,-1,-1]","[-0.056950784382661476,0.03837034614617734]","[-1,-1,-1]","[0.03429891661146476,-0.014482733089387155]","[1,1,1]","[0.019301809221189993,-0.13056536669393382]","[-1,-1,-1]","[-0.0965106061003582,-0.03982551053043921]","[-1,-1,-1]","[-0.03411741110516834,-0.008487329668759203]","[-1,-1,-1]","[0.07587112891596144,-0.12215765524919402]","[-1,-1,-1]","[-0.01631300631491689,-0.06744582434156147]","[-1,-1,-1]","[0.011210485241557048,0.17058938465697032]","[1,1,1]","[-0.13640745318195852,-0.050278306926342636]","[1,1,1]","[-0.05775717717260609,0.07976573198682978]","[1,1,1]","[0.09427207247087237,-0.15805960260677487]","[1,1,1]","[0.13012862723958243,0.054156476920247484]","[1,1,1]","[0.14850328736039983,0.1297455964148042]","[1,1,1]","[0.05459787937755118,0.022500675449857142]","[-1,-1,-1]","[-0.019603861463691436,0.0943347929114031]","[-1,-1,-1]","[0.08922255044154442,0.17647816221207993]","[-1,-1,-1]","[0.1386430100552822,-0.030670130049221672]","[-1,-1,-1]","[-0.09878466015889392,-0.13020297835178782]","[1,1,1]","[-0.0039963607570387,-0.1659036947690311]","[1,1,1]","[-0.0779876374234102,-0.16919274275977114]","[-1,-1,-1]","[0.16627515624315903,0.02976371188296338]","[1,1,1]","[-0.11156255065873506,0.037630681272843365]","[-1,-1,-1]","[0.15166482834572273,0.08844382977798182]","[-1,-1,-1]","[0.10298758148522993,0.009156930324322759]","[1,1,1]","[0.02,0.02]",251.1915,0,7,7,123,1,,,,,,,
,,,,,,,67f8cb31eeea81a0e4c8a853,682f10192dfdaca3b062d32f,2025-05-22_13h56.19.362,cuing_paradigm_dot,2024.1.5,Win32,59.17159763,682d573fa47f1360d1451895,,,,,,,,,,,251.1936,251.6921,,,251.941,252.7301,left,,,,,,,,0.6,,,,,,251.6923,251.941,0.7814,,252.7304,"[-0.08073105555385933,0.12423022748128379]","[1,1,1]","[-0.0628085831353358,-0.04903309810418547]","[1,1,1]","[-0.12973962672912756,0.0680804589136656]","[1,1,1]","[-0.055531660078018456,-0.12099851993181944]","[1,1,1]","[-0.010515744753534749,-0.09650528764892231]","[1,1,1]","[-0.16655722527984906,0.027229809943909743]","[1,1,1]","[0.11501870977423949,-0.09109119934042452]","[1,1,1]","[-0.13437780700092966,-0.06719586631610874]","[1,1,1]","[0.0277615006238242,0.0895749932389451]","[-1,-1,-1]","[0.10928759185450035,-0.015419723852455004]","[-1,-1,-1]","[0.005654738070244915,-0.01037683242448214]","[-1,-1,-1]","[0.08373914637881354,0.017570621749627507]","[-1,-1,-1]","[0.0022678891812968425,-0.13647620236565483]","[-1,-1,-1]","[0.1670374507318324,0.08925526373070714]","[-1,-1,-1]","[0.06237608738988164,0.1654821860503613]","[1,1,1]","[-0.031683097887155585,0.1539269349774688]","[1,1,1]","[0.03390892986990101,0.03388737111439151]","[1,1,1]","[-0.1254041246518019,-0.11868094957162405]","[-1,-1,-1]","[0.10950745187771822,0.0567430557789299]","[-1,-1,-1]","[0.08223509676792705,-0.11421475452780959]","[-1,-1,-1]","[-0.06904812378237239,-0.18159441092052406]","[1,1,1]","[-0.0952344162368122,0.04221390037134343]","[-1,-1,-1]","[0.06295789618437653,-0.04588412922919292]","[1,1,1]","[-0.043936790301076625,0.025331530307016438]","[1,1,1]","[0.15791943428624905,-0.023904856133220374]","[1,1,1]","[-0.11170958758431744,0.15733073365598843]","[1,1,1]","[-0.18566884051621882,-0.039927576500187176]","[-1,-1,-1]","[0.12023565884529089,-0.15175456281076455]","[-1,-1,-1]","[0.0667291512270368,0.07728148721397932]","[1,1,1]","[0.11261712971916295,0.1184503901696742]","[1,1,1]","[0.16892046212724768,0.03498576562739874]","[-1,-1,-1]","[0.07582507069376793,-0.15889134115466355]","[1,1,1]","[0.02,0.02]",253.8246,0,8,8,160,1,,,,,,,
,,,,,,,67f8cb31eeea81a0e4c8a853,682f10192dfdaca3b062d32f,2025-05-22_13h56.19.362,cuing_paradigm_dot,2024.1.5,Win32,59.17159763,682d573fa47f1360d1451895,,,,,,,,,,,253.8265,254.3242,,,254.5758,255.3736,left,,,,,,,,0.55,,,,,,254.3243,254.5757,0.7708,,255.374,"[0.12364583122719715,-0.11793129874624642]","[1,1,1]","[0.038967883836190854,-0.029327104047143556]","[1,1,1]","[-0.14233856200849426,-0.08043547197461601]","[1,1,1]","[0.051827880745980076,0.18599533039187013]","[-1,-1,-1]","[0.03802773214680171,0.021216022297805982]","[-1,-1,-1]","[0.1395398068155893,-0.07167615674127902]","[-1,-1,-1]","[-0.16589591977821228,0.0835483887169864]","[-1,-1,-1]","[-0.0365888874065263,-0.19509237802388685]","[1,1,1]","[0.03606469124405628,0.10114442834270189]","[1,1,1]","[-0.05399987351186231,0.013851720517407254]","[-1,-1,-1]","[-0.0874853377135098,-0.1254839813919846]","[-1,-1,-1]","[-0.1625242997036847,0.04025198108246565]","[-1,-1,-1]","[0.03382182211713049,-0.12701386715084773]","[-1,-1,-1]","[-0.10480335149282961,0.15634675460398434]","[1,1,1]","[0.08886405919134704,-0.012714935955647867]","[-1,-1,-1]","[-0.013312905599551013,0.06109677613665012]","[-1,-1,-1]","[-0.09484203399941203,-0.06172033051388477]","[1,1,1]","[0.18375334499392956,-0.0014781245761999794]","[1,1,1]","[-0.17569402131006487,-0.011941543280147153]","[1,1,1]","[0.13201330006856,0.02685548226202693]","[1,1,1]","[0.1079100630909011,0.14723184743978532]","[1,1,1]","[-0.06929198628642838,0.1341951066254959]","[1,1,1]","[-0.10771320628258776,-0.020127558927035685]","[1,1,1]","[0.13238564446381743,0.10460059182343702]","[-1,-1,-1]","[-0.03249772877490685,0.1718049577532746]","[-1,-1,-1]","[0.06821765060982869,-0.1632392059000409]","[1,1,1]","[-0.10269283903530017,0.06518470635601509]","[1,1,1]","[-0.07627654825858421,-0.1706808803344931]","[-1,-1,-1]","[-0.01613423990076644,-0.014282241377952797]","[1,1,1]","[-0.10711765349656495,0.02157011418993423]","[-1,-1,-1]","[0.09440241022784748,0.08219151933993994]","[1,1,1]","[0.18370281450402196,0.04557936303251349]","[1,1,1]","[0.02,0.02]",256.4734,0,9,9,126,1,,,,,,,
,,,,,,,67f8cb31eeea81a0e4c8a853,682f10192dfdaca3b062d32f,2025-05-22_13h56.19.362,cuing_paradigm_dot,2024.1.5,Win32,59.17159763,682d573fa47f1360d1451895,,,,,,,,,,,256.4747,256.9738,,,257.229,257.9565,left,,,,,,,,0.9,,,,,,256.9739,257.229,0.7108,,257.9567,"[0.08584624908806993,-0.11317099955595133]","[1,1,1]","[-0.15191393391993369,-0.00585133597394142]","[1,1,1]","[0.03182422474259916,-0.12100412969599379]","[1,1,1]","[-0.09920726323232397,0.13163961099215188]","[1,1,1]","[-0.06644489119001512,-0.034977862863995846]","[-1,-1,-1]","[0.10220518128866352,0.009919476819201611]","[1,1,1]","[0.16608111266248066,0.02445348574962618]","[-1,-1,-1]","[0.09234008875601289,0.1541931202174558]","[1,1,1]","[0.1831668754239469,-0.014982265992520534]","[1,1,1]","[0.036173951591879874,0.02578174296590172]","[1,1,1]","[-0.00027642255680910524,0.08539859569333905]","[1,1,1]","[-0.12208493594024705,-0.14481386650372471]","[1,1,1]","[-0.04637480744586732,0.10473068938370232]","[1,1,1]","[-0.12468503449096886,-0.0667189445082835]","[1,1,1]","[0.11669445413033956,0.04862131237280723]","[-1,-1,-1]","[0.030320559057235037,-0.04568426801034013]","[1,1,1]","[-0.010252085178756202,-0.03913529360599534]","[1,1,1]","[-0.15224320476365327,0.03719323825104001]","[1,1,1]","[0.14533302821733696,0.13213084311436868]","[1,1,1]","[-0.0760110274019619,-0.13868484734411132]","[1,1,1]","[-0.021627866368223066,0.14690487624372625]","[1,1,1]","[0.09372786322357343,-0.17305582471291148]","[1,1,1]","[0.09760588733311885,-0.03535661293772343]","[1,1,1]","[0.03988403110314168,0.19496969198945235]","[1,1,1]","[-0.14437321336606215,-0.10497216192507715]","[1,1,1]","[-0.19926517829853174,0.013590369012931968]","[1,1,1]","[0.055366095397858535,-0.18707387506770035]","[1,1,1]","[0.0014987164852107893,-0.16896398980662808]","[1,1,1]","[-0.011889740813251134,-0.10240863091750364]","[1,1,1]","[0.020051019556154317,0.1205229094667924]","[1,1,1]","[-0.06245726222449957,0.162231494753971]","[1,1,1]","[-0.17603716269789796,-0.06953217351057246]","[1,1,1]","[0.02,0.02]",259.0562,0,10,10,187,1,,,,,,,
,,,,,,,67f8cb31eeea81a0e4c8a853,682f10192dfdaca3b062d32f,2025-05-22_13h56.19.362,cuing_paradigm_dot,2024.1.5,Win32,59.17159763,682d573fa47f1360d1451895,,,,,,,,,,,259.0576,259.5565,,,259.8074,260.7891,right,,,,,,,,0.45,,,,,,259.5571,259.8073,0.9729,,260.7892,"[-0.10556097096722485,0.08185228055489858]","[1,1,1]","[-0.015034267019511514,-0.18425604713916832]","[1,1,1]","[0.13042571595686303,-0.04615581181495148]","[-1,-1,-1]","[-0.07068526087356371,0.03438362559786327]","[-1,-1,-1]","[0.05873301635272428,0.07495652402280614]","[1,1,1]","[0.05278202938610365,-0.15641728676924477]","[1,1,1]","[0.002799811551341207,-0.0019389644968162614]","[-1,-1,-1]","[0.006691444255744829,0.15638110032237285]","[-1,-1,-1]","[-0.0011296937774232304,-0.045682548919365386]","[1,1,1]","[0.07800779085687885,0.11798180574774657]","[-1,-1,-1]","[-0.17016064151097324,-0.017156001118822664]","[1,1,1]","[-0.0793279248128383,-0.16383285122227279]","[-1,-1,-1]","[-0.13398493989949709,0.0426660190964515]","[-1,-1,-1]","[-0.11614724099167023,-0.0005223830853566292]","[-1,-1,-1]","[-0.03448526476211476,0.14575428430899579]","[-1,-1,-1]","[0.16213600764848715,-0.0756140381434434]","[1,1,1]","[-0.10070422920907039,0.15042354156465795]","[1,1,1]","[-0.06748777923905487,-0.11469210102852294]","[1,1,1]","[-0.040625665478729256,0.10023028131707039]","[-1,-1,-1]","[-0.11013333946780893,-0.060844874207574555]","[-1,-1,-1]","[0.0921704861197484,-0.11028744488652893]","[-1,-1,-1]","[0.07761200995198454,-0.03192903891319409]","[1,1,1]","[-0.017985706151095463,-0.11602244660835805]","[-1,-1,-1]","[0.1768633043997549,0.04906565357807487]","[1,1,1]","[-0.008457794480268364,0.0548550891010191]","[-1,-1,-1]","[0.04653818739933053,0.1826796211300571]","[-1,-1,-1]","[0.10341250327186399,0.015380646588001144]","[-1,-1,-1]","[0.18001768625680742,0.0024073961110443205]","[-1,-1,-1]","[0.03258188013219433,0.10979153216402071]","[1,1,1]","[-0.04236943172830464,-0.01920379392796146]","[-1,-1,-1]","[-0.17779009226457895,0.08239306408134038]","[1,1,1]","[-0.1491060141581863,-0.12340968189745627]","[1,1,1]","[0.02,0.02]",261.8884,0,11,11,81,1,,,,,,,
,,,,,,,67f8cb31eeea81a0e4c8a853,682f10192dfdaca3b062d32f,2025-05-22_13h56.19.362,cuing_paradigm_dot,2024.1.5,Win32,59.17159763,682d573fa47f1360d1451895,,,,,,,,,,,261.8898,262.3891,,,262.6406,263.4714,right,,,,,,,,0.45,,,,,,262.3893,262.6404,0.8152,,263.4717,"[0.002835450661618778,-0.04137663270967232]","[1,1,1]","[0.13464441780087189,0.08769967744454142]","[1,1,1]","[-0.1377266493492124,-0.10403436840186712]","[-1,-1,-1]","[0.09252796905795596,0.1101874517185176]","[-1,-1,-1]","[0.11972438118717114,-0.040226214143262926]","[1,1,1]","[0.09336185506288162,0.03689989675940598]","[-1,-1,-1]","[-0.04510390182819714,-0.1624457149405776]","[1,1,1]","[0.19014554310905585,-0.022069034416978963]","[1,1,1]","[0.009801947470457158,0.08778504053162109]","[-1,-1,-1]","[0.1269317705726247,-0.14423781654901421]","[-1,-1,-1]","[-0.15319940141018742,-0.0024287174863720385]","[1,1,1]","[-0.07638700219097799,0.12895444047066204]","[1,1,1]","[-0.14612745564070295,-0.05963909964995831]","[-1,-1,-1]","[0.06794236915796724,-0.015954171829493775]","[1,1,1]","[0.1521437101224243,-0.06473555503053988]","[-1,-1,-1]","[0.0781550048374781,-0.08101967557858408]","[1,1,1]","[-0.041283975928089064,-0.049504301734967615]","[-1,-1,-1]","[-0.0313749621211806,-0.0977851285210118]","[-1,-1,-1]","[-0.032386791039210786,0.09975109179835576]","[-1,-1,-1]","[0.030356899912283058,0.017678307849222436]","[-1,-1,-1]","[-0.05845783436720335,0.18536942449768226]","[-1,-1,-1]","[0.13801103792977407,0.020860694878966454]","[-1,-1,-1]","[0.08154822980408463,0.1560954404155041]","[-1,-1,-1]","[-0.1959366166954211,-0.02849619413656706]","[1,1,1]","[-0.19286392353854814,0.01253572954950969]","[1,1,1]","[-0.09061319941447601,-0.12068932314603308]","[1,1,1]","[0.1652825351715321,-0.10373179331555915]","[-1,-1,-1]","[-0.07432153353865634,-0.022012337873496088]","[1,1,1]","[-0.007259591167392974,0.04139527475869362]","[-1,-1,-1]","[-0.09562558520049247,0.013161503901132191]","[1,1,1]","[-0.09117106058217816,0.061388548445543444]","[-1,-1,-1]","[0.0063337263765257685,0.14224243301776746]","[-1,-1,-1]","[0.02,0.02]",264.5715,0,12,12,77,1,,,,,,,
,,,,,,,67f8cb31eeea81a0e4c8a853,682f10192dfdaca3b062d32f,2025-05-22_13h56.19.362,cuing_paradigm_dot,2024.1.5,Win32,59.17159763,682d573fa47f1360d1451895,,,,,,,,,,,264.5731,265.0714,,,265.323,266.4214,left,,,,,,,,0.45,,,,,,265.0715,265.3229,1.0728,,266.4217,"[0.05160176158961739,0.14116993970069425]","[-1,-1,-1]","[-0.0409880625893844,0.12291304402079668]","[-1,-1,-1]","[0.11316042823352396,0.004286358955965251]","[-1,-1,-1]","[0.038206440269115065,-0.004302614294637999]","[1,1,1]","[0.07315103921492049,0.09479967570633285]","[1,1,1]","[0.04037948985968923,-0.11695502690304452]","[-1,-1,-1]","[0.1429681710106878,-0.1300791553184543]","[1,1,1]","[0.047924484922965346,0.05595960664188042]","[-1,-1,-1]","[-0.1712557227517075,0.02382590039043433]","[1,1,1]","[-0.013082881984535328,0.09216395490372672]","[-1,-1,-1]","[0.1468797219437926,-0.0791305414326958]","[-1,-1,-1]","[-0.034471394599952715,-0.1462637503392937]","[1,1,1]","[-0.11090528308952072,-0.1133228085167884]","[-1,-1,-1]","[-0.004876457052740022,-0.055783424145231394]","[-1,-1,-1]","[-0.11250952242393045,0.07253892548905784]","[-1,-1,-1]","[0.008764589161601855,-0.15754145566611438]","[-1,-1,-1]","[-0.05314571563613462,-0.03217178485874358]","[1,1,1]","[-0.026479166032013987,-0.19393013206073986]","[1,1,1]","[-0.08396443225123376,-0.15741428152997355]","[-1,-1,-1]","[-0.05993730507964187,0.021198911254960956]","[1,1,1]","[0.03164714365111959,0.18350173046737447]","[1,1,1]","[-0.012780121659445386,0.1976495314898206]","[1,1,1]","[-0.07059417815586379,0.1825367555474107]","[-1,-1,-1]","[0.10473077259705302,0.06526685605653279]","[-1,-1,-1]","[0.19383173812359322,0.04515690743865332]","[-1,-1,-1]","[0.08486494065695531,-0.13977204670219665]","[-1,-1,-1]","[-0.05524887402149997,-0.08262658790003037]","[-1,-1,-1]","[-0.16938593499509225,-0.0666399696690977]","[1,1,1]","[-0.13310525585203958,-0.044999576962370134]","[-1,-1,-1]","[-0.05878569361687587,0.07144549761253463]","[1,1,1]","[-0.14093486302376879,0.1081437489786038]","[1,1,1]","[0.0906852318747333,0.1709626060340706]","[1,1,1]","[0.02,0.02]",267.5218,0,13,13,85,1,,,,,,,
,,,,,,,67f8cb31eeea81a0e4c8a853,682f10192dfdaca3b062d32f,2025-05-22_13h56.19.362,cuing_paradigm_dot,2024.1.5,Win32,59.17159763,682d573fa47f1360d1451895,,,,,,,,,,,267.5231,268.0263,,,268.2773,269.4375,left,,,,,,,,0.45,,,,,,268.0264,268.2773,1.1491,,269.4379,"[-0.17484033925510134,-0.002054457878517114]","[-1,-1,-1]","[-0.10467203150302073,-0.026471436906771055]","[1,1,1]","[-0.13594224811378247,-0.0702718866336224]","[1,1,1]","[-0.022602331204674857,0.10492072415947896]","[1,1,1]","[-0.15145766760504004,0.06947682588215061]","[-1,-1,-1]","[0.03444476595930508,0.01118220522475281]","[-1,-1,-1]","[-0.013162793683265409,-0.04505335755391139]","[-1,-1,-1]","[0.1887318235784926,-0.04506291142630886]","[1,1,1]","[0.15664249735280422,-0.07965283850137958]","[-1,-1,-1]","[0.030434076180795674,-0.1084410400775144]","[1,1,1]","[0.02486955140309448,-0.06777794078299795]","[1,1,1]","[-0.06045047314879301,-0.07810259604866276]","[-1,-1,-1]","[-0.055573094931399454,-0.01118700498548219]","[-1,-1,-1]","[0.13136920201607521,0.0494321432360607]","[-1,-1,-1]","[-0.061190145850426175,0.12777875844413278]","[-1,-1,-1]","[0.060434076760735964,-0.027437824373728097]","[-1,-1,-1]","[0.07060496434610648,-0.1402727694965887]","[-1,-1,-1]","[-0.013202737354859741,-0.10761942998477168]","[-1,-1,-1]","[0.15620065120089474,-0.007801047579803626]","[1,1,1]","[0.08988379384449305,0.08318397918233496]","[-1,-1,-1]","[-0.09128953710080523,-0.13719307784515564]","[-1,-1,-1]","[0.06569643851679059,-0.07975274800262727]","[1,1,1]","[0.049293774376360094,0.0767727377815999]","[-1,-1,-1]","[-0.002461676098467743,0.19914168791867923]","[-1,-1,-1]","[-0.007588911485165094,0.04049593347528202]","[-1,-1,-1]","[-0.09005900338564557,0.0620004085790889]","[1,1,1]","[-0.12882371565059236,0.10742701700566765]","[1,1,1]","[0.1804217115193563,0.06711686581481054]","[1,1,1]","[0.11405928381477533,-0.0005522474088247775]","[1,1,1]","[-0.13358859365295006,0.0062512247138993195]","[1,1,1]","[-0.048927214011301116,-0.12858304735980422]","[-1,-1,-1]","[0.10900309501423569,-0.04809021437011556]","[1,1,1]","[0.02,0.02]",270.5378,0,14,14,68,1,,,,,,,
,,,,,,,67f8cb31eeea81a0e4c8a853,682f10192dfdaca3b062d32f,2025-05-22_13h56.19.362,cuing_paradigm_dot,2024.1.5,Win32,59.17159763,682d573fa47f1360d1451895,,,,,,,,,,,270.5391,271.0371,,,271.2888,271.9872,left,,,,,,,,0.9,,,,,,271.0372,271.2888,0.6742,,271.9872,"[-0.08361306064874702,-0.04912409633516726]","[1,1,1]","[0.11692891406765805,-0.03854495876227409]","[1,1,1]","[0.028457553564311396,-0.15395381450042742]","[1,1,1]","[-0.06846230832352539,-0.17329503981554004]","[1,1,1]","[-0.14005647371573574,-0.005562775012564891]","[1,1,1]","[-0.01071149548381815,-0.07643708650241272]","[1,1,1]","[0.053738740597598006,0.10847324385525457]","[-1,-1,-1]","[-0.0035660859414899434,-0.006049420875421803]","[1,1,1]","[0.08757014261135213,0.03655498638756739]","[1,1,1]","[0.1287552434899332,0.1468945361601187]","[1,1,1]","[0.016063779762939656,0.04083969264473532]","[1,1,1]","[-0.13956876914007704,-0.09862202116773357]","[-1,-1,-1]","[-0.12488195288669249,0.13560081309702654]","[1,1,1]","[-0.10519131685858005,0.06697857353331277]","[1,1,1]","[-0.019319401579526364,-0.12480290090202369]","[1,1,1]","[0.06547482238249201,0.16865133983166788]","[1,1,1]","[-0.07741304371998023,-0.1226659002847765]","[1,1,1]","[0.12859899713139913,0.08527035471886506]","[1,1,1]","[-0.022604866336137317,0.19497312326114144]","[1,1,1]","[0.05885638113002763,-0.09386170660276034]","[1,1,1]","[-0.05770648527389787,0.026251811863637956]","[1,1,1]","[0.058631388484570154,-0.02995554776286644]","[1,1,1]","[-0.07666289191337707,0.17996862710002295]","[1,1,1]","[-0.0621988836975241,0.12049232786648176]","[1,1,1]","[0.18811965136579786,-0.041634554482186635]","[1,1,1]","[0.060473204315473504,0.0673751159104925]","[1,1,1]","[-0.10030762851720361,0.011074541640273765]","[1,1,1]","[-0.17168769580530147,0.10053760677640133]","[1,1,1]","[-0.11077951098080102,-0.14855799026255645]","[1,1,1]","[0.1438754290459312,-0.12248147661937275]","[1,1,1]","[0.00010007614383969721,0.15215044062888383]","[1,1,1]","[-0.014974819209702592,0.06678583461871383]","[-1,-1,-1]","[0.02,0.02]",273.087,0,15,15,183,1,,,,,,,
,,,,,,,67f8cb31eeea81a0e4c8a853,682f10192dfdaca3b062d32f,2025-05-22_13h56.19.362,cuing_paradigm_dot,2024.1.5,Win32,59.17159763,682d573fa47f1360d1451895,,,,,,,,,,,273.0883,273.5868,,,273.8374,274.4872,right,,,,,,,,0.4,,,,,,273.5874,273.8374,0.6234,,274.4875,"[-0.008245952672300067,-0.12520406994629907]","[-1,-1,-1]","[-0.02218849512087664,-0.006014750754158969]","[1,1,1]","[0.05488899611672601,-0.00015826762137172775]","[-1,-1,-1]","[-0.09470782404595667,0.024399509414916414]","[1,1,1]","[0.0868469899047071,0.028143443471147736]","[1,1,1]","[0.06863193253799091,-0.04732519694592677]","[-1,-1,-1]","[-0.0059774116817417,-0.19501871385682698]","[-1,-1,-1]","[-0.05504121728341642,0.08187359249767769]","[1,1,1]","[0.02730055326826694,0.051975701774238346]","[-1,-1,-1]","[-0.12022806994255705,0.15000735487820097]","[-1,-1,-1]","[-0.1309146959539721,-0.11331405482912896]","[-1,-1,-1]","[-0.04151426106673084,0.1425784662630501]","[-1,-1,-1]","[-0.08271597089566503,-0.020797602354252986]","[-1,-1,-1]","[-0.05070779431594816,-0.1443653801750284]","[-1,-1,-1]","[0.0907939838102174,0.10183306033903372]","[1,1,1]","[-0.09710788887489367,0.09205562592449074]","[1,1,1]","[-0.15980698623160217,0.03831037071411824]","[1,1,1]","[-0.11761019749920573,-0.04600401540808971]","[-1,-1,-1]","[0.13628376315352952,0.08398393515008888]","[-1,-1,-1]","[0.09146963357491547,-0.12432377682641323]","[1,1,1]","[0.16989909500691586,0.052517411045512455]","[-1,-1,-1]","[0.14388896529766226,-0.06190531787386444]","[-1,-1,-1]","[0.039491737961616154,0.195772112522025]","[1,1,1]","[0.05720245050333224,-0.0911936152982748]","[1,1,1]","[0.031048271841904142,0.128786708300278]","[1,1,1]","[0.16223791096707862,0.004841516444727884]","[-1,-1,-1]","[-0.09070600200069501,-0.08388806729196588]","[-1,-1,-1]","[0.031430608425653005,-0.13541589571108034]","[1,1,1]","[-0.1528442136366111,0.12279514083156055]","[-1,-1,-1]","[-0.013358695695715555,-0.04822095855450421]","[-1,-1,-1]","[0.004556892474527392,0.16136804092689983]","[1,1,1]","[0.03985661557935182,-0.1786645303696304]","[-1,-1,-1]","[0.02,0.02]",275.587,0,16,16,32,1,,,,,,,
,,,,,,,67f8cb31eeea81a0e4c8a853,682f10192dfdaca3b062d32f,2025-05-22_13h56.19.362,cuing_paradigm_dot,2024.1.5,Win32,59.17159763,682d573fa47f1360d1451895,,,,,,,,,,,275.5887,276.0866,,,276.3423,277.436,right,,,,,,,,0.45,,,,,,276.0868,276.3422,1.0734,,277.4363,"[0.06897353783859052,-0.06359681585120137]","[-1,-1,-1]","[0.12636412743800815,0.09550071424306326]","[-1,-1,-1]","[-0.06751629338745796,-0.09236496950458727]","[-1,-1,-1]","[0.15724077719710622,-0.08902141780790163]","[1,1,1]","[-0.15015297716901504,-0.06271279211615202]","[-1,-1,-1]","[-0.07229293649373657,0.086193506113896]","[1,1,1]","[-0.05829358163098128,0.13619972536576086]","[-1,-1,-1]","[-0.009043455856513944,-0.18219090175410055]","[1,1,1]","[-0.00668510385205027,0.17432271645411346]","[1,1,1]","[0.10727435825639013,-0.02512687524878489]","[-1,-1,-1]","[0.0013426535730965163,0.011842340784672825]","[1,1,1]","[0.06924322006011374,0.06371378378347045]","[1,1,1]","[-0.0819705347477277,-0.1368469811728443]","[-1,-1,-1]","[-0.026884696892096435,-0.09793609531124715]","[-1,-1,-1]","[-0.06866873454109985,-0.1770526223303993]","[1,1,1]","[-0.17340009837865017,0.0246620564064408]","[-1,-1,-1]","[0.095804385444914,0.028108098419466012]","[-1,-1,-1]","[0.07891272524058232,-0.16999451026091802]","[-1,-1,-1]","[-0.11247960703398968,0.1338859304244252]","[-1,-1,-1]","[0.005919303882495832,0.09154472767166925]","[-1,-1,-1]","[0.17349628879149323,-0.037424229762114826]","[1,1,1]","[-0.11644961472782635,0.08090963516405712]","[1,1,1]","[0.10712906475686226,-0.0965991505564007]","[1,1,1]","[-0.13023924255763936,0.008697001939562523]","[1,1,1]","[0.08691166385101158,0.1443009158863712]","[1,1,1]","[-0.07312421831050368,-0.05066330000262642]","[-1,-1,-1]","[0.15933188434290585,0.011197405531337197]","[-1,-1,-1]","[0.03747138900167769,0.03766345724002021]","[1,1,1]","[-0.006739541389451117,-0.048559723087458304]","[-1,-1,-1]","[0.017285498684906586,-0.09736742172339413]","[-1,-1,-1]","[0.13553581296275494,0.05458952967662033]","[-1,-1,-1]","[0.0464443053119781,0.15776421794631726]","[1,1,1]","[0.02,0.02]",278.5356,0,17,17,80,1,,,,,,,
,,,,,,,67f8cb31eeea81a0e4c8a853,682f10192dfdaca3b062d32f,2025-05-22_13h56.19.362,cuing_paradigm_dot,2024.1.5,Win32,59.17159763,682d573fa47f1360d1451895,,,,,,,,,,,278.5373,279.0361,,,279.2877,280.3022,right,,,,,,,,0.45,,,,,,279.0361,279.2877,0.9939,,280.3024,"[-0.00721896292524729,-0.12414373284943213]","[-1,-1,-1]","[0.15140795792538145,0.07723200650100505]","[1,1,1]","[0.10755861740293725,-0.1681602535263343]","[-1,-1,-1]","[-0.13692421538591606,-0.0044281768113278745]","[1,1,1]","[-0.025608416119074395,0.12999985914577078]","[-1,-1,-1]","[0.031106155954200437,-0.10679204397213615]","[-1,-1,-1]","[-0.047640446300684716,0.06094207128305271]","[-1,-1,-1]","[0.06680435555115523,-0.0019357017359845458]","[-1,-1,-1]","[-0.14255170744797507,0.08411372574801658]","[1,1,1]","[-0.015498003704477618,0.026092558810463486]","[1,1,1]","[0.03145143915207617,0.15582408589878574]","[1,1,1]","[0.1035388745271385,-0.06642238325361598]","[1,1,1]","[-0.002154763764273035,0.09448599201498785]","[1,1,1]","[0.06685341357167808,-0.1285043481575841]","[1,1,1]","[-0.1912625870271231,0.05453180546821476]","[1,1,1]","[-0.044373839666627446,-0.1929075856311175]","[-1,-1,-1]","[-0.09877076679530655,-0.15580324742537577]","[-1,-1,-1]","[0.03900643868695216,-0.0529065802858116]","[-1,-1,-1]","[0.02181067636512596,-0.012761699901801538]","[-1,-1,-1]","[0.14433344390143354,0.018441313309254165]","[-1,-1,-1]","[-0.057723599022526426,0.18073134616253103]","[1,1,1]","[-0.12114609268862944,-0.11996856677574842]","[1,1,1]","[-0.06665719316070219,-0.10825477209714003]","[-1,-1,-1]","[-0.06062379918129883,-0.03495828274476008]","[-1,-1,-1]","[0.08641784377725631,0.1172571315290598]","[-1,-1,-1]","[-0.08515710422235302,0.09220416055225995]","[-1,-1,-1]","[-0.1222328288061819,0.03363536649816272]","[1,1,1]","[0.17282305774913784,-0.097085391159844]","[-1,-1,-1]","[-0.0010335554886793982,-0.04681484650457121]","[1,1,1]","[0.1906059924888463,-0.0466674752014215]","[1,1,1]","[-0.0007375974608334097,-0.18269130004574677]","[-1,-1,-1]","[-0.11688895824586314,0.13564798480262863]","[-1,-1,-1]","[0.02,0.02]",281.4068,0,18,18,82,1,,,,,,,
,,,,,,,67f8cb31eeea81a0e4c8a853,682f10192dfdaca3b062d32f,2025-05-22_13h56.19.362,cuing_paradigm_dot,2024.1.5,Win32,59.17159763,682d573fa47f1360d1451895,,,,,,,,,,,281.408,281.9018,,,282.155,282.9513,right,,,,,,,,0.4,,,,,,281.9025,282.1549,0.7761,,282.9516,"[0.03809066863279515,-0.041646667659193184]","[1,1,1]","[-0.03883326939806829,0.019904330951141594]","[-1,-1,-1]","[0.11637632436798108,-0.14105266745413655]","[-1,-1,-1]","[0.15696189860739346,0.030234518996662282]","[1,1,1]","[0.042785878473980306,-0.16286756814774228]","[1,1,1]","[0.0392065276567608,-0.11052308496988388]","[-1,-1,-1]","[0.1592663502708967,-0.08515111710426]","[-1,-1,-1]","[-0.11824705180678065,-0.042055380666983146]","[1,1,1]","[-0.11054032068701991,0.04913922370492142]","[1,1,1]","[0.007373155105640426,-0.07225695544376312]","[-1,-1,-1]","[-0.048092739460939206,-0.13052069084029466]","[1,1,1]","[-0.1362834247871289,0.10492506285779435]","[1,1,1]","[0.12454275550059124,-0.024596067831660885]","[-1,-1,-1]","[-0.0812617022001872,-0.175013994661252]","[-1,-1,-1]","[0.19368683523595515,-0.016789251513912133]","[1,1,1]","[0.011872699340457864,0.002490129381346461]","[1,1,1]","[-0.10839093862283133,-0.12221579382687178]","[-1,-1,-1]","[-0.07833984845340435,-0.018963462716516093]","[-1,-1,-1]","[0.10971903766186951,0.04375432432367824]","[1,1,1]","[-0.05577084365590853,0.1536704014045475]","[-1,-1,-1]","[0.012421728350912988,0.07502167356183463]","[-1,-1,-1]","[-0.09488894412673007,0.16362046467266]","[-1,-1,-1]","[0.1315480046862642,0.11182363530750343]","[1,1,1]","[0.00237414370503298,0.1510669609090035]","[-1,-1,-1]","[0.06849828033901154,0.11575806473066584]","[-1,-1,-1]","[0.09764213296466244,-0.10008043896320792]","[-1,-1,-1]","[-0.0641202306135408,0.0956895731496153]","[-1,-1,-1]","[-0.14410310213431626,-0.0075901465531372]","[-1,-1,-1]","[0.052220516507968724,0.060949536603919593]","[-1,-1,-1]","[-0.1761270045752235,-0.08281240184533953]","[1,1,1]","[-0.1733866982670428,0.028102371267654733]","[1,1,1]","[0.08181713135456335,-0.049643359912111794]","[-1,-1,-1]","[0.02,0.02]",284.0518,0,19,19,50,1,,,,,,,
,,,,,,,67f8cb31eeea81a0e4c8a853,682f10192dfdaca3b062d32f,2025-05-22_13h56.19.362,cuing_paradigm_dot,2024.1.5,Win32,59.17159763,682d573fa47f1360d1451895,,,,,,,,,,,284.0534,284.5513,,,284.8024,285.6852,right,,,,,,,,0.5,,,,,,284.5515,284.8022,0.869,,285.6854,"[0.16320368532963733,-0.020290938983859984]","[1,1,1]","[-0.03302037585750054,-0.1418960913070614]","[1,1,1]","[0.07910089440125115,0.015153132386077392]","[-1,-1,-1]","[-0.09051687530283233,-0.12994880586338295]","[-1,-1,-1]","[0.06606691144244019,-0.12117275242308106]","[-1,-1,-1]","[-0.15712150658575957,-0.10813073847112319]","[1,1,1]","[0.034525845495123914,-0.05857837042653024]","[-1,-1,-1]","[-0.09608494677117643,0.01610554830590156]","[1,1,1]","[-0.13346560085942397,0.03902835086525246]","[1,1,1]","[0.025162076165705673,-0.15154072077206754]","[-1,-1,-1]","[-0.11484912628164073,0.16090456420960114]","[-1,-1,-1]","[-0.005343950868004014,-0.18972634366462227]","[1,1,1]","[0.10537102011428001,-0.16686304119019532]","[1,1,1]","[-0.037236634320801335,0.0515343871775401]","[1,1,1]","[-0.00938938272524706,0.1306955274421042]","[1,1,1]","[-0.05553773216307969,0.1859923077657368]","[-1,-1,-1]","[-0.13104802434556595,0.08443466856774028]","[1,1,1]","[-0.013493380149761236,-0.0871035624937982]","[-1,-1,-1]","[0.18691330672242823,0.022570108489463347]","[1,1,1]","[0.05971699276227917,0.11457269861156356]","[-1,-1,-1]","[-0.008146946698905082,0.19184056801836]","[-1,-1,-1]","[-0.08735794594875258,-0.07923867825388976]","[1,1,1]","[0.10114658346482203,-0.08356044208533925]","[-1,-1,-1]","[-0.12841013973242718,-0.035877066126745724]","[-1,-1,-1]","[-0.0369512039902139,-0.004839346029456963]","[1,1,1]","[0.12062894229435071,0.1244180247265649]","[-1,-1,-1]","[0.14344972482639726,0.01876817556759387]","[-1,-1,-1]","[0.1737823355904426,-0.06250157837895133]","[1,1,1]","[-0.08173054179174445,0.10221135947524922]","[-1,-1,-1]","[-0.18875974632364242,-0.01272828086207186]","[1,1,1]","[0.07841398154616834,0.15268367477563394]","[1,1,1]","[-0.046704028650713075,-0.18674713232418402]","[-1,-1,-1]","[0.02,0.02]",286.7842,0,20,20,113,1,,,,,,,
,,,,,,,67f8cb31eeea81a0e4c8a853,682f10192dfdaca3b062d32f,2025-05-22_13h56.19.362,cuing_paradigm_dot,2024.1.5,Win32,59.17159763,682d573fa47f1360d1451895,,,,,,,,,,,286.7862,287.2843,,,287.5359,288.4013,left,,,,,,,,0.6,,,,,,287.2844,287.5358,0.8496,,288.4014,"[-0.1793098544937818,-0.05133650550590751]","[1,1,1]","[-0.1404540839425995,0.03182475677424162]","[-1,-1,-1]","[-0.10505558428077155,-0.1277907630451577]","[1,1,1]","[0.15439427221194377,-0.08787672266601196]","[1,1,1]","[-0.15651418993955638,-0.12390827789301213]","[1,1,1]","[0.1260049480607956,0.10538323827357231]","[1,1,1]","[0.0009645086103887552,-0.10565392801478916]","[-1,-1,-1]","[-0.022923791369145425,-0.0154462327647889]","[1,1,1]","[-0.08542522561275061,0.07713732906241733]","[1,1,1]","[-0.0642972607012774,-0.14436252213656928]","[1,1,1]","[-0.001220519481098782,0.07610356865623963]","[1,1,1]","[0.035728540464166,0.021675725968010488]","[-1,-1,-1]","[-0.031145520511334252,0.19460918340242955]","[1,1,1]","[-0.1657827995648037,0.10588279591831504]","[-1,-1,-1]","[0.09494925637215147,0.06964012119095529]","[1,1,1]","[0.10053494980402883,-0.14029129384287695]","[-1,-1,-1]","[-0.008058284235214154,-0.15093824533283462]","[1,1,1]","[0.016596372134960603,0.1860688596780943]","[-1,-1,-1]","[-0.07298066794101168,0.13504985521840204]","[1,1,1]","[-0.08611519803144906,0.010328515177303313]","[1,1,1]","[-0.014558682398320984,0.15084622127406003]","[-1,-1,-1]","[0.050202635770283846,-0.12647966972671926]","[-1,-1,-1]","[0.05539451305758483,0.1110959926704667]","[1,1,1]","[0.07954742138854519,0.025468458868288205]","[-1,-1,-1]","[0.16328909742379635,0.008097422745400588]","[1,1,1]","[-0.1817136068501505,0.0072099390237591095]","[-1,-1,-1]","[-0.07890914297055038,0.17769755834404435]","[-1,-1,-1]","[-0.09831101986959943,-0.054542349415924625]","[-1,-1,-1]","[0.0711279725610946,-0.033797704738208256]","[1,1,1]","[-0.045546228443886554,-0.09769370539508523]","[1,1,1]","[0.1303979763864725,-0.016152396213135647]","[-1,-1,-1]","[-0.04459734581036863,0.02072379919685326]","[1,1,1]","[0.02,0.02]",289.5004,0,21,21,168,1,,,,,,,
,,,,,,,67f8cb31eeea81a0e4c8a853,682f10192dfdaca3b062d32f,2025-05-22_13h56.19.362,cuing_paradigm_dot,2024.1.5,Win32,59.17159763,682d573fa47f1360d1451895,,,,,,,,,,,289.5023,290.001,,,290.2521,290.8836,right,,,,,,,,0.1,,,,,,290.001,290.252,0.6109,,290.8837,"[-0.03935183016543069,-0.1623698953080001]","[-1,-1,-1]","[0.06357862544709514,-0.1341023010924416]","[-1,-1,-1]","[-0.025533016778959267,-0.08461861278523343]","[-1,-1,-1]","[-0.13976087030698922,-0.04619150455734384]","[-1,-1,-1]","[-0.06398827338684006,0.1847150898308887]","[-1,-1,-1]","[-0.08155895812863563,0.13249486066879454]","[-1,-1,-1]","[0.17421176994380871,-0.04766101008103051]","[-1,-1,-1]","[0.12374791738755532,-0.06465514047742237]","[-1,-1,-1]","[0.11321888551925245,-0.10707350719817547]","[-1,-1,-1]","[0.16775910302006408,0.07370751720083654]","[-1,-1,-1]","[0.1672428880658659,-0.006558549451073606]","[-1,-1,-1]","[0.03744166519295603,0.1127324120630374]","[-1,-1,-1]","[-0.07847814902157714,-0.005394756104325068]","[-1,-1,-1]","[0.07789338907016367,-0.0377056557336432]","[-1,-1,-1]","[-0.01847385317801076,0.08719253073061087]","[-1,-1,-1]","[-0.11158265259980454,-0.1378377201170882]","[-1,-1,-1]","[-0.008622769782059801,0.19448066905871278]","[-1,-1,-1]","[0.08684946150510664,0.08196568429248452]","[-1,-1,-1]","[-0.036300597244093444,-0.007944318406435598]","[-1,-1,-1]","[-0.18894149726616247,-0.009765178143079239]","[-1,-1,-1]","[-0.05802609395059708,-0.05007201720593312]","[-1,-1,-1]","[-0.06787895925249969,0.06633198854641341]","[-1,-1,-1]","[-0.12784454974690818,0.10932872757458989]","[-1,-1,-1]","[0.04654070537423344,0.18271846176367515]","[-1,-1,-1]","[0.07082133158956196,0.03546577396658445]","[-1,-1,-1]","[0.03746894911817861,0.0023596180998924064]","[-1,-1,-1]","[0.09629117366607272,-0.17492713354012315]","[-1,-1,-1]","[-0.1502870178261314,-0.10203655455378846]","[1,1,1]","[-0.0022897096896267923,-0.14430818275758192]","[1,1,1]","[0.03128145626906729,-0.04082081809438371]","[-1,-1,-1]","[0.11712441974069217,0.15618355856174126]","[1,1,1]","[0.12115022290710142,-0.018291746704257476]","[-1,-1,-1]","[0.02,0.02]",291.9833,0,22,22,19,1,,,,,,,
,,,,,,,67f8cb31eeea81a0e4c8a853,682f10192dfdaca3b062d32f,2025-05-22_13h56.19.362,cuing_paradigm_dot,2024.1.5,Win32,59.17159763,682d573fa47f1360d1451895,,,,,,,,,,,291.9851,292.4834,,,292.7242,293.5227,left,,,,,,,,0.6,,,,,,292.4836,292.7241,0.7841,,293.5227,"[0.020934934604953263,0.1670816153015642]","[-1,-1,-1]","[-0.01701498875658393,-0.040659722445321546]","[-1,-1,-1]","[-0.1302741338628476,-0.11399226832769285]","[-1,-1,-1]","[0.13385605182452065,0.12319586330395692]","[-1,-1,-1]","[-0.12656074235779446,0.12534023383144385]","[-1,-1,-1]","[0.05553405516808248,0.03927702785784294]","[-1,-1,-1]","[-0.16427215389371685,0.01593372071329488]","[1,1,1]","[-0.07836881608327602,0.050771446111667604]","[1,1,1]","[0.16182507370473895,-0.11238167950976756]","[1,1,1]","[-0.07732053991140024,-0.05216708705774906]","[1,1,1]","[0.013298346672412467,0.013869660628345009]","[1,1,1]","[-0.11895380568533367,-0.07350528260441012]","[1,1,1]","[-0.13607628941489078,0.0722546376790608]","[1,1,1]","[0.07023882305708155,-0.14337010198631184]","[-1,-1,-1]","[-0.1713202604412564,-0.05617604095795362]","[1,1,1]","[0.1839016159735999,-0.0216927148474733]","[1,1,1]","[0.025074933918980927,-0.12969015455158212]","[-1,-1,-1]","[-0.015213614771003185,-0.08356237338281344]","[1,1,1]","[0.16607000581991446,0.08460653169013244]","[-1,-1,-1]","[0.1058248455186356,-0.018941335236123735]","[-1,-1,-1]","[0.13052481915955863,0.06285977918197043]","[-1,-1,-1]","[-0.04143007561752553,0.02576347925413877]","[1,1,1]","[0.004389004261481402,0.07487467832433319]","[1,1,1]","[-0.047376256319091946,-0.1577879599922523]","[1,1,1]","[0.06069253253320115,-0.10029519985621567]","[-1,-1,-1]","[0.03555826574204127,-0.0584888862773886]","[-1,-1,-1]","[0.11106090930544579,-0.08593866754575614]","[1,1,1]","[-0.11058237422168446,-0.011586311312622175]","[1,1,1]","[0.06126893826972605,0.12126334983629587]","[1,1,1]","[0.09587058413210717,0.08699773527226887]","[1,1,1]","[-0.05082337294764622,0.15255293949266777]","[1,1,1]","[0.15236345039397492,0.008141791416105349]","[1,1,1]","[0.02,0.02]",294.6216,0,23,23,171,1,,,,,,,
,,,,,,,67f8cb31eeea81a0e4c8a853,682f10192dfdaca3b062d32f,2025-05-22_13h56.19.362,cuing_paradigm_dot,2024.1.5,Win32,59.17159763,682d573fa47f1360d1451895,,,,,,,,,,,294.6229,295.121,,,295.3699,296.1993,left,,,,,,,,0.9,,,,,,295.1211,295.3699,0.8049,,296.1997,"[-0.025104604534479408,-0.025141757102149633]","[1,1,1]","[-0.11441347650723757,-0.07768073827897162]","[1,1,1]","[0.03813137837324119,-0.19095875948944746]","[1,1,1]","[0.13980274162838924,-0.1316533352822675]","[1,1,1]","[0.18499857852837978,0.05329846295222806]","[1,1,1]","[0.10728843794553582,0.1225294240689306]","[1,1,1]","[0.07498198099434378,0.0787171017788114]","[1,1,1]","[0.15693405409999456,0.08691868046011036]","[1,1,1]","[0.10943398025884994,-0.07763664607852866]","[1,1,1]","[-0.15683413736387905,0.06814181996093388]","[1,1,1]","[0.00673421492298927,0.009665827775143758]","[1,1,1]","[-0.08113155102966131,-0.16988840684763595]","[1,1,1]","[0.15461229915008268,-0.05514279217115672]","[1,1,1]","[-0.08253284982295495,0.08009670234737348]","[1,1,1]","[-0.029191348387445963,-0.14898425261917853]","[-1,-1,-1]","[0.01436709565375694,0.1616622527802393]","[1,1,1]","[-0.1851935824342311,-0.00518718209330558]","[1,1,1]","[-0.07945901623202722,-0.03919874652642578]","[-1,-1,-1]","[0.09241292416917932,0.041406411226910286]","[1,1,1]","[0.15291760934233167,0.024259028422016736]","[1,1,1]","[0.07426756066190614,0.16907063814954937]","[1,1,1]","[-0.018047427432640508,-0.07146851682544805]","[1,1,1]","[0.07034297043470425,-0.03663605620402535]","[1,1,1]","[0.03621465539731353,0.05096575298577263]","[1,1,1]","[-0.05453117315658715,0.12744480935214728]","[-1,-1,-1]","[-0.17801774124836878,-0.06638991444069514]","[1,1,1]","[-0.08297914549517203,0.16290658753198325]","[1,1,1]","[-0.14662401224670435,-0.10433055236415052]","[1,1,1]","[-0.0424637968630816,0.06070439491884363]","[1,1,1]","[0.02689845833325107,-0.04648225483287056]","[1,1,1]","[-0.002845750443729167,-0.18447881827804408]","[1,1,1]","[-0.08853392470342589,0.03280486867254701]","[1,1,1]","[0.02,0.02]",297.3003,0,24,24,182,1,,,,,,,
,,,,,,,67f8cb31eeea81a0e4c8a853,682f10192dfdaca3b062d32f,2025-05-22_13h56.19.362,cuing_paradigm_dot,2024.1.5,Win32,59.17159763,682d573fa47f1360d1451895,,,,,,,,,,,297.303,297.799,,,298.0396,298.7494,right,,,,,,,,0.45,,,,,,297.7996,298.0395,0.6881,,298.7498,"[0.007367644531341765,-0.17366790175415178]","[-1,-1,-1]","[0.010713104741432855,0.037368537257782296]","[-1,-1,-1]","[-0.012042332489681304,0.17860649359813674]","[-1,-1,-1]","[-0.08668151017686362,0.0885529256303177]","[-1,-1,-1]","[-0.14161842803555375,0.10215255135834031]","[-1,-1,-1]","[-0.05607660284499564,0.16263407155377704]","[1,1,1]","[-0.07840584928599294,0.03890675411825072]","[1,1,1]","[0.11422556575082522,0.15122662208099116]","[1,1,1]","[0.1372795338415413,0.11252187937894419]","[-1,-1,-1]","[-0.08517486550047519,-0.15935538744569913]","[1,1,1]","[0.10592861832338894,-0.1430464779606748]","[1,1,1]","[0.10395833316876166,0.04857812404055838]","[1,1,1]","[-0.12454729353754797,0.1472122627517113]","[-1,-1,-1]","[-0.11476100114872231,-0.09272620913073497]","[-1,-1,-1]","[0.12472779275841887,-0.031208730771865225]","[-1,-1,-1]","[0.001925871615579235,-0.10344703623119444]","[1,1,1]","[-0.16614082029818578,0.032885248568277445]","[-1,-1,-1]","[0.10135060099125648,-0.06888659135126945]","[-1,-1,-1]","[-0.02552396268057778,-0.14196364483781063]","[1,1,1]","[0.17177062464110254,0.009467267359644801]","[1,1,1]","[0.04173567172096971,0.142303877995096]","[-1,-1,-1]","[-0.01485480581010318,0.12743491366467993]","[1,1,1]","[-0.14511836346850016,-0.12096608398095009]","[-1,-1,-1]","[0.18768433772030732,-0.06512650135626034]","[-1,-1,-1]","[0.05387233793212216,-0.0999380080650182]","[-1,-1,-1]","[0.053803739868637235,0.09953733927169686]","[1,1,1]","[-0.04175444933391186,-0.04048953115067027]","[-1,-1,-1]","[0.17251560988278913,0.09110229297690703]","[1,1,1]","[0.1481039825737251,0.043854559736297115]","[-1,-1,-1]","[-0.06775237297628933,-0.08034031151238649]","[1,1,1]","[-0.08297973329447784,-0.013531060498730312]","[-1,-1,-1]","[0.025464329101302644,-0.015628446559607965]","[1,1,1]","[0.02,0.02]",299.8485,0,25,25,75,1,,,,,,,
,,,,,,,67f8cb31eeea81a0e4c8a853,682f10192dfdaca3b062d32f,2025-05-22_13h56.19.362,cuing_paradigm_dot,2024.1.5,Win32,59.17159763,682d573fa47f1360d1451895,,,,,,,,,,,299.8499,300.3489,,,300.599,301.5667,left,,,,,,,,0.5,,,,,,300.3491,300.599,0.9583,,301.5669,"[-0.08622337037185948,0.0024878388453655064]","[1,1,1]","[-0.011965691035591473,0.12046525835751681]","[1,1,1]","[-0.07485831832155466,0.05211001399822544]","[1,1,1]","[-0.04687574050030114,0.17577710872906313]","[-1,-1,-1]","[0.12127305790877761,-0.028427457102196824]","[-1,-1,-1]","[-0.05838832932128854,-0.18036574057501073]","[1,1,1]","[-0.16971106931918684,0.09665676306293076]","[1,1,1]","[0.128387630248709,0.053414389397511995]","[1,1,1]","[-0.07794849216338219,0.14100441639618289]","[1,1,1]","[0.08007916457791933,0.1470493068092373]","[-1,-1,-1]","[-0.012802661501156281,0.008278512135404247]","[-1,-1,-1]","[-0.11814866883717108,-0.05077131284729769]","[1,1,1]","[0.15218586826919003,0.10168790195817348]","[1,1,1]","[-0.02352508516447701,-0.1071389762429439]","[1,1,1]","[0.11722510607539102,-0.0964954867764812]","[-1,-1,-1]","[0.1805942191034373,0.024334545773976646]","[1,1,1]","[0.045420665789918775,0.16948755402986962]","[1,1,1]","[-0.09212794237128276,0.09168708296301296]","[-1,-1,-1]","[0.17043938755626598,-0.09652579176526789]","[1,1,1]","[0.06259488451405829,0.041002660883174315]","[1,1,1]","[-0.1737570951989092,0.04121392319244029]","[-1,-1,-1]","[0.03508370404830648,-0.12527398540493667]","[1,1,1]","[0.05282397039319676,0.08113016597315503]","[-1,-1,-1]","[-0.1893589425069392,-0.037745850297072975]","[-1,-1,-1]","[0.035478659782343394,0.006942765958014199]","[-1,-1,-1]","[-0.0009724955706648692,-0.041596263936915005]","[1,1,1]","[-0.0778988011462901,-0.12564406602123945]","[-1,-1,-1]","[0.07095515501117731,-0.041962920448731726]","[-1,-1,-1]","[0.005517767795619944,0.19843144340498614]","[-1,-1,-1]","[-0.06556799149002365,-0.05893650401759127]","[-1,-1,-1]","[-0.12192017161372493,0.036021213507714235]","[-1,-1,-1]","[-0.1270788786419039,-0.1307283055308546]","[-1,-1,-1]","[0.02,0.02]",302.6639,0,26,26,112,1,,,,,,,
,,,,,,,67f8cb31eeea81a0e4c8a853,682f10192dfdaca3b062d32f,2025-05-22_13h56.19.362,cuing_paradigm_dot,2024.1.5,Win32,59.17159763,682d573fa47f1360d1451895,,,,,,,,,,,302.6655,303.1639,,,303.4162,304.0807,left,,,,,,,,0.9,,,,,,303.1639,303.4158,0.6487,,304.0808,"[-0.1584274284228647,0.07806190781944308]","[1,1,1]","[-0.07719072689879057,0.1841844581830964]","[1,1,1]","[-0.1529570881272434,0.004315425134944308]","[-1,-1,-1]","[0.03691132649660162,-0.14546651212557865]","[1,1,1]","[0.013677117050568535,0.1990758157638773]","[-1,-1,-1]","[0.09969955737121064,0.01250344434000644]","[1,1,1]","[0.07790387227431014,0.05631376058783638]","[1,1,1]","[0.1565546186079216,0.08131980689616981]","[1,1,1]","[-0.1316607942306422,-0.12374509909969172]","[1,1,1]","[0.05916241143471996,0.18314056170851722]","[1,1,1]","[0.094094846205279,-0.16048572678814718]","[1,1,1]","[0.1415222463751734,-0.08854046583700366]","[1,1,1]","[-0.00832742851966691,-0.044731896077488724]","[1,1,1]","[0.06831138170585313,-0.04886132547001316]","[-1,-1,-1]","[-0.04300075167519968,-0.09493981098137703]","[1,1,1]","[-0.0727380594397114,0.026106140205621985]","[1,1,1]","[0.18373878840390515,0.047649827258702884]","[1,1,1]","[0.10749155868516871,0.1282859987178213]","[1,1,1]","[0.1594312597351189,-0.0329054937106474]","[1,1,1]","[-0.09395841044957928,-0.09369642737032231]","[1,1,1]","[-0.15619256458497296,-0.07701539199113296]","[1,1,1]","[-0.09709573134752301,-0.16683280403081446]","[1,1,1]","[0.022343918593954702,0.14315534079027237]","[1,1,1]","[0.011443324047153767,-0.1764948478095473]","[1,1,1]","[-0.09061624341701525,-0.04036152463826375]","[1,1,1]","[-0.002853746742134111,-0.12534621167381907]","[1,1,1]","[-0.1919840174826518,-0.03414949208609157]","[1,1,1]","[0.008870791290989919,0.039310279119297124]","[1,1,1]","[-0.10028996226630615,0.12534667701058866]","[1,1,1]","[-0.02764055230878247,-0.004043489678037516]","[1,1,1]","[0.060695408920183776,-0.10970464963883665]","[1,1,1]","[0.13372232764381625,-0.1451007805587374]","[1,1,1]","[0.02,0.02]",305.1804,0,27,27,198,1,,,,,,,
,,,,,,,67f8cb31eeea81a0e4c8a853,682f10192dfdaca3b062d32f,2025-05-22_13h56.19.362,cuing_paradigm_dot,2024.1.5,Win32,59.17159763,682d573fa47f1360d1451895,,,,,,,,,,,305.1824,305.6801,,,305.9323,306.6307,right,,,,,,,,0.45,,,,,,305.6804,305.9321,0.6711,,306.6308,"[0.10404893710115061,-0.10479435975059538]","[-1,-1,-1]","[0.07965448066649745,-0.007202396917280671]","[1,1,1]","[-0.037159518834906737,0.0824016201923552]","[-1,-1,-1]","[0.09206034349319597,0.17008951710779713]","[-1,-1,-1]","[-0.007754519293219817,-0.06385379033867138]","[-1,-1,-1]","[-0.10645378950341519,0.08241647537690781]","[1,1,1]","[0.14325392920639776,0.03300157545881393]","[-1,-1,-1]","[-0.04707140831367221,-0.13976201739260913]","[-1,-1,-1]","[0.16253678203404331,0.07006560068771926]","[-1,-1,-1]","[0.06641671277273262,0.08717985546133401]","[1,1,1]","[-0.09548665862476392,-0.14357351638882943]","[1,1,1]","[-0.10013939423444308,0.025175492323548907]","[-1,-1,-1]","[0.13933805805808397,-0.1401836230926083]","[1,1,1]","[0.1517680767475831,-0.06509662228034142]","[-1,-1,-1]","[0.19613348167424055,-0.0011973087658532866]","[-1,-1,-1]","[-0.11536662039578972,-0.023182258478761982]","[1,1,1]","[-0.17460951963397392,-0.038839910918785046]","[1,1,1]","[-0.1248553635731506,-0.09775562865016395]","[-1,-1,-1]","[-0.018079216738559924,0.005914622541349654]","[1,1,1]","[0.036174347196637445,-0.12245307719577861]","[-1,-1,-1]","[-0.1790273298902199,0.0748951592168987]","[-1,-1,-1]","[0.08708977138005461,-0.04931841871226167]","[-1,-1,-1]","[0.029018766064398755,-0.009882168518458197]","[1,1,1]","[-0.11826017269781107,0.14893271149694493]","[-1,-1,-1]","[0.02134611134991651,0.0920517178989194]","[-1,-1,-1]","[0.02475887183556202,0.1532877932774547]","[1,1,1]","[-0.17857242464645925,0.032129863517234965]","[1,1,1]","[-0.04053603864468995,-0.1893490582212658]","[1,1,1]","[0.11457888744760493,0.08462982724485063]","[-1,-1,-1]","[0.06258235120446407,0.12791589760354338]","[1,1,1]","[0.05374808762346747,-0.1657205973975545]","[-1,-1,-1]","[0.15376832800023807,0.12593232990264017]","[1,1,1]","[0.02,0.02]",307.73,0,28,28,72,1,,,,,,,
,,,,,,,67f8cb31eeea81a0e4c8a853,682f10192dfdaca3b062d32f,2025-05-22_13h56.19.362,cuing_paradigm_dot,2024.1.5,Win32,59.17159763,682d573fa47f1360d1451895,,,,,,,,,,,307.7317,308.2301,,,308.4816,309.299,left,,,,,,,,0.55,,,,,,308.2303,308.4815,0.7879,,309.2992,"[-0.12272703053760109,0.07462819693221845]","[1,1,1]","[0.028304567734668537,-0.046656389527909015]","[-1,-1,-1]","[0.07758799746263034,0.05558991519924091]","[1,1,1]","[0.020596139874988425,0.1865452090577548]","[-1,-1,-1]","[-0.015363285458451958,0.0532791412156223]","[1,1,1]","[0.08692493496891131,-0.03719136382663683]","[-1,-1,-1]","[-0.1422483050507433,-0.020415326968068914]","[-1,-1,-1]","[-0.11046527060175881,-0.12541793028187057]","[-1,-1,-1]","[-0.07504836189940019,-0.037043360542260415]","[1,1,1]","[-0.1392314779314323,-0.06229187437779358]","[1,1,1]","[-0.028521043563622037,-0.0662847501222886]","[1,1,1]","[-0.012742042315459374,0.1352080261995685]","[1,1,1]","[-0.05765979127896622,0.16367513791547694]","[1,1,1]","[0.14913609126661037,0.10636485629500189]","[-1,-1,-1]","[-0.17768834098187164,0.04788500075367044]","[-1,-1,-1]","[-0.04249251414354907,-0.10829281092763729]","[-1,-1,-1]","[-0.037979997455368654,-0.18446532795568982]","[-1,-1,-1]","[0.025575747899914722,0.09228675710506626]","[1,1,1]","[-0.06755371019696488,0.05995683168857022]","[1,1,1]","[0.099359723267807,-0.11253333895515129]","[1,1,1]","[0.025443143709436965,-0.1532289573887494]","[-1,-1,-1]","[-0.09668893963426507,0.028459998270758128]","[1,1,1]","[0.05475540097340761,-0.10492278194683147]","[1,1,1]","[-0.0188859641293193,0.0032190768736491183]","[-1,-1,-1]","[0.19230355940465532,0.04551397090929696]","[-1,-1,-1]","[0.06094045757818128,0.11868620173406112]","[1,1,1]","[0.030670001156231065,-0.19290991528737894]","[1,1,1]","[0.10329941072374949,-0.15749149836019807]","[-1,-1,-1]","[-0.10794075051702973,0.13714282713099266]","[-1,-1,-1]","[-0.05538081812694529,0.10042570527210354]","[1,1,1]","[0.0752451417264905,0.16536997804463271]","[1,1,1]","[0.13977230625603104,-0.0262663480940414]","[1,1,1]","[0.02,0.02]",310.3974,0,29,29,148,1,,,,,,,
,,,,,,,67f8cb31eeea81a0e4c8a853,682f10192dfdaca3b062d32f,2025-05-22_13h56.19.362,cuing_paradigm_dot,2024.1.5,Win32,59.17159763,682d573fa47f1360d1451895,,,,,,,,,,,310.3988,310.8971,,,311.1505,311.9298,left,,,,,,,,0.55,,,,,,310.8971,311.1504,0.7553,,311.9301,"[0.05504599141107537,-0.04189585278773695]","[-1,-1,-1]","[-0.01263451655788528,0.16227793959712797]","[-1,-1,-1]","[-0.06007785327755163,-0.16837824975195217]","[1,1,1]","[-0.15339021486748952,0.1278132619370783]","[1,1,1]","[-0.09177272313461797,-0.07448773457837526]","[1,1,1]","[-0.002503930458585705,-0.17550776501849338]","[1,1,1]","[-0.00933813234499972,-0.04650489357331851]","[1,1,1]","[0.11120646148027342,-0.0893279322267813]","[1,1,1]","[-0.07888342824162875,0.13359923516162855]","[-1,-1,-1]","[0.04363691460174069,0.047770842221541106]","[1,1,1]","[0.11318765980805477,0.026702100959154748]","[-1,-1,-1]","[-0.04982687653511926,-0.12128148588163971]","[1,1,1]","[0.04698307757501313,0.08992480956200603]","[-1,-1,-1]","[-0.17089606548754493,-0.07648470965421167]","[-1,-1,-1]","[0.06141011642341568,0.001324576917691324]","[1,1,1]","[-0.04725338608345485,-0.018180152173130064]","[1,1,1]","[0.14313790236484916,0.11045552781080947]","[1,1,1]","[-0.0237327368562811,0.10393037750137181]","[-1,-1,-1]","[0.00009442368880773352,0.004249526130880778]","[1,1,1]","[0.07899885938709185,-0.12824698790663633]","[-1,-1,-1]","[0.17911030233563296,0.0077975274267427655]","[1,1,1]","[0.15530814079855537,-0.11646675160790164]","[-1,-1,-1]","[-0.07350116396716615,0.18388804262364647]","[1,1,1]","[0.09130649952353621,0.10826192740450281]","[-1,-1,-1]","[-0.033442545151196705,0.036126919791837936]","[1,1,1]","[-0.1781687969118424,0.09054887758334762]","[1,1,1]","[0.1589919415715918,0.06811793834441544]","[1,1,1]","[-0.1215519010286281,0.08062546995067595]","[-1,-1,-1]","[-0.1954900149617549,-0.01237240524688131]","[1,1,1]","[0.0329375410221155,0.1726090594756944]","[-1,-1,-1]","[0.1099538128411654,-0.15509191017603502]","[-1,-1,-1]","[-0.07431061442822796,0.02807312428471955]","[-1,-1,-1]","[0.02,0.02]",313.0297,0,30,30,142,1,,,,,,,
,,,,,,,67f8cb31eeea81a0e4c8a853,682f10192dfdaca3b062d32f,2025-05-22_13h56.19.362,cuing_paradigm_dot,2024.1.5,Win32,59.17159763,682d573fa47f1360d1451895,,,,,,,,,,,313.0314,313.5294,,,313.7706,314.5186,right,,,,,,,,0.4,,,,,,313.5296,313.7706,0.7353,,314.5187,"[0.09352247109214526,-0.027771284822781076]","[-1,-1,-1]","[0.17779508822129822,0.025237221813839104]","[-1,-1,-1]","[0.04303967548105026,0.008287120334512406]","[-1,-1,-1]","[-0.10354759916650974,0.10564797492194031]","[-1,-1,-1]","[0.15506285693065733,-0.021119771535352497]","[1,1,1]","[0.08758517360552921,-0.11849946177975512]","[-1,-1,-1]","[-0.02496964107971632,0.1572617252188649]","[-1,-1,-1]","[-0.03990416474948853,-0.1104939221672069]","[-1,-1,-1]","[0.021199816641517374,-0.15720706817887606]","[-1,-1,-1]","[0.1221862436927812,0.03599030429574546]","[-1,-1,-1]","[0.10075763680226266,0.08518427234143404]","[-1,-1,-1]","[0.0261278644969586,-0.09044078845703572]","[1,1,1]","[0.14259315804442635,-0.09068570508099479]","[-1,-1,-1]","[0.09239533582963137,-0.06993184238582388]","[-1,-1,-1]","[-0.15363470910166427,0.08270603948733542]","[-1,-1,-1]","[0.14601068279794374,0.10093846959682222]","[1,1,1]","[-0.12056434204260162,0.15473618004574394]","[1,1,1]","[-0.13933585859499584,-0.1260686291727224]","[1,1,1]","[-0.17116376692467217,-0.04096071342200148]","[1,1,1]","[-0.016047014717685593,0.05223862282675678]","[-1,-1,-1]","[0.08947234417247865,0.1289935185824114]","[1,1,1]","[-0.06134271873347998,-0.16167188499382235]","[1,1,1]","[-0.05843970433351045,0.0407147313464737]","[-1,-1,-1]","[-0.05070956113725443,-0.009924096875307101]","[-1,-1,-1]","[0.03501407392928583,0.07385233598817642]","[1,1,1]","[-0.16927035153840753,-0.09135631896974176]","[-1,-1,-1]","[-0.1013045560786021,0.033248277041320475]","[-1,-1,-1]","[-0.14628379351908147,0.00859201972172185]","[-1,-1,-1]","[0.003438060789566386,-0.011383149079824764]","[1,1,1]","[0.014895104799840918,0.1539298572761031]","[1,1,1]","[-0.09636393867147776,-0.09894738708054529]","[1,1,1]","[-0.04989966505324274,0.12412226498693747]","[1,1,1]","[0.02,0.02]",315.6169,0,31,31,54,1,,,,,,,
,,,,,,,67f8cb31eeea81a0e4c8a853,682f10192dfdaca3b062d32f,2025-05-22_13h56.19.362,cuing_paradigm_dot,2024.1.5,Win32,59.17159763,682d573fa47f1360d1451895,,,,,,,,,,,315.6182,316.1176,,,316.3657,317.1023,left,,,,,,,,0.55,,,,,,316.1177,316.3657,0.7197,,317.1024,"[0.14030956111473436,0.04667508599257246]","[1,1,1]","[-0.12260589357091721,0.1419872256616353]","[1,1,1]","[0.10539125648307257,0.14878567012980087]","[1,1,1]","[-0.06422122782390456,-0.08661871169939256]","[1,1,1]","[-0.17715821655625014,0.02467154357431546]","[-1,-1,-1]","[0.06477694408473496,-0.14128833192960777]","[1,1,1]","[-0.11734830138141261,-0.08508943985814177]","[1,1,1]","[0.03590320084238651,0.10322598409300114]","[1,1,1]","[-0.19094584302834497,-0.044332117365439065]","[-1,-1,-1]","[-0.055092170663505066,-0.03525809148791283]","[1,1,1]","[-0.11939612064862014,-0.01498940493728634]","[-1,-1,-1]","[0.013975306077379674,-0.008747062225520708]","[-1,-1,-1]","[0.030946534210001573,-0.18602743223684193]","[-1,-1,-1]","[0.007825186348228765,-0.13511173824412165]","[-1,-1,-1]","[0.11906897504642391,-0.0999982603292567]","[-1,-1,-1]","[0.1180290748403181,-0.010293780763309746]","[1,1,1]","[0.09396227063805078,0.09949493539992754]","[1,1,1]","[0.1728948971981172,0.09935527710427054]","[1,1,1]","[0.07631769308928098,0.01703417624908711]","[-1,-1,-1]","[-0.01470598068493384,0.12449885147774589]","[1,1,1]","[-0.05456045752575303,-0.14096995724760472]","[-1,-1,-1]","[-0.07283975885868985,0.17153565477164023]","[-1,-1,-1]","[0.0768111191914353,0.18092396720490841]","[1,1,1]","[0.15701951055751306,-0.0672503962188732]","[-1,-1,-1]","[-0.050117582527104985,0.0845930340163123]","[1,1,1]","[0.18362236411196003,-0.0036012799363245606]","[1,1,1]","[-0.010028480086437303,0.1916953187069873]","[-1,-1,-1]","[0.04579526646476057,-0.057731095927979044]","[1,1,1]","[-0.08740043272817899,-0.16506853309552774]","[1,1,1]","[-0.1822136183440325,0.08067833464378402]","[1,1,1]","[-0.0010610423725151833,0.0574329357006548]","[-1,-1,-1]","[0.03498996526633544,-0.10125492383939272]","[-1,-1,-1]","[0.02,0.02]",318.199,0,32,32,132,1,,,,,,,
,,,,,,,67f8cb31eeea81a0e4c8a853,682f10192dfdaca3b062d32f,2025-05-22_13h56.19.362,cuing_paradigm_dot,2024.1.5,Win32,59.17159763,682d573fa47f1360d1451895,,,,,,,,,,,318.2002,318.7002,,,318.9481,319.8344,right,,,,,,,,0.4,,,,,,318.7004,318.9479,0.8677,,319.8346,"[0.06702781551808958,0.006152350188945638]","[1,1,1]","[-0.07381082678013434,-0.03614533374364217]","[1,1,1]","[-0.16298919366933123,-0.11440008442448925]","[-1,-1,-1]","[0.11044562639382205,0.019400763358823514]","[1,1,1]","[0.14105503248408818,0.13753088783787415]","[-1,-1,-1]","[-0.17612988985401712,-0.07168051876370012]","[-1,-1,-1]","[0.17419132729960615,-0.037493917073448506]","[-1,-1,-1]","[-0.09484077999756702,0.13090250922841656]","[1,1,1]","[-0.08030325295136423,-0.1738725314347037]","[-1,-1,-1]","[0.12422397299281222,-0.022681492448138278]","[1,1,1]","[-0.04072254198732417,-0.1807004485699214]","[1,1,1]","[-0.12051438111148628,-0.07246567737445496]","[1,1,1]","[-0.049217742445977805,0.14267959576473074]","[-1,-1,-1]","[0.08232297450652712,0.054950315792030434]","[-1,-1,-1]","[0.05936956445282827,0.1059458280999378]","[-1,-1,-1]","[0.17387025734140235,0.08348434035635546]","[1,1,1]","[0.013214659030533598,-0.09610009569261282]","[-1,-1,-1]","[0.11448468442170734,-0.08752936883423272]","[1,1,1]","[-0.061984589478331284,0.029563899768419017]","[-1,-1,-1]","[0.05442694243526795,-0.07244697075258852]","[1,1,1]","[0.08679896088594952,-0.1596601952184803]","[-1,-1,-1]","[0.16740288809962156,0.011035868128887492]","[-1,-1,-1]","[0.14316828520920738,0.05095222262798417]","[-1,-1,-1]","[0.002172675268317777,0.05543396280846079]","[1,1,1]","[-0.18169744727518708,0.07923794424288484]","[1,1,1]","[-0.06850459882171872,-0.08376329371862831]","[-1,-1,-1]","[-0.1357518126737236,-0.005686149470149787]","[-1,-1,-1]","[-0.027600911326040083,-0.027670020699708867]","[-1,-1,-1]","[0.025228531014815984,-0.16603451008620554]","[1,1,1]","[-0.10417587039077252,0.022065616856652596]","[-1,-1,-1]","[0.013167695786952158,0.09991836439505362]","[-1,-1,-1]","[-0.06946205730829245,0.09061328667706249]","[-1,-1,-1]","[0.02,0.02]",320.9281,0,33,33,39,1,,,,,,,
,,,,,,,67f8cb31eeea81a0e4c8a853,682f10192dfdaca3b062d32f,2025-05-22_13h56.19.362,cuing_paradigm_dot,2024.1.5,Win32,59.17159763,682d573fa47f1360d1451895,,,,,,,,,,,320.9298,321.4279,,,321.6835,322.5499,left,,,,,,,,0.45,,,,,,321.428,321.6835,0.8511,,322.5499,"[-0.035478325709374633,0.042660414447957734]","[-1,-1,-1]","[-0.028742400307804835,0.15408042282202974]","[1,1,1]","[-0.08977207986983465,0.037620958528089395]","[-1,-1,-1]","[-0.00550806794265509,-0.11847883740033713]","[1,1,1]","[0.1031565219224409,-0.14705945896606715]","[1,1,1]","[-0.18551134473903494,-0.051443088780113534]","[-1,-1,-1]","[0.004603302490094062,0.06605954593107648]","[-1,-1,-1]","[-0.11095377824787808,-0.14598345957117803]","[-1,-1,-1]","[0.022446500609919467,0.17311563483574532]","[1,1,1]","[-0.14524506678316004,0.06102579624546592]","[1,1,1]","[-0.09269826482021909,0.12704138509903531]","[1,1,1]","[-0.012618104302711637,-0.012712323561232409]","[1,1,1]","[0.18361015985635826,0.024136878394469256]","[-1,-1,-1]","[0.07545514097190037,0.15169901146247383]","[1,1,1]","[0.07632891815106367,0.09243586413036432]","[-1,-1,-1]","[-0.10700211631476317,-0.08269284070135188]","[-1,-1,-1]","[0.09854517184604047,0.004649128111020446]","[-1,-1,-1]","[0.030656305878086924,-0.1944421129533392]","[-1,-1,-1]","[0.005711597034809119,0.12001760061216747]","[-1,-1,-1]","[0.14995270749661907,-0.0729625110913381]","[1,1,1]","[-0.07796621018823742,-0.18088152974056163]","[1,1,1]","[0.10157743375759089,-0.042901108891100846]","[-1,-1,-1]","[0.07066456850424373,-0.18571574928479934]","[1,1,1]","[-0.07042410604904416,-0.1346242790990756]","[-1,-1,-1]","[-0.0465845649153787,0.11222022293698881]","[-1,-1,-1]","[-0.1574960758371551,-0.020440648957174744]","[-1,-1,-1]","[-0.1489467443123346,-0.10309092641423273]","[-1,-1,-1]","[0.13170648847985558,0.028081851509396037]","[1,1,1]","[0.027655908180773993,-0.08339294559588055]","[-1,-1,-1]","[-0.10298006430171498,-0.013276806394772297]","[1,1,1]","[-0.029536851286335108,-0.054255629439434926]","[1,1,1]","[0.051304455508418195,0.007166299476580611]","[-1,-1,-1]","[0.02,0.02]",323.6488,0,34,34,63,1,,,,,,,
,,,,,,,67f8cb31eeea81a0e4c8a853,682f10192dfdaca3b062d32f,2025-05-22_13h56.19.362,cuing_paradigm_dot,2024.1.5,Win32,59.17159763,682d573fa47f1360d1451895,,,,,,,,,,,323.65,324.1465,,,324.3968,325.3828,right,,,,,,,,0.4,,,,,,324.1466,324.3967,0.9687,,325.3829,"[0.15478853077205249,0.08477346289028709]","[-1,-1,-1]","[-0.10495084852813227,-0.1526056487734745]","[1,1,1]","[-0.08875953774643204,0.09489768717070092]","[1,1,1]","[0.09308548428413185,0.08101777981429896]","[1,1,1]","[0.11797314162224132,-0.018983512591361735]","[1,1,1]","[-0.04754291857054377,-0.03826912447441583]","[-1,-1,-1]","[0.04979252388012108,-0.036632705776224045]","[-1,-1,-1]","[0.14207326505562023,-0.07610164966081238]","[-1,-1,-1]","[-0.03903266425428512,0.024495013696857925]","[1,1,1]","[-0.006089664456660083,0.19497723311326232]","[-1,-1,-1]","[-0.18151958911109953,0.07729664659413277]","[1,1,1]","[-0.020088386676761476,-0.1450306768582756]","[-1,-1,-1]","[0.07218425432450384,-0.07213559994888799]","[-1,-1,-1]","[-0.070125193286123,-0.11820861775667434]","[-1,-1,-1]","[0.17784653721169516,-0.001031370152874649]","[-1,-1,-1]","[0.049602219597621705,0.030291428325391823]","[-1,-1,-1]","[-0.13175404411691677,-0.07677611387713913]","[1,1,1]","[0.18588878082753055,-0.06901754469375948]","[1,1,1]","[0.07435845894854685,-0.11863849308266342]","[1,1,1]","[0.049685306612913406,0.13244887896616517]","[-1,-1,-1]","[-0.15317890181638108,-0.00480201302556471]","[-1,-1,-1]","[-0.08712901612081048,0.04072637247846942]","[-1,-1,-1]","[0.04296158653221154,0.17478094316784898]","[-1,-1,-1]","[-0.007504531137505788,0.11641954733880831]","[1,1,1]","[0.10736354708870428,0.14998380824792587]","[-1,-1,-1]","[-0.042824031094045555,0.07451459454153374]","[-1,-1,-1]","[0.0769540754279512,-0.17970674165161787]","[-1,-1,-1]","[0.016747789775346925,-0.0756873789677119]","[1,1,1]","[-0.04130834183325668,0.154479253040069]","[1,1,1]","[-0.09051179064249266,-0.0730762633385138]","[1,1,1]","[-0.11716192739288663,0.12597538800293256]","[-1,-1,-1]","[0.10319439366647837,0.03087933818361504]","[-1,-1,-1]","[0.02,0.02]",326.4815,0,35,35,46,1,,,,,,,
,,,,,,,67f8cb31eeea81a0e4c8a853,682f10192dfdaca3b062d32f,2025-05-22_13h56.19.362,cuing_paradigm_dot,2024.1.5,Win32,59.17159763,682d573fa47f1360d1451895,,,,,,,,,,,326.4827,326.9805,,,327.2279,328.026,left,,,,,,,,0.55,,,,,,326.9806,327.2276,0.7843,,328.0262,"[-0.14506854159685514,0.01964531549982094]","[-1,-1,-1]","[0.07762230025818137,-0.042293681999089186]","[1,1,1]","[-0.11804796432812584,0.1436501231272516]","[1,1,1]","[0.05145505265101698,0.18187637915507981]","[-1,-1,-1]","[0.1379983815286109,0.025111435288751198]","[-1,-1,-1]","[-0.06710991297301779,-0.010102486573050153]","[-1,-1,-1]","[0.0351551600786857,0.035917866898725094]","[-1,-1,-1]","[-0.061083752409907335,0.15271631404788494]","[1,1,1]","[0.1069844568058445,0.16492157757356482]","[-1,-1,-1]","[0.1728744767194162,-0.09603738199342117]","[1,1,1]","[-0.05540172596420936,0.10884592630217646]","[-1,-1,-1]","[0.09098486597507914,0.04754478411224999]","[1,1,1]","[-0.006361673830384002,-0.12772949344488108]","[-1,-1,-1]","[0.015105126462080967,0.16337285824431136]","[1,1,1]","[-0.07554214493384007,-0.137708990767418]","[1,1,1]","[-0.037222750424549735,0.06177646416477911]","[1,1,1]","[0.036165190503618286,-0.1107612438269092]","[1,1,1]","[-0.029220472648675427,-0.09381996758395132]","[1,1,1]","[0.16623243608574292,-0.008965826235811582]","[1,1,1]","[0.1016497421298557,-0.07504198237388011]","[1,1,1]","[-0.16051116636995605,-0.0873015912621577]","[1,1,1]","[0.0073799261741020914,0.002185796549980937]","[-1,-1,-1]","[0.02018170949080657,-0.04837355835003162]","[-1,-1,-1]","[0.057460243149520314,-0.1613382197474613]","[1,1,1]","[0.05499255415523236,0.11804397316275408]","[1,1,1]","[-0.09489866116029118,0.05859729618903559]","[-1,-1,-1]","[-0.017908992175661085,-0.16631836526074395]","[1,1,1]","[0.12678766296063507,0.09665417133041217]","[-1,-1,-1]","[0.0978131015454125,-0.13091624274714053]","[-1,-1,-1]","[-0.14887399100735385,0.09785710401249528]","[1,1,1]","[-0.1073027459387186,-0.046013042303720005]","[-1,-1,-1]","[-0.11889061280006955,-0.08627614564008206]","[1,1,1]","[0.02,0.02]",329.1261,0,36,36,130,1,,,,,,,
,,,,,,,67f8cb31eeea81a0e4c8a853,682f10192dfdaca3b062d32f,2025-05-22_13h56.19.362,cuing_paradigm_dot,2024.1.5,Win32,59.17159763,682d573fa47f1360d1451895,,,,,,,,,,,329.1274,329.6256,,,329.8665,330.5753,right,,,,,,,,0.1,,,,,,329.6258,329.8664,0.6855,,330.5755,"[0.1868460389620863,0.0068407780824069385]","[-1,-1,-1]","[0.044097484844809125,0.02441700273275894]","[-1,-1,-1]","[0.039822531801303074,0.15222712980394665]","[1,1,1]","[0.052590342180232896,-0.15978276385632767]","[-1,-1,-1]","[0.09637525667400898,0.15675006931699575]","[-1,-1,-1]","[0.15035588973403588,0.05641608074528867]","[1,1,1]","[-0.008002950470847257,-0.13421845600379215]","[-1,-1,-1]","[0.06631980410419971,-0.03657419584175257]","[-1,-1,-1]","[0.015007627813848654,0.0788869091013349]","[-1,-1,-1]","[-0.053239811098609834,-0.19159957040554992]","[-1,-1,-1]","[-0.09688974803635121,-0.04339778083979449]","[-1,-1,-1]","[0.003129469761058532,0.1341510948417726]","[-1,-1,-1]","[0.016142845948679464,-0.022891934468014134]","[-1,-1,-1]","[0.06730144812490521,-0.10022611491226548]","[-1,-1,-1]","[0.148598295581002,-0.058352846371611714]","[-1,-1,-1]","[-0.04734924149160099,0.03712511722360337]","[-1,-1,-1]","[0.0766111073911082,0.05018263791397687]","[-1,-1,-1]","[-0.052786550878386664,-0.1193981889335123]","[-1,-1,-1]","[-0.14702149198596798,-0.01144919405994664]","[-1,-1,-1]","[-0.11491160083434032,0.09154283120288967]","[-1,-1,-1]","[-0.1785271272843195,0.04365823950898784]","[-1,-1,-1]","[0.19256857233863334,-0.03806404430870513]","[-1,-1,-1]","[-0.03929635723647222,-0.026544975719986947]","[-1,-1,-1]","[0.15645429506656586,0.11037778287707717]","[-1,-1,-1]","[-0.07083392663770866,0.0002867727686047825]","[-1,-1,-1]","[-0.0009876350823397417,-0.07190318788314523]","[-1,-1,-1]","[-0.03743699990522035,0.18059154530166585]","[-1,-1,-1]","[0.10422872648261189,-0.14960641838377686]","[1,1,1]","[-0.1456792322450628,0.12301565098237467]","[-1,-1,-1]","[-0.160688227694999,-0.09191105131912353]","[-1,-1,-1]","[-0.1274809259398939,-0.14527881268206377]","[-1,-1,-1]","[-0.0005715735562413222,-0.1949530105085202]","[-1,-1,-1]","[0.02,0.02]",331.6761,0,37,37,5,1,,,,,,,
,,,,,,,67f8cb31eeea81a0e4c8a853,682f10192dfdaca3b062d32f,2025-05-22_13h56.19.362,cuing_paradigm_dot,2024.1.5,Win32,59.17159763,682d573fa47f1360d1451895,,,,,,,,,,,331.6777,332.1756,,,332.4308,333.3246,right,,,,,,,,0.5,,,,,,332.1758,332.4307,0.8767,,333.3249,"[-0.12867341480420985,0.03738277135730077]","[1,1,1]","[0.12299999664888706,0.019663772818318246]","[-1,-1,-1]","[-0.18510714842422857,0.03336445891396637]","[1,1,1]","[-0.02230092357641754,0.195140335645992]","[-1,-1,-1]","[-0.10808016366061778,-0.11483373158808577]","[1,1,1]","[-0.09193668483989598,0.014354293391838871]","[-1,-1,-1]","[0.004642311617624948,0.13435677082275896]","[1,1,1]","[0.054330486407594546,0.09057358816858435]","[1,1,1]","[-0.15612327272805893,0.11208883572814889]","[1,1,1]","[0.08936532775865479,0.17441363716989616]","[1,1,1]","[0.10686788357679647,-0.09526828053868011]","[1,1,1]","[-0.06687649071825687,-0.01972215882984022]","[-1,-1,-1]","[0.07209895242899343,-0.13386841344912465]","[1,1,1]","[0.013042653146054649,-0.1920880828210514]","[-1,-1,-1]","[-0.10282511236798168,0.0732542209015016]","[-1,-1,-1]","[-0.002435710345189348,-0.0596222762570605]","[1,1,1]","[0.0993351600491588,0.09102911264507789]","[-1,-1,-1]","[-0.054417046497866085,-0.14613589863613582]","[-1,-1,-1]","[-0.01965751362734291,0.01160713644781458]","[1,1,1]","[0.03795086349127571,-0.00790476841318991]","[-1,-1,-1]","[0.08092164531873686,-0.037946716807009534]","[-1,-1,-1]","[0.05145736771158226,-0.16987792666942855]","[1,1,1]","[0.059082814998513075,0.048863548344255145]","[-1,-1,-1]","[-0.059041413393863554,0.09205387762662828]","[1,1,1]","[-0.03225928944303838,-0.19651137219574524]","[1,1,1]","[0.15275379358550623,-0.06109912695575343]","[-1,-1,-1]","[-0.050151721183388336,0.1460781544686054]","[-1,-1,-1]","[0.1173405443544438,-0.1393402568397848]","[-1,-1,-1]","[-0.02379828231709464,0.06992365599202459]","[-1,-1,-1]","[0.1525028276748676,0.07950090624846906]","[-1,-1,-1]","[-0.07946325061259735,0.17698459212018958]","[1,1,1]","[-0.07611205960073651,-0.06502738334383268]","[1,1,1]","[0.02,0.02]",334.4259,0,38,38,118,1,,,,,,,
,,,,,,,67f8cb31eeea81a0e4c8a853,682f10192dfdaca3b062d32f,2025-05-22_13h56.19.362,cuing_paradigm_dot,2024.1.5,Win32,59.17159763,682d573fa47f1360d1451895,,,,,,,,,,,334.4272,334.9253,,,335.1805,335.9248,right,,,,,,,,0.1,,,,,,334.9254,335.1803,0.7215,,335.9252,"[-0.1675049046554012,-0.010156298110045486]","[-1,-1,-1]","[0.09331867163967592,-0.04832025654239808]","[-1,-1,-1]","[0.014909612020407546,0.12002660310052618]","[-1,-1,-1]","[0.002458188261794705,-0.14229049571348548]","[-1,-1,-1]","[0.04229603422775949,-0.0016834551795235043]","[-1,-1,-1]","[-0.02256099433186577,-0.18845551667639157]","[-1,-1,-1]","[-0.11442195710006163,-0.11218456958527598]","[1,1,1]","[0.102689041703278,0.11757655557538949]","[-1,-1,-1]","[0.1799705152911098,0.057049963956733805]","[-1,-1,-1]","[0.05819849640864942,-0.12833251117338548]","[-1,-1,-1]","[-0.007535951192099705,0.04775084985579991]","[-1,-1,-1]","[0.0706693992029787,0.038669179535462186]","[-1,-1,-1]","[0.12861605928483666,0.15281510270726248]","[-1,-1,-1]","[-0.08233962899434465,-0.050186750250786345]","[-1,-1,-1]","[0.1531329175448828,-0.04407222018862539]","[-1,-1,-1]","[0.02277688291797843,-0.10337531816506865]","[-1,-1,-1]","[-0.021993315144920568,-0.0692266483087346]","[-1,-1,-1]","[-0.0427848913869254,0.10499634097145259]","[-1,-1,-1]","[0.03936583624166336,0.15576268293790452]","[-1,-1,-1]","[-0.08625358123151798,0.08673375912526567]","[-1,-1,-1]","[0.06689393082162418,-0.1839350323281175]","[-1,-1,-1]","[-0.1507916489263083,-0.08644697923427373]","[-1,-1,-1]","[0.04666693867407796,-0.06235236552604866]","[-1,-1,-1]","[0.12676471776014084,0.014092800102270039]","[-1,-1,-1]","[0.10524896467951113,-0.13719674855617373]","[1,1,1]","[0.1696516345305125,-0.0022658687899086757]","[-1,-1,-1]","[0.030385625092115637,0.08257737647632658]","[-1,-1,-1]","[0.08937045938411059,0.16632044939572363]","[-1,-1,-1]","[-0.16362936148803087,0.03606720859672281]","[-1,-1,-1]","[-0.11942295412047864,0.1187965212063045]","[1,1,1]","[-0.16198050567963532,0.0855911155611527]","[-1,-1,-1]","[-0.11205864478428328,-0.011105700884217992]","[-1,-1,-1]","[0.02,0.02]",337.0249,0,39,39,26,1,,,,,,,
,,,,,,,67f8cb31eeea81a0e4c8a853,682f10192dfdaca3b062d32f,2025-05-22_13h56.19.362,cuing_paradigm_dot,2024.1.5,Win32,59.17159763,682d573fa47f1360d1451895,,,,,,,,,,,337.0263,337.5252,,,337.7762,338.7243,left,,,,,,,,0.6,,,,,,337.5253,337.7762,0.9215,,338.7246,"[0.15030151727243934,0.12122863921670463]","[1,1,1]","[-0.005299318946028005,-0.14582512640802406]","[-1,-1,-1]","[-0.041565324664735614,-0.08950519151144076]","[-1,-1,-1]","[0.07929907077985426,-0.0403100705873089]","[-1,-1,-1]","[-0.12918044379092325,-0.027726640262003662]","[-1,-1,-1]","[0.15867536401041607,0.021324531877811886]","[1,1,1]","[-0.1785462304001257,0.0002818153514039047]","[-1,-1,-1]","[-0.061343167878659836,0.11602800970369305]","[1,1,1]","[0.09323308282414552,-0.11105441719629534]","[1,1,1]","[0.08152982373508605,0.13836844324696598]","[1,1,1]","[0.0973405024640823,0.003315176285932993]","[-1,-1,-1]","[0.16641756997405538,-0.038141121448193135]","[1,1,1]","[-0.1367081897206097,0.05306498436969207]","[1,1,1]","[0.10596014274894457,0.0842488869418225]","[-1,-1,-1]","[0.055754875747113006,0.05689208390144892]","[1,1,1]","[-0.10969324249881568,-0.15315828677138452]","[1,1,1]","[-0.10579385069675144,-0.1101299174588848]","[1,1,1]","[-0.11157021974395502,0.15987508822824983]","[-1,-1,-1]","[0.09197753090787703,-0.17224066072649302]","[1,1,1]","[-0.17646717121716238,0.08380718412730823]","[1,1,1]","[-0.18125220579087972,-0.06635538387687671]","[1,1,1]","[0.1591038973814409,-0.08953349532114961]","[-1,-1,-1]","[0.1441976177884305,-0.13568745350521524]","[-1,-1,-1]","[0.008184881976885253,-0.037329462114790275]","[-1,-1,-1]","[0.029875758288875637,0.1422487513701755]","[1,1,1]","[-0.05914342566212586,-0.1520670493086171]","[1,1,1]","[-0.0008554548830963024,-0.09861436374520849]","[-1,-1,-1]","[-0.02629207297684041,-0.006238847568860596]","[1,1,1]","[0.02343581439323918,-0.19782423676784153]","[1,1,1]","[-0.0306793369521928,0.08134382888936119]","[-1,-1,-1]","[-0.06367162408888549,0.18794454995873366]","[1,1,1]","[0.03227641912146209,0.18266078837072305]","[1,1,1]","[0.02,0.02]",339.8241,0,40,40,163,1,,,,,,,
,,,,,,,67f8cb31eeea81a0e4c8a853,682f10192dfdaca3b062d32f,2025-05-22_13h56.19.362,cuing_paradigm_dot,2024.1.5,Win32,59.17159763,682d573fa47f1360d1451895,,,,,,,,,,,339.8261,340.3238,,,340.5638,341.2631,right,,,,,,,,0.1,,,,,,340.3241,340.5636,0.6847,,341.2632,"[-0.08195526871235669,0.08025373949565297]","[-1,-1,-1]","[0.045903136289633266,0.013469266105189887]","[-1,-1,-1]","[-0.14653526252574892,0.13566340565750729]","[-1,-1,-1]","[-0.020292781725686066,0.027378649653768208]","[-1,-1,-1]","[-0.03645052640345483,-0.1632262761231017]","[-1,-1,-1]","[0.056252836937483425,0.13628888591567628]","[-1,-1,-1]","[0.04596677974690571,-0.15064807601621966]","[-1,-1,-1]","[0.05079849774234781,-0.056084369402328804]","[-1,-1,-1]","[-0.15862677388341576,-0.06695019080996549]","[-1,-1,-1]","[0.09622924320263006,0.14762875036126755]","[-1,-1,-1]","[0.1729784837996718,-0.004794239164486045]","[-1,-1,-1]","[-0.12524779226374205,0.046572247829414416]","[-1,-1,-1]","[0.09377828387443472,-0.16996550697905563]","[-1,-1,-1]","[0.014267755039915538,0.1374158469680216]","[-1,-1,-1]","[0.14295224747482882,-0.07770401810848684]","[-1,-1,-1]","[-0.006436427256889044,-0.08413841699499967]","[-1,-1,-1]","[0.05168332781852385,-0.09771087036712085]","[-1,-1,-1]","[0.012693626090656891,-0.037020704455401926]","[-1,-1,-1]","[-0.04158529537996292,0.11750318491364793]","[-1,-1,-1]","[-0.16752070466874516,-0.00910924913999827]","[-1,-1,-1]","[0.13753239343894125,-0.03626466392869831]","[-1,-1,-1]","[0.178067317570222,0.05810462335409757]","[1,1,1]","[0.1149924441877246,-0.13317073242410063]","[-1,-1,-1]","[0.09578216138864803,-0.028620383770101177]","[-1,-1,-1]","[0.05091281581819672,0.19269861914586497]","[-1,-1,-1]","[-0.011996149202103557,-0.1274988286234039]","[-1,-1,-1]","[-0.11524925658497336,-0.10106549611590426]","[-1,-1,-1]","[-0.10730845274569431,0.11492744386745876]","[-1,-1,-1]","[0.13530628922826432,0.08165726687138411]","[-1,-1,-1]","[-0.017099487021931026,0.08484264357058494]","[1,1,1]","[-0.08937584561970126,-0.1560521997843408]","[-1,-1,-1]","[0.08260895567975218,0.08296559354880517]","[1,1,1]","[0.02,0.02]",342.3571,0,41,41,11,1,,,,,,,
,,,,,,,67f8cb31eeea81a0e4c8a853,682f10192dfdaca3b062d32f,2025-05-22_13h56.19.362,cuing_paradigm_dot,2024.1.5,Win32,59.17159763,682d573fa47f1360d1451895,,,,,,,,,,,342.3585,342.861,,,343.1087,343.7737,right,,,,,,,,0.1,,,,,,342.8611,343.1086,0.6384,,343.7738,"[-0.1444685202882442,0.10178646725512802]","[-1,-1,-1]","[0.05253547485270848,0.18201286419182652]","[-1,-1,-1]","[0.08427161249441159,0.11209889560383131]","[-1,-1,-1]","[-0.010103095002248576,0.03145609293865445]","[-1,-1,-1]","[0.1458835894000036,0.11696659501364265]","[-1,-1,-1]","[-0.09580681592802116,-0.15159715938029764]","[-1,-1,-1]","[0.07505001393705162,-0.10712172223468097]","[-1,-1,-1]","[-0.015481432446619835,0.15879962736281966]","[-1,-1,-1]","[-0.12083383006981278,0.013762050555287416]","[1,1,1]","[-0.11582832141838129,-0.0729010364015553]","[-1,-1,-1]","[-0.16749656059962284,0.030318286507881827]","[-1,-1,-1]","[0.024784618432274908,0.13706164194402481]","[-1,-1,-1]","[-0.032133206372159336,-0.017180586454615215]","[-1,-1,-1]","[0.17446514637216584,-0.018041682393072155]","[-1,-1,-1]","[-0.08677814112100127,0.12167890116418609]","[-1,-1,-1]","[0.0028824296254521533,-0.07431187141256908]","[-1,-1,-1]","[0.10712452507472262,0.15897693504508612]","[-1,-1,-1]","[-0.06559814565335621,-0.08036132011573205]","[-1,-1,-1]","[-0.028439954468169576,0.06800685345265318]","[-1,-1,-1]","[0.1185333087741293,-0.09613008824480221]","[-1,-1,-1]","[-0.0895369733566147,-0.036381313048482765]","[-1,-1,-1]","[0.16307729489418288,0.06136414897592474]","[-1,-1,-1]","[0.04701645923015066,-0.1926096158042311]","[-1,-1,-1]","[0.07939704483229322,-0.05017594541266275]","[-1,-1,-1]","[-0.015755383761447743,-0.12062723283580706]","[-1,-1,-1]","[-0.04711653892950024,-0.17086244169498194]","[-1,-1,-1]","[-0.08214417110352498,0.17122862058611632]","[-1,-1,-1]","[-0.19207523486631908,-0.035716785178713]","[-1,-1,-1]","[0.024030038022738065,-0.027301776293104596]","[1,1,1]","[0.04627032431028824,-0.14061198702663308]","[-1,-1,-1]","[0.14388051670532334,-0.058652352254215494]","[-1,-1,-1]","[-0.14796969498854554,-0.12674222266790514]","[1,1,1]","[0.02,0.02]",344.8734,0,42,42,24,1,,,,,,,
,,,,,,,67f8cb31eeea81a0e4c8a853,682f10192dfdaca3b062d32f,2025-05-22_13h56.19.362,cuing_paradigm_dot,2024.1.5,Win32,59.17159763,682d573fa47f1360d1451895,,,,,,,,,,,344.8755,345.373,,,345.6299,346.3729,left,,,,,,,,0.6,,,,,,345.3731,345.6298,0.723,,346.3732,"[-0.028080336048648676,0.1915546655194337]","[-1,-1,-1]","[-0.08824182666380764,0.05365383887633167]","[1,1,1]","[0.17889139215766695,-0.08811358326047525]","[1,1,1]","[0.1636408152648283,0.01380217680313239]","[1,1,1]","[0.1184896641175657,0.030349448447557683]","[-1,-1,-1]","[0.0015202374172175646,-0.019186508632882973]","[-1,-1,-1]","[0.0760027544846558,-0.15622683849984942]","[1,1,1]","[-0.025794314349343775,-0.17995442935524794]","[1,1,1]","[0.07239692487255803,-0.04454061466916658]","[1,1,1]","[-0.07458006299540025,-0.15338151557278032]","[-1,-1,-1]","[0.0658583746947861,0.14806687987434697]","[-1,-1,-1]","[-0.13242986283142338,-0.012064816214908245]","[1,1,1]","[0.07969374109442029,0.08926539962321929]","[1,1,1]","[-0.10993595801285092,0.12305584179389492]","[1,1,1]","[0.09756200393471508,-0.08005424455722888]","[1,1,1]","[0.014393819777726632,0.021088357635392515]","[1,1,1]","[-0.07375860274541253,0.09582624436005213]","[1,1,1]","[-0.08469597347841007,-0.03632376016298551]","[-1,-1,-1]","[-0.1310019041481792,-0.13317018507527814]","[1,1,1]","[-0.0918901117879297,-0.0975628799575201]","[1,1,1]","[0.01645443910081873,0.15385360569379808]","[-1,-1,-1]","[-0.18654790791631434,0.04698736664300181]","[1,1,1]","[0.046409709572406956,-0.08860474579101414]","[-1,-1,-1]","[-0.048297883460275574,0.019144222965124552]","[1,1,1]","[0.10086424259721148,-0.016415843703651456]","[-1,-1,-1]","[0.016179201173702737,-0.05657193999683792]","[1,1,1]","[0.19630711699272113,-0.03560970930916372]","[1,1,1]","[0.0559844725232052,0.02336874852592754]","[-1,-1,-1]","[0.02969851370150131,-0.14193840399984942]","[1,1,1]","[-0.048152021189155264,-0.07930965192809974]","[-1,-1,-1]","[0.0024568246296857235,0.11173876557948201]","[-1,-1,-1]","[0.01953781548138725,0.06406188723211476]","[-1,-1,-1]","[0.02,0.02]",347.473,0,43,43,154,1,,,,,,,
,,,,,,,67f8cb31eeea81a0e4c8a853,682f10192dfdaca3b062d32f,2025-05-22_13h56.19.362,cuing_paradigm_dot,2024.1.5,Win32,59.17159763,682d573fa47f1360d1451895,,,,,,,,,,,347.4743,347.9733,,,348.2238,349.0554,left,,,,,,,,0.5,,,,,,347.9735,348.2237,0.8156,,349.0555,"[-0.11595431848032478,-0.021943434430456172]","[-1,-1,-1]","[-0.010995108641281445,-0.14046453272063522]","[1,1,1]","[-0.0703487544565974,-0.10580465848762173]","[1,1,1]","[0.07626853556579494,-0.07895353386910811]","[1,1,1]","[-0.1425283534450433,0.04143869269159719]","[-1,-1,-1]","[0.10104213910222011,0.04699110107701177]","[-1,-1,-1]","[-0.16160640046663866,-0.03766607565139741]","[-1,-1,-1]","[0.12285471319926732,0.08821041858335806]","[1,1,1]","[-0.14704595023247594,0.09953356283242686]","[1,1,1]","[-0.12448882480758562,-0.08169334342608427]","[-1,-1,-1]","[-0.11291738105980652,-0.12301281875520477]","[1,1,1]","[0.13338112237903188,-0.01565507984807473]","[-1,-1,-1]","[0.1543031056005918,-0.08713630348768323]","[-1,-1,-1]","[0.023627941304916487,0.11659941048527916]","[1,1,1]","[-0.0888654199405762,-0.15563102351960098]","[-1,-1,-1]","[0.0031009760762099403,-0.04232696046784476]","[-1,-1,-1]","[-0.19020154448600363,0.03773018123942533]","[-1,-1,-1]","[0.1263653456531276,0.1315895933160295]","[1,1,1]","[0.05128960671668498,0.1704449963691892]","[1,1,1]","[0.03692220285721435,-0.1623882421920489]","[-1,-1,-1]","[-0.05974294136806049,0.05867715231656045]","[-1,-1,-1]","[-0.09569839010257332,0.16946754212511525]","[1,1,1]","[-0.09278344866926727,-0.05670149598083169]","[1,1,1]","[-0.09850534189062668,0.03796014158995091]","[-1,-1,-1]","[-0.01132634058530967,-0.08341249141148975]","[1,1,1]","[0.17735104372469085,0.04257103449468565]","[1,1,1]","[0.061827700738392784,-0.015482184026279855]","[1,1,1]","[0.07337796920938243,-0.14386838071035085]","[-1,-1,-1]","[0.14181930537090173,-0.13465741052864916]","[-1,-1,-1]","[-0.029030096798430678,0.19327628338050493]","[1,1,1]","[0.05386488891948381,0.0658762455055701]","[-1,-1,-1]","[-0.02875684099539696,0.011572776841443009]","[1,1,1]","[0.02,0.02]",350.1551,0,44,44,114,1,,,,,,,
