right,left,explain.started,explain.stopped,key_resp_3.keys,key_resp_3.rt,key_resp_3.duration,participant,session,date,expName,psychopyVersion,OS,frameRate,study_id,explain_2.started,explain_2.stopped,key_resp_4.keys,key_resp_4.rt,key_resp_4.duration,explain_3.started,explain_3.stopped,key_resp_5.keys,key_resp_5.rt,key_resp_5.duration,fixation.started,fixation.stopped,practice.started,practice.stopped,response.started,response.stopped,key_resp.keys,key_resp.rt,key_resp.duration,feedback.started,feedback.stopped,trials_2.thisRepN,trials_2.thisTrialN,trials_2.thisN,trials_2.thisIndex,trials_2.ran,white_ratio,explain_4.started,explain_4.stopped,key_resp_6.keys,key_resp_6.rt,key_resp_6.duration,dotDisplay.started,dotDisplay.stopped,ITI.started,polygon_1.pos,polygon_1.color,polygon_2.pos,polygon_2.color,polygon_3.pos,polygon_3.color,polygon_4.pos,polygon_4.color,polygon_5.pos,polygon_5.color,polygon_6.pos,polygon_6.color,polygon_7.pos,polygon_7.color,polygon_8.pos,polygon_8.color,polygon_9.pos,polygon_9.color,polygon_10.pos,polygon_10.color,polygon_11.pos,polygon_11.color,polygon_12.pos,polygon_12.color,polygon_13.pos,polygon_13.color,polygon_14.pos,polygon_14.color,polygon_15.pos,polygon_15.color,polygon_16.pos,polygon_16.color,polygon_17.pos,polygon_17.color,polygon_18.pos,polygon_18.color,polygon_19.pos,polygon_19.color,polygon_20.pos,polygon_20.color,polygon_21.pos,polygon_21.color,polygon_22.pos,polygon_22.color,polygon_23.pos,polygon_23.color,polygon_24.pos,polygon_24.color,polygon_25.pos,polygon_25.color,polygon_26.pos,polygon_26.color,polygon_27.pos,polygon_27.color,polygon_28.pos,polygon_28.color,polygon_29.pos,polygon_29.color,polygon_30.pos,polygon_30.color,polygon_31.pos,polygon_31.color,polygon_32.pos,polygon_32.color,dot_size,ITI.stopped,trials.thisRepN,trials.thisTrialN,trials.thisN,trials.thisIndex,trials.ran,break_2.started,break_2.stopped,trials_3.thisRepN,trials_3.thisTrialN,trials_3.thisN,trials_3.thisIndex,trials_3.ran
subject chose white,subject chose black,0.0022,44.7202,space,29.6871,,67f8ecba61f42b2394e82833,682db3a63e5d10d94756c12d,2025-05-21_13h20.15.348,cuing_paradigm_dot,2024.1.5,Win32,60.24096386,682d556593cb38ad0a074487,,,,,,,,,,,,,,,,,,,,,,,,,,,,,,,,,,,,,,,,,,,,,,,,,,,,,,,,,,,,,,,,,,,,,,,,,,,,,,,,,,,,,,,,,,,,,,,,,,,,,,,,,,,,,,,,,
,,,,,,,67f8ecba61f42b2394e82833,682db3a63e5d10d94756c12d,2025-05-21_13h20.15.348,cuing_paradigm_dot,2024.1.5,Win32,60.24096386,682d556593cb38ad0a074487,44.7209,78.4507,space,3.7115,,,,,,,,,,,,,,,,,,,,,,,,,,,,,,,,,,,,,,,,,,,,,,,,,,,,,,,,,,,,,,,,,,,,,,,,,,,,,,,,,,,,,,,,,,,,,,,,,,,,,,,,,,,,,
,,,,,,,67f8ecba61f42b2394e82833,682db3a63e5d10d94756c12d,2025-05-21_13h20.15.348,cuing_paradigm_dot,2024.1.5,Win32,60.24096386,682d556593cb38ad0a074487,,,,,,78.4509,82.7279,space,1.2627,,,,,,,,,,,,,,,,,,,,,,,,,,,,,,,,,,,,,,,,,,,,,,,,,,,,,,,,,,,,,,,,,,,,,,,,,,,,,,,,,,,,,,,,,,,,,,,,,,,,,,,,
,,,,,,,67f8ecba61f42b2394e82833,682db3a63e5d10d94756c12d,2025-05-21_13h20.15.348,cuing_paradigm_dot,2024.1.5,Win32,60.24096386,682d556593cb38ad0a074487,,,,,,,,,,,82.7941,83.2288,83.2298,83.5793,83.5796,84.4323,left,0.7553,,84.433,85.5335,0,0,0,1,1,0.2,,,,,,,,,,,,,,,,,,,,,,,,,,,,,,,,,,,,,,,,,,,,,,,,,,,,,,,,,,,,,,,,,,,,,,,,,,,,,,,,,,,,,,
,,,,,,,67f8ecba61f42b2394e82833,682db3a63e5d10d94756c12d,2025-05-21_13h20.15.348,cuing_paradigm_dot,2024.1.5,Win32,60.24096386,682d556593cb38ad0a074487,,,,,,,,,,,85.5346,86.0301,86.0303,86.2845,86.2846,86.6353,right,0.3347,,86.6356,87.7322,0,1,1,0,1,0.8,,,,,,,,,,,,,,,,,,,,,,,,,,,,,,,,,,,,,,,,,,,,,,,,,,,,,,,,,,,,,,,,,,,,,,,,,,,,,,,,,,,,,,
,,,,,,,67f8ecba61f42b2394e82833,682db3a63e5d10d94756c12d,2025-05-21_13h20.15.348,cuing_paradigm_dot,2024.1.5,Win32,60.24096386,682d556593cb38ad0a074487,,,,,,,,,,,,,,,,,,,,,,,,,,,,87.7334,92.3185,space,1.5794,,,,,,,,,,,,,,,,,,,,,,,,,,,,,,,,,,,,,,,,,,,,,,,,,,,,,,,,,,,,,,,,,,,,,,,,,,,,,,,,,,
,,,,,,,67f8ecba61f42b2394e82833,682db3a63e5d10d94756c12d,2025-05-21_13h20.15.348,cuing_paradigm_dot,2024.1.5,Win32,60.24096386,682d556593cb38ad0a074487,,,,,,,,,,,92.3402,92.8188,,,93.0441,93.5105,left,0.4503,,,,,,,,,0.5,,,,,,92.8198,93.0441,93.5119,"[0.018294981500561892,0.08710865811272639]","[1,1,1]","[0.15015927340605958,0.02926785914987873]","[-1,-1,-1]","[0.1048543395520179,-0.016753133478106797]","[-1,-1,-1]","[-0.055907290147657,-0.07121589753205765]","[-1,-1,-1]","[0.024916175052728508,-0.007229556278300624]","[1,1,1]","[0.10141961132470959,0.050783227049490426]","[-1,-1,-1]","[-0.11618487771039687,-0.11259750755193036]","[-1,-1,-1]","[-0.04340816257119904,-0.14894415669432515]","[1,1,1]","[0.1637333917013877,-0.08424714702346034]","[1,1,1]","[-0.16210535100324963,0.07390783922368456]","[-1,-1,-1]","[-0.14997379155459645,-0.0785145264309311]","[-1,-1,-1]","[-0.01232471968351062,-0.11913231938565888]","[1,1,1]","[0.17529461044321934,-0.017151736062449383]","[1,1,1]","[0.10392683759576223,-0.07695484617608199]","[-1,-1,-1]","[-0.13033453007947363,-0.03560337518268474]","[-1,-1,-1]","[-0.04146660677228398,0.09625079308990417]","[-1,-1,-1]","[-0.08674997824734904,0.09066740402351503]","[1,1,1]","[0.10366053305020498,0.14153632062152122]","[1,1,1]","[0.05911731419156427,-0.03239645821612085]","[1,1,1]","[-0.15123606297086192,0.029651238245815687]","[-1,-1,-1]","[-0.04939901657430262,0.02141454141547261]","[-1,-1,-1]","[0.04549343339089755,0.047395687715705015]","[1,1,1]","[0.15973894017819387,0.10278965733934876]","[-1,-1,-1]","[0.04571671931262116,-0.15908346971231893]","[1,1,1]","[0.016547945454157064,-0.19527138829228516]","[1,1,1]","[-0.01944002454293719,0.166388228399896]","[1,1,1]","[-0.08629024145109891,-0.1499911695546503]","[1,1,1]","[0.025000616491153448,-0.09022023164733728]","[1,1,1]","[0.12641338586440282,-0.13507084598453545]","[1,1,1]","[-0.14777357815404327,0.1277706621744106]","[-1,-1,-1]","[-0.028033104175140662,-0.036716828703696046]","[-1,-1,-1]","[0.08390553441390575,-0.18082110911119445]","[-1,-1,-1]","[0.02,0.02]",94.6074,0,0,0,102,1,,,,,,,
,,,,,,,67f8ecba61f42b2394e82833,682db3a63e5d10d94756c12d,2025-05-21_13h20.15.348,cuing_paradigm_dot,2024.1.5,Win32,60.24096386,682d556593cb38ad0a074487,,,,,,,,,,,94.6091,95.1074,,,95.3593,95.5031,right,0.1273,,,,,,,,,0.9,,,,,,95.1074,95.3591,95.5034,"[0.05637925109238825,-0.02344958076288276]","[1,1,1]","[-0.15226582302451946,0.03763786843437559]","[1,1,1]","[0.0594865413649117,0.10301316399276474]","[1,1,1]","[-0.03358196386767321,0.1775950619182561]","[1,1,1]","[0.18407753121649356,0.04706448138175339]","[1,1,1]","[-0.08673938279801108,0.16389656957248536]","[1,1,1]","[0.012187518038018859,-0.12168800763366824]","[-1,-1,-1]","[0.12715549274752744,0.00756779858135497]","[1,1,1]","[0.09668867429694726,0.14155608468008807]","[1,1,1]","[0.019535280163721577,0.037060228228471014]","[1,1,1]","[-0.12876071294765304,-0.039953740577423104]","[1,1,1]","[0.15817143935087863,0.11346866943152854]","[1,1,1]","[0.16791520098993412,0.008400527378267185]","[1,1,1]","[-0.054119374690014654,-0.003899764882312308]","[1,1,1]","[-0.05275369783115337,-0.05649320130272978]","[1,1,1]","[0.06288786710968525,-0.10216672547873702]","[1,1,1]","[0.12575229216960895,-0.11365284507143467]","[1,1,1]","[0.012943174659289325,0.1276842778233973]","[1,1,1]","[-0.09464479224381542,0.021021789673556293]","[1,1,1]","[-0.1564408665985625,-0.09647395073008952]","[1,1,1]","[0.184574509796651,-0.0464130130417116]","[1,1,1]","[-0.0781223625278059,0.09261995772421583]","[1,1,1]","[-0.002173506784652773,-0.006882958538076131]","[1,1,1]","[-0.03890630485357754,0.07878405591733337]","[1,1,1]","[0.024305014730751258,-0.07342296072424949]","[1,1,1]","[0.061449880962940406,0.1624376945166026]","[1,1,1]","[-0.19061212551858747,0.023082707894625302]","[-1,-1,-1]","[-0.032680595089286606,0.12407519072202636]","[1,1,1]","[-0.12040274555438152,-0.14861566962028752]","[1,1,1]","[-0.14201746164621726,0.1372492014247084]","[1,1,1]","[0.07547455280414773,0.05963788255298163]","[1,1,1]","[-0.10248763964264862,-0.09637842985044948]","[-1,-1,-1]","[0.02,0.02]",96.5987,0,1,1,201,1,,,,,,,
,,,,,,,67f8ecba61f42b2394e82833,682db3a63e5d10d94756c12d,2025-05-21_13h20.15.348,cuing_paradigm_dot,2024.1.5,Win32,60.24096386,682d556593cb38ad0a074487,,,,,,,,,,,96.5997,97.0983,,,97.3472,97.7467,right,0.3862,,,,,,,,,0.55,,,,,,97.0984,97.3471,97.7468,"[-0.07000635437731323,-0.01557649169467463]","[-1,-1,-1]","[-0.17485317551883872,-0.08367444825599728]","[-1,-1,-1]","[-0.04066564107825088,0.14730667830727728]","[1,1,1]","[0.14258803405336928,0.09935693258207316]","[-1,-1,-1]","[-0.11316195781126298,0.05663750020383993]","[-1,-1,-1]","[0.04834018034924455,-0.12880053485493193]","[-1,-1,-1]","[0.04710957490395629,0.17628493287257532]","[1,1,1]","[0.12103427175345594,0.04685316147500512]","[1,1,1]","[0.04434599444817424,-0.04060272097005401]","[1,1,1]","[0.0800366522857784,0.053254380397953306]","[1,1,1]","[-0.030640798109527724,-0.08852734808256242]","[-1,-1,-1]","[-0.018750836029830437,0.06764547689004731]","[1,1,1]","[-0.04291348195705564,0.10183960952299419]","[1,1,1]","[-0.1799925596155623,0.036602861843221285]","[1,1,1]","[0.07248156757105809,-0.16358478811634883]","[1,1,1]","[0.15856806717076777,0.0012506043004069669]","[1,1,1]","[0.12683087822608805,-0.11592352960647737]","[1,1,1]","[-0.047198018292371365,-0.15604334769144224]","[1,1,1]","[-0.13843280160601706,-0.126253549232802]","[-1,-1,-1]","[-0.00480803730330542,0.19411257654767272]","[1,1,1]","[0.006887885494877008,-0.18367702328392824]","[1,1,1]","[-0.07191463657693618,0.04987770446010749]","[1,1,1]","[-0.029281870481432583,0.011992502975297796]","[-1,-1,-1]","[-0.1349876136976895,0.11404223311628997]","[-1,-1,-1]","[-0.016475570301509663,-0.04452969975243569]","[-1,-1,-1]","[0.08845834135871086,0.10226823275685848]","[-1,-1,-1]","[0.04069404782251512,0.009051956948566982]","[1,1,1]","[-0.19513149047816744,-0.04107263402311199]","[1,1,1]","[0.14229889806392282,-0.04951815914022023]","[1,1,1]","[0.17691471578396611,0.054673814400312486]","[-1,-1,-1]","[-0.1003728823255098,-0.1595242069808498]","[-1,-1,-1]","[-0.15625484700074438,-0.012788558036316542]","[-1,-1,-1]","[0.02,0.02]",98.8383,0,2,2,143,1,,,,,,,
,,,,,,,67f8ecba61f42b2394e82833,682db3a63e5d10d94756c12d,2025-05-21_13h20.15.348,cuing_paradigm_dot,2024.1.5,Win32,60.24096386,682d556593cb38ad0a074487,,,,,,,,,,,98.8388,99.337,,,99.5869,100.0031,right,0.4,,,,,,,,,0.55,,,,,,99.3371,99.5868,100.0032,"[-0.01948271231428436,0.18298150833708546]","[-1,-1,-1]","[-0.10408428576780301,-0.11338128964485247]","[-1,-1,-1]","[0.16692351340004238,0.10566326975825024]","[1,1,1]","[0.11861020347714893,0.0817062834954601]","[-1,-1,-1]","[0.058279991302076534,0.06958999546564497]","[1,1,1]","[0.002094829780791379,-0.12124588773465494]","[1,1,1]","[-0.19365726373250444,-0.026895282111612434]","[-1,-1,-1]","[-0.03739609479708168,-0.02199787100092257]","[1,1,1]","[0.15503143289592097,-0.04663256444344869]","[1,1,1]","[0.09678615323851174,0.12666782350392486]","[-1,-1,-1]","[-0.09991723039579856,0.11657430796327255]","[-1,-1,-1]","[0.05741568147374508,-0.030036003102374226]","[1,1,1]","[0.10459287583296853,-0.10384931743459117]","[1,1,1]","[-0.0974553329265459,-0.037115817188390646]","[1,1,1]","[0.05962719242320686,-0.1619346112072619]","[1,1,1]","[0.01733314289757965,-0.004576921588073808]","[1,1,1]","[0.012357749441095887,-0.16620373412138842]","[1,1,1]","[-0.043381564541091586,-0.06785573078476619]","[1,1,1]","[0.037031416735077684,0.1711175827315741]","[-1,-1,-1]","[0.12372261684223498,-0.007100196829982775]","[-1,-1,-1]","[-0.15151179743164003,-0.053768738775220565]","[1,1,1]","[-0.03605114389831809,-0.16231104649708283]","[-1,-1,-1]","[-0.11960979851752472,0.02951419629849984]","[-1,-1,-1]","[-0.0278483416396717,0.06864928295847282]","[1,1,1]","[0.007975233293570362,0.09072898009331452]","[-1,-1,-1]","[-0.050891702736738244,0.02225255655116219]","[1,1,1]","[-0.1526406628536075,-0.0979285306340973]","[-1,-1,-1]","[0.18915543773903903,0.02808920393164667]","[1,1,1]","[0.0961193674029712,0.17288339890280757]","[1,1,1]","[-0.10729733662057955,-0.16349524529207166]","[1,1,1]","[0.1680275918587754,-0.006189310116344782]","[-1,-1,-1]","[0.007271235187981288,-0.06002373663800117]","[-1,-1,-1]","[0.02,0.02]",101.1018,0,3,3,136,1,,,,,,,
,,,,,,,67f8ecba61f42b2394e82833,682db3a63e5d10d94756c12d,2025-05-21_13h20.15.348,cuing_paradigm_dot,2024.1.5,Win32,60.24096386,682d556593cb38ad0a074487,,,,,,,,,,,101.1026,101.5921,,,101.8423,102.0441,left,0.1865,,,,,,,,,0.45,,,,,,101.5922,101.8422,102.0443,"[0.14759636217547137,-0.090435225478192]","[-1,-1,-1]","[-0.05669429609390308,-0.15222938881501347]","[-1,-1,-1]","[0.06652692193612184,-0.1774091541914446]","[1,1,1]","[0.060301530452269166,-0.012330653521690188]","[1,1,1]","[-0.017347580250980266,-0.11584296088287566]","[-1,-1,-1]","[-0.09335737701565605,-0.06145546172684138]","[1,1,1]","[-0.07653855845908189,0.011699344771860213]","[-1,-1,-1]","[0.04524785870167491,-0.10349659215035996]","[1,1,1]","[-0.07752526369882554,0.13666830561107557]","[-1,-1,-1]","[-0.18771898132263914,-0.06499405938600003]","[-1,-1,-1]","[-0.17139699134622988,0.039639732230507846]","[1,1,1]","[-0.16035900998335256,-0.11735503363052079]","[1,1,1]","[-0.13108242491178465,0.07744799080253476]","[1,1,1]","[-0.16036208962967657,-0.03311614690485496]","[-1,-1,-1]","[-0.09239500446868054,-0.11413718490424506]","[-1,-1,-1]","[0.002264710205714541,-0.167744985060306]","[-1,-1,-1]","[-0.028971222576399412,0.14027857763348606]","[-1,-1,-1]","[0.09494483084197605,0.0750341189843817]","[-1,-1,-1]","[0.13718227325808807,-0.026028340040577462]","[-1,-1,-1]","[0.0907134454841361,0.13199158196071406]","[1,1,1]","[-0.018686091230258293,-0.007993648177420041]","[-1,-1,-1]","[0.15556054220631296,0.05183691624812496]","[1,1,1]","[0.08857650282593935,-0.12803022910195677]","[-1,-1,-1]","[-0.03578987007862939,-0.054990599044835345]","[-1,-1,-1]","[0.000289855318371451,0.040930849908788126]","[1,1,1]","[0.024024920959374103,0.17700545332527856]","[1,1,1]","[-0.04492830782569387,0.0786808089683236]","[-1,-1,-1]","[-0.1115198090018881,0.03376993092899275]","[1,1,1]","[-0.19802790190459713,-0.01768120291545868]","[-1,-1,-1]","[-0.04189649036284831,-0.19197210974970982]","[1,1,1]","[0.04960803666607579,0.10538538879348434]","[1,1,1]","[0.19033256238498794,-0.017422725814877058]","[-1,-1,-1]","[0.02,0.02]",103.1407,0,4,4,66,1,,,,,,,
,,,,,,,67f8ecba61f42b2394e82833,682db3a63e5d10d94756c12d,2025-05-21_13h20.15.348,cuing_paradigm_dot,2024.1.5,Win32,60.24096386,682d556593cb38ad0a074487,,,,,,,,,,,103.1412,103.6405,,,103.8906,104.1735,right,0.2666,,,,,,,,,0.6,,,,,,103.6405,103.8905,104.1735,"[-0.023500815974268813,0.11232009761386443]","[1,1,1]","[-0.1169168519890202,-0.11113549969807908]","[1,1,1]","[-0.07450442193882083,0.13814096488173613]","[-1,-1,-1]","[0.09723496525678191,0.0017827532826660214]","[1,1,1]","[0.043537446969928666,-0.1268282739387014]","[1,1,1]","[0.17081784775647846,0.028265017102156887]","[1,1,1]","[0.018265559372736804,0.05595854105398921]","[-1,-1,-1]","[-0.011863535493299254,-0.12376801436441905]","[-1,-1,-1]","[-0.12228336130606696,0.12163762689808477]","[1,1,1]","[-0.048667239456351666,-0.04125739111974231]","[-1,-1,-1]","[0.11270476177161624,0.05904647748131269]","[1,1,1]","[-0.17692729433114618,0.007854421358813639]","[1,1,1]","[0.034050028824449845,0.11027875777389809]","[1,1,1]","[-0.050477139624005234,0.019528609015787853]","[-1,-1,-1]","[-0.06473657711394407,0.07041113868593664]","[-1,-1,-1]","[0.16123041164550175,-0.03437532233745817]","[-1,-1,-1]","[-0.10287614169338838,-0.0026220650685261832]","[-1,-1,-1]","[0.1367987417209197,-0.09162672919043675]","[-1,-1,-1]","[0.025232506593872085,0.1979387886439838]","[1,1,1]","[-0.16640118880119023,-0.03325322798220075]","[1,1,1]","[0.10128474119417082,0.13984119769784412]","[-1,-1,-1]","[-0.06944820323622329,-0.17391137790258168]","[-1,-1,-1]","[0.0702582744897088,-0.03166264018302044]","[1,1,1]","[-0.11586739262113457,0.07460898531915461]","[1,1,1]","[0.03743588415981848,-0.056226355887456746]","[1,1,1]","[0.021405616715741187,-0.17402669087211667]","[1,1,1]","[-0.1723480739697061,0.0549430834594125]","[-1,-1,-1]","[-0.03552698326626467,0.16542620260131552]","[-1,-1,-1]","[0.10840780473620515,-0.12050188564143204]","[1,1,1]","[-0.044162731440920325,-0.08391587370928946]","[1,1,1]","[-0.08438403175547134,-0.07592111652902309]","[1,1,1]","[-0.16099276448581906,-0.11720080095921587]","[1,1,1]","[0.02,0.02]",105.2734,0,5,5,170,1,,,,,,,
,,,,,,,67f8ecba61f42b2394e82833,682db3a63e5d10d94756c12d,2025-05-21_13h20.15.348,cuing_paradigm_dot,2024.1.5,Win32,60.24096386,682d556593cb38ad0a074487,,,,,,,,,,,105.2743,105.7716,,,106.0142,106.3645,left,0.3322,,,,,,,,,0.1,,,,,,105.7717,106.0141,106.3646,"[0.16164877259808663,0.0913938729876694]","[-1,-1,-1]","[-0.12329052960769069,-0.014434687269502007]","[1,1,1]","[-0.13554644345051814,-0.0717588389827867]","[-1,-1,-1]","[-0.010916545154896706,0.08364533440897119]","[-1,-1,-1]","[0.13261369036509735,0.13561364680345933]","[-1,-1,-1]","[0.07584096727423596,0.09012843298080224]","[-1,-1,-1]","[-0.079064647186734,-0.06686853404244325]","[1,1,1]","[0.08796496962151074,-0.10542406738686544]","[-1,-1,-1]","[-0.16776594581560017,0.03804179587348406]","[-1,-1,-1]","[0.04236867284512613,-0.03227750795495016]","[-1,-1,-1]","[-0.1702767663672399,0.10292987819519721]","[-1,-1,-1]","[-0.024076278266573752,-0.09969437687401306]","[-1,-1,-1]","[0.14284416277716683,-0.09946026446303156]","[-1,-1,-1]","[-0.09904927981347257,-0.15354879997317994]","[-1,-1,-1]","[-0.02113342524639976,-0.1977345974292091]","[-1,-1,-1]","[0.014627338280813185,-0.16440209856563792]","[1,1,1]","[-0.13110701295587052,0.06893372919779735]","[-1,-1,-1]","[-0.04937057402669417,-0.13927264504322193]","[-1,-1,-1]","[0.03484691482629178,0.1486709355698231]","[-1,-1,-1]","[0.10943311917337865,-0.14495032517256795]","[-1,-1,-1]","[-0.07619960109828602,0.1548153087793479]","[-1,-1,-1]","[0.01555335154413083,0.043707219663220484]","[-1,-1,-1]","[-0.06327683524948433,-0.0027462530877514113]","[-1,-1,-1]","[0.11366123205764453,-0.008418880439474198]","[-1,-1,-1]","[0.09652597972857849,0.1529690544265774]","[-1,-1,-1]","[-0.017263206466433978,-0.03452314611632474]","[-1,-1,-1]","[0.009549177449256447,-0.12412307484731859]","[-1,-1,-1]","[0.07337016967526601,0.03707172083609163]","[-1,-1,-1]","[0.1818363743791397,-0.08304783785768158]","[-1,-1,-1]","[0.11993150497386845,0.07271359239805043]","[-1,-1,-1]","[0.1926453188992638,0.0324195238481266]","[-1,-1,-1]","[0.00391691314808039,0.17932763986755895]","[-1,-1,-1]","[0.02,0.02]",107.4544,0,6,6,12,1,,,,,,,
,,,,,,,67f8ecba61f42b2394e82833,682db3a63e5d10d94756c12d,2025-05-21_13h20.15.348,cuing_paradigm_dot,2024.1.5,Win32,60.24096386,682d556593cb38ad0a074487,,,,,,,,,,,107.4553,107.9539,,,108.1959,108.5993,left,0.3856,,,,,,,,,0.5,,,,,,107.954,108.1959,108.5995,"[-0.086604993399711,0.02794973791390751]","[-1,-1,-1]","[0.1667630379796034,0.10368437464834473]","[-1,-1,-1]","[0.15399961635605164,-0.010641298560509367]","[1,1,1]","[-0.01910304572049877,-0.02740435963624169]","[1,1,1]","[-0.018405793898198776,0.018066627875060224]","[1,1,1]","[0.08905705182196445,0.11243115369389543]","[1,1,1]","[-0.002566741516505222,-0.1346691879493899]","[1,1,1]","[-0.03495004578065694,-0.07318163406661382]","[-1,-1,-1]","[-0.040768840949253024,-0.16577617932539768]","[-1,-1,-1]","[-0.07610789270197653,-0.056166205394494136]","[-1,-1,-1]","[-0.1569348964380283,0.026612774111462057]","[1,1,1]","[0.05667410972840873,0.1907212614642398]","[-1,-1,-1]","[-0.14514717762697393,0.08203197330211877]","[1,1,1]","[0.0909763104479456,-0.1732702969686033]","[1,1,1]","[-0.07260605311005625,0.15814148777018888]","[-1,-1,-1]","[0.01003972105977875,0.19254493087171884]","[1,1,1]","[0.08837509120551132,0.04609150111288345]","[1,1,1]","[-0.1430313590435641,-0.11308599591738801]","[-1,-1,-1]","[0.1199953324356865,-0.08356525601295187]","[1,1,1]","[-0.17676665741272485,-0.046863417675064495]","[-1,-1,-1]","[-0.01804071438656991,0.09531305576164244]","[-1,-1,-1]","[-0.0902889879098305,0.07830562261697448]","[1,1,1]","[0.04094350071239499,-0.16371082889567806]","[1,1,1]","[0.14229003577813565,-0.12146187070639203]","[-1,-1,-1]","[-0.04860303563276349,0.06394040129558103]","[-1,-1,-1]","[0.13107402896332748,0.14727773367578087]","[-1,-1,-1]","[-0.08130839417312721,-0.13559372077284051]","[-1,-1,-1]","[-0.024672529889204008,0.16202968923255054]","[1,1,1]","[0.12990804279707716,0.05799839233187868]","[-1,-1,-1]","[-0.07119634923597973,-0.009485770342451981]","[1,1,1]","[0.09647371255434688,-0.13359611288332782]","[1,1,1]","[0.020402641189297323,0.13168209980812454]","[-1,-1,-1]","[0.02,0.02]",109.7023,0,7,7,94,1,,,,,,,
,,,,,,,67f8ecba61f42b2394e82833,682db3a63e5d10d94756c12d,2025-05-21_13h20.15.348,cuing_paradigm_dot,2024.1.5,Win32,60.24096386,682d556593cb38ad0a074487,,,,,,,,,,,109.7033,110.2007,,,110.4509,110.6189,right,0.1563,,,,,,,,,0.9,,,,,,110.2008,110.4509,110.619,"[-0.1516681870278043,-0.05726758269591582]","[1,1,1]","[0.13639862423557483,-0.03479312418515813]","[1,1,1]","[-0.12393327500705317,0.030642468185426604]","[1,1,1]","[-0.08227751214526646,0.1507457778077284]","[1,1,1]","[0.11228860688946991,0.015610365571331114]","[1,1,1]","[-0.029680779923395493,0.16813432341903164]","[-1,-1,-1]","[-0.078859285713596,-0.10209965473799316]","[1,1,1]","[0.18427732271701233,-0.03178884869416374]","[1,1,1]","[0.05260453862806108,-0.03749935249795002]","[1,1,1]","[0.1250620278253663,0.14223794985037427]","[1,1,1]","[-0.0611684069875567,0.039695671154280694]","[1,1,1]","[-0.07727739782970451,0.08395602899028388]","[1,1,1]","[-0.012762402582767077,-0.07923930920157643]","[1,1,1]","[-0.18442848524097602,0.018911120787782076]","[1,1,1]","[0.056528647685937995,-0.16870888518656285]","[1,1,1]","[-0.01403783131532731,-0.13805735462115787]","[1,1,1]","[-0.1528114753917896,-0.11953318034721362]","[1,1,1]","[0.0953811407529912,0.09500302478643871]","[1,1,1]","[0.031454523846309236,0.17050631190398116]","[1,1,1]","[0.0126490880750147,-0.18425302335930524]","[1,1,1]","[0.08165148185985113,-0.11861898489676184]","[1,1,1]","[-0.10869716809374703,-0.14657049641673028]","[-1,-1,-1]","[0.02514804803365577,0.05200959036190916]","[1,1,1]","[0.17291772660147373,0.025936676938978182]","[1,1,1]","[0.09856816555488199,-0.07428482002073647]","[1,1,1]","[-0.10944801673334188,0.11803254386758014]","[1,1,1]","[0.08412214479504397,0.1637529135902517]","[1,1,1]","[-0.0006204327255144531,0.0064442807231700466]","[1,1,1]","[-0.17405631542909156,0.08801804515078258]","[-1,-1,-1]","[-0.051027329669014236,-0.011907822847280931]","[1,1,1]","[0.029470085637289107,0.11680376176825757]","[1,1,1]","[0.11873048014941606,-0.15969132222945168]","[1,1,1]","[0.02,0.02]",111.7162,0,8,8,206,1,,,,,,,
,,,,,,,67f8ecba61f42b2394e82833,682db3a63e5d10d94756c12d,2025-05-21_13h20.15.348,cuing_paradigm_dot,2024.1.5,Win32,60.24096386,682d556593cb38ad0a074487,,,,,,,,,,,111.7167,112.2166,,,112.4596,112.9483,left,0.4683,,,,,,,,,0.45,,,,,,112.2166,112.4594,112.9483,"[-0.02198892093713327,-0.17046447823223793]","[-1,-1,-1]","[0.040370887995062985,-0.03416074047430605]","[-1,-1,-1]","[-0.1035366533266779,-0.14989604621857114]","[1,1,1]","[-0.07126797617139073,-0.0715268356063388]","[1,1,1]","[-0.12857478123725838,-0.0231882470884964]","[-1,-1,-1]","[-0.13518740942944196,-0.07447068210514406]","[-1,-1,-1]","[-0.04296334702459041,0.12425779777584592]","[1,1,1]","[0.0964070078866012,0.05635633378469266]","[-1,-1,-1]","[-0.012843033235583211,-0.08223249703730183]","[-1,-1,-1]","[0.08360551681249362,-0.032860497762556444]","[-1,-1,-1]","[-0.10815215040949461,0.11011579545513872]","[-1,-1,-1]","[0.011741525453358943,0.1642878167282638]","[-1,-1,-1]","[0.08016965695994886,0.1711236573151123]","[-1,-1,-1]","[0.12502780404663277,-0.09070362577827283]","[1,1,1]","[0.039829688791509804,-0.19110804776924953]","[-1,-1,-1]","[0.007015817912880432,0.008441673529793995]","[1,1,1]","[-0.15298326887140457,0.1110098128194274]","[1,1,1]","[-0.16711826209295938,0.019920707196588297]","[-1,-1,-1]","[0.05615939319797106,0.13469470356899366]","[-1,-1,-1]","[-0.03612285138318147,-0.0107879494754394]","[-1,-1,-1]","[0.147899176832397,0.10459369262515825]","[1,1,1]","[0.012978858649149603,-0.13778829705567638]","[-1,-1,-1]","[-0.17596450732881544,-0.08586400090357227]","[1,1,1]","[0.12566579246288578,-0.028220575261083854]","[1,1,1]","[0.06389863320680186,-0.15798300419048972]","[-1,-1,-1]","[-0.13464541610137265,-0.11703697045906764]","[-1,-1,-1]","[0.10140336305129925,-0.12657237706537328]","[1,1,1]","[-0.18522318779428273,-0.019416169860062265]","[1,1,1]","[0.0017641850753306924,0.0804169602958143]","[1,1,1]","[0.19347066629208606,-0.026122224237191877]","[-1,-1,-1]","[-0.09246628628527576,0.0684239991731686]","[1,1,1]","[-0.08587927012417496,-0.02951166587523794]","[1,1,1]","[0.02,0.02]",114.0493,0,9,9,70,1,,,,,,,
,,,,,,,67f8ecba61f42b2394e82833,682db3a63e5d10d94756c12d,2025-05-21_13h20.15.348,cuing_paradigm_dot,2024.1.5,Win32,60.24096386,682d556593cb38ad0a074487,,,,,,,,,,,114.0501,114.5483,,,114.7967,115.0805,left,0.2658,,,,,,,,,0.4,,,,,,114.5484,114.7967,115.0805,"[-0.12156408977343185,0.11040729433017156]","[1,1,1]","[0.11014981571221454,-0.007686293598284929]","[1,1,1]","[-0.00027727904838977424,-0.046654327856134534]","[-1,-1,-1]","[-0.036123420796329325,-0.14599192045496706]","[-1,-1,-1]","[-0.04190351216727749,0.10887363763816141]","[-1,-1,-1]","[0.09729652697916516,0.1469254101251272]","[-1,-1,-1]","[-0.04074790982540129,-0.1902693841450837]","[1,1,1]","[-0.18004969957981937,-0.0011541415776136438]","[-1,-1,-1]","[-0.13546120998765335,-0.1378058475834453]","[-1,-1,-1]","[0.0033413090305009514,0.053926172125410676]","[-1,-1,-1]","[0.05350636710605264,-0.08944785292056648]","[1,1,1]","[0.03990993373954562,-0.037639013906467726]","[1,1,1]","[-0.04082941217538877,0.15348130905602655]","[-1,-1,-1]","[-0.11037823383158003,-0.022692521488661847]","[-1,-1,-1]","[0.11919345290167542,-0.12919579840140355]","[-1,-1,-1]","[0.19019757302866147,-0.003099822833470811]","[-1,-1,-1]","[-0.1312546388888113,0.027195910200095614]","[1,1,1]","[0.11753604650280239,0.10359349867812837]","[-1,-1,-1]","[-0.08062038342342256,0.11976862082383151]","[-1,-1,-1]","[-0.1405907376671864,-0.08515538409335922]","[1,1,1]","[0.04665561855600737,0.16131031119198821]","[-1,-1,-1]","[0.15772701189939883,0.0587764981051194]","[1,1,1]","[-0.037085746269177905,0.014140165367277182]","[-1,-1,-1]","[-0.07388925921376059,0.033329220720628376]","[1,1,1]","[-0.19104118295574432,0.055256623416821964]","[-1,-1,-1]","[-0.051045837669350794,-0.10321826877453251]","[1,1,1]","[0.0349125784928966,-0.15669213311980462]","[-1,-1,-1]","[-0.09003256693697502,-0.1721983827672703]","[1,1,1]","[0.11426390292973142,-0.05021764889910273]","[1,1,1]","[0.0031264041102636447,0.12158730376648119]","[-1,-1,-1]","[-0.002417127569676432,-0.09255100867600975]","[1,1,1]","[0.17034381748059244,-0.10009689817157139]","[-1,-1,-1]","[0.02,0.02]",116.1785,0,10,10,55,1,,,,,,,
,,,,,,,67f8ecba61f42b2394e82833,682db3a63e5d10d94756c12d,2025-05-21_13h20.15.348,cuing_paradigm_dot,2024.1.5,Win32,60.24096386,682d556593cb38ad0a074487,,,,,,,,,,,116.179,116.6779,,,116.9205,117.2693,right,0.3325,,,,,,,,,0.55,,,,,,116.678,116.9205,117.2696,"[0.1294590882578363,-0.026685173267424533]","[1,1,1]","[0.05952933482076463,0.03589594721375797]","[-1,-1,-1]","[0.014590000504451094,0.1675493984929487]","[1,1,1]","[-0.02815272786125335,-0.014388200506119284]","[1,1,1]","[-0.052198657618571516,0.18062556982409061]","[1,1,1]","[0.1458092480443599,-0.08321513993848614]","[-1,-1,-1]","[0.10750382156180853,0.017900217549116533]","[-1,-1,-1]","[-0.182861089554454,-0.07173583229930532]","[1,1,1]","[-0.007051544383125673,0.033865394035878585]","[1,1,1]","[0.1501694585462446,0.034483264849018515]","[-1,-1,-1]","[-0.1123342608468408,-0.1530830211143137]","[1,1,1]","[-0.03435758756680909,0.0959598755988905]","[-1,-1,-1]","[0.07257264819602527,0.10791529596160629]","[1,1,1]","[-0.10206934934272474,0.03972930518592485]","[-1,-1,-1]","[-0.006184725087359224,0.13113464631718563]","[1,1,1]","[0.05915631656960115,-0.03137853453627699]","[1,1,1]","[-0.03770596587613051,-0.07664590330406293]","[1,1,1]","[-0.0956912268484806,-0.09270102956175905]","[1,1,1]","[-0.15583563468493303,-0.11237598990675624]","[1,1,1]","[-0.17036333273978846,0.09087228211204457]","[-1,-1,-1]","[-0.15707294141313058,0.00678018468801059]","[-1,-1,-1]","[-0.04179291612096178,-0.16043219949954812]","[-1,-1,-1]","[0.009695060139674796,-0.09985449077923146]","[-1,-1,-1]","[-0.11430399729225893,0.09787658994264938]","[1,1,1]","[0.13710981570990274,0.120017760050848]","[1,1,1]","[0.02062156984039037,0.09906879593394202]","[1,1,1]","[0.1742868457236764,-0.008106748340454871]","[1,1,1]","[-0.095602091599351,0.14049810988697542]","[-1,-1,-1]","[0.04430703452363019,-0.07895451002467203]","[-1,-1,-1]","[0.1182343062322933,-0.12577131730111063]","[-1,-1,-1]","[0.06692642655393949,0.15436458156396868]","[-1,-1,-1]","[-0.13201448499861929,-0.03640440518408802]","[1,1,1]","[0.02,0.02]",118.3591,0,11,11,131,1,,,,,,,
,,,,,,,67f8ecba61f42b2394e82833,682db3a63e5d10d94756c12d,2025-05-21_13h20.15.348,cuing_paradigm_dot,2024.1.5,Win32,60.24096386,682d556593cb38ad0a074487,,,,,,,,,,,118.3595,118.8601,,,119.1096,119.6083,right,0.4858,,,,,,,,,0.55,,,,,,118.8601,119.1095,119.6084,"[-0.01964688245992456,0.11080080502542557]","[1,1,1]","[-0.01718386172464299,0.03739968798080921]","[1,1,1]","[-0.005291335214871536,-0.03825461721592061]","[1,1,1]","[0.030602799448535896,-0.15405455785696703]","[-1,-1,-1]","[0.08048746718906143,-0.03834407780372766]","[1,1,1]","[-0.09042958946390622,-0.06726843904174291]","[-1,-1,-1]","[-0.1477175091876668,0.13347432610854226]","[-1,-1,-1]","[-0.1723609810321465,-0.025633973856026476]","[1,1,1]","[0.06656499241330639,0.003097904509284996]","[-1,-1,-1]","[-0.09215117660701168,-0.13820401666522164]","[-1,-1,-1]","[0.07106111918597541,0.16161962839149838]","[-1,-1,-1]","[0.13142826917318207,0.12263715511468413]","[1,1,1]","[-0.07402805021299802,-0.17555076578636625]","[1,1,1]","[-0.12184213848817807,0.07612350340313241]","[1,1,1]","[-0.1798610379323822,0.025049636956786928]","[1,1,1]","[0.01623257539982323,0.07925849288172242]","[-1,-1,-1]","[-0.0882837738076794,0.13571736202377632]","[1,1,1]","[-0.0003008168529823864,0.15151765528508584]","[1,1,1]","[-0.043518137454395416,-0.11180839783667315]","[-1,-1,-1]","[0.10278494025064269,-0.1472232947559723]","[-1,-1,-1]","[-0.16933415653323944,-0.09029622321951025]","[1,1,1]","[-0.0629657634553354,0.028136034607848078]","[-1,-1,-1]","[0.15863104540063228,0.06875537398307818]","[1,1,1]","[0.15436719546702404,0.017422544170111225]","[1,1,1]","[-0.10779711371580131,0.00042872441993865884]","[-1,-1,-1]","[-0.02225469733290024,-0.1460021231642667]","[1,1,1]","[0.06597457238582728,0.12106832219504324]","[-1,-1,-1]","[-0.14690415441501362,-0.12575790543862703]","[-1,-1,-1]","[0.026337880305579035,-0.08160745871754753]","[1,1,1]","[-0.007071681799929182,-0.1961149379706773]","[1,1,1]","[0.16223077428816068,-0.03609204468777166]","[1,1,1]","[-0.05139184615804949,-0.04270877163557496]","[-1,-1,-1]","[0.02,0.02]",120.6996,0,12,12,142,1,,,,,,,
,,,,,,,67f8ecba61f42b2394e82833,682db3a63e5d10d94756c12d,2025-05-21_13h20.15.348,cuing_paradigm_dot,2024.1.5,Win32,60.24096386,682d556593cb38ad0a074487,,,,,,,,,,,120.7009,121.1982,,,121.4493,121.716,left,0.2509,,,,,,,,,0.4,,,,,,121.1982,121.4493,121.716,"[-0.09057070839777048,-0.11808686430516596]","[-1,-1,-1]","[0.13423793482740154,-0.13828174924227596]","[-1,-1,-1]","[0.06702955236737995,0.18243151451258743]","[1,1,1]","[-0.10244914412692072,0.1285557635015375]","[1,1,1]","[0.04354470252040962,0.13453969256000012]","[1,1,1]","[-0.12433475245214146,-0.0852639505569806]","[-1,-1,-1]","[0.05901595592282916,0.01445982142188601]","[-1,-1,-1]","[0.12123085535086976,-0.10044525501316624]","[-1,-1,-1]","[0.13763904408309993,0.06767778793178894]","[1,1,1]","[0.06733106870933592,-0.08092950859317868]","[-1,-1,-1]","[-0.04234375756538516,-0.01586689262582361]","[-1,-1,-1]","[-0.04507213303671673,-0.08895371866603678]","[1,1,1]","[-0.13283168402084727,0.025342517993762848]","[-1,-1,-1]","[-0.002127328073271226,-0.1025881125330559]","[1,1,1]","[0.1518845488334836,0.11747508501717274]","[1,1,1]","[-0.17805545620680532,-0.04414547768172905]","[-1,-1,-1]","[-0.05491829159962201,0.09558185225804756]","[1,1,1]","[0.02824712275361224,-0.14579889808625876]","[-1,-1,-1]","[0.0020526809588721153,0.09677916677420217]","[-1,-1,-1]","[0.15652787158959602,-0.060277464708281374]","[1,1,1]","[0.00356676601313388,-0.04888541582462828]","[1,1,1]","[0.11880725301533655,-0.03682719833775582]","[1,1,1]","[0.08170388678698855,0.06498187872880111]","[1,1,1]","[0.10011169341075536,0.15604808208615897]","[-1,-1,-1]","[-0.07676548163440595,0.1726964699993294]","[-1,-1,-1]","[-0.14299209729207052,0.06488889888756097]","[-1,-1,-1]","[-0.01659860218238969,-0.16451598900994757]","[-1,-1,-1]","[-0.0828431790195444,-0.03912566311298407]","[-1,-1,-1]","[0.08561914560842436,-0.141805817962995]","[-1,-1,-1]","[-0.025901560045103734,0.04431487263473503]","[1,1,1]","[0.1623172882477668,-0.10943085602027788]","[-1,-1,-1]","[0.1727512183876691,0.04358574724024435]","[-1,-1,-1]","[0.02,0.02]",122.8131,0,13,13,42,1,,,,,,,
,,,,,,,67f8ecba61f42b2394e82833,682db3a63e5d10d94756c12d,2025-05-21_13h20.15.348,cuing_paradigm_dot,2024.1.5,Win32,60.24096386,682d556593cb38ad0a074487,,,,,,,,,,,122.8147,123.314,,,123.5641,124.0154,right,0.4343,,,,,,,,,0.45,,,,,,123.314,123.5641,124.0154,"[-0.05345849440051904,0.06434143634255847]","[1,1,1]","[-0.03837864304423983,-0.1901158990479658]","[-1,-1,-1]","[-0.16909532181929413,-0.031452095938063286]","[-1,-1,-1]","[0.04339142981838834,0.10437123177959515]","[1,1,1]","[0.15155936944260023,0.11596309816532505]","[1,1,1]","[0.13959648770851027,-0.08362539199803842]","[1,1,1]","[0.027543231007010165,-0.09089256134101102]","[-1,-1,-1]","[-0.02889649176785065,-0.08163309473940908]","[1,1,1]","[0.09502523924113422,-0.15285300919534295]","[-1,-1,-1]","[-0.0038256273227133806,0.11657164811798866]","[1,1,1]","[-0.09854281915825078,0.03518672750528921]","[-1,-1,-1]","[0.012860156772830538,0.023106872842419864]","[1,1,1]","[-0.0007991407491917714,-0.029074123555823117]","[-1,-1,-1]","[0.17885767567470762,0.04646718141674526]","[-1,-1,-1]","[-0.15166028526996625,-0.08319404963031327]","[-1,-1,-1]","[0.14616451983664525,-0.01733076225606796]","[-1,-1,-1]","[0.06226822485787642,0.17211827815430436]","[1,1,1]","[-0.18820562495816356,0.046753623204042645]","[-1,-1,-1]","[-0.02348108385321466,0.16162690491027804]","[-1,-1,-1]","[0.11845179759758176,0.14502963213598175]","[-1,-1,-1]","[-0.10720677492725805,-0.04415450554134478]","[1,1,1]","[0.05236670457057398,-0.04221736850236287]","[1,1,1]","[0.022565234540282204,-0.16202941371042576]","[1,1,1]","[-0.05802734388004966,0.11054507991004432]","[1,1,1]","[0.1705167678295321,-0.050894110625884934]","[-1,-1,-1]","[-0.06410487246473638,-0.10359835389253727]","[1,1,1]","[0.0788799363491058,-0.07645066682273892]","[-1,-1,-1]","[-0.08288291964284311,-0.1495720133056036]","[-1,-1,-1]","[0.19596893237301152,-0.016905929704348985]","[1,1,1]","[0.08973673889204212,-0.014548158165476418]","[-1,-1,-1]","[0.1247735617544408,0.03175537093979401]","[-1,-1,-1]","[0.014904022113599629,0.0762291352567301]","[-1,-1,-1]","[0.02,0.02]",125.1099,0,14,14,64,1,,,,,,,
,,,,,,,67f8ecba61f42b2394e82833,682db3a63e5d10d94756c12d,2025-05-21_13h20.15.348,cuing_paradigm_dot,2024.1.5,Win32,60.24096386,682d556593cb38ad0a074487,,,,,,,,,,,125.1106,125.6116,,,125.8622,126.4088,right,0.5312,,,,,,,,,0.5,,,,,,125.6117,125.862,126.4088,"[-0.03458265241040219,0.14956683361560447]","[-1,-1,-1]","[0.12351685178398783,-0.11346811149458033]","[-1,-1,-1]","[-0.17845619307667504,-0.012870600321277546]","[1,1,1]","[0.0006325240683961074,0.03709127668979831]","[-1,-1,-1]","[-0.1179624742928186,0.016361129268527015]","[-1,-1,-1]","[0.026316520366008452,-0.15757519569705322]","[-1,-1,-1]","[0.07139968786901052,0.11964825153395527]","[1,1,1]","[0.1198077288345845,-0.0481458914735077]","[1,1,1]","[0.11350996129363955,0.04153249758651823]","[1,1,1]","[-0.08579002696363616,-0.0838632432068964]","[1,1,1]","[-0.04915338913462385,0.03663048454640347]","[-1,-1,-1]","[0.023212625818765893,-0.11476296758353809]","[1,1,1]","[0.0056802934132340705,-0.026000689193133343]","[1,1,1]","[-0.1389260707544792,-0.08878666489143902]","[1,1,1]","[0.03640442095921749,-0.06517114097669822]","[1,1,1]","[-0.07462281611991722,0.1605232550752639]","[-1,-1,-1]","[0.04729741132428762,0.08245869368397998]","[-1,-1,-1]","[-0.1257196135988817,0.07632570111515607]","[-1,-1,-1]","[0.08445624641771195,-0.15261959218681392]","[-1,-1,-1]","[0.10164020729565963,0.15807996231610325]","[-1,-1,-1]","[0.04582450200025279,0.02722265338847209]","[1,1,1]","[0.010603367317259605,0.11646666056715085]","[1,1,1]","[-0.03197555523756988,-0.08182099053451199]","[-1,-1,-1]","[0.04230044030819995,0.18509292846462497]","[-1,-1,-1]","[0.14861379240129044,0.11506999681266392]","[1,1,1]","[0.1898540217003883,0.044126899159087435]","[1,1,1]","[-0.06565777409602587,0.10533913660960591]","[1,1,1]","[0.15910346925669236,0.07044382818454258]","[-1,-1,-1]","[-0.06264328922043548,-0.009381924099283961]","[1,1,1]","[-0.041332051039093924,-0.1591588029233961]","[-1,-1,-1]","[0.17673446715935032,-0.03392356768220695]","[-1,-1,-1]","[0.15862623915443122,0.01900950189542622]","[1,1,1]","[0.02,0.02]",127.5057,0,15,15,99,1,,,,,,,
,,,,,,,67f8ecba61f42b2394e82833,682db3a63e5d10d94756c12d,2025-05-21_13h20.15.348,cuing_paradigm_dot,2024.1.5,Win32,60.24096386,682d556593cb38ad0a074487,,,,,,,,,,,127.5065,128.0091,,,128.2596,128.639,left,0.3605,,,,,,,,,0.5,,,,,,128.0092,128.2596,128.639,"[-0.1627545256646207,0.0326581653031258]","[1,1,1]","[-0.06045001061718757,0.039107263381531344]","[1,1,1]","[-0.07030337051085266,0.16834407776612026]","[1,1,1]","[-0.1369318598192494,0.08345879435669286]","[-1,-1,-1]","[-0.13324702911074413,0.14572447597932967]","[-1,-1,-1]","[-0.09189860012484834,0.13327221765111502]","[-1,-1,-1]","[-0.004326262328623058,0.058666449288097285]","[1,1,1]","[0.028579854183031266,-0.14621392331811767]","[-1,-1,-1]","[0.0804726783540463,-0.05415291656468967]","[1,1,1]","[-0.15190325016799716,-0.03577382104492786]","[1,1,1]","[0.11262146757501836,0.1173944518691299]","[-1,-1,-1]","[0.068891846931125,0.11513604542008415]","[1,1,1]","[0.03891618578345053,0.03358682363404897]","[-1,-1,-1]","[-0.038264940876469304,-0.06400411747295721]","[-1,-1,-1]","[-0.08130181568396204,-0.17693827796009956]","[-1,-1,-1]","[-0.07562749783314875,-0.12028506215197646]","[1,1,1]","[0.026796444028258707,0.10450568300267034]","[-1,-1,-1]","[-0.04242121663894562,0.12125927999009224]","[1,1,1]","[0.16380285466429156,0.07164857089583647]","[1,1,1]","[0.18256710144868943,0.028981197386988088]","[1,1,1]","[-0.09706268181130294,-0.06004503574259294]","[-1,-1,-1]","[0.05932942939557045,0.18408738810722902]","[1,1,1]","[0.1140486775951978,0.05394396219477879]","[-1,-1,-1]","[-0.035860604471404135,-0.1810931815455696]","[1,1,1]","[0.09333829446956929,-0.17279354983313125]","[-1,-1,-1]","[-0.029914479190130263,0.00970445458583657]","[1,1,1]","[-0.12052943597932812,-0.14241544151230878]","[-1,-1,-1]","[0.09226827953211647,-0.12047889890246043]","[-1,-1,-1]","[0.04574609539340673,-0.08215796320745933]","[1,1,1]","[0.0081192290970315,-0.18235804386647783]","[1,1,1]","[0.13269608465773985,-0.00713009044002132]","[-1,-1,-1]","[-0.0065648907384171715,-0.11922349198389622]","[-1,-1,-1]","[0.02,0.02]",129.733,0,16,16,117,1,,,,,,,
,,,,,,,67f8ecba61f42b2394e82833,682db3a63e5d10d94756c12d,2025-05-21_13h20.15.348,cuing_paradigm_dot,2024.1.5,Win32,60.24096386,682d556593cb38ad0a074487,,,,,,,,,,,129.7339,130.232,,,130.4749,130.7904,left,0.2997,,,,,,,,,0.1,,,,,,130.232,130.4748,130.7905,"[0.1695509049910779,0.09311360656192802]","[1,1,1]","[-0.04450967062142394,0.13722184309566107]","[-1,-1,-1]","[0.15195198415620212,0.04083882630209907]","[-1,-1,-1]","[0.03565886158005003,0.14112588716010752]","[-1,-1,-1]","[0.09901522806791269,-0.12780328758844603]","[-1,-1,-1]","[0.1236029906344821,-0.07693978052327888]","[-1,-1,-1]","[0.05518324006365681,0.014965816759833378]","[-1,-1,-1]","[0.08114849364776436,-0.0831003047311258]","[-1,-1,-1]","[-0.07380798881781717,-0.17551606012606466]","[1,1,1]","[-0.006206054088264073,0.08216948630847765]","[-1,-1,-1]","[-0.1259954504356219,0.0803647695003227]","[-1,-1,-1]","[-0.09694837325666496,-0.1381537618927997]","[-1,-1,-1]","[0.009781539489111363,-0.16934368753935938]","[-1,-1,-1]","[-0.0700670058184415,0.04683537761376099]","[-1,-1,-1]","[0.09752297235818261,-0.0350907717155919]","[-1,-1,-1]","[-0.042802573841306354,-0.028563722696942767]","[-1,-1,-1]","[-0.0396441322815439,-0.11408907987976576]","[-1,-1,-1]","[-0.015947306244771912,0.010034595529677602]","[-1,-1,-1]","[-0.016431128998534536,-0.07487448611954098]","[-1,-1,-1]","[0.06292156900761973,-0.17080267848073602]","[-1,-1,-1]","[0.01900336951053988,-0.1148069665930206]","[-1,-1,-1]","[-0.14359320829845726,0.12380760828760551]","[-1,-1,-1]","[0.025352875924252213,-0.01263983039763952]","[-1,-1,-1]","[-0.146044570673408,0.04536955337625849]","[-1,-1,-1]","[-0.11688646962249837,-0.018193120022392966]","[-1,-1,-1]","[0.1255126157254046,0.08825693430568114]","[-1,-1,-1]","[0.05770528682626966,0.06586977679238555]","[-1,-1,-1]","[0.16975129480147283,-0.09627627169542655]","[1,1,1]","[-0.08898836390844829,-0.06775290761121311]","[-1,-1,-1]","[-0.08337636395386314,0.16138769912421172]","[-1,-1,-1]","[-0.1809063070427101,-0.019842694835370166]","[-1,-1,-1]","[0.10127557450785091,0.055564960835459996]","[-1,-1,-1]","[0.02,0.02]",131.8888,0,17,17,10,1,,,,,,,
,,,,,,,67f8ecba61f42b2394e82833,682db3a63e5d10d94756c12d,2025-05-21_13h20.15.348,cuing_paradigm_dot,2024.1.5,Win32,60.24096386,682d556593cb38ad0a074487,,,,,,,,,,,131.8891,132.3786,,,132.6223,133.0544,right,0.4164,,,,,,,,,0.5,,,,,,132.3788,132.6223,133.0546,"[-0.19132870355766096,0.004071448976820443]","[-1,-1,-1]","[0.14422672685718177,-0.08457020378204791]","[-1,-1,-1]","[-0.04083070252024773,0.09086032409217018]","[-1,-1,-1]","[-0.1526157784560137,0.08213166976752678]","[-1,-1,-1]","[0.11528896459652534,0.13959219502148174]","[-1,-1,-1]","[0.05943614179194974,0.11552936987355644]","[-1,-1,-1]","[-0.071288125460221,-0.16082579866348434]","[1,1,1]","[0.030617147301163973,0.06030110897678934]","[1,1,1]","[-0.03494393375698513,-0.1431445600464091]","[-1,-1,-1]","[-0.03049727501150734,0.026390913336312424]","[1,1,1]","[-0.13442739415379956,-0.13448341789146992]","[1,1,1]","[0.03267424979368242,-0.08205259969984197]","[-1,-1,-1]","[0.11869016729520963,-0.04011021471286521]","[-1,-1,-1]","[-0.0775964707194894,-0.0340639815105497]","[-1,-1,-1]","[0.014195730755585131,0.16495489895987897]","[1,1,1]","[-0.10384279267992072,0.05830542634375156]","[1,1,1]","[-0.00889928867673173,-0.027730911046609297]","[1,1,1]","[0.07126552568191125,-0.13822869845045108]","[1,1,1]","[0.07743112865674247,-0.04920742780653697]","[1,1,1]","[0.06428738411187374,0.009704755739101541]","[-1,-1,-1]","[-0.041328805072207486,-0.09079808379078372]","[-1,-1,-1]","[-0.14569990488036888,-0.009740090780420705]","[1,1,1]","[-0.015146362742461488,0.19691205440943868]","[-1,-1,-1]","[0.12671753371569677,0.09948904392472849]","[1,1,1]","[-0.08328221613324893,0.1700951421476878]","[-1,-1,-1]","[0.08789025438659913,0.07400618177208443]","[1,1,1]","[0.16389241240321797,0.06335855507424981]","[1,1,1]","[-0.176619146663062,-0.07541301779262369]","[1,1,1]","[0.0035409293316797353,-0.12401704194019511]","[1,1,1]","[0.16319321053177308,0.02304035491977639]","[1,1,1]","[-0.18687670289984357,0.051188139453475806]","[-1,-1,-1]","[-0.1012217207595452,-0.09963010990637011]","[-1,-1,-1]","[0.02,0.02]",134.1538,0,18,18,97,1,,,,,,,
,,,,,,,67f8ecba61f42b2394e82833,682db3a63e5d10d94756c12d,2025-05-21_13h20.15.348,cuing_paradigm_dot,2024.1.5,Win32,60.24096386,682d556593cb38ad0a074487,,,,,,,,,,,134.1542,134.6536,,,134.9027,135.1831,left,0.2637,,,,,,,,,0.1,,,,,,134.6536,134.9027,135.1832,"[-0.039139898627672025,-0.19391441576949592]","[-1,-1,-1]","[-0.0277037339592366,-0.008060197957020666]","[-1,-1,-1]","[0.03480136948497278,0.1868232074597057]","[-1,-1,-1]","[-0.06901985032797693,-0.013974763141049566]","[-1,-1,-1]","[0.004512006229996124,0.05845274651654843]","[-1,-1,-1]","[0.16427607575118247,-0.021060291409504262]","[-1,-1,-1]","[-0.037826877926084176,-0.10956883828507577]","[-1,-1,-1]","[0.008141173726893387,-0.12893634054997133]","[1,1,1]","[-0.06453118728542402,0.11272788521279413]","[-1,-1,-1]","[0.04874305461793261,-0.1194180830158062]","[-1,-1,-1]","[-0.16379661131874151,-0.013583130441742714]","[-1,-1,-1]","[0.05107846105704543,0.007562643388613195]","[-1,-1,-1]","[0.00564348805538395,-0.045142054723139]","[-1,-1,-1]","[-0.12451148011715153,-0.10741076804470574]","[-1,-1,-1]","[0.10688330095991312,0.014160181271530643]","[1,1,1]","[-0.0502216303248003,0.18075637994831426]","[-1,-1,-1]","[-0.1435443799277203,0.025737261840588103]","[-1,-1,-1]","[-0.17304002416746442,-0.05996357692754763]","[-1,-1,-1]","[0.007530930581714429,0.10198899060309799]","[-1,-1,-1]","[-0.007058462522742704,0.18937539329413583]","[-1,-1,-1]","[-0.07180884212587357,0.0352918692840461]","[-1,-1,-1]","[0.06010943665395069,0.10265980210162165]","[-1,-1,-1]","[-0.16036753715288543,0.09527841167017072]","[-1,-1,-1]","[0.1701669869210997,0.08903463316398645]","[-1,-1,-1]","[0.08278985600426901,0.1695096204940119]","[-1,-1,-1]","[0.12901200887979447,-0.0887143769841437]","[-1,-1,-1]","[-0.04810148905762322,-0.0656992708321973]","[-1,-1,-1]","[-0.07416561133550265,-0.15841604862662473]","[1,1,1]","[0.05976899652088104,0.05036211184312452]","[-1,-1,-1]","[0.12814032655088495,0.14114386245167876]","[-1,-1,-1]","[-0.11144853343415963,0.1195923189702415]","[-1,-1,-1]","[0.07131269432274485,-0.04179489881476722]","[-1,-1,-1]","[0.02,0.02]",136.2765,0,19,19,20,1,,,,,,,
,,,,,,,67f8ecba61f42b2394e82833,682db3a63e5d10d94756c12d,2025-05-21_13h20.15.348,cuing_paradigm_dot,2024.1.5,Win32,60.24096386,682d556593cb38ad0a074487,,,,,,,,,,,136.2776,136.7756,,,137.0291,137.5593,left,0.5205,,,,,,,,,0.5,,,,,,136.7756,137.029,137.5593,"[-0.0719308251335145,-0.10513513396241672]","[-1,-1,-1]","[0.034590311561869425,-0.017641720051823635]","[-1,-1,-1]","[-0.04320619116237291,-0.040421599761113036]","[-1,-1,-1]","[0.03578707876876411,-0.11051137974605921]","[1,1,1]","[0.1265003112249571,-0.12229747983764742]","[1,1,1]","[-0.1885678639605757,0.06267821986576355]","[1,1,1]","[-0.16185061392771227,-0.09078739680240784]","[-1,-1,-1]","[0.1838132408064964,-0.05498071541756752]","[1,1,1]","[0.13386345449846412,-0.01489293641472988]","[1,1,1]","[0.17816707054400252,0.03724391292889071]","[1,1,1]","[-0.15994619665402762,0.10688484692192947]","[1,1,1]","[0.05436608364807151,-0.18161428346702327]","[-1,-1,-1]","[-0.13663934995795188,-0.052862728838817846]","[-1,-1,-1]","[0.037994574018982215,0.07996034268895577]","[1,1,1]","[-0.058690524570792,-0.1567559227078704]","[1,1,1]","[0.007499566746308308,0.1108621515340523]","[-1,-1,-1]","[0.14573943786505894,0.10716531413916666]","[-1,-1,-1]","[0.09420482770147773,0.057412675561809165]","[1,1,1]","[0.09885138754531826,0.10064367596387452]","[1,1,1]","[0.08515011817652267,-0.006969416488225635]","[-1,-1,-1]","[-0.1937659322406981,0.004710005360798888]","[-1,-1,-1]","[-0.11529748592839323,0.1322905916848923]","[1,1,1]","[-0.004103772582440747,0.19336017231247227]","[-1,-1,-1]","[-0.11977675105454628,0.06266008861826332]","[1,1,1]","[-0.042550236086205354,0.1045459456355168]","[-1,-1,-1]","[0.05924488818975306,0.13804249415926734]","[-1,-1,-1]","[-0.08501423530236157,0.16636976032813694]","[1,1,1]","[0.004817852947015317,0.040657806206078194]","[-1,-1,-1]","[-0.0012294808539652577,-0.12651453561332035]","[-1,-1,-1]","[-0.14427061400580363,-0.127109713986155]","[1,1,1]","[-0.05537545518620745,0.03373003071921452]","[-1,-1,-1]","[-0.029105341033629325,-0.0957616467668868]","[1,1,1]","[0.02,0.02]",138.6571,0,20,20,109,1,,,,,,,
,,,,,,,67f8ecba61f42b2394e82833,682db3a63e5d10d94756c12d,2025-05-21_13h20.15.348,cuing_paradigm_dot,2024.1.5,Win32,60.24096386,682d556593cb38ad0a074487,,,,,,,,,,,138.6578,139.1573,,,139.4073,139.6919,left,0.2759,,,,,,,,,0.1,,,,,,139.1573,139.4072,139.6919,"[-0.09015170638441372,-0.04470206303961787]","[-1,-1,-1]","[0.02885231274769393,0.038565205903111084]","[1,1,1]","[-0.04103168972336268,-0.06370109936031777]","[-1,-1,-1]","[0.040977743029024384,0.15670803169549982]","[-1,-1,-1]","[0.1385398780192942,0.000533196431331732]","[-1,-1,-1]","[-0.05755751579822738,-0.002796227726920136]","[-1,-1,-1]","[0.10028983631474203,0.11445093289784795]","[-1,-1,-1]","[0.024922892828349766,-0.012096158397390824]","[-1,-1,-1]","[-0.16657999751082433,-0.04120058913906383]","[-1,-1,-1]","[-0.02093477954668856,-0.1552035243121945]","[-1,-1,-1]","[0.03341546326624089,-0.1323679902328098]","[-1,-1,-1]","[0.14685037028602016,0.1209997179380236]","[-1,-1,-1]","[-0.1779405730170844,-0.0019765222711945864]","[-1,-1,-1]","[-0.006894645300952352,0.08762991602640145]","[-1,-1,-1]","[-0.11719120414581645,0.07145054662140563]","[-1,-1,-1]","[-0.13315687235410312,-0.08432113122350617]","[-1,-1,-1]","[0.04156145551570072,-0.18496250269055603]","[-1,-1,-1]","[0.1053893465711692,0.1591170524365871]","[1,1,1]","[0.09364181023297141,0.04176784468386466]","[-1,-1,-1]","[-0.13928069347135255,0.13172535695035173]","[-1,-1,-1]","[-0.09291542600104265,-0.09230193767370223]","[1,1,1]","[-0.07076674930399024,-0.144763236354578]","[-1,-1,-1]","[-0.11441539718742287,0.01369863880784649]","[-1,-1,-1]","[0.0010868237501638703,0.19182338662097906]","[-1,-1,-1]","[0.07703466572605784,-0.06409010954640214]","[-1,-1,-1]","[0.18784276341896305,0.014569732563429041]","[-1,-1,-1]","[-0.0654650711382678,0.10507009721853695]","[-1,-1,-1]","[-0.07817514068786605,0.1805753986780537]","[-1,-1,-1]","[0.02381565357023154,0.11850966864380498]","[-1,-1,-1]","[0.07790942057969977,-0.15461897239633224]","[-1,-1,-1]","[0.11039961895696053,-0.03145474712451062]","[-1,-1,-1]","[0.12791373797801128,-0.15178902302933975]","[-1,-1,-1]","[0.02,0.02]",140.7879,0,21,21,4,1,,,,,,,
,,,,,,,67f8ecba61f42b2394e82833,682db3a63e5d10d94756c12d,2025-05-21_13h20.15.348,cuing_paradigm_dot,2024.1.5,Win32,60.24096386,682d556593cb38ad0a074487,,,,,,,,,,,140.7883,141.2867,,,141.5371,142.0227,right,0.4681,,,,,,,,,0.6,,,,,,141.2868,141.537,142.0228,"[-0.18691698682617353,0.06340894260666027]","[-1,-1,-1]","[-0.07336815190744696,0.08715082780621182]","[-1,-1,-1]","[0.14495944887729842,0.0682622587306913]","[-1,-1,-1]","[0.03662741624812091,-0.155371047204591]","[1,1,1]","[0.09252594895354276,-0.1329522370666975]","[-1,-1,-1]","[-0.13999648455163619,-0.11140644107424247]","[1,1,1]","[-0.007925939946439947,0.1430403802065588]","[1,1,1]","[0.10129145345955266,0.16506020941300298]","[-1,-1,-1]","[-0.1060551711850749,-0.01746879188837925]","[1,1,1]","[0.050445853375828464,-0.08204066072171824]","[1,1,1]","[0.14400617188685624,0.01573934542445627]","[1,1,1]","[0.004613875925210216,-0.1290395237220993]","[1,1,1]","[-0.05558341257300832,0.1263272812084824]","[1,1,1]","[0.15542348654643018,-0.0659141688150577]","[-1,-1,-1]","[-0.05510004386628577,-0.11202241977950926]","[-1,-1,-1]","[0.023723226407869277,0.0843846912006743]","[1,1,1]","[0.09692355640131468,-0.07439767936674063]","[-1,-1,-1]","[-0.1309576444877819,0.10152163494071301]","[1,1,1]","[-0.1942065331839157,0.006140055038658681]","[1,1,1]","[0.09348916228849713,0.0022703868994857707]","[1,1,1]","[0.12680915125553796,0.1303375289636081]","[1,1,1]","[0.03219415386061419,-0.0031332259388193694]","[-1,-1,-1]","[-0.0907083070926527,0.03264151860964905]","[1,1,1]","[-0.030319658886260557,0.09214140473197648]","[1,1,1]","[0.1548825392217642,-0.1156317233897771]","[1,1,1]","[0.12860812416297693,-0.021412854658397807]","[1,1,1]","[-0.0996871995048474,0.1381642645331763]","[-1,-1,-1]","[0.1848532021850412,0.06060997656366333]","[-1,-1,-1]","[0.05765275297609093,-0.038289353246308784]","[1,1,1]","[-0.16191355770718632,-0.04957591104563284]","[-1,-1,-1]","[-0.17568129926066592,-0.09184622177442038]","[-1,-1,-1]","[-0.12876470044056632,0.05984788285749327]","[1,1,1]","[0.02,0.02]",143.1188,0,22,22,150,1,,,,,,,
,,,,,,,67f8ecba61f42b2394e82833,682db3a63e5d10d94756c12d,2025-05-21_13h20.15.348,cuing_paradigm_dot,2024.1.5,Win32,60.24096386,682d556593cb38ad0a074487,,,,,,,,,,,143.1194,143.6182,,,143.8671,144.1669,left,0.2826,,,,,,,,,0.1,,,,,,143.6183,143.8671,144.167,"[0.1271590889107314,-0.02493201803150302]","[-1,-1,-1]","[-0.14491442248003894,-0.05639938121745692]","[-1,-1,-1]","[0.05390388279328396,-0.16674345480724426]","[-1,-1,-1]","[0.07134355169263508,0.15535778601330913]","[-1,-1,-1]","[-0.053761429212414884,-0.047393258149272775]","[-1,-1,-1]","[-0.06753609465961988,0.02494630409876457]","[-1,-1,-1]","[-0.0011672184784210617,-0.08022975827500317]","[-1,-1,-1]","[-0.06130085890669262,-0.11478932829173592]","[-1,-1,-1]","[-0.08476376718233253,0.1236857438435808]","[1,1,1]","[0.15924819568260795,0.04543011862086247]","[-1,-1,-1]","[0.015285649843081468,0.17831688939174686]","[-1,-1,-1]","[-0.1927148349195468,-0.04625689259875914]","[-1,-1,-1]","[0.07616972533597763,-0.035430318202663756]","[-1,-1,-1]","[-0.11867179850451819,0.046901664622854014]","[-1,-1,-1]","[-0.11523593748757188,-0.13867297987868887]","[-1,-1,-1]","[0.048670382124334076,0.04182808520937596]","[-1,-1,-1]","[0.04613212590977632,-0.06953131617881565]","[-1,-1,-1]","[-0.12241514722187094,-0.0073714742490170815]","[-1,-1,-1]","[0.15837015062662552,-0.08123836826390012]","[1,1,1]","[0.03409968512506401,-0.13074412363417942]","[-1,-1,-1]","[0.09019759494230095,0.08387942929113176]","[-1,-1,-1]","[0.13958508969544248,0.11498890354882185]","[-1,-1,-1]","[-0.048499408743466525,-0.18922916512214666]","[-1,-1,-1]","[-0.00378325637275955,0.12282148703252675]","[-1,-1,-1]","[0.023509282939389187,0.0011345753858823231]","[-1,-1,-1]","[0.10544953488063495,-0.13598141191867386]","[-1,-1,-1]","[-0.0627158364259056,0.17975830851561753]","[-1,-1,-1]","[0.003245238819153711,-0.03657725274261464]","[-1,-1,-1]","[-0.0967265956980313,-0.07633872133631356]","[-1,-1,-1]","[0.05102660241098924,0.10365587057161949]","[1,1,1]","[-0.1516386339834118,0.08903208865194842]","[-1,-1,-1]","[-0.14932148278317434,-0.10299805546514262]","[-1,-1,-1]","[0.02,0.02]",145.2658,0,23,23,24,1,,,,,,,
,,,,,,,67f8ecba61f42b2394e82833,682db3a63e5d10d94756c12d,2025-05-21_13h20.15.348,cuing_paradigm_dot,2024.1.5,Win32,60.24096386,682d556593cb38ad0a074487,,,,,,,,,,,145.2679,145.765,,,146.0177,146.4654,right,0.4327,,,,,,,,,0.9,,,,,,145.7651,146.0176,146.4654,"[-0.08570610156164254,-0.16684840535114695]","[1,1,1]","[0.004372179191042795,0.09426973733750203]","[1,1,1]","[0.027770512076312627,0.1725907301062214]","[1,1,1]","[-0.14157264959873384,0.11078625373284919]","[1,1,1]","[-0.08673620966381687,0.09501932172762623]","[1,1,1]","[-0.010257520015190482,-0.11678572546975037]","[1,1,1]","[0.1624393184081474,-0.014067142399371272]","[1,1,1]","[0.06193276278955215,0.14946870889693464]","[1,1,1]","[-0.18563831583138232,-0.06216073248013475]","[1,1,1]","[0.10951179161784394,0.08816578707545461]","[-1,-1,-1]","[-0.12206816645506756,0.05407449634134366]","[1,1,1]","[0.13377225507964213,-0.08971383225552478]","[1,1,1]","[-0.02186503451606431,0.003719712115826769]","[1,1,1]","[-0.1459561829192358,0.01544835068740776]","[1,1,1]","[0.02797093024739223,-0.14473409396385237]","[-1,-1,-1]","[-0.06531040669091813,-0.11165451719345626]","[1,1,1]","[-0.011156449388143629,-0.16945845688938443]","[1,1,1]","[0.15355360191697154,0.05203587466215843]","[1,1,1]","[-0.12350636284921396,-0.06623624663351718]","[1,1,1]","[-0.052250427364285874,0.1717630946230781]","[-1,-1,-1]","[0.04922124097607125,-0.07973319891015959]","[1,1,1]","[-0.10818843346918912,-0.007682875811003963]","[1,1,1]","[-0.11850860046018907,-0.12990671512058816]","[1,1,1]","[-0.001954198735081,-0.0332070483270355]","[1,1,1]","[0.05734371882583,0.10336605473222595]","[1,1,1]","[0.15413620037249623,0.12639892712414819]","[1,1,1]","[0.0963792352198403,-0.052984223361429175]","[1,1,1]","[0.035516301546472555,0.06614771697946127]","[1,1,1]","[0.17571506291505976,-0.06810814070820878]","[1,1,1]","[-0.05392533354007601,-0.05334300751567587]","[1,1,1]","[-0.014316514324885439,-0.07490905748154812]","[1,1,1]","[0.02778964108911782,0.008435414448476303]","[1,1,1]","[0.02,0.02]",147.5637,0,24,24,197,1,,,,,,,
,,,,,,,67f8ecba61f42b2394e82833,682db3a63e5d10d94756c12d,2025-05-21_13h20.15.348,cuing_paradigm_dot,2024.1.5,Win32,60.24096386,682d556593cb38ad0a074487,,,,,,,,,,,147.5652,148.0631,,,148.3129,148.6298,right,0.3017,,,,,,,,,0.9,,,,,,148.0632,148.3129,148.6298,"[-0.10676169539315811,0.12460144198107209]","[1,1,1]","[-0.17080861943161982,-0.006534858999757785]","[-1,-1,-1]","[0.13511498299358415,0.03497220802593121]","[1,1,1]","[0.12192699102116032,-0.06332579779911114]","[1,1,1]","[-0.1853737162100657,-0.060053275087076495]","[1,1,1]","[-0.04863770781575298,0.175362576662079]","[1,1,1]","[-0.0026758498857923315,-0.1657500549715055]","[1,1,1]","[0.10547447012208624,-0.16319196288089344]","[1,1,1]","[-0.07892408701279212,-0.13995553129208735]","[1,1,1]","[-0.12887642411513925,0.03681029997653757]","[1,1,1]","[0.07945046736650883,0.07320060488359292]","[1,1,1]","[0.054614434385478756,-0.01022375490505657]","[1,1,1]","[-0.066739895529102,0.08677642127578487]","[1,1,1]","[0.08768726665117481,0.13292864280864472]","[1,1,1]","[-0.16457504510920362,0.11287025278907904]","[1,1,1]","[-0.01910345952492749,0.03876821848289404]","[1,1,1]","[0.03339158379176033,-0.10295893970952008]","[-1,-1,-1]","[0.006991819276787506,0.19937784976960768]","[1,1,1]","[-0.01858760952396558,-0.12442088009507132]","[1,1,1]","[-0.1502552344799595,-0.09103208206627063]","[1,1,1]","[-0.06406912247610873,-0.18748510562017087]","[1,1,1]","[-0.061110116922192745,-0.04409923849354338]","[1,1,1]","[0.011575225931281092,0.12530015568833783]","[1,1,1]","[-0.0288296450438813,-0.0853224752943909]","[1,1,1]","[0.10719239589543719,-0.02382888494455465]","[-1,-1,-1]","[0.016993459598093272,0.020371759981142056]","[1,1,1]","[0.09158737742966774,-0.10272981257702583]","[1,1,1]","[0.1911012078717071,-0.04539855562923386]","[1,1,1]","[-0.028495041484665126,0.12182958830221258]","[1,1,1]","[0.17032256283707115,0.0698174139058142]","[1,1,1]","[0.010633948264269309,-0.06807398196472397]","[1,1,1]","[0.012909599440260168,-0.022753956938678568]","[1,1,1]","[0.02,0.02]",149.7385,0,25,25,200,1,,,,,,,
,,,,,,,67f8ecba61f42b2394e82833,682db3a63e5d10d94756c12d,2025-05-21_13h20.15.348,cuing_paradigm_dot,2024.1.5,Win32,60.24096386,682d556593cb38ad0a074487,,,,,,,,,,,149.7401,150.2361,,,150.4129,150.8832,right,0.4513,,,,,,,,,0.55,,,,,,150.2362,150.4129,150.8833,"[0.15487426142484798,-0.010870161621843894]","[1,1,1]","[0.11822063480591545,0.09148729230317439]","[1,1,1]","[0.15850047370231343,0.10619535306389576]","[-1,-1,-1]","[0.16809507205776947,-0.06013172565157184]","[1,1,1]","[0.0671987834546025,0.08355576379293352]","[-1,-1,-1]","[-0.07522785045081772,0.12184092685596867]","[1,1,1]","[0.04045816063556897,-0.15690655652491242]","[1,1,1]","[-0.13958147123783168,-0.0443397757760485]","[-1,-1,-1]","[-0.08788839134613036,-0.05941850300047965]","[-1,-1,-1]","[-0.03357903466314487,0.15366184849042194]","[1,1,1]","[0.08615649405490783,-0.15081991282829588]","[-1,-1,-1]","[-0.0954368297829099,-0.1181356774773135]","[-1,-1,-1]","[0.017299594048772803,0.07083338313652754]","[1,1,1]","[0.026370049194307577,0.16802438897714408]","[-1,-1,-1]","[-0.18278385439254471,0.04854226296737934]","[-1,-1,-1]","[-0.14605176784403512,0.10232790475528343]","[1,1,1]","[-0.025060798057378667,0.03872469537697726]","[1,1,1]","[0.1699945808080278,0.054994981195350665]","[-1,-1,-1]","[-0.026183467137054366,-0.18032002975592604]","[1,1,1]","[-0.07106834140258897,-0.15579899168752476]","[-1,-1,-1]","[0.03564085692471508,0.034732899888798255]","[1,1,1]","[0.10584160777741027,-0.0785229867976736]","[-1,-1,-1]","[-0.0969020761543468,0.040160089342281005]","[1,1,1]","[0.10396071152019311,0.14896605253445244]","[-1,-1,-1]","[0.19493452311166,-0.014996659912575917]","[1,1,1]","[-0.07789844002700252,0.00014587150103123993]","[1,1,1]","[-0.031423031561025466,-0.11243733285227217]","[-1,-1,-1]","[0.06623926537989423,-0.04896955039990871]","[-1,-1,-1]","[0.12410819653174343,0.033043970214688474]","[1,1,1]","[-0.1406710790878534,-0.10375235370828562]","[1,1,1]","[-0.002641468535098948,-0.013410545674625546]","[1,1,1]","[-0.08103915444306513,0.16506008579904866]","[1,1,1]","[0.02,0.02]",151.9769,0,26,26,133,1,,,,,,,
,,,,,,,67f8ecba61f42b2394e82833,682db3a63e5d10d94756c12d,2025-05-21_13h20.15.348,cuing_paradigm_dot,2024.1.5,Win32,60.24096386,682d556593cb38ad0a074487,,,,,,,,,,,151.9775,152.4755,,,152.7196,153.5863,left,0.8509,,,,,,,,,0.55,,,,,,152.4756,152.7193,153.5864,"[-0.03686601354618245,0.08896919450186347]","[1,1,1]","[-0.19044109889846866,0.033727197223388156]","[-1,-1,-1]","[-0.12318143965990756,-0.010099832295458385]","[1,1,1]","[-0.11082847922900675,0.10720647502998064]","[1,1,1]","[0.1353034811587055,0.033925156870894244]","[-1,-1,-1]","[-0.026890562862770716,-0.12248541749924179]","[-1,-1,-1]","[-0.0267572658675211,0.15030728869980842]","[-1,-1,-1]","[-0.08437394130101823,-0.12060584521548173]","[1,1,1]","[-0.1374907765042468,0.14247581904202694]","[1,1,1]","[0.03743608093920892,-0.12850169826790556]","[1,1,1]","[-0.12909774720821393,-0.09625943681083263]","[1,1,1]","[0.10596260190236825,-0.04282126909577564]","[1,1,1]","[0.09862097720946021,0.15248178392833345]","[1,1,1]","[0.17663508461890373,-0.017012911041986625]","[1,1,1]","[-0.18684287690218188,-0.054326000998936946]","[-1,-1,-1]","[-0.013767331291792943,-0.07953896943615033]","[-1,-1,-1]","[0.06075053641528916,-0.07095070780334939]","[-1,-1,-1]","[-0.04685556581206637,-0.16969820586172915]","[-1,-1,-1]","[0.07677684531406166,-0.002237738623377489]","[-1,-1,-1]","[-0.004325705157168653,0.19788388954448743]","[-1,-1,-1]","[0.1392854355580562,-0.12198346101197051]","[1,1,1]","[0.016912061887342452,0.1510744407048858]","[1,1,1]","[0.17551188178394742,0.07680451496295604]","[1,1,1]","[0.03499640445070157,-0.00884546987545883]","[-1,-1,-1]","[0.017613590712194926,0.0885394357998128]","[1,1,1]","[-0.07100133677213273,-0.047280892341990934]","[-1,-1,-1]","[-0.06705919950731065,0.05912059698195004]","[1,1,1]","[0.15192119498526788,0.11091251225665655]","[-1,-1,-1]","[-0.07367515671200872,0.14979795952833422]","[1,1,1]","[-0.14571528854823115,0.03656868366334911]","[1,1,1]","[-0.11740063309599283,-0.14757821223757656]","[-1,-1,-1]","[0.0936687475820815,-0.1522912913744236]","[1,1,1]","[0.02,0.02]",154.6833,0,27,27,128,1,,,,,,,
,,,,,,,67f8ecba61f42b2394e82833,682db3a63e5d10d94756c12d,2025-05-21_13h20.15.348,cuing_paradigm_dot,2024.1.5,Win32,60.24096386,682d556593cb38ad0a074487,,,,,,,,,,,154.6869,155.1784,,,155.4337,156.0468,right,0.598,,,,,,,,,0.6,,,,,,155.1784,155.4336,156.0469,"[-0.055763665757742574,-0.017404025501358035]","[-1,-1,-1]","[0.0028175265073593116,-0.09709653647058818]","[1,1,1]","[-0.11483878590077534,-0.08518302870969564]","[-1,-1,-1]","[0.12580678196924444,0.06488228937445911]","[-1,-1,-1]","[-0.07584985840132143,0.10226990466882799]","[1,1,1]","[-0.06382288653288062,-0.16372773355207518]","[-1,-1,-1]","[-0.12922109769825182,0.10176034578656669]","[1,1,1]","[-0.1319744910027284,0.00010265446880575842]","[1,1,1]","[0.028812055045581736,-0.007077975404724434]","[1,1,1]","[-0.18963490967683724,-0.04809528435602374]","[-1,-1,-1]","[0.07297047392265354,0.019463617200376024]","[-1,-1,-1]","[-0.07207732595426082,0.17346124978403513]","[1,1,1]","[0.06987077514613646,-0.12814002160245697]","[1,1,1]","[0.01715487470104349,0.03472893692706414]","[1,1,1]","[-0.0416841865989941,0.06603804452274356]","[-1,-1,-1]","[-0.144187088544277,0.04043013206263792]","[-1,-1,-1]","[0.13019148449920978,-0.017181033189933064]","[-1,-1,-1]","[0.07747339859132688,-0.037759358729767815]","[-1,-1,-1]","[-0.04469597086458808,0.12886191013696954]","[-1,-1,-1]","[-0.013854442528673605,-0.16179830780537435]","[-1,-1,-1]","[-0.14601504418763045,-0.13433674639720963]","[1,1,1]","[-0.008068825510720877,-0.036917524811482784]","[1,1,1]","[0.08450882181082563,0.16637660092476633]","[1,1,1]","[0.028513793908535645,0.07923593001327284]","[-1,-1,-1]","[0.1613076172561286,0.10674582996535037]","[1,1,1]","[0.03228577676011429,0.12859779697970442]","[1,1,1]","[-0.12656082638670185,0.1452353138665307]","[1,1,1]","[0.0382074329082463,-0.19512452456789497]","[1,1,1]","[0.13423124111935553,0.13744064181450005]","[1,1,1]","[-0.17186928348632208,0.07741452893376399]","[1,1,1]","[0.182558255936547,0.010760182841736406]","[1,1,1]","[0.1927646478116971,-0.028206230502853355]","[1,1,1]","[0.02,0.02]",157.1473,0,28,28,162,1,,,,,,,
,,,,,,,67f8ecba61f42b2394e82833,682db3a63e5d10d94756c12d,2025-05-21_13h20.15.348,cuing_paradigm_dot,2024.1.5,Win32,60.24096386,682d556593cb38ad0a074487,,,,,,,,,,,157.1481,157.6479,,,157.8874,158.3722,right,0.4688,,,,,,,,,0.6,,,,,,157.6479,157.8873,158.3722,"[-0.04261296051256818,-0.1242377459726377]","[1,1,1]","[0.14843798183014628,-0.09078823031320056]","[1,1,1]","[0.11000071973320455,-0.044658829882900285]","[1,1,1]","[0.14517694229323866,0.11661817779557931]","[1,1,1]","[0.12759527979539814,0.06728686860422953]","[-1,-1,-1]","[0.198383714145613,-0.012357557000904802]","[1,1,1]","[0.11373719495869396,-0.1491706921605741]","[1,1,1]","[-0.01255500087344068,0.047556899712194976]","[1,1,1]","[0.0419167391862376,0.08414853121046241]","[-1,-1,-1]","[0.02929605312023642,-0.10691500746010148]","[1,1,1]","[-0.13204297453527045,-0.06972354430739239]","[1,1,1]","[0.019457008436732502,-0.03047689582221951]","[-1,-1,-1]","[-0.1922598980661326,-0.04465748313241635]","[-1,-1,-1]","[-0.04691433686374775,0.1060397783332052]","[1,1,1]","[-0.06728901139532568,0.0614623876160436]","[1,1,1]","[0.020112446844209812,0.16984667893839658]","[1,1,1]","[0.043806184001851683,0.1309817949614537]","[1,1,1]","[-0.09368923813635643,0.11563350736128154]","[-1,-1,-1]","[-0.10218446172325378,-0.13925623240348148]","[1,1,1]","[0.07910171194085167,0.04085891329134185]","[-1,-1,-1]","[-0.1817818249536177,0.05297202058204062]","[-1,-1,-1]","[0.08475323633712857,-0.08875767450079569]","[1,1,1]","[-0.14570358894214328,0.0009811130432986527]","[1,1,1]","[-0.06311753820121664,0.16279574935893779]","[-1,-1,-1]","[-0.13697194350471262,0.040295644109364905]","[-1,-1,-1]","[-0.19647063597242947,-0.0024079026062253446]","[-1,-1,-1]","[0.0009517810380524527,-0.15985840214105204]","[-1,-1,-1]","[0.06900644983927477,-0.031535050474568935]","[1,1,1]","[0.12493773365583562,-0.003050821797504181]","[1,1,1]","[-0.07495155873876742,-0.04116517741165384]","[-1,-1,-1]","[-0.15610167914412734,0.12368737574368179]","[-1,-1,-1]","[0.16548607814358915,-0.04299636838713024]","[1,1,1]","[0.02,0.02]",159.464,0,29,29,178,1,,,,,,,
,,,,,,,67f8ecba61f42b2394e82833,682db3a63e5d10d94756c12d,2025-05-21_13h20.15.348,cuing_paradigm_dot,2024.1.5,Win32,60.24096386,682d556593cb38ad0a074487,,,,,,,,,,,159.4652,159.9578,,,160.2015,160.4716,left,0.2543,,,,,,,,,0.5,,,,,,159.9579,160.2015,160.4717,"[0.06146613708068758,-0.16896033206456376]","[-1,-1,-1]","[0.11571592975995043,-0.12753500994303205]","[-1,-1,-1]","[0.03820845042371009,-0.005202061932237776]","[-1,-1,-1]","[-0.03696445777909653,0.05305225168140565]","[-1,-1,-1]","[-0.004573533487385666,0.08699132448218459]","[1,1,1]","[-0.07453954506254229,0.036311355832876376]","[1,1,1]","[-0.12197800651242349,0.09535736046159152]","[-1,-1,-1]","[0.0444639624187113,0.0566046265865485]","[-1,-1,-1]","[0.17268976656981896,0.05041088924459338]","[1,1,1]","[-0.17978187751420835,-0.02374551647030728]","[-1,-1,-1]","[-0.1510001238065548,0.016223088793404842]","[1,1,1]","[0.09011166728777374,-0.0433452856192036]","[1,1,1]","[0.14980973383207385,-0.031659161311047616]","[-1,-1,-1]","[0.19309679598229681,-0.0311039821122894]","[1,1,1]","[0.1395861345257095,-0.08968449779216096]","[1,1,1]","[-0.018520200687440657,0.19026021396690446]","[1,1,1]","[0.13653786483303962,0.14226825041393493]","[-1,-1,-1]","[0.03410862165412884,0.18486220583293822]","[-1,-1,-1]","[-0.06814646719067342,-0.018390798391866258]","[1,1,1]","[-0.025150806470540486,-0.10686145887984264]","[1,1,1]","[-0.1030557737599284,0.002480902923333512]","[-1,-1,-1]","[0.01984676268084012,-0.08553450761445652]","[1,1,1]","[-0.09298268122659009,-0.16400772257477608]","[1,1,1]","[-0.0754541359141746,0.14803809536120602]","[1,1,1]","[0.0011696760917980743,-0.15474769033462746]","[-1,-1,-1]","[0.10711492747366862,0.029225185934195555]","[1,1,1]","[-0.014907215980274112,-0.007972690667521308]","[-1,-1,-1]","[-0.03485302571304753,-0.04468613117331443]","[-1,-1,-1]","[0.09462882879918619,0.10490553919987222]","[1,1,1]","[-0.08497911383916086,-0.07704882977650579]","[1,1,1]","[0.07534701764423525,-0.09287813873193082]","[-1,-1,-1]","[-0.17564506405982883,0.06308887801449602]","[-1,-1,-1]","[0.02,0.02]",161.5599,0,30,30,107,1,,,,,,,
,,,,,,,67f8ecba61f42b2394e82833,682db3a63e5d10d94756c12d,2025-05-21_13h20.15.348,cuing_paradigm_dot,2024.1.5,Win32,60.24096386,682d556593cb38ad0a074487,,,,,,,,,,,161.561,162.0569,,,162.3091,162.98,left,0.6545,,,,,,,,,0.1,,,,,,162.0569,162.3091,162.9801,"[-0.16254667358896055,0.000019156052224130908]","[-1,-1,-1]","[-0.07422401583494884,0.1699791277385197]","[-1,-1,-1]","[-0.14114395843667196,0.040489918581394654]","[-1,-1,-1]","[-0.02458371579180802,0.0329304840393253]","[-1,-1,-1]","[0.03622712568500489,-0.13397955469460704]","[-1,-1,-1]","[0.12040591527002394,0.14670507761637847]","[-1,-1,-1]","[-0.06370840916363343,-0.06632908517299348]","[-1,-1,-1]","[-0.09451810548068407,0.12956725521311085]","[-1,-1,-1]","[-0.021467572263360615,-0.17902267905214636]","[-1,-1,-1]","[-0.11424662675352745,-0.008399290559067966]","[-1,-1,-1]","[0.13103788476718992,-0.0460631304239963]","[-1,-1,-1]","[-0.09093825025848506,-0.10784220554117813]","[1,1,1]","[0.03206024731686281,-0.08670895768439714]","[-1,-1,-1]","[0.07656371021853495,-0.12403950039424115]","[-1,-1,-1]","[-0.19426113065493453,-0.04241569712765985]","[-1,-1,-1]","[-0.0016580900758167154,0.19858296957858226]","[-1,-1,-1]","[-0.07009641775524608,0.015299861924555434]","[1,1,1]","[0.11319807930349754,-0.08399657824080536]","[-1,-1,-1]","[0.17059113071730614,0.09708582266919999]","[-1,-1,-1]","[0.0474291684413518,0.06183711315390705]","[-1,-1,-1]","[0.10333429154455999,0.014384094938302552]","[-1,-1,-1]","[0.11720365093454961,-0.12888042035162173]","[-1,-1,-1]","[0.09608525025676838,-0.16380976700733751]","[-1,-1,-1]","[0.06285124015812674,0.13587251619472945]","[-1,-1,-1]","[0.195314489326563,0.017197397930897824]","[-1,-1,-1]","[0.05060256988704864,-0.04115356299895243]","[-1,-1,-1]","[-0.10198396868611354,-0.1633665587650131]","[-1,-1,-1]","[-0.04128970643932919,-0.12472531950413682]","[-1,-1,-1]","[0.004231843900419844,0.13359323270546414]","[1,1,1]","[-0.06922133426721536,0.08491128575401695]","[-1,-1,-1]","[-0.13651308966921127,0.10587887228700037]","[-1,-1,-1]","[0.004018673532661676,0.08128516739596972]","[-1,-1,-1]","[0.02,0.02]",164.0731,0,31,31,3,1,,,,,,,
,,,,,,,67f8ecba61f42b2394e82833,682db3a63e5d10d94756c12d,2025-05-21_13h20.15.348,cuing_paradigm_dot,2024.1.5,Win32,60.24096386,682d556593cb38ad0a074487,,,,,,,,,,,164.0739,164.5728,,,164.8261,165.2731,right,0.4327,,,,,,,,,0.6,,,,,,164.5729,164.8259,165.2731,"[-0.1381825581172405,-0.07040397454133171]","[-1,-1,-1]","[0.06441380266867426,0.12994884674288498]","[-1,-1,-1]","[0.11479115618610797,0.10082302093576738]","[1,1,1]","[0.036756266599452615,-0.1867746737057695]","[-1,-1,-1]","[-0.09928502566388923,-0.11186777437819445]","[1,1,1]","[0.013987592606945317,0.14190899970722023]","[-1,-1,-1]","[-0.08417292374054376,0.08829639146530588]","[-1,-1,-1]","[0.039434376578511905,-0.035100476741491124]","[1,1,1]","[-0.037610945080848446,-0.1241802611404333]","[-1,-1,-1]","[0.036782541890813834,0.04768533156348883]","[1,1,1]","[-0.034029569563704086,0.009522504810533189]","[1,1,1]","[0.08971231831569484,-0.025473910521424448]","[-1,-1,-1]","[0.17453743115729559,-0.07831662866483258]","[1,1,1]","[-0.0501245976947148,0.11723663665004158]","[1,1,1]","[0.15030180643291868,0.06991386712493569]","[1,1,1]","[-0.0996408039540022,-0.00041560616508224145]","[-1,-1,-1]","[-0.0610154680910027,-0.07220289225138554]","[-1,-1,-1]","[0.1067249293001498,0.02507810343709311]","[1,1,1]","[-0.1509655824380348,-0.00887170759652272]","[1,1,1]","[-0.14612042312319629,0.09481627931869005]","[1,1,1]","[-0.03732688668898465,0.059685857898188345]","[1,1,1]","[0.08169559562827639,-0.16727354900841745]","[-1,-1,-1]","[0.0005393320204768379,-0.07330246065102718]","[1,1,1]","[0.12450191688045481,-0.0558696741763239]","[1,1,1]","[-0.05217716518712051,-0.17426677457913564]","[-1,-1,-1]","[-0.032440417954664964,0.1804784069440229]","[1,1,1]","[0.0734163334501302,-0.07854332569792592]","[1,1,1]","[-0.079912411940691,0.04417949677079848]","[1,1,1]","[-0.12235652229536784,0.1288450520602141]","[-1,-1,-1]","[0.15170952056883044,0.0018153505299791156]","[1,1,1]","[-0.13010733112653708,-0.14486151389190882]","[1,1,1]","[0.08051009916161736,0.07041895796255579]","[-1,-1,-1]","[0.02,0.02]",166.4128,0,32,32,176,1,,,,,,,
,,,,,,,67f8ecba61f42b2394e82833,682db3a63e5d10d94756c12d,2025-05-21_13h20.15.348,cuing_paradigm_dot,2024.1.5,Win32,60.24096386,682d556593cb38ad0a074487,,,,,,,,,,,166.4133,166.501,,,166.5161,167.9893,left,1.4635,,,,,,,,,0.4,,,,,,166.5011,166.516,167.9894,"[0.05151135786612955,0.129195251927843]","[-1,-1,-1]","[-0.10757148566571889,0.03848359760522243]","[-1,-1,-1]","[0.09750767515560055,0.1582572935940028]","[1,1,1]","[-0.09454162935553873,-0.1289185449280205]","[1,1,1]","[0.14204775229092678,-0.11696361279994699]","[-1,-1,-1]","[-0.16597926193808038,-0.0016316173014997665]","[-1,-1,-1]","[0.01243236360304119,-0.07151450996475804]","[-1,-1,-1]","[-0.19000002158158466,-0.06088691590968357]","[-1,-1,-1]","[-0.05714605382515279,-0.05715463240393137]","[1,1,1]","[-0.019895888712397867,0.07639623770661465]","[-1,-1,-1]","[-0.09657667376547856,0.11358259253521522]","[1,1,1]","[0.023914684545039464,0.019494859088707427]","[1,1,1]","[0.18199042353425454,-0.015332421906987054]","[1,1,1]","[-0.06877466309909583,0.17568940186406382]","[-1,-1,-1]","[0.0724239974799124,0.043004539685156946]","[-1,-1,-1]","[-0.13680288015022407,0.09657977706167571]","[1,1,1]","[0.124928785511536,-0.010615894307932895]","[-1,-1,-1]","[0.044242612823847186,0.17207075366004448]","[1,1,1]","[0.03955228326384529,-0.1869173300457459]","[1,1,1]","[0.10306539460142809,-0.07302413778346584]","[-1,-1,-1]","[-0.16943113771523063,-0.10573098003995339]","[1,1,1]","[0.15464117354836904,0.03317522536544583]","[1,1,1]","[-0.048668422823780755,0.04218659843621715]","[-1,-1,-1]","[-0.033668916419490845,-0.17163553996051578]","[-1,-1,-1]","[-0.03086721463747831,-0.08820549689739447]","[-1,-1,-1]","[0.08957066494134472,0.10999672252122611]","[-1,-1,-1]","[-0.18383200348073508,0.07186061043278844]","[-1,-1,-1]","[0.09678836418652999,-0.14572611250296588]","[1,1,1]","[-0.032133896389948194,-0.008563200815964471]","[-1,-1,-1]","[0.04636363812912196,-0.023110146660079503]","[-1,-1,-1]","[0.15640166887298224,-0.060163330028689295]","[1,1,1]","[-0.09785250938965012,-0.0457851707134754]","[-1,-1,-1]","[0.02,0.02]",169.0854,0,33,33,49,1,,,,,,,
,,,,,,,67f8ecba61f42b2394e82833,682db3a63e5d10d94756c12d,2025-05-21_13h20.15.348,cuing_paradigm_dot,2024.1.5,Win32,60.24096386,682d556593cb38ad0a074487,,,,,,,,,,,169.086,169.5855,,,169.8266,170.198,right,0.3604,,,,,,,,,0.55,,,,,,169.5857,169.8265,170.198,"[0.0744759101666078,0.06588349070619509]","[-1,-1,-1]","[-0.14706057812481035,0.01306024356346798]","[1,1,1]","[0.05398697051981291,-0.044248975709463775]","[-1,-1,-1]","[-0.046561346137440354,-0.09477102065774948]","[1,1,1]","[0.0866049420360823,-0.1712636272211905]","[-1,-1,-1]","[-0.10918342041436732,-0.0955417264812133]","[1,1,1]","[-0.08689058322803525,-0.13196590677774206]","[1,1,1]","[0.12514537382759788,-0.003201863962276965]","[1,1,1]","[0.02956138357366954,0.048394736891858886]","[-1,-1,-1]","[-0.0005571537697597644,-0.10107009933438839]","[-1,-1,-1]","[-0.07756929253260324,0.006825992114321343]","[1,1,1]","[0.17474128943556838,0.06021709196233131]","[-1,-1,-1]","[0.058597143360837795,0.11225274673563945]","[-1,-1,-1]","[-0.012022935770797686,0.14554711601314663]","[-1,-1,-1]","[-0.17348698175844318,-0.08744740037809444]","[-1,-1,-1]","[-0.06252330071948517,-0.16458484331538448]","[1,1,1]","[0.15941196222589474,0.11741667834217476]","[1,1,1]","[0.0527144432916001,-0.13499411061709843]","[1,1,1]","[0.1039869276904781,0.13837745118409103]","[1,1,1]","[-0.17821650868799957,-0.03743334425504096]","[-1,-1,-1]","[0.15223730198490365,-0.05477397314530155]","[1,1,1]","[-0.028389324033847602,-0.025480170835369836]","[1,1,1]","[-0.1350688262996987,-0.05537345266212223]","[1,1,1]","[-0.11636615377133881,0.04887936092086232]","[1,1,1]","[-0.1028336129195871,0.1595956453893364]","[-1,-1,-1]","[-0.04199981369877964,0.18534568597449866]","[1,1,1]","[0.12680264657353563,-0.1287388758205765]","[1,1,1]","[0.010825716736912853,0.19231289555067793]","[1,1,1]","[-0.15662536876349553,0.12234822470148767]","[1,1,1]","[0.07457877414901617,0.021991563458363284]","[-1,-1,-1]","[-0.07696368470637618,0.07337216793280206]","[-1,-1,-1]","[-0.1427166762369268,-0.12266507000812685]","[-1,-1,-1]","[0.02,0.02]",171.3004,0,34,34,121,1,,,,,,,
,,,,,,,67f8ecba61f42b2394e82833,682db3a63e5d10d94756c12d,2025-05-21_13h20.15.348,cuing_paradigm_dot,2024.1.5,Win32,60.24096386,682d556593cb38ad0a074487,,,,,,,,,,,171.3019,171.7999,,,172.042,173.2747,left,1.2191,,,,,,,,,0.4,,,,,,171.8001,172.0419,173.2747,"[-0.140345910994062,0.02703163215915301]","[-1,-1,-1]","[-0.09938156220511818,0.03353597883464123]","[-1,-1,-1]","[0.11098241796077868,-0.15940094592684656]","[-1,-1,-1]","[-0.1870985711479582,0.013961538079260505]","[1,1,1]","[0.1416474256622227,0.04546513162890936]","[-1,-1,-1]","[0.04912996392330578,-0.03760106974680687]","[-1,-1,-1]","[-0.08170786211359901,-0.15914180188592625]","[-1,-1,-1]","[-0.12370755852174714,0.1484377474049031]","[1,1,1]","[0.03546660099402791,-0.15777960901710625]","[-1,-1,-1]","[-0.06994157524025206,0.13953855615682192]","[-1,-1,-1]","[-0.0869991712633371,-0.05689134297886537]","[1,1,1]","[-0.10261175646606385,0.09158365728595089]","[1,1,1]","[-0.029828680563263755,-0.11605268622803482]","[-1,-1,-1]","[0.061076600808090166,-0.11793077434362172]","[1,1,1]","[0.032365396369419056,0.016319842649882545]","[1,1,1]","[-0.006715268058184681,-0.026443398745036675]","[1,1,1]","[0.11446966422833593,-0.037220388087299404]","[1,1,1]","[0.18800660187266036,-0.0429852064223704]","[1,1,1]","[-0.011997150477328843,-0.1838384691565748]","[1,1,1]","[-0.07122221443366049,-0.10616905927491523]","[1,1,1]","[0.09547987717889365,0.0021250797268866787]","[-1,-1,-1]","[0.021551375219998253,0.14151041030238676]","[-1,-1,-1]","[-0.13095312848731339,-0.04333210007768429]","[-1,-1,-1]","[0.014231558586066808,0.10174883550356491]","[1,1,1]","[0.1341439704576891,-0.08423763033960108]","[-1,-1,-1]","[-0.19111802161997513,-0.03397584853446705]","[-1,-1,-1]","[0.03383149843688177,0.19610447463099887]","[-1,-1,-1]","[0.06769027371859375,0.07004060538315696]","[-1,-1,-1]","[-0.046691669210672984,0.03260428604109886]","[1,1,1]","[-0.0509203005470409,-0.03796378253848278]","[-1,-1,-1]","[0.10689616386083756,0.09285752879793806]","[-1,-1,-1]","[-0.03791261445353321,0.09132997060596884]","[-1,-1,-1]","[0.02,0.02]",174.3711,0,35,35,48,1,,,,,,,
,,,,,,,67f8ecba61f42b2394e82833,682db3a63e5d10d94756c12d,2025-05-21_13h20.15.348,cuing_paradigm_dot,2024.1.5,Win32,60.24096386,682d556593cb38ad0a074487,,,,,,,,,,,174.3716,174.8722,,,175.1207,175.4579,left,0.3273,,,,,,,,,0.1,,,,,,174.8723,175.1207,175.458,"[0.14480240060416744,0.10580826677722956]","[-1,-1,-1]","[-0.06139665100642204,-0.07627963506029717]","[-1,-1,-1]","[-0.07815368794381986,0.10556655862874631]","[-1,-1,-1]","[-0.026087313673333164,0.13220342694558931]","[-1,-1,-1]","[-0.16102343346840042,0.040657105669476515]","[-1,-1,-1]","[0.05935982258057588,-0.1183501414843999]","[-1,-1,-1]","[0.12905766620395187,0.02049144269736245]","[-1,-1,-1]","[0.020518153138483257,0.15588636973222367]","[-1,-1,-1]","[-0.09279395182204407,-0.14774758166300322]","[-1,-1,-1]","[-0.05185816281165252,-0.1725343582253895]","[-1,-1,-1]","[0.051528729663476235,-0.00525374471194022]","[-1,-1,-1]","[0.08873695516219067,0.023292659564823195]","[-1,-1,-1]","[0.16599975645863638,-0.025740754588005225]","[-1,-1,-1]","[-0.1392415560350886,-0.054744722220309204]","[-1,-1,-1]","[-0.04212347155129851,0.01731516501578901]","[-1,-1,-1]","[-0.03562766273669421,0.17658859167992957]","[-1,-1,-1]","[0.16113880905692504,0.04839615556466004]","[-1,-1,-1]","[0.030686647496757372,0.09665205159462409]","[-1,-1,-1]","[-0.09269459880291255,0.16458430670046817]","[-1,-1,-1]","[-0.1043429902087835,-0.007922562987234708]","[-1,-1,-1]","[0.0004643725562399268,0.026731097180713936]","[1,1,1]","[0.08666864346513566,0.136914141729765]","[-1,-1,-1]","[-0.009171238015953239,-0.18950989875030402]","[-1,-1,-1]","[0.0082008650189758,-0.13062588371111927]","[-1,-1,-1]","[-0.11293711819293618,0.1294828967920711]","[-1,-1,-1]","[-0.10644789426599123,-0.10985393332729237]","[-1,-1,-1]","[0.09140620035504554,-0.17205845850622814]","[-1,-1,-1]","[0.0620588551272998,-0.06001247089520623]","[-1,-1,-1]","[-0.14292884910813117,-0.13966783987319684]","[-1,-1,-1]","[0.1582036223724888,-0.11670362316077615]","[-1,-1,-1]","[0.07071676921190743,0.08091003331764919]","[1,1,1]","[-0.1665977053510439,0.10821474100640802]","[1,1,1]","[0.02,0.02]",176.5543,0,36,36,28,1,,,,,,,
,,,,,,,67f8ecba61f42b2394e82833,682db3a63e5d10d94756c12d,2025-05-21_13h20.15.348,cuing_paradigm_dot,2024.1.5,Win32,60.24096386,682d556593cb38ad0a074487,,,,,,,,,,,176.5547,177.044,,,177.2938,177.8739,right,0.571,,,,,,,,,0.45,,,,,,177.044,177.2938,177.8739,"[-0.01476024159731101,0.07182064184001186]","[-1,-1,-1]","[0.016577016438263748,0.18214230440573767]","[1,1,1]","[0.020710826594139493,0.1242818741039084]","[-1,-1,-1]","[-0.12325174416309428,0.05445419584181656]","[-1,-1,-1]","[0.0225397181127251,0.006416415909953823]","[-1,-1,-1]","[-0.11626622190046484,-0.15118195865396813]","[-1,-1,-1]","[0.10312775149941811,-0.09888665530873887]","[-1,-1,-1]","[-0.06999493895755589,-0.16025475039249612]","[-1,-1,-1]","[0.15385623544621338,-0.07269302345729758]","[1,1,1]","[-0.02599905807621139,-0.18861131719170926]","[1,1,1]","[-0.15728427944564644,-0.1176127287904971]","[-1,-1,-1]","[-0.1539001754750703,0.019813281762539898]","[1,1,1]","[0.06131804771321527,-0.019076389802469368]","[1,1,1]","[0.16758441873245078,0.005282152506611405]","[-1,-1,-1]","[-0.09425650220872638,-0.020126460313019942]","[1,1,1]","[0.0520994221969839,-0.17015674950297496]","[-1,-1,-1]","[-0.06683613060753905,-0.05521717840382957]","[1,1,1]","[-0.0013631489689696697,-0.1521826342052387]","[1,1,1]","[0.021790157911598128,-0.03553193276481241]","[-1,-1,-1]","[0.03617390247146761,0.05445622050323439]","[1,1,1]","[0.13084070163977146,0.06895886940938448]","[1,1,1]","[-0.13573567237860976,-0.025561803944937664]","[1,1,1]","[-0.08507682705220547,0.1547098573325417]","[-1,-1,-1]","[0.15212669621476602,-0.032291406987007734]","[-1,-1,-1]","[0.06654909023848113,0.1873790045364572]","[-1,-1,-1]","[0.06738877988722555,-0.12883217687929563]","[-1,-1,-1]","[-0.11268577210668236,-0.0961109122617789]","[1,1,1]","[-0.16487954687646755,0.07383134139422382]","[-1,-1,-1]","[-0.02636875852615279,0.14579786915172435]","[1,1,1]","[-0.17538117573493234,-0.0770319105718818]","[-1,-1,-1]","[0.12472098829784106,0.023348517004078813]","[1,1,1]","[-0.04038223171736271,-0.02110906048174158]","[-1,-1,-1]","[0.02,0.02]",178.966,0,37,37,88,1,,,,,,,
,,,,,,,67f8ecba61f42b2394e82833,682db3a63e5d10d94756c12d,2025-05-21_13h20.15.348,cuing_paradigm_dot,2024.1.5,Win32,60.24096386,682d556593cb38ad0a074487,,,,,,,,,,,178.9664,179.4597,,,179.7027,180.3823,left,0.6682,,,,,,,,,0.45,,,,,,179.4598,179.7027,180.3825,"[-0.08960489500433885,-0.044805830624552116]","[1,1,1]","[0.026647730511333557,-0.05887006365721208]","[-1,-1,-1]","[0.12844117674984057,0.12592616989458066]","[-1,-1,-1]","[-0.13377682728970974,0.0019188680108528564]","[-1,-1,-1]","[-0.1366530554608286,0.0798483202793226]","[-1,-1,-1]","[-0.058969277666935244,0.08086267725416733]","[-1,-1,-1]","[0.1703105441289506,0.03836589661048415]","[-1,-1,-1]","[0.14894867454857155,-0.024737818387597903]","[1,1,1]","[-0.003905729054747002,0.05407045566236677]","[-1,-1,-1]","[0.07282467693171402,0.05416429041819744]","[1,1,1]","[0.02326719079526339,0.11966395378583146]","[1,1,1]","[0.10445408581223765,0.16618166903708628]","[-1,-1,-1]","[0.038568185975205005,-0.1702853219254114]","[-1,-1,-1]","[-0.044343033575827806,0.19072332308484805]","[-1,-1,-1]","[0.07323459079539199,-0.13236051004055635]","[-1,-1,-1]","[-0.005736432813498759,-0.15978549927752042]","[1,1,1]","[-0.08682036113498709,-0.08825506262493564]","[1,1,1]","[0.1325751912746204,0.06880518612260865]","[-1,-1,-1]","[0.1780082150660461,-0.07941391537487867]","[1,1,1]","[-0.14845642769541667,-0.12984693761984814]","[1,1,1]","[-0.026612489400922826,-0.0376400522513684]","[-1,-1,-1]","[-0.019414082822118223,0.14316012019461788]","[1,1,1]","[0.10649111171545521,-0.0771282566341953]","[-1,-1,-1]","[-0.1898565336988259,0.028414984768090675]","[1,1,1]","[-0.15789033148087497,0.12017273076408111]","[1,1,1]","[-0.03658115995714293,-0.10693958170629382]","[-1,-1,-1]","[0.0572021156763945,-0.08658276465748158]","[1,1,1]","[0.022594059274923393,-0.12579889680752146]","[1,1,1]","[-0.13485467881590968,-0.040533301195657755]","[-1,-1,-1]","[-0.09653864337870795,0.10134708789122701]","[1,1,1]","[0.03268072196305294,0.07835627483456943]","[-1,-1,-1]","[-0.183451151308611,0.06851686615868066]","[-1,-1,-1]","[0.02,0.02]",181.4719,0,38,38,75,1,,,,,,,
,,,,,,,67f8ecba61f42b2394e82833,682db3a63e5d10d94756c12d,2025-05-21_13h20.15.348,cuing_paradigm_dot,2024.1.5,Win32,60.24096386,682d556593cb38ad0a074487,,,,,,,,,,,181.4726,181.973,,,182.2143,183.1019,right,0.8625,,,,,,,,,0.4,,,,,,181.973,182.2143,183.1019,"[0.015647374980458283,-0.14169925296745986]","[1,1,1]","[0.08207837086409422,-0.06218668787986502]","[-1,-1,-1]","[0.006217006864011782,0.0826597081609393]","[-1,-1,-1]","[-0.1388847265549682,0.0901212725937096]","[-1,-1,-1]","[0.09457047306770136,0.048339058190076674]","[1,1,1]","[-0.10468464499959071,-0.09971621847277795]","[1,1,1]","[-0.1687088174299161,0.02360496599569364]","[1,1,1]","[0.013154699247597865,-0.032934807130043695]","[1,1,1]","[-0.14078827695314716,-0.014651891043483283]","[1,1,1]","[0.08046131179773099,0.1510105953812883]","[1,1,1]","[0.16500968124970508,0.030583233875213927]","[-1,-1,-1]","[0.12403045302331035,-0.07291169783752928]","[-1,-1,-1]","[0.11626389761215751,-0.14546232425675373]","[-1,-1,-1]","[-0.032718071729544676,0.06607182734178145]","[-1,-1,-1]","[0.09409702068690737,0.10815253528076674]","[-1,-1,-1]","[-0.08690685963470539,0.14590191235096958]","[-1,-1,-1]","[-0.14733521983400613,-0.11364436314292936]","[1,1,1]","[0.17940002334366884,-0.01277074105912153]","[-1,-1,-1]","[0.06481024477310594,-0.01634177522268823]","[-1,-1,-1]","[-0.16033177292129153,-0.04975230164397461]","[-1,-1,-1]","[0.014794089646639755,0.030435390221571667]","[1,1,1]","[-0.11260984030531315,0.01660845930486445]","[-1,-1,-1]","[-0.1175468601684719,-0.16157079858638193]","[1,1,1]","[0.04990346095029681,0.18244591465687243]","[1,1,1]","[-0.0497899991468251,-0.01628418776100023]","[1,1,1]","[-0.06889251989759873,-0.1369148827355109]","[-1,-1,-1]","[0.11896273447213707,-0.010722892395769592]","[-1,-1,-1]","[0.02479682605138894,-0.09332441423741178]","[-1,-1,-1]","[0.07085390419527683,-0.11312653117368339]","[-1,-1,-1]","[0.05329477879657893,0.05800361592866556]","[-1,-1,-1]","[-0.04333027279745814,-0.07822510339567874]","[1,1,1]","[0.1508766844588158,-0.10538721613607516]","[-1,-1,-1]","[0.02,0.02]",184.2042,0,39,39,53,1,,,,,,,
,,,,,,,67f8ecba61f42b2394e82833,682db3a63e5d10d94756c12d,2025-05-21_13h20.15.348,cuing_paradigm_dot,2024.1.5,Win32,60.24096386,682d556593cb38ad0a074487,,,,,,,,,,,184.205,184.7038,,,184.9543,185.4744,left,0.5042,,,,,,,,,0.6,,,,,,184.7039,184.9543,185.4744,"[-0.025875364887472378,0.03842998120210066]","[1,1,1]","[-0.16234550716980856,0.03540208950042273]","[-1,-1,-1]","[-0.09973049649814503,0.020634962723332]","[1,1,1]","[-0.12814039626663903,0.06012732161931249]","[-1,-1,-1]","[-0.12191672415176358,0.13040003855803972]","[-1,-1,-1]","[0.014265383886695385,-0.160951986403137]","[1,1,1]","[-0.014428771369557194,0.1558481692013578]","[1,1,1]","[-0.13953997608573895,-0.12826781384194666]","[-1,-1,-1]","[-0.15685401633378915,-0.060435589684593706]","[1,1,1]","[0.18355298455591978,0.059211062861687966]","[1,1,1]","[0.10663442185627305,-0.10178336816815295]","[1,1,1]","[0.037475322152052584,0.13730836755674183]","[1,1,1]","[-0.09833136721919435,-0.14152597078652995]","[-1,-1,-1]","[0.0031387863744055146,-0.0719901815730863]","[1,1,1]","[0.14691120947281522,-0.06847062540321668]","[1,1,1]","[0.07065580155611394,-0.023604165522306722]","[-1,-1,-1]","[-0.15922392552587095,0.1041241909002818]","[-1,-1,-1]","[-0.08029617161976317,0.0872866337126038]","[-1,-1,-1]","[0.06425653614579198,0.018161026789335455]","[1,1,1]","[0.1742078170305111,-0.00820623930917049]","[1,1,1]","[-0.0576630482121391,0.15447351066336537]","[1,1,1]","[-0.18881274442527626,-0.0050191910266283515]","[1,1,1]","[0.08475195402609816,0.09741091719679924]","[-1,-1,-1]","[-0.0976558202723295,-0.049759267126006174]","[-1,-1,-1]","[0.002826736332392799,-0.011388401125326048]","[-1,-1,-1]","[0.12146877852051297,-0.03548865652070825]","[1,1,1]","[0.06762498642814273,0.17312623599408455]","[1,1,1]","[0.07153644024177833,-0.1571039697584562]","[1,1,1]","[0.04290848457557526,-0.08640141485190835]","[-1,-1,-1]","[-0.04222424508753532,-0.07794337096527974]","[1,1,1]","[-0.029531005419889917,-0.19120024011854334]","[-1,-1,-1]","[0.12793512847573066,0.011910118314376371]","[1,1,1]","[0.02,0.02]",186.5755,0,40,40,151,1,,,,,,,
,,,,,,,67f8ecba61f42b2394e82833,682db3a63e5d10d94756c12d,2025-05-21_13h20.15.348,cuing_paradigm_dot,2024.1.5,Win32,60.24096386,682d556593cb38ad0a074487,,,,,,,,,,,186.5778,187.0754,,,187.3257,187.9915,right,0.6499,,,,,,,,,0.4,,,,,,187.0755,187.3256,187.9916,"[-0.042102316317044544,-0.12747888834174434]","[1,1,1]","[0.15145240371685026,0.07389919285354186]","[-1,-1,-1]","[-0.14039337855106698,-0.08821182547183816]","[1,1,1]","[0.027254640182356446,-0.09886285334372828]","[1,1,1]","[0.11923651611967069,0.014322732045537218]","[-1,-1,-1]","[0.03579648414832933,0.06249434927185528]","[1,1,1]","[-0.18031753551789242,0.003326843677231051]","[-1,-1,-1]","[0.19615367802880251,0.021177624553119296]","[-1,-1,-1]","[-0.13192470335468146,0.008239952832202949]","[1,1,1]","[-0.05974313239044424,-0.18990941907873507]","[-1,-1,-1]","[-0.0963195307193776,-0.06800024226680708]","[1,1,1]","[-0.01108880563259123,-0.007712319914571905]","[1,1,1]","[-0.027877208197332734,0.14652911566628987]","[1,1,1]","[-0.1091238958639632,0.11795283639890153]","[-1,-1,-1]","[-0.07027621067530544,-0.029377037149636315]","[1,1,1]","[0.07006850709740488,-0.16662838501957047]","[-1,-1,-1]","[-0.14217347457186333,-0.04470987266640656]","[1,1,1]","[0.1336537839889989,-0.05167368913830759]","[1,1,1]","[-0.11021600147325669,-0.12014946552993906]","[-1,-1,-1]","[-0.007223828655331268,0.04892427896216152]","[-1,-1,-1]","[0.02550135468753822,0.10857432293099185]","[1,1,1]","[0.14356714279861654,-0.12230179705407133]","[-1,-1,-1]","[-0.10065206452051682,0.060851723958356835]","[-1,-1,-1]","[-0.030262159612091687,0.09655703671039925]","[1,1,1]","[0.03338935482102087,-0.004430281431475232]","[-1,-1,-1]","[-0.09006798173008103,-0.1572650999169226]","[-1,-1,-1]","[0.030005316415097707,-0.18329612547319485]","[-1,-1,-1]","[0.11714653561227731,0.11834100572066547]","[-1,-1,-1]","[-0.025694215572229596,-0.06966542908876898]","[-1,-1,-1]","[0.04659743168179561,-0.0590282462859704]","[-1,-1,-1]","[-0.15875355485918102,0.03918226485871137]","[-1,-1,-1]","[0.1793509846161779,-0.035703160937009384]","[-1,-1,-1]","[0.02,0.02]",189.0905,0,41,41,54,1,,,,,,,
,,,,,,,67f8ecba61f42b2394e82833,682db3a63e5d10d94756c12d,2025-05-21_13h20.15.348,cuing_paradigm_dot,2024.1.5,Win32,60.24096386,682d556593cb38ad0a074487,,,,,,,,,,,189.0909,189.5912,,,189.8397,190.4225,right,0.5694,,,,,,,,,0.6,,,,,,189.5913,189.8396,190.4225,"[-0.07742775458313746,-0.12912537164316928]","[1,1,1]","[0.08922346274134264,0.17851512407281686]","[-1,-1,-1]","[-0.026309606394438675,-0.0543236041841159]","[1,1,1]","[-0.06598041814513302,-0.004341702298966464]","[1,1,1]","[-0.048793049848165876,0.0881028506434973]","[-1,-1,-1]","[-0.10514908000064158,0.05068264964214503]","[-1,-1,-1]","[0.025446146023121605,-0.16595756158201275]","[-1,-1,-1]","[0.14510084444225918,-0.048867639369189364]","[1,1,1]","[-0.06340319167474208,0.18157826100477872]","[1,1,1]","[0.0763360463565779,-0.1015055110746331]","[-1,-1,-1]","[-0.024360543972323682,0.1681392560332204]","[1,1,1]","[-0.1769774267068152,0.016574836247692605]","[-1,-1,-1]","[0.11034680260642625,-0.1533317824473107]","[1,1,1]","[0.19157944594644755,0.0203508544361732]","[1,1,1]","[0.14802794383980902,-0.12497742569922449]","[-1,-1,-1]","[0.01844049588023433,0.11418945829350985]","[1,1,1]","[0.13369689258124948,-0.006961894376921045]","[1,1,1]","[0.026212833724750098,-0.09072720566884288]","[1,1,1]","[-0.11968120326155164,0.1319518189373914]","[1,1,1]","[-0.018113109454393067,-0.16852524632467972]","[-1,-1,-1]","[0.12946811552984477,0.043597461668562855]","[-1,-1,-1]","[0.046468639382695444,0.1504356358749817]","[1,1,1]","[-0.1397746800853183,-0.09177344995445676]","[-1,-1,-1]","[0.05030470660298433,0.009169270830273454]","[1,1,1]","[0.09251913894867707,0.0780969185753333]","[-1,-1,-1]","[-0.07177267548946775,-0.0579952891596535]","[1,1,1]","[-0.11920420554401157,-0.14536815610310297]","[-1,-1,-1]","[0.004231721590522464,-0.010286920766317214]","[1,1,1]","[-0.060492823977192724,-0.17054411013692802]","[1,1,1]","[0.018069257404047037,0.06596484506005251]","[1,1,1]","[-0.061327535215722755,0.03906326727569281]","[-1,-1,-1]","[-0.1228357810447931,-0.05125831913843732]","[1,1,1]","[0.02,0.02]",191.522,0,42,42,159,1,,,,,,,
,,,,,,,67f8ecba61f42b2394e82833,682db3a63e5d10d94756c12d,2025-05-21_13h20.15.348,cuing_paradigm_dot,2024.1.5,Win32,60.24096386,682d556593cb38ad0a074487,,,,,,,,,,,191.523,192.0214,,,192.2706,193.1197,left,0.8365,,,,,,,,,0.45,,,,,,192.0214,192.2705,193.1198,"[0.0788663941206846,0.015421126421719219]","[1,1,1]","[0.17852693971284966,0.054073912184385044]","[1,1,1]","[0.0025817673684906924,0.054212737643568244]","[1,1,1]","[-0.03081183662186639,0.08637362507973298]","[1,1,1]","[0.09020122601315324,-0.094033508013247]","[-1,-1,-1]","[-0.1668614402910262,0.03904914272518616]","[-1,-1,-1]","[0.040394989446289636,0.11784482219052964]","[-1,-1,-1]","[-0.14584571479387293,0.13092229855687554]","[1,1,1]","[-0.13544978448727663,-0.06295700675121092]","[-1,-1,-1]","[-0.04540999427829681,-0.18353173128912292]","[-1,-1,-1]","[0.15215318609368234,0.11004255471922904]","[-1,-1,-1]","[-0.00008946698941222344,-0.040458294195542255]","[-1,-1,-1]","[-0.13190102141062002,-0.14898261141544575]","[1,1,1]","[0.0810014159869023,0.17582159919145943]","[1,1,1]","[0.18639375061435082,-0.04786603533607732]","[-1,-1,-1]","[-0.17420821849380838,0.08035583940155802]","[1,1,1]","[-0.06398707242573128,-0.0821275499795326]","[-1,-1,-1]","[-0.18782401030151646,-0.05256858937956205]","[1,1,1]","[0.04728717630288354,-0.12947235026089055]","[-1,-1,-1]","[-0.0016744570868598423,0.17244211734963766]","[-1,-1,-1]","[0.15364422757643825,0.015147260754053976]","[-1,-1,-1]","[-0.097102621900846,0.17397846291134078]","[1,1,1]","[-0.13810993943515193,-0.10451670103632564]","[-1,-1,-1]","[-0.021259561451310232,-0.14178922533332405]","[-1,-1,-1]","[0.13733472042289363,-0.13501551471633513]","[1,1,1]","[0.03087073712523748,-0.0848555727071246]","[1,1,1]","[-0.02122431837560457,0.013195350153450641]","[-1,-1,-1]","[0.13012402668641818,0.05679746358084942]","[-1,-1,-1]","[-0.037678028402625505,0.13590495342859216]","[-1,-1,-1]","[0.04055972565060957,0.18967932858131192]","[1,1,1]","[0.08080498928051967,-0.029241451274784225]","[1,1,1]","[-0.0699792064542726,0.041661091593053215]","[-1,-1,-1]","[0.02,0.02]",194.2194,0,43,43,84,1,,,,,,,
,,,,,,,67f8ecba61f42b2394e82833,682db3a63e5d10d94756c12d,2025-05-21_13h20.15.348,cuing_paradigm_dot,2024.1.5,Win32,60.24096386,682d556593cb38ad0a074487,,,,,,,,,,,194.22,194.7199,,,194.9687,195.5802,right,0.6014,,,,,,,,,0.9,,,,,,194.7201,194.9686,195.5802,"[0.15075053905535052,0.08083519439980978]","[1,1,1]","[-0.11938870287882887,-0.15559415417290653]","[1,1,1]","[-0.14947803367217952,0.034830023800724544]","[1,1,1]","[0.0869038216605303,0.08077733486122632]","[1,1,1]","[0.023989579608170677,-0.09593396789595399]","[1,1,1]","[-0.05318384271889011,0.18957762332996017]","[1,1,1]","[0.1320862615703281,-0.09650093053041153]","[1,1,1]","[0.05997908253015417,-0.17667539219496614]","[-1,-1,-1]","[-0.06329446291862943,-0.07012815022707511]","[1,1,1]","[-0.06541606504186669,0.1148499314303047]","[1,1,1]","[0.08296014826991295,0.12872405119049396]","[1,1,1]","[-0.13598777461262204,-0.11507637833171983]","[1,1,1]","[-0.08251289300584372,0.04913071147533822]","[1,1,1]","[0.01862426975530492,-0.026141514866274137]","[1,1,1]","[0.17401789239267382,-0.09565596209312383]","[1,1,1]","[-0.15269556185548602,0.12313850774599858]","[1,1,1]","[0.0742140924169355,-0.12207714921362836]","[1,1,1]","[0.11948792288712863,0.014930679166945071]","[1,1,1]","[0.05443895658764717,0.02192681722765263]","[1,1,1]","[0.10512242274829624,-0.06315225639303496]","[1,1,1]","[-0.1249800325700816,-0.010328207413687942]","[1,1,1]","[-0.16401282511752135,-0.04356444866189418]","[1,1,1]","[0.010569316883663613,0.029673428367902065]","[-1,-1,-1]","[0.12382572011633698,0.1478424836554831]","[1,1,1]","[0.19834990153004983,-0.021236190195801467]","[1,1,1]","[-0.09217178337314148,0.1481510846689911]","[1,1,1]","[0.0313358819874501,0.10727177154254361]","[1,1,1]","[0.09089842878813924,0.17565562879510116]","[-1,-1,-1]","[-0.11086364637492638,-0.05058042771338022]","[1,1,1]","[0.13448788579787183,-0.14466731223332038]","[1,1,1]","[-0.03776070744390843,-0.1266515945142137]","[1,1,1]","[-0.008046184054422872,-0.060042766841018703]","[1,1,1]","[0.02,0.02]",196.6754,0,44,44,198,1,,,,,,,
