right,left,explain.started,explain.stopped,key_resp_3.keys,key_resp_3.rt,key_resp_3.duration,participant,session,date,expName,psychopyVersion,OS,frameRate,study_id,explain_2.started,explain_2.stopped,key_resp_4.keys,key_resp_4.rt,key_resp_4.duration,explain_3.started,explain_3.stopped,key_resp_5.keys,key_resp_5.rt,key_resp_5.duration,fixation.started,fixation.stopped,practice.started,practice.stopped,response.started,response.stopped,key_resp.keys,key_resp.rt,key_resp.duration,feedback.started,feedback.stopped,trials_2.thisRepN,trials_2.thisTrialN,trials_2.thisN,trials_2.thisIndex,trials_2.ran,white_ratio,explain_4.started,explain_4.stopped,key_resp_6.keys,key_resp_6.rt,key_resp_6.duration,dotDisplay.started,dotDisplay.stopped,ITI.started,polygon_1.pos,polygon_1.color,polygon_2.pos,polygon_2.color,polygon_3.pos,polygon_3.color,polygon_4.pos,polygon_4.color,polygon_5.pos,polygon_5.color,polygon_6.pos,polygon_6.color,polygon_7.pos,polygon_7.color,polygon_8.pos,polygon_8.color,polygon_9.pos,polygon_9.color,polygon_10.pos,polygon_10.color,polygon_11.pos,polygon_11.color,polygon_12.pos,polygon_12.color,polygon_13.pos,polygon_13.color,polygon_14.pos,polygon_14.color,polygon_15.pos,polygon_15.color,polygon_16.pos,polygon_16.color,polygon_17.pos,polygon_17.color,polygon_18.pos,polygon_18.color,polygon_19.pos,polygon_19.color,polygon_20.pos,polygon_20.color,polygon_21.pos,polygon_21.color,polygon_22.pos,polygon_22.color,polygon_23.pos,polygon_23.color,polygon_24.pos,polygon_24.color,polygon_25.pos,polygon_25.color,polygon_26.pos,polygon_26.color,polygon_27.pos,polygon_27.color,polygon_28.pos,polygon_28.color,polygon_29.pos,polygon_29.color,polygon_30.pos,polygon_30.color,polygon_31.pos,polygon_31.color,polygon_32.pos,polygon_32.color,dot_size,ITI.stopped,trials.thisRepN,trials.thisTrialN,trials.thisN,trials.thisIndex,trials.ran,break_2.started,break_2.stopped,trials_3.thisRepN,trials_3.thisTrialN,trials_3.thisN,trials_3.thisIndex,trials_3.ran
subject chose black,subject chose white,0.0005,95.3585,space,80.3436,,67fcf2f9b4bf5a18fa0bc246,682f0fd6c0d1548b9e0fde7b,2025-05-22_13h53.44.487,cuing_paradigm_dot,2024.1.5,Win32,60.97560976,682d573fa47f1360d1451895,,,,,,,,,,,,,,,,,,,,,,,,,,,,,,,,,,,,,,,,,,,,,,,,,,,,,,,,,,,,,,,,,,,,,,,,,,,,,,,,,,,,,,,,,,,,,,,,,,,,,,,,,,,,,,,,,
,,,,,,,67fcf2f9b4bf5a18fa0bc246,682f0fd6c0d1548b9e0fde7b,2025-05-22_13h53.44.487,cuing_paradigm_dot,2024.1.5,Win32,60.97560976,682d573fa47f1360d1451895,95.3592,139.364,space,13.9886,,,,,,,,,,,,,,,,,,,,,,,,,,,,,,,,,,,,,,,,,,,,,,,,,,,,,,,,,,,,,,,,,,,,,,,,,,,,,,,,,,,,,,,,,,,,,,,,,,,,,,,,,,,,,
,,,,,,,67fcf2f9b4bf5a18fa0bc246,682f0fd6c0d1548b9e0fde7b,2025-05-22_13h53.44.487,cuing_paradigm_dot,2024.1.5,Win32,60.97560976,682d573fa47f1360d1451895,,,,,,139.3643,145.2562,space,2.8832,,,,,,,,,,,,,,,,,,,,,,,,,,,,,,,,,,,,,,,,,,,,,,,,,,,,,,,,,,,,,,,,,,,,,,,,,,,,,,,,,,,,,,,,,,,,,,,,,,,,,,,,
,,,,,,,67fcf2f9b4bf5a18fa0bc246,682f0fd6c0d1548b9e0fde7b,2025-05-22_13h53.44.487,cuing_paradigm_dot,2024.1.5,Win32,60.97560976,682d573fa47f1360d1451895,,,,,,,,,,,145.2977,145.7728,145.7733,146.0233,146.0235,147.2237,left,1.1648,,147.224,148.3225,0,0,0,1,1,0.2,,,,,,,,,,,,,,,,,,,,,,,,,,,,,,,,,,,,,,,,,,,,,,,,,,,,,,,,,,,,,,,,,,,,,,,,,,,,,,,,,,,,,,
,,,,,,,67fcf2f9b4bf5a18fa0bc246,682f0fd6c0d1548b9e0fde7b,2025-05-22_13h53.44.487,cuing_paradigm_dot,2024.1.5,Win32,60.97560976,682d573fa47f1360d1451895,,,,,,,,,,,148.3233,148.8223,148.8224,149.0644,149.0644,149.6055,left,0.5272,,149.6056,150.7044,0,1,1,0,1,0.8,,,,,,,,,,,,,,,,,,,,,,,,,,,,,,,,,,,,,,,,,,,,,,,,,,,,,,,,,,,,,,,,,,,,,,,,,,,,,,,,,,,,,,
,,,,,,,67fcf2f9b4bf5a18fa0bc246,682f0fd6c0d1548b9e0fde7b,2025-05-22_13h53.44.487,cuing_paradigm_dot,2024.1.5,Win32,60.97560976,682d573fa47f1360d1451895,,,,,,,,,,,,,,,,,,,,,,,,,,,,150.7051,157.6225,space,3.9,,,,,,,,,,,,,,,,,,,,,,,,,,,,,,,,,,,,,,,,,,,,,,,,,,,,,,,,,,,,,,,,,,,,,,,,,,,,,,,,,,
,,,,,,,67fcf2f9b4bf5a18fa0bc246,682f0fd6c0d1548b9e0fde7b,2025-05-22_13h53.44.487,cuing_paradigm_dot,2024.1.5,Win32,60.97560976,682d573fa47f1360d1451895,,,,,,,,,,,157.6546,158.1376,,,158.3772,158.6719,right,0.2751,,,,,,,,,0.9,,,,,,158.1382,158.3771,158.6725,"[0.011905965611617587,-0.14687967037252014]","[1,1,1]","[0.03680447149500061,-0.0074518560976526895]","[1,1,1]","[-0.06418062477987567,-0.1773581371009405]","[1,1,1]","[0.024682339229269445,0.15934824559872615]","[1,1,1]","[-0.009501644999053482,0.12503906310050458]","[1,1,1]","[-0.12421506865935256,-0.05565901310630299]","[1,1,1]","[0.1836296607677367,0.03563019281617225]","[1,1,1]","[-0.11170273676947635,0.08512177626952294]","[1,1,1]","[0.16625774310574587,-0.05422056633161372]","[1,1,1]","[0.10903047538892281,0.018270947305376695]","[1,1,1]","[0.005532911224642994,-0.1003140709352818]","[1,1,1]","[-0.0404649357787299,-0.12882019832765865]","[-1,-1,-1]","[-0.15667212845410436,0.03390749653598381]","[1,1,1]","[-0.09103343787839074,0.0011613109716659268]","[1,1,1]","[-0.17790381344033535,-0.0093348917866316]","[1,1,1]","[0.11321446142698915,-0.06027125700255359]","[1,1,1]","[-0.06761003117263803,0.10555059826983382]","[1,1,1]","[0.12825418855122753,-0.12245512551959958]","[1,1,1]","[0.09496495544011978,0.16710510306286458]","[-1,-1,-1]","[-0.1695853405942473,-0.09875107441965052]","[1,1,1]","[-0.05899110530969892,-0.024968218385835402]","[1,1,1]","[0.1253369186111791,0.10687331534213028]","[1,1,1]","[-0.12198218567182349,0.14876332533061035]","[1,1,1]","[-0.0020914593086405284,-0.18895376549742368]","[1,1,1]","[0.08155093827494993,-0.14927097888419139]","[1,1,1]","[0.15465810549565068,-0.012448571165727163]","[1,1,1]","[-0.0142639781471161,-0.018508953488711663]","[1,1,1]","[0.06811021205005326,-0.06920844553252796]","[1,1,1]","[0.060776816766787686,0.079132585185478]","[1,1,1]","[0.06584715383678078,-0.11092067706810357]","[1,1,1]","[-0.12862996105940352,-0.015606426867931492]","[1,1,1]","[0.01640982799991404,0.0358131107980554]","[-1,-1,-1]","[0.02,0.02]",159.7712,0,0,0,195,1,,,,,,,
,,,,,,,67fcf2f9b4bf5a18fa0bc246,682f0fd6c0d1548b9e0fde7b,2025-05-22_13h53.44.487,cuing_paradigm_dot,2024.1.5,Win32,60.97560976,682d573fa47f1360d1451895,,,,,,,,,,,159.7717,160.277,,,160.5223,161.0386,right,0.5011,,,,,,,,,0.5,,,,,,160.277,160.5222,161.0387,"[0.12169216611376384,-0.13742132020985864]","[-1,-1,-1]","[-0.14625886809065497,0.08431298739708529]","[1,1,1]","[0.04173705014103459,-0.13392675576767563]","[1,1,1]","[0.050826147794626825,-0.03318969903821706]","[-1,-1,-1]","[-0.05633717339398749,-0.1787532366340204]","[1,1,1]","[-0.06059563088611292,-0.04050591126525497]","[1,1,1]","[0.16424030545267895,-0.01735689221625669]","[-1,-1,-1]","[-0.0024711831076412558,0.011500170501262633]","[1,1,1]","[-0.01742926665133547,0.09778195820471082]","[1,1,1]","[-0.17472040285084542,-0.014394038563095008]","[-1,-1,-1]","[0.03528599306253816,0.060141254011762554]","[1,1,1]","[0.07337379073488938,-0.10925687404456998]","[1,1,1]","[-0.037907485786590006,-0.12945189850694871]","[1,1,1]","[-0.0476179725574703,0.1720480841116334]","[-1,-1,-1]","[0.010045741815721512,-0.19958524236300254]","[-1,-1,-1]","[-0.011560910243469164,-0.04304823200669171]","[-1,-1,-1]","[-0.08334620095780752,-0.11174314914263855]","[-1,-1,-1]","[0.13664853800596824,0.05817200649467084]","[1,1,1]","[0.04075026615415253,-0.07867350548448214]","[1,1,1]","[-0.1766453445632208,-0.05899236511141047]","[-1,-1,-1]","[-0.12558261141328014,-0.006633227911740073]","[-1,-1,-1]","[0.10316521987877926,-0.03154626993454395]","[1,1,1]","[0.08527498479266038,0.021420883798436006]","[-1,-1,-1]","[0.10424814333567725,0.13067469115476427]","[1,1,1]","[0.19481422708437768,0.0334515970333316]","[-1,-1,-1]","[0.026965585123036147,0.19546733766598212]","[-1,-1,-1]","[0.10980463822965059,0.08784926022743883]","[-1,-1,-1]","[0.07869910772535423,-0.17681611413587073]","[1,1,1]","[-0.07402745520148081,0.13299994209487703]","[-1,-1,-1]","[-0.15032850030270728,-0.09284657547092325]","[1,1,1]","[-0.06858991708353619,0.0020706874650478486]","[-1,-1,-1]","[0.07133171152084146,0.10535415696170146]","[1,1,1]","[0.02,0.02]",162.1375,0,1,1,113,1,,,,,,,
,,,,,,,67fcf2f9b4bf5a18fa0bc246,682f0fd6c0d1548b9e0fde7b,2025-05-22_13h53.44.487,cuing_paradigm_dot,2024.1.5,Win32,60.97560976,682d573fa47f1360d1451895,,,,,,,,,,,162.1387,162.6374,,,162.8889,164.3876,,,,,,,,,,,0.1,,,,,,162.6375,162.8888,164.3877,"[0.044577769361570624,0.01588984987455026]","[1,1,1]","[0.13624867129300786,-0.004835370139824636]","[-1,-1,-1]","[0.14223009611375917,0.1256396394739046]","[-1,-1,-1]","[-0.17486994217555468,0.036098085188523636]","[-1,-1,-1]","[-0.15156196895263202,-0.018795205888793687]","[-1,-1,-1]","[0.09557598749642748,0.04455069951711772]","[-1,-1,-1]","[-0.058770118720691246,-0.12444987790624473]","[-1,-1,-1]","[0.07243516238854786,0.18417927849435264]","[-1,-1,-1]","[-0.11716331829877959,-0.15672714169629054]","[-1,-1,-1]","[-0.005412106372184333,-0.12072963598717984]","[-1,-1,-1]","[-0.11748661444812261,0.10605982980304815]","[-1,-1,-1]","[-0.009783778292690053,-0.041359143409630046]","[-1,-1,-1]","[0.16095776043538731,-0.049185912052110335]","[-1,-1,-1]","[0.06946104984607701,-0.17128671049689065]","[-1,-1,-1]","[-0.10127901755736309,0.06448475681863369]","[-1,-1,-1]","[-0.02329427476529288,0.19329560967350526]","[-1,-1,-1]","[0.01670333778670596,-0.16988763849963953]","[-1,-1,-1]","[-0.15887957491389076,0.1054965656461695]","[-1,-1,-1]","[0.1328739685417623,0.0850356114038493]","[-1,-1,-1]","[0.036505434543479195,-0.11079553235134929]","[-1,-1,-1]","[0.03459717920956966,0.15426427874533308]","[-1,-1,-1]","[0.06994432938764909,-0.080359410552834]","[-1,-1,-1]","[-0.09372338255720629,0.14503679340112363]","[1,1,1]","[0.07804771387415618,-0.010970610210620164]","[-1,-1,-1]","[0.1732092817027903,-0.08835313086454968]","[-1,-1,-1]","[0.027103072331871172,0.06345530552122211]","[-1,-1,-1]","[-0.01813546482283012,0.0003376171696597812]","[-1,-1,-1]","[-0.020864790636526725,0.13834136954994714]","[-1,-1,-1]","[-0.053830780124163195,-0.04473470041529847]","[1,1,1]","[-0.07204753222340333,-0.17637773125070857]","[-1,-1,-1]","[0.08965056304966465,-0.1252992416726475]","[-1,-1,-1]","[-0.015351316583191811,0.05669016707757183]","[-1,-1,-1]","[0.02,0.02]",165.4976,0,2,2,0,1,,,,,,,
,,,,,,,67fcf2f9b4bf5a18fa0bc246,682f0fd6c0d1548b9e0fde7b,2025-05-22_13h53.44.487,cuing_paradigm_dot,2024.1.5,Win32,60.97560976,682d573fa47f1360d1451895,,,,,,,,,,,165.4984,165.9872,,,166.2269,166.8049,right,0.5606,,,,,,,,,0.1,,,,,,165.9873,166.2267,166.805,"[-0.14083384793938744,-0.11299835563005346]","[-1,-1,-1]","[-0.011993408483026683,0.1816710455170792]","[-1,-1,-1]","[-0.053804058741367164,-0.020810963988722172]","[-1,-1,-1]","[-0.0710559668175845,-0.17775245381104068]","[-1,-1,-1]","[0.012899836735241296,0.135908721924085]","[-1,-1,-1]","[0.1779880611693993,-0.06709203228390011]","[1,1,1]","[-0.06440354090292921,-0.11373248297917378]","[-1,-1,-1]","[-0.19809923902147045,0.018057026331325065]","[-1,-1,-1]","[0.07230718334967134,-0.12085950254974541]","[-1,-1,-1]","[0.05255561141526381,0.04431086946766581]","[-1,-1,-1]","[-0.04911778135581827,0.06697213537807238]","[1,1,1]","[-0.11310202403147036,0.08450315512937433]","[-1,-1,-1]","[0.06321088325967805,0.18884404126814958]","[-1,-1,-1]","[-0.058014809535705966,0.16150535769650118]","[-1,-1,-1]","[-0.12019737974538557,0.041081030714126915]","[-1,-1,-1]","[0.014859410714934414,-0.0797995085956509]","[-1,-1,-1]","[0.0019980402570742494,-0.15824129504633988]","[-1,-1,-1]","[0.12942395357495382,0.049792484661692754]","[-1,-1,-1]","[-0.17268790350997026,0.10030744667501601]","[-1,-1,-1]","[0.05857347698129257,0.10504558139794735]","[-1,-1,-1]","[0.02050067248620703,0.08487782393072149]","[-1,-1,-1]","[0.1123356118351752,-0.08046503387953885]","[-1,-1,-1]","[0.06197391764573438,-0.17208646083061666]","[-1,-1,-1]","[0.08454341377528117,0.15092116489932686]","[-1,-1,-1]","[-0.17637047729406352,-0.06564796874365894]","[-1,-1,-1]","[0.1439066641192468,-0.12563068679796374]","[1,1,1]","[0.04601337831204941,-0.015353200758583402]","[-1,-1,-1]","[0.12779455294278153,-0.020010091631958285]","[-1,-1,-1]","[0.1794518506703461,-0.00893658210080506]","[-1,-1,-1]","[0.13466555458760598,0.12388110634298595]","[-1,-1,-1]","[0.17347094537619998,0.04859611937767521]","[-1,-1,-1]","[-0.0988626877574502,-0.05380421854563388]","[-1,-1,-1]","[0.02,0.02]",167.9042,0,3,3,20,1,,,,,,,
,,,,,,,67fcf2f9b4bf5a18fa0bc246,682f0fd6c0d1548b9e0fde7b,2025-05-22_13h53.44.487,cuing_paradigm_dot,2024.1.5,Win32,60.97560976,682d573fa47f1360d1451895,,,,,,,,,,,167.9046,168.4042,,,168.6548,169.0385,right,0.3685,,,,,,,,,0.1,,,,,,168.4042,168.6547,169.0386,"[-0.11507998445691471,-0.02770886430820955]","[-1,-1,-1]","[-0.13064594491848378,0.10717163362168082]","[-1,-1,-1]","[0.014098737126631244,0.15763398357574607]","[-1,-1,-1]","[-0.005730701579011731,0.07223386310977453]","[-1,-1,-1]","[0.15357100072607965,0.08374757658629858]","[-1,-1,-1]","[0.1632838381880834,-0.02076903320824706]","[-1,-1,-1]","[-0.04321260723867954,-0.15997407710778272]","[-1,-1,-1]","[-0.1967561316691539,0.03540362507659528]","[-1,-1,-1]","[-0.025091482797069967,-0.07113778950277044]","[-1,-1,-1]","[-0.0652898188087936,0.010545268840105936]","[-1,-1,-1]","[-0.07382869755977783,0.17012383066835035]","[-1,-1,-1]","[-0.12640625912338518,-0.08054540889631373]","[-1,-1,-1]","[0.07114729623495077,-0.11671456375759759]","[-1,-1,-1]","[0.12765996191056028,-0.06017674205930444]","[-1,-1,-1]","[0.11437635551704138,0.025371362296858668]","[1,1,1]","[0.07271013319358445,0.02099891247401578]","[-1,-1,-1]","[0.03484641128375038,0.07349095681826483]","[-1,-1,-1]","[0.10866973953895957,0.07277979272065298]","[-1,-1,-1]","[-0.02162510552487643,0.0054232895540903825]","[-1,-1,-1]","[0.09889436023620782,-0.025393880218340385]","[-1,-1,-1]","[0.0410194830191945,0.1892024053984706]","[-1,-1,-1]","[-0.15006006627359383,0.06803826148641454]","[-1,-1,-1]","[0.03883479154931173,-0.06097396665090488]","[-1,-1,-1]","[-0.049158667244297634,0.0712621495049996]","[-1,-1,-1]","[0.08201690713009092,-0.1571072412465074]","[-1,-1,-1]","[-0.035545952021083904,0.11716062375809705]","[1,1,1]","[0.021291411758590326,-0.009309838163005743]","[-1,-1,-1]","[0.024271249255188237,-0.15474074911003344]","[1,1,1]","[0.16768097569522558,-0.06331346114270058]","[-1,-1,-1]","[0.05085356804288207,0.1188648530227298]","[-1,-1,-1]","[0.1920651713763745,0.03929935905594003]","[-1,-1,-1]","[-0.1850843336463596,-0.013371591495882273]","[-1,-1,-1]","[0.02,0.02]",170.1372,0,4,4,19,1,,,,,,,
,,,,,,,67fcf2f9b4bf5a18fa0bc246,682f0fd6c0d1548b9e0fde7b,2025-05-22_13h53.44.487,cuing_paradigm_dot,2024.1.5,Win32,60.97560976,682d573fa47f1360d1451895,,,,,,,,,,,170.1381,170.644,,,170.8961,171.4383,right,0.5287,,,,,,,,,0.4,,,,,,170.644,170.8961,171.4384,"[0.023074898010097593,0.09245523113266413]","[-1,-1,-1]","[0.13627570278304615,0.011208457069721773]","[-1,-1,-1]","[0.10138148478762227,0.12067286042833283]","[1,1,1]","[0.048026937417797254,0.17118035021896633]","[-1,-1,-1]","[0.16635588352013045,-0.05870127927523705]","[-1,-1,-1]","[-0.09598976758356234,0.1068637042826177]","[-1,-1,-1]","[-0.12868856097318446,0.13998396071590813]","[-1,-1,-1]","[-0.047267620102309525,0.1794821033702022]","[-1,-1,-1]","[0.07885525296839577,-0.1538066932709742]","[-1,-1,-1]","[0.08854955228994016,-0.05436293768047067]","[1,1,1]","[-0.03506048975446629,0.13417662247804021]","[1,1,1]","[-0.04363962130139029,-0.1840300839687467]","[1,1,1]","[-0.14195021710677935,-0.12440240922732118]","[1,1,1]","[-0.047468294334003416,-0.1366703585459216]","[1,1,1]","[-0.054188035860349155,-0.025170793609382895]","[1,1,1]","[0.08629342288852898,-0.002932010273522848]","[-1,-1,-1]","[0.05357296806595099,-0.1871914064398225]","[1,1,1]","[-0.09530212917552174,-0.12509686010445845]","[-1,-1,-1]","[-0.10553381653405298,0.06653831633548447]","[-1,-1,-1]","[0.1756746239423634,0.08827809714934108]","[-1,-1,-1]","[-0.052238403483674346,0.05298712469306278]","[-1,-1,-1]","[0.03438406339520025,-0.14104453824269836]","[1,1,1]","[0.039680443722390116,-0.057229013984787816]","[-1,-1,-1]","[-0.045028688926083645,-0.09350527636591807]","[-1,-1,-1]","[0.054756196584352344,0.024875930926727706]","[-1,-1,-1]","[-0.15287138359210417,0.08484957858444957]","[-1,-1,-1]","[0.021700538319890807,-0.0012813384224397463]","[1,1,1]","[0.06209357060836033,0.13212271914572118]","[-1,-1,-1]","[0.012224169025033968,-0.19273804787147517]","[-1,-1,-1]","[-0.12527150076954358,-0.022935010008223844]","[1,1,1]","[-0.015227457344391016,0.02401893565227412]","[1,1,1]","[0.12297850953042958,-0.14690545024771143]","[1,1,1]","[0.02,0.02]",172.5309,0,5,5,46,1,,,,,,,
,,,,,,,67fcf2f9b4bf5a18fa0bc246,682f0fd6c0d1548b9e0fde7b,2025-05-22_13h53.44.487,cuing_paradigm_dot,2024.1.5,Win32,60.97560976,682d573fa47f1360d1451895,,,,,,,,,,,172.5317,173.0278,,,173.2715,173.6876,left,0.4007,,,,,,,,,0.55,,,,,,173.0279,173.2714,173.6877,"[-0.14576610588303823,0.07437418870572882]","[1,1,1]","[-0.16498852749737994,-0.0343319061304247]","[-1,-1,-1]","[0.05970403254606212,0.07404321707791388]","[1,1,1]","[0.12113439881596486,-0.010231641156177963]","[-1,-1,-1]","[-0.17991137591704695,0.006682730578593873]","[1,1,1]","[0.0051195070824593195,-0.07171327601550873]","[1,1,1]","[-0.021934350129018884,0.09220460830533045]","[-1,-1,-1]","[0.009436715778356993,0.19108274749629384]","[-1,-1,-1]","[-0.1360775913724152,-0.09064046469092796]","[1,1,1]","[-0.04582847306748495,-0.11090970778123646]","[1,1,1]","[-0.08167952240315059,-0.018096094192545317]","[1,1,1]","[0.07218684275586197,-0.133846642487513]","[-1,-1,-1]","[-0.09810799695754317,0.1352803151010644]","[1,1,1]","[0.019793937790931148,0.14585023825992074]","[-1,-1,-1]","[0.10738074991596155,-0.09038816305413389]","[-1,-1,-1]","[0.03694055196137584,-0.10150430185693998]","[-1,-1,-1]","[0.1757516486447512,0.01146671584234923]","[1,1,1]","[0.03407479716253143,0.03219707288994967]","[-1,-1,-1]","[0.019656084169825807,-0.1531840845675333]","[1,1,1]","[0.021926584964007387,0.0966776045455389]","[-1,-1,-1]","[-0.1356982084442367,0.11815457444842539]","[1,1,1]","[-0.03749117302123819,0.18371606372337054]","[1,1,1]","[-0.04539656917290694,-0.15728520228263518]","[1,1,1]","[-0.003833844083744986,0.0070823522227663575]","[-1,-1,-1]","[-0.10625735931873495,-0.14283601625390882]","[1,1,1]","[0.08257973247190908,0.11743442264320243]","[-1,-1,-1]","[0.12693867187685803,0.07128693513406581]","[1,1,1]","[-0.03608669568632677,0.05303513537864097]","[-1,-1,-1]","[0.07168256936094053,-0.00924243976572121]","[1,1,1]","[0.15610001578326804,0.11523479452200439]","[-1,-1,-1]","[0.16781326995326576,-0.09848536902546838]","[1,1,1]","[0.059968119368256495,0.16543169692968943]","[1,1,1]","[0.02,0.02]",174.7875,0,6,6,125,1,,,,,,,
,,,,,,,67fcf2f9b4bf5a18fa0bc246,682f0fd6c0d1548b9e0fde7b,2025-05-22_13h53.44.487,cuing_paradigm_dot,2024.1.5,Win32,60.97560976,682d573fa47f1360d1451895,,,,,,,,,,,174.7884,175.2935,,,175.5332,175.9884,left,0.4383,,,,,,,,,0.45,,,,,,175.2935,175.5331,175.9885,"[-0.15571853112948097,0.08145147351270422]","[-1,-1,-1]","[0.0379631290005489,-0.0477222609421492]","[1,1,1]","[-0.11949066588755494,-0.044462610226025656]","[1,1,1]","[0.05416395029175374,0.013908635883262894]","[-1,-1,-1]","[-0.06447578584656752,-0.03694611806334107]","[1,1,1]","[-0.005294559184653703,0.061093951098456806]","[1,1,1]","[0.022849137056621067,-0.14292305901611818]","[-1,-1,-1]","[-0.08969192874867025,-0.10578167889312484]","[-1,-1,-1]","[-0.026891403859517153,0.12167513548690627]","[1,1,1]","[0.17369373898984125,0.05914495465859254]","[1,1,1]","[0.157694641938414,0.015087260142330411]","[1,1,1]","[-0.09132026452990061,0.1258724934597678]","[1,1,1]","[-0.07788496109375775,0.02077468061436606]","[-1,-1,-1]","[0.09951171437289236,-0.06495059147042388]","[1,1,1]","[-0.003786151171492658,-0.08133497433154001]","[-1,-1,-1]","[-0.008935472840133683,-0.028516872149547758]","[-1,-1,-1]","[0.11223656876908114,-0.159527947771482]","[1,1,1]","[-0.11730641759694954,0.04668051189602908]","[-1,-1,-1]","[0.10495509393345996,0.012785491252288825]","[-1,-1,-1]","[-0.16003651765629687,0.030991419775218396]","[-1,-1,-1]","[0.14426035904786394,-0.08368660893098591]","[1,1,1]","[0.060709339369304234,0.0539897565687365]","[-1,-1,-1]","[0.013667638968497058,-0.18600243005159914]","[-1,-1,-1]","[-0.07069097000659039,0.17655163153949321]","[-1,-1,-1]","[-0.013401822084543746,0.16471167850171806]","[-1,-1,-1]","[0.021068754205813837,0.18692901400344372]","[-1,-1,-1]","[0.10039990108651388,0.06466169304454339]","[1,1,1]","[-0.13374666355288567,0.12881204945323818]","[1,1,1]","[-0.1404766476615264,-0.08516997300841588]","[-1,-1,-1]","[0.08792503113017759,-0.10345676334898173]","[1,1,1]","[0.11931275224900965,0.15051705657056402]","[-1,-1,-1]","[0.17943161477376074,-0.03747944140893614]","[-1,-1,-1]","[0.02,0.02]",177.0871,0,7,7,87,1,,,,,,,
,,,,,,,67fcf2f9b4bf5a18fa0bc246,682f0fd6c0d1548b9e0fde7b,2025-05-22_13h53.44.487,cuing_paradigm_dot,2024.1.5,Win32,60.97560976,682d573fa47f1360d1451895,,,,,,,,,,,177.0874,177.5867,,,177.8259,178.2707,left,0.4254,,,,,,,,,0.4,,,,,,177.5867,177.8258,178.2709,"[0.001510815263501918,0.035180357445241915]","[1,1,1]","[-0.11782182425736341,-0.11929956762387264]","[-1,-1,-1]","[-0.05352271862817687,0.06304480512812266]","[1,1,1]","[-0.03223622528172812,-0.004293441550189718]","[1,1,1]","[0.060229505310025175,-0.017650154523208523]","[-1,-1,-1]","[-0.14875271131372172,0.03606384823309434]","[-1,-1,-1]","[-0.06329932388958924,0.1283645547186746]","[-1,-1,-1]","[0.0042178341050074205,0.15959584757771936]","[1,1,1]","[0.19705429954538858,0.029117690108004822]","[-1,-1,-1]","[-0.10534245257057819,0.1484687866382328]","[-1,-1,-1]","[-0.02421995668867374,-0.12029374547296073]","[1,1,1]","[0.0020700705867317784,-0.08472014041799289]","[1,1,1]","[0.07111884817238641,-0.13923476467249007]","[-1,-1,-1]","[-0.07714074027312948,-0.08138865390743209]","[1,1,1]","[0.14007009218392608,-0.053359678539429085]","[-1,-1,-1]","[0.1193963716040874,0.15620235259435514]","[1,1,1]","[-0.1063014758989014,-0.033111768301853584]","[-1,-1,-1]","[0.13797922037607543,-0.09724499567330507]","[1,1,1]","[0.11290729148365505,-0.16282718692674583]","[-1,-1,-1]","[-0.17609736564146355,-0.0829206931140344]","[-1,-1,-1]","[-0.058604192439004096,-0.18014346270905315]","[-1,-1,-1]","[0.005521498413080578,0.09501995428751862]","[1,1,1]","[0.06611619268193313,0.09874985026381028]","[1,1,1]","[0.08500785025624016,0.05772025653159852]","[1,1,1]","[-0.14662730255982256,0.12809058482149038]","[1,1,1]","[-0.016423565393152356,0.19751608904875576]","[-1,-1,-1]","[-0.05083214396952349,0.16942967032291578]","[-1,-1,-1]","[0.13962127396781424,0.10536422371116011]","[-1,-1,-1]","[0.055739217857343565,-0.1879180604433814]","[-1,-1,-1]","[0.07385821126979338,0.15052854432414173]","[-1,-1,-1]","[-0.09608975491927962,0.10224979879073584]","[-1,-1,-1]","[0.11215625728040704,-0.011062432949563827]","[-1,-1,-1]","[0.02,0.02]",179.37,0,8,8,59,1,,,,,,,
,,,,,,,67fcf2f9b4bf5a18fa0bc246,682f0fd6c0d1548b9e0fde7b,2025-05-22_13h53.44.487,cuing_paradigm_dot,2024.1.5,Win32,60.97560976,682d573fa47f1360d1451895,,,,,,,,,,,179.3708,179.87,,,180.1215,180.6711,left,0.5343,,,,,,,,,0.45,,,,,,179.8701,180.1215,180.6711,"[0.1667085545238974,0.10096793770082405]","[1,1,1]","[-0.06957497529076515,0.059663542560644614]","[-1,-1,-1]","[0.002350792789592286,-0.15257853613982977]","[-1,-1,-1]","[0.09974127686205664,0.001161681122629328]","[1,1,1]","[-0.021700201296040902,0.05988419027135606]","[1,1,1]","[0.01617684721371055,-0.030638460795780864]","[-1,-1,-1]","[0.1347838351923624,-0.06235624763255936]","[-1,-1,-1]","[0.04776169326970673,-0.07266351289493889]","[-1,-1,-1]","[-0.05005203367418752,0.13622790632182766]","[1,1,1]","[-0.14562786720158927,0.09962890559781311]","[-1,-1,-1]","[-0.04074444301086705,-0.13799992482225257]","[-1,-1,-1]","[0.17712519723695422,0.05142822478123999]","[-1,-1,-1]","[0.0525094957244036,0.06329862902881103]","[1,1,1]","[-0.18656278638773596,0.03368986366394821]","[-1,-1,-1]","[0.05872656359271449,0.12368692023846053]","[-1,-1,-1]","[0.10627356964712051,0.1509116604323971]","[-1,-1,-1]","[-0.0751450045141038,-0.0795392249214344]","[1,1,1]","[0.10287008170693751,0.09855339784740566]","[-1,-1,-1]","[0.011283295289040911,0.16208806794586558]","[1,1,1]","[-0.026790038051114195,0.013690116940874776]","[1,1,1]","[0.11864844177077562,0.06103680786218428]","[-1,-1,-1]","[-0.1813499707817694,-0.04211828831332978]","[1,1,1]","[-0.09653644538997719,0.026482254303647906]","[-1,-1,-1]","[-0.05220733400510667,-0.03016378397920748]","[-1,-1,-1]","[-0.13128985343257102,-0.0940463633300064]","[-1,-1,-1]","[0.10909033100917294,-0.13809605730888777]","[1,1,1]","[0.0481653493603536,-0.14737278195570772]","[1,1,1]","[-0.051264204293708614,0.19094040871334153]","[-1,-1,-1]","[0.0562844889794614,-0.1900836635573033]","[1,1,1]","[-0.10571355522158307,-0.03860408578987301]","[1,1,1]","[0.0055424689508658635,-0.07127949639026947]","[1,1,1]","[0.18606457296643567,0.0004293446260686911]","[-1,-1,-1]","[0.02,0.02]",181.7619,0,9,9,77,1,,,,,,,
,,,,,,,67fcf2f9b4bf5a18fa0bc246,682f0fd6c0d1548b9e0fde7b,2025-05-22_13h53.44.487,cuing_paradigm_dot,2024.1.5,Win32,60.97560976,682d573fa47f1360d1451895,,,,,,,,,,,181.7625,182.2537,,,182.4934,183.0524,right,0.5375,,,,,,,,,0.4,,,,,,182.2538,182.4933,183.0526,"[0.12875374405546966,-0.12689923501542316]","[-1,-1,-1]","[0.1401855478760428,-0.07144858292893373]","[1,1,1]","[0.014649486331436918,0.06177103171873368]","[-1,-1,-1]","[-0.05230202446664107,0.10992878134743149]","[-1,-1,-1]","[-0.052026115942251594,0.17463003566617702]","[1,1,1]","[-0.12863554788120002,0.13684115318170303]","[-1,-1,-1]","[0.0759545716537559,0.13455849177877877]","[1,1,1]","[-0.1434662528193106,-0.12489341860115462]","[1,1,1]","[-0.07947012675522452,-0.13351322554384992]","[-1,-1,-1]","[0.17802899081267287,-0.04909710729189163]","[1,1,1]","[0.10490742420745798,0.07949964162868177]","[1,1,1]","[0.009789435981197917,-0.04664380996000657]","[1,1,1]","[-0.08319844521213528,0.13548944604790783]","[-1,-1,-1]","[-0.04052963192349918,0.01124774855630876]","[1,1,1]","[0.13596621917781512,-0.0007418153803603698]","[-1,-1,-1]","[-0.03685830678880795,-0.07297638111968979]","[-1,-1,-1]","[0.0789567337569513,-0.16818925508304083]","[-1,-1,-1]","[0.019493837030856834,0.020282799197825215]","[-1,-1,-1]","[-0.0026262088888327315,-0.15559967344974274]","[1,1,1]","[0.06041109056656127,0.06174571674633326]","[-1,-1,-1]","[-0.12136119000099864,-0.05515744205921585]","[1,1,1]","[-0.10670338137350788,0.09457421113551018]","[-1,-1,-1]","[0.023135609738757938,-0.18843208843574652]","[1,1,1]","[0.022236784283937945,0.1582744472676545]","[1,1,1]","[0.18510282966770625,0.02494484617062237]","[-1,-1,-1]","[0.1450797450500995,0.10024016645045193]","[-1,-1,-1]","[-0.09879921055039681,0.048241335582997376]","[-1,-1,-1]","[-0.0038120103130851123,0.19394650139559233]","[-1,-1,-1]","[-0.14674321545380928,0.05428003629094947]","[-1,-1,-1]","[-0.1631518136340116,-0.012227829213105949]","[1,1,1]","[0.0771487228549329,-0.01651186542783509]","[-1,-1,-1]","[-0.05111899831020113,0.053616925168388035]","[-1,-1,-1]","[0.02,0.02]",184.1529,0,10,10,30,1,,,,,,,
,,,,,,,67fcf2f9b4bf5a18fa0bc246,682f0fd6c0d1548b9e0fde7b,2025-05-22_13h53.44.487,cuing_paradigm_dot,2024.1.5,Win32,60.97560976,682d573fa47f1360d1451895,,,,,,,,,,,184.1539,184.6531,,,184.9037,185.3203,left,0.4002,,,,,,,,,0.6,,,,,,184.6531,184.9036,185.3203,"[0.1733775525091335,0.002994338492015655]","[-1,-1,-1]","[0.0875858573469472,0.049234586418019845]","[-1,-1,-1]","[-0.11371329206680598,-0.13602748328759778]","[1,1,1]","[0.11854861653705312,-0.09633999931662195]","[-1,-1,-1]","[0.08514503847154313,-0.15601445791145338]","[1,1,1]","[-0.060129168532339065,-0.1522774397974793]","[1,1,1]","[0.1217891878079853,0.009490328230774298]","[1,1,1]","[0.08400236754556671,-0.023096225120324068]","[-1,-1,-1]","[0.18147701450677606,0.05310943734929213]","[1,1,1]","[0.1133445844800656,0.08679084423011083]","[-1,-1,-1]","[-0.14201408521101366,0.014358839005718585]","[-1,-1,-1]","[-0.00045747125403676643,0.038911576671915436]","[-1,-1,-1]","[-0.026347714639574433,-0.18616092028963013]","[1,1,1]","[-0.01660039411706824,-0.02845004169319965]","[1,1,1]","[0.039113006270335655,0.16458808747883721]","[1,1,1]","[0.046526726036975004,0.05758260603325819]","[1,1,1]","[-0.052196580289578305,0.030601919959870633]","[-1,-1,-1]","[0.014258037863936444,-0.08482618775604973]","[1,1,1]","[-0.05497105859829882,-0.06049670248000047]","[1,1,1]","[0.16906425551860318,0.1052723200170329]","[1,1,1]","[-0.12584248584643976,0.12428196329144851]","[1,1,1]","[-0.04734691629807469,0.15216680597517931]","[-1,-1,-1]","[-0.11002297946384898,-0.040475098178641394]","[-1,-1,-1]","[-0.01315466259644983,-0.1482985603307453]","[-1,-1,-1]","[0.032327282236016906,-0.1906584330123671]","[-1,-1,-1]","[-0.09937366242643576,0.06772862245703576]","[1,1,1]","[-0.19836234860377383,-0.01879954430562512]","[1,1,1]","[0.1506984579719033,-0.03872361130132784]","[1,1,1]","[0.1359581540119619,-0.1413001876461331]","[1,1,1]","[-0.07856840999495421,0.11391080886509794]","[1,1,1]","[-0.07423647706940843,-0.005548861697687008]","[-1,-1,-1]","[-0.15290894607859248,0.07953750598926813]","[1,1,1]","[0.02,0.02]",186.4196,0,11,11,178,1,,,,,,,
,,,,,,,67fcf2f9b4bf5a18fa0bc246,682f0fd6c0d1548b9e0fde7b,2025-05-22_13h53.44.487,cuing_paradigm_dot,2024.1.5,Win32,60.97560976,682d573fa47f1360d1451895,,,,,,,,,,,186.4204,186.9198,,,187.1592,187.4702,right,0.2925,,,,,,,,,0.1,,,,,,186.9199,187.1592,187.4702,"[0.029203072320510573,0.040559640116243696]","[-1,-1,-1]","[0.017813356164208448,-0.0464830534697535]","[-1,-1,-1]","[-0.044483452143858265,0.11376347254780458]","[-1,-1,-1]","[-0.045221232745107316,-0.08461796436860948]","[-1,-1,-1]","[-0.010126808992734984,0.031061120142223845]","[-1,-1,-1]","[0.10392216133216958,0.07987492273158604]","[-1,-1,-1]","[0.16398604592957786,0.026599416200510293]","[-1,-1,-1]","[-0.070101737557106,0.07127072358404078]","[1,1,1]","[-0.06326537175144846,-0.156846490678157]","[-1,-1,-1]","[-0.1934005525002806,0.04888527377447923]","[-1,-1,-1]","[-0.01995662534271824,-0.12550877299058322]","[-1,-1,-1]","[-0.002036861783688825,-0.19008490553880958]","[-1,-1,-1]","[-0.16190850818908503,-0.07186444275387537]","[1,1,1]","[0.0720730291136804,0.14813855413964805]","[-1,-1,-1]","[0.11598549028037529,-0.07838951098767775]","[-1,-1,-1]","[0.000581779710830582,0.12730220348150836]","[-1,-1,-1]","[0.05827422209142877,-0.10520102393389509]","[-1,-1,-1]","[0.13471610707079873,-0.1374952466657104]","[-1,-1,-1]","[0.18998455309381782,-0.03949848130703871]","[-1,-1,-1]","[-0.16529875209604697,-0.01593468741287589]","[1,1,1]","[-0.06899661761654481,0.15825758567596562]","[-1,-1,-1]","[-0.1293594189717458,0.14271884390727008]","[-1,-1,-1]","[0.030709007997419338,-0.15334112465622127]","[-1,-1,-1]","[-0.034358622857049465,0.1920183389110344]","[-1,-1,-1]","[0.07799713261856478,-0.024832368358721928]","[-1,-1,-1]","[0.1310135699581087,0.143283024907089]","[-1,-1,-1]","[-0.03535425890667506,-0.017162639805193745]","[-1,-1,-1]","[-0.12245213291564958,0.09102223335886925]","[-1,-1,-1]","[-0.10090678554302938,-0.024032407406223474]","[-1,-1,-1]","[-0.1111344598837851,-0.09729376929216099]","[-1,-1,-1]","[-0.12151935443182786,-0.14457688257734608]","[-1,-1,-1]","[0.12134883846110153,0.012933356851025762]","[-1,-1,-1]","[0.02,0.02]",188.5694,0,12,12,23,1,,,,,,,
,,,,,,,67fcf2f9b4bf5a18fa0bc246,682f0fd6c0d1548b9e0fde7b,2025-05-22_13h53.44.487,cuing_paradigm_dot,2024.1.5,Win32,60.97560976,682d573fa47f1360d1451895,,,,,,,,,,,188.5703,189.0774,,,189.326,189.6545,left,0.311,,,,,,,,,0.55,,,,,,189.0775,189.3259,189.6546,"[0.0032017724448572507,-0.09132673379256694]","[1,1,1]","[0.06167695371176811,-0.16053656683970238]","[-1,-1,-1]","[0.06920308702016421,0.15941893779383332]","[-1,-1,-1]","[0.10199797619490511,-0.06546904164754393]","[1,1,1]","[0.022534959198027463,-0.038134874100561]","[1,1,1]","[0.11305745573108299,0.1297680002628578]","[1,1,1]","[-0.07393081847839361,0.09279989284760294]","[1,1,1]","[0.11609979855140592,-0.15647742341171703]","[1,1,1]","[0.06716892728102124,0.06914771361223955]","[1,1,1]","[0.18082770436440632,0.0259163266228841]","[1,1,1]","[-0.02949171553981944,0.13313574310445586]","[-1,-1,-1]","[0.02001063406955537,-0.12997744234064554]","[-1,-1,-1]","[0.13754493546067684,0.04994509564190721]","[-1,-1,-1]","[-0.11743301604472527,-0.08524864187667701]","[-1,-1,-1]","[-0.1676106752552276,-0.0012460905236305279]","[1,1,1]","[0.020847786986742754,0.02238222994013269]","[-1,-1,-1]","[-0.10804990393110017,-0.022855555718029753]","[1,1,1]","[-0.08056500057277297,0.1819999722581567]","[-1,-1,-1]","[-0.012532320471864328,0.07344862118459841]","[1,1,1]","[-0.03308800305467568,-0.13397176818057943]","[1,1,1]","[-0.13924282337072444,0.036274055279229445]","[-1,-1,-1]","[0.019340701500079674,0.11952025213678587]","[-1,-1,-1]","[-0.15747486230642976,0.10499242487392245]","[1,1,1]","[-0.07799170251941932,-0.10204752909835364]","[-1,-1,-1]","[-0.12606083933657156,0.1337277755443939]","[-1,-1,-1]","[0.17332057694881162,0.06994594547904356]","[-1,-1,-1]","[0.15791611436313904,-0.0636862374346743]","[1,1,1]","[0.12679468355337795,-0.03358378286985231]","[1,1,1]","[-0.01515856974580713,-0.17306185230686455]","[-1,-1,-1]","[0.17326585264039468,-0.014919685082818851]","[1,1,1]","[0.061480252021393046,-0.09044938308959823]","[1,1,1]","[-0.07230821035237689,-0.16274188207799878]","[1,1,1]","[0.02,0.02]",190.7532,0,13,13,138,1,,,,,,,
,,,,,,,67fcf2f9b4bf5a18fa0bc246,682f0fd6c0d1548b9e0fde7b,2025-05-22_13h53.44.487,cuing_paradigm_dot,2024.1.5,Win32,60.97560976,682d573fa47f1360d1451895,,,,,,,,,,,190.7541,191.2526,,,191.4937,191.9687,left,0.4544,,,,,,,,,0.45,,,,,,191.2527,191.4936,191.9687,"[-0.17878575551146084,-0.03661914821257667]","[1,1,1]","[0.09796152919724622,-0.16907894261372575]","[-1,-1,-1]","[0.15383458710301465,0.005736707799609263]","[-1,-1,-1]","[0.1390062941161722,-0.12608015904276254]","[1,1,1]","[0.012405292852199313,-0.07613599064027515]","[1,1,1]","[-0.10303405762734177,0.09604871942690887]","[-1,-1,-1]","[-0.16436024659601448,0.07832949881189044]","[1,1,1]","[0.10399346984287437,-0.007558500412425175]","[-1,-1,-1]","[-0.10861242160659343,0.1650425401897418]","[1,1,1]","[0.16653913427281075,-0.05451458192129318]","[-1,-1,-1]","[-0.044023409916363394,0.09953229044255216]","[-1,-1,-1]","[-0.0009740410010314398,-0.024121258239850268]","[-1,-1,-1]","[-0.10488146185232458,-0.05343065682840265]","[1,1,1]","[0.009076313851020566,0.07858794299107716]","[1,1,1]","[0.144482669748956,0.13381143243661053]","[-1,-1,-1]","[0.06143405456193648,0.18870861807631764]","[1,1,1]","[0.08188747175728807,0.11356162797333813]","[1,1,1]","[-0.09374437072846423,-0.16759618105684604]","[-1,-1,-1]","[-0.12292811646520548,-0.008698679099727267]","[-1,-1,-1]","[0.031078792572027072,0.117360420173794]","[1,1,1]","[0.09515935133158927,0.07547282409118225]","[-1,-1,-1]","[-0.0891686379026051,0.05683942322653825]","[-1,-1,-1]","[0.03930050079094194,-0.015954693784662258]","[1,1,1]","[-0.18791321788030407,0.02570368636133381]","[-1,-1,-1]","[-0.053379695061768075,0.1664000132975883]","[1,1,1]","[0.09932718010076422,-0.08492643096253147]","[-1,-1,-1]","[-0.03174733753096758,-0.18752448061832477]","[1,1,1]","[-0.08191657043424216,-0.11220573719495132]","[1,1,1]","[-0.011508119948893721,0.19172528572921965]","[-1,-1,-1]","[-0.03784828603649469,0.045191384095253924]","[-1,-1,-1]","[0.10984315816259153,0.1605029381701809]","[-1,-1,-1]","[-0.036344292961494565,-0.14120259130289642]","[-1,-1,-1]","[0.02,0.02]",193.0692,0,14,14,85,1,,,,,,,
,,,,,,,67fcf2f9b4bf5a18fa0bc246,682f0fd6c0d1548b9e0fde7b,2025-05-22_13h53.44.487,cuing_paradigm_dot,2024.1.5,Win32,60.97560976,682d573fa47f1360d1451895,,,,,,,,,,,193.0702,193.5696,,,193.8188,194.2046,right,0.3698,,,,,,,,,0.1,,,,,,193.5696,193.8187,194.2046,"[0.04345258129946411,0.042686098409774866]","[-1,-1,-1]","[-0.18515305606980237,0.015890816237247588]","[-1,-1,-1]","[0.026063359540853127,0.13918972183093015]","[-1,-1,-1]","[-0.06769456623336775,-0.134896351491737]","[-1,-1,-1]","[0.09092667710683834,-0.07645530852969876]","[-1,-1,-1]","[-0.1463524512287925,0.05207461637934356]","[-1,-1,-1]","[0.05566223314375387,-0.021073248625097206]","[-1,-1,-1]","[-0.12953595811258586,-0.11664607661312064]","[-1,-1,-1]","[-0.1415388751839418,0.13124843770126662]","[-1,-1,-1]","[-0.11621488606177799,-0.029277041034574184]","[-1,-1,-1]","[0.00036456795340530885,0.01638696671278299]","[1,1,1]","[0.04266946098012198,-0.12882748398413196]","[-1,-1,-1]","[0.059469039584041435,-0.1742492045545832]","[-1,-1,-1]","[0.020592263826596516,0.09735283326355161]","[-1,-1,-1]","[-0.03920151874455154,0.18951034922816962]","[-1,-1,-1]","[0.06938472897198601,0.08304848596664174]","[-1,-1,-1]","[0.16966566759637006,-0.08138606442450201]","[-1,-1,-1]","[-0.09166863016003671,0.051041091280224576]","[-1,-1,-1]","[0.10138616751320018,0.03748776742530667]","[-1,-1,-1]","[-0.06962241615909229,-0.0918719467584344]","[-1,-1,-1]","[-0.17951172452426917,-0.032494819034940156]","[-1,-1,-1]","[0.15391760994904477,-0.12398883616955203]","[-1,-1,-1]","[0.011376281541700046,-0.1624269668032452]","[-1,-1,-1]","[0.14682639516811724,-0.0024044350825043605]","[1,1,1]","[0.12392029340569667,-0.04891405344009423]","[-1,-1,-1]","[0.189740904455673,-0.03588089100605566]","[-1,-1,-1]","[-0.04283085567418594,0.0880281972698148]","[-1,-1,-1]","[0.12600088862092787,0.07573386009345612]","[1,1,1]","[-0.09037109205636075,-0.17824387360249086]","[-1,-1,-1]","[0.14994705740244046,0.11680895844928743]","[-1,-1,-1]","[-0.06321900648693655,-0.00422816173497997]","[-1,-1,-1]","[-0.01600593162763243,-0.09752218968588176]","[-1,-1,-1]","[0.02,0.02]",195.3005,0,15,15,21,1,,,,,,,
,,,,,,,67fcf2f9b4bf5a18fa0bc246,682f0fd6c0d1548b9e0fde7b,2025-05-22_13h53.44.487,cuing_paradigm_dot,2024.1.5,Win32,60.97560976,682d573fa47f1360d1451895,,,,,,,,,,,195.3014,195.7857,,,196.0149,196.2124,left,0.1795,,,,,,,,,0.9,,,,,,195.7858,196.0149,196.2124,"[-0.017855445620896138,0.17109343177900896]","[1,1,1]","[-0.10090597132360399,0.14524964432589488]","[1,1,1]","[-0.004236959868476048,-0.008432658622150317]","[1,1,1]","[0.049538491346685136,-0.0923675277212787]","[1,1,1]","[0.14419798204251147,0.1119499312595807]","[1,1,1]","[0.18295720378952837,0.019342869546488905]","[1,1,1]","[-0.1466455758651396,-0.05016593294828089]","[-1,-1,-1]","[0.07155154143175656,-0.16324646615665375]","[1,1,1]","[-0.09642059202553248,-0.12318968946150675]","[1,1,1]","[0.11278189073574417,-0.10484719327652885]","[1,1,1]","[-0.018027894507563785,-0.1735478123610585]","[1,1,1]","[-0.1595355709873299,-0.006761228381956516]","[1,1,1]","[0.11495416156306645,-0.031308196483781046]","[1,1,1]","[0.021594884854804344,0.058314942487584384]","[1,1,1]","[-0.19902093403785967,0.008500529224114877]","[1,1,1]","[-0.015562787839693585,-0.06831379321218442]","[-1,-1,-1]","[-0.11829862907672786,-0.08319242890772817]","[-1,-1,-1]","[-0.15133329433497045,0.08096771228897685]","[1,1,1]","[-0.00753465520774162,0.11973647501063579]","[1,1,1]","[-0.12779617585396422,0.039277399707946484]","[1,1,1]","[0.13918347593112101,0.019545071049330353]","[1,1,1]","[-0.10412337564315399,-0.045163645372664644]","[1,1,1]","[0.18077403063458194,-0.06127675751780895]","[1,1,1]","[0.0647486437314295,0.1890419895746808]","[1,1,1]","[0.0958857214626582,0.07337397886030218]","[1,1,1]","[-0.08544204693191579,0.018080252308142968]","[1,1,1]","[0.05027524852448069,-0.051196097921058614]","[1,1,1]","[0.02340360136486855,-0.1278466575301833]","[1,1,1]","[0.03647760440177589,0.1105635333655609]","[1,1,1]","[-0.03752053328895986,0.05698520048492811]","[1,1,1]","[0.03433702588363886,0.019324278067451087]","[1,1,1]","[0.09762308417583153,0.16442321659731304]","[1,1,1]","[0.02,0.02]",197.3023,0,16,16,188,1,,,,,,,
,,,,,,,67fcf2f9b4bf5a18fa0bc246,682f0fd6c0d1548b9e0fde7b,2025-05-22_13h53.44.487,cuing_paradigm_dot,2024.1.5,Win32,60.97560976,682d573fa47f1360d1451895,,,,,,,,,,,197.3033,197.8022,,,198.0539,198.7702,right,0.7011,,,,,,,,,0.4,,,,,,197.8022,198.0538,198.7703,"[-0.16245075650939672,-0.11091155258801093]","[-1,-1,-1]","[-0.11949261916641206,0.06790001687888479]","[-1,-1,-1]","[0.004148662160732293,-0.11516969653310055]","[-1,-1,-1]","[0.0482740140461227,-0.1080862923035882]","[1,1,1]","[0.024006852731144408,0.04840513884973732]","[-1,-1,-1]","[-0.16240258084009587,-0.058501324999936224]","[-1,-1,-1]","[0.16087180651461255,-0.007245713755499187]","[1,1,1]","[0.0175058031000618,0.006914472146983262]","[-1,-1,-1]","[-0.033909601623092665,0.08238168609865354]","[-1,-1,-1]","[0.05233382110539248,-0.05144034678068573]","[-1,-1,-1]","[0.17000677970864944,0.0992233517015443]","[1,1,1]","[-0.11420870748219127,-0.05328396047416076]","[-1,-1,-1]","[-0.12355754341319095,-0.1548170988372674]","[-1,-1,-1]","[0.010142780073040984,0.11169839741622935]","[1,1,1]","[0.11526995179126065,-0.1604760936846965]","[1,1,1]","[0.15933564401942163,0.04413657646495859]","[-1,-1,-1]","[-0.1591510484231899,-0.015065978792297336]","[-1,-1,-1]","[-0.05532377289073737,-0.13053399294962945]","[1,1,1]","[-0.05756987061256933,0.11484382424941741]","[-1,-1,-1]","[0.05926531951485307,-0.0020686867752132774]","[1,1,1]","[0.06452009318992384,0.10761395775878019]","[1,1,1]","[0.1761655317609881,-0.04890212533558209]","[-1,-1,-1]","[-0.08508636722759966,0.01263035586707818]","[1,1,1]","[-0.13473382842078171,0.1348151294087937]","[-1,-1,-1]","[0.04893974071409068,0.16313197434526974]","[-1,-1,-1]","[0.12169096112337621,0.023875285258069964]","[-1,-1,-1]","[0.09778752653022786,0.06717413349083066]","[1,1,1]","[-0.1690574858452024,0.07743744363869892]","[-1,-1,-1]","[-0.042548957368590296,-0.18157945584374635]","[1,1,1]","[-0.024796469359395994,-0.05631121869944949]","[1,1,1]","[-0.04676204081191873,0.04435198585084718]","[1,1,1]","[-0.07095413238833276,-0.0836589254991432]","[-1,-1,-1]","[0.02,0.02]",199.8688,0,17,17,31,1,,,,,,,
,,,,,,,67fcf2f9b4bf5a18fa0bc246,682f0fd6c0d1548b9e0fde7b,2025-05-22_13h53.44.487,cuing_paradigm_dot,2024.1.5,Win32,60.97560976,682d573fa47f1360d1451895,,,,,,,,,,,199.8697,200.3689,,,200.6261,201.1535,right,0.508,,,,,,,,,0.4,,,,,,200.369,200.626,201.1536,"[-0.1829303777136197,0.015054245931455821]","[1,1,1]","[0.05140258431988938,-0.08362622073750267]","[1,1,1]","[0.12011225202851829,0.05056817418269347]","[-1,-1,-1]","[-0.07690166737286022,-0.0968396135805371]","[-1,-1,-1]","[-0.06988625163212252,-0.03548070473515182]","[-1,-1,-1]","[0.016969070232463437,0.1843117731727225]","[-1,-1,-1]","[-0.0631992001411974,-0.18553947913715207]","[-1,-1,-1]","[-0.01578312546126201,-0.19206450361409103]","[-1,-1,-1]","[0.022399560857410874,-0.028821151980750977]","[-1,-1,-1]","[-0.04874999573324386,-0.12640586786769864]","[-1,-1,-1]","[0.1108516424388515,-0.10260795194131254]","[-1,-1,-1]","[0.01703723154133271,0.04060745117084411]","[-1,-1,-1]","[-0.01572634332378277,0.0011856611904380427]","[-1,-1,-1]","[-0.11656267117248875,0.15348232813752904]","[1,1,1]","[-0.11652912718376122,0.028431838586777378]","[1,1,1]","[-0.149625018172446,-0.09833374879676665]","[1,1,1]","[0.0917937367559043,-0.0158009465372973]","[1,1,1]","[0.05454466334804987,0.16212875083500405]","[-1,-1,-1]","[0.14414437966056967,-0.0029388406530116416]","[-1,-1,-1]","[0.08938881160931211,0.09855422530781414]","[-1,-1,-1]","[0.14285876214241852,-0.1277924544744335]","[-1,-1,-1]","[-0.14029676958422388,-0.02281404803860248]","[-1,-1,-1]","[-0.0188276940206983,-0.09924420558690758]","[1,1,1]","[0.006178586489857798,-0.14662574501095732]","[1,1,1]","[-0.06859530334652743,0.024797930943186487]","[1,1,1]","[-0.023684731964170862,0.11759809584404504]","[1,1,1]","[0.07883249405402587,-0.1674298106524488]","[1,1,1]","[-0.032838304121361336,-0.05307140567269802]","[-1,-1,-1]","[-0.11336034106152945,-0.14787257618329072]","[-1,-1,-1]","[-0.01736692438513475,0.07604584727359164]","[1,1,1]","[0.17056973562081937,-0.09396250786650834]","[1,1,1]","[-0.14528183652573662,0.10547243233702772]","[-1,-1,-1]","[0.02,0.02]",202.2524,0,18,18,45,1,,,,,,,
,,,,,,,67fcf2f9b4bf5a18fa0bc246,682f0fd6c0d1548b9e0fde7b,2025-05-22_13h53.44.487,cuing_paradigm_dot,2024.1.5,Win32,60.97560976,682d573fa47f1360d1451895,,,,,,,,,,,202.2529,202.752,,,203.0029,203.1691,left,0.1505,,,,,,,,,0.5,,,,,,202.7522,203.0028,203.1692,"[0.042469817576269206,0.019416347787673472]","[-1,-1,-1]","[0.03848096879703358,-0.10114540311329151]","[1,1,1]","[-0.00036258733793602567,0.03298685451746225]","[-1,-1,-1]","[0.04147335733160145,0.07565920759223331]","[-1,-1,-1]","[0.08076314777808016,-0.11631357710275848]","[-1,-1,-1]","[0.09111873036441445,0.09884935043773703]","[-1,-1,-1]","[-0.07678965771931764,-0.045789740186462986]","[-1,-1,-1]","[-0.062120251990642354,-0.13183978497612966]","[-1,-1,-1]","[-0.04233466599983599,0.12224612834045119]","[1,1,1]","[-0.008211919629391612,-0.1732227353464424]","[1,1,1]","[0.0926118230089019,0.14806037185047533]","[1,1,1]","[0.13261833657657596,-0.029749004132768906]","[-1,-1,-1]","[0.16163226689239538,0.048719313437595786]","[-1,-1,-1]","[0.15178589498559772,0.09239183670046835]","[1,1,1]","[-0.036067669809871916,-0.04944980971191779]","[-1,-1,-1]","[-0.09785543065957042,0.11632917309202245]","[-1,-1,-1]","[-0.05067821297144707,0.18268193911768651]","[-1,-1,-1]","[0.003100060237909959,0.13271056054284547]","[1,1,1]","[-0.12249439993633156,-0.1018346336477029]","[-1,-1,-1]","[0.1670021468119832,0.008380043689120507]","[1,1,1]","[0.1768716312990467,-0.0341119340968689]","[-1,-1,-1]","[-0.09589342201608239,-0.16450847070687744]","[1,1,1]","[-0.1273080461997594,0.04020495763675449]","[-1,-1,-1]","[0.08518670977881547,-0.17195832023867497]","[-1,-1,-1]","[-0.15189248762777888,-0.05764451370310296]","[1,1,1]","[-0.16589183896060514,0.08025369157564136]","[1,1,1]","[0.03921348222138662,-0.05273322945149646]","[1,1,1]","[0.10748454175330173,-0.07937070165913573]","[1,1,1]","[0.08690650320532099,-0.004427680986438488]","[1,1,1]","[0.14878149437136026,-0.06845250875259405]","[1,1,1]","[-0.16361477539861286,-0.005755074404325537]","[1,1,1]","[0.03695833309029516,0.1594812260553483]","[1,1,1]","[0.02,0.02]",204.2687,0,19,19,108,1,,,,,,,
,,,,,,,67fcf2f9b4bf5a18fa0bc246,682f0fd6c0d1548b9e0fde7b,2025-05-22_13h53.44.487,cuing_paradigm_dot,2024.1.5,Win32,60.97560976,682d573fa47f1360d1451895,,,,,,,,,,,204.2696,204.7699,,,205.0201,205.4698,left,0.4347,,,,,,,,,0.5,,,,,,204.77,205.0201,205.4698,"[-0.07283290021423768,-0.03902417199665756]","[-1,-1,-1]","[-0.04455186296362445,-0.09178614506209123]","[1,1,1]","[0.062209499211928955,0.05296190147064092]","[1,1,1]","[0.04095674779847753,-0.003237703640852317]","[1,1,1]","[-0.015420719660063201,0.0211484938457332]","[1,1,1]","[0.1273578920106929,-0.00096014280091171]","[1,1,1]","[-0.015746001546911824,0.09542763615158026]","[1,1,1]","[-0.15157379835844986,-0.07876668558758114]","[-1,-1,-1]","[0.12390984368089478,0.14136149752225785]","[-1,-1,-1]","[-0.09546041494445062,0.13507007930824141]","[1,1,1]","[-0.13439952242404346,0.017867689389876703]","[-1,-1,-1]","[0.08045560618351069,0.1260460587171538]","[-1,-1,-1]","[0.05188196593026409,0.09416165511276635]","[-1,-1,-1]","[0.1350151219255387,-0.05729069057412545]","[-1,-1,-1]","[-0.028709859902464736,0.18167886600792094]","[1,1,1]","[-0.07954631110980079,0.09380043756839239]","[-1,-1,-1]","[0.03982326112178584,-0.05918501280380525]","[-1,-1,-1]","[0.130330303443358,-0.11484110003886665]","[-1,-1,-1]","[0.16207807200705945,0.1156886296968836]","[1,1,1]","[0.05375206155479396,0.16354699736970293]","[1,1,1]","[-0.016569748422051875,-0.06033490980304227]","[-1,-1,-1]","[0.17613198055037077,0.07645782473848638]","[1,1,1]","[-0.11625629939521444,-0.03272549060594245]","[1,1,1]","[0.005458796264786763,-0.1913622900560827]","[-1,-1,-1]","[-0.09179189001372824,-0.12011478463789454]","[1,1,1]","[-0.14658476171383578,0.09647261385099658]","[1,1,1]","[-0.06525062150417967,0.16497132142877216]","[-1,-1,-1]","[0.00927569684698367,-0.11681951083324033]","[1,1,1]","[-0.1969108673124072,0.030501706519544956]","[1,1,1]","[-0.0536116181203942,-0.1687717816553919]","[-1,-1,-1]","[0.06858660646460271,-0.11076102567859221]","[-1,-1,-1]","[0.17041355911450154,-0.030113599524116207]","[-1,-1,-1]","[0.02,0.02]",206.5686,0,20,20,118,1,,,,,,,
,,,,,,,67fcf2f9b4bf5a18fa0bc246,682f0fd6c0d1548b9e0fde7b,2025-05-22_13h53.44.487,cuing_paradigm_dot,2024.1.5,Win32,60.97560976,682d573fa47f1360d1451895,,,,,,,,,,,206.5696,207.0685,,,207.3193,207.6699,left,0.3348,,,,,,,,,0.5,,,,,,207.0686,207.3192,207.6699,"[0.07930015754212373,-0.05962733036125625]","[1,1,1]","[0.05613705627666549,0.09753978766693691]","[1,1,1]","[0.06474542064956847,-0.012220823435069368]","[-1,-1,-1]","[-0.0040872946184152045,0.022642605667493775]","[-1,-1,-1]","[0.12721714577455515,-0.0678176272400494]","[-1,-1,-1]","[0.12767553532681647,0.07454577341234075]","[1,1,1]","[0.03729195929698306,-0.08082560093489878]","[1,1,1]","[0.167507128597963,0.008964299448054975]","[1,1,1]","[-0.1304314450383485,0.009375759793014122]","[-1,-1,-1]","[-0.051964135149749,-0.08295480936485321]","[1,1,1]","[-0.08877673561294605,0.17051586956447934]","[1,1,1]","[-0.1091731669907224,0.09920095181054607]","[-1,-1,-1]","[-0.11555581094295077,-0.14690345122253903]","[1,1,1]","[0.00542504458652797,-0.04600986585081808]","[1,1,1]","[-0.10453352519679815,-0.06368293953931162]","[1,1,1]","[-0.13964415364260707,-0.09283765322968307]","[-1,-1,-1]","[-0.17255259548597268,-0.053464905294309466]","[-1,-1,-1]","[0.0580265531870299,-0.18722574770501774]","[-1,-1,-1]","[-0.005802688839138598,-0.10639015560791613]","[1,1,1]","[-0.05497257284820078,-0.014560601291987182]","[-1,-1,-1]","[-0.014072903874303308,0.12024205864393084]","[1,1,1]","[-0.12706356409088093,0.13575889510743236]","[1,1,1]","[-0.08877759640122643,0.0427309199305285]","[-1,-1,-1]","[0.045478249832013054,-0.1389950526086084]","[-1,-1,-1]","[-0.015099595037382136,0.18254790236832158]","[-1,-1,-1]","[0.17571965519180796,-0.06481303218459387]","[-1,-1,-1]","[0.11453154444922423,-0.12126621515755344]","[-1,-1,-1]","[0.09319098813964123,0.14794363308207956]","[-1,-1,-1]","[-0.005419880518476783,-0.174243634167331]","[1,1,1]","[-0.030606479903918283,-0.13983802044349497]","[1,1,1]","[0.06284942920343135,0.03035466942675842]","[1,1,1]","[0.09675090394704759,-0.16141212166736357]","[-1,-1,-1]","[0.02,0.02]",208.7684,0,21,21,94,1,,,,,,,
,,,,,,,67fcf2f9b4bf5a18fa0bc246,682f0fd6c0d1548b9e0fde7b,2025-05-22_13h53.44.487,cuing_paradigm_dot,2024.1.5,Win32,60.97560976,682d573fa47f1360d1451895,,,,,,,,,,,208.7694,209.2686,,,209.5196,209.8888,right,0.3511,,,,,,,,,0.1,,,,,,209.2687,209.5195,209.8888,"[0.14899694245524703,-0.07735666495742742]","[-1,-1,-1]","[-0.05850123141475366,0.13302926383971006]","[-1,-1,-1]","[0.0922897660342737,0.0010229317882901447]","[-1,-1,-1]","[-0.010275701922313984,0.19531273086800655]","[-1,-1,-1]","[-0.16871814058717374,0.07315141486728742]","[-1,-1,-1]","[0.05941356814498308,-0.13848786257225892]","[1,1,1]","[0.021170828803091804,-0.11907901200185783]","[-1,-1,-1]","[-0.06501471584314227,0.08206527435995335]","[-1,-1,-1]","[-0.08590365830943392,-0.003389821754067788]","[-1,-1,-1]","[0.15098402796661298,0.041477728415949086]","[-1,-1,-1]","[-0.05372945036090519,0.18729707882364027]","[-1,-1,-1]","[-0.06745098124049537,-0.09977597675387184]","[-1,-1,-1]","[0.13022191227490032,-0.03846264104169829]","[-1,-1,-1]","[-0.040021537132654446,-0.03506087313605327]","[-1,-1,-1]","[0.08723561672600279,0.15056400055953875]","[-1,-1,-1]","[0.08959672045746878,-0.08031908574576348]","[-1,-1,-1]","[-0.19809928607820756,-0.0012344652268845055]","[-1,-1,-1]","[0.1248379965186599,0.10654236080093347]","[-1,-1,-1]","[0.03852207862246982,0.04854756437814515]","[-1,-1,-1]","[-0.060502095248096424,-0.14339632756467743]","[-1,-1,-1]","[-0.009896543867751363,0.15223700554007275]","[-1,-1,-1]","[-0.016376228766345077,0.09971583009920487]","[-1,-1,-1]","[-0.12140664943735228,0.035287266183627215]","[-1,-1,-1]","[-0.15072462894261568,-0.1237879804993121]","[-1,-1,-1]","[-0.17783746516942678,-0.05054570367351617]","[-1,-1,-1]","[-0.06137296884652725,0.02881814046603775]","[-1,-1,-1]","[-0.12108303790711512,-0.06724378067388764]","[1,1,1]","[-0.006540734993568551,0.03144614947758419]","[1,1,1]","[0.10112162556306742,-0.13104182430586223]","[-1,-1,-1]","[0.08476549854750845,0.06711163349236357]","[-1,-1,-1]","[-0.11134967921829989,0.15593942462085894]","[-1,-1,-1]","[-0.16522848663566686,0.02650733908887982]","[-1,-1,-1]","[0.02,0.02]",210.9842,0,22,22,16,1,,,,,,,
,,,,,,,67fcf2f9b4bf5a18fa0bc246,682f0fd6c0d1548b9e0fde7b,2025-05-22_13h53.44.487,cuing_paradigm_dot,2024.1.5,Win32,60.97560976,682d573fa47f1360d1451895,,,,,,,,,,,210.9848,211.4851,,,211.7355,212.0191,right,0.2675,,,,,,,,,0.1,,,,,,211.4852,211.7354,212.0192,"[0.1649381361194918,0.06814722563956802]","[-1,-1,-1]","[0.06651549899076546,0.08269293893903222]","[-1,-1,-1]","[-0.08817346170609852,0.019048361174778577]","[1,1,1]","[-0.0244122918042921,0.1881536505838041]","[-1,-1,-1]","[-0.08018593447545538,-0.15675870771611883]","[-1,-1,-1]","[0.15757839397237763,0.006456128324036095]","[-1,-1,-1]","[0.057608584272420334,-0.06554289679763316]","[-1,-1,-1]","[0.04076607959359307,0.12902380654040124]","[-1,-1,-1]","[0.11103123332116485,-0.05688289373017007]","[-1,-1,-1]","[-0.12636285018746374,-0.01861136834349386]","[-1,-1,-1]","[0.1662791702823095,-0.04716198222029521]","[-1,-1,-1]","[-0.09474190022908775,-0.06415560992398156]","[-1,-1,-1]","[0.12439806960682812,-0.1209632272799305]","[-1,-1,-1]","[-0.033211798216386916,-0.030641224047364204]","[-1,-1,-1]","[-0.19064513647134498,0.006085308427406008]","[-1,-1,-1]","[0.019521633271391805,0.1741220670427548]","[-1,-1,-1]","[-0.01968427551574846,0.10372740000828967]","[-1,-1,-1]","[-0.02449934190816293,-0.08818585295351455]","[-1,-1,-1]","[0.003226964174790972,0.015400870078714463]","[-1,-1,-1]","[0.08037909524012318,-0.1282920473970987]","[-1,-1,-1]","[-0.12808899076893346,-0.14488225020384973]","[-1,-1,-1]","[-0.040384318446529545,0.028293689755463446]","[-1,-1,-1]","[-0.06345549173874095,0.11189373478490151]","[-1,-1,-1]","[0.1544030321692564,0.1257739566379616]","[-1,-1,-1]","[-0.030724555158963024,-0.16329509591120056]","[-1,-1,-1]","[0.015380697097897729,-0.042132964346266275]","[1,1,1]","[-0.14518933666825834,0.054092932256964585]","[1,1,1]","[-0.13823268218761997,0.12718810604060043]","[-1,-1,-1]","[-0.09850738270106152,0.15153661694846446]","[-1,-1,-1]","[-0.1433051451939622,-0.07373895041139773]","[-1,-1,-1]","[0.09168460289397366,0.047390959376386765]","[-1,-1,-1]","[0.025491480359490934,-0.11665709368623296]","[-1,-1,-1]","[0.02,0.02]",213.1183,0,23,23,7,1,,,,,,,
,,,,,,,67fcf2f9b4bf5a18fa0bc246,682f0fd6c0d1548b9e0fde7b,2025-05-22_13h53.44.487,cuing_paradigm_dot,2024.1.5,Win32,60.97560976,682d573fa47f1360d1451895,,,,,,,,,,,213.1192,213.6155,,,213.8691,214.236,left,0.3513,,,,,,,,,0.5,,,,,,213.6156,213.869,214.2361,"[-0.08454217921319335,0.09139855736462255]","[1,1,1]","[0.008519885078792299,-0.08859061429365096]","[-1,-1,-1]","[0.14158967172429124,0.11582493428644511]","[1,1,1]","[-0.030298345952783017,-0.11119104750241034]","[-1,-1,-1]","[-0.056550553537973516,-0.03869594898502239]","[-1,-1,-1]","[0.07954377573834148,0.05329643373783535]","[1,1,1]","[-0.07065257460928845,-0.13590982516218975]","[1,1,1]","[-0.083962320790719,-0.08365841541580891]","[1,1,1]","[-0.03554167328288098,0.18001216075580895]","[1,1,1]","[0.0935929777838492,-0.1645549345487455]","[1,1,1]","[0.18955560567371393,-0.001446184551139341]","[-1,-1,-1]","[-0.024968672633047282,0.06944353400633735]","[-1,-1,-1]","[-0.07642165932352145,0.16003720584827072]","[1,1,1]","[-0.14778417612979666,-0.12313005573825504]","[1,1,1]","[0.18180546386756163,0.08172111409837167]","[1,1,1]","[-0.16005652721920252,0.07619653363086658]","[-1,-1,-1]","[0.11874333538544601,0.03998713958400655]","[-1,-1,-1]","[-0.13289551765114743,-0.04747742901864793]","[1,1,1]","[0.1767099057843261,-0.04382921376802822]","[-1,-1,-1]","[0.12430995077309429,-0.12522317970188168]","[-1,-1,-1]","[0.04184736768559844,-0.0020662558405621996]","[-1,-1,-1]","[-0.13946618726179222,-0.0014024522095093894]","[1,1,1]","[-0.09169592820828834,0.020590806365178772]","[1,1,1]","[0.017754991877318386,0.12077824758251422]","[1,1,1]","[0.03608080869702747,-0.16905930624524962]","[-1,-1,-1]","[0.14762470869672717,-0.00873496185661963]","[1,1,1]","[0.06693278977165847,0.11151177185927325]","[1,1,1]","[-0.0060128035853119445,-0.199768701279843]","[-1,-1,-1]","[-0.18909031804013252,-0.0648964413475943]","[-1,-1,-1]","[-0.19086051702143383,-0.00891831719506181]","[-1,-1,-1]","[0.021270444680161187,0.03554554333478428]","[-1,-1,-1]","[0.04710702120435201,-0.0587946185064152]","[-1,-1,-1]","[0.02,0.02]",215.3346,0,24,24,105,1,,,,,,,
,,,,,,,67fcf2f9b4bf5a18fa0bc246,682f0fd6c0d1548b9e0fde7b,2025-05-22_13h53.44.487,cuing_paradigm_dot,2024.1.5,Win32,60.97560976,682d573fa47f1360d1451895,,,,,,,,,,,215.3356,215.8347,,,216.0855,216.5189,right,0.4177,,,,,,,,,0.45,,,,,,215.8348,216.0854,216.519,"[0.08762333400175486,0.06268029482692072]","[-1,-1,-1]","[0.04063509740976775,-0.16363268292927532]","[-1,-1,-1]","[-0.12018868769999441,0.04000145879232775]","[-1,-1,-1]","[0.17109911258674573,0.10316378893739109]","[1,1,1]","[0.06819393321131902,-0.045619768155465035]","[-1,-1,-1]","[0.1619887263769405,-0.010960728330610518]","[1,1,1]","[0.053297355814189956,0.16367518460647248]","[1,1,1]","[0.19114554256594862,0.0477226037050316]","[1,1,1]","[-0.038771607096235,-0.1911164971440922]","[1,1,1]","[-0.14632898442109518,0.11592666331815092]","[-1,-1,-1]","[-0.11540326094868414,-0.014274068825012077]","[1,1,1]","[0.011925083368457273,0.04393873498178025]","[-1,-1,-1]","[-0.04025136325242923,-0.06435025770679234]","[-1,-1,-1]","[-0.0403294850190673,0.10034192399957474]","[1,1,1]","[0.027595871269607424,0.11435172646320796]","[-1,-1,-1]","[-0.10166656107020731,0.1697378486917427]","[-1,-1,-1]","[-0.1697442584817793,0.04947871311731886]","[-1,-1,-1]","[-0.06866625769443728,-0.10416417675151964]","[1,1,1]","[0.030748711462908158,-0.012908477360574423]","[-1,-1,-1]","[0.11167470045582446,0.02076929882859947]","[1,1,1]","[-0.011883575330331414,0.1983297196139944]","[1,1,1]","[0.07201013326489349,0.12569818414863312]","[-1,-1,-1]","[-0.02381782416873861,0.019233397673325554]","[1,1,1]","[-0.1756331395342218,-0.002256693968615082]","[1,1,1]","[0.1130232559679963,-0.10760821760139111]","[1,1,1]","[0.11085668216127738,-0.04340310850053514]","[-1,-1,-1]","[-0.1207801784095177,-0.06115891076307461]","[-1,-1,-1]","[-0.16683820699702973,-0.09359976913130506]","[-1,-1,-1]","[-0.0028650231818047912,-0.046054645856771353]","[-1,-1,-1]","[-0.013291128506698271,-0.12552577342792215]","[-1,-1,-1]","[0.012183343499190714,0.15683781114375403]","[1,1,1]","[0.14405112483830487,-0.13428535948689083]","[-1,-1,-1]","[0.02,0.02]",217.618,0,25,25,78,1,,,,,,,
,,,,,,,67fcf2f9b4bf5a18fa0bc246,682f0fd6c0d1548b9e0fde7b,2025-05-22_13h53.44.487,cuing_paradigm_dot,2024.1.5,Win32,60.97560976,682d573fa47f1360d1451895,,,,,,,,,,,217.6189,218.1179,,,218.3623,218.6691,left,0.2937,,,,,,,,,0.9,,,,,,218.1179,218.3623,218.6692,"[-0.14066925864005028,0.13785573551714483]","[1,1,1]","[0.09776828284091618,0.1619190687818098]","[1,1,1]","[0.0051372654414707265,-0.05486904725499401]","[1,1,1]","[0.09694741169741956,-0.16589825071598158]","[1,1,1]","[-0.10141906557261804,-0.007644135129202006]","[1,1,1]","[0.048172923036732734,0.02513679603489656]","[1,1,1]","[-0.05330712696639544,-0.05553447385458031]","[1,1,1]","[0.10734503543933482,-0.023178462179159816]","[1,1,1]","[0.061620608793578384,0.0950847323181777]","[-1,-1,-1]","[-0.11663891110735689,0.04339137792777212]","[1,1,1]","[0.17341416628337955,-0.0009841755788457924]","[1,1,1]","[-0.04087927443738369,0.17683875417101955]","[1,1,1]","[0.08112544262206386,0.059897974846820135]","[1,1,1]","[0.1461756606146746,-0.056305929147496984]","[-1,-1,-1]","[-0.15475263352791854,-0.07638544418745118]","[1,1,1]","[-0.06975612522600447,-0.10799033969204198]","[1,1,1]","[0.05199683367290618,-0.033243982076858]","[1,1,1]","[0.1674984661263677,-0.10160263901089187]","[1,1,1]","[-0.10965336442691319,-0.07964728263045621]","[1,1,1]","[0.1626572654903842,0.05778735146282337]","[-1,-1,-1]","[-0.17537235756861366,0.08645565002485579]","[1,1,1]","[0.13623966791262407,0.14273486985780312]","[1,1,1]","[-0.04027299604022576,0.02993014509055597]","[1,1,1]","[0.009504613843805278,-0.09847314845663954]","[1,1,1]","[0.05113705711835157,-0.1822552282883536]","[1,1,1]","[0.010078681034831642,0.057487002088643]","[1,1,1]","[0.04504211596406195,0.1443123174137042]","[1,1,1]","[0.07684141445084866,-0.10891368736862923]","[1,1,1]","[0.0014657435011527502,-0.006097975594566919]","[1,1,1]","[0.021085444184853957,0.11137151764394705]","[1,1,1]","[-0.09173065567909397,-0.17622482650401014]","[1,1,1]","[0.12408642462563792,0.027960894469306493]","[1,1,1]","[0.02,0.02]",219.768,0,26,26,185,1,,,,,,,
,,,,,,,67fcf2f9b4bf5a18fa0bc246,682f0fd6c0d1548b9e0fde7b,2025-05-22_13h53.44.487,cuing_paradigm_dot,2024.1.5,Win32,60.97560976,682d573fa47f1360d1451895,,,,,,,,,,,219.7689,220.2682,,,220.5192,221.0273,right,0.493,,,,,,,,,0.5,,,,,,220.2683,220.5192,221.0274,"[-0.16584150889441218,-0.0406580960145234]","[-1,-1,-1]","[0.07435694594676291,-0.0005484141621326546]","[-1,-1,-1]","[-0.02945098779881914,0.12701579674863242]","[-1,-1,-1]","[-0.08025021891011014,0.05957502461323786]","[-1,-1,-1]","[-0.11603189212914802,0.08945755471509495]","[-1,-1,-1]","[0.09951596297455696,-0.06119938592276493]","[1,1,1]","[0.0356053804398455,-0.010476690117904579]","[-1,-1,-1]","[-0.13370086333108552,0.047838365776791944]","[-1,-1,-1]","[-0.011554553006429566,-0.18704846352210666]","[-1,-1,-1]","[0.09568506503352253,0.15261959382197468]","[-1,-1,-1]","[-0.12637282243176534,-0.12296045706980613]","[-1,-1,-1]","[-0.07706324864982073,-0.17726429634559623]","[-1,-1,-1]","[0.017193058195266942,0.138236023446601]","[1,1,1]","[0.1770607085543923,0.01904580865756387]","[-1,-1,-1]","[-0.08789345431776997,0.13333474818324817]","[1,1,1]","[-0.07234339791452112,-0.03193585971276497]","[1,1,1]","[-0.060118163118383285,-0.13537463385112633]","[1,1,1]","[-0.021522198287652335,-0.08199797941998398]","[-1,-1,-1]","[-0.0008202113787771961,0.06022075709528938]","[-1,-1,-1]","[0.05291100876238106,-0.07630006547550817]","[1,1,1]","[-0.05699254760836392,0.16877573071652235]","[1,1,1]","[-0.1199883362098003,-0.030188151166367576]","[1,1,1]","[0.07166278267799193,-0.18115878309686567]","[1,1,1]","[0.13175854975843765,0.05284938972770802]","[-1,-1,-1]","[0.15546594291850707,-0.04020576698696798]","[1,1,1]","[-0.14866554027589426,0.11722860800773045]","[1,1,1]","[-0.08776381453478542,0.006782470518153277]","[1,1,1]","[0.04246362335648571,0.17653033924214548]","[-1,-1,-1]","[0.1648720693938934,-0.1009073308286175]","[1,1,1]","[0.06828021978588986,-0.13352162831969444]","[1,1,1]","[0.11790200927536282,-0.09727596376408433]","[1,1,1]","[0.15985364273712344,0.10931613318871283]","[1,1,1]","[0.02,0.02]",222.1178,0,27,27,106,1,,,,,,,
,,,,,,,67fcf2f9b4bf5a18fa0bc246,682f0fd6c0d1548b9e0fde7b,2025-05-22_13h53.44.487,cuing_paradigm_dot,2024.1.5,Win32,60.97560976,682d573fa47f1360d1451895,,,,,,,,,,,222.1189,222.6177,,,222.8688,223.1027,left,0.2182,,,,,,,,,0.1,,,,,,222.6179,222.8687,223.1028,"[0.11080726870174326,-0.03858879063127063]","[-1,-1,-1]","[-0.11158955400374848,-0.12241565251689303]","[-1,-1,-1]","[0.08297176781896655,0.09451195583023103]","[-1,-1,-1]","[0.0012755993135404953,0.03812010618095274]","[-1,-1,-1]","[-0.1260860016858901,-0.0647550270404136]","[-1,-1,-1]","[-0.06249257100587896,0.06688575889666973]","[1,1,1]","[-0.015594072598301931,0.150175079294166]","[-1,-1,-1]","[0.17860018211752643,0.08217727855118631]","[1,1,1]","[-0.04406630371598497,-0.07103807925784973]","[-1,-1,-1]","[-0.06951205673107144,0.12955977300241345]","[-1,-1,-1]","[-0.017705788792024457,-0.12829472605775363]","[-1,-1,-1]","[0.10082293723870663,0.04698204604811406]","[-1,-1,-1]","[0.05543401091558097,-0.03994326999290995]","[-1,-1,-1]","[0.17984211548939255,0.021628747431472698]","[-1,-1,-1]","[0.1508417591789736,-0.11342784390033321]","[-1,-1,-1]","[-0.0034323643543471526,-0.06674190017326498]","[-1,-1,-1]","[-0.08088249793478418,0.17405191836946565]","[1,1,1]","[-0.165299898633076,0.036483900375049824]","[-1,-1,-1]","[-0.10426997775306421,0.07094676266717984]","[-1,-1,-1]","[-0.1624779671301257,-0.014305100529757931]","[-1,-1,-1]","[0.03804635165236814,0.11170309346526752]","[-1,-1,-1]","[-0.05925671815118099,-0.18706487821686804]","[-1,-1,-1]","[-0.16761550720311677,0.07645890334392877]","[-1,-1,-1]","[-0.011019374365432046,0.08679116415642821]","[-1,-1,-1]","[0.020317104819947182,-0.17517713658662723]","[-1,-1,-1]","[0.05811735647602742,0.0061008631410082005]","[-1,-1,-1]","[0.10871215107282887,-0.09110571027843993]","[-1,-1,-1]","[-0.08728834119602531,-0.000944396351419963]","[-1,-1,-1]","[0.07020405594443466,0.17083796497821166]","[-1,-1,-1]","[0.14289880112375986,0.1356432052596186]","[-1,-1,-1]","[0.03143574051906557,-0.10009804459742577]","[-1,-1,-1]","[0.16914091149569446,-0.07214370661797875]","[-1,-1,-1]","[0.02,0.02]",224.1906,0,28,28,11,1,,,,,,,
,,,,,,,67fcf2f9b4bf5a18fa0bc246,682f0fd6c0d1548b9e0fde7b,2025-05-22_13h53.44.487,cuing_paradigm_dot,2024.1.5,Win32,60.97560976,682d573fa47f1360d1451895,,,,,,,,,,,224.1914,224.6842,,,224.9278,225.5002,right,0.5564,,,,,,,,,0.5,,,,,,224.6843,224.9278,225.5002,"[-0.019224237434015,-0.05530215706984798]","[-1,-1,-1]","[-0.15464834977484165,0.047248561030092805]","[1,1,1]","[0.10493879792672084,-0.08774695625385286]","[1,1,1]","[-0.16595352313271397,-0.04918917490041743]","[-1,-1,-1]","[-0.10740407775310774,0.16378037632967452]","[1,1,1]","[0.11423127928250389,-0.022974962217065284]","[1,1,1]","[0.048949859990223166,0.06854064651827468]","[1,1,1]","[0.11848390518079065,0.08797820436328373]","[1,1,1]","[-0.0051676475419033,0.1832205487115842]","[1,1,1]","[0.16772991480662996,-0.07871589183696819]","[-1,-1,-1]","[0.043209137967938564,-0.03470950291854022]","[-1,-1,-1]","[-0.046120974123834396,0.0823333490724489]","[-1,-1,-1]","[0.06650515429240846,-0.15095822628696015]","[-1,-1,-1]","[-0.10499732263668714,-0.14635043556183194]","[-1,-1,-1]","[-0.10557869030317857,0.0714281577420759]","[1,1,1]","[-0.06362071942305503,-0.025371052683779587]","[-1,-1,-1]","[-0.15941044102996677,0.10162450406166684]","[-1,-1,-1]","[-0.17733283623139498,-0.002697170762469609]","[-1,-1,-1]","[-0.0064008297991560575,-0.15195177988749156]","[1,1,1]","[0.11551803745552705,0.13900655674745424]","[-1,-1,-1]","[0.008454809167446495,0.03222446185111878]","[-1,-1,-1]","[-0.03383361351997121,0.03260386500209986]","[1,1,1]","[0.11676466861764517,-0.12994744901108113]","[1,1,1]","[0.04242975832611095,0.14518242293890532]","[-1,-1,-1]","[-0.047729893952184424,0.1659840371424126]","[-1,-1,-1]","[0.15430055591086914,-0.01608873249019104]","[1,1,1]","[-0.09215338646135351,-0.09256586985690934]","[1,1,1]","[-0.007693400814972641,0.11418188853806675]","[-1,-1,-1]","[-0.1615196597106857,-0.09907010512564124]","[1,1,1]","[0.03230375478588475,-0.1075765950761432]","[1,1,1]","[-0.11639661645484306,0.012171458409270709]","[1,1,1]","[0.03471429094189291,-0.17581160650381158]","[-1,-1,-1]","[0.02,0.02]",226.6,0,29,29,102,1,,,,,,,
,,,,,,,67fcf2f9b4bf5a18fa0bc246,682f0fd6c0d1548b9e0fde7b,2025-05-22_13h53.44.487,cuing_paradigm_dot,2024.1.5,Win32,60.97560976,682d573fa47f1360d1451895,,,,,,,,,,,226.6012,227.1008,,,227.3424,227.702,left,0.3458,,,,,,,,,0.6,,,,,,227.1011,227.3424,227.7021,"[0.12678875712323653,-0.08501139513815581]","[1,1,1]","[-0.11527871220022981,-0.08124385809202413]","[1,1,1]","[0.02438112533301518,-0.015230765019063819]","[1,1,1]","[0.08006996942563438,0.002194252888929078]","[1,1,1]","[0.004345948492771954,-0.053857589307126655]","[-1,-1,-1]","[0.08818292142848674,-0.11577790992562745]","[-1,-1,-1]","[-0.07484659628806774,-0.1318227618230949]","[1,1,1]","[-0.14070725213793045,-0.04148726818056647]","[1,1,1]","[0.06238663669964049,-0.06860382016885024]","[-1,-1,-1]","[0.015373864502431224,-0.13577053803409664]","[-1,-1,-1]","[-0.06246146670561503,-0.09169134761638252]","[1,1,1]","[0.012884031673851694,-0.1765267363723785]","[-1,-1,-1]","[0.04606876836613929,0.06957145283658508]","[-1,-1,-1]","[0.1942603421784202,0.03866118344564614]","[1,1,1]","[-0.061469722230453376,-0.1797837036217257]","[-1,-1,-1]","[-0.19069848233497727,-0.0416538145378743]","[1,1,1]","[-0.030834775343216544,0.04932838014727328]","[1,1,1]","[0.17570297542790883,-0.07494595202831482]","[1,1,1]","[-0.03406766536073607,0.13622960746531482]","[-1,-1,-1]","[-0.07743498104766111,0.07366116354151529]","[-1,-1,-1]","[0.1463913035026214,-0.004975260701518521]","[1,1,1]","[-0.031663377647899574,-0.003267515108614798]","[1,1,1]","[0.10451158874561288,0.04345997408130806]","[-1,-1,-1]","[0.09470745846389117,-0.0404120587569262]","[1,1,1]","[-0.02654431513412633,-0.12736261304591648]","[-1,-1,-1]","[0.01149141645082818,0.16006321207177257]","[1,1,1]","[-0.10292463504338696,-0.16352980714971077]","[1,1,1]","[0.003467803926766463,0.08314144473793815]","[1,1,1]","[-0.036756428340213684,0.09341264977126172]","[1,1,1]","[0.10836869945610524,0.14863067386634296]","[-1,-1,-1]","[-0.17017950392705755,0.03150241172825787]","[-1,-1,-1]","[-0.11225905029134792,0.0069560169311499555]","[1,1,1]","[0.02,0.02]",228.8002,0,30,30,167,1,,,,,,,
,,,,,,,67fcf2f9b4bf5a18fa0bc246,682f0fd6c0d1548b9e0fde7b,2025-05-22_13h53.44.487,cuing_paradigm_dot,2024.1.5,Win32,60.97560976,682d573fa47f1360d1451895,,,,,,,,,,,228.8009,229.2914,,,229.5354,229.9346,right,0.3833,,,,,,,,,0.1,,,,,,229.2916,229.5354,229.9347,"[-0.10858105915577054,0.16375336600458332]","[1,1,1]","[-0.03076468943816455,0.17349634041195724]","[-1,-1,-1]","[-0.04002461512961025,-0.11116092215361492]","[-1,-1,-1]","[0.09395719827104412,0.11943024223806367]","[-1,-1,-1]","[0.19395133466561745,-0.00955819359083889]","[-1,-1,-1]","[-0.07180219761828745,0.008241923869864602]","[-1,-1,-1]","[0.0858521270627241,0.07625114121201249]","[-1,-1,-1]","[0.04047529255682268,0.14204135935557421]","[-1,-1,-1]","[0.19002678811925564,-0.056244981504616945]","[-1,-1,-1]","[-0.14152293793437332,0.08977826225235179]","[-1,-1,-1]","[-0.07628786391397008,-0.16639251686429432]","[-1,-1,-1]","[-0.11673000504242166,-0.038011352670725626]","[-1,-1,-1]","[-0.019308520721991462,0.07894872059768974]","[-1,-1,-1]","[0.07015869318654641,0.17560633189366298]","[1,1,1]","[0.11287492352618866,-0.07647232801480708]","[-1,-1,-1]","[0.07618383760093442,-0.12111437527184815]","[-1,-1,-1]","[-0.07211412390864434,0.12351792210051972]","[-1,-1,-1]","[0.04432632502033841,-0.0853661330454279]","[-1,-1,-1]","[-0.17634965294072139,-0.07434102452150756]","[-1,-1,-1]","[0.003466644098169845,-0.18217554754296147]","[-1,-1,-1]","[0.13088867161882692,0.0012952308361406871]","[1,1,1]","[0.04681293651086477,-0.018870146839829127]","[-1,-1,-1]","[0.005761484688888361,-0.039616850451640685]","[-1,-1,-1]","[0.004012269026595611,-0.14028261485986415]","[-1,-1,-1]","[-0.15104170028278857,-0.11173560801176363]","[-1,-1,-1]","[0.16357774655501925,0.10202242028406676]","[-1,-1,-1]","[0.08749362320951284,0.025130079221922674]","[-1,-1,-1]","[0.022163303798358555,0.09409683640456504]","[-1,-1,-1]","[0.13504705973326878,-0.11417945444075799]","[-1,-1,-1]","[0.15204682832676839,0.048006358416680085]","[-1,-1,-1]","[0.04553365679309177,0.04188980867574341]","[-1,-1,-1]","[-0.1622361868817158,0.0028832588327067227]","[-1,-1,-1]","[0.02,0.02]",231.0239,0,31,31,17,1,,,,,,,
,,,,,,,67fcf2f9b4bf5a18fa0bc246,682f0fd6c0d1548b9e0fde7b,2025-05-22_13h53.44.487,cuing_paradigm_dot,2024.1.5,Win32,60.97560976,682d573fa47f1360d1451895,,,,,,,,,,,231.0247,231.5185,,,231.7599,232.2185,left,0.4447,,,,,,,,,0.5,,,,,,231.5185,231.7598,232.2185,"[0.11727408573130838,-0.04471093900183995]","[-1,-1,-1]","[0.11909972986392967,-0.13073488778326092]","[1,1,1]","[-0.0881419454326555,0.13401458266665264]","[1,1,1]","[-0.18880103515191887,0.00021328186443980387]","[-1,-1,-1]","[-0.013965890487696033,0.17495792754565648]","[1,1,1]","[0.014818907086570873,0.03292443186263489]","[1,1,1]","[0.17964095202103558,0.08038846108276143]","[-1,-1,-1]","[-0.009409164204922393,0.12047831316756032]","[1,1,1]","[-0.1296007895945249,-0.13798492934325746]","[-1,-1,-1]","[0.03976809052159676,0.15671330405514758]","[-1,-1,-1]","[-0.12667024110032632,-0.06897040920906043]","[1,1,1]","[-0.07550177480288371,-0.0008705525045422085]","[1,1,1]","[0.11350126652073549,0.05378763083419061]","[1,1,1]","[0.01442720141162677,-0.19302618873502636]","[-1,-1,-1]","[0.0046276314376140605,-0.023767326291154342]","[1,1,1]","[-0.07129291477112473,0.0974283246449832]","[-1,-1,-1]","[-0.08870176523096485,-0.1694926679458898]","[-1,-1,-1]","[-0.0051782005035649024,-0.06371586156256626]","[1,1,1]","[-0.027101473663131585,0.05448829340653449]","[-1,-1,-1]","[-0.13523591149254563,0.08385131718846493]","[-1,-1,-1]","[0.15510443077572753,-0.008280331915772127]","[-1,-1,-1]","[0.1271990471873109,0.15316644286594366]","[1,1,1]","[0.07766301968080365,0.11126952537362748]","[-1,-1,-1]","[-0.11787463932042228,-0.014312416178565936]","[-1,-1,-1]","[0.08700644537541291,-0.012196067491388856]","[-1,-1,-1]","[-0.0666452139564761,-0.08216719256042386]","[-1,-1,-1]","[-0.046058001939527,0.13961063592136178]","[1,1,1]","[0.19298625184899226,-0.03088741481210736]","[1,1,1]","[0.052403064905748316,-0.034428639069010225]","[1,1,1]","[-0.039879135817593954,-0.1860866665477836]","[1,1,1]","[-0.05147342192592541,-0.1337797569174753]","[-1,-1,-1]","[0.046788404912597455,0.06099070993583023]","[1,1,1]","[0.02,0.02]",233.3171,0,32,32,119,1,,,,,,,
,,,,,,,67fcf2f9b4bf5a18fa0bc246,682f0fd6c0d1548b9e0fde7b,2025-05-22_13h53.44.487,cuing_paradigm_dot,2024.1.5,Win32,60.97560976,682d573fa47f1360d1451895,,,,,,,,,,,233.3176,233.8182,,,234.0689,234.4012,right,0.3171,,,,,,,,,0.45,,,,,,233.8182,234.0689,234.4012,"[0.02336674075295093,0.15871967610651158]","[-1,-1,-1]","[-0.01778343254513142,0.17121648148257607]","[1,1,1]","[-0.10950296828708021,-0.024426037643372]","[1,1,1]","[0.1539706978312849,-0.002165176025118921]","[-1,-1,-1]","[-0.15935556589222385,0.1103702198364191]","[-1,-1,-1]","[-0.014350586045573124,0.002006095755901866]","[1,1,1]","[-0.10237862129341858,0.1305849693119279]","[-1,-1,-1]","[0.13323590590878523,-0.06433615417464879]","[-1,-1,-1]","[-0.12012365528419074,0.0704811702582198]","[-1,-1,-1]","[0.08500264287584307,-0.012829570787733306]","[-1,-1,-1]","[-0.11514265593172479,-0.10710770731639328]","[-1,-1,-1]","[0.09248002022290397,0.10946594625690083]","[1,1,1]","[-0.027872284763844388,0.043090727505364496]","[-1,-1,-1]","[0.054293474445275214,0.12423985402380842]","[1,1,1]","[0.033773167573892184,-0.0018658636237388771]","[-1,-1,-1]","[0.017507150083019854,-0.16305603551232262]","[-1,-1,-1]","[-0.07594730824589904,-0.1537428538242831]","[1,1,1]","[0.16661668099954985,0.07412808238123493]","[1,1,1]","[0.011354764287690456,-0.11516967700400321]","[1,1,1]","[-0.1476043180041758,-0.05988147211219759]","[-1,-1,-1]","[-0.012019802099168387,0.12131404891964652]","[1,1,1]","[-0.02417023967115921,-0.08506739143309466]","[-1,-1,-1]","[0.00551425285219404,0.06911033142092007]","[1,1,1]","[0.14620897993240947,-0.132545384416741]","[-1,-1,-1]","[-0.18981354597146294,0.04960805079896645]","[-1,-1,-1]","[-0.06591720289335783,-0.052804380952067305]","[1,1,1]","[0.061283838234911084,-0.098267290000861]","[1,1,1]","[0.1914081417503539,-0.05684246482497787]","[1,1,1]","[0.08802366468329957,-0.14692199792239466]","[-1,-1,-1]","[0.05482344863455238,-0.05780862004326897]","[-1,-1,-1]","[0.05257381910177663,0.07834205727776233]","[1,1,1]","[-0.06219574027611441,0.09752861022631495]","[-1,-1,-1]","[0.02,0.02]",235.5006,0,33,33,68,1,,,,,,,
,,,,,,,67fcf2f9b4bf5a18fa0bc246,682f0fd6c0d1548b9e0fde7b,2025-05-22_13h53.44.487,cuing_paradigm_dot,2024.1.5,Win32,60.97560976,682d573fa47f1360d1451895,,,,,,,,,,,235.5016,236.0006,,,236.2416,236.6181,right,0.3587,,,,,,,,,0.1,,,,,,236.0006,236.2415,236.6182,"[-0.10616947915589856,0.1085921798200545]","[-1,-1,-1]","[0.1779414427905127,0.05314396908631015]","[-1,-1,-1]","[-0.06338505759210988,-0.060671544152956426]","[-1,-1,-1]","[0.12615897068726634,0.031322442972980646]","[-1,-1,-1]","[0.01138009391030227,0.018623166193448816]","[-1,-1,-1]","[0.019449338605179587,0.1924151848600163]","[-1,-1,-1]","[-0.08022128388699196,-0.011249004991293703]","[-1,-1,-1]","[0.13879675955712048,-0.02622946448375003]","[-1,-1,-1]","[-0.01450007841646046,-0.14974973770144642]","[-1,-1,-1]","[-0.0038392497335821077,-0.06302470072327196]","[-1,-1,-1]","[-0.04679638589842696,0.09059266459576103]","[-1,-1,-1]","[0.03416071019551926,-0.08752610109913815]","[-1,-1,-1]","[0.018230215280141116,0.10559747452665523]","[-1,-1,-1]","[0.09489528947831025,-0.07791277266138992]","[-1,-1,-1]","[-0.1745209863924522,-0.05755027943946958]","[1,1,1]","[-0.06247342096100735,-0.15893722734934157]","[-1,-1,-1]","[0.10643452980633382,0.07137618989504169]","[-1,-1,-1]","[0.07222754055703824,-0.16593030720404656]","[-1,-1,-1]","[0.15850704420604309,-0.09398023055487913]","[-1,-1,-1]","[0.07107944551193146,0.0023032967775294443]","[-1,-1,-1]","[-0.021761777381430262,-0.19596017867246052]","[-1,-1,-1]","[-0.14676785180841637,0.041599767709544905]","[1,1,1]","[0.08083558357778145,0.17824502011328533]","[1,1,1]","[-0.1959189511790975,-0.017925272418268554]","[-1,-1,-1]","[0.17975974567560374,-0.05432981472115011]","[-1,-1,-1]","[0.020141323826001676,-0.18418016679895496]","[-1,-1,-1]","[-0.14596515665082338,0.1251225027946947]","[-1,-1,-1]","[-0.1959531086416336,0.034664304766072615]","[-1,-1,-1]","[-0.1264951131196526,-0.14981928351594806]","[-1,-1,-1]","[0.05625905419336866,0.05065921202729737]","[-1,-1,-1]","[-0.01852019025292572,0.04579846140674989]","[-1,-1,-1]","[0.19664778626265103,-0.016012481307945046]","[-1,-1,-1]","[0.02,0.02]",237.717,0,34,34,5,1,,,,,,,
,,,,,,,67fcf2f9b4bf5a18fa0bc246,682f0fd6c0d1548b9e0fde7b,2025-05-22_13h53.44.487,cuing_paradigm_dot,2024.1.5,Win32,60.97560976,682d573fa47f1360d1451895,,,,,,,,,,,237.7175,238.2171,,,238.4741,238.824,left,0.3307,,,,,,,,,0.6,,,,,,238.2172,238.474,238.8241,"[-0.10406158098028538,0.12064807515715004]","[-1,-1,-1]","[0.12285124874852298,0.05252411772108662]","[1,1,1]","[0.01079724766465722,-0.06459172031712632]","[1,1,1]","[-0.12669620484073552,-0.07526367194971846]","[1,1,1]","[0.025786850647731955,-0.02741259104218924]","[1,1,1]","[-0.1467714890644254,0.11171033025586825]","[-1,-1,-1]","[-0.026458220672022945,0.0755086841969095]","[-1,-1,-1]","[0.08622604502103856,-0.08895991312755736]","[-1,-1,-1]","[0.03458752453270635,0.11441498717974999]","[1,1,1]","[-0.08043408601594323,-0.10199372181270974]","[1,1,1]","[-0.13021855143426625,-0.13567298811678197]","[1,1,1]","[0.014264617654708801,0.03312192698657214]","[-1,-1,-1]","[0.12731558757118996,0.1508535706130491]","[-1,-1,-1]","[0.1755086572170436,0.02915058994066029]","[1,1,1]","[-0.1786358686020231,-0.025911829558664612]","[-1,-1,-1]","[0.052956569036130025,0.006216473772597901]","[-1,-1,-1]","[-0.01372775438062148,0.14204015942796486]","[1,1,1]","[-0.04015924287992126,-0.13918842213803528]","[1,1,1]","[-0.09529666027268853,0.0038380313568346413]","[-1,-1,-1]","[0.07087390538484878,-0.03668401717174806]","[1,1,1]","[0.052499104140664304,0.07143249926138324]","[1,1,1]","[0.10509129560279908,-0.16449222636469238]","[-1,-1,-1]","[0.0566348505997426,-0.14137584169737877]","[1,1,1]","[-0.1175058217967561,0.07760956441878063]","[1,1,1]","[0.043139669690056046,-0.19127156863586967]","[-1,-1,-1]","[-0.05846427801663963,0.02889151516421811]","[-1,-1,-1]","[0.15555198488286143,-0.06993863558824465]","[-1,-1,-1]","[-0.08263410735802608,0.1732622346974001]","[1,1,1]","[0.1311585723938906,0.09666504477021705]","[1,1,1]","[0.13146277989019503,-0.025079386890394788]","[1,1,1]","[-0.06943850416074954,-0.032623376400237804]","[1,1,1]","[-0.14817988063873744,0.019842789818763553]","[1,1,1]","[0.02,0.02]",239.917,0,35,35,150,1,,,,,,,
,,,,,,,67fcf2f9b4bf5a18fa0bc246,682f0fd6c0d1548b9e0fde7b,2025-05-22_13h53.44.487,cuing_paradigm_dot,2024.1.5,Win32,60.97560976,682d573fa47f1360d1451895,,,,,,,,,,,239.9179,240.417,,,240.6676,241.0904,right,0.407,,,,,,,,,0.1,,,,,,240.417,240.6675,241.0905,"[-0.006065467872980164,-0.0755767386627322]","[-1,-1,-1]","[-0.012391659611871423,-0.03131334948468283]","[-1,-1,-1]","[0.19074516750337872,0.050609752888028534]","[1,1,1]","[0.06835486096154006,0.13968897661242977]","[-1,-1,-1]","[-0.10798692761497197,0.05619813614561981]","[-1,-1,-1]","[-0.04999049797324741,0.05190617231620638]","[-1,-1,-1]","[-0.14734057923023636,-0.07567049904643504]","[-1,-1,-1]","[0.14985402747613097,-0.004105645758468631]","[1,1,1]","[-0.08137707481845548,-0.13839453073726798]","[-1,-1,-1]","[-0.1476316235149507,0.011659118349525877]","[-1,-1,-1]","[0.041785795712338855,-0.16141280508522698]","[-1,-1,-1]","[-0.03871819880166626,0.1727884450383958]","[-1,-1,-1]","[0.009295818939963736,-0.18561680685754633]","[-1,-1,-1]","[-0.044992959895422714,-0.11015626859216657]","[-1,-1,-1]","[0.1422658907509636,-0.09243224639921431]","[-1,-1,-1]","[-0.01555254828283918,0.12925952855939232]","[-1,-1,-1]","[0.006120825942693386,0.022422762852065205]","[-1,-1,-1]","[0.08233676980341857,-0.056705143489823376]","[-1,-1,-1]","[-0.017901537606205893,0.08312522063631737]","[-1,-1,-1]","[-0.11736578427454208,0.1392752370051977]","[1,1,1]","[-0.17240204889391517,-0.036935841872701734]","[-1,-1,-1]","[0.0423181365318597,-0.0981120693226342]","[-1,-1,-1]","[0.05461543063080344,0.023980880504747264]","[-1,-1,-1]","[-0.18392003116919511,0.05564734723855314]","[-1,-1,-1]","[-0.07441858972120015,-0.04338171336700359]","[-1,-1,-1]","[0.1249093526561717,0.09738031058480981]","[-1,-1,-1]","[0.12001458450382232,0.02486353254539545]","[-1,-1,-1]","[0.11078152113759482,-0.022588221951812804]","[-1,-1,-1]","[-0.06368539988401363,0.11469636553539911]","[-1,-1,-1]","[0.12280266673512692,-0.15432562451299603]","[-1,-1,-1]","[-0.10699594958359898,-0.07417003114534915]","[-1,-1,-1]","[0.03701922475749638,0.18194797899485288]","[-1,-1,-1]","[0.02,0.02]",242.1838,0,36,36,18,1,,,,,,,
,,,,,,,67fcf2f9b4bf5a18fa0bc246,682f0fd6c0d1548b9e0fde7b,2025-05-22_13h53.44.487,cuing_paradigm_dot,2024.1.5,Win32,60.97560976,682d573fa47f1360d1451895,,,,,,,,,,,242.1843,242.6835,,,242.9352,243.4341,left,0.4796,,,,,,,,,0.9,,,,,,242.6835,242.9352,243.4342,"[0.16361800736724189,-0.03071892684266066]","[1,1,1]","[-0.016719267277807547,-0.027768293545235977]","[1,1,1]","[0.056520400557268494,0.08898946946327446]","[1,1,1]","[-0.08582272138218516,-0.037314321037858]","[1,1,1]","[0.15540526441039287,0.03902946563590024]","[1,1,1]","[0.04761843703110546,-0.08854332451581941]","[1,1,1]","[-0.014924602202799888,0.13642442111788322]","[1,1,1]","[-0.05581591559258502,0.02350788884426357]","[1,1,1]","[-0.16592229363220368,0.03988667792388483]","[1,1,1]","[-0.0799471368035148,-0.09382707898918738]","[1,1,1]","[0.06613985744486924,-0.13359173860654364]","[1,1,1]","[-0.06188513313697831,0.07637990738204353]","[1,1,1]","[-0.16905231137028892,-0.017366132077947575]","[1,1,1]","[-0.05249880250846224,-0.18589910119819353]","[1,1,1]","[0.12787294740381924,-0.14754180900333627]","[1,1,1]","[0.041639265852722374,0.014931024454243555]","[1,1,1]","[-0.0124204619043634,-0.17289378855203236]","[1,1,1]","[-0.1140532630486914,0.0649173535942401]","[1,1,1]","[-0.005421901548238597,0.08972011425732832]","[1,1,1]","[-0.03549794587072004,-0.13661062226153972]","[1,1,1]","[0.13509177327431826,0.09975668421271874]","[1,1,1]","[-0.1572676808049422,0.09342509452605954]","[1,1,1]","[0.07509546553988057,0.1722186181000317]","[1,1,1]","[-0.14908897144000854,-0.07314588062199129]","[-1,-1,-1]","[-0.137159861222982,-0.11636633415823738]","[-1,-1,-1]","[-0.1291967906641126,0.01375065659521583]","[-1,-1,-1]","[0.16576305545281927,-0.07284512554122062]","[1,1,1]","[-0.03500612756023221,-0.0651879385243693]","[1,1,1]","[0.12795358756319716,-0.052527772864448784]","[1,1,1]","[0.011508133289830792,0.16932367523164266]","[1,1,1]","[0.11106655441514543,-0.00519321014857902]","[1,1,1]","[-0.14093085310270795,0.14175506461795134]","[1,1,1]","[0.02,0.02]",244.5335,0,37,37,191,1,,,,,,,
,,,,,,,67fcf2f9b4bf5a18fa0bc246,682f0fd6c0d1548b9e0fde7b,2025-05-22_13h53.44.487,cuing_paradigm_dot,2024.1.5,Win32,60.97560976,682d573fa47f1360d1451895,,,,,,,,,,,244.5341,245.0334,,,245.2838,245.7775,left,0.4779,,,,,,,,,0.55,,,,,,245.0335,245.2838,245.7776,"[-0.01505716772861117,-0.12597533248185402]","[-1,-1,-1]","[0.025124440944505607,-0.0807918495790261]","[1,1,1]","[0.0630205627830175,-0.031853975063304375]","[1,1,1]","[0.12365513798748151,0.12299286918782827]","[1,1,1]","[-0.17598009208335913,0.09335821575580347]","[-1,-1,-1]","[-0.16516521682570373,0.042742330444753576]","[-1,-1,-1]","[-0.0991067488047226,-0.12986336664619272]","[-1,-1,-1]","[0.043480618698669316,0.16637577926393846]","[1,1,1]","[0.06563213625222354,-0.09204293016565117]","[1,1,1]","[0.06588853675531357,0.05464987208472346]","[1,1,1]","[-0.10816911492791446,-0.06926209261506153]","[-1,-1,-1]","[0.020390373153367395,-0.17427645707877878]","[-1,-1,-1]","[0.054913342884514396,0.10637247905437214]","[-1,-1,-1]","[-0.11308769083584781,0.018518670460714308]","[1,1,1]","[-0.032489953592430044,0.06194776485381985]","[-1,-1,-1]","[-0.14880748818447162,-0.014516313127602362]","[1,1,1]","[0.023448798852024333,0.04517907919765696]","[1,1,1]","[0.19196800361433053,-0.0432400071431374]","[1,1,1]","[0.08048135956866145,0.14679091466733768]","[1,1,1]","[0.1009833074792096,0.008095512284070324]","[1,1,1]","[0.15721512432423668,0.040153388284849705]","[-1,-1,-1]","[-0.17220979324002755,-0.07552597109818159]","[1,1,1]","[-0.04868260274141131,-0.05711311308039175]","[1,1,1]","[0.11761601321761123,-0.053019393018418334]","[-1,-1,-1]","[-0.07031062390986292,-0.09878503346268734]","[-1,-1,-1]","[-0.14549825887950202,-0.11800235981839663]","[-1,-1,-1]","[-0.10368986225255833,0.1049360816900795]","[-1,-1,-1]","[-0.06491372448835785,0.17772492650966626]","[1,1,1]","[0.0030523937665914267,-0.027757505530779315]","[1,1,1]","[-0.0193121308456061,-0.18319457539182352]","[1,1,1]","[0.19225787747420386,0.009848799414566196]","[-1,-1,-1]","[-0.06858818831856411,-0.0015370801602249047]","[1,1,1]","[0.02,0.02]",246.8667,0,38,38,130,1,,,,,,,
,,,,,,,67fcf2f9b4bf5a18fa0bc246,682f0fd6c0d1548b9e0fde7b,2025-05-22_13h53.44.487,cuing_paradigm_dot,2024.1.5,Win32,60.97560976,682d573fa47f1360d1451895,,,,,,,,,,,246.8674,247.3666,,,247.617,247.9825,left,0.3456,,,,,,,,,0.6,,,,,,247.3666,247.617,247.9826,"[-0.12310413472060411,-0.0330952930894708]","[-1,-1,-1]","[-0.12723146354052156,0.060493666518119805]","[1,1,1]","[0.08433534452500027,-0.06468779077595327]","[-1,-1,-1]","[0.0005716591415646974,0.15066254368840634]","[1,1,1]","[-0.06310273445979488,0.017951518931505858]","[-1,-1,-1]","[-0.15243108521556883,-0.09862968530369373]","[1,1,1]","[-0.019050648007304775,-0.09740346019092735]","[1,1,1]","[0.15585728231529447,0.07406774406933131]","[1,1,1]","[0.052470792632146664,0.03575026846460974]","[-1,-1,-1]","[0.10076400659282439,0.0407600175915265]","[1,1,1]","[-0.08464738832561305,0.10937227547479145]","[1,1,1]","[0.06072365012555978,0.08998022254410973]","[-1,-1,-1]","[0.014349214395367613,-0.15528673270887952]","[1,1,1]","[0.1334471083315315,-0.07394954980054981]","[1,1,1]","[-0.15433910184182162,0.11855187994315473]","[-1,-1,-1]","[0.19198629360242286,0.025721348890017797]","[-1,-1,-1]","[0.13806881467770643,0.11958678261585252]","[-1,-1,-1]","[0.0774406888963727,-0.02344534995744241]","[1,1,1]","[-0.02002180571798518,0.18511676332841243]","[1,1,1]","[-0.017307215608074463,0.055479989505072866]","[1,1,1]","[0.16185530267760162,-0.029322257673793834]","[1,1,1]","[-0.11488420078281797,0.15624786692989504]","[-1,-1,-1]","[0.0796137723223813,-0.14602479201657922]","[1,1,1]","[-0.11212702882684956,-0.12323253478778012]","[1,1,1]","[-0.09959673726734111,-0.08093566525213332]","[1,1,1]","[-0.007670225251142628,0.002042520914781448]","[-1,-1,-1]","[-0.024968950622630146,0.10211678254645272]","[-1,-1,-1]","[0.024116280743784694,0.07255158849617488]","[1,1,1]","[-0.037415915098940905,-0.15147070877843982]","[-1,-1,-1]","[0.06250521268989809,-0.09843946238436806]","[-1,-1,-1]","[-0.062051207973575516,-0.09619359629500707]","[1,1,1]","[0.02740267138074788,-0.05699294527218001]","[1,1,1]","[0.02,0.02]",249.0833,0,39,39,151,1,,,,,,,
,,,,,,,67fcf2f9b4bf5a18fa0bc246,682f0fd6c0d1548b9e0fde7b,2025-05-22_13h53.44.487,cuing_paradigm_dot,2024.1.5,Win32,60.97560976,682d573fa47f1360d1451895,,,,,,,,,,,249.0843,249.5831,,,249.8342,250.1174,left,0.2674,,,,,,,,,0.9,,,,,,249.5831,249.8342,250.1174,"[0.015259142093523415,0.05576273021558438]","[1,1,1]","[0.18905262488703764,0.017163879607768277]","[1,1,1]","[-0.0648001760689166,0.17466871965776495]","[-1,-1,-1]","[0.12583541760302966,-0.11059523602036482]","[1,1,1]","[0.03391080660055063,-0.1326491454309572]","[1,1,1]","[0.03363203246245952,-0.0734378526348229]","[1,1,1]","[0.08495560967725171,0.17572119331013264]","[1,1,1]","[-0.16851512555431122,-0.06441492551127916]","[1,1,1]","[0.1287093319555366,0.1427351810084413]","[1,1,1]","[-0.1851646228415897,0.0020412623508800827]","[1,1,1]","[-0.06721549405479701,-0.03488129314145601]","[1,1,1]","[-0.14535567997887855,0.11470040855253269]","[1,1,1]","[-0.057864299772070735,0.03178849855247181]","[-1,-1,-1]","[0.15347134973143806,0.04057098621719469]","[1,1,1]","[0.0806054914671504,-0.0874452612651029]","[1,1,1]","[-0.10501432449731449,0.0026365219357158847]","[1,1,1]","[-0.04988134194426744,-0.190425417144693]","[1,1,1]","[-0.127361155782882,-0.06868005242262808]","[1,1,1]","[-0.1519777384399247,-0.10948345927370319]","[1,1,1]","[-0.049073858198382635,-0.09598598290876079]","[1,1,1]","[0.03901722381117894,0.16541669799428457]","[1,1,1]","[-0.16755092587042197,0.041409865376297046]","[1,1,1]","[-0.007389040523073148,-0.08565730711704303]","[1,1,1]","[0.179462973227131,-0.04644052952897851]","[1,1,1]","[-0.11146677176273141,0.07744224670662828]","[1,1,1]","[-0.011176249307485838,0.1512236730691296]","[1,1,1]","[0.0661078763084666,0.05439965190133211]","[-1,-1,-1]","[0.024371037457484427,-0.015811855288326973]","[1,1,1]","[0.0032558842159316594,-0.1768950894621994]","[1,1,1]","[0.10467266791423924,0.011443703838435092]","[1,1,1]","[0.07592565271349558,-0.148400759043728]","[1,1,1]","[-0.07503949347403333,0.10112525570105999]","[1,1,1]","[0.02,0.02]",251.2165,0,40,40,197,1,,,,,,,
,,,,,,,67fcf2f9b4bf5a18fa0bc246,682f0fd6c0d1548b9e0fde7b,2025-05-22_13h53.44.487,cuing_paradigm_dot,2024.1.5,Win32,60.97560976,682d573fa47f1360d1451895,,,,,,,,,,,251.2175,251.7165,,,251.9668,252.3839,right,0.4011,,,,,,,,,0.4,,,,,,251.7166,251.9668,252.3841,"[0.10694529993006388,-0.06348773054660506]","[1,1,1]","[-0.1474504774195977,-0.09945070535827488]","[1,1,1]","[-0.17775345903047118,0.02238916058413309]","[1,1,1]","[-0.04816315353040133,-0.18214833452709372]","[-1,-1,-1]","[0.05864936540692148,0.12374909541641378]","[-1,-1,-1]","[-0.04608142563176069,-0.06335820112702605]","[1,1,1]","[-0.01523971684316899,-0.15463707564913945]","[-1,-1,-1]","[0.01620688276194871,-0.047157643355938146]","[-1,-1,-1]","[0.03176930847045767,0.06825037287374039]","[1,1,1]","[0.006494691490712988,0.014259659485971717]","[1,1,1]","[-0.13153651293727056,0.14949870588467246]","[-1,-1,-1]","[-0.06763189966320798,0.14630270658920502]","[1,1,1]","[0.08217015215304128,0.049572818865438004]","[-1,-1,-1]","[-0.09199729869107798,-0.07112542902072354]","[-1,-1,-1]","[-0.06274989075985049,0.05419050244271048]","[-1,-1,-1]","[0.1049108539516839,0.09199608093337647]","[-1,-1,-1]","[0.13305685007130247,0.14171981817952614]","[1,1,1]","[-0.10241573718898982,0.019851256157371974]","[1,1,1]","[0.03317783199443645,-0.09868440671947866]","[1,1,1]","[-0.09037091306494015,-0.11757355330938345]","[-1,-1,-1]","[-0.17238271505520283,0.06608420581887227]","[1,1,1]","[0.17374061245556344,-0.03677816584964626]","[-1,-1,-1]","[0.12257142996771718,-0.13335374939389796]","[-1,-1,-1]","[0.18550119883169852,0.06587262069340946]","[-1,-1,-1]","[0.004882199106137873,0.18642706622043306]","[-1,-1,-1]","[0.134890867233166,-0.025976380908974403]","[1,1,1]","[0.07162632082634608,-0.15239582269140411]","[1,1,1]","[-0.021889949440499205,0.14267021067963112]","[-1,-1,-1]","[0.005161009243122944,-0.1954486204614058]","[-1,-1,-1]","[-0.12473372191398181,0.09967351311180857]","[-1,-1,-1]","[-0.04374205421915777,0.0181951220245112]","[-1,-1,-1]","[0.06930303227884434,0.1780715817592446]","[-1,-1,-1]","[0.02,0.02]",253.483,0,41,41,55,1,,,,,,,
,,,,,,,67fcf2f9b4bf5a18fa0bc246,682f0fd6c0d1548b9e0fde7b,2025-05-22_13h53.44.487,cuing_paradigm_dot,2024.1.5,Win32,60.97560976,682d573fa47f1360d1451895,,,,,,,,,,,253.4838,253.983,,,254.2328,254.4667,right,0.2157,,,,,,,,,0.1,,,,,,253.9832,254.2323,254.4667,"[-0.06682998148018282,0.14650738828783996]","[-1,-1,-1]","[0.1621790098065583,-0.040620747111480865]","[-1,-1,-1]","[-0.18024894504490913,-0.03545105993372385]","[-1,-1,-1]","[-0.1041869909154173,0.1206865184562819]","[-1,-1,-1]","[-0.07529894314036502,-0.053503020254548096]","[-1,-1,-1]","[-0.03648339471758017,0.08797488543569328]","[-1,-1,-1]","[0.03315690127205435,0.06870306615905226]","[-1,-1,-1]","[0.061520686675337735,-0.057876103578278076]","[-1,-1,-1]","[0.12084292212649722,-0.1418039960412753]","[-1,-1,-1]","[0.047867596854965215,-0.17567741846022106]","[-1,-1,-1]","[-0.09101807957005216,-0.09771386780253331]","[-1,-1,-1]","[0.08885970043629142,0.03997255300985761]","[-1,-1,-1]","[-0.14850395641299355,0.053728923105322186]","[-1,-1,-1]","[-0.16656200272852484,0.09509094102218187]","[-1,-1,-1]","[0.08052165289378882,-0.11965988419888163]","[1,1,1]","[0.07012364656922514,0.12973078492690726]","[-1,-1,-1]","[0.16284415107313044,0.11376018575478332]","[-1,-1,-1]","[-0.004451833601396933,-0.19970393635494102]","[-1,-1,-1]","[-0.021317703253415407,0.050349944609671654]","[1,1,1]","[0.047679025825791053,-0.013649719176581837]","[-1,-1,-1]","[0.005212676054489155,0.1192009893938682]","[-1,-1,-1]","[0.001509910808529852,0.17434814051179015]","[-1,-1,-1]","[0.1468171266701274,0.03836844009559617]","[-1,-1,-1]","[-0.016429686969951927,-0.12844430135095208]","[-1,-1,-1]","[-0.04332167870478397,-0.015554693515957793]","[-1,-1,-1]","[0.18536685833606648,0.013428144899878307]","[-1,-1,-1]","[0.10882396926087891,-0.04811427522818398]","[-1,-1,-1]","[0.1110643588008541,0.07777333382659188]","[-1,-1,-1]","[-0.04728313519435407,-0.09757950970689004]","[-1,-1,-1]","[-0.08918292815994154,-0.16810624086133363]","[-1,-1,-1]","[-0.07306795867179824,0.06032655047635189]","[1,1,1]","[0.14749340871336725,-0.10659111970767324]","[-1,-1,-1]","[0.02,0.02]",255.5663,0,42,42,1,1,,,,,,,
,,,,,,,67fcf2f9b4bf5a18fa0bc246,682f0fd6c0d1548b9e0fde7b,2025-05-22_13h53.44.487,cuing_paradigm_dot,2024.1.5,Win32,60.97560976,682d573fa47f1360d1451895,,,,,,,,,,,255.567,256.0663,,,256.3057,256.5339,right,0.2108,,,,,,,,,0.1,,,,,,256.0664,256.3056,256.534,"[0.15541290324984072,0.027789328135162265]","[-1,-1,-1]","[-0.11096806492855485,-0.007252067455506221]","[-1,-1,-1]","[0.19155003636248566,0.0044320336002818235]","[-1,-1,-1]","[0.11502241437065194,0.10325142428494845]","[-1,-1,-1]","[0.10061712505633297,-0.03899174754959379]","[1,1,1]","[0.13160789416962068,-0.13315318126154985]","[-1,-1,-1]","[-0.1476728342267207,0.031307742119325264]","[1,1,1]","[0.037968392376689086,0.10366317308260377]","[-1,-1,-1]","[-0.13687549715896288,0.11939108616225819]","[-1,-1,-1]","[-0.0289800241450201,-0.016300569305385114]","[-1,-1,-1]","[-0.028194141721948108,-0.15241658991312007]","[-1,-1,-1]","[0.09253158819308474,-0.16578258510248745]","[-1,-1,-1]","[-0.057971428845534904,0.1625879855770935]","[-1,-1,-1]","[-0.008037808127296944,0.020110609036105415]","[-1,-1,-1]","[-0.04157373671631447,-0.055032398540538374]","[-1,-1,-1]","[0.10747194528367786,0.03125514403027687]","[1,1,1]","[0.14052061126634843,0.13754344042008979]","[-1,-1,-1]","[0.024137015107287378,-0.057734262781987546]","[-1,-1,-1]","[-0.0958605545260654,-0.14854157374678742]","[-1,-1,-1]","[-0.043042474477256086,0.11585409148057205]","[-1,-1,-1]","[0.1790614964827807,0.08206525713172896]","[-1,-1,-1]","[-0.007201003490274424,-0.0999210083062372]","[-1,-1,-1]","[0.06066486349713175,0.05094304383187306]","[-1,-1,-1]","[-0.10623820192167811,0.055283169330420566]","[-1,-1,-1]","[0.01196373855126659,0.13617489771352143]","[-1,-1,-1]","[-0.06737127379830618,0.025216149499926052]","[-1,-1,-1]","[-0.0949839831482301,-0.09199656925839374]","[-1,-1,-1]","[0.01608637856772333,0.1831346878954666]","[-1,-1,-1]","[0.030178032332367113,-0.19320705476306926]","[-1,-1,-1]","[0.0714378983182374,0.011131415384768549]","[-1,-1,-1]","[0.13722484005957444,-0.009009379411076381]","[-1,-1,-1]","[-0.19046180295801998,-0.040581320085166]","[-1,-1,-1]","[0.02,0.02]",257.633,0,43,43,25,1,,,,,,,
,,,,,,,67fcf2f9b4bf5a18fa0bc246,682f0fd6c0d1548b9e0fde7b,2025-05-22_13h53.44.487,cuing_paradigm_dot,2024.1.5,Win32,60.97560976,682d573fa47f1360d1451895,,,,,,,,,,,257.634,258.133,,,258.3717,258.7506,left,0.3615,,,,,,,,,0.4,,,,,,258.1331,258.3717,258.7506,"[0.11444870931968325,0.12467801732360087]","[-1,-1,-1]","[-0.08020738624984027,-0.08636495302957366]","[1,1,1]","[0.14014148284329547,-0.003234096873573326]","[1,1,1]","[0.01965648037394259,-0.1455387095275579]","[-1,-1,-1]","[-0.16122963033594592,0.11308654724093219]","[-1,-1,-1]","[0.013630788363534593,0.15384313046423503]","[-1,-1,-1]","[-0.044938497625870454,0.13468752854913862]","[1,1,1]","[-0.07249978783153088,0.032585508700603144]","[-1,-1,-1]","[0.09576019771932777,0.040741125140723346]","[1,1,1]","[0.056895057783920316,-0.07406369692988067]","[1,1,1]","[0.0010250061275827414,0.052797481615761484]","[1,1,1]","[-0.12383821246206098,-0.14101977474485]","[-1,-1,-1]","[-0.11483233848308247,-0.013298784354347852]","[-1,-1,-1]","[-0.16514723382802504,-0.1054243221362638]","[-1,-1,-1]","[0.03475442406348792,-0.027525869312438025]","[-1,-1,-1]","[0.13009941043682008,0.06532838306627424]","[1,1,1]","[0.11621383845121924,-0.06771793110286561]","[1,1,1]","[0.05891184795681179,0.008922956370586538]","[1,1,1]","[-0.00160884162737243,-0.07308090318618843]","[-1,-1,-1]","[0.06086652268388269,0.06533895497958182]","[-1,-1,-1]","[-0.17737825952967534,-0.016882219334539806]","[-1,-1,-1]","[-0.051264753754378924,-0.16368352350434529]","[-1,-1,-1]","[0.1949785036868119,-0.001849263709480468]","[1,1,1]","[0.03765555543354312,-0.18929535783875734]","[-1,-1,-1]","[0.05119891521430196,0.16996520328916462]","[-1,-1,-1]","[-0.11412972571366303,0.06387511797728294]","[-1,-1,-1]","[-0.12495361957514405,0.133310136640848]","[-1,-1,-1]","[-0.07623979685781532,0.10230649075935305]","[1,1,1]","[-0.12206950200820084,-0.09337930987655653]","[-1,-1,-1]","[0.17663008067791436,0.0843688999422924]","[-1,-1,-1]","[-0.04145009938684817,-0.10596674631238515]","[1,1,1]","[-0.028828497041194716,0.010806531055775566]","[1,1,1]","[0.02,0.02]",259.8492,0,44,44,52,1,,,,,,,
