right,left,explain.started,explain.stopped,key_resp_3.keys,key_resp_3.rt,key_resp_3.duration,participant,session,date,expName,psychopyVersion,OS,frameRate,study_id,explain_2.started,explain_2.stopped,key_resp_4.keys,key_resp_4.rt,key_resp_4.duration,explain_3.started,explain_3.stopped,key_resp_5.keys,key_resp_5.rt,key_resp_5.duration,fixation.started,fixation.stopped,practice.started,practice.stopped,response.started,response.stopped,key_resp.keys,feedback.started,feedback.stopped,trials_2.thisRepN,trials_2.thisTrialN,trials_2.thisN,trials_2.thisIndex,trials_2.ran,white_ratio,key_resp.rt,key_resp.duration,explain_4.started,explain_4.stopped,key_resp_6.keys,key_resp_6.rt,key_resp_6.duration,dotDisplay.started,dotDisplay.stopped,ITI.started,polygon_1.pos,polygon_1.color,polygon_2.pos,polygon_2.color,polygon_3.pos,polygon_3.color,polygon_4.pos,polygon_4.color,polygon_5.pos,polygon_5.color,polygon_6.pos,polygon_6.color,polygon_7.pos,polygon_7.color,polygon_8.pos,polygon_8.color,polygon_9.pos,polygon_9.color,polygon_10.pos,polygon_10.color,polygon_11.pos,polygon_11.color,polygon_12.pos,polygon_12.color,polygon_13.pos,polygon_13.color,polygon_14.pos,polygon_14.color,polygon_15.pos,polygon_15.color,polygon_16.pos,polygon_16.color,polygon_17.pos,polygon_17.color,polygon_18.pos,polygon_18.color,polygon_19.pos,polygon_19.color,polygon_20.pos,polygon_20.color,polygon_21.pos,polygon_21.color,polygon_22.pos,polygon_22.color,polygon_23.pos,polygon_23.color,polygon_24.pos,polygon_24.color,polygon_25.pos,polygon_25.color,polygon_26.pos,polygon_26.color,polygon_27.pos,polygon_27.color,polygon_28.pos,polygon_28.color,polygon_29.pos,polygon_29.color,polygon_30.pos,polygon_30.color,polygon_31.pos,polygon_31.color,polygon_32.pos,polygon_32.color,dot_size,ITI.stopped,trials.thisRepN,trials.thisTrialN,trials.thisN,trials.thisIndex,trials.ran,break_2.started,break_2.stopped,trials_3.thisRepN,trials_3.thisTrialN,trials_3.thisN,trials_3.thisIndex,trials_3.ran
subject chose white,subject chose black,0.0007,242.5682,space,74.537,,67fd2c413355380a310b424a,682db3985f919414b92ae683,2025-05-21_13h13.20.401,cuing_paradigm_dot,2024.1.5,Win32,60.24096386,682d556593cb38ad0a074487,,,,,,,,,,,,,,,,,,,,,,,,,,,,,,,,,,,,,,,,,,,,,,,,,,,,,,,,,,,,,,,,,,,,,,,,,,,,,,,,,,,,,,,,,,,,,,,,,,,,,,,,,,,,,,,,,
,,,,,,,67fd2c413355380a310b424a,682db3985f919414b92ae683,2025-05-21_13h13.20.401,cuing_paradigm_dot,2024.1.5,Win32,60.24096386,682d556593cb38ad0a074487,242.5685,313.3863,space,40.8135,,,,,,,,,,,,,,,,,,,,,,,,,,,,,,,,,,,,,,,,,,,,,,,,,,,,,,,,,,,,,,,,,,,,,,,,,,,,,,,,,,,,,,,,,,,,,,,,,,,,,,,,,,,,,
,,,,,,,67fd2c413355380a310b424a,682db3985f919414b92ae683,2025-05-21_13h13.20.401,cuing_paradigm_dot,2024.1.5,Win32,60.24096386,682d556593cb38ad0a074487,,,,,,313.3866,316.4454,space,0.0405,,,,,,,,,,,,,,,,,,,,,,,,,,,,,,,,,,,,,,,,,,,,,,,,,,,,,,,,,,,,,,,,,,,,,,,,,,,,,,,,,,,,,,,,,,,,,,,,,,,,,,,,
,,,,,,,67fd2c413355380a310b424a,682db3985f919414b92ae683,2025-05-21_13h13.20.401,cuing_paradigm_dot,2024.1.5,Win32,60.24096386,682d556593cb38ad0a074487,,,,,,,,,,,316.486,316.9614,316.9622,317.2119,317.2121,318.7164,,318.7169,319.8099,0,0,0,1,1,0.2,,,,,,,,,,,,,,,,,,,,,,,,,,,,,,,,,,,,,,,,,,,,,,,,,,,,,,,,,,,,,,,,,,,,,,,,,,,,,,,,,,,,,,,,
,,,,,,,67fd2c413355380a310b424a,682db3985f919414b92ae683,2025-05-21_13h13.20.401,cuing_paradigm_dot,2024.1.5,Win32,60.24096386,682d556593cb38ad0a074487,,,,,,,,,,,319.8106,320.3095,320.3096,320.5651,320.5652,320.9596,left,320.9598,322.0591,0,1,1,0,1,0.8,0.368,,,,,,,,,,,,,,,,,,,,,,,,,,,,,,,,,,,,,,,,,,,,,,,,,,,,,,,,,,,,,,,,,,,,,,,,,,,,,,,,,,,,,,,
,,,,,,,67fd2c413355380a310b424a,682db3985f919414b92ae683,2025-05-21_13h13.20.401,cuing_paradigm_dot,2024.1.5,Win32,60.24096386,682d556593cb38ad0a074487,,,,,,,,,,,,,,,,,,,,,,,,,,,,322.0599,329.6748,space,4.5884,,,,,,,,,,,,,,,,,,,,,,,,,,,,,,,,,,,,,,,,,,,,,,,,,,,,,,,,,,,,,,,,,,,,,,,,,,,,,,,,,,
,,,,,,,67fd2c413355380a310b424a,682db3985f919414b92ae683,2025-05-21_13h13.20.401,cuing_paradigm_dot,2024.1.5,Win32,60.24096386,682d556593cb38ad0a074487,,,,,,,,,,,329.6886,330.1909,,,330.4308,330.7408,right,,,,,,,,0.5,0.2843,,,,,,,330.1913,330.4306,330.7414,"[0.16346237224109197,0.04569906098382707]","[-1,-1,-1]","[0.15067961675577773,-0.004624764017018302]","[1,1,1]","[-0.052738568855423384,0.002286832847584075]","[-1,-1,-1]","[0.007885864131940265,-0.11826592576862935]","[-1,-1,-1]","[-0.08725044194946255,-0.10838487996979437]","[1,1,1]","[0.06754154153934012,-0.12390804720155783]","[1,1,1]","[0.16749829533149513,-0.10215999140372448]","[1,1,1]","[-0.06487123878543238,0.0409465939829267]","[-1,-1,-1]","[0.14160266003254288,-0.07150909556734913]","[-1,-1,-1]","[0.08730019253168582,0.0442199778026436]","[-1,-1,-1]","[-0.1768185609029093,-0.06489712597915816]","[1,1,1]","[-0.13408650489617685,-0.1005356574700338]","[1,1,1]","[-0.03223232815084422,0.14822040606699505]","[1,1,1]","[-0.12324718429365342,-0.00828048728858844]","[1,1,1]","[-0.15883489996127648,0.03239800559023084]","[-1,-1,-1]","[-0.12977495011148898,0.1481264684656181]","[1,1,1]","[0.10840249170946134,-0.02326508339027929]","[-1,-1,-1]","[-0.09887862519290172,-0.1566296739000246]","[-1,-1,-1]","[0.034391555804295364,-0.16982032891328713]","[-1,-1,-1]","[0.08207344134618437,0.11664023242105491]","[1,1,1]","[0.023893105121177732,0.16357347151305923]","[1,1,1]","[0.10152793347696525,-0.15011874414122234]","[1,1,1]","[0.12890041929622648,0.08728578468852465]","[-1,-1,-1]","[0.01925754680425053,-0.03791109860416118]","[-1,-1,-1]","[-0.029470881672796902,-0.04338521459691336]","[1,1,1]","[-0.01990024407410508,0.19132243911017144]","[-1,-1,-1]","[0.19519255991935336,-0.0009135479765378084]","[-1,-1,-1]","[0.048512547054799175,-0.08372555006652248]","[1,1,1]","[-0.08987033931117652,0.10780366939361767]","[-1,-1,-1]","[-0.015503684451033214,-0.19653319490637142]","[1,1,1]","[0.06513707279009129,-0.032501289053450365]","[1,1,1]","[0.106262183212217,0.15475233202461935]","[-1,-1,-1]","[0.02,0.02]",331.8407,0,0,0,99,1,,,,,,,
,,,,,,,67fd2c413355380a310b424a,682db3985f919414b92ae683,2025-05-21_13h13.20.401,cuing_paradigm_dot,2024.1.5,Win32,60.24096386,682d556593cb38ad0a074487,,,,,,,,,,,331.8412,332.3404,,,332.5795,332.7573,left,,,,,,,,0.1,0.151,,,,,,,332.3405,332.5794,332.7573,"[0.14030102594551944,0.08375902193533678]","[-1,-1,-1]","[0.05686362987959846,0.030113958605472425]","[-1,-1,-1]","[0.15407286133330558,-0.11066527718168134]","[-1,-1,-1]","[0.050638166338000494,-0.12159000646290656]","[-1,-1,-1]","[-0.06341392170084444,-0.03681903153512665]","[-1,-1,-1]","[0.07800211946053062,-0.04192493216290099]","[-1,-1,-1]","[0.1779464462114575,0.06558430703527106]","[-1,-1,-1]","[-0.12799522520764534,0.04203639989704241]","[-1,-1,-1]","[-0.08895301306514802,0.07444075413753597]","[-1,-1,-1]","[0.02722808738524578,0.17310684780104604]","[-1,-1,-1]","[-0.02148606915075982,0.11814545439938953]","[-1,-1,-1]","[-0.020012236603280102,-0.1563943393164014]","[-1,-1,-1]","[0.027757607255825816,-0.048779459596053495]","[-1,-1,-1]","[-0.07084560275158144,-0.17234417332565938]","[-1,-1,-1]","[0.15385443230625545,0.014076841131461534]","[-1,-1,-1]","[0.02171275471397581,0.05816778768436288]","[1,1,1]","[0.08171844341409817,0.17606112261768225]","[-1,-1,-1]","[0.019239102315885343,0.11266777181991153]","[1,1,1]","[-0.17310088675943877,0.004169736050445921]","[1,1,1]","[-0.06209296068798778,-0.11517603462768868]","[-1,-1,-1]","[0.07316015761292026,-0.18293770776892254]","[-1,-1,-1]","[-0.028204397405626747,-0.07158116987965477]","[-1,-1,-1]","[-0.13728959838279994,-0.07807353837712375]","[-1,-1,-1]","[-0.04561824632499885,0.05633651263054025]","[-1,-1,-1]","[-0.18583859014181076,0.04681032328393723]","[-1,-1,-1]","[0.15890431939479513,-0.05690052113368735]","[-1,-1,-1]","[-0.0781735101008167,0.006575893144215781]","[-1,-1,-1]","[-0.13313158856028268,-0.026423398100589184]","[-1,-1,-1]","[-0.1454110162872943,0.08806959799475214]","[-1,-1,-1]","[-0.030310315775291127,0.19010316800513893]","[-1,-1,-1]","[0.11696430325636385,-0.005406094617353303]","[-1,-1,-1]","[0.07990131736704405,-0.08232689603190511]","[-1,-1,-1]","[0.02,0.02]",333.8567,0,1,1,8,1,,,,,,,
,,,,,,,67fd2c413355380a310b424a,682db3985f919414b92ae683,2025-05-21_13h13.20.401,cuing_paradigm_dot,2024.1.5,Win32,60.24096386,682d556593cb38ad0a074487,,,,,,,,,,,333.8573,334.357,,,334.5958,334.84,right,,,,,,,,0.5,0.2179,,,,,,,334.357,334.5958,334.8401,"[-0.04207144126020814,-0.107712538492978]","[1,1,1]","[-0.06071187822829046,-0.1805552756952066]","[-1,-1,-1]","[0.03340743087578926,0.14985762512623574]","[1,1,1]","[0.08149728661837163,-0.04522409966595485]","[1,1,1]","[0.031040912646970717,-0.02553736329164296]","[1,1,1]","[0.03565684601024843,-0.11451509183970313]","[-1,-1,-1]","[-0.12645305368405702,0.14279434029412774]","[1,1,1]","[0.0012999802662876626,0.043518725765470986]","[-1,-1,-1]","[-0.007426565147229596,0.18344975823365856]","[-1,-1,-1]","[-0.12348785572141648,0.07579024281246642]","[-1,-1,-1]","[-0.04723794894650775,-0.045456307476457194]","[1,1,1]","[-0.1283952785231977,-0.056688736109328126]","[1,1,1]","[0.14015268701574457,-0.14092577467932607]","[-1,-1,-1]","[0.15491985944511208,0.07814831002669809]","[1,1,1]","[-0.10028570318727605,0.005410983085576352]","[-1,-1,-1]","[-0.13665009578955645,-0.11541016411719507]","[1,1,1]","[-0.00393121886564709,-0.18288791858461245]","[-1,-1,-1]","[-0.16140751705596681,0.02830763617855807]","[-1,-1,-1]","[0.1679477384244434,-0.030980790079579896]","[-1,-1,-1]","[0.13108192805370458,-0.07910027994298609]","[-1,-1,-1]","[0.09749536259992247,-0.16229436221411725]","[-1,-1,-1]","[0.11215128679568245,0.1521504071401236]","[-1,-1,-1]","[0.14921461590680055,0.12356496933831508]","[1,1,1]","[0.19248477429744718,0.05415240724650988]","[1,1,1]","[-0.05075265532207119,0.048813171148999406]","[-1,-1,-1]","[0.07877900835114103,0.09822133517035753]","[1,1,1]","[-0.08907915336818287,-0.12066475601233254]","[1,1,1]","[0.03429823794909564,-0.15652826872083597]","[1,1,1]","[0.17262453031675096,-0.0765502125878504]","[1,1,1]","[-0.02283775019189246,0.10896054063510903]","[1,1,1]","[-0.14231156672701437,-0.010631177925879377]","[-1,-1,-1]","[-0.07061724896598949,0.13618953979231843]","[-1,-1,-1]","[0.02,0.02]",335.94,0,2,2,114,1,,,,,,,
,,,,,,,67fd2c413355380a310b424a,682db3985f919414b92ae683,2025-05-21_13h13.20.401,cuing_paradigm_dot,2024.1.5,Win32,60.24096386,682d556593cb38ad0a074487,,,,,,,,,,,335.9403,336.4405,,,336.6909,338.1923,,,,,,,,,0.9,,,,,,,,336.4405,336.6909,338.1923,"[-0.027048254729523647,-0.11277228768427203]","[1,1,1]","[-0.08524069950523325,0.17058568264682306]","[1,1,1]","[0.02791994950165112,0.12070810058048251]","[1,1,1]","[0.016633393772678414,0.05824474533440916]","[1,1,1]","[0.0034801745314969814,-0.17454491282543663]","[1,1,1]","[0.049101335035738505,0.1559037555525392]","[1,1,1]","[-0.19374620850786256,-0.02035006946656226]","[1,1,1]","[0.1483043309544701,-0.07962473606545153]","[1,1,1]","[0.013120081554602866,-0.07442719202224377]","[1,1,1]","[-0.09687984921050456,-0.047364992589967465]","[1,1,1]","[0.0471121703335186,-0.17645439008878666]","[1,1,1]","[-0.05406131055412939,-0.16357440293002948]","[1,1,1]","[-0.10471009771100383,0.11482187140655341]","[1,1,1]","[-0.09766993783493472,-0.10592101288028447]","[1,1,1]","[0.14264655880616633,0.1280539780566997]","[-1,-1,-1]","[0.1819816454985639,0.0005855495152327181]","[1,1,1]","[-0.1677541714702236,0.10320895457176238]","[1,1,1]","[-0.15916878428369746,0.0238352915200091]","[1,1,1]","[-0.10425791133368384,-0.1603642205776249]","[-1,-1,-1]","[0.16345517702824067,0.08695128928281926]","[1,1,1]","[-0.18339708323771037,0.05773815828273612]","[1,1,1]","[0.05207129195254416,-0.023801374259557615]","[-1,-1,-1]","[-0.01963297744770784,-0.03337697416248911]","[1,1,1]","[0.0906609488934966,0.16738922991488273]","[1,1,1]","[0.15439590187493338,-0.03286219147637952]","[1,1,1]","[-0.16667787504763504,-0.0734736954579499]","[1,1,1]","[0.09515691100816581,0.05855066393250066]","[1,1,1]","[-0.04591051247099371,0.10166975275775328]","[1,1,1]","[0.17055228939097372,0.04525488911543968]","[1,1,1]","[-0.002822316613167504,0.1743089998889708]","[1,1,1]","[0.09393874740992522,0.11093746661889818]","[1,1,1]","[-0.11917149377187047,0.04645313146109349]","[1,1,1]","[0.02,0.02]",339.2903,0,3,3,186,1,,,,,,,
,,,,,,,67fd2c413355380a310b424a,682db3985f919414b92ae683,2025-05-21_13h13.20.401,cuing_paradigm_dot,2024.1.5,Win32,60.24096386,682d556593cb38ad0a074487,,,,,,,,,,,339.2908,339.7889,,,340.0395,340.0565,right,,,,,,,,0.45,0.0007,,,,,,,339.7891,340.0394,340.0566,"[0.10064830855509725,-0.02982344682710076]","[-1,-1,-1]","[-0.13981770523896458,-0.10298250820417026]","[1,1,1]","[0.03997573109937061,0.12085167030845473]","[-1,-1,-1]","[0.08753938528684473,-0.11640199079019871]","[-1,-1,-1]","[-0.043724113260087766,0.12640957608799516]","[1,1,1]","[0.019431441281313886,-0.12232115057720969]","[-1,-1,-1]","[-0.016813586195520796,0.05356050926168407]","[-1,-1,-1]","[0.01792475272799476,0.1828779905784837]","[-1,-1,-1]","[-0.05301655262552464,-0.06866722737709645]","[-1,-1,-1]","[-0.17024162512123378,-0.0027518461821512377]","[1,1,1]","[-0.13720398473358564,0.07402523976612252]","[-1,-1,-1]","[0.12912519328866257,0.09244882304582924]","[1,1,1]","[-0.07931238884615331,-0.024527409415380445]","[1,1,1]","[-0.07571284590322049,0.07463091468870453]","[-1,-1,-1]","[0.15050341410193027,-0.06664208386919916]","[-1,-1,-1]","[-0.054148359319490115,0.0075719661900112995]","[1,1,1]","[-0.12673835620942114,-0.058933925255418004]","[1,1,1]","[0.19067826999782778,0.02263648789289496]","[-1,-1,-1]","[-0.18652808515746866,-0.06207064929247592]","[-1,-1,-1]","[-0.056461007716798205,0.18987128377019788]","[-1,-1,-1]","[0.1077979714111922,0.15212535941934893]","[1,1,1]","[0.01401048584359546,-0.05717825718988409]","[1,1,1]","[-0.09867041167041392,-0.08856421261546203]","[-1,-1,-1]","[0.14538278434885746,0.00391764594414182]","[-1,-1,-1]","[0.05854337070215378,0.02396146240132881]","[1,1,1]","[-0.009554370161018618,-0.16081535843841294]","[-1,-1,-1]","[0.1986087041503239,-0.018352400506332574]","[1,1,1]","[-0.07209893874380269,-0.17470304352931498]","[-1,-1,-1]","[-0.10952847817760986,-0.1293212518402858]","[1,1,1]","[0.12360330405316164,-0.14326947930177722]","[1,1,1]","[-0.06688122476617873,-0.12699580572367825]","[1,1,1]","[-0.1843939922538968,0.06302465142700311]","[-1,-1,-1]","[0.02,0.02]",341.1563,0,4,4,85,1,,,,,,,
,,,,,,,67fd2c413355380a310b424a,682db3985f919414b92ae683,2025-05-21_13h13.20.401,cuing_paradigm_dot,2024.1.5,Win32,60.24096386,682d556593cb38ad0a074487,,,,,,,,,,,341.1568,341.6552,,,341.9058,342.0738,left,,,,,,,,0.4,0.1573,,,,,,,341.6552,341.9058,342.074,"[0.15141194660055685,-0.04507591982950308]","[-1,-1,-1]","[-0.15849471062153433,0.0445984200251994]","[1,1,1]","[0.08070776879884542,0.14173621923430846]","[1,1,1]","[0.14971815072597028,0.0861200882801097]","[-1,-1,-1]","[-0.09349543134828564,0.11904244159073755]","[1,1,1]","[0.1417998078644814,0.0002661475982892156]","[-1,-1,-1]","[0.05636526896330338,0.018417754428179722]","[-1,-1,-1]","[0.0003657969937866582,-0.11318966516770287]","[-1,-1,-1]","[-0.024935099771918715,0.1859580416150015]","[-1,-1,-1]","[0.15796146774657005,-0.1056138738349851]","[1,1,1]","[0.09862390878033143,0.03548703719225921]","[-1,-1,-1]","[0.002129442895813717,0.1176482503876364]","[1,1,1]","[-0.12018608296128719,0.07000744595188955]","[-1,-1,-1]","[-0.15658583194562184,-0.0671506886934165]","[-1,-1,-1]","[0.05309493678523677,-0.13218969005219175]","[-1,-1,-1]","[-0.03893225510418924,-0.1605104020338214]","[1,1,1]","[-0.05920858193354524,-0.08504583848035864]","[-1,-1,-1]","[-0.11146300026597189,-0.03418721836368239]","[1,1,1]","[-0.10795689232414235,-0.12601222559199965]","[-1,-1,-1]","[-0.049572063772454586,0.040234816724287324]","[1,1,1]","[0.11189585108124751,-0.030930675586879428]","[-1,-1,-1]","[0.18780044395310583,0.0052491738757796235]","[1,1,1]","[0.07402613262060495,-0.05764430044129078]","[-1,-1,-1]","[0.13556824293654357,0.136465921131455]","[-1,-1,-1]","[0.06307960607256087,-0.18952665147833775]","[-1,-1,-1]","[-0.003115274617456853,0.05529775390414527]","[-1,-1,-1]","[0.1070565558097578,0.07993849477363936]","[-1,-1,-1]","[0.019246795481628075,-0.18717855927979266]","[1,1,1]","[0.06452042489515507,0.10461824772516413]","[1,1,1]","[0.10437721884136082,-0.1403932055539965]","[1,1,1]","[-0.19031996066407064,-0.00949704789849933]","[1,1,1]","[-0.036676656517448065,-0.051490540561426074]","[-1,-1,-1]","[0.02,0.02]",343.173,0,5,5,41,1,,,,,,,
,,,,,,,67fd2c413355380a310b424a,682db3985f919414b92ae683,2025-05-21_13h13.20.401,cuing_paradigm_dot,2024.1.5,Win32,60.24096386,682d556593cb38ad0a074487,,,,,,,,,,,343.1736,343.6723,,,343.922,344.1056,right,,,,,,,,0.45,0.1685,,,,,,,343.6723,343.9218,344.1057,"[-0.16309625888341717,0.013230166505268643]","[1,1,1]","[0.0847151121413762,-0.16020921358904325]","[-1,-1,-1]","[-0.0541238143778124,0.16132485421520387]","[-1,-1,-1]","[-0.0738636709377321,0.1000736828047378]","[1,1,1]","[-0.07657196061246598,0.03172244517944639]","[1,1,1]","[0.04325524509481633,0.044050536921109565]","[-1,-1,-1]","[-0.012137271456955707,-0.19208418365456595]","[1,1,1]","[-0.0838664719503023,-0.0658823466708352]","[1,1,1]","[0.16602678068408253,-0.04096247462840981]","[-1,-1,-1]","[0.13355822487512006,-0.016857384607980305]","[-1,-1,-1]","[-0.04931429222584437,-0.11578709658696415]","[1,1,1]","[0.04818849493201151,-0.1072809535464208]","[-1,-1,-1]","[-0.12974231605501033,-0.08617928461908224]","[-1,-1,-1]","[0.18145986258845925,0.05684623751426058]","[1,1,1]","[-0.13425126678421123,-0.043632828293937755]","[-1,-1,-1]","[-0.12062818396567641,0.015513442765858618]","[1,1,1]","[-0.006344868141108389,-0.1494821684339453]","[-1,-1,-1]","[0.00721196340046038,-0.011710689375683857]","[1,1,1]","[0.12404796585143149,0.14105020635738855]","[-1,-1,-1]","[0.07962745494031288,0.08673952587323541]","[-1,-1,-1]","[0.034754761714162995,-0.1748641860109716]","[1,1,1]","[0.1092201150168118,0.018187753625330923]","[1,1,1]","[0.1472277149981653,-0.0823463797635052]","[-1,-1,-1]","[0.08014899496359394,-0.0166285526996806]","[-1,-1,-1]","[0.14941002194260336,0.10307477621083486]","[1,1,1]","[0.07639642684155672,0.1733907887443665]","[1,1,1]","[-0.1635311769903082,-0.1127417454570173]","[-1,-1,-1]","[0.0027205593085091783,0.1661394231645935]","[-1,-1,-1]","[0.006455180173039225,-0.09905290007270505]","[-1,-1,-1]","[-0.006829100280854835,0.0732067872487533]","[1,1,1]","[0.02485308697938294,0.12502157366492464]","[-1,-1,-1]","[-0.11142203592959089,0.1529407355307488]","[-1,-1,-1]","[0.02,0.02]",345.2045,0,6,6,70,1,,,,,,,
,,,,,,,67fd2c413355380a310b424a,682db3985f919414b92ae683,2025-05-21_13h13.20.401,cuing_paradigm_dot,2024.1.5,Win32,60.24096386,682d556593cb38ad0a074487,,,,,,,,,,,345.2048,345.7043,,,345.9551,346.0046,right,,,,,,,,0.1,0.0377,,,,,,,345.7044,345.9551,346.0047,"[-0.04994888341759455,0.000958226220504612]","[-1,-1,-1]","[0.04229946301414477,0.18631564648537724]","[-1,-1,-1]","[-0.0925410154146777,-0.0795082973583298]","[-1,-1,-1]","[-0.11024860989840234,0.11999206145715617]","[-1,-1,-1]","[-0.17916846222850305,0.04733577452160238]","[-1,-1,-1]","[0.03206396196029367,-0.16339233734850137]","[-1,-1,-1]","[-0.13475147196043946,-0.07972069954835631]","[1,1,1]","[0.007410152529994413,0.11917117435107569]","[-1,-1,-1]","[-0.0652302478418182,-0.11551456869468488]","[-1,-1,-1]","[-0.1632221530665608,-0.01570689819359887]","[-1,-1,-1]","[-0.06607506595773543,0.1408647854836263]","[1,1,1]","[-0.012714725085504813,0.054101323731042227]","[-1,-1,-1]","[0.12791799757867633,0.07635651122686145]","[1,1,1]","[0.14808002518953842,-0.05826661791118667]","[-1,-1,-1]","[0.050881280144659265,0.05592574018037632]","[-1,-1,-1]","[-0.10913142272722165,0.07506956188531026]","[-1,-1,-1]","[0.035243351055662744,-0.04728726267957968]","[-1,-1,-1]","[0.05835641030235937,-0.009015953660661092]","[-1,-1,-1]","[0.12546666062782996,0.13841372795093432]","[-1,-1,-1]","[0.19721902482221357,-0.021787219553946687]","[-1,-1,-1]","[-0.14678448751374537,-0.12235236326524646]","[-1,-1,-1]","[0.19878540300139852,0.018666263769021117]","[-1,-1,-1]","[0.10290575010935613,-0.14490602453872486]","[-1,-1,-1]","[-0.05952109070869508,0.08652584404547353]","[-1,-1,-1]","[0.09923823383538981,-0.08520320456942558]","[-1,-1,-1]","[0.022547413439106673,-0.11711109435139315]","[-1,-1,-1]","[0.15959960339353024,0.03955564052598545]","[-1,-1,-1]","[-0.058862481089601355,-0.04823070460672908]","[-1,-1,-1]","[-0.10900646904737447,-0.15722459410232673]","[-1,-1,-1]","[0.09786439060983834,0.03999821743953251]","[-1,-1,-1]","[0.056539453443452514,0.12478530513666614]","[-1,-1,-1]","[-0.1178985053451527,0.03564874534353139]","[-1,-1,-1]","[0.02,0.02]",347.0935,0,7,7,4,1,,,,,,,
,,,,,,,67fd2c413355380a310b424a,682db3985f919414b92ae683,2025-05-21_13h13.20.401,cuing_paradigm_dot,2024.1.5,Win32,60.24096386,682d556593cb38ad0a074487,,,,,,,,,,,347.0939,347.5934,,,347.8556,348.0044,right,,,,,,,,0.9,0.1365,,,,,,,347.5934,347.8556,348.0044,"[-0.16754372232664774,-0.10645099271212687]","[1,1,1]","[0.01478656824109305,-0.11992029514241473]","[1,1,1]","[0.022037828305725024,-0.007473124568761157]","[1,1,1]","[-0.10904117771371832,-0.061083120407561226]","[1,1,1]","[0.13058588460103132,0.13661244287193552]","[1,1,1]","[0.1561520105242147,-0.09016535785662784]","[1,1,1]","[0.1089327577346287,-0.07833085135681031]","[1,1,1]","[0.19083470231686792,-0.010099691383755681]","[1,1,1]","[0.1552149254712594,-0.03415530632965745]","[1,1,1]","[0.07868583439211176,0.10618243233345279]","[-1,-1,-1]","[0.025560754945220247,0.12516855788311562]","[1,1,1]","[0.06544837735451593,-0.05251180359115839]","[1,1,1]","[0.11266188313248107,0.027831025091653964]","[1,1,1]","[0.16780172784029473,0.027996359299509214]","[1,1,1]","[0.006773240274083706,-0.055493805753425204]","[1,1,1]","[-0.06714079783281401,0.15460372393442684]","[1,1,1]","[0.0769565217878286,-0.1449232181867252]","[1,1,1]","[0.03707965078136548,-0.1569356190260241]","[1,1,1]","[-0.10663718357070329,0.07923634449076086]","[1,1,1]","[-0.004889575808014174,0.029651854116977978]","[1,1,1]","[-0.1856950167384005,-0.03755514964020868]","[1,1,1]","[0.13486554697395797,0.08992477369830404]","[1,1,1]","[-0.048780630066175494,-0.09402995300708114]","[1,1,1]","[-0.15728592414563558,0.1001786127853273]","[1,1,1]","[0.10384265426688868,-0.020751545385649828]","[1,1,1]","[-0.014503522494824665,0.11416771177743519]","[1,1,1]","[0.19032213128855974,-0.054807747494765725]","[1,1,1]","[-0.1007273795834839,0.015849798584875206]","[1,1,1]","[-0.029090731104641564,-0.03544236499757011]","[-1,-1,-1]","[-0.11978361629924511,0.15941738506709766]","[1,1,1]","[-0.0035495457366455916,-0.19590474550626127]","[1,1,1]","[-0.12908717588031965,-0.1429228327932533]","[-1,-1,-1]","[0.02,0.02]",349.1095,0,8,8,197,1,,,,,,,
,,,,,,,67fd2c413355380a310b424a,682db3985f919414b92ae683,2025-05-21_13h13.20.401,cuing_paradigm_dot,2024.1.5,Win32,60.24096386,682d556593cb38ad0a074487,,,,,,,,,,,349.11,349.6089,,,349.8543,349.9762,left,,,,,,,,0.55,0.1001,,,,,,,349.609,349.8542,349.9763,"[0.11375297519492224,-0.10990358316254648]","[1,1,1]","[0.08581413306577995,-0.016492632056994444]","[1,1,1]","[0.07594350667519674,0.082472502842573]","[1,1,1]","[0.012856340502669709,-0.1372827400585815]","[1,1,1]","[-0.010145890072798093,0.011662839262470323]","[1,1,1]","[0.06842714875332924,-0.07926186770525508]","[-1,-1,-1]","[-0.15205354370465696,0.039566623125006105]","[-1,-1,-1]","[0.034242907509793655,-0.002980630756506121]","[-1,-1,-1]","[-0.12107072392521129,-0.12093202967081895]","[1,1,1]","[0.061780952780845694,-0.1602733731985802]","[1,1,1]","[-0.17499658359416356,-0.07396254947261087]","[-1,-1,-1]","[0.03166452643868389,0.05371338415320943]","[-1,-1,-1]","[-0.01702545847801584,0.16297280137937772]","[1,1,1]","[-0.016277673064373836,-0.10714646313918008]","[-1,-1,-1]","[-0.0754128674992854,0.03931145769501557]","[1,1,1]","[0.16284828498196718,0.06350302597135579]","[1,1,1]","[0.058438969785638326,0.18895422835503817]","[-1,-1,-1]","[0.09820611643776656,0.13265368804199404]","[-1,-1,-1]","[-0.05366775775862924,0.18485423710105664]","[-1,-1,-1]","[-0.035571165038408535,-0.026921432914019976]","[-1,-1,-1]","[0.0033443650821889884,-0.05329219278882937]","[-1,-1,-1]","[-0.0884671979037994,-0.04159493852202202]","[1,1,1]","[-0.15853212020008847,0.09402367936441441]","[1,1,1]","[0.12122097374313842,-0.07017145162721748]","[1,1,1]","[0.15681290110802687,0.016809954484558555]","[1,1,1]","[0.12396891764114415,0.0497544975999946]","[-1,-1,-1]","[0.052432991319583906,0.1391994805125603]","[-1,-1,-1]","[-0.095459100092963,-0.15755472471694668]","[-1,-1,-1]","[0.19680550064002558,0.012815741970951665]","[1,1,1]","[-0.007422741059420606,-0.17842588603504886]","[1,1,1]","[0.010977388174445855,0.124400939545798]","[1,1,1]","[-0.0892896446419441,0.0014689041450249238]","[1,1,1]","[0.02,0.02]",351.0702,0,9,9,136,1,,,,,,,
,,,,,,,67fd2c413355380a310b424a,682db3985f919414b92ae683,2025-05-21_13h13.20.401,cuing_paradigm_dot,2024.1.5,Win32,60.24096386,682d556593cb38ad0a074487,,,,,,,,,,,351.0711,351.5704,,,351.8215,351.854,right,,,,,,,,0.55,0.0175,,,,,,,351.5704,351.8215,351.8541,"[-0.16286976056607036,-0.0019954953516341327]","[1,1,1]","[0.009571995311188623,-0.04751919387717706]","[-1,-1,-1]","[0.1674802132628713,-0.030251176325326944]","[1,1,1]","[0.01563671692049565,0.013953134694358963]","[1,1,1]","[-0.11008898695239687,0.10810066645094474]","[1,1,1]","[0.04229634442210047,0.08644624080648233]","[-1,-1,-1]","[0.024318630158889343,-0.162521625654419]","[-1,-1,-1]","[-0.11682132136582488,-0.08562056527016906]","[1,1,1]","[0.097720799154241,0.06371018127598667]","[-1,-1,-1]","[-0.010824569359239177,0.17428562829508787]","[1,1,1]","[0.14903263238552572,0.07441843398326639]","[1,1,1]","[0.08013612921758786,0.12758142098043704]","[-1,-1,-1]","[0.09502730153586071,-0.0773842966258702]","[1,1,1]","[-0.04417160251238198,0.06327139777064562]","[1,1,1]","[0.04503659379652306,-0.07124119089928622]","[1,1,1]","[0.003823792707634628,0.1151796944601899]","[1,1,1]","[-0.060345915920143274,-0.1180225179862315]","[-1,-1,-1]","[-0.1528495346002381,0.06665206670431004]","[-1,-1,-1]","[0.09632471263560478,-0.010279703020314942]","[1,1,1]","[0.057672739038222696,0.003044329647094238]","[-1,-1,-1]","[0.11786189028197028,0.026494684939975918]","[1,1,1]","[0.08112864616918081,-0.1531058194489277]","[1,1,1]","[-0.08401994932797409,0.15769596601388436]","[-1,-1,-1]","[-0.1400017714110806,-0.040593941210679246]","[1,1,1]","[0.16571028541868363,0.019207366478223083]","[-1,-1,-1]","[0.058667315665096746,0.1630052309179517]","[1,1,1]","[-0.020863229701304335,-0.15064165743603591]","[-1,-1,-1]","[0.17227983291852256,-0.07661931638211793]","[1,1,1]","[-0.04671967665239414,-0.06387554402268787]","[-1,-1,-1]","[-0.10222956030140995,0.028303333790189806]","[-1,-1,-1]","[0.13042778505082436,0.14279740760121148]","[1,1,1]","[-0.10238100045587874,-0.15020204826085556]","[-1,-1,-1]","[0.02,0.02]",352.9542,0,10,10,123,1,,,,,,,
,,,,,,,67fd2c413355380a310b424a,682db3985f919414b92ae683,2025-05-21_13h13.20.401,cuing_paradigm_dot,2024.1.5,Win32,60.24096386,682d556593cb38ad0a074487,,,,,,,,,,,352.9551,353.4542,,,353.7049,353.8381,right,,,,,,,,0.9,0.1265,,,,,,,353.4542,353.7047,353.8381,"[-0.017190413850858576,-0.18135832768083415]","[1,1,1]","[0.1758011439948491,-0.05805792895966682]","[1,1,1]","[-0.11399682197108327,0.0760243566866026]","[1,1,1]","[0.012740165851638088,-0.046652040521258556]","[1,1,1]","[-0.08968975749061765,-0.12016019724770768]","[1,1,1]","[-0.0072311053169559335,0.11467248967885715]","[1,1,1]","[0.07365061648825164,0.1198769448124978]","[1,1,1]","[0.11633397047348128,-0.11358985475673128]","[1,1,1]","[0.02987776780588473,0.06933296501813763]","[1,1,1]","[0.010477656029602801,0.0013658670954057462]","[-1,-1,-1]","[-0.07732883559830783,-0.04593052219709626]","[1,1,1]","[-0.005565681317744266,-0.08715568047510118]","[1,1,1]","[-0.11955470427527352,0.12568130417469714]","[1,1,1]","[0.14194460912377085,0.006579748015250816]","[1,1,1]","[0.05624247889924562,-0.07286393694311104]","[1,1,1]","[0.14265916625402314,0.08299148180168057]","[1,1,1]","[-0.16347473778158614,-0.01872167094629504]","[-1,-1,-1]","[-0.05798445110662139,-0.08316379941550156]","[1,1,1]","[-0.14184211300043714,-0.1254454325427693]","[1,1,1]","[-0.16265721618369144,0.03248660682845981]","[1,1,1]","[0.020032948823508284,0.1846283557620214]","[1,1,1]","[0.05635984118199484,-0.1429279945424088]","[1,1,1]","[-0.059189765226122,0.16170540490525612]","[1,1,1]","[0.04714576517724597,0.14995853476215767]","[1,1,1]","[0.09753360241458098,0.06073036072181954]","[1,1,1]","[0.09021413301150598,-0.02349827650882022]","[1,1,1]","[0.18859668147787706,-0.0008382638333569701]","[1,1,1]","[-0.004893277683658233,-0.14172030239599362]","[-1,-1,-1]","[-0.09157668148543188,0.024389762723241854]","[1,1,1]","[-0.05941294909357465,0.09463696590349237]","[1,1,1]","[0.12023123852865256,0.13288467760880404]","[1,1,1]","[-0.010425196233056272,0.059752517279833814]","[1,1,1]","[0.02,0.02]",354.936,0,11,11,208,1,,,,,,,
,,,,,,,67fd2c413355380a310b424a,682db3985f919414b92ae683,2025-05-21_13h13.20.401,cuing_paradigm_dot,2024.1.5,Win32,60.24096386,682d556593cb38ad0a074487,,,,,,,,,,,354.9364,355.4356,,,355.6863,355.8026,right,,,,,,,,0.6,0.1003,,,,,,,355.4357,355.6861,355.8027,"[0.12057661702364912,0.08473159307738713]","[1,1,1]","[-0.009087677674140714,-0.09285376692784604]","[1,1,1]","[-0.014274355324280784,-0.14345432342858483]","[1,1,1]","[0.044846812735993995,-0.03320977756696872]","[1,1,1]","[-0.03197072644722745,0.13280343180992468]","[1,1,1]","[-0.15675503132079166,0.05669192758305517]","[-1,-1,-1]","[-0.1077336452085469,-0.0290623800765396]","[1,1,1]","[0.045020287944396574,0.009005181009613785]","[-1,-1,-1]","[-0.04641897433059767,-0.18529157424329604]","[-1,-1,-1]","[-0.1368537406797665,0.006709352168739997]","[-1,-1,-1]","[0.06369350314899663,0.14158480694905712]","[1,1,1]","[-0.1106212793411306,-0.16529913809241634]","[-1,-1,-1]","[0.07930592392650587,0.04004563751794809]","[1,1,1]","[-0.008042152896724946,0.06988937830436863]","[1,1,1]","[-0.026394377155340824,-0.013570311946946387]","[-1,-1,-1]","[0.10757682466403243,-0.12366659014595642]","[1,1,1]","[0.14874908461002104,0.016298398161156146]","[1,1,1]","[-0.1449352953610245,-0.05378785913536626]","[1,1,1]","[-0.10277664114499319,0.03856305806053901]","[-1,-1,-1]","[-0.13692715247876322,0.09355218509785483]","[1,1,1]","[0.19290101816021013,-0.008881811360115443]","[1,1,1]","[0.02908213816228984,-0.1541295412976909]","[1,1,1]","[0.05377144932562791,-0.10183288048237514]","[1,1,1]","[-0.0640666153817935,-0.04170089157234901]","[-1,-1,-1]","[-0.06043441023822252,0.0777642416214094]","[-1,-1,-1]","[-0.09092910473949066,-0.10869114443627248]","[-1,-1,-1]","[0.13233835711579525,0.12531307977047532]","[1,1,1]","[0.17573081321765502,0.060096818338850395]","[-1,-1,-1]","[0.16070436420753506,-0.07303741151670849]","[-1,-1,-1]","[-0.07314905658537035,0.16122843751919494]","[1,1,1]","[-0.1833453950534704,-0.06817456673184737]","[-1,-1,-1]","[0.0933602701668834,-0.011741957741744266]","[1,1,1]","[0.02,0.02]",356.9023,0,12,12,160,1,,,,,,,
,,,,,,,67fd2c413355380a310b424a,682db3985f919414b92ae683,2025-05-21_13h13.20.401,cuing_paradigm_dot,2024.1.5,Win32,60.24096386,682d556593cb38ad0a074487,,,,,,,,,,,356.9026,357.4021,,,357.6523,357.8689,left,,,,,,,,0.1,0.2009,,,,,,,357.4022,357.6522,357.8689,"[-0.14450840594985975,0.01900964877515619]","[-1,-1,-1]","[0.017789615394804278,-0.1961496872281448]","[-1,-1,-1]","[0.0976421982149649,-0.14373214444007076]","[-1,-1,-1]","[0.127619150345283,0.06811437913371356]","[-1,-1,-1]","[-0.17070450591507963,-0.08598671985333384]","[-1,-1,-1]","[0.01590056399758265,0.1879607672926724]","[-1,-1,-1]","[-0.011115770980065491,0.1376822591648509]","[-1,-1,-1]","[0.00011638225056886749,0.0894286063067644]","[-1,-1,-1]","[0.16789321349125222,-0.10057609454960746]","[1,1,1]","[-0.15011472841684312,0.1306751895253127]","[-1,-1,-1]","[0.054652626466136014,0.14369923386304445]","[-1,-1,-1]","[-0.1814346875161053,0.05214225754072474]","[-1,-1,-1]","[-0.09635483079220165,0.15229136516448824]","[-1,-1,-1]","[0.12130173631168072,-0.0439247549490732]","[-1,-1,-1]","[-0.10472605850665401,-0.1317362325207095]","[-1,-1,-1]","[0.11803985576332589,-0.08415570169967214]","[1,1,1]","[-0.037458449199346065,0.06319243223734039]","[-1,-1,-1]","[0.03930608956079777,0.0642642277187279]","[-1,-1,-1]","[-0.09540617881398747,0.0746593201394768]","[-1,-1,-1]","[0.011875102452736387,-0.02647192432096237]","[-1,-1,-1]","[0.010119082393855965,0.013618210936412944]","[-1,-1,-1]","[0.08063570454974217,-0.036887336377410165]","[-1,-1,-1]","[-0.04961453943165391,-0.13483433627950103]","[-1,-1,-1]","[0.010098495514767832,-0.1098119397177136]","[-1,-1,-1]","[0.1266920445874569,0.11464274348268828]","[-1,-1,-1]","[-0.05321914996499835,-0.06467413040468208]","[-1,-1,-1]","[0.1932419921412613,0.0025189056925113]","[-1,-1,-1]","[0.10389491162047186,0.004968532459156913]","[-1,-1,-1]","[0.015105933359221451,-0.0663679233287391]","[-1,-1,-1]","[0.18038227443907318,-0.05010285891885211]","[-1,-1,-1]","[-0.10165794591949841,-0.06474250549788446]","[-1,-1,-1]","[-0.03902073904479118,0.17471124275831046]","[1,1,1]","[0.02,0.02]",358.9684,0,13,13,9,1,,,,,,,
,,,,,,,67fd2c413355380a310b424a,682db3985f919414b92ae683,2025-05-21_13h13.20.401,cuing_paradigm_dot,2024.1.5,Win32,60.24096386,682d556593cb38ad0a074487,,,,,,,,,,,358.9688,359.4685,,,359.7186,359.8185,right,,,,,,,,0.5,0.091,,,,,,,359.4685,359.7186,359.8186,"[-0.05544012007191908,-0.045402347972759764]","[-1,-1,-1]","[0.14501748099768363,-0.09366767970758853]","[1,1,1]","[-0.17075238727108513,0.09939473306975266]","[1,1,1]","[0.10681285134293851,0.018187441636567783]","[1,1,1]","[0.01585370989786393,-0.16986504140976788]","[-1,-1,-1]","[0.03077990896986,0.07173965323833925]","[1,1,1]","[0.01311500469010529,0.1678315923232537]","[-1,-1,-1]","[0.0020566162009977903,-0.05608656089308835]","[-1,-1,-1]","[0.03288671710492568,-0.08180380606369737]","[-1,-1,-1]","[0.084296010791288,-0.0595056470890291]","[-1,-1,-1]","[-0.05998426402018512,-0.09078087778463265]","[-1,-1,-1]","[-0.11716448472463833,0.006500514297535474]","[-1,-1,-1]","[-0.0234745581936413,-0.003845699904529192]","[-1,-1,-1]","[0.11640348611645782,0.0744222223725761]","[1,1,1]","[-0.040399764488455586,0.11905002361747537]","[-1,-1,-1]","[0.1468714549229603,-0.04511248830257033]","[1,1,1]","[0.1506233463292635,0.02563796453953882]","[-1,-1,-1]","[0.04926382658583944,0.186643148424475]","[-1,-1,-1]","[0.1823690547464515,0.05788306217198444]","[1,1,1]","[-0.0636437654363979,0.04850682037182712]","[-1,-1,-1]","[-0.1228245767268007,-0.05621740917657731]","[1,1,1]","[0.08657029503292456,0.10489550912526938]","[-1,-1,-1]","[-0.11740887199808987,0.07526313431050898]","[1,1,1]","[-0.14687011596549962,0.03364588597497325]","[1,1,1]","[-0.1804060473984334,-0.05310357631492683]","[1,1,1]","[-0.07261644194888439,-0.15689442556548922]","[1,1,1]","[-0.19499655597711169,-0.007640965299057816]","[1,1,1]","[-0.07143729285270387,0.17944689752240175]","[-1,-1,-1]","[0.19182529620219343,-0.04074692840327079]","[-1,-1,-1]","[0.0184239420827562,-0.012908768074684772]","[1,1,1]","[0.017608086302381778,0.12142173177712462]","[1,1,1]","[0.06015178177962918,-0.16850901379100264]","[1,1,1]","[0.02,0.02]",360.9181,0,14,14,111,1,,,,,,,
,,,,,,,67fd2c413355380a310b424a,682db3985f919414b92ae683,2025-05-21_13h13.20.401,cuing_paradigm_dot,2024.1.5,Win32,60.24096386,682d556593cb38ad0a074487,,,,,,,,,,,360.9186,361.4178,,,361.6682,361.7514,left,,,,,,,,0.6,0.0707,,,,,,,361.4178,361.6682,361.7514,"[0.14791547152979792,0.10672099481374608]","[-1,-1,-1]","[0.008606332104410093,0.06281879919481759]","[1,1,1]","[-0.06103794531986892,-0.05130056922845437]","[-1,-1,-1]","[-0.02811939281294393,0.10930867029663563]","[-1,-1,-1]","[-0.06568145645083322,-0.12276598933417332]","[-1,-1,-1]","[-0.0880715715800915,0.12788701998557428]","[1,1,1]","[0.12806545145320553,-0.020103082608682994]","[1,1,1]","[0.08998700348329566,-0.12907196353060568]","[-1,-1,-1]","[0.004020254730715968,-0.16310621912450135]","[1,1,1]","[0.0761321974991241,0.0010093531383665775]","[-1,-1,-1]","[0.009120517910276323,-0.029500200657395354]","[-1,-1,-1]","[0.05288927195151831,0.13761086439016387]","[1,1,1]","[-0.025169261694997544,-0.10049753750090518]","[-1,-1,-1]","[-0.03622302586588455,0.03315845688119349]","[1,1,1]","[-0.12075994810440821,-0.020211211739443236]","[-1,-1,-1]","[0.10515186656983104,-0.06647011031340347]","[1,1,1]","[-0.10594184285545552,-0.13072811446637614]","[1,1,1]","[0.1478041682535614,0.04480505303523756]","[1,1,1]","[-0.13043942124888772,0.020862098789974467]","[-1,-1,-1]","[-0.05330266915352705,0.16872959591492243]","[1,1,1]","[0.10177819372182553,0.055088764907992596]","[1,1,1]","[-0.16320937926446297,-0.036820777824134045]","[1,1,1]","[-0.14392895173283818,-0.11658918756179715]","[-1,-1,-1]","[0.043362751758218784,-0.08895764858645316]","[1,1,1]","[-0.137524285125091,0.14501090037845749]","[1,1,1]","[0.002378705050945608,0.1980140401697017]","[1,1,1]","[-0.07565583484309792,0.04841367697690453]","[1,1,1]","[-0.05688791205545782,-0.009821309054280336]","[1,1,1]","[-0.10345856202132332,0.07875153931460445]","[1,1,1]","[0.19358864503148518,0.006264604148232695]","[-1,-1,-1]","[0.06935918449727625,-0.04177300600691062]","[1,1,1]","[0.04593817158041818,0.18116199559988994]","[-1,-1,-1]","[0.02,0.02]",362.851,0,15,15,165,1,,,,,,,
,,,,,,,67fd2c413355380a310b424a,682db3985f919414b92ae683,2025-05-21_13h13.20.401,cuing_paradigm_dot,2024.1.5,Win32,60.24096386,682d556593cb38ad0a074487,,,,,,,,,,,362.8514,363.3509,,,363.6011,363.7676,right,,,,,,,,0.45,0.1505,,,,,,,363.3509,363.6011,363.7677,"[-0.001061328536945139,0.11749127498471572]","[-1,-1,-1]","[-0.06922431824895119,-0.023912592166641093]","[-1,-1,-1]","[0.0511213832401137,0.026338861220566005]","[1,1,1]","[0.13013811582152057,-0.11399191040669628]","[1,1,1]","[0.19275105890039143,0.029095417165157962]","[-1,-1,-1]","[-0.11769294245925563,0.023533765284483046]","[1,1,1]","[0.05327048687600635,0.08975247515841378]","[-1,-1,-1]","[0.1398877723957837,0.02520433890557082]","[1,1,1]","[0.01769881814864284,-0.11230205350128099]","[-1,-1,-1]","[-0.04800557252788782,0.10945021726623988]","[-1,-1,-1]","[0.04558858779990643,-0.06623192668943113]","[1,1,1]","[-0.11318689071593789,-0.1319272266348245]","[-1,-1,-1]","[0.13767380731969167,0.1243742065107788]","[-1,-1,-1]","[0.022783372876946643,0.19689674654078956]","[-1,-1,-1]","[-0.19499913360519572,0.00619955682738418]","[-1,-1,-1]","[-0.02228414772368329,0.0028650932192781577]","[1,1,1]","[-0.15908973664141807,0.06603193346342183]","[-1,-1,-1]","[0.038548556301705166,-0.1590028741733976]","[1,1,1]","[-0.13719621715822,-0.01451294573805798]","[1,1,1]","[0.09781597545665548,0.04366769452679615]","[-1,-1,-1]","[-0.1216786685470776,0.14293866282656545]","[1,1,1]","[-0.11343910943474293,-0.04852800205271445]","[-1,-1,-1]","[0.16043290721355222,0.06788050273307192]","[1,1,1]","[-0.1569263708283072,-0.10265538469118096]","[-1,-1,-1]","[0.1557440930566281,-0.05139260590659219]","[-1,-1,-1]","[-0.019426786855536636,0.04773771387451152]","[1,1,1]","[0.021724415319877368,-0.023980148783616345]","[-1,-1,-1]","[0.093092894038141,0.15526650585481527]","[-1,-1,-1]","[-0.08661155219776563,0.08306108613991563]","[1,1,1]","[-0.02833890884443565,-0.1666782691523919]","[1,1,1]","[-0.06957025194501318,0.16400027616637974]","[-1,-1,-1]","[0.09173724226099189,-0.13780719543695036]","[1,1,1]","[0.02,0.02]",364.8672,0,16,16,75,1,,,,,,,
,,,,,,,67fd2c413355380a310b424a,682db3985f919414b92ae683,2025-05-21_13h13.20.401,cuing_paradigm_dot,2024.1.5,Win32,60.24096386,682d556593cb38ad0a074487,,,,,,,,,,,364.8676,365.3671,,,365.6174,365.9004,left,,,,,,,,0.6,0.2686,,,,,,,365.3672,365.6174,365.9004,"[0.056356071942604474,0.07322886332213824]","[1,1,1]","[-0.0177969874044834,0.07515508308813004]","[-1,-1,-1]","[-0.060054889134060985,-0.14090621452623564]","[-1,-1,-1]","[0.1510944610965253,0.032171241905276045]","[1,1,1]","[0.1531244903845259,-0.025165528558803996]","[-1,-1,-1]","[-0.0719030356118387,-0.08586902297418944]","[-1,-1,-1]","[-0.09787645409177698,-0.02252093420003071]","[-1,-1,-1]","[-0.06912184416998597,0.11058460734537795]","[1,1,1]","[0.047869529701797024,0.02902835139863921]","[-1,-1,-1]","[0.08498318108313198,0.15646795822863535]","[-1,-1,-1]","[-0.15603314370548146,0.044325578673420934]","[1,1,1]","[-0.00964946046243727,0.16272593694432105]","[-1,-1,-1]","[0.14701462630750453,-0.12344610274088741]","[1,1,1]","[0.026270596296458254,-0.0073942844837867625]","[1,1,1]","[0.15917429771729008,-0.07972886963638384]","[1,1,1]","[-0.027151572969346522,-0.042594983101756245]","[-1,-1,-1]","[-0.11388498585760404,0.02184662294844421]","[-1,-1,-1]","[0.03371737531115787,-0.08363049801249245]","[-1,-1,-1]","[0.0729727656667715,-0.019118591154605215]","[1,1,1]","[0.0878823232089529,0.04486724528479345]","[1,1,1]","[0.10861408155138096,0.12384393853713527]","[1,1,1]","[-0.15047945418871356,-0.08691217365290073]","[1,1,1]","[-0.14271094521792582,0.10565393784859804]","[1,1,1]","[0.015133932226930925,-0.17055901740658608]","[-1,-1,-1]","[0.06543790184865758,0.11970184333803933]","[1,1,1]","[0.10241382675513307,-0.1612444948659328]","[1,1,1]","[-0.032103135808177155,0.013300688488431656]","[1,1,1]","[-0.12336746622508653,0.06810848834370753]","[1,1,1]","[-0.12654673396556176,-0.13214171053955379]","[-1,-1,-1]","[0.07945427002600083,-0.06841181412204689]","[1,1,1]","[-0.164688663070188,-0.010125400434663165]","[1,1,1]","[-0.032345282828335695,-0.1115342075044297]","[1,1,1]","[0.02,0.02]",367.0002,0,17,17,159,1,,,,,,,
,,,,,,,67fd2c413355380a310b424a,682db3985f919414b92ae683,2025-05-21_13h13.20.401,cuing_paradigm_dot,2024.1.5,Win32,60.24096386,682d556593cb38ad0a074487,,,,,,,,,,,367.0005,367.5,,,367.7505,367.8502,right,,,,,,,,0.5,0.0844,,,,,,,367.5,367.7504,367.8503,"[0.14352207440791173,-0.12576212901205433]","[1,1,1]","[-0.11170184788168296,0.03587204457596886]","[-1,-1,-1]","[-0.017291457996610558,-0.00591625475432936]","[-1,-1,-1]","[-0.004977512039987293,-0.12315903374394173]","[-1,-1,-1]","[-0.06517317689162411,0.10952542220991386]","[-1,-1,-1]","[-0.07651576656107598,0.1479439457075931]","[-1,-1,-1]","[-0.13972607148935395,0.07868427049412002]","[1,1,1]","[0.17704456671897276,0.07972254954171534]","[1,1,1]","[0.07254986868234657,-0.15763572604033893]","[-1,-1,-1]","[0.04844670990733045,0.1848624151267175]","[-1,-1,-1]","[0.17371097973176264,-0.00858630017553891]","[-1,-1,-1]","[0.007926851697776679,0.11066712315255954]","[-1,-1,-1]","[0.014550722412024644,-0.18146107281614607]","[1,1,1]","[-0.09625877183912933,-0.046635907592108734]","[-1,-1,-1]","[-0.04343229586791922,-0.18783484301259043]","[1,1,1]","[-0.1503569471708402,-0.01768708562070845]","[1,1,1]","[0.017591731718440022,-0.08848199569657454]","[1,1,1]","[0.13945397845625962,0.09508520704168953]","[1,1,1]","[-0.05026556050573628,0.033516461238749795]","[-1,-1,-1]","[0.09388921403878964,-0.12102396727927311]","[-1,-1,-1]","[-0.1948218727965805,-0.018306829815042117]","[-1,-1,-1]","[-0.11541152122074404,-0.09271812766049013]","[1,1,1]","[0.08710700388939199,0.08291110304116499]","[-1,-1,-1]","[0.07677521535079795,0.025647837047807685]","[1,1,1]","[0.09304152050778834,0.1556467579708627]","[-1,-1,-1]","[0.06606426697920476,-0.02765974243457508]","[1,1,1]","[0.01865352556369968,0.0374892213445154]","[1,1,1]","[0.023180667912956168,-0.036654347258643506]","[1,1,1]","[0.16511573518973247,-0.06152876458311283]","[-1,-1,-1]","[-0.05203202754073472,-0.11603418842635042]","[1,1,1]","[0.11022290491335586,0.04861751466017314]","[1,1,1]","[0.055375168388407926,-0.06883642551868425]","[1,1,1]","[0.02,0.02]",368.9497,0,18,18,115,1,,,,,,,
,,,,,,,67fd2c413355380a310b424a,682db3985f919414b92ae683,2025-05-21_13h13.20.401,cuing_paradigm_dot,2024.1.5,Win32,60.24096386,682d556593cb38ad0a074487,,,,,,,,,,,368.9501,369.4498,,,369.7003,369.8996,left,,,,,,,,0.1,0.1837,,,,,,,369.4499,369.7002,369.8996,"[-0.19376502796740724,0.048163507083387125]","[-1,-1,-1]","[0.006384628636963685,0.15769010069359937]","[-1,-1,-1]","[0.14725412945712163,-0.004830874397140123]","[1,1,1]","[-0.16704113705375373,0.09730311148942869]","[-1,-1,-1]","[0.15842185318202784,-0.07397902434056368]","[-1,-1,-1]","[0.012768722196930196,0.06356856292960586]","[-1,-1,-1]","[0.1170086111481273,-0.142458479151668]","[-1,-1,-1]","[0.10338772604477309,0.06435928420616681]","[-1,-1,-1]","[-0.16208641981621486,0.001121071317431621]","[-1,-1,-1]","[0.05025279501448969,-0.16934751288212435]","[-1,-1,-1]","[-0.07012177022836404,-0.17659994272364946]","[1,1,1]","[-0.12509964718464023,-0.05887713074824484]","[-1,-1,-1]","[0.071186898518267,-0.07565300788349683]","[-1,-1,-1]","[0.045873071586156326,-0.037963878793807374]","[-1,-1,-1]","[-0.051933633107276236,-0.12172038093537883]","[-1,-1,-1]","[-0.030567232961410968,-0.19471798468062043]","[-1,-1,-1]","[0.16285593717889527,0.10769515051820713]","[1,1,1]","[-0.10715210523488619,0.0701197733900247]","[-1,-1,-1]","[-0.17906267010008242,-0.08771222598108469]","[-1,-1,-1]","[-0.08369206395595305,0.15695300170057783]","[-1,-1,-1]","[-0.10641712390694735,-0.002911867181451944]","[-1,-1,-1]","[-0.11330238619121695,-0.11309291738438441]","[-1,-1,-1]","[-0.02612761921248104,-0.044416017382880785]","[-1,-1,-1]","[-0.05335654907666531,0.026132178686972055]","[-1,-1,-1]","[-0.005359491398225586,-0.12096104756447504]","[-1,-1,-1]","[0.012229555242696684,-0.18666867409675447]","[-1,-1,-1]","[0.07361225418966354,0.10788291007756287]","[-1,-1,-1]","[0.04262487282007894,0.1900348146242147]","[-1,-1,-1]","[0.025399689013027534,0.005417728873899695]","[-1,-1,-1]","[-0.04482831359805145,0.1866728824461296]","[-1,-1,-1]","[0.12357851475783445,0.1348684480835391]","[-1,-1,-1]","[-0.07751522757531668,-0.08860383333791304]","[-1,-1,-1]","[0.02,0.02]",370.9885,0,19,19,24,1,,,,,,,
,,,,,,,67fd2c413355380a310b424a,682db3985f919414b92ae683,2025-05-21_13h13.20.401,cuing_paradigm_dot,2024.1.5,Win32,60.24096386,682d556593cb38ad0a074487,,,,,,,,,,,370.989,371.489,,,371.7351,371.8491,right,,,,,,,,0.9,0.0985,,,,,,,371.489,371.735,371.8491,"[-0.0384278876150622,0.09374792777130989]","[1,1,1]","[0.14696493628569277,0.01931303818723225]","[1,1,1]","[0.049371186772877156,-0.07100473465929924]","[1,1,1]","[-0.15123581194174568,-0.016199393901982228]","[1,1,1]","[-0.041044663722160715,-0.19048439408836843]","[-1,-1,-1]","[-0.0013746834015353254,0.18030029443648754]","[1,1,1]","[-0.048528369898345074,0.021963393289776926]","[-1,-1,-1]","[-0.05679160979342126,-0.12487825803502169]","[1,1,1]","[0.0689162732372904,-0.030447655970153652]","[1,1,1]","[-0.14697660573758645,0.12184233916597535]","[1,1,1]","[0.05111712750390639,-0.17784666923528414]","[1,1,1]","[0.13988923375320308,-0.06377877490321503]","[1,1,1]","[0.19808187100443486,-0.02253387694935383]","[1,1,1]","[0.022642941115795623,0.057929525778644415]","[1,1,1]","[-0.10794031644234472,0.025468081201842744]","[1,1,1]","[-0.13111892888709678,-0.12333579116230962]","[-1,-1,-1]","[0.09282309496216767,-0.09009045614358871]","[1,1,1]","[0.12276809804543679,-0.13245755314907864]","[1,1,1]","[0.028208497682725583,0.13628530652276233]","[1,1,1]","[0.10850536747419919,0.06104896892699868]","[1,1,1]","[-0.012366339027587265,-0.08721141617361175]","[1,1,1]","[0.13006845850248894,0.11873314258517434]","[1,1,1]","[0.16339210847391689,0.0679652692424461]","[1,1,1]","[0.0934116856013889,0.012389252798805837]","[1,1,1]","[0.00643089481187895,-0.18593110457104928]","[1,1,1]","[-0.05378819086219709,-0.03293020074541975]","[1,1,1]","[-0.17436839356585676,0.019306661613985587]","[1,1,1]","[0.008844179737267598,0.009928073242877186]","[1,1,1]","[-0.08152782574415585,-0.07009783097493029]","[1,1,1]","[-0.06760238379665348,0.18005404459622815]","[1,1,1]","[-0.08530625336932066,-0.15484420862217146]","[1,1,1]","[-0.11927588888888847,0.06687798985181277]","[1,1,1]","[0.02,0.02]",372.9382,0,20,20,194,1,,,,,,,
,,,,,,,67fd2c413355380a310b424a,682db3985f919414b92ae683,2025-05-21_13h13.20.401,cuing_paradigm_dot,2024.1.5,Win32,60.24096386,682d556593cb38ad0a074487,,,,,,,,,,,372.9387,373.4323,,,373.672,373.8058,left,,,,,,,,0.4,0.1177,,,,,,,373.4324,373.672,373.8058,"[-0.03008790309560425,-0.0868754638370297]","[1,1,1]","[0.1061358189598712,-0.1064748608444669]","[1,1,1]","[0.16692747955981532,0.044612465583654545]","[1,1,1]","[-0.04997603472427699,-0.12876081697057531]","[1,1,1]","[-0.14410604321082582,-0.12668672449925678]","[-1,-1,-1]","[-0.055913597464007904,-0.18897978879381352]","[1,1,1]","[0.17562352931129627,-0.04838361194315665]","[1,1,1]","[0.006491802309360633,0.19613050460822876]","[-1,-1,-1]","[0.08274411525196664,0.07432416418561469]","[1,1,1]","[0.0890985645663529,0.15441448303728525]","[-1,-1,-1]","[0.015274221561720314,-0.14067046814729192]","[-1,-1,-1]","[0.1435175533602197,0.11018509911237175]","[1,1,1]","[-0.05353029255751367,0.10964679684383384]","[-1,-1,-1]","[-0.18509567458974532,-0.03814145080777842]","[-1,-1,-1]","[-0.11372620945894958,-0.053467215642504194]","[1,1,1]","[-0.02135244457058936,0.14339417326181106]","[-1,-1,-1]","[-0.14775317638218505,0.06779372009983695]","[-1,-1,-1]","[-0.07493791291224491,-0.01204999998606711]","[-1,-1,-1]","[0.0381502760209389,-0.016778925262888857]","[-1,-1,-1]","[0.05684425123779076,0.11692092584143864]","[-1,-1,-1]","[0.03568690797662054,0.05061738428615207]","[-1,-1,-1]","[0.1078577282384455,-0.01237382430543522]","[-1,-1,-1]","[-0.16607056678525578,-0.0847426352982681]","[-1,-1,-1]","[-0.012010059974651318,-0.006889500739811579]","[-1,-1,-1]","[0.047207753506554304,-0.10721103878071407]","[1,1,1]","[-0.10027434829797456,0.07884671944386541]","[-1,-1,-1]","[-0.019731094972457553,0.03870081320011957]","[1,1,1]","[-0.1157635639541723,0.15061734696136214]","[1,1,1]","[0.13191455545929726,-0.0638210922265387]","[1,1,1]","[0.0018146334380660539,0.10690839238816574]","[-1,-1,-1]","[-0.17018676753558726,0.013987547180143549]","[-1,-1,-1]","[0.07547332360480218,-0.1668335639608716]","[-1,-1,-1]","[0.02,0.02]",374.9,0,21,21,36,1,,,,,,,
,,,,,,,67fd2c413355380a310b424a,682db3985f919414b92ae683,2025-05-21_13h13.20.401,cuing_paradigm_dot,2024.1.5,Win32,60.24096386,682d556593cb38ad0a074487,,,,,,,,,,,374.9008,375.3988,,,375.6383,375.822,right,,,,,,,,0.45,0.1675,,,,,,,375.3988,375.6382,375.822,"[-0.12392252171747449,0.11305276516351868]","[1,1,1]","[0.17371823443880327,-0.04546438945729447]","[-1,-1,-1]","[-0.036273017258797335,-0.18852132295638227]","[1,1,1]","[-0.07249726433218447,-0.017205676739896147]","[-1,-1,-1]","[0.10907240846748684,0.059315324714532505]","[-1,-1,-1]","[-0.1195265138992254,0.01103593557553555]","[1,1,1]","[-0.17000907050282654,-0.04473668117795436]","[-1,-1,-1]","[-0.1222391221658079,-0.0885670271487563]","[1,1,1]","[0.09049554149627634,-0.12445856979226799]","[-1,-1,-1]","[-0.0396183294993249,0.04475266756474236]","[-1,-1,-1]","[0.13918585884192275,0.1260087426619345]","[1,1,1]","[0.003764761082036537,0.0668857574304531]","[1,1,1]","[0.018785727006105087,-0.17290987929735993]","[-1,-1,-1]","[-0.1952927175749419,-0.009747159443123168]","[1,1,1]","[0.0233393166884513,-0.0784523732732941]","[1,1,1]","[0.17400797952977423,0.012251554990385998]","[1,1,1]","[0.04732480532676202,0.15293309278779552]","[-1,-1,-1]","[-0.025199740157987417,-0.12278292304567448]","[-1,-1,-1]","[-0.18722002427217405,0.062620786290402]","[1,1,1]","[0.055423426807951946,-0.18958695061373249]","[1,1,1]","[-0.09946212145824634,-0.12515481193255565]","[-1,-1,-1]","[-0.07739330188538705,0.029728860002885563]","[-1,-1,-1]","[-0.09733836053305683,0.15015989711264693]","[-1,-1,-1]","[-0.02046614093529757,-0.026201628655240776]","[1,1,1]","[0.029301272107069357,0.1017892941680291]","[-1,-1,-1]","[-0.015202470331493695,0.1375861133295989]","[1,1,1]","[0.06466079649586527,-0.044380782314636415]","[-1,-1,-1]","[0.16393812450587392,0.09065549954729905]","[-1,-1,-1]","[0.11189545655181145,-0.003847414761560214]","[-1,-1,-1]","[-0.1326874120079457,0.06408145621279761]","[-1,-1,-1]","[-0.08617543308678437,-0.17309616263212452]","[1,1,1]","[-0.05282839064031946,-0.05766904286251873]","[-1,-1,-1]","[0.02,0.02]",376.9216,0,22,22,76,1,,,,,,,
,,,,,,,67fd2c413355380a310b424a,682db3985f919414b92ae683,2025-05-21_13h13.20.401,cuing_paradigm_dot,2024.1.5,Win32,60.24096386,682d556593cb38ad0a074487,,,,,,,,,,,376.9222,377.4202,,,377.6709,377.6988,left,,,,,,,,0.5,0.0072,,,,,,,377.4202,377.6708,377.6989,"[0.044210495291469726,0.11164462715437252]","[-1,-1,-1]","[0.1827431326047874,-0.0025396317858485495]","[1,1,1]","[-0.06559787358935411,-0.02972360097878978]","[-1,-1,-1]","[0.186579080879967,-0.0490651734845458]","[1,1,1]","[0.016574431788825537,-0.18741513856909103]","[-1,-1,-1]","[-0.077676239140487,0.06827925543989938]","[-1,-1,-1]","[0.048319314583777404,0.17851730952381056]","[1,1,1]","[0.11345899987801394,-0.15794362509228316]","[1,1,1]","[-0.04231024265113916,-0.17980837377376196]","[1,1,1]","[-0.012469244145953698,0.12991693370960067]","[-1,-1,-1]","[0.1114703894514279,-0.05864296829891604]","[-1,-1,-1]","[0.027871764776152455,0.015434538175117514]","[1,1,1]","[0.15181207116466752,0.09506149410487229]","[-1,-1,-1]","[-0.14280270472470927,0.11036973635339402]","[-1,-1,-1]","[-0.1428220594746757,-0.004787733881678972]","[-1,-1,-1]","[0.029563196024799326,-0.027285673392912855]","[1,1,1]","[0.12787265938508985,0.039150211402932705]","[-1,-1,-1]","[-0.0841744185160965,-0.17839079394827503]","[1,1,1]","[-0.006019784478905449,0.18308210643195108]","[-1,-1,-1]","[0.07022113963871845,-0.04137572735450426]","[1,1,1]","[0.11310331550943019,0.16036536169863133]","[1,1,1]","[-0.07375266771483249,0.1738737071247873]","[1,1,1]","[0.05068911748892728,-0.12709056437664162]","[1,1,1]","[-0.012769373629824044,0.033671669594058797]","[1,1,1]","[0.09693992600550537,0.010140242394680707]","[-1,-1,-1]","[0.1336809303833921,-0.10101537246199244]","[-1,-1,-1]","[-0.15395704951994657,0.05291560269904044]","[1,1,1]","[-0.17045313727909242,-0.08354196174783429]","[-1,-1,-1]","[-0.08824383570217263,0.11303098227112196]","[-1,-1,-1]","[-0.010467337692270293,-0.14930263892472354]","[1,1,1]","[-0.060964313811977026,-0.12093964417162016]","[-1,-1,-1]","[0.0892569686207622,0.0592046472613968]","[1,1,1]","[0.02,0.02]",378.7978,0,23,23,95,1,,,,,,,
,,,,,,,67fd2c413355380a310b424a,682db3985f919414b92ae683,2025-05-21_13h13.20.401,cuing_paradigm_dot,2024.1.5,Win32,60.24096386,682d556593cb38ad0a074487,,,,,,,,,,,378.7986,379.2867,,,379.5358,379.6821,right,,,,,,,,0.6,0.126,,,,,,,379.2869,379.5357,379.6821,"[-0.0933974860897833,0.04831021449769346]","[1,1,1]","[0.16116783597435153,-0.08319953410711939]","[-1,-1,-1]","[-0.10083692777928482,-0.008365530011992223]","[1,1,1]","[0.06316273724637682,0.1517163635631384]","[1,1,1]","[-0.07202720642692727,-0.15126271960770402]","[1,1,1]","[0.10623353864510722,0.047057334619418974]","[1,1,1]","[-0.16835856903119645,-0.0037899006115727574]","[-1,-1,-1]","[0.06008940700737766,-0.0125851175536305]","[1,1,1]","[0.11990625826237633,0.1308035496652008]","[1,1,1]","[0.1583322673949816,0.06690003991680396]","[1,1,1]","[-0.179629750614576,0.05768329913704498]","[1,1,1]","[-0.024823941879720455,-0.15616785243931267]","[-1,-1,-1]","[0.07428356950682584,-0.1459194345613072]","[1,1,1]","[0.10955728179071834,-0.03530796743622368]","[1,1,1]","[-0.022164846365974048,0.018289413282384932]","[1,1,1]","[0.0166682232679115,0.11185772368188036]","[1,1,1]","[-0.12566707149202078,-0.048105382461214825]","[-1,-1,-1]","[-0.11519940180400405,0.09327414170182682]","[-1,-1,-1]","[0.062322930776519236,0.03509917756242278]","[-1,-1,-1]","[0.02449424017319825,0.016816511065200445]","[-1,-1,-1]","[-0.1678415862539394,-0.052200453444693685]","[-1,-1,-1]","[-0.13613295757841828,-0.10671459451069586]","[1,1,1]","[0.013543079118997008,-0.09899441346175453]","[1,1,1]","[0.024931787581368485,-0.18302318996481404]","[-1,-1,-1]","[0.023706705085493593,-0.030044860991174697]","[-1,-1,-1]","[-0.025281546741402337,0.08055184955100633]","[-1,-1,-1]","[-0.03907239301789315,0.12878689807288482]","[1,1,1]","[-0.06559951503191734,0.186841910741062]","[1,1,1]","[0.01028455183911781,0.18783733966196736]","[1,1,1]","[0.12668232640189073,-0.11697441704524063]","[-1,-1,-1]","[0.05319395951672125,-0.08506881273271663]","[1,1,1]","[0.08403276497484384,0.08235493782109163]","[-1,-1,-1]","[0.02,0.02]",380.7851,0,24,24,158,1,,,,,,,
,,,,,,,67fd2c413355380a310b424a,682db3985f919414b92ae683,2025-05-21_13h13.20.401,cuing_paradigm_dot,2024.1.5,Win32,60.24096386,682d556593cb38ad0a074487,,,,,,,,,,,380.7858,381.2738,,,381.5224,381.781,left,,,,,,,,0.5,0.2437,,,,,,,381.2739,381.5224,381.7811,"[-0.06536882214479206,0.002674338225566955]","[1,1,1]","[-0.16855715787842118,0.10217770138282503]","[-1,-1,-1]","[0.012997376005444459,-0.0707866744426975]","[1,1,1]","[-0.004127263629791752,0.17599077464536508]","[1,1,1]","[0.023894460867894263,-0.1965568825316146]","[-1,-1,-1]","[-0.08942416233565147,-0.1739927634640798]","[1,1,1]","[-0.15629413138607468,-0.12382897306640729]","[-1,-1,-1]","[-0.14782236583492997,-0.023620913561966963]","[-1,-1,-1]","[-0.046336300148705316,-0.12029709752500183]","[1,1,1]","[-0.10315891757894063,0.12103501332563364]","[1,1,1]","[0.10971108163888763,-0.030698029544479206]","[-1,-1,-1]","[-0.02109073826532794,0.05103301778062648]","[1,1,1]","[0.11795002803871696,0.06642913223406562]","[-1,-1,-1]","[0.110934966904079,-0.14385491579316592]","[-1,-1,-1]","[0.06815773716362228,0.04156498053181322]","[-1,-1,-1]","[0.18676156391166793,0.046965267976518676]","[-1,-1,-1]","[0.16316188467498707,-0.11321399615255712]","[-1,-1,-1]","[0.026525776333815507,0.01293711463850183]","[-1,-1,-1]","[0.08260278699575639,0.16322066680015798]","[-1,-1,-1]","[0.0707699668005648,-0.07217779977166251]","[-1,-1,-1]","[-0.09872550116096165,-0.041707792498939855]","[1,1,1]","[0.14216305315431135,0.10541783328225991]","[1,1,1]","[0.1377144977488182,-0.07250954858641227]","[-1,-1,-1]","[0.15561848170319212,0.02005649771295925]","[-1,-1,-1]","[-0.1878776951370905,0.03460273706340588]","[1,1,1]","[0.05486659682224262,0.11825305985613087]","[1,1,1]","[0.03053427222976343,0.07304176544475151]","[-1,-1,-1]","[0.18740508284801774,-0.0626432456229811]","[1,1,1]","[0.06140736140584302,-0.11917180887369094]","[1,1,1]","[-0.05485864851701122,0.11273653574942144]","[1,1,1]","[-0.0788066337589869,0.07732546097633423]","[1,1,1]","[-0.0433048496497582,0.19207097887003707]","[1,1,1]","[0.02,0.02]",382.8884,0,25,25,116,1,,,,,,,
,,,,,,,67fd2c413355380a310b424a,682db3985f919414b92ae683,2025-05-21_13h13.20.401,cuing_paradigm_dot,2024.1.5,Win32,60.24096386,682d556593cb38ad0a074487,,,,,,,,,,,382.8888,383.3805,,,383.6403,383.9533,left,,,,,,,,0.45,0.3006,,,,,,,383.3806,383.6403,383.9534,"[-0.14704350096203733,-0.09507433674011011]","[-1,-1,-1]","[0.10306484198143107,-0.10476857136610446]","[1,1,1]","[0.15807780047801792,0.0001279044662879351]","[1,1,1]","[0.039760938376772276,-0.18023337012810942]","[-1,-1,-1]","[0.007597447716039119,0.058941351805016536]","[1,1,1]","[0.13873703378595903,0.14192045651146007]","[1,1,1]","[-0.06615364062775146,-0.16816740200926547]","[1,1,1]","[-0.08125964495696932,0.18255535737217554]","[-1,-1,-1]","[0.027490867864561196,-0.055398640345605106]","[-1,-1,-1]","[-0.019115824625295246,0.17055131368108795]","[-1,-1,-1]","[-0.19480787442582573,-0.011891038088539887]","[-1,-1,-1]","[-0.021674874817297664,0.09265830836741853]","[-1,-1,-1]","[0.07476515109391459,-0.15289978170614277]","[-1,-1,-1]","[0.17393714706041344,-0.057583509001833504]","[1,1,1]","[-0.09550085658591499,-0.11947775154105764]","[1,1,1]","[0.0827264372549075,0.1428864018520545]","[1,1,1]","[0.03541688069992699,0.1433588703946775]","[-1,-1,-1]","[-0.05963904249647019,-0.0982230036889068]","[1,1,1]","[-0.11683913484883136,0.08598669904772188]","[-1,-1,-1]","[-0.04471986394363858,0.1303845025300235]","[1,1,1]","[0.041021465869348336,0.09140541448050732]","[1,1,1]","[0.1189036254468304,0.09369465135585933]","[-1,-1,-1]","[-0.16992328378121144,0.10412654716161285]","[-1,-1,-1]","[0.08645792467165324,-0.06576308480997986]","[-1,-1,-1]","[-0.1751473056574183,-0.04964615758745941]","[-1,-1,-1]","[-0.025934363903960058,-0.06655207396585863]","[-1,-1,-1]","[-0.12093448003878017,-0.047850319384562606]","[1,1,1]","[0.088738148577108,0.009701153725980984]","[1,1,1]","[0.10774274441997829,0.04493379766151748]","[-1,-1,-1]","[-0.0324370315082264,0.0032987240379634755]","[-1,-1,-1]","[-0.07335892478913612,0.06849755240101492]","[-1,-1,-1]","[-0.16731643748871775,0.05445407716887101]","[1,1,1]","[0.02,0.02]",385.0524,0,26,26,79,1,,,,,,,
,,,,,,,67fd2c413355380a310b424a,682db3985f919414b92ae683,2025-05-21_13h13.20.401,cuing_paradigm_dot,2024.1.5,Win32,60.24096386,682d556593cb38ad0a074487,,,,,,,,,,,385.053,385.5498,,,385.8028,385.9802,right,,,,,,,,0.9,0.1543,,,,,,,385.5498,385.8027,385.9802,"[0.07770558701053247,0.07997289066150451]","[1,1,1]","[-0.11393531498226207,-0.013698274797121575]","[1,1,1]","[-0.08899480977781721,-0.0915659851133987]","[-1,-1,-1]","[-0.18119174208719732,-0.016975659788094923]","[-1,-1,-1]","[0.052267216754861304,-0.14176520688971328]","[1,1,1]","[0.1044689244723406,-0.07134688588674844]","[1,1,1]","[-0.04760168817369105,0.12353254938459829]","[1,1,1]","[0.1645764413388031,0.09655333508835671]","[1,1,1]","[0.14327216549893002,0.010074456222561945]","[1,1,1]","[-0.10218848796951172,0.15184755633616934]","[1,1,1]","[0.012065703798813053,0.1265231802615945]","[1,1,1]","[0.06294448421888776,-0.06293921046847964]","[1,1,1]","[0.014724838098293542,0.000020790737097985803]","[1,1,1]","[0.09413927808247056,0.1412435348861592]","[1,1,1]","[0.15693612093285272,-0.08034067142917024]","[1,1,1]","[-0.11838162788021521,-0.14821612330651066]","[-1,-1,-1]","[-0.08729793862371063,-0.04357759649866619]","[1,1,1]","[-0.015932160750544815,0.09610791054252474]","[1,1,1]","[-0.12805180488265724,-0.063142537523878]","[1,1,1]","[0.09343990383415714,-0.03122987928549066]","[1,1,1]","[-0.09480876247191818,0.07673450188516676]","[1,1,1]","[0.033102051767588014,-0.19324470147379202]","[1,1,1]","[0.05913981827139535,0.010806560466768532]","[1,1,1]","[-0.04975940758231406,-0.10504289847454999]","[1,1,1]","[-0.008684006243652082,0.18826136199673313]","[1,1,1]","[-0.08100315076242447,-0.16533586715090004]","[1,1,1]","[0.13592830147308002,0.12816035945163662]","[1,1,1]","[-0.05580468621877883,0.021067230955666733]","[1,1,1]","[-0.1745711909791432,0.027256435418398017]","[1,1,1]","[-0.017672637775669884,-0.15717423823076954]","[1,1,1]","[0.12632359555620992,-0.12097993718260576]","[1,1,1]","[0.10322249904949835,0.028840918462160747]","[1,1,1]","[0.02,0.02]",387.0854,0,27,27,182,1,,,,,,,
,,,,,,,67fd2c413355380a310b424a,682db3985f919414b92ae683,2025-05-21_13h13.20.401,cuing_paradigm_dot,2024.1.5,Win32,60.24096386,682d556593cb38ad0a074487,,,,,,,,,,,387.0859,387.5855,,,387.8344,388.1539,right,,,,,,,,0.4,0.3016,,,,,,,387.5855,387.8344,388.154,"[-0.1138535022197748,0.057352905466825754]","[-1,-1,-1]","[0.16865940506791025,-0.10301057594166878]","[-1,-1,-1]","[-0.03691349790982926,-0.10760531215892612]","[-1,-1,-1]","[0.025161230246204116,0.14386241226566504]","[1,1,1]","[-0.046025188862968996,-0.047385031715567155]","[1,1,1]","[0.05487253951161574,0.09296243127785303]","[-1,-1,-1]","[-0.05209611350058586,0.006117886353674789]","[1,1,1]","[-0.06572578476066837,0.15902717779136705]","[-1,-1,-1]","[-0.1883585234762856,0.04871429085130136]","[-1,-1,-1]","[-0.11082495219501944,0.1062337374394926]","[1,1,1]","[-0.1088646084667354,-0.05279155965468022]","[1,1,1]","[-0.03229318430145447,-0.19467082144637596]","[-1,-1,-1]","[0.09848888045869303,-0.06530623134869011]","[-1,-1,-1]","[0.12580155175834834,-0.1180552775134478]","[-1,-1,-1]","[-0.08356779185320669,-0.02109764203013519]","[1,1,1]","[-0.18268345750785914,-0.05486549473606219]","[1,1,1]","[0.047502919480192085,-0.15360015134566601]","[-1,-1,-1]","[0.1596367889753576,0.008191690497819695]","[-1,-1,-1]","[0.13379517818443135,-0.028967603305553934]","[-1,-1,-1]","[0.02270823655012218,-0.0006584919057168525]","[-1,-1,-1]","[-0.050581870709630404,-0.14683643708224275]","[-1,-1,-1]","[0.08175643774009599,0.04505201443750014]","[-1,-1,-1]","[0.18762958898081783,0.050883122178233285]","[-1,-1,-1]","[-0.15208342466515962,-0.1267165757300443]","[-1,-1,-1]","[-0.05321960074746936,0.0628309157884909]","[-1,-1,-1]","[0.009487033053970872,-0.07983944100481336]","[1,1,1]","[-0.010752067647433318,0.04688905005295903]","[1,1,1]","[0.0441937874150686,-0.03721372745147741]","[-1,-1,-1]","[0.07400991308174004,-0.006326096643234263]","[1,1,1]","[0.01685756533763069,-0.1882812612598093]","[1,1,1]","[-0.140136327636937,-0.009104294599029587]","[1,1,1]","[0.14052411271592674,0.11623344262955988]","[1,1,1]","[0.02,0.02]",389.2513,0,28,28,50,1,,,,,,,
,,,,,,,67fd2c413355380a310b424a,682db3985f919414b92ae683,2025-05-21_13h13.20.401,cuing_paradigm_dot,2024.1.5,Win32,60.24096386,682d556593cb38ad0a074487,,,,,,,,,,,389.252,389.7484,,,390.0037,390.3623,left,,,,,,,,0.45,0.3404,,,,,,,389.7484,390.0037,390.3624,"[0.07095782430627984,0.117678659856237]","[-1,-1,-1]","[0.08479384226394403,0.06803910468499923]","[-1,-1,-1]","[0.045283660329513475,-0.03350223822398956]","[-1,-1,-1]","[0.06913764640256365,-0.0989517117112788]","[-1,-1,-1]","[-0.0030485861509540104,-0.005394769678860239]","[-1,-1,-1]","[-0.016388116612871668,-0.14162880046500287]","[1,1,1]","[-0.19114143382308563,-0.014061988119877812]","[1,1,1]","[-0.11556749920262094,-0.013612305562438856]","[-1,-1,-1]","[-0.06793603536294748,0.050696735561891165]","[-1,-1,-1]","[0.18582381594274927,0.01027640029682331]","[-1,-1,-1]","[-0.1561351132869297,-0.07385759769571036]","[-1,-1,-1]","[-0.09492185602813906,0.08662574595744027]","[1,1,1]","[-0.07512237406547106,-0.03291381036100851]","[-1,-1,-1]","[0.09210797547217953,-0.029979205774475538]","[-1,-1,-1]","[0.07520411545383314,0.1743906549880934]","[1,1,1]","[-0.11167032803490541,0.1414880252839678]","[-1,-1,-1]","[0.023503270295203466,-0.1542882928155001]","[-1,-1,-1]","[0.14122823500245868,0.07631363921593408]","[-1,-1,-1]","[0.060692707192878,0.015271234463859544]","[1,1,1]","[-0.11501437393332391,-0.15931607833244893]","[-1,-1,-1]","[0.14318058030465447,-0.12434559997937392]","[1,1,1]","[-0.1224318615009818,0.05656546896038452]","[1,1,1]","[-0.07626881991429808,-0.1179713802993877]","[-1,-1,-1]","[0.0049570902940804734,0.13808057455204392]","[-1,-1,-1]","[-0.15975883374485775,0.09177803107333857]","[1,1,1]","[0.11816244741359279,0.1531014207457897]","[1,1,1]","[0.027067900998949648,0.03887116387989028]","[1,1,1]","[0.19098619059046665,0.053753826962854794]","[1,1,1]","[0.09512353206267951,-0.14608652144994932]","[1,1,1]","[0.18333498321192787,-0.06813072078615146]","[1,1,1]","[0.029019016087380722,-0.10507631947249556]","[1,1,1]","[0.11732818704319502,-0.0775409925351172]","[-1,-1,-1]","[0.02,0.02]",391.4646,0,29,29,78,1,,,,,,,
,,,,,,,67fd2c413355380a310b424a,682db3985f919414b92ae683,2025-05-21_13h13.20.401,cuing_paradigm_dot,2024.1.5,Win32,60.24096386,682d556593cb38ad0a074487,,,,,,,,,,,391.4653,391.9676,,,392.2167,392.4811,right,,,,,,,,0.5,0.2471,,,,,,,391.9676,392.2167,392.4811,"[-0.18556825100274033,-0.055205921392854546]","[1,1,1]","[0.19164454932277283,-0.010939810929006913]","[1,1,1]","[-0.05512821259381476,0.0054980560713866365]","[-1,-1,-1]","[0.13853504564498928,0.07769999425087759]","[1,1,1]","[0.07206074565580556,0.05468478298367325]","[-1,-1,-1]","[0.026804982110032047,0.1635363857619681]","[1,1,1]","[0.02072278433451447,-0.12270075806337934]","[1,1,1]","[-0.175330685050733,0.08593816578152477]","[1,1,1]","[0.15743758590920046,0.032307606369314214]","[-1,-1,-1]","[0.18199819213138066,-0.06877559159002954]","[1,1,1]","[0.037107390779487257,-0.07570441575693802]","[1,1,1]","[-0.09595595907023556,-0.10040537566571148]","[-1,-1,-1]","[0.13422804383669198,-0.04419534465663265]","[1,1,1]","[-0.15003923781297643,-0.11339252093872056]","[-1,-1,-1]","[-0.010137800850104758,-0.07608456797413528]","[-1,-1,-1]","[0.10910503369923738,0.11422397326724996]","[-1,-1,-1]","[-0.0860653751752251,-0.04475597798090948]","[-1,-1,-1]","[-0.06460052156041855,0.06525962665321691]","[-1,-1,-1]","[-0.031595220531013817,-0.11781649513044837]","[-1,-1,-1]","[0.07979873791670766,-0.17566539533856898]","[1,1,1]","[-0.12689680586977448,-0.0738318544477877]","[1,1,1]","[-0.13615393148884736,0.05474219211002484]","[1,1,1]","[-0.06799819155133092,-0.1790421721064172]","[1,1,1]","[0.14280732631000873,-0.12903421405705415]","[-1,-1,-1]","[0.0009327340167405377,-0.02477194718042574]","[1,1,1]","[0.0949135001237867,0.16331275424862168]","[1,1,1]","[0.10781262112624088,-0.07587543139185511]","[-1,-1,-1]","[0.0005760231743251207,0.12138087616437816]","[1,1,1]","[0.02540872011113154,-0.16589450416449525]","[-1,-1,-1]","[-0.016862800482514276,-0.19658988113605644]","[-1,-1,-1]","[0.11240090131065573,0.0002085894822867106]","[-1,-1,-1]","[0.041527727159336336,-0.007047263061208485]","[-1,-1,-1]","[0.02,0.02]",393.5781,0,30,30,93,1,,,,,,,
,,,,,,,67fd2c413355380a310b424a,682db3985f919414b92ae683,2025-05-21_13h13.20.401,cuing_paradigm_dot,2024.1.5,Win32,60.24096386,682d556593cb38ad0a074487,,,,,,,,,,,393.5787,394.0668,,,394.3161,394.6855,left,,,,,,,,0.55,0.3517,,,,,,,394.0668,394.316,394.6855,"[-0.02923857724484671,0.09696327365271235]","[1,1,1]","[-0.16772784109864122,-0.06929830885298496]","[1,1,1]","[-0.11382993291868201,0.054976314136817105]","[-1,-1,-1]","[0.14174156231994112,-0.026369771515283292]","[1,1,1]","[0.02565157217264889,0.07244261087075025]","[1,1,1]","[-0.03367950551214432,-0.08167692527960554]","[-1,-1,-1]","[-0.14289693956798183,0.0878903068996683]","[-1,-1,-1]","[-0.07519902228527924,0.09256943337420588]","[1,1,1]","[0.0646570805723693,0.0009709912311113249]","[1,1,1]","[0.033869688786330024,-0.12289169900529691]","[-1,-1,-1]","[-0.1627001271825964,0.0530064564798789]","[-1,-1,-1]","[-0.1456055452869284,0.008722335304903092]","[-1,-1,-1]","[0.05346367884577264,-0.07408580476757158]","[1,1,1]","[-0.05343759856765025,0.015928772642467434]","[-1,-1,-1]","[0.10576755249096494,0.10424435617446101]","[1,1,1]","[0.020525576968177812,0.1668304816094032]","[1,1,1]","[0.13143718003235993,-0.1331238926624841]","[1,1,1]","[-0.04920832519706011,-0.14113493072275932]","[-1,-1,-1]","[-0.10877036340040591,-0.04733430557994644]","[1,1,1]","[0.11534280005630114,0.1434355290726793]","[1,1,1]","[0.08997465834859972,-0.12758646019924916]","[-1,-1,-1]","[-0.07814056819518689,0.1560987781149668]","[-1,-1,-1]","[0.08528113664918828,0.06534698141692151]","[-1,-1,-1]","[-0.0117224703724904,-0.029627572080893012]","[1,1,1]","[0.05125340700889616,0.10732521585343827]","[1,1,1]","[-0.03055006311596896,0.19303044058077398]","[1,1,1]","[0.1950811576942788,0.02849800934668689]","[1,1,1]","[0.028094131639563286,-0.17754849877474038]","[-1,-1,-1]","[-0.12808427460913105,-0.15321750322887376]","[-1,-1,-1]","[-0.03817639279043236,-0.18588290379898373]","[-1,-1,-1]","[-0.013004552523691617,0.04911166999538496]","[1,1,1]","[-0.14206587371416007,-0.10607713982021391]","[1,1,1]","[0.02,0.02]",395.7777,0,31,31,134,1,,,,,,,
,,,,,,,67fd2c413355380a310b424a,682db3985f919414b92ae683,2025-05-21_13h13.20.401,cuing_paradigm_dot,2024.1.5,Win32,60.24096386,682d556593cb38ad0a074487,,,,,,,,,,,395.7785,396.2667,,,396.5153,396.6337,left,,,,,,,,0.55,0.0998,,,,,,,396.2667,396.5153,396.6337,"[-0.06569965640240377,-0.06259072624333596]","[1,1,1]","[-0.0829971580901192,0.13185244961653167]","[1,1,1]","[-0.003154218481310656,-0.0430144631316583]","[-1,-1,-1]","[0.02360894519507039,0.17077048077243892]","[1,1,1]","[0.15020703131138752,-0.11070579899169763]","[-1,-1,-1]","[0.12015625738867407,0.059645292689362854]","[1,1,1]","[-0.1281402432116121,-0.10031366203560702]","[1,1,1]","[-0.01477813847013352,0.00820277363295202]","[-1,-1,-1]","[0.1243733219911109,0.009338728530374821]","[-1,-1,-1]","[-0.056555602882939114,-0.022206739527977894]","[-1,-1,-1]","[-0.008442540975389417,-0.19547586750590318]","[1,1,1]","[-0.1428166562398945,0.10458099943318896]","[1,1,1]","[0.02477999801791737,0.05362126124376629]","[1,1,1]","[0.04776364445719457,0.12631179803684792]","[1,1,1]","[0.17718317721566462,0.053314150791224764]","[1,1,1]","[-0.005885702232280273,-0.13907837317513244]","[-1,-1,-1]","[0.09968433981944283,0.12580227273051586]","[1,1,1]","[0.16487465204336255,-0.016157617037914088]","[1,1,1]","[-0.10367791180043545,0.04601277713457037]","[1,1,1]","[-0.03609214273986796,0.06860433428064441]","[1,1,1]","[0.07303565641618075,0.06153182407017866]","[1,1,1]","[-0.176406863711902,0.05698166791164773]","[-1,-1,-1]","[-0.16963799388877013,-0.012219620146649015]","[1,1,1]","[-0.04100317962572439,0.1194869139953764]","[1,1,1]","[0.06309434825023161,0.015479531900633742]","[-1,-1,-1]","[-0.06372890229360266,-0.11505509904870953]","[-1,-1,-1]","[-0.10277770076314102,-0.1641078587365598]","[1,1,1]","[0.0825074572115399,-0.12092285617106942]","[-1,-1,-1]","[-0.08581269771050314,0.08232051755361783]","[-1,-1,-1]","[0.13674349827545518,-0.06634746280634332]","[-1,-1,-1]","[0.09486222526391297,0.17319431883917055]","[-1,-1,-1]","[-0.18980098643625412,-0.06108481931816122]","[-1,-1,-1]","[0.02,0.02]",397.7319,0,32,32,139,1,,,,,,,
,,,,,,,67fd2c413355380a310b424a,682db3985f919414b92ae683,2025-05-21_13h13.20.401,cuing_paradigm_dot,2024.1.5,Win32,60.24096386,682d556593cb38ad0a074487,,,,,,,,,,,397.7324,398.2276,,,398.4823,398.7168,left,,,,,,,,0.45,0.2173,,,,,,,398.2277,398.4823,398.7168,"[-0.09403896684962004,-0.15675285914479364]","[1,1,1]","[0.14545918351934678,-0.054322830706721295]","[1,1,1]","[0.12236869644561936,-0.0018442264906987026]","[-1,-1,-1]","[-0.04589749734871797,0.02940813841094492]","[1,1,1]","[0.0058279003399925285,0.19774872980986516]","[-1,-1,-1]","[0.01821586445378088,-0.0212117082991733]","[-1,-1,-1]","[-0.11567742077109448,0.028901853854267745]","[-1,-1,-1]","[-0.04759234343819554,-0.1100492995474379]","[1,1,1]","[0.0010284062428600148,0.08329110701807893]","[1,1,1]","[-0.10803029920782088,-0.08700167891250986]","[-1,-1,-1]","[-0.043152090422946585,-0.022804004901479765]","[-1,-1,-1]","[-0.15170733142110038,-0.04469472317208848]","[1,1,1]","[-0.17472256005525558,0.08061060035798613]","[-1,-1,-1]","[0.09751867610927815,-0.07349585261792856]","[1,1,1]","[0.11918238111875007,0.059960214799443974]","[1,1,1]","[0.05145197754505085,-0.11790880586729927]","[-1,-1,-1]","[-0.0017760263397734882,-0.09821907721686776]","[1,1,1]","[0.06862452708824264,0.03985844482584565]","[-1,-1,-1]","[0.00643696858032581,-0.1827261494385874]","[-1,-1,-1]","[-0.051999783034626205,0.12115112746782103]","[-1,-1,-1]","[0.014089796330866157,0.14043637822792646]","[-1,-1,-1]","[-0.13460091452060877,0.07755407871003106]","[-1,-1,-1]","[0.17494457313653994,0.0020496502059432083]","[-1,-1,-1]","[0.18330112219242828,0.05316183064393408]","[-1,-1,-1]","[0.10413300206047933,-0.13718107530978615]","[1,1,1]","[0.058302018696116016,0.1673513935422047]","[-1,-1,-1]","[0.1465051211923112,0.10500779171242701]","[1,1,1]","[-0.10386347661663625,0.151851100808138]","[-1,-1,-1]","[0.07238105658034366,0.12124314330471338]","[1,1,1]","[-0.08301523901469643,-0.012219700007161225]","[1,1,1]","[-0.16172001477576242,-0.08529322042252925]","[-1,-1,-1]","[-0.09494947949292908,0.10911617849349109]","[1,1,1]","[0.02,0.02]",399.8099,0,33,33,77,1,,,,,,,
,,,,,,,67fd2c413355380a310b424a,682db3985f919414b92ae683,2025-05-21_13h13.20.401,cuing_paradigm_dot,2024.1.5,Win32,60.24096386,682d556593cb38ad0a074487,,,,,,,,,,,399.8103,400.3099,,,400.549,401.0266,right,,,,,,,,0.5,0.4506,,,,,,,400.3099,400.5489,401.0268,"[0.0074073742161428185,0.010443789013562318]","[-1,-1,-1]","[-0.029528827370256742,0.1093570355818178]","[-1,-1,-1]","[-0.12215790344393203,-0.04295893817664546]","[1,1,1]","[0.1798152440959167,-0.07188216640944241]","[-1,-1,-1]","[-0.06453301581977104,-0.007052589561881448]","[-1,-1,-1]","[-0.008981383221250867,0.14638654550463026]","[1,1,1]","[-0.1179302608237873,-0.15706600522760708]","[-1,-1,-1]","[-0.13056694092746485,0.13532123373884508]","[-1,-1,-1]","[0.04744951028294279,-0.11687718105052226]","[1,1,1]","[-0.00035370452590636613,-0.1238142758515563]","[-1,-1,-1]","[0.13852310696401618,0.11260403526991505]","[1,1,1]","[0.0001693396709463664,-0.03325283694542366]","[1,1,1]","[0.08417718351514036,0.14015180584020343]","[-1,-1,-1]","[-0.15959985779335953,-0.0676075302172896]","[1,1,1]","[0.04986327592240478,0.17447749064633442]","[-1,-1,-1]","[0.14266227753923041,-0.050449249473319684]","[-1,-1,-1]","[-0.014850774581960864,0.062102377999778864]","[-1,-1,-1]","[0.0933199895665132,0.0016345564371052172]","[-1,-1,-1]","[0.14675264796098098,0.025524076545321316]","[1,1,1]","[0.08913423413668016,-0.05124656184892296]","[-1,-1,-1]","[-0.07615754423102822,-0.1579165369958797]","[-1,-1,-1]","[0.11121408482252476,-0.1571516469616663]","[1,1,1]","[0.04602351349591624,0.06479258121699658]","[1,1,1]","[-0.04084352984602373,0.02712968925709884]","[1,1,1]","[-0.03660178012058412,-0.0796741664311836]","[-1,-1,-1]","[-0.08904982955944028,0.1063932690259957]","[1,1,1]","[-0.17320990169279346,0.029981554352384587]","[1,1,1]","[0.09678142297351924,-0.11289344401684567]","[1,1,1]","[0.15980766220279496,0.06917535007214354]","[1,1,1]","[-0.16383952968153084,0.0867398024290372]","[1,1,1]","[-0.14831704063795112,-0.009645963224888246]","[1,1,1]","[-0.10934265984980163,-0.11230032530833316]","[-1,-1,-1]","[0.02,0.02]",402.1263,0,34,34,113,1,,,,,,,
,,,,,,,67fd2c413355380a310b424a,682db3985f919414b92ae683,2025-05-21_13h13.20.401,cuing_paradigm_dot,2024.1.5,Win32,60.24096386,682d556593cb38ad0a074487,,,,,,,,,,,402.1267,402.6261,,,402.8765,403.0262,left,,,,,,,,0.5,0.1171,,,,,,,402.6262,402.8764,403.0263,"[-0.18982377208483978,-0.05897847061652138]","[-1,-1,-1]","[0.03624407777464272,-0.004753475178257257]","[-1,-1,-1]","[0.17934745879235595,-0.07326016839478551]","[-1,-1,-1]","[-0.08630945460947603,0.13017602971841916]","[-1,-1,-1]","[-0.1289135229381013,0.12203934706200978]","[1,1,1]","[-0.06687132946043073,-0.010013119763401109]","[1,1,1]","[-0.07268222605569441,-0.11183150515305804]","[1,1,1]","[-0.16413683779195462,0.044075914354092]","[-1,-1,-1]","[0.12188678186276669,-0.08688281730235306]","[1,1,1]","[0.008934217360961212,0.0536972056997129]","[1,1,1]","[-0.04527985421034918,0.19357522108181915]","[-1,-1,-1]","[0.04489624107682799,-0.11272016312100847]","[-1,-1,-1]","[-0.003833219849433973,-0.09310175729384694]","[-1,-1,-1]","[-0.14230503109296389,-0.09504331612528874]","[1,1,1]","[0.15072672748179508,-0.02126488387578558]","[-1,-1,-1]","[-0.048892181956781265,0.0971100065955496]","[-1,-1,-1]","[0.16676861078028188,0.07744611470377305]","[-1,-1,-1]","[-0.15493487665141575,0.08524636839241771]","[1,1,1]","[0.1094911948405728,0.04356818919819485]","[1,1,1]","[-0.027291844348216625,0.1336074143723126]","[-1,-1,-1]","[-0.030835869512995814,-0.19515641287764063]","[-1,-1,-1]","[0.0791956075453083,0.1702122575996109]","[1,1,1]","[-0.18557536647249606,0.0000823477063284894]","[1,1,1]","[-0.08471439319958513,0.07883118546233271]","[1,1,1]","[-0.08651738854430624,-0.15574357318053075]","[-1,-1,-1]","[0.128238582665008,-0.13581504037878953]","[-1,-1,-1]","[-0.12958989974234342,-0.1349902878820525]","[1,1,1]","[0.0978060453267812,0.11934339834310836]","[-1,-1,-1]","[-0.03616625968485114,-0.048223679431737894]","[1,1,1]","[-0.0834527925822852,-0.05017993861698853]","[1,1,1]","[-0.005069873248512914,-0.008154952655932917]","[1,1,1]","[0.0784762290603857,-0.17296285890670585]","[1,1,1]","[0.02,0.02]",404.1258,0,35,35,97,1,,,,,,,
,,,,,,,67fd2c413355380a310b424a,682db3985f919414b92ae683,2025-05-21_13h13.20.401,cuing_paradigm_dot,2024.1.5,Win32,60.24096386,682d556593cb38ad0a074487,,,,,,,,,,,404.1263,404.6257,,,404.8805,405.1821,right,,,,,,,,0.45,0.2838,,,,,,,404.6257,404.8805,405.1821,"[0.059269590111589186,0.02701954947064717]","[-1,-1,-1]","[-0.05295716474706396,0.04622865357494786]","[-1,-1,-1]","[0.14804431297751777,-0.021302165329125766]","[-1,-1,-1]","[0.05838926084552257,-0.06602006793729737]","[1,1,1]","[-0.01000950052136307,0.13269050340717278]","[-1,-1,-1]","[-0.1963638490600838,-0.003986868038972103]","[-1,-1,-1]","[0.10781857957116199,0.051068536061850696]","[1,1,1]","[-0.03593612768010019,-0.09820985017997967]","[1,1,1]","[-0.08978082818795063,0.013916789532149658]","[1,1,1]","[0.1598201426425593,0.03864313437127739]","[1,1,1]","[0.06819749976629098,0.15822849988076756]","[-1,-1,-1]","[0.09676367076329176,-0.0946554297456995]","[1,1,1]","[-0.054656408110466584,-0.1421017309521888]","[-1,-1,-1]","[-0.08586556074486729,0.1325375292277821]","[-1,-1,-1]","[0.04214926042933287,-0.10652580227893983]","[1,1,1]","[-0.16922592941105002,0.100361745881781]","[-1,-1,-1]","[-0.1447081355569328,0.02286886726454243]","[-1,-1,-1]","[-0.10813090129683423,-0.1449416097680831]","[1,1,1]","[-0.1815549954629319,0.0621483436830917]","[1,1,1]","[-0.0647904228452858,-0.06844314022950232]","[-1,-1,-1]","[-0.09784712705417552,0.06864894297507576]","[1,1,1]","[-0.015051042593258452,-0.029745718106092254]","[1,1,1]","[0.06696418692296843,0.0935221537736849]","[-1,-1,-1]","[0.14793147679746133,-0.10545762967409554]","[-1,-1,-1]","[0.16162450481664362,0.10144180578048512]","[-1,-1,-1]","[0.11649323602254864,-0.05884493753351167]","[-1,-1,-1]","[-0.031073858094387636,-0.1903203066101356]","[1,1,1]","[0.12487648313172005,0.14201850589905102]","[1,1,1]","[-0.0014900833596679136,0.07934264339329482]","[-1,-1,-1]","[0.09832623285800295,-0.014287497874715763]","[-1,-1,-1]","[0.10318482839888943,-0.1558897360373189]","[-1,-1,-1]","[-0.15587048344243584,-0.08810273994024691]","[1,1,1]","[0.02,0.02]",406.2758,0,36,36,82,1,,,,,,,
,,,,,,,67fd2c413355380a310b424a,682db3985f919414b92ae683,2025-05-21_13h13.20.401,cuing_paradigm_dot,2024.1.5,Win32,60.24096386,682d556593cb38ad0a074487,,,,,,,,,,,406.2769,406.7763,,,407.0152,407.1654,left,,,,,,,,0.9,0.134,,,,,,,406.7764,407.0151,407.1654,"[-0.10980300875383453,0.1603054948180195]","[1,1,1]","[0.00897257436801385,-0.08733843561024045]","[1,1,1]","[-0.03238452704017109,-0.19084700737458632]","[1,1,1]","[-0.0891458882583193,-0.041280190005681616]","[1,1,1]","[0.1387218434049377,0.033763462783479865]","[1,1,1]","[0.042029045214787314,0.06628738435058076]","[-1,-1,-1]","[0.010988177169608924,-0.140420798017138]","[1,1,1]","[-0.12668478608804246,0.017432836455302084]","[1,1,1]","[-0.013872986650955831,0.00040377788085411363]","[1,1,1]","[-0.12689443859132235,-0.08144092554774034]","[1,1,1]","[-0.055174161793105816,0.04038496209546506]","[1,1,1]","[-0.07622986411111042,-0.0026048618805981664]","[-1,-1,-1]","[0.08449168842549551,0.17349053880520632]","[1,1,1]","[-0.07539828077140662,0.13364961632810896]","[1,1,1]","[-0.17900254299284415,0.02014329207362675]","[1,1,1]","[0.1891754941364953,0.03940943363678077]","[1,1,1]","[0.06881019417982001,-0.12191977238933886]","[1,1,1]","[0.07451295398776217,0.028068816941514942]","[1,1,1]","[-0.0007483210691115041,0.18252620246080248]","[1,1,1]","[0.07019517896543709,0.09990443677448047]","[1,1,1]","[0.10787295269294929,-0.1014916163992046]","[1,1,1]","[-0.024240325442239734,0.13085933550453682]","[1,1,1]","[-0.06852240015407782,-0.15189977790284523]","[1,1,1]","[-0.11442623792501855,-0.12935445723528893]","[1,1,1]","[-0.070274546472993,-0.09928745687860906]","[-1,-1,-1]","[0.06853574213794883,-0.034832873061629764]","[1,1,1]","[0.023470181723420296,0.14882545003189165]","[1,1,1]","[-0.11873643688355032,0.0829193205561074]","[1,1,1]","[-0.002432814652692113,0.04527292046250173]","[1,1,1]","[0.12632647165397193,0.10051721662757952]","[1,1,1]","[0.12048580317843911,-0.018456141157018855]","[1,1,1]","[0.033237102120849626,-0.19122376656840326]","[1,1,1]","[0.02,0.02]",408.2651,0,37,37,190,1,,,,,,,
,,,,,,,67fd2c413355380a310b424a,682db3985f919414b92ae683,2025-05-21_13h13.20.401,cuing_paradigm_dot,2024.1.5,Win32,60.24096386,682d556593cb38ad0a074487,,,,,,,,,,,408.2657,408.7583,,,409.0123,409.2819,right,,,,,,,,0.1,0.2625,,,,,,,408.7585,409.0122,409.282,"[-0.05316771114340811,-0.18205868531833208]","[-1,-1,-1]","[-0.14518135105056387,-0.0956878848500119]","[1,1,1]","[0.14175343899858037,0.07014529808616227]","[-1,-1,-1]","[-0.1586725580145487,-0.04887719579386955]","[-1,-1,-1]","[-0.0608551224739504,0.05807771145378329]","[-1,-1,-1]","[-0.08148392434480321,0.09987049867802777]","[1,1,1]","[0.09331109615937005,-0.1457801420407943]","[1,1,1]","[-0.13513908899981855,0.018669961529271584]","[-1,-1,-1]","[-0.02030757694348102,-0.12665931538925146]","[-1,-1,-1]","[-0.13133236602084325,0.14041895481884537]","[-1,-1,-1]","[0.08750982421083368,-0.0925538175873632]","[-1,-1,-1]","[-0.10337276188333336,-0.0887476721214107]","[-1,-1,-1]","[0.019795231002137422,0.16891564642030107]","[-1,-1,-1]","[0.15090561460216076,-0.008046638876232179]","[-1,-1,-1]","[0.18100093608439638,0.01980123476025117]","[-1,-1,-1]","[0.06969866906656869,0.1844059813918259]","[-1,-1,-1]","[0.0767020323387218,0.027233489526240214]","[-1,-1,-1]","[0.0008881443144840351,0.013402715963323526]","[-1,-1,-1]","[-0.08561776023803741,0.15283062145090207]","[-1,-1,-1]","[-0.08752432151661337,-0.04639940994414251]","[-1,-1,-1]","[0.06926589650330758,0.10464195984293756]","[-1,-1,-1]","[0.005398713189668191,-0.03515671714852057]","[-1,-1,-1]","[-0.039430414458140495,0.012880906110267423]","[-1,-1,-1]","[-0.006332144427918797,0.0648228121142785]","[-1,-1,-1]","[0.01003333963737244,-0.08192349167482214]","[-1,-1,-1]","[0.02444698647756618,0.11866197416877965]","[-1,-1,-1]","[-0.09007611630503357,0.01828919911933558]","[-1,-1,-1]","[0.09946062626666612,-0.014009682366402135]","[-1,-1,-1]","[0.05289563748957965,-0.018096842221922947]","[-1,-1,-1]","[-0.08584246331404899,-0.15159074700877484]","[-1,-1,-1]","[0.03788180073701889,-0.17620969620972374]","[-1,-1,-1]","[-0.03596130893369007,-0.06197875499785263]","[-1,-1,-1]","[0.02,0.02]",410.3757,0,38,38,1,1,,,,,,,
,,,,,,,67fd2c413355380a310b424a,682db3985f919414b92ae683,2025-05-21_13h13.20.401,cuing_paradigm_dot,2024.1.5,Win32,60.24096386,682d556593cb38ad0a074487,,,,,,,,,,,410.3766,410.8757,,,411.1251,411.392,left,,,,,,,,0.1,0.2504,,,,,,,410.8757,411.1251,411.3921,"[-0.13943989495777043,0.10293137858082332]","[-1,-1,-1]","[-0.10044996767333222,-0.11645936139206524]","[-1,-1,-1]","[0.06890678358415672,0.0702906561663807]","[-1,-1,-1]","[0.01770582909251823,0.13625931531745264]","[-1,-1,-1]","[0.0724258542453059,-0.0326072023435788]","[-1,-1,-1]","[-0.06895488717425635,-0.016760214384981965]","[-1,-1,-1]","[0.07635050078844037,-0.10006719309243692]","[-1,-1,-1]","[0.13364631436998814,-0.059532289737017796]","[-1,-1,-1]","[0.009104530215681653,-0.13231151975409064]","[-1,-1,-1]","[0.1282520755219076,0.14772012791529804]","[-1,-1,-1]","[-0.15777379430931163,-0.11733634749581456]","[-1,-1,-1]","[0.05609070436445514,0.16010903315807667]","[-1,-1,-1]","[0.033580120011991836,-0.056595917187317164]","[-1,-1,-1]","[0.08825294097643857,-0.13960486806483166]","[1,1,1]","[-0.05008760081894037,-0.11603394205195487]","[-1,-1,-1]","[-0.0735849241136278,-0.06998518694957534]","[-1,-1,-1]","[-0.004920565480431064,0.19448503385730018]","[-1,-1,-1]","[-0.17431948487272234,0.06151104890113383]","[-1,-1,-1]","[-0.04930901462206362,0.139445448248892]","[-1,-1,-1]","[0.14694637824727025,-0.10716299214673435]","[-1,-1,-1]","[0.1301898527352126,0.0002584651754697335]","[1,1,1]","[-0.0046125552442226195,0.09237733249941342]","[-1,-1,-1]","[-0.022964889222846153,-0.07215966454078968]","[-1,-1,-1]","[-0.15919707334283378,-0.0283112495655624]","[-1,-1,-1]","[0.009770016794849064,-0.017445850082257026]","[-1,-1,-1]","[-0.01121573243059333,0.03800247697581771]","[-1,-1,-1]","[-0.18671701458136833,0.0013854272673900158]","[1,1,1]","[0.15533242611332992,0.0347962364199843]","[-1,-1,-1]","[-0.054728152897896454,-0.16263114611803947]","[-1,-1,-1]","[-0.10330362829776407,0.14479548638137732]","[-1,-1,-1]","[0.056985840521872444,0.016909386842020743]","[-1,-1,-1]","[-0.07082370169840406,0.06283444350336904]","[-1,-1,-1]","[0.02,0.02]",412.4923,0,39,39,21,1,,,,,,,
,,,,,,,67fd2c413355380a310b424a,682db3985f919414b92ae683,2025-05-21_13h13.20.401,cuing_paradigm_dot,2024.1.5,Win32,60.24096386,682d556593cb38ad0a074487,,,,,,,,,,,412.4931,412.9916,,,413.2414,413.4271,right,,,,,,,,0.9,0.1706,,,,,,,412.9917,413.2413,413.4271,"[0.051535230578405894,-0.04106656053718041]","[1,1,1]","[0.1120122241216953,0.015468876199155745]","[1,1,1]","[-0.16089317432015346,0.08921704756812417]","[1,1,1]","[-0.08300671581126205,-0.0927338011030174]","[1,1,1]","[-0.1479168649767959,-0.038048468581303015]","[1,1,1]","[0.1568716168837529,0.00375576251100377]","[1,1,1]","[0.02553278085159307,0.12039656934000913]","[1,1,1]","[0.1746080555184319,0.07825778513607853]","[1,1,1]","[0.010917145408165893,-0.06638108419629182]","[1,1,1]","[0.09022064215695236,-0.1350354442008106]","[-1,-1,-1]","[-0.019517394578423927,-0.11421281929138231]","[1,1,1]","[-0.0773926736051417,-0.017166726811849276]","[-1,-1,-1]","[-0.0012635422224332928,-0.15302309052211344]","[1,1,1]","[0.15930274380258122,-0.06094910177474709]","[1,1,1]","[-0.10791974396666293,0.11686594160242264]","[1,1,1]","[-0.12724927911207137,0.028213579886575843]","[1,1,1]","[0.12169679996511178,0.1073492804239962]","[-1,-1,-1]","[-0.015866070232059395,0.053419021336862264]","[1,1,1]","[-0.03342028186731596,-0.19553470681020144]","[1,1,1]","[0.08455736069863892,0.1721135103432201]","[1,1,1]","[-0.061613953552788404,0.06613964765931295]","[1,1,1]","[0.0340662392098112,-0.19518816672508607]","[1,1,1]","[0.08901364018201448,-0.0174351187748228]","[1,1,1]","[0.08595964843641783,0.08718714545047082]","[1,1,1]","[-0.005665668017793578,0.17084870863780188]","[1,1,1]","[-0.1920638429122388,0.0022962606257331953]","[1,1,1]","[0.0335201099295875,0.02402280970305318]","[1,1,1]","[-0.1382221014603879,0.14310185161446315]","[1,1,1]","[-0.04223882312987862,-0.05411353808230572]","[1,1,1]","[0.09302330360761443,-0.07771854752085143]","[1,1,1]","[0.044024906731238427,0.06662181201961451]","[1,1,1]","[-0.12288880790606968,-0.15109523147484427]","[1,1,1]","[0.02,0.02]",414.5249,0,40,40,198,1,,,,,,,
,,,,,,,67fd2c413355380a310b424a,682db3985f919414b92ae683,2025-05-21_13h13.20.401,cuing_paradigm_dot,2024.1.5,Win32,60.24096386,682d556593cb38ad0a074487,,,,,,,,,,,414.5253,415.0239,,,415.2748,415.4738,left,,,,,,,,0.9,0.1904,,,,,,,415.024,415.2748,415.4739,"[-0.02693780484855194,0.193811653121432]","[-1,-1,-1]","[0.13062513035376921,-0.08619632963126109]","[1,1,1]","[-0.0937580514102611,-0.13340977298104648]","[1,1,1]","[-0.007831465865460487,-0.08477628048517222]","[1,1,1]","[-0.10228540416019777,0.056604270662498554]","[1,1,1]","[0.009775830811023024,0.11758448322738371]","[-1,-1,-1]","[0.13718443869893152,0.020723519943009736]","[1,1,1]","[0.06528974206719908,0.15315726179622527]","[1,1,1]","[0.08360297004655431,-0.053251646731113975]","[1,1,1]","[0.024150927881709704,0.18829166388752544]","[1,1,1]","[0.061034515188481,0.05160725663030248]","[1,1,1]","[-0.0814622702342255,-0.09156735793458927]","[1,1,1]","[-0.13715842033210093,0.08206549189678544]","[1,1,1]","[0.05161721797841091,-0.015125854602556844]","[1,1,1]","[-0.11041568700065346,-0.04059839944502676]","[1,1,1]","[-0.1706912421405398,0.010927029423675629]","[1,1,1]","[0.17330103353961365,-0.05630924137404575]","[1,1,1]","[-0.14649782522530258,-0.08393097426988255]","[1,1,1]","[0.06454788218921789,-0.18848688568995906]","[1,1,1]","[0.13239896424115027,0.07440355353172606]","[1,1,1]","[-0.044204402642843046,-0.04268332604502907]","[1,1,1]","[-0.02350338517487415,0.14464966771040247]","[1,1,1]","[-0.16985551861223236,-0.02920461369254647]","[1,1,1]","[-0.06574243531033587,0.11704681604754483]","[1,1,1]","[-0.025383557867003744,0.07477306515373466]","[-1,-1,-1]","[-0.1522395646817649,0.11935905664392286]","[1,1,1]","[-0.04648188852220334,-0.19441858710942625]","[1,1,1]","[-0.1283259004783954,0.009763525797041287]","[1,1,1]","[0.12764329117527745,0.1459779741201446]","[1,1,1]","[-0.023156344052557346,0.005638376650155299]","[1,1,1]","[0.09557438891718209,0.01489266991887833]","[1,1,1]","[0.022761420886329924,-0.13381890906096114]","[1,1,1]","[0.02,0.02]",416.5628,0,41,41,199,1,,,,,,,
,,,,,,,67fd2c413355380a310b424a,682db3985f919414b92ae683,2025-05-21_13h13.20.401,cuing_paradigm_dot,2024.1.5,Win32,60.24096386,682d556593cb38ad0a074487,,,,,,,,,,,416.5632,417.0642,,,417.3134,417.8297,left,,,,,,,,0.6,0.5003,,,,,,,417.0643,417.3134,417.8297,"[0.03964402706913984,0.10093728689769005]","[-1,-1,-1]","[0.015110817671205949,-0.049329332164135854]","[-1,-1,-1]","[0.14852812448241143,0.07759590906410536]","[1,1,1]","[-0.033639555262486534,0.1506423290152888]","[1,1,1]","[-0.03375190159911322,-0.04649817678222118]","[-1,-1,-1]","[0.13823484819751217,0.142091473150676]","[1,1,1]","[-0.10577654827396363,-0.049158097369303454]","[1,1,1]","[0.07718307216700428,-0.06305826718246497]","[1,1,1]","[-0.0606055213784488,0.06862736505876876]","[1,1,1]","[0.03582481509143031,0.026734679776495116]","[-1,-1,-1]","[0.10572022642653908,0.005304785583043145]","[-1,-1,-1]","[0.13303116779681154,-0.10396864095202156]","[1,1,1]","[-0.09949187980329506,-0.10888788969380145]","[-1,-1,-1]","[-0.187827347750235,0.034669455365398005]","[1,1,1]","[-0.08682918786081104,-0.17938989073506598]","[1,1,1]","[-0.10662430737087913,0.06694309803494809]","[1,1,1]","[-0.12376256971171788,0.009895449426609167]","[-1,-1,-1]","[-0.17608725911201303,-0.07770244537297025]","[1,1,1]","[-0.014690894052053894,0.012182253700800384]","[1,1,1]","[0.01418290106409055,-0.1008057071161171]","[1,1,1]","[0.04930811958051698,0.18672698397231646]","[-1,-1,-1]","[0.14001989636188206,0.03336277326152548]","[-1,-1,-1]","[-0.0081836880996943,-0.16474013723778633]","[-1,-1,-1]","[0.06976102014654466,-0.1396535243474882]","[1,1,1]","[-0.035348964770789505,-0.10362043243378485]","[1,1,1]","[-0.14956427900249178,0.09450379514145882]","[-1,-1,-1]","[0.1625953203082462,-0.05563413470983496]","[-1,-1,-1]","[0.17740821709637608,-0.018207998791951126]","[1,1,1]","[0.09935307586041155,0.06309314063964304]","[1,1,1]","[-0.16095418221562527,-0.03555269240142187]","[1,1,1]","[-0.07225793847306934,0.1859854615386851]","[-1,-1,-1]","[-0.0795088507233578,0.12807439901747913]","[1,1,1]","[0.02,0.02]",418.9287,0,42,42,163,1,,,,,,,
,,,,,,,67fd2c413355380a310b424a,682db3985f919414b92ae683,2025-05-21_13h13.20.401,cuing_paradigm_dot,2024.1.5,Win32,60.24096386,682d556593cb38ad0a074487,,,,,,,,,,,418.9294,419.4273,,,419.6791,419.9566,left,,,,,,,,0.1,0.2582,,,,,,,419.4276,419.6791,419.9567,"[0.062160415839603744,-0.1342010663189637]","[-1,-1,-1]","[0.09577297756601433,-0.034244785536543684]","[-1,-1,-1]","[-0.08320305796492551,0.04174486965627351]","[1,1,1]","[-0.11895597190312603,0.1465039848715744]","[-1,-1,-1]","[0.06119370611160014,0.06648918448782855]","[-1,-1,-1]","[-0.11020576025807398,-0.07041613050691048]","[-1,-1,-1]","[0.017049976607240433,0.1778371764796855]","[-1,-1,-1]","[0.03131847093368982,-0.0760367974828554]","[-1,-1,-1]","[0.10732280609540863,-0.13868311389841195]","[-1,-1,-1]","[0.07295330454243688,-0.07250675325529268]","[1,1,1]","[-0.06838483811288518,0.11160091969942468]","[-1,-1,-1]","[-0.017620494052232347,-0.13442261570852507]","[-1,-1,-1]","[0.14668237235304338,0.07418836149840254]","[-1,-1,-1]","[0.043639982131911635,0.1403559422216394]","[-1,-1,-1]","[-0.166844651254584,0.017296553231588685]","[-1,-1,-1]","[-0.17448732478791945,-0.0740084451271481]","[-1,-1,-1]","[0.0632677247780177,0.17703520153824515]","[-1,-1,-1]","[0.19725048953023422,0.019568131388691377]","[-1,-1,-1]","[0.10684941791272123,0.06825908701963833]","[-1,-1,-1]","[-0.14552006772521103,-0.10190077502180961]","[-1,-1,-1]","[0.0027578620333057243,0.04921681621708655]","[-1,-1,-1]","[0.17569741935739772,-0.04196177573399727]","[-1,-1,-1]","[-0.07033987991809833,-0.10049361123165598]","[-1,-1,-1]","[0.016308252106135297,-0.02994007359962291]","[1,1,1]","[0.1274906256152474,-0.06767348397935209]","[-1,-1,-1]","[-0.07072880552528336,-0.18083825386903216]","[-1,-1,-1]","[-0.01923253848539222,-0.05011171497516199]","[-1,-1,-1]","[0.007309519824428153,0.12225358823208358]","[-1,-1,-1]","[0.05656937964545142,-0.019837850787382642]","[-1,-1,-1]","[0.11081754772928039,0.0042699442273746455]","[-1,-1,-1]","[-0.14237188957490352,0.09418952268779407]","[-1,-1,-1]","[-0.18159151100674004,-0.030140742063163865]","[-1,-1,-1]","[0.02,0.02]",421.0451,0,43,43,3,1,,,,,,,
,,,,,,,67fd2c413355380a310b424a,682db3985f919414b92ae683,2025-05-21_13h13.20.401,cuing_paradigm_dot,2024.1.5,Win32,60.24096386,682d556593cb38ad0a074487,,,,,,,,,,,421.0456,421.5449,,,421.7956,422.145,right,,,,,,,,0.9,0.3334,,,,,,,421.545,421.7956,422.145,"[-0.022602835328264948,-0.015740740357830227]","[1,1,1]","[-0.07001319036465281,0.03827806847206628]","[-1,-1,-1]","[0.032959895903769076,0.16505947170576332]","[1,1,1]","[0.032915192975931276,-0.03751284203186862]","[1,1,1]","[0.03955440673751905,0.028299655734494777]","[1,1,1]","[0.16246497210657765,-0.02408319588282333]","[1,1,1]","[0.10709020500309839,0.10119288197300733]","[1,1,1]","[0.0376448763260267,-0.11826280445714779]","[1,1,1]","[0.09745695933591728,-0.08219383980612313]","[1,1,1]","[-0.15710796635376872,0.0438216968279665]","[1,1,1]","[-0.02180534438608568,0.11595611912996324]","[1,1,1]","[-0.013883668311185845,-0.15355374179199935]","[1,1,1]","[0.11004143377528125,0.16383940969480248]","[1,1,1]","[-0.04067175596956179,0.17501486187910542]","[1,1,1]","[-0.028500213432595713,-0.10470612947212057]","[1,1,1]","[0.0548686672492217,-0.17805591650812835]","[1,1,1]","[0.07090025485221382,-0.01627466521179338]","[1,1,1]","[-0.12358547112371583,-0.07263034693336957]","[1,1,1]","[-0.19696054656205353,-0.010825370931482104]","[-1,-1,-1]","[-0.1130719677765353,0.13880635135339284]","[1,1,1]","[-0.16384846166784992,-0.0829627502298928]","[1,1,1]","[-0.12950212066393163,-0.1468644186826257]","[1,1,1]","[0.1330958523094403,0.04967099832674229]","[1,1,1]","[-0.00704009162660554,0.028913296876744803]","[1,1,1]","[0.1578963919573125,-0.09545610427198083]","[-1,-1,-1]","[-0.060728707764892496,-0.17453791172005065]","[1,1,1]","[0.16641720358577528,0.019110871156301782]","[1,1,1]","[-0.07177549707141755,-0.04780580559844283]","[1,1,1]","[0.08320953889305127,0.062382862860949725]","[1,1,1]","[0.018552133383067982,0.10973360270719625]","[1,1,1]","[-0.14177017258124422,0.1104708954107057]","[1,1,1]","[-0.11532444872320623,-0.018365880662988793]","[1,1,1]","[0.02,0.02]",423.245,0,44,44,189,1,,,,,,,
