right,left,explain.started,explain.stopped,key_resp_3.keys,key_resp_3.rt,key_resp_3.duration,participant,session,date,expName,psychopyVersion,OS,frameRate,study_id,explain_2.started,explain_2.stopped,key_resp_4.keys,key_resp_4.rt,key_resp_4.duration,explain_3.started,explain_3.stopped,key_resp_5.keys,key_resp_5.rt,key_resp_5.duration,fixation.started,fixation.stopped,practice.started,practice.stopped,response.started,response.stopped,key_resp.keys,feedback.started,feedback.stopped,trials_2.thisRepN,trials_2.thisTrialN,trials_2.thisN,trials_2.thisIndex,trials_2.ran,white_ratio,key_resp.rt,key_resp.duration,explain_4.started,explain_4.stopped,key_resp_6.keys,key_resp_6.rt,key_resp_6.duration,dotDisplay.started,dotDisplay.stopped,ITI.started,polygon_1.pos,polygon_1.color,polygon_2.pos,polygon_2.color,polygon_3.pos,polygon_3.color,polygon_4.pos,polygon_4.color,polygon_5.pos,polygon_5.color,polygon_6.pos,polygon_6.color,polygon_7.pos,polygon_7.color,polygon_8.pos,polygon_8.color,polygon_9.pos,polygon_9.color,polygon_10.pos,polygon_10.color,polygon_11.pos,polygon_11.color,polygon_12.pos,polygon_12.color,polygon_13.pos,polygon_13.color,polygon_14.pos,polygon_14.color,polygon_15.pos,polygon_15.color,polygon_16.pos,polygon_16.color,polygon_17.pos,polygon_17.color,polygon_18.pos,polygon_18.color,polygon_19.pos,polygon_19.color,polygon_20.pos,polygon_20.color,polygon_21.pos,polygon_21.color,polygon_22.pos,polygon_22.color,polygon_23.pos,polygon_23.color,polygon_24.pos,polygon_24.color,polygon_25.pos,polygon_25.color,polygon_26.pos,polygon_26.color,polygon_27.pos,polygon_27.color,polygon_28.pos,polygon_28.color,polygon_29.pos,polygon_29.color,polygon_30.pos,polygon_30.color,polygon_31.pos,polygon_31.color,polygon_32.pos,polygon_32.color,dot_size,ITI.stopped,trials.thisRepN,trials.thisTrialN,trials.thisN,trials.thisIndex,trials.ran,break_2.started,break_2.stopped,trials_3.thisRepN,trials_3.thisTrialN,trials_3.thisN,trials_3.thisIndex,trials_3.ran
subject chose white,subject chose black,0.001,50.7266,space,35.6936,,682634b74da614d118d7990e,682db39f429e8300156c69cb,2025-05-21_07h06.52.173,cuing_paradigm_dot,2024.1.5,Win32,60.24096386,682d556593cb38ad0a074487,,,,,,,,,,,,,,,,,,,,,,,,,,,,,,,,,,,,,,,,,,,,,,,,,,,,,,,,,,,,,,,,,,,,,,,,,,,,,,,,,,,,,,,,,,,,,,,,,,,,,,,,,,,,,,,,,
,,,,,,,682634b74da614d118d7990e,682db39f429e8300156c69cb,2025-05-21_07h06.52.173,cuing_paradigm_dot,2024.1.5,Win32,60.24096386,682d556593cb38ad0a074487,50.7276,87.5378,space,6.7894,,,,,,,,,,,,,,,,,,,,,,,,,,,,,,,,,,,,,,,,,,,,,,,,,,,,,,,,,,,,,,,,,,,,,,,,,,,,,,,,,,,,,,,,,,,,,,,,,,,,,,,,,,,,,
,,,,,,,682634b74da614d118d7990e,682db39f429e8300156c69cb,2025-05-21_07h06.52.173,cuing_paradigm_dot,2024.1.5,Win32,60.24096386,682d556593cb38ad0a074487,,,,,,87.5385,93.0459,space,2.4889,,,,,,,,,,,,,,,,,,,,,,,,,,,,,,,,,,,,,,,,,,,,,,,,,,,,,,,,,,,,,,,,,,,,,,,,,,,,,,,,,,,,,,,,,,,,,,,,,,,,,,,,
,,,,,,,682634b74da614d118d7990e,682db39f429e8300156c69cb,2025-05-21_07h06.52.173,cuing_paradigm_dot,2024.1.5,Win32,60.24096386,682d556593cb38ad0a074487,,,,,,,,,,,93.1025,93.5621,93.5644,93.8104,93.8115,95.3131,,95.3141,96.4126,0,0,0,1,1,0.2,,,,,,,,,,,,,,,,,,,,,,,,,,,,,,,,,,,,,,,,,,,,,,,,,,,,,,,,,,,,,,,,,,,,,,,,,,,,,,,,,,,,,,,,
,,,,,,,682634b74da614d118d7990e,682db39f429e8300156c69cb,2025-05-21_07h06.52.173,cuing_paradigm_dot,2024.1.5,Win32,60.24096386,682d556593cb38ad0a074487,,,,,,,,,,,96.4157,96.9106,96.9106,97.1649,97.165,97.3475,left,97.348,98.4524,0,1,1,0,1,0.8,0.1734,,,,,,,,,,,,,,,,,,,,,,,,,,,,,,,,,,,,,,,,,,,,,,,,,,,,,,,,,,,,,,,,,,,,,,,,,,,,,,,,,,,,,,,
,,,,,,,682634b74da614d118d7990e,682db39f429e8300156c69cb,2025-05-21_07h06.52.173,cuing_paradigm_dot,2024.1.5,Win32,60.24096386,682d556593cb38ad0a074487,,,,,,,,,,,,,,,,,,,,,,,,,,,,98.454,109.1053,space,7.6323,,,,,,,,,,,,,,,,,,,,,,,,,,,,,,,,,,,,,,,,,,,,,,,,,,,,,,,,,,,,,,,,,,,,,,,,,,,,,,,,,,
,,,,,,,682634b74da614d118d7990e,682db39f429e8300156c69cb,2025-05-21_07h06.52.173,cuing_paradigm_dot,2024.1.5,Win32,60.24096386,682d556593cb38ad0a074487,,,,,,,,,,,109.128,109.621,,,109.867,110.6324,right,,,,,,,,0.1,0.7514,,,,,,,109.6215,109.8669,110.634,"[-0.06478651438880054,0.062752226509357]","[-1,-1,-1]","[-0.1907223403451811,0.05128794065131923]","[-1,-1,-1]","[-0.10195461575958846,0.041054320941559384]","[-1,-1,-1]","[0.007594597176611063,-0.019756189563010743]","[-1,-1,-1]","[0.11743147259471488,-0.08175907826037682]","[-1,-1,-1]","[0.10297201647459729,-0.12227857557497111]","[-1,-1,-1]","[0.18064658800827016,0.05496410451734222]","[-1,-1,-1]","[0.034653004169194125,-0.14623782997945287]","[1,1,1]","[-0.025045748425464472,-0.07697472568580455]","[-1,-1,-1]","[0.07504111345803242,0.08893118098514481]","[-1,-1,-1]","[-0.14070430274947207,0.06561392374528953]","[-1,-1,-1]","[-0.02299969827177661,-0.17553591831659346]","[-1,-1,-1]","[0.021489870196272503,0.1931805016024872]","[-1,-1,-1]","[-0.04416186301846162,0.14910187496247662]","[-1,-1,-1]","[0.037562007525143666,0.14215735794225032]","[-1,-1,-1]","[-0.0038569960982251525,-0.11889516187146346]","[-1,-1,-1]","[0.09629479003275712,0.1561684338841308]","[-1,-1,-1]","[0.018070016107208885,0.032764383210472814]","[-1,-1,-1]","[0.0964384355359644,0.03049246250466823]","[-1,-1,-1]","[0.04231241647289725,-0.1894208834824169]","[-1,-1,-1]","[-0.15449905373861977,-0.03540561169769948]","[-1,-1,-1]","[-0.07575503725349114,-0.04730072645811973]","[1,1,1]","[-0.11802139929855786,0.10958435431371927]","[-1,-1,-1]","[-0.12254817517333243,-0.11679740209042386]","[-1,-1,-1]","[-0.10784268420593614,-0.07847859738207881]","[-1,-1,-1]","[-0.1011228602351832,0.16376750629525805]","[-1,-1,-1]","[-0.01543688359680053,0.08118487890678137]","[-1,-1,-1]","[-0.19816807908915127,-0.010454577715679396]","[-1,-1,-1]","[0.1421027632923171,0.11901938649963657]","[1,1,1]","[0.16279716680539613,-0.10614939230193511]","[-1,-1,-1]","[0.13567418495045822,0.06216964378083483]","[-1,-1,-1]","[0.18127357290309665,-0.014785751940908991]","[-1,-1,-1]","[0.02,0.02]",111.7335,0,0,0,29,1,,,,,,,
,,,,,,,682634b74da614d118d7990e,682db39f429e8300156c69cb,2025-05-21_07h06.52.173,cuing_paradigm_dot,2024.1.5,Win32,60.24096386,682d556593cb38ad0a074487,,,,,,,,,,,111.7354,112.233,,,112.484,113.9843,,,,,,,,,0.9,,,,,,,,112.2333,112.4839,113.9844,"[-0.04869591488705918,0.028538184671963306]","[1,1,1]","[-0.04558342938643931,0.08306379526479175]","[1,1,1]","[-0.16904072117359653,-0.033954839485248745]","[1,1,1]","[-0.02843334676563965,-0.0179003995958416]","[1,1,1]","[-0.08677405272998709,-0.007604497683211586]","[1,1,1]","[0.01823945989821659,-0.18209551920576328]","[1,1,1]","[-0.1758266052544864,0.03392417451158412]","[1,1,1]","[0.17437756864963538,0.09188188787832156]","[-1,-1,-1]","[0.12510963807650358,0.08185666872493398]","[1,1,1]","[0.011405780723832892,0.10803885737721587]","[1,1,1]","[-0.03359735569248428,-0.09805619759643584]","[1,1,1]","[0.005900998195581517,-0.07831124530918877]","[1,1,1]","[0.05583972063205369,0.18026377444504044]","[-1,-1,-1]","[0.030120697765577895,0.0030299976248634643]","[1,1,1]","[-0.01807116898515965,0.16624464090330437]","[1,1,1]","[0.043659417211052425,-0.11044238938255377]","[1,1,1]","[-0.15565789879501815,-0.10648206922998237]","[1,1,1]","[-0.03211974094319866,-0.19090408021492963]","[1,1,1]","[-0.13878910085396648,-0.060586186738670694]","[1,1,1]","[-0.0054700755258093635,0.04750843618392244]","[1,1,1]","[0.1528111408153832,-0.11959489642893943]","[1,1,1]","[0.11806199527763267,0.022783117033711664]","[1,1,1]","[0.09745361476446784,0.1418702774709297]","[1,1,1]","[0.10150896501388383,-0.14647957775261175]","[1,1,1]","[0.019510282935495192,-0.036271245686765846]","[1,1,1]","[0.05534830421354167,-0.15290514974892444]","[1,1,1]","[-0.11511688061483837,0.045047217902375494]","[-1,-1,-1]","[-0.07375194501842422,-0.15145543162663827]","[1,1,1]","[0.17254506245153683,-0.01737750750053551]","[1,1,1]","[-0.00935997024227976,-0.13314005841707197]","[1,1,1]","[0.14078095956655073,-0.06034142377633862]","[1,1,1]","[-0.07851082579688928,0.10768073327665537]","[1,1,1]","[0.02,0.02]",115.0838,0,1,1,183,1,,,,,,,
,,,,,,,682634b74da614d118d7990e,682db39f429e8300156c69cb,2025-05-21_07h06.52.173,cuing_paradigm_dot,2024.1.5,Win32,60.24096386,682d556593cb38ad0a074487,,,,,,,,,,,115.0855,115.5831,,,115.8356,117.3328,,,,,,,,,0.45,,,,,,,,115.5831,115.8355,117.333,"[0.1564560289999781,-0.0477195078964296]","[-1,-1,-1]","[0.07506472880423004,0.16766802443228127]","[-1,-1,-1]","[-0.041136994598877,-0.03860961174023242]","[1,1,1]","[0.015541136116710243,-0.045432866237350454]","[-1,-1,-1]","[-0.04046856142428736,0.09000895611565432]","[-1,-1,-1]","[0.0010492964806669998,0.07846098955122782]","[1,1,1]","[0.10395933124004707,0.11904870827078479]","[1,1,1]","[-0.12026169440793591,-0.004245592789098859]","[-1,-1,-1]","[0.041002122530358946,0.0627108287440533]","[1,1,1]","[-0.15020191401812447,-0.11480936696628614]","[1,1,1]","[-0.12133776347096618,-0.1496298345463178]","[-1,-1,-1]","[0.001381599798217486,-0.174758898096112]","[-1,-1,-1]","[0.13842268745577108,0.0635988198899073]","[1,1,1]","[-0.1843538529261031,-0.03595780960119872]","[1,1,1]","[-0.012229491903173193,0.009682335348540752]","[-1,-1,-1]","[0.17088855759525276,0.00615054074839657]","[-1,-1,-1]","[0.003141224359603597,0.1558800592777325]","[-1,-1,-1]","[-0.047459077138558486,-0.12616404882062254]","[-1,-1,-1]","[-0.07630405954861583,-0.15936450408043956]","[-1,-1,-1]","[0.10609699877372748,-0.15444680489993814]","[-1,-1,-1]","[0.1250209964034524,0.1554919356390178]","[-1,-1,-1]","[0.06184962339450739,-0.10813604358141936]","[1,1,1]","[0.1027252021621079,-0.07211239153286393]","[1,1,1]","[-0.03745286906972106,0.17592901693351543]","[1,1,1]","[-0.12980287500742493,-0.05477861049551858]","[-1,-1,-1]","[-0.07794826016884411,0.014175240943869448]","[1,1,1]","[0.059932092847517306,-0.02060124946603067]","[1,1,1]","[-0.12320204130967168,0.06946408393463875]","[1,1,1]","[0.1676145097889708,0.095245792698772]","[-1,-1,-1]","[-0.14220948232622044,0.13252665834177013]","[-1,-1,-1]","[0.04986976510600609,0.11657598099087887]","[-1,-1,-1]","[-0.07919582201196307,0.10017314392984511]","[1,1,1]","[0.02,0.02]",118.4365,0,2,2,79,1,,,,,,,
,,,,,,,682634b74da614d118d7990e,682db39f429e8300156c69cb,2025-05-21_07h06.52.173,cuing_paradigm_dot,2024.1.5,Win32,60.24096386,682d556593cb38ad0a074487,,,,,,,,,,,118.4396,118.9341,,,119.1855,120.3113,right,,,,,,,,0.9,1.1162,,,,,,,118.9343,119.1853,120.3114,"[0.012261106951871513,-0.1545883029481881]","[1,1,1]","[0.004126145960742241,0.18035430745139763]","[1,1,1]","[-0.060136696526260316,0.058251893544617676]","[1,1,1]","[0.00838713912539043,-0.03795117415929582]","[1,1,1]","[0.08082159968828535,-0.11447250845001473]","[1,1,1]","[-0.10831458226099626,0.025926674577950837]","[1,1,1]","[0.0849726848019732,-0.04305197494198801]","[1,1,1]","[0.08869985929858995,0.11902487657568989]","[1,1,1]","[-0.04714410777538702,0.11064057688069251]","[-1,-1,-1]","[-0.060231516050721,-0.07894853874546547]","[-1,-1,-1]","[-0.15071099744828984,-0.013266867591564256]","[1,1,1]","[0.10849844670891454,0.05147637984496508]","[1,1,1]","[-0.08539695168603878,-0.13363369632189098]","[1,1,1]","[0.029933584928239432,0.14697245543176155]","[1,1,1]","[-0.07273399340877269,-0.1768384146334065]","[1,1,1]","[-0.024666292680581448,-0.1859811287324167]","[1,1,1]","[-0.05381435669203786,0.1693641492851244]","[1,1,1]","[-0.005808374206030809,0.08316891712373285]","[1,1,1]","[0.1415601287845299,-0.013456911801657085]","[1,1,1]","[0.06340310612110901,0.17644211304186339]","[1,1,1]","[0.14446527659704594,-0.08707635639433049]","[1,1,1]","[-0.09942588074445674,0.09522364156710908]","[1,1,1]","[-0.05271201509623918,-0.030983860930809057]","[1,1,1]","[-0.18787128155097685,-0.04327752790287506]","[1,1,1]","[-0.154994809716889,-0.08026224328148854]","[1,1,1]","[0.1806206361817699,0.0018348634893546013]","[-1,-1,-1]","[0.13017602106008394,0.11088278007079358]","[1,1,1]","[0.1912196590069512,-0.042300004255532486]","[1,1,1]","[0.16844590034178697,0.053402845564518076]","[1,1,1]","[-0.1825713067873002,0.07931398681004805]","[1,1,1]","[-0.1265617357350622,-0.12648488415374098]","[1,1,1]","[-0.017716121211525087,-0.10358830553610837]","[1,1,1]","[0.02,0.02]",121.4097,0,3,3,190,1,,,,,,,
,,,,,,,682634b74da614d118d7990e,682db39f429e8300156c69cb,2025-05-21_07h06.52.173,cuing_paradigm_dot,2024.1.5,Win32,60.24096386,682d556593cb38ad0a074487,,,,,,,,,,,121.4108,121.9089,,,122.1622,123.1537,right,,,,,,,,0.55,0.9725,,,,,,,121.9092,122.162,123.1542,"[0.01842226088457101,0.1394680526433133]","[1,1,1]","[-0.09046395074998505,0.10025814532084908]","[1,1,1]","[0.05483931670784249,0.021119290484891386]","[-1,-1,-1]","[-0.013049086504177179,0.022289607354110407]","[1,1,1]","[0.12001114277656848,0.15817712336540515]","[1,1,1]","[0.054361820654365026,0.10520621074952262]","[1,1,1]","[-0.04665941381167506,0.1734567659837898]","[-1,-1,-1]","[-0.030693802178813182,-0.12102317119140468]","[1,1,1]","[0.06686114181394345,-0.12774245524970537]","[1,1,1]","[-0.10515427645744985,0.03199860732492636]","[1,1,1]","[0.15567064197121233,0.042769703379177626]","[-1,-1,-1]","[0.01700428108191502,-0.16192698021591292]","[-1,-1,-1]","[0.10107604852524225,-0.0663872000993858]","[1,1,1]","[0.1551018522519806,-0.016561408328052217]","[1,1,1]","[0.1354899804872719,-0.09988840290353816]","[1,1,1]","[0.04000153073205814,-0.09100376878655769]","[-1,-1,-1]","[-0.06784054119478394,-0.18718555346115867]","[1,1,1]","[-0.1585973643992026,-0.02966761586001751]","[-1,-1,-1]","[-0.1296717240151508,-0.05740913089345]","[-1,-1,-1]","[0.14541017363241546,0.10240601935233937]","[-1,-1,-1]","[0.024323241566745698,-0.017600328997275507]","[1,1,1]","[0.0751572455306616,0.18396812961259396]","[1,1,1]","[0.08654055598296626,0.05712382418469375]","[-1,-1,-1]","[-0.05142639794865888,-0.0019291622943639155]","[1,1,1]","[-0.14725815150766308,-0.13471657322817368]","[-1,-1,-1]","[-0.026939488160345137,0.07151758047623595]","[1,1,1]","[-0.06474668475385882,-0.09100703144712252]","[1,1,1]","[0.004070488328186401,0.1833192792507001]","[1,1,1]","[0.096727511946724,-0.16369035711420857]","[-1,-1,-1]","[-0.0142173013592862,-0.039588075321656695]","[-1,-1,-1]","[-0.16311992071898915,-0.09133046665658526]","[-1,-1,-1]","[0.14202549196257663,-0.05872983264435383]","[-1,-1,-1]","[0.02,0.02]",124.2529,0,4,4,124,1,,,,,,,
,,,,,,,682634b74da614d118d7990e,682db39f429e8300156c69cb,2025-05-21_07h06.52.173,cuing_paradigm_dot,2024.1.5,Win32,60.24096386,682d556593cb38ad0a074487,,,,,,,,,,,124.2548,124.7534,,,125.0057,125.3458,left,,,,,,,,0.4,0.3197,,,,,,,124.7535,125.0055,125.346,"[-0.050833767516625425,-0.00713165163000413]","[-1,-1,-1]","[0.027392663480099295,0.1828060023719163]","[1,1,1]","[-0.06423416015173886,0.14890609895518747]","[1,1,1]","[-0.01891077568126911,0.12919205438210787]","[1,1,1]","[0.12345253055953509,0.10226300539533234]","[1,1,1]","[0.049023274455319815,-0.1802795839682417]","[-1,-1,-1]","[-0.10382319272485396,0.05194975530654713]","[1,1,1]","[-0.07197472026443111,-0.09796477361133644]","[-1,-1,-1]","[-0.07096588897085805,-0.18053688351179356]","[-1,-1,-1]","[-0.13569749340387807,0.1462266612557276]","[-1,-1,-1]","[0.054785160333025815,0.002676750071035941]","[-1,-1,-1]","[-0.1016505582438244,-0.14115911240361909]","[1,1,1]","[0.0662709710469835,-0.0369923112280746]","[-1,-1,-1]","[0.012245747424636294,0.06049055086130285]","[-1,-1,-1]","[0.14640070436921876,-0.10156728631762316]","[-1,-1,-1]","[0.0611309334138577,0.08838766190220546]","[-1,-1,-1]","[-0.0203663061531546,-0.19681014625517065]","[1,1,1]","[0.023847470612269047,-0.10744932738435]","[-1,-1,-1]","[-0.05944854085582989,0.08460460732451222]","[-1,-1,-1]","[0.13565845986614716,0.05224856229556827]","[-1,-1,-1]","[-0.1367410360318943,-0.014776437139029378]","[1,1,1]","[-0.16154745699911371,-0.05602179478439347]","[-1,-1,-1]","[-0.1798468600240999,0.023394652155299556]","[1,1,1]","[0.09802404206866515,-0.11861227841956835]","[1,1,1]","[0.05396557068064898,0.14380463419476613]","[-1,-1,-1]","[-0.013149265461246071,0.011147199803191201]","[1,1,1]","[0.03604246241012299,-0.06337472354335376]","[-1,-1,-1]","[-0.16068965003864574,0.10493171145196639]","[-1,-1,-1]","[0.12185215279681708,-0.003991345354948933]","[-1,-1,-1]","[0.18093032273873325,0.07557052014907867]","[1,1,1]","[0.15246537182299882,-0.04007399402702115]","[1,1,1]","[-0.02723271916620859,-0.06701737984012816]","[-1,-1,-1]","[0.02,0.02]",126.4365,0,5,5,42,1,,,,,,,
,,,,,,,682634b74da614d118d7990e,682db39f429e8300156c69cb,2025-05-21_07h06.52.173,cuing_paradigm_dot,2024.1.5,Win32,60.24096386,682d556593cb38ad0a074487,,,,,,,,,,,126.4383,126.937,,,127.1888,127.7705,right,,,,,,,,0.9,0.5521,,,,,,,126.9372,127.1887,127.7709,"[0.1386115074715159,0.012341802959754369]","[1,1,1]","[-0.12971471602062767,0.020398882865563194]","[1,1,1]","[0.06135798200954867,0.1490518405238284]","[1,1,1]","[0.020748314734697938,0.010806967097207472]","[1,1,1]","[-0.07636750665414446,-0.14332463728601208]","[1,1,1]","[0.12323296117412727,0.10077605849859242]","[1,1,1]","[-0.16220461459924637,-0.07227489027631707]","[1,1,1]","[0.14171957785652678,-0.051232440942054]","[1,1,1]","[-0.07159854596871934,0.017075970986240068]","[1,1,1]","[-0.009679034878382765,0.12574151537918424]","[1,1,1]","[0.017922761456495767,0.0680999311580522]","[1,1,1]","[0.10514187923096038,-0.030960320561687175]","[1,1,1]","[-0.018031273172611422,-0.15376213531974176]","[1,1,1]","[0.029161641793200837,-0.08691568194998892]","[1,1,1]","[-0.11507576964197552,-0.08651285833853102]","[-1,-1,-1]","[0.19817389324974663,0.01716133163740831]","[1,1,1]","[-0.14733341479624204,-0.033759572244978546]","[1,1,1]","[-0.17574560756351915,0.06880511151818197]","[1,1,1]","[-0.029552781853361992,0.18888286360994658]","[-1,-1,-1]","[-0.046965422964298106,-0.07014198732400831]","[1,1,1]","[0.05395783060353223,-0.17169037073542295]","[1,1,1]","[0.11063337909100651,-0.08427830537134103]","[1,1,1]","[0.03003588096213938,0.19361391627342056]","[1,1,1]","[-0.18417532990453428,-0.004788816380134758]","[1,1,1]","[0.05503958117871878,-0.03978282592444964]","[1,1,1]","[0.004191029224829662,-0.19043394707697042]","[1,1,1]","[0.11227274555543433,0.1588727664755554]","[1,1,1]","[0.08338175745774348,-0.11504572383303005]","[1,1,1]","[0.10158973006774437,0.046070880839268705]","[1,1,1]","[-0.09686520139647116,-0.0183694435391487]","[1,1,1]","[0.1187932673678853,-0.15618545403840123]","[1,1,1]","[-0.0975173049886613,0.16330456631008003]","[-1,-1,-1]","[0.02,0.02]",128.8714,0,6,6,194,1,,,,,,,
,,,,,,,682634b74da614d118d7990e,682db39f429e8300156c69cb,2025-05-21_07h06.52.173,cuing_paradigm_dot,2024.1.5,Win32,60.24096386,682d556593cb38ad0a074487,,,,,,,,,,,128.8736,129.3717,,,129.6214,130.4295,left,,,,,,,,0.55,0.7861,,,,,,,129.3719,129.6212,130.4296,"[0.02883425722167763,-0.16820473685453083]","[1,1,1]","[-0.08452567010331524,-0.1723803453512246]","[-1,-1,-1]","[0.0175607742025243,0.160301622453995]","[1,1,1]","[0.1427491232481709,0.02115830274481027]","[1,1,1]","[0.0678019934086078,-0.09601143413874938]","[1,1,1]","[-0.12002306951538153,0.050391987994551524]","[1,1,1]","[-0.16350380678492046,0.0460625761036541]","[-1,-1,-1]","[-0.09999037571264474,-0.012667526061663844]","[-1,-1,-1]","[0.13670235356996235,-0.049437093328101894]","[-1,-1,-1]","[0.14846688097572294,0.10814925914593479]","[1,1,1]","[0.11227654506643946,0.13129057294080193]","[1,1,1]","[0.07187902430132372,-0.04660727671485771]","[1,1,1]","[-0.006675508394572862,0.08352040931191822]","[1,1,1]","[-0.15718874867120652,-0.10072371074791811]","[-1,-1,-1]","[0.08184487578585954,0.09103975489817746]","[1,1,1]","[0.0011327689728058805,0.016104162117508168]","[-1,-1,-1]","[0.041147550042132316,0.03317380518835399]","[-1,-1,-1]","[-0.08809369796068635,0.10309586014635819]","[1,1,1]","[0.14835086104173348,-0.1183408073080869]","[-1,-1,-1]","[-0.13581842043751588,0.09895728114537516]","[1,1,1]","[-0.10382049971474339,-0.12600811434478934]","[-1,-1,-1]","[0.10860403861120553,-0.0842326009137702]","[1,1,1]","[-0.11468255263173889,0.1583305153603349]","[1,1,1]","[-0.05286973957544542,0.1651838298344141]","[1,1,1]","[0.18368927079625447,0.049400479836690575]","[-1,-1,-1]","[0.04055825490977476,0.11240962045969152]","[1,1,1]","[-0.02924899521247812,-0.026200032064292774]","[-1,-1,-1]","[0.1777079576057419,-0.05602462914062858]","[-1,-1,-1]","[-0.0012118504100750763,-0.104797224652871]","[1,1,1]","[-0.040400488947907445,-0.13637443461258067]","[-1,-1,-1]","[0.09551886398099393,-0.010285313680233204]","[1,1,1]","[-0.02686689033606931,-0.06643896452574594]","[-1,-1,-1]","[0.02,0.02]",131.522,0,7,7,146,1,,,,,,,
,,,,,,,682634b74da614d118d7990e,682db39f429e8300156c69cb,2025-05-21_07h06.52.173,cuing_paradigm_dot,2024.1.5,Win32,60.24096386,682d556593cb38ad0a074487,,,,,,,,,,,131.5237,132.0221,,,132.273,132.7889,left,,,,,,,,0.1,0.5059,,,,,,,132.0223,132.2728,132.7892,"[-0.15427530518856658,0.08358166659253166]","[-1,-1,-1]","[-0.10753320871183031,-0.04928449398022943]","[-1,-1,-1]","[-0.03011414962224302,0.14473342393511962]","[-1,-1,-1]","[-0.10159019998018719,-0.09902659459507734]","[-1,-1,-1]","[-0.03357143043718289,0.0830872367775862]","[-1,-1,-1]","[0.0951020416062061,0.08490519511287654]","[-1,-1,-1]","[0.04189197977239093,-0.09523164475149824]","[-1,-1,-1]","[0.08998920671897635,-0.1474233327426354]","[-1,-1,-1]","[0.06678756427390149,-0.03075444224000263]","[-1,-1,-1]","[-0.1088356777449509,0.005161040079385498]","[-1,-1,-1]","[0.17371641926952447,0.09840922636974074]","[-1,-1,-1]","[-0.007550095692520709,-0.12289715961668694]","[-1,-1,-1]","[0.12751330816543963,-0.08075457013261317]","[-1,-1,-1]","[-0.05878441717213529,-0.14270598889251018]","[-1,-1,-1]","[-0.0033341299297259827,0.01524753272738476]","[1,1,1]","[-0.18583490086042542,-0.04389945896155825]","[-1,-1,-1]","[0.04512307668564972,0.18177844720902503]","[-1,-1,-1]","[0.016842988700478775,0.0954415268776621]","[-1,-1,-1]","[0.0771630002015034,0.14763871703731096]","[-1,-1,-1]","[-0.05908254309294178,-0.01734972124439479]","[-1,-1,-1]","[-0.11617544462767299,0.061333401558569145]","[-1,-1,-1]","[-0.09451691472191615,0.16552653554869703]","[-1,-1,-1]","[-0.02348009328299074,-0.051113069156636326]","[-1,-1,-1]","[0.15968873247800477,-0.0037261941703521173]","[1,1,1]","[-0.12294333855447886,0.11970143146689566]","[1,1,1]","[0.04293188018637325,0.011542823602647126]","[-1,-1,-1]","[-0.07475125936428179,0.08038094405976591]","[-1,-1,-1]","[0.03861969129410857,0.12962265292444497]","[-1,-1,-1]","[-0.19449835434959953,-0.0015769365284427732]","[-1,-1,-1]","[0.1329543799690184,0.03358226782963252]","[-1,-1,-1]","[0.1197371503944141,0.14821276095882235]","[-1,-1,-1]","[0.19209556248422346,0.03934881461478408]","[-1,-1,-1]","[0.02,0.02]",133.8888,0,8,8,27,1,,,,,,,
,,,,,,,682634b74da614d118d7990e,682db39f429e8300156c69cb,2025-05-21_07h06.52.173,cuing_paradigm_dot,2024.1.5,Win32,60.24096386,682d556593cb38ad0a074487,,,,,,,,,,,133.89,134.3881,,,134.6299,135.2731,left,,,,,,,,0.55,0.6224,,,,,,,134.3882,134.6299,135.2737,"[0.02851378125302711,0.12834254290797828]","[1,1,1]","[-0.034887554582471524,0.036770153881071854]","[1,1,1]","[0.0010639436890381604,0.013283209959215654]","[1,1,1]","[-0.0777900300226204,0.11104097611931045]","[1,1,1]","[0.0544757699816275,-0.11621658548580763]","[1,1,1]","[0.0834908699974079,-0.013721748777049042]","[-1,-1,-1]","[-0.034066802026802324,-0.08668744432687438]","[-1,-1,-1]","[0.043645851462889705,-0.17003534916258495]","[-1,-1,-1]","[-0.17792275149268294,-0.03981958361932896]","[1,1,1]","[0.005969254064570374,0.07486585380397556]","[1,1,1]","[0.10042176948746685,-0.05554828361929229]","[1,1,1]","[0.09382914477818953,0.1397531504121102]","[-1,-1,-1]","[-0.06628718848119632,-0.04319066139898833]","[1,1,1]","[-0.09061043232179151,0.0686717060009306]","[-1,-1,-1]","[0.18521346086882973,0.06365615857794055]","[1,1,1]","[-0.16090979252382118,0.08020252121364105]","[-1,-1,-1]","[-0.10582655820294981,-0.015093938189256917]","[-1,-1,-1]","[0.05876490327468066,0.1680890846530882]","[-1,-1,-1]","[-0.02288792294071045,0.18529772767038608]","[1,1,1]","[-0.1702763157599156,-0.09865330725365483]","[-1,-1,-1]","[0.07684252440515431,0.09957196328198083]","[-1,-1,-1]","[-0.1416045935961521,0.007650832128678377]","[1,1,1]","[0.053175470880379244,-0.06993337359766048]","[1,1,1]","[-0.0847364052431724,-0.08803940815469959]","[-1,-1,-1]","[0.11419286114461011,0.06000403107271051]","[1,1,1]","[0.144428986255699,-0.003855329264511692]","[1,1,1]","[-0.040651279171412195,-0.17727992872485912]","[1,1,1]","[-0.08790208932286599,0.15915281577546128]","[-1,-1,-1]","[0.10408910966415776,-0.11120928450659999]","[1,1,1]","[0.046971694412907265,0.05304897849645123]","[1,1,1]","[-0.11895134248388484,-0.14657661582456355]","[-1,-1,-1]","[0.14513231730454698,-0.10382601514746884]","[-1,-1,-1]","[0.02,0.02]",136.3727,0,9,9,120,1,,,,,,,
,,,,,,,682634b74da614d118d7990e,682db39f429e8300156c69cb,2025-05-21_07h06.52.173,cuing_paradigm_dot,2024.1.5,Win32,60.24096386,682d556593cb38ad0a074487,,,,,,,,,,,136.3745,136.8731,,,137.1147,137.7818,right,,,,,,,,0.5,0.6518,,,,,,,136.8732,137.1145,137.7819,"[0.030857139317617577,0.10670050210597233]","[1,1,1]","[0.0982758758115284,0.13928572277249343]","[1,1,1]","[-0.03949601168816559,0.1358054570523718]","[-1,-1,-1]","[-0.171286875352588,-0.014372166124200341]","[-1,-1,-1]","[0.006466818466728913,0.143095425271605]","[1,1,1]","[-0.058171229919680434,-0.04634733279264545]","[1,1,1]","[-0.07659340456280515,0.031769061919452966]","[-1,-1,-1]","[-0.12882031691261608,0.025181946643717753]","[1,1,1]","[0.020071742692434537,-0.11253083744595428]","[-1,-1,-1]","[0.050604359804943336,0.06042597392922575]","[-1,-1,-1]","[0.08329416924509593,-0.09506464309153881]","[1,1,1]","[0.06404000849890518,0.022468460435767272]","[-1,-1,-1]","[0.07735049850182561,0.10348417084864024]","[1,1,1]","[-0.11699184234572048,-0.05518049437687356]","[-1,-1,-1]","[0.16985711113597415,-0.015589766741037432]","[-1,-1,-1]","[-0.0451589583959895,-0.15659998196179348]","[1,1,1]","[-0.09605269445563448,0.0691336396039767]","[-1,-1,-1]","[0.09849945426442708,-0.05615981015027138]","[1,1,1]","[-0.13410708192738227,-0.10985838832135135]","[1,1,1]","[-0.14472587609047077,0.08518249677795826]","[-1,-1,-1]","[-0.17113941467475696,-0.058896501323181034]","[1,1,1]","[0.1662411072790279,0.09088316074740865]","[-1,-1,-1]","[-0.04884042360050181,0.19119959207629775]","[1,1,1]","[-0.014720018698892955,-0.04077906129488691]","[1,1,1]","[-0.0868312065781223,-0.1323258438152484]","[-1,-1,-1]","[-0.11513889428521126,0.15379186508774964]","[1,1,1]","[0.0054285384431019745,0.0405139908579995]","[-1,-1,-1]","[0.02459844319115138,-0.19313912266026487]","[-1,-1,-1]","[0.1448054133382653,-0.11774387780337307]","[-1,-1,-1]","[-0.07403057487349769,-0.08875557080493608]","[-1,-1,-1]","[0.11130526120494906,-0.0046815581987231965]","[1,1,1]","[0.036202200026146526,0.1950495698703812]","[1,1,1]","[0.02,0.02]",138.8738,0,10,10,109,1,,,,,,,
,,,,,,,682634b74da614d118d7990e,682db39f429e8300156c69cb,2025-05-21_07h06.52.173,cuing_paradigm_dot,2024.1.5,Win32,60.24096386,682d556593cb38ad0a074487,,,,,,,,,,,138.8759,139.3733,,,139.6316,140.3644,left,,,,,,,,0.1,0.7181,,,,,,,139.3734,139.6314,140.3645,"[-0.03794787807660913,-0.018083687594809616]","[-1,-1,-1]","[0.12245975119631597,0.06102768956184616]","[-1,-1,-1]","[-0.08950766284426066,0.05134519531407865]","[-1,-1,-1]","[0.027732740457757858,0.11145777581599094]","[1,1,1]","[-0.10849991426581782,-0.0822517039786214]","[-1,-1,-1]","[-0.06769998653668334,0.1528960898629196]","[-1,-1,-1]","[-0.19286849313610666,-0.029755159637986698]","[-1,-1,-1]","[0.1018631701685711,-0.0014438461456421931]","[-1,-1,-1]","[0.1519123131362543,-0.08072170005329427]","[-1,-1,-1]","[0.17437844379728282,0.07572321657410329]","[-1,-1,-1]","[0.050966536913475184,-0.13077373152072416]","[-1,-1,-1]","[0.030640792873925835,-0.003084208546489942]","[-1,-1,-1]","[0.1704473760831959,0.02313409028261661]","[-1,-1,-1]","[-0.13049733680226722,0.030157546438172318]","[-1,-1,-1]","[0.10914401330479802,0.09983866679654123]","[-1,-1,-1]","[0.11503102243749667,-0.053983999993393095]","[-1,-1,-1]","[-0.028604972994658195,0.08377701545286312]","[-1,-1,-1]","[-0.15796595335004615,-0.06737731783080766]","[-1,-1,-1]","[0.17966422249890446,-0.02353203853519407]","[-1,-1,-1]","[-0.12080252151976947,-0.13627349390693266]","[-1,-1,-1]","[0.05054323874506777,0.06057246507379962]","[-1,-1,-1]","[-0.06663319759122782,-0.07059641594159244]","[-1,-1,-1]","[-0.013626308495271055,0.16948288943855686]","[-1,-1,-1]","[-0.004893427130456982,-0.12146348235878678]","[1,1,1]","[-0.16536006704650152,0.11163654858015817]","[1,1,1]","[-0.172688136311867,0.03606789703610522]","[-1,-1,-1]","[0.09447221874914685,-0.09210881748291774]","[-1,-1,-1]","[-0.012673258008297293,0.12673708783609122]","[-1,-1,-1]","[0.07949752257690543,0.15142477346423433]","[-1,-1,-1]","[0.012824209213204665,-0.19894794775824137]","[-1,-1,-1]","[0.15123497803880018,0.12328328259258446]","[-1,-1,-1]","[0.06114596477108674,-0.05979393300832277]","[-1,-1,-1]","[0.02,0.02]",141.4608,0,11,11,8,1,,,,,,,
,,,,,,,682634b74da614d118d7990e,682db39f429e8300156c69cb,2025-05-21_07h06.52.173,cuing_paradigm_dot,2024.1.5,Win32,60.24096386,682d556593cb38ad0a074487,,,,,,,,,,,141.4621,141.9572,,,142.2096,143.3253,right,,,,,,,,0.45,1.1023,,,,,,,141.9575,142.2095,143.3255,"[0.10458536168060296,0.1653739449443516]","[-1,-1,-1]","[-0.1946219675225299,-0.0261707442778122]","[-1,-1,-1]","[0.15329001765456474,-0.020798477330698804]","[-1,-1,-1]","[-0.03178056805912264,0.0913734846228335]","[-1,-1,-1]","[-0.11926262710754265,0.10521569597651093]","[-1,-1,-1]","[-0.09826817458861759,0.06638110244561174]","[1,1,1]","[0.1397786910594838,-0.14298640842252186]","[1,1,1]","[0.08041489302796914,0.06715848407331436]","[1,1,1]","[0.0017124135989951674,0.19801961397900453]","[-1,-1,-1]","[-0.10896469329308736,-0.13933857546440023]","[1,1,1]","[0.16483789106935626,0.07126854897803456]","[-1,-1,-1]","[0.010803601994266396,0.04350475349969951]","[-1,-1,-1]","[0.0009861967161223044,-0.17813608207301876]","[1,1,1]","[0.16563338036519004,-0.0737513443594579]","[1,1,1]","[-0.019494559781893718,0.1504012103848955]","[1,1,1]","[0.008299877543374589,-0.09514192592289841]","[-1,-1,-1]","[-0.1708791937469969,-0.10337898512942383]","[1,1,1]","[0.10784756819693365,-0.08138320215982424]","[-1,-1,-1]","[0.019647222828506377,-0.03105036721870309]","[-1,-1,-1]","[0.06846916592323868,-0.11729570008276001]","[1,1,1]","[0.07346135400315741,-0.04141083811664173]","[1,1,1]","[0.049756728049918396,-0.18799150879284296]","[-1,-1,-1]","[-0.04939186636825332,-0.12781090137811243]","[1,1,1]","[-0.12147429337477561,-0.00019928201476015735]","[-1,-1,-1]","[-0.0836825448843118,-0.046986837037654175]","[1,1,1]","[-0.08013890180348486,-0.17147709607028402]","[-1,-1,-1]","[-0.16486219131401753,0.06643659521782472]","[-1,-1,-1]","[-0.07277268973579958,0.1172270636516663]","[1,1,1]","[0.08266376888744421,0.11882148420906476]","[-1,-1,-1]","[-0.1271755956398026,-0.046325071745446665]","[1,1,1]","[0.11251364261462235,0.03133186481041132]","[-1,-1,-1]","[-0.02815559959811591,-0.007444740619290181]","[-1,-1,-1]","[0.02,0.02]",144.4233,0,12,12,84,1,,,,,,,
,,,,,,,682634b74da614d118d7990e,682db39f429e8300156c69cb,2025-05-21_07h06.52.173,cuing_paradigm_dot,2024.1.5,Win32,60.24096386,682d556593cb38ad0a074487,,,,,,,,,,,144.4237,144.9235,,,145.1761,146.1295,left,,,,,,,,0.5,0.9453,,,,,,,144.9235,145.1761,146.1297,"[0.11218777355840363,0.019577284256104433]","[-1,-1,-1]","[-0.04651996392109627,0.06505677849468455]","[1,1,1]","[-0.12261494957342309,0.032192843497986255]","[1,1,1]","[0.06264777809936835,-0.1788232493897397]","[1,1,1]","[-0.1697998860810209,-0.09925930252629447]","[-1,-1,-1]","[0.021897693725046068,-0.1475005702533806]","[-1,-1,-1]","[0.06505882259943047,0.0902486128884086]","[-1,-1,-1]","[-0.051811152675077216,-0.02247186211445936]","[1,1,1]","[0.021116079842685057,-0.19193913439229113]","[1,1,1]","[-0.12505826996374236,0.11605020291254656]","[1,1,1]","[-0.13610857274049357,-0.006457751465517302]","[-1,-1,-1]","[-0.08805284223875082,-0.0880889437824325]","[-1,-1,-1]","[-0.0859908015480418,-0.144830846856376]","[-1,-1,-1]","[-0.12992433422277458,-0.0898503353993841]","[-1,-1,-1]","[0.006258431403915881,0.018453014000391295]","[1,1,1]","[-0.04401216955007772,0.12908922623393648]","[-1,-1,-1]","[-0.16892599470070901,0.04997776416982676]","[1,1,1]","[-0.011209849781037786,-0.04685850584762173]","[1,1,1]","[0.18685265102303536,0.056813424129075585]","[-1,-1,-1]","[0.08877558352183731,-0.11536893356907238]","[-1,-1,-1]","[-0.1660494814985031,-0.038038278784675326]","[1,1,1]","[0.08618033900687265,0.15518860852975555]","[-1,-1,-1]","[0.13066590504284642,-0.14327213744911674]","[-1,-1,-1]","[-0.039090042162729495,-0.1747793377741238]","[1,1,1]","[0.10987334680399446,-0.042914282122005536]","[1,1,1]","[-0.08039978615955169,0.1484776930781548]","[-1,-1,-1]","[0.06968148407313661,-0.047984962590391866]","[-1,-1,-1]","[-0.025648781401810077,-0.09547681995739099]","[1,1,1]","[-0.07871833138340656,0.014722231570602286]","[-1,-1,-1]","[0.13436988913320827,0.09035221728906437]","[1,1,1]","[0.15380023573934773,-0.09743039651820766]","[1,1,1]","[0.14534723999870353,-0.009902707442871899]","[1,1,1]","[0.02,0.02]",147.2264,0,13,13,103,1,,,,,,,
,,,,,,,682634b74da614d118d7990e,682db39f429e8300156c69cb,2025-05-21_07h06.52.173,cuing_paradigm_dot,2024.1.5,Win32,60.24096386,682d556593cb38ad0a074487,,,,,,,,,,,147.2273,147.7262,,,147.9842,148.7252,left,,,,,,,,0.5,0.7189,,,,,,,147.7263,147.9841,148.7255,"[0.1256957501808509,-0.04195570616446442]","[1,1,1]","[0.11530518955047432,-0.13576295667053373]","[-1,-1,-1]","[-0.14409368806216447,-0.02872910261917777]","[1,1,1]","[-0.021231936946777448,-0.18298015583364638]","[-1,-1,-1]","[-0.09618575623132623,0.07258672167888211]","[-1,-1,-1]","[0.01119866332098789,0.1268279877391059]","[1,1,1]","[0.1957651590450209,0.009923604606779145]","[1,1,1]","[0.1113257539534119,0.11859147892044251]","[1,1,1]","[-0.014170963232060968,-0.11042883013793336]","[1,1,1]","[0.014728417987035343,0.04302864642115929]","[1,1,1]","[0.05430301550395361,0.12729061249467982]","[1,1,1]","[-0.11886537807748533,0.15593798448464746]","[1,1,1]","[-0.17934751570401403,-0.0844816167704571]","[-1,-1,-1]","[-0.00909074958603187,0.00504070106491942]","[1,1,1]","[-0.12010892569881133,0.11153123314323558]","[-1,-1,-1]","[0.06224836242201293,0.18819970152992455]","[-1,-1,-1]","[0.08927727526749557,-0.01817269926776141]","[1,1,1]","[0.08008793501101737,-0.05855746248270246]","[1,1,1]","[-0.16209832222061035,0.04395642845813419]","[1,1,1]","[0.006376986610486316,-0.06896607867597705]","[-1,-1,-1]","[0.14115121362133157,-0.0934927838109846]","[-1,-1,-1]","[0.03496137416332043,-0.1810569527797987]","[-1,-1,-1]","[0.12799425716948545,0.0745688137066531]","[1,1,1]","[-0.06993192869166999,0.011112559675188467]","[-1,-1,-1]","[-0.028788717465527004,0.18436139092011777]","[-1,-1,-1]","[0.03432509123626199,-0.004085960964340914]","[-1,-1,-1]","[-0.04083037679949582,-0.14382035758298387]","[-1,-1,-1]","[0.19101321739621127,0.05248630301274614]","[-1,-1,-1]","[-0.16668376438207932,0.09152369776099298]","[1,1,1]","[0.1333010422257716,0.028430404531751444]","[-1,-1,-1]","[0.0573144233075509,-0.1298961843752987]","[-1,-1,-1]","[-0.09701007260233996,-0.07808447536217351]","[1,1,1]","[0.02,0.02]",149.8265,0,14,14,115,1,,,,,,,
,,,,,,,682634b74da614d118d7990e,682db39f429e8300156c69cb,2025-05-21_07h06.52.173,cuing_paradigm_dot,2024.1.5,Win32,60.24096386,682d556593cb38ad0a074487,,,,,,,,,,,149.8288,150.3269,,,150.5671,152.0605,,,,,,,,,0.4,,,,,,,,150.3271,150.5669,152.0607,"[-0.007655066110389916,-0.030552157191856888]","[-1,-1,-1]","[0.14054329804410773,-0.02854385150819052]","[1,1,1]","[0.05704937582403465,0.17985591714395294]","[1,1,1]","[0.08199824454122301,0.1038207655724161]","[-1,-1,-1]","[0.013706587704967821,-0.1677575885677606]","[1,1,1]","[-0.1499250707642914,0.07459559236824571]","[-1,-1,-1]","[-0.034328165140795154,-0.07023181185627199]","[-1,-1,-1]","[0.09636018818518728,-0.03719409932375427]","[-1,-1,-1]","[-0.0454568776731565,-0.15382267932280294]","[-1,-1,-1]","[-0.10506254699503496,-0.04353623986120243]","[1,1,1]","[0.11565422817975529,-0.13126548234029367]","[1,1,1]","[0.13313308081028538,0.025706300794010102]","[-1,-1,-1]","[0.048027115589248374,-0.037488777597792976]","[1,1,1]","[-0.006620047305579508,0.16544546201302018]","[1,1,1]","[-0.024720640847344003,0.055741414374088]","[-1,-1,-1]","[0.03673348722568658,0.12473792300685249]","[-1,-1,-1]","[0.020833216024481484,0.023947271134918093]","[-1,-1,-1]","[0.07036525342399959,-0.0819688671108972]","[-1,-1,-1]","[-0.0475966351104311,0.17899141535356952]","[-1,-1,-1]","[-0.1608926162336341,-0.009446553039280214]","[-1,-1,-1]","[-0.022857481881121376,0.12341259108036925]","[1,1,1]","[-0.11726223279474617,0.1451430541194725]","[-1,-1,-1]","[0.03525185349036709,-0.11163986423327496]","[1,1,1]","[0.03591965397149733,0.07023564410469539]","[1,1,1]","[-0.05417163802004359,-0.013739981746093335]","[-1,-1,-1]","[-0.08947958806152935,-0.11263264589837359]","[-1,-1,-1]","[0.0696341468819491,0.04338051636610058]","[-1,-1,-1]","[-0.12983647791102323,0.032824400979987504]","[1,1,1]","[-0.08245467942480803,0.021546229515208896]","[-1,-1,-1]","[-0.1016250581652396,0.08117883094219586]","[1,1,1]","[-0.0880170229496259,-0.17490129556383563]","[1,1,1]","[0.13002088616637808,0.09228740901632881]","[-1,-1,-1]","[0.02,0.02]",153.161,0,15,15,40,1,,,,,,,
,,,,,,,682634b74da614d118d7990e,682db39f429e8300156c69cb,2025-05-21_07h06.52.173,cuing_paradigm_dot,2024.1.5,Win32,60.24096386,682d556593cb38ad0a074487,,,,,,,,,,,153.1633,153.6665,,,153.9171,154.3953,left,,,,,,,,0.4,0.4557,,,,,,,153.6665,153.917,154.3956,"[-0.10987774058816303,-0.12198876271814718]","[1,1,1]","[-0.01603891620658996,-0.16427578180326471]","[1,1,1]","[-0.021659368638799536,0.18450285124758445]","[1,1,1]","[0.019429676890924057,0.07304598263530902]","[1,1,1]","[0.054004465312919324,-0.17720397885268585]","[-1,-1,-1]","[-0.038757835015300446,0.10021945080538255]","[-1,-1,-1]","[-0.13782287109849983,0.07859202678394477]","[-1,-1,-1]","[0.06190355328177209,-0.03047207572988216]","[1,1,1]","[0.14164052044962852,-0.02301462217365044]","[1,1,1]","[-0.11463522457415534,0.12213383867564157]","[-1,-1,-1]","[0.07923471535854801,0.03180819853234244]","[-1,-1,-1]","[-0.08861515138164039,0.1705023419594781]","[-1,-1,-1]","[0.09196641486279933,0.13937981173631298]","[-1,-1,-1]","[0.14303979434395173,-0.11600020619983427]","[-1,-1,-1]","[0.16722361384819767,0.016169212847540162]","[1,1,1]","[-0.17790470899450345,0.07287760112317085]","[-1,-1,-1]","[-0.03384333936463037,0.012836264852328605]","[-1,-1,-1]","[0.18451701186236832,0.07181308088495152]","[-1,-1,-1]","[-0.06146155772506676,-0.06706238797470165]","[-1,-1,-1]","[0.09822561835038732,-0.11925861750970132]","[-1,-1,-1]","[0.17488712636741754,-0.06796551909232296]","[-1,-1,-1]","[-0.1333699274424145,-0.023243972342501036]","[-1,-1,-1]","[0.0415106606151599,0.1228751193239436]","[1,1,1]","[0.024026799569508026,0.1724960200355808]","[1,1,1]","[-0.05115181004079005,0.14403463403489314]","[1,1,1]","[0.19698286352478175,-0.020847599864585283]","[1,1,1]","[0.07222067196650112,0.09415717440606874]","[1,1,1]","[-0.12631852755527465,0.028085971385798696]","[-1,-1,-1]","[0.11511371111898856,-0.07216533213350551]","[-1,-1,-1]","[-0.003077947572670636,-0.030695365436379286]","[1,1,1]","[-0.10445233839578459,-0.07524578125070494]","[-1,-1,-1]","[-0.011642270657198663,-0.08117056525083939]","[-1,-1,-1]","[0.02,0.02]",155.4953,0,16,16,49,1,,,,,,,
,,,,,,,682634b74da614d118d7990e,682db39f429e8300156c69cb,2025-05-21_07h06.52.173,cuing_paradigm_dot,2024.1.5,Win32,60.24096386,682d556593cb38ad0a074487,,,,,,,,,,,155.497,155.9957,,,156.235,156.9298,right,,,,,,,,0.9,0.6777,,,,,,,155.9958,156.2349,156.9303,"[-0.02122637920277493,-0.13680097305919095]","[1,1,1]","[-0.013193424942341334,0.0024795610298786195]","[1,1,1]","[0.10607986404924942,0.027820735050940296]","[1,1,1]","[-0.10114362089163571,-0.13923459090238116]","[1,1,1]","[0.04968378712892382,0.15032743487428557]","[1,1,1]","[-0.15867486856447807,-0.1089674455039343]","[1,1,1]","[0.04653937389641426,0.023807057416345635]","[-1,-1,-1]","[0.15088194730532817,-0.0855941937219027]","[1,1,1]","[0.015278547944189027,-0.09414157218332397]","[1,1,1]","[0.14015241506334677,-0.13341542316033012]","[1,1,1]","[-0.06490076161988986,-0.18246823678539426]","[1,1,1]","[0.10189012410563998,0.16757000002866593]","[1,1,1]","[0.05578732892706756,-0.10342470012746623]","[1,1,1]","[-0.07855941350346032,0.04066071791703722]","[1,1,1]","[-0.07871012250754233,0.10296401142835654]","[1,1,1]","[-0.15447026624614482,-0.04029157361023731]","[-1,-1,-1]","[0.10491436557440535,-0.0282444536563778]","[1,1,1]","[0.18466079734045834,0.02430324765448804]","[1,1,1]","[-0.11869674155304749,-0.09438256419021757]","[1,1,1]","[0.10477257663050117,-0.0682933671454835]","[1,1,1]","[-0.10425810562199632,-0.004364164544230215]","[1,1,1]","[0.07659059438409545,-0.16302856435527385]","[1,1,1]","[-0.15874645978801002,0.015969573522600537]","[1,1,1]","[0.14639366080614236,0.09202337026069207]","[1,1,1]","[-0.03389564701001201,-0.08414354099740323]","[1,1,1]","[0.02335727609359523,-0.13492980768541246]","[1,1,1]","[-0.01897311794056946,0.15582638230886783]","[-1,-1,-1]","[0.0022402929386576786,-0.03493305664680722]","[1,1,1]","[-0.08442732483491702,0.1597084329893426]","[1,1,1]","[0.08215784331628316,0.1007789107880784]","[1,1,1]","[-0.14347143755488243,0.0948451125754674]","[1,1,1]","[-0.008248083175976705,0.052457857279941414]","[1,1,1]","[0.02,0.02]",158.0292,0,17,17,192,1,,,,,,,
,,,,,,,682634b74da614d118d7990e,682db39f429e8300156c69cb,2025-05-21_07h06.52.173,cuing_paradigm_dot,2024.1.5,Win32,60.24096386,682d556593cb38ad0a074487,,,,,,,,,,,158.0309,158.5287,,,158.7799,159.5619,left,,,,,,,,0.45,0.771,,,,,,,158.529,158.7798,159.5621,"[-0.12610019344833423,-0.08064477316253835]","[1,1,1]","[0.13707827383551136,0.008047531681719853]","[-1,-1,-1]","[0.18481891916119317,-0.06758185947701338]","[-1,-1,-1]","[-0.0590059189385546,-0.08781722102822638]","[-1,-1,-1]","[0.04423082967815324,0.051145834771828325]","[1,1,1]","[-0.13702213197562957,-0.025270245964162417]","[-1,-1,-1]","[-0.08656762156807699,-0.149739554195894]","[-1,-1,-1]","[-0.12243139350803543,0.05066132485359565]","[-1,-1,-1]","[-0.18040516951010854,0.058659578805113514]","[-1,-1,-1]","[0.0014880999455340101,0.10399437176708226]","[-1,-1,-1]","[0.08005087964124728,0.16431497131403677]","[1,1,1]","[0.07969016974669685,0.02227928338614868]","[1,1,1]","[-0.031844922275180605,-0.17630895369975857]","[-1,-1,-1]","[-0.07080510574287656,0.10118251801096913]","[1,1,1]","[-0.03392353554954092,0.08354631983367078]","[-1,-1,-1]","[0.18916172085544752,0.012560000917164076]","[-1,-1,-1]","[0.07545530643251193,0.12345004441890914]","[1,1,1]","[0.12132270826909429,0.07365774065801188]","[1,1,1]","[0.14321411778153006,-0.1318592823481915]","[-1,-1,-1]","[0.03596521719920194,-0.054991702540339985]","[1,1,1]","[-0.029649407142434067,-0.008722570607403824]","[-1,-1,-1]","[0.14531007621849623,-0.08220657966339358]","[1,1,1]","[-0.085350375738176,-0.049733220658972004]","[1,1,1]","[-0.1730519075086374,0.01376089718044993]","[-1,-1,-1]","[0.026859334927952665,-0.013256866234279546]","[-1,-1,-1]","[0.035068711891972915,-0.17727226011448718]","[1,1,1]","[0.18232953598652024,0.07790914952466249]","[-1,-1,-1]","[0.0746030857241764,-0.16434883569469994]","[1,1,1]","[-0.10421692960539905,0.15640776946422713]","[1,1,1]","[-0.08435812635424654,-0.0043125829881670505]","[1,1,1]","[-0.15585186536287415,0.11060300139768284]","[-1,-1,-1]","[-0.002182673090634335,-0.14435053022165698]","[-1,-1,-1]","[0.02,0.02]",160.6624,0,18,18,83,1,,,,,,,
,,,,,,,682634b74da614d118d7990e,682db39f429e8300156c69cb,2025-05-21_07h06.52.173,cuing_paradigm_dot,2024.1.5,Win32,60.24096386,682d556593cb38ad0a074487,,,,,,,,,,,160.6638,161.1623,,,161.4135,162.0632,left,,,,,,,,0.1,0.6338,,,,,,,161.1624,161.4134,162.0634,"[-0.013869264280782117,0.052347211102951895]","[-1,-1,-1]","[-0.04644988492163829,0.12814149302934152]","[-1,-1,-1]","[0.10418389097000116,0.10190444789099982]","[-1,-1,-1]","[0.13695978554134716,0.032800056239579455]","[-1,-1,-1]","[0.023270469593263926,0.0715370009592165]","[1,1,1]","[-0.11943603223043442,0.01724816937923314]","[-1,-1,-1]","[-0.03644159523698843,-0.16778837159737905]","[-1,-1,-1]","[0.1051618995442551,-0.10405478204621849]","[-1,-1,-1]","[-0.04761846697383054,-0.06653588432466657]","[-1,-1,-1]","[0.0591840519286973,0.010075472822634868]","[-1,-1,-1]","[-0.11143813371844338,0.13569910479755126]","[-1,-1,-1]","[-0.006543496101243431,-0.07457582308935254]","[-1,-1,-1]","[0.011081517926354227,-0.17005384711972957]","[-1,-1,-1]","[0.08121127002498643,-0.16617799929836843]","[-1,-1,-1]","[-0.12607138399960502,-0.1287994252434985]","[-1,-1,-1]","[-0.1896923681861624,0.04347497000207294]","[-1,-1,-1]","[-0.1019387877775001,0.07823728024601202]","[-1,-1,-1]","[-0.009902240417112686,0.15869879053535846]","[-1,-1,-1]","[-0.12880198245035698,-0.0706607784182181]","[-1,-1,-1]","[0.18404202607984418,-0.004178856728296872]","[-1,-1,-1]","[-0.17428785983577375,0.09562576132656511]","[-1,-1,-1]","[-0.082634268822022,-0.1636091567994482]","[-1,-1,-1]","[0.03735025463930976,0.17076339828864576]","[-1,-1,-1]","[0.1559543968063917,0.11462902786866272]","[-1,-1,-1]","[0.059910285953504026,-0.07802038971262591]","[-1,-1,-1]","[0.14337642343111948,-0.046892203341822494]","[-1,-1,-1]","[0.07801998482065688,0.07109110514406763]","[1,1,1]","[0.10870259523020975,0.1610437657833188]","[-1,-1,-1]","[0.0521160216077248,-0.12331112732539366]","[-1,-1,-1]","[-0.07379409951924555,0.04466395109610719]","[-1,-1,-1]","[-0.04328351191669473,0.19078871348217594]","[1,1,1]","[0.13729982444537697,0.07541225214206103]","[-1,-1,-1]","[0.02,0.02]",163.1629,0,19,19,5,1,,,,,,,
,,,,,,,682634b74da614d118d7990e,682db39f429e8300156c69cb,2025-05-21_07h06.52.173,cuing_paradigm_dot,2024.1.5,Win32,60.24096386,682d556593cb38ad0a074487,,,,,,,,,,,163.1643,163.6626,,,163.9042,164.531,right,,,,,,,,0.9,0.6044,,,,,,,163.6627,163.904,164.5312,"[0.01912601260760448,0.045321597966754834]","[1,1,1]","[0.05018027821395781,-0.10282933999899]","[1,1,1]","[-0.09875296160740851,-0.029787655510496617]","[1,1,1]","[0.06626295321242574,0.10325257696457255]","[1,1,1]","[-0.15197921547445664,0.1125335364949935]","[1,1,1]","[0.07335404826786894,0.03908829081447432]","[1,1,1]","[0.05222195121152296,-0.19132799309992515]","[1,1,1]","[-0.19385460268625102,0.048932847325442196]","[1,1,1]","[0.0827314027580563,-0.00979247007215]","[1,1,1]","[0.18751103166734873,0.018695448342511543]","[-1,-1,-1]","[-0.18133529005042195,-0.0800074377229766]","[1,1,1]","[-0.009538739114727671,-0.04214587982026308]","[1,1,1]","[0.0012895949582627313,-0.19559176226891856]","[1,1,1]","[0.14773731978414328,-0.00040614623355023994]","[1,1,1]","[0.00914132334888812,0.003267533748812126]","[1,1,1]","[0.11653085563805725,-0.07103186414079243]","[1,1,1]","[0.16366870025264596,-0.0389358008445806]","[1,1,1]","[-0.04758798257583219,-0.1051404955848917]","[1,1,1]","[0.020903851479649325,0.12011450912345142]","[1,1,1]","[-0.043252539507748405,-0.17962071543649857]","[1,1,1]","[0.15652255216758496,0.08574524889571136]","[1,1,1]","[0.03943045124818548,-0.023620162739471987]","[1,1,1]","[-0.017297803448251665,0.07616731509943986]","[1,1,1]","[0.0944586133690167,-0.12838288240849463]","[-1,-1,-1]","[-0.1164370438209945,0.03342743090641733]","[1,1,1]","[-0.10637116245509522,0.0866814107461463]","[1,1,1]","[0.0474293952970465,0.170126464510943]","[1,1,1]","[0.038762383980406996,-0.063835731862892]","[1,1,1]","[-0.09390465508823348,0.1251383989754594]","[1,1,1]","[-0.05884279261843175,0.15436664712128073]","[1,1,1]","[0.003809751549821455,-0.13846005297460046]","[1,1,1]","[-0.14592823862374707,-0.10881798049962355]","[-1,-1,-1]","[0.02,0.02]",165.6309,0,20,20,181,1,,,,,,,
,,,,,,,682634b74da614d118d7990e,682db39f429e8300156c69cb,2025-05-21_07h06.52.173,cuing_paradigm_dot,2024.1.5,Win32,60.24096386,682d556593cb38ad0a074487,,,,,,,,,,,165.6327,166.131,,,166.3718,167.4806,left,,,,,,,,0.5,1.0908,,,,,,,166.1312,166.3716,167.4808,"[-0.00729163906685156,-0.1729933248598651]","[-1,-1,-1]","[0.06377599727156116,0.0008057475616003466]","[1,1,1]","[-0.016102977759428195,0.19133976688386817]","[-1,-1,-1]","[-0.01705819428764987,0.1436757572792629]","[-1,-1,-1]","[0.0011407749730901673,-0.0797276413271362]","[1,1,1]","[0.13401336607842956,-0.12395867235419718]","[-1,-1,-1]","[-0.1360914226374388,-0.06431532023423407]","[1,1,1]","[-0.08713475313330753,-0.008956956580636319]","[1,1,1]","[0.15328120833516418,0.016612550183597228]","[1,1,1]","[-0.07442664052738675,0.14610313648630271]","[1,1,1]","[0.08016664621809641,0.16682879488958358]","[-1,-1,-1]","[0.12243014651666702,-0.06822786206816103]","[1,1,1]","[0.18162146911907914,0.05694116317337652]","[-1,-1,-1]","[0.00542627568854053,-0.03576032252873314]","[1,1,1]","[0.0740379982179869,-0.055142665478218195]","[-1,-1,-1]","[-0.13247909982873365,-0.10937154602920814]","[-1,-1,-1]","[-0.03319399130155648,-0.13438870621838453]","[1,1,1]","[0.1335924113677474,0.054662883563060725]","[-1,-1,-1]","[-0.1333517531221466,0.13051849927874967]","[-1,-1,-1]","[-0.06897180867430021,0.1875137565601862]","[-1,-1,-1]","[-0.05317935594582706,0.06361864367591005]","[-1,-1,-1]","[0.038465027577127386,0.03699760206884305]","[1,1,1]","[0.02549531466628182,0.10855128750842442]","[1,1,1]","[-0.1714342357449175,0.03504044088227431]","[1,1,1]","[0.1463313418897145,0.09689738656520788]","[1,1,1]","[-0.07310349755773818,-0.09534631893317377]","[-1,-1,-1]","[-0.09541379294652734,0.098033690068083]","[-1,-1,-1]","[0.08685371648670953,0.055679493743921706]","[1,1,1]","[0.10520421162756878,-0.16299194864320124]","[-1,-1,-1]","[-0.05707158919419048,-0.18693770250200595]","[1,1,1]","[0.11081553609770935,0.015114599814889154]","[-1,-1,-1]","[0.043872811223135175,-0.1380178660431349]","[1,1,1]","[0.02,0.02]",168.5816,0,21,21,110,1,,,,,,,
,,,,,,,682634b74da614d118d7990e,682db39f429e8300156c69cb,2025-05-21_07h06.52.173,cuing_paradigm_dot,2024.1.5,Win32,60.24096386,682d556593cb38ad0a074487,,,,,,,,,,,168.583,169.0812,,,169.3341,169.9495,right,,,,,,,,0.6,0.5883,,,,,,,169.0818,169.3338,169.9497,"[0.12012143040456258,-0.05679704111750746]","[1,1,1]","[0.06110204131910533,0.1565378965312566]","[1,1,1]","[0.01316066478879294,0.06259500134206723]","[-1,-1,-1]","[-0.1923544302262151,0.024203574541146678]","[1,1,1]","[0.10980320008715373,0.07775221602271329]","[-1,-1,-1]","[0.13983567520092124,0.039602983298790764]","[-1,-1,-1]","[-0.018683686192353305,-0.012705477949441402]","[1,1,1]","[-0.1634046518739408,0.08257951653773943]","[-1,-1,-1]","[0.050268981167921264,0.0028651320940624244]","[1,1,1]","[0.178745491652595,-0.055290758751147064]","[-1,-1,-1]","[0.06107205458988631,-0.15267154522781357]","[-1,-1,-1]","[0.11017034108009985,-0.10927278114610939]","[1,1,1]","[-0.13160844033529256,0.05614821668236188]","[1,1,1]","[0.14775143341965472,0.1253144002599763]","[-1,-1,-1]","[-0.11533057653560548,-0.13230309182779046]","[-1,-1,-1]","[0.005621266816962673,0.124359576025416]","[-1,-1,-1]","[-0.090321950614715,0.023348182539137598]","[1,1,1]","[0.05936782169037093,-0.10734383693622014]","[-1,-1,-1]","[-0.040893931263361764,0.1445804753448186]","[1,1,1]","[0.11792561425444009,-0.010979373336028976]","[1,1,1]","[0.0026206136718916174,-0.19149951517889333]","[1,1,1]","[-0.04016095401497268,-0.17968991722954783]","[1,1,1]","[0.09013184754872014,0.024112708683189363]","[1,1,1]","[-0.14718206815089657,-0.09859739567580013]","[1,1,1]","[-0.07957046095436658,0.17720365895333864]","[-1,-1,-1]","[0.10053519165230287,-0.16689445538718028]","[1,1,1]","[-0.1330575385962656,-0.023329813742168266]","[-1,-1,-1]","[0.017341567989043277,-0.09248559020560544]","[1,1,1]","[-0.07731041622880541,-0.0211901951844807]","[1,1,1]","[-0.0818357039487725,0.09548772250364726]","[-1,-1,-1]","[-0.06475105509192408,-0.06064399536738731]","[1,1,1]","[0.0645143204832641,0.10094366595017516]","[1,1,1]","[0.02,0.02]",171.0493,0,22,22,154,1,,,,,,,
,,,,,,,682634b74da614d118d7990e,682db39f429e8300156c69cb,2025-05-21_07h06.52.173,cuing_paradigm_dot,2024.1.5,Win32,60.24096386,682d556593cb38ad0a074487,,,,,,,,,,,171.0516,171.549,,,171.8067,172.6349,left,,,,,,,,0.4,0.8117,,,,,,,171.5492,171.8066,172.635,"[-0.11069644856583657,-0.043017128749154504]","[1,1,1]","[-0.18986732340774568,-0.024492361839525394]","[-1,-1,-1]","[-0.12527378572051842,0.14040171507332122]","[1,1,1]","[0.055017104843117746,-0.030992709424605164]","[-1,-1,-1]","[-0.02817386872690271,0.01206597719163842]","[-1,-1,-1]","[-0.05344230932113503,0.15068339299076716]","[1,1,1]","[0.007917223275929667,-0.058825612022231105]","[-1,-1,-1]","[-0.06116834007567065,-0.14493099013073893]","[-1,-1,-1]","[0.12816251867415127,-0.12823499020710807]","[1,1,1]","[0.10093607591497479,-0.07116570569379825]","[-1,-1,-1]","[-0.033845237435244924,-0.10165474353773073]","[1,1,1]","[-0.06265248774791021,-0.05051408521018389]","[-1,-1,-1]","[0.11214179720012321,0.15778159541288342]","[-1,-1,-1]","[-0.1575826985327798,-0.09476309412043356]","[-1,-1,-1]","[0.17079287131274448,-0.03228599288073869]","[1,1,1]","[0.013197954421217595,0.13449438872147498]","[1,1,1]","[0.02909651285258193,0.005635338394924638]","[1,1,1]","[0.09400536057124922,0.02082871558835625]","[-1,-1,-1]","[0.03587506312697345,-0.19253595939341542]","[1,1,1]","[0.04484279090339589,-0.12534263411019558]","[-1,-1,-1]","[-0.1616370536459571,0.02472065074016858]","[-1,-1,-1]","[-0.1668683755730263,0.08771107867855697]","[-1,-1,-1]","[0.12777733075146305,0.0643593318052604]","[-1,-1,-1]","[-0.10180068753090002,-0.10811419377632255]","[1,1,1]","[0.04189409918808265,0.18607861401449557]","[-1,-1,-1]","[-0.03169222333086691,-0.18396406822514413]","[-1,-1,-1]","[-0.0861799020223498,0.0403993484132309]","[1,1,1]","[-0.06940481937542381,0.1129834725896979]","[-1,-1,-1]","[0.19507336181377016,0.019229632440048893]","[-1,-1,-1]","[0.07738424350943308,0.12207909941173298]","[-1,-1,-1]","[-0.0349865101698199,0.06904293227200752]","[1,1,1]","[0.1370313807686511,0.1245470848397147]","[1,1,1]","[0.02,0.02]",173.733,0,23,23,57,1,,,,,,,
,,,,,,,682634b74da614d118d7990e,682db39f429e8300156c69cb,2025-05-21_07h06.52.173,cuing_paradigm_dot,2024.1.5,Win32,60.24096386,682d556593cb38ad0a074487,,,,,,,,,,,173.7348,174.2337,,,174.4877,175.9834,,,,,,,,,0.6,,,,,,,,174.2339,174.4877,175.9836,"[-0.06587976890386833,0.14188072512307937]","[1,1,1]","[0.1472039327097953,-0.07152392654584981]","[-1,-1,-1]","[0.06566147434149092,0.05617625048679199]","[1,1,1]","[0.14939087247876193,0.12579349767764372]","[1,1,1]","[-0.18919971889542633,-0.025771519281657395]","[1,1,1]","[-0.11984307410579072,0.055602621133431014]","[1,1,1]","[0.05888656615618683,-0.010436062532554061]","[1,1,1]","[-0.09150275466850973,-0.02860934843272752]","[-1,-1,-1]","[0.04678503699728541,0.10053899506042147]","[-1,-1,-1]","[-0.1681243520373042,-0.07004211242683155]","[-1,-1,-1]","[-0.12774317196361948,0.1490692888813552]","[-1,-1,-1]","[0.016635893850550934,-0.07274846653797266]","[1,1,1]","[0.1286747765752372,0.08947665462454771]","[1,1,1]","[-0.028054921392448487,0.0621212969551513]","[1,1,1]","[0.02475391703801605,0.15375144720925069]","[-1,-1,-1]","[0.11548632901976456,-0.12299515133757667]","[1,1,1]","[-0.048053958047174036,-0.1319284133542666]","[1,1,1]","[-0.06982502102267782,0.07550239801498146]","[-1,-1,-1]","[0.18915039755209456,-0.04839824076083114]","[1,1,1]","[-0.1602857389454036,-0.11749615767883038]","[1,1,1]","[0.10928654273980185,0.147053264915985]","[-1,-1,-1]","[0.013196187419208479,-0.18782416484531075]","[-1,-1,-1]","[-0.1057165716987873,-0.10581284301781849]","[1,1,1]","[-0.08827782283466931,-0.15377701183939785]","[-1,-1,-1]","[0.13479206303988192,-0.006080048704660861]","[-1,-1,-1]","[-0.07675854056764646,0.029433711350277055]","[1,1,1]","[-0.16259873901026786,0.0986887048403711]","[-1,-1,-1]","[-0.016184820241890115,0.18961936636919988]","[1,1,1]","[0.06808064098687126,-0.05783664764777996]","[1,1,1]","[0.015532385261550987,0.07259696174015158]","[1,1,1]","[0.18501852734286298,0.023780387437473186]","[1,1,1]","[0.016888301743273142,0.0031008330359504803]","[-1,-1,-1]","[0.02,0.02]",177.0846,0,24,24,156,1,,,,,,,
,,,,,,,682634b74da614d118d7990e,682db39f429e8300156c69cb,2025-05-21_07h06.52.173,cuing_paradigm_dot,2024.1.5,Win32,60.24096386,682d556593cb38ad0a074487,,,,,,,,,,,177.0861,177.584,,,177.824,178.6346,right,,,,,,,,0.6,0.79,,,,,,,177.5842,177.8239,178.6349,"[-0.07594224366672415,-0.10754765015457193]","[1,1,1]","[-0.15686874857539299,-0.05779364545240711]","[1,1,1]","[0.08483347238753976,-0.013533393556254698]","[1,1,1]","[0.00847420601881763,-0.1108779583528731]","[1,1,1]","[-0.11039614694799967,-0.04125757318158521]","[1,1,1]","[-0.004859345740849368,-0.019173701930615388]","[-1,-1,-1]","[-0.061859241307398526,0.0612513790300802]","[-1,-1,-1]","[0.1628463238322681,-0.01692615277119146]","[1,1,1]","[-0.12102339111874837,-0.13306202755265747]","[1,1,1]","[-0.07574239388751362,-0.019628664739284703]","[-1,-1,-1]","[0.1505618596979255,-0.12831820988344783]","[-1,-1,-1]","[-0.04129354591500318,0.009953214365175751]","[-1,-1,-1]","[0.12375025729094503,-0.06863247475643423]","[-1,-1,-1]","[0.040720133040661334,0.05071601950215138]","[-1,-1,-1]","[-0.14484893546881966,0.07131815570688708]","[1,1,1]","[0.0302404458860571,-0.07310079674277219]","[1,1,1]","[-0.18198458905606538,0.034057960573651194]","[1,1,1]","[-0.07731499021189883,0.15393296145575938]","[-1,-1,-1]","[0.10799886794297239,0.11987260880426272]","[-1,-1,-1]","[-0.02169753839568015,0.163898025936937]","[-1,-1,-1]","[0.1076968546697648,-0.1086105036936803]","[1,1,1]","[-0.14229600234507228,-0.09894998770484967]","[-1,-1,-1]","[-0.015710842862655682,0.1238451849072069]","[1,1,1]","[0.0015130598466795218,-0.1543159015870311]","[1,1,1]","[0.06569016380258445,0.08335437921802427]","[-1,-1,-1]","[-0.02720374913637777,-0.08491799245570883]","[1,1,1]","[-0.14248659913991368,0.1354534577104655]","[1,1,1]","[0.1718318225366331,0.059029143892315984]","[1,1,1]","[-0.16854722151520773,-0.0063711044961429954]","[1,1,1]","[0.048117891966040355,0.14603834815669148]","[1,1,1]","[0.057024963270914775,-0.15838527567763616]","[1,1,1]","[-0.11166077236060808,0.03271788442002824]","[-1,-1,-1]","[0.02,0.02]",179.7348,0,25,25,150,1,,,,,,,
,,,,,,,682634b74da614d118d7990e,682db39f429e8300156c69cb,2025-05-21_07h06.52.173,cuing_paradigm_dot,2024.1.5,Win32,60.24096386,682d556593cb38ad0a074487,,,,,,,,,,,179.7366,180.2347,,,180.4866,181.152,left,,,,,,,,0.4,0.6387,,,,,,,180.235,180.4866,181.1523,"[-0.1711802511769118,0.004553634120415969]","[-1,-1,-1]","[0.15768236440768443,-0.04590325324724669]","[1,1,1]","[0.1388598345741127,0.09439574524300132]","[-1,-1,-1]","[0.033354871983913084,-0.18831368168358698]","[-1,-1,-1]","[-0.07874469372616823,-0.0758313427141237]","[1,1,1]","[-0.002224871848638548,-0.11065753505916759]","[-1,-1,-1]","[0.07598156982564444,-0.10952375771239818]","[-1,-1,-1]","[-0.1374899597585951,-0.06691089748553697]","[-1,-1,-1]","[0.11555501282186478,-0.08392961391150108]","[-1,-1,-1]","[0.0392371521693889,0.003116715118815579]","[-1,-1,-1]","[0.10576923199898146,0.06237215700137441]","[-1,-1,-1]","[-0.11618380851070002,0.005235010730560314]","[1,1,1]","[0.14301219291965314,0.04671559970192573]","[1,1,1]","[-0.0232853282161146,0.09650662902146796]","[-1,-1,-1]","[-0.11679477850877097,0.07069535868024014]","[1,1,1]","[0.05466160567828445,0.06428281581166444]","[1,1,1]","[0.08576576310239577,0.13213990564563516]","[1,1,1]","[-0.17903806991952523,-0.08727163906957223]","[-1,-1,-1]","[0.11638064166234871,-0.01340282212973639]","[1,1,1]","[-0.19382837906288417,0.04012475361386803]","[1,1,1]","[-0.18873831279421083,-0.035053508431723404]","[-1,-1,-1]","[0.09166093864524916,-0.15800276263582153]","[1,1,1]","[-0.04929669578810623,-0.14290962320215284]","[-1,-1,-1]","[-0.10018563100374943,-0.14759507490116042]","[-1,-1,-1]","[-0.1429324239547313,-0.13677779871275997]","[1,1,1]","[-0.015728127736392934,0.14920926534750947]","[-1,-1,-1]","[-0.1506706131925179,0.12397186686096719]","[1,1,1]","[0.08710962226445024,0.023165379834079364]","[-1,-1,-1]","[-0.027292812051285677,-0.19136756338009286]","[-1,-1,-1]","[-0.03105776367226726,-0.015588527508891038]","[-1,-1,-1]","[0.18628414508561053,-0.002618971662410825]","[-1,-1,-1]","[-0.0015585878721012228,0.03480509806623506]","[1,1,1]","[0.02,0.02]",182.2523,0,26,26,35,1,,,,,,,
,,,,,,,682634b74da614d118d7990e,682db39f429e8300156c69cb,2025-05-21_07h06.52.173,cuing_paradigm_dot,2024.1.5,Win32,60.24096386,682d556593cb38ad0a074487,,,,,,,,,,,182.2548,182.7585,,,183.0065,183.6361,left,,,,,,,,0.4,0.6072,,,,,,,182.7586,183.0063,183.6363,"[-0.019099851593483125,0.025010115113808653]","[-1,-1,-1]","[-0.19745024877113174,-0.003108840667394313]","[1,1,1]","[0.07222893115707911,-0.16855642169037055]","[1,1,1]","[-0.004333021876664273,0.08312370554192948]","[-1,-1,-1]","[-0.10486141181080821,-0.15729031281399988]","[-1,-1,-1]","[0.09834822042224488,0.1113120632648125]","[1,1,1]","[0.0712594890558654,-0.024892445196684012]","[-1,-1,-1]","[-0.07978962009464194,0.08629780017573058]","[1,1,1]","[-0.169005693189282,-0.043622041269440866]","[-1,-1,-1]","[-0.002226367833940939,-0.1630631209865466]","[1,1,1]","[0.13218371289503056,0.06012452926496812]","[-1,-1,-1]","[0.14394851317635496,-0.1023058655374965]","[1,1,1]","[-0.14182425990991,0.013457226555360116]","[-1,-1,-1]","[-0.12332403140436321,0.07495126508787803]","[1,1,1]","[0.06583921550219986,-0.12673547487550893]","[-1,-1,-1]","[0.1302917962585955,0.000816866426916304]","[-1,-1,-1]","[-0.07237206055538825,0.019644547971464272]","[-1,-1,-1]","[0.17072098379783382,-0.044849487933271925]","[-1,-1,-1]","[0.07098152895091185,0.06398359356553054]","[-1,-1,-1]","[-0.053684801804015816,-0.1862181074913012]","[1,1,1]","[-0.09096300179741995,0.15677394581681098]","[1,1,1]","[0.007454112237414227,-0.031101479279442408]","[-1,-1,-1]","[-0.03669353838162638,-0.11005523050244939]","[-1,-1,-1]","[-0.023922779586801647,0.19350115857821754]","[-1,-1,-1]","[-0.14818135154076917,-0.08370150501767819]","[-1,-1,-1]","[0.051430973692994854,0.18193573848608974]","[1,1,1]","[0.1482281914534439,0.11980720932820461]","[1,1,1]","[0.00554604747279981,-0.07412774906619117]","[1,1,1]","[0.0721855092204103,-0.07792324185721904]","[-1,-1,-1]","[-0.1859740102257191,0.06684051749645467]","[-1,-1,-1]","[0.17244973253308382,0.07583100361785611]","[1,1,1]","[0.11653530441943777,-0.15006683464441065]","[-1,-1,-1]","[0.02,0.02]",184.736,0,27,27,46,1,,,,,,,
,,,,,,,682634b74da614d118d7990e,682db39f429e8300156c69cb,2025-05-21_07h06.52.173,cuing_paradigm_dot,2024.1.5,Win32,60.24096386,682d556593cb38ad0a074487,,,,,,,,,,,184.7376,185.2367,,,185.4771,186.7705,left,,,,,,,,0.45,1.2756,,,,,,,185.237,185.477,186.7708,"[-0.11809469878183891,-0.1088205625486054]","[1,1,1]","[0.13664159074330626,0.04289043965220318]","[-1,-1,-1]","[0.12422569079933593,-0.04948346144821128]","[1,1,1]","[-0.005256937381661668,-0.05747408536108531]","[-1,-1,-1]","[0.0339041811056885,0.11269900809778184]","[-1,-1,-1]","[-0.13385137313139622,-0.06022231680522042]","[1,1,1]","[-0.15916006548957004,0.10302028482692302]","[-1,-1,-1]","[0.05907264115248097,-0.005673008596149963]","[1,1,1]","[-0.033425956719517105,-0.1357093551388302]","[1,1,1]","[0.08032941650664437,-0.17729683549293943]","[-1,-1,-1]","[-0.04675053756281414,0.15355033017052935]","[1,1,1]","[-0.05883464585678243,0.08937929580997597]","[-1,-1,-1]","[0.009801053978222944,0.05708923171193474]","[-1,-1,-1]","[-0.1070913041484994,-0.025981311250773305]","[1,1,1]","[0.043545767028321705,0.03226322066376212]","[-1,-1,-1]","[-0.14610163252941155,0.021456111410713973]","[1,1,1]","[0.0990835244568463,-0.10928615564119688]","[-1,-1,-1]","[0.043234211106290006,-0.11350266168332586]","[-1,-1,-1]","[0.11149789319787788,0.13229574732263785]","[1,1,1]","[-0.08753307421427227,0.11740538572247686]","[-1,-1,-1]","[-0.08067957661033598,0.0374607421318964]","[-1,-1,-1]","[-0.09406945776542364,0.17081771913838567]","[-1,-1,-1]","[-0.08302531211548131,-0.14210992319263474]","[1,1,1]","[-0.15163521925965517,-0.02359465131151487]","[-1,-1,-1]","[0.003369160215075707,-0.016517942197919674]","[1,1,1]","[0.16571171376347388,-0.07865435419413568]","[-1,-1,-1]","[-0.035313820394928,0.022693370775711538]","[-1,-1,-1]","[0.14503020879442888,0.0031460540947922076]","[1,1,1]","[-0.06992363675970405,-0.00280215039446543]","[1,1,1]","[-0.08509869351877014,-0.06893703054750898]","[-1,-1,-1]","[0.0961670770551911,0.09189583110903005]","[-1,-1,-1]","[0.037482873327398566,0.1722926769634934]","[1,1,1]","[0.02,0.02]",187.875,0,28,28,80,1,,,,,,,
,,,,,,,682634b74da614d118d7990e,682db39f429e8300156c69cb,2025-05-21_07h06.52.173,cuing_paradigm_dot,2024.1.5,Win32,60.24096386,682d556593cb38ad0a074487,,,,,,,,,,,187.8757,188.3705,,,188.6112,189.1783,left,,,,,,,,0.5,0.5515,,,,,,,188.3706,188.6111,189.1786,"[0.1528755398723378,0.11746170760982483]","[1,1,1]","[0.0604563066993471,0.015178749552032458]","[-1,-1,-1]","[-0.13383413697678603,-0.09494879584882072]","[1,1,1]","[-0.038632249505179225,-0.1138226600386166]","[1,1,1]","[-0.049401020338931005,0.16607348280357406]","[1,1,1]","[0.03366071919559689,0.12742623946630285]","[1,1,1]","[0.016165446363637054,-0.0023081149059162617]","[-1,-1,-1]","[0.13823686493159915,-0.06747705274926426]","[-1,-1,-1]","[-0.1080195508219952,0.12654955758661815]","[-1,-1,-1]","[-0.10368794439525104,-0.01159016515547199]","[1,1,1]","[0.14328899908642903,0.07391417055189127]","[1,1,1]","[-0.02646624525196351,0.01784929751050459]","[1,1,1]","[-0.008459919548463155,-0.1893266601155711]","[-1,-1,-1]","[0.08681493740931076,-0.12788596296293317]","[1,1,1]","[-0.03650025700156173,-0.05099327979690666]","[-1,-1,-1]","[-0.08927960277144277,0.06250818362950518]","[-1,-1,-1]","[-0.13481986016767053,0.05318982070560065]","[1,1,1]","[-0.08101730077231636,-0.06846895797950174]","[-1,-1,-1]","[0.010773047859394348,0.07785965890989399]","[1,1,1]","[0.15537294971012525,-0.01716843530187636]","[-1,-1,-1]","[0.11454487005597962,-0.034068744952233006]","[1,1,1]","[-0.00746844124555171,0.16530743636800058]","[-1,-1,-1]","[-0.15915173333628801,0.09737922081087987]","[-1,-1,-1]","[0.06054710861874438,-0.07496319866627214]","[-1,-1,-1]","[0.15683532468008987,0.02776153180616006]","[-1,-1,-1]","[0.06075144054670367,-0.19005057413754356]","[-1,-1,-1]","[-0.14846869768590992,-0.025320252889278805]","[-1,-1,-1]","[0.023643057916145477,-0.15299230343967596]","[1,1,1]","[0.05091963605503671,0.09004966597927819]","[1,1,1]","[0.10182276554687905,0.05162359759567058]","[-1,-1,-1]","[0.0172522876908328,-0.1104032506852388]","[1,1,1]","[0.09455403111981787,0.1315670770412406]","[1,1,1]","[0.02,0.02]",190.2702,0,29,29,99,1,,,,,,,
,,,,,,,682634b74da614d118d7990e,682db39f429e8300156c69cb,2025-05-21_07h06.52.173,cuing_paradigm_dot,2024.1.5,Win32,60.24096386,682d556593cb38ad0a074487,,,,,,,,,,,190.2724,190.7704,,,191.0122,191.5381,left,,,,,,,,0.1,0.5073,,,,,,,190.771,191.0121,191.5385,"[0.13320755239267498,-0.09027995533607108]","[-1,-1,-1]","[-0.10217766729003984,-0.11251375993033189]","[-1,-1,-1]","[-0.059056592141792374,-0.12309086160550857]","[-1,-1,-1]","[-0.005015531730779462,-0.028660351810782886]","[-1,-1,-1]","[0.1703936253512705,-0.012537807594015956]","[-1,-1,-1]","[0.02646457929270224,0.017627723000226848]","[-1,-1,-1]","[-0.013277556874313255,-0.09227323795132417]","[-1,-1,-1]","[-0.007731682396215505,-0.15669374423078128]","[-1,-1,-1]","[-0.1301563926430938,0.019805630998202414]","[-1,-1,-1]","[-0.006620319575630264,0.04140107231395808]","[-1,-1,-1]","[-0.07602462750905484,-0.04856660369952193]","[-1,-1,-1]","[-0.011739192735134022,0.1619524677912674]","[-1,-1,-1]","[-0.19069480554422824,-0.024893939631205588]","[-1,-1,-1]","[0.06619000142617618,0.07248198090144574]","[1,1,1]","[-0.0737082021605013,-0.1610257207597857]","[-1,-1,-1]","[-0.09321813521576998,0.14381096113588027]","[-1,-1,-1]","[-0.0698825500949033,0.07505906189877944]","[-1,-1,-1]","[0.09197859118968697,-0.0649901461685993]","[-1,-1,-1]","[0.09737084015298399,0.012323301562111097]","[1,1,1]","[0.046261012105899176,0.18377927307754327]","[-1,-1,-1]","[0.03298073443404374,-0.044059365831826715]","[-1,-1,-1]","[-0.08846912420379736,0.03793104778895116]","[-1,-1,-1]","[0.08323020839933817,-0.1748929831828209]","[-1,-1,-1]","[0.04283387972235868,-0.11514804788147089]","[-1,-1,-1]","[-0.10729435145805973,0.10533305011035808]","[-1,-1,-1]","[-0.153048305367672,0.09405493058632482]","[-1,-1,-1]","[-0.039285323179287214,-0.18733794124302364]","[-1,-1,-1]","[-0.15417782582388348,-0.09114930050941589]","[-1,-1,-1]","[0.04857311201626417,0.11430502981868486]","[1,1,1]","[0.12420251664504733,0.13815736082651642]","[-1,-1,-1]","[0.018681994399039593,-0.1937686977634718]","[-1,-1,-1]","[0.18090483692449932,-0.057246727952648714]","[-1,-1,-1]","[0.02,0.02]",192.6389,0,30,30,18,1,,,,,,,
,,,,,,,682634b74da614d118d7990e,682db39f429e8300156c69cb,2025-05-21_07h06.52.173,cuing_paradigm_dot,2024.1.5,Win32,60.24096386,682d556593cb38ad0a074487,,,,,,,,,,,192.6408,193.1377,,,193.3789,194.3721,right,,,,,,,,0.5,0.9716,,,,,,,193.1378,193.3788,194.3723,"[-0.005503500220633623,-0.07918651293561993]","[1,1,1]","[-0.15835682149454888,-0.0022857562839064998]","[1,1,1]","[-0.10917630991246871,-0.05226389518297551]","[-1,-1,-1]","[0.08328697002055892,-0.15160403830351357]","[1,1,1]","[-0.056952846650054234,-0.13319829393493177]","[1,1,1]","[0.16787706211160738,0.023586094766108172]","[-1,-1,-1]","[0.031423219472260386,-0.15907872485433533]","[1,1,1]","[-0.14940634255919114,0.11690962998601369]","[-1,-1,-1]","[-0.004785709364217461,0.01835427460923009]","[-1,-1,-1]","[-0.051864005257731355,-0.06409731433675961]","[1,1,1]","[-0.011902771918094902,0.06919598128670434]","[-1,-1,-1]","[0.0199757439780513,0.19815775355726]","[-1,-1,-1]","[0.10287318251173516,-0.05212942991182116]","[1,1,1]","[0.053576076802476065,0.1682048160304184]","[1,1,1]","[0.18358668176327902,-0.03798127392093834]","[-1,-1,-1]","[-0.18134751268323415,-0.05592953683649894]","[1,1,1]","[-0.0850800663087441,-0.16374372552666883]","[1,1,1]","[-0.16432310908226994,-0.09977334442206437]","[1,1,1]","[-0.07070688039669291,0.042990769654108724]","[1,1,1]","[-0.13941352303140306,0.05922776449725332]","[-1,-1,-1]","[0.15383623305692792,-0.08183733647430079]","[-1,-1,-1]","[-0.11202300010033876,0.08933776717884495]","[-1,-1,-1]","[0.06525917208752134,-0.10055490849403988]","[1,1,1]","[-0.17773524002332278,0.08378939867340335]","[-1,-1,-1]","[-0.029748814348582394,0.14316124477154807]","[-1,-1,-1]","[0.13803727858061696,0.09432668384819765]","[-1,-1,-1]","[0.05619584092763971,-0.0600486160286929]","[1,1,1]","[0.06045626841580243,0.12173863195175426]","[1,1,1]","[-0.05144713459625929,0.18452755070235993]","[-1,-1,-1]","[0.11878958033403089,-0.10714134037943125]","[-1,-1,-1]","[-0.030344612772578335,-0.1817829120796749]","[-1,-1,-1]","[-0.19897951591402602,0.008877986884263708]","[1,1,1]","[0.02,0.02]",195.4724,0,31,31,94,1,,,,,,,
,,,,,,,682634b74da614d118d7990e,682db39f429e8300156c69cb,2025-05-21_07h06.52.173,cuing_paradigm_dot,2024.1.5,Win32,60.24096386,682d556593cb38ad0a074487,,,,,,,,,,,195.4742,195.9724,,,196.2231,197.2725,left,,,,,,,,0.6,1.0348,,,,,,,195.9726,196.223,197.2726,"[-0.004730730084536437,-0.16050660011991075]","[-1,-1,-1]","[0.1464946487814895,0.040700184947932976]","[-1,-1,-1]","[0.08026999878699162,-0.13163741525955042]","[1,1,1]","[-0.0918838545890098,0.022933105576919192]","[-1,-1,-1]","[0.10188956519474272,-0.023868429091018353]","[-1,-1,-1]","[0.1866501300619274,0.03608840186041156]","[1,1,1]","[0.0032574321570412205,0.043022242322435664]","[1,1,1]","[-0.048652343498252176,-0.00920970061885465]","[1,1,1]","[0.1324031117518892,0.13475385076777083]","[-1,-1,-1]","[0.07304594510220999,0.16984402135987164]","[-1,-1,-1]","[-0.14851906260726236,-0.0016458091724608896]","[1,1,1]","[0.022443707052034217,-0.04541637098053548]","[1,1,1]","[-0.05758403249443614,0.16814546087018806]","[1,1,1]","[0.035482015588563294,-0.15401920362235352]","[1,1,1]","[-0.15385912791352085,-0.08991627351878625]","[-1,-1,-1]","[0.11505770483354484,-0.10136293499931395]","[1,1,1]","[-0.07473699987306502,-0.13423093397791158]","[-1,-1,-1]","[0.08013288646858903,0.08015020014963127]","[1,1,1]","[0.12431527517680295,0.0743824500744778]","[1,1,1]","[-0.05565715546083876,-0.05193512975835606]","[1,1,1]","[-0.17896928240168022,0.078884389311259]","[1,1,1]","[-0.06539124034161072,0.05393805697961873]","[-1,-1,-1]","[-0.09811025493244084,0.14708778306057377]","[1,1,1]","[-0.016711612995619574,0.17976014842525628]","[1,1,1]","[0.15559195936487002,-0.10274966058185651]","[1,1,1]","[0.020426324880932253,-0.1922726745783048]","[-1,-1,-1]","[-0.022316920391196357,0.11278275676301991]","[-1,-1,-1]","[0.17670623126560453,-0.057263177310653286]","[1,1,1]","[-0.19157012259405978,-0.020746987354549287]","[1,1,1]","[-0.12075197695591758,0.10633023747527286]","[-1,-1,-1]","[-0.044057480419653176,-0.18480762320801558]","[-1,-1,-1]","[-0.03546850651637562,-0.10330120928787617]","[1,1,1]","[0.02,0.02]",198.3711,0,32,32,155,1,,,,,,,
,,,,,,,682634b74da614d118d7990e,682db39f429e8300156c69cb,2025-05-21_07h06.52.173,cuing_paradigm_dot,2024.1.5,Win32,60.24096386,682d556593cb38ad0a074487,,,,,,,,,,,198.3715,198.873,,,199.1277,199.7434,left,,,,,,,,0.5,0.5962,,,,,,,198.873,199.1275,199.7436,"[0.07379836161121685,-0.05329746299017919]","[1,1,1]","[0.14846160271032985,0.021687442180654257]","[-1,-1,-1]","[0.08278015979430511,0.08016929362617085]","[-1,-1,-1]","[-0.03526847459707074,0.07239068590006732]","[1,1,1]","[-0.04970363404483985,-0.051124663665450404]","[1,1,1]","[0.06947704336336925,0.16495303527704908]","[1,1,1]","[0.1239422692849209,-0.02334846894211864]","[1,1,1]","[-0.07240026293647592,0.010318849077640014]","[-1,-1,-1]","[0.10625223775104792,-0.09717501389801554]","[-1,-1,-1]","[-0.10203769941794977,0.10644138913516357]","[-1,-1,-1]","[0.02497359285324963,-0.04582381129342872]","[1,1,1]","[-0.052196593398312695,0.13264487956031787]","[-1,-1,-1]","[0.0321688008680397,-0.09132405913995191]","[1,1,1]","[-0.03972388308148789,-0.10896697727780004]","[1,1,1]","[-0.030030032597979706,-0.15359666707418634]","[1,1,1]","[0.0038930725919674508,0.086640155940344]","[-1,-1,-1]","[0.18625174067023736,0.03855304095118717]","[-1,-1,-1]","[0.05962334223490749,0.026520045376290758]","[-1,-1,-1]","[0.09551887152546129,-0.1550058626935276]","[-1,-1,-1]","[-0.14350509867550862,-0.09135500835530698]","[1,1,1]","[-0.045197992838885426,-0.19272934541969836]","[-1,-1,-1]","[-0.02489841229351613,0.17648256349506117]","[1,1,1]","[-0.11429101015970969,-0.1308440243013187]","[-1,-1,-1]","[0.12215518883749585,0.1527606387498799]","[-1,-1,-1]","[-0.18802774564485245,0.01301957650772175]","[1,1,1]","[-0.12654718543517715,0.1534928130069179]","[1,1,1]","[0.03652673492081557,0.05994128494596221]","[1,1,1]","[0.0380471016969066,0.19495859229755275]","[-1,-1,-1]","[0.01929387581048233,0.0022188922141551807]","[-1,-1,-1]","[-0.010555267112318117,0.04053663272443774]","[1,1,1]","[-0.07494083226048838,-0.1615496167078309]","[-1,-1,-1]","[0.13271916314349932,0.11071030941489991]","[1,1,1]","[0.02,0.02]",200.8399,0,33,33,102,1,,,,,,,
,,,,,,,682634b74da614d118d7990e,682db39f429e8300156c69cb,2025-05-21_07h06.52.173,cuing_paradigm_dot,2024.1.5,Win32,60.24096386,682d556593cb38ad0a074487,,,,,,,,,,,200.8426,201.3399,,,201.5912,202.1903,left,,,,,,,,0.4,0.5856,,,,,,,201.3401,201.5911,202.1907,"[0.053569640406279026,-0.02108181303985305]","[1,1,1]","[0.15313101125771855,0.053479580828195615]","[-1,-1,-1]","[0.1497711354236443,-0.0190149198497841]","[1,1,1]","[0.12470991096040772,-0.05117725580821699]","[1,1,1]","[0.1498765895938192,-0.11851189576688376]","[-1,-1,-1]","[0.09732816748865428,0.02392428530374044]","[1,1,1]","[0.07080837261775133,-0.0954593123742896]","[-1,-1,-1]","[0.04964361823399414,-0.17248219187443095]","[1,1,1]","[-0.08808495875492298,-0.14329792502628072]","[-1,-1,-1]","[-0.15521874808167904,0.06715225957096924]","[-1,-1,-1]","[-0.08253561266729044,0.07075311045905376]","[-1,-1,-1]","[-0.043803756496215616,0.04829820649893841]","[-1,-1,-1]","[0.0020935079162660926,0.09287700609987903]","[1,1,1]","[0.02956040093353011,0.18322997146167452]","[-1,-1,-1]","[-0.013175901702025594,-0.01788014287052531]","[-1,-1,-1]","[0.07084439502557807,0.09392675718519895]","[1,1,1]","[-0.12371156149627564,-0.04624259696163269]","[-1,-1,-1]","[-0.11859100058724215,-0.0014940548668243281]","[1,1,1]","[0.1085239407532267,0.07174236931771771]","[1,1,1]","[-0.015719684674795436,0.17516241489573436]","[-1,-1,-1]","[-0.12866669413510579,0.09924052279460331]","[-1,-1,-1]","[0.16326713499163062,0.10995152388625429]","[1,1,1]","[0.053267772864263915,0.1358986190479137]","[-1,-1,-1]","[-0.014349964190151708,-0.07073783490264259]","[1,1,1]","[-0.18513176326891675,0.02221757108754302]","[-1,-1,-1]","[0.021159823290264276,-0.13049898562852982]","[1,1,1]","[-0.15949596162457905,-0.00946215525114359]","[-1,-1,-1]","[-0.1414862476509467,-0.12783893512680955]","[-1,-1,-1]","[-0.1804940049848685,-0.07077614799168805]","[-1,-1,-1]","[-0.08004394692929413,0.15824536077610585]","[-1,-1,-1]","[-0.03350316670458331,-0.17455592237373174]","[1,1,1]","[-0.03327924133163056,-0.1313323127853535]","[-1,-1,-1]","[0.02,0.02]",203.2904,0,34,34,45,1,,,,,,,
,,,,,,,682634b74da614d118d7990e,682db39f429e8300156c69cb,2025-05-21_07h06.52.173,cuing_paradigm_dot,2024.1.5,Win32,60.24096386,682d556593cb38ad0a074487,,,,,,,,,,,203.292,203.7906,,,204.0443,204.9414,left,,,,,,,,0.6,0.8824,,,,,,,203.7908,204.0441,204.9417,"[-0.06859755787656029,-0.024803950775227217]","[1,1,1]","[-0.07020266951296904,0.03547954169085414]","[1,1,1]","[-0.007747330025631303,-0.1280532698144387]","[1,1,1]","[-0.14655943271138394,-0.10360617948450053]","[1,1,1]","[0.048422180564648,0.1777086946240054]","[1,1,1]","[0.05183458142490853,-0.06888023412476418]","[-1,-1,-1]","[-0.12043746190624635,-0.06461384718185484]","[1,1,1]","[-0.09762699434393318,0.1579176656739063]","[-1,-1,-1]","[0.12923074269821663,0.03427403808214568]","[1,1,1]","[0.047025982644836,-0.021123355892365962]","[1,1,1]","[0.14984897278265596,-0.06528243108441235]","[1,1,1]","[-0.1888039632430397,-0.03863280728397073]","[1,1,1]","[0.08450311896264069,0.05320333885644769]","[-1,-1,-1]","[0.03257176908857705,0.04969475886606273]","[1,1,1]","[-0.12552363329039243,0.09220538672002598]","[-1,-1,-1]","[0.15836719041990896,0.10698425691423143]","[1,1,1]","[0.12520658289017628,-0.14987885319922878]","[-1,-1,-1]","[-0.003049874169783932,0.15932085358841516]","[-1,-1,-1]","[-0.03259315586632747,-0.05497101515875513]","[-1,-1,-1]","[0.10934116335248827,-0.10028864831647562]","[-1,-1,-1]","[-0.03478904525172498,0.08040337626479606]","[1,1,1]","[-0.11973126057073785,-0.0038695322442111307]","[-1,-1,-1]","[0.17013315884973965,0.028487580859537173]","[1,1,1]","[-0.16253713331042594,0.06966069735223396]","[-1,-1,-1]","[0.07551183383441447,0.0945499298436219]","[-1,-1,-1]","[-0.09798592514614936,-0.11750923321055776]","[-1,-1,-1]","[0.09168080497871807,-0.008502868054819706]","[1,1,1]","[-0.053742051203892575,0.16205301638887812]","[-1,-1,-1]","[0.029923093818766705,0.1340155992204712]","[1,1,1]","[0.04670500716356178,-0.16787195854465284]","[1,1,1]","[-0.004668677475524506,0.012993089562864678]","[1,1,1]","[0.11852751162239528,0.13621512482090514]","[1,1,1]","[0.02,0.02]",206.0416,0,35,35,171,1,,,,,,,
,,,,,,,682634b74da614d118d7990e,682db39f429e8300156c69cb,2025-05-21_07h06.52.173,cuing_paradigm_dot,2024.1.5,Win32,60.24096386,682d556593cb38ad0a074487,,,,,,,,,,,206.0428,206.5416,,,206.7994,207.6328,right,,,,,,,,0.55,0.8181,,,,,,,206.5417,206.7993,207.6331,"[0.07999503037392597,0.1576957722041259]","[-1,-1,-1]","[0.0441205352390592,-0.09794599869407472]","[1,1,1]","[-0.014203205374780125,0.09301732335201637]","[1,1,1]","[0.1221736669527921,0.05799720978024052]","[-1,-1,-1]","[-0.09393169659796158,-0.14899093735997515]","[-1,-1,-1]","[0.11415871270852444,0.008714242018487186]","[-1,-1,-1]","[-0.123991530048535,-0.07105088126578983]","[1,1,1]","[0.07230888693201319,0.07937076495148528]","[1,1,1]","[0.09307882055565588,-0.1379442360342287]","[1,1,1]","[0.15778582227961208,0.0803368627780327]","[1,1,1]","[-0.15018848982057112,-0.10767031815685688]","[1,1,1]","[0.013159394199295267,-0.05481400307707318]","[1,1,1]","[0.021447529806126873,0.04394792021738859]","[1,1,1]","[-0.041174023646625695,-0.1146683843009718]","[1,1,1]","[0.05549960583791351,-0.17874291290774477]","[1,1,1]","[0.021628965361525834,0.12097534263434348]","[-1,-1,-1]","[-0.1520578546498283,0.03151211705873512]","[-1,-1,-1]","[-0.05955402789927345,0.16585574347834078]","[1,1,1]","[0.1460065413240178,-0.10976056221494428]","[1,1,1]","[-0.014761593287323037,0.020387515669514765]","[-1,-1,-1]","[0.08009530814430112,-0.03226732289569798]","[-1,-1,-1]","[-0.10945037759576666,0.03392422616251406]","[-1,-1,-1]","[-0.18244244279119615,0.06623543951244112]","[-1,-1,-1]","[0.16916226020275107,-0.0025620429093306816]","[-1,-1,-1]","[-0.01117286380272198,0.15650540897793475]","[-1,-1,-1]","[0.011679621685290601,-0.19830471101017555]","[1,1,1]","[0.12849973319922675,-0.02968052165589121]","[1,1,1]","[-0.027431227332934353,-0.03397639345981719]","[-1,-1,-1]","[-0.12148269262179635,0.0798203773026184]","[-1,-1,-1]","[0.0029670980444317548,-0.10337576167887229]","[1,1,1]","[0.027715618778391606,0.19384296273010704]","[1,1,1]","[0.10731017773158578,0.10296443291999816]","[1,1,1]","[0.02,0.02]",208.7255,0,36,36,135,1,,,,,,,
,,,,,,,682634b74da614d118d7990e,682db39f429e8300156c69cb,2025-05-21_07h06.52.173,cuing_paradigm_dot,2024.1.5,Win32,60.24096386,682d556593cb38ad0a074487,,,,,,,,,,,208.7277,209.2265,,,209.4833,210.2105,right,,,,,,,,0.4,0.7088,,,,,,,209.2267,209.4831,210.2107,"[-0.06563654365438633,0.13527852367487586]","[1,1,1]","[0.14796832907526553,-0.10875384106346979]","[1,1,1]","[-0.1396401977992327,0.1296987589881563]","[1,1,1]","[0.01401199167577219,-0.03496631627119373]","[-1,-1,-1]","[0.0971168909327755,-0.014258835993874449]","[1,1,1]","[0.11484230962053027,0.047131410650867685]","[-1,-1,-1]","[0.09035577576450714,-0.0980864878409312]","[1,1,1]","[0.1944575490271296,-0.027790508675988496]","[1,1,1]","[0.02685037304128346,0.07663463738583684]","[-1,-1,-1]","[0.11240767051199022,-0.1639250953011438]","[-1,-1,-1]","[-0.17273754916679504,-0.07914099252215788]","[1,1,1]","[-0.04662005438178494,-0.050555491506176026]","[-1,-1,-1]","[0.03700915489613226,0.03483408313996593]","[-1,-1,-1]","[0.12526402734515957,0.1210362508143192]","[1,1,1]","[0.003158050503058168,0.17255555667908715]","[-1,-1,-1]","[-0.11307169297538405,-0.06132020674579014]","[-1,-1,-1]","[0.007091122577650321,-0.1730833356476754]","[-1,-1,-1]","[0.051435808950455734,-0.05432403449647356]","[-1,-1,-1]","[-0.16349353288570062,0.04854024551144198]","[-1,-1,-1]","[-0.08557098324650528,0.09285536851947161]","[-1,-1,-1]","[-0.12754878441384496,-0.10702151992140184]","[-1,-1,-1]","[-0.02643557230027581,0.020025242388414622]","[1,1,1]","[-0.19451058501057245,-0.008170597799026192]","[-1,-1,-1]","[-0.004326319399985711,-0.11831419267439697]","[-1,-1,-1]","[-0.134216655941443,-0.0017423244921890868]","[1,1,1]","[-0.1300098026462651,0.0721271146813484]","[1,1,1]","[0.054833420462131195,-0.1803350025254289]","[1,1,1]","[-0.028521497686961383,-0.15021250814758721]","[-1,-1,-1]","[-0.016842051955333892,0.10561938549229037]","[-1,-1,-1]","[0.09010962341292139,0.09615044579907436]","[-1,-1,-1]","[0.029716312021708824,0.13328719022064445]","[1,1,1]","[0.16436604809947453,0.017107359017558815]","[-1,-1,-1]","[0.02,0.02]",211.3106,0,37,37,48,1,,,,,,,
,,,,,,,682634b74da614d118d7990e,682db39f429e8300156c69cb,2025-05-21_07h06.52.173,cuing_paradigm_dot,2024.1.5,Win32,60.24096386,682d556593cb38ad0a074487,,,,,,,,,,,211.3125,211.8101,,,212.0615,213.0843,left,,,,,,,,0.1,1.0013,,,,,,,211.8103,212.0614,213.0843,"[0.053991372028827984,-0.08669077559392095]","[-1,-1,-1]","[-0.10753429447634388,0.06396115790844879]","[-1,-1,-1]","[-0.06688041025245595,0.0027769707347330423]","[-1,-1,-1]","[-0.13587024247574495,-0.13868006559823304]","[-1,-1,-1]","[0.1171847524489622,0.019568944220199492]","[-1,-1,-1]","[-0.09041834565828856,-0.11648499558564647]","[-1,-1,-1]","[0.04345665056502676,-0.031033965093889247]","[-1,-1,-1]","[0.15570134743791728,0.03919981045018587]","[-1,-1,-1]","[-0.028055191425280686,-0.1509183895606692]","[-1,-1,-1]","[-0.14869646327698566,0.003132071541255737]","[-1,-1,-1]","[-0.15220810098274987,0.10459159780656595]","[1,1,1]","[0.01573736534303199,-0.13681216677191438]","[-1,-1,-1]","[-0.13934977875470544,0.14271951654524292]","[-1,-1,-1]","[-0.0016420915140776,-0.1974517350039856]","[1,1,1]","[0.09143674561501107,0.15275410786900614]","[-1,-1,-1]","[-0.10853142319974089,-0.03412700704222049]","[1,1,1]","[-0.007507812307666514,0.19977274589886557]","[-1,-1,-1]","[0.04320028504255719,0.13075372776109465]","[-1,-1,-1]","[0.06012003081234308,-0.14165070410627242]","[-1,-1,-1]","[-0.007882074269886656,0.08947283047087576]","[-1,-1,-1]","[0.11338269779319375,0.09968786577916722]","[-1,-1,-1]","[-0.009913888851950539,-0.007697433172118814]","[-1,-1,-1]","[0.06089234480291377,0.011339128966910667]","[-1,-1,-1]","[-0.16204532965423252,-0.08754635429616732]","[-1,-1,-1]","[0.17840559295646094,-0.07227456075576359]","[-1,-1,-1]","[-0.07293601776618579,0.1451165070760926]","[-1,-1,-1]","[-0.05354795293587071,0.05750352978200269]","[-1,-1,-1]","[-0.009509728243810044,-0.08983811659386368]","[-1,-1,-1]","[0.13014790245684216,-0.07530738742791242]","[-1,-1,-1]","[-0.06790878213138066,-0.05223024681771699]","[-1,-1,-1]","[0.040567862601170006,0.18856619333088773]","[-1,-1,-1]","[-0.1862808927139115,0.04181558078187728]","[-1,-1,-1]","[0.02,0.02]",214.1805,0,38,38,4,1,,,,,,,
,,,,,,,682634b74da614d118d7990e,682db39f429e8300156c69cb,2025-05-21_07h06.52.173,cuing_paradigm_dot,2024.1.5,Win32,60.24096386,682d556593cb38ad0a074487,,,,,,,,,,,214.1817,214.6775,,,214.927,216.0114,left,,,,,,,,0.55,1.0713,,,,,,,214.6778,214.927,216.0116,"[0.15310641798846092,-0.008664492612037654]","[1,1,1]","[-0.11049960546229208,0.08093132730734738]","[1,1,1]","[-0.05057401245138121,-0.14169084849574232]","[-1,-1,-1]","[0.10645424376740638,-0.08857870982721917]","[1,1,1]","[-0.042972453132269946,0.08460308993074124]","[-1,-1,-1]","[-0.0939998031814509,0.0001305293885830053]","[-1,-1,-1]","[-0.12812561336885253,0.13503860278723195]","[1,1,1]","[0.038049898432013035,-0.017302521711322093]","[1,1,1]","[0.17990611260777792,-0.04853803967599035]","[1,1,1]","[-0.027259438817467486,0.1446137137959019]","[-1,-1,-1]","[-0.12324015540767266,-0.11874308215740018]","[1,1,1]","[-0.025103872320277568,-0.03608241269564085]","[1,1,1]","[0.17843321896726222,0.06830536288844155]","[-1,-1,-1]","[-0.015071513842485238,-0.11758815839186476]","[1,1,1]","[0.11240813325304463,0.06338571463996495]","[1,1,1]","[-0.07358525316724641,-0.08574408836485822]","[-1,-1,-1]","[-0.09756788272283487,-0.17330245452242135]","[1,1,1]","[0.056072641492974834,0.11124340749933381]","[1,1,1]","[0.0032815102487837693,0.199160552685422]","[1,1,1]","[-0.06914749339536905,0.11695365168626015]","[-1,-1,-1]","[-0.05018405232418397,0.021814888183369255]","[-1,-1,-1]","[0.09195840100177365,0.007560401826715334]","[1,1,1]","[0.03365985299174606,0.17214969699048802]","[-1,-1,-1]","[0.11708322382014168,0.10846043704893221]","[1,1,1]","[-0.1668296129992419,0.06586651185259819]","[-1,-1,-1]","[0.14171597635403552,0.030991056035911475]","[1,1,1]","[0.10176883316698865,0.15126883718419692]","[-1,-1,-1]","[-0.1711532393880087,0.009519686081707853]","[-1,-1,-1]","[-0.08378040860529322,-0.04478795299448848]","[-1,-1,-1]","[0.056518091676113116,-0.1854814703719033]","[-1,-1,-1]","[0.18600774898116626,0.02383888264116419]","[1,1,1]","[0.020395983707333146,-0.09022998623403852]","[1,1,1]","[0.02,0.02]",217.1123,0,39,39,126,1,,,,,,,
,,,,,,,682634b74da614d118d7990e,682db39f429e8300156c69cb,2025-05-21_07h06.52.173,cuing_paradigm_dot,2024.1.5,Win32,60.24096386,682d556593cb38ad0a074487,,,,,,,,,,,217.1145,217.6116,,,217.8698,218.8143,right,,,,,,,,0.4,0.9294,,,,,,,217.612,217.8698,218.8146,"[0.06288575820297991,0.17411020451801862]","[-1,-1,-1]","[0.09434155164684083,0.12493418522972019]","[1,1,1]","[0.006807626304612756,0.12778834004763576]","[-1,-1,-1]","[-0.114531754670774,0.04239063762694163]","[-1,-1,-1]","[-0.14797978079916568,-0.022469632085451895]","[1,1,1]","[0.1717626454891292,-0.07543251107344373]","[1,1,1]","[-0.16352157495603903,0.043044030649696044]","[1,1,1]","[-0.011328848398123183,0.062299958248186356]","[-1,-1,-1]","[0.16565557407752945,0.10206740373787752]","[-1,-1,-1]","[0.04064307152900557,0.07343018807766453]","[1,1,1]","[-0.05361277280294735,0.149313246077744]","[-1,-1,-1]","[0.12081985890905428,-0.05483721566333759]","[-1,-1,-1]","[-0.03860188585299877,-0.016929989505782166]","[1,1,1]","[-0.05853621609730792,0.08728166650651949]","[-1,-1,-1]","[0.06140996613269567,-0.18617723493612848]","[1,1,1]","[-0.008418448814182144,-0.1282382323340188]","[1,1,1]","[-0.07214035888364721,-0.05987182359092154]","[1,1,1]","[-0.12304465087236058,0.11557257431466648]","[-1,-1,-1]","[0.059375992669652294,-0.10648203019416598]","[-1,-1,-1]","[0.16104234617402277,-0.03573700523405139]","[1,1,1]","[0.15074857132167455,0.04438227993862999]","[-1,-1,-1]","[-0.1078860587906831,-0.14590159927763344]","[-1,-1,-1]","[-0.0678386535330122,-0.12091463336661261]","[-1,-1,-1]","[0.0747714806386682,-0.02022363540733011]","[-1,-1,-1]","[0.058728502727863445,0.03283642028486843]","[-1,-1,-1]","[0.14955737684418183,-0.12938661351491998]","[-1,-1,-1]","[-0.03953265034530303,-0.17239942179727255]","[-1,-1,-1]","[-0.019482494055469608,0.19686041127138243]","[1,1,1]","[0.10081082851850896,0.02986720917222884]","[-1,-1,-1]","[0.19965814008511953,-0.006345766305131049]","[-1,-1,-1]","[-0.09780692991252846,0.15642611405403764]","[1,1,1]","[0.023945065660422492,-0.16750239494793953]","[1,1,1]","[0.02,0.02]",219.9184,0,40,40,36,1,,,,,,,
,,,,,,,682634b74da614d118d7990e,682db39f429e8300156c69cb,2025-05-21_07h06.52.173,cuing_paradigm_dot,2024.1.5,Win32,60.24096386,682d556593cb38ad0a074487,,,,,,,,,,,219.9198,220.4134,,,220.6664,221.5967,left,,,,,,,,0.6,0.9055,,,,,,,220.4136,220.6662,221.5972,"[0.14209025136511527,0.03207696054474466]","[-1,-1,-1]","[0.010524389850318831,0.005855270542522783]","[1,1,1]","[0.041811728599116214,-0.13744469520275324]","[1,1,1]","[-0.06391716742547987,0.0789822855642987]","[1,1,1]","[0.08155683993836305,-0.05070286159374864]","[-1,-1,-1]","[0.04217474569157378,-0.0719203190013462]","[1,1,1]","[0.07974507008860628,0.05797680985093751]","[1,1,1]","[-0.09474919191984511,0.13205327316555016]","[1,1,1]","[0.18980396212262565,-0.03506310245927467]","[-1,-1,-1]","[-0.026436916759022964,-0.12149760787809512]","[-1,-1,-1]","[0.131187219850388,-0.13848595376739778]","[1,1,1]","[-0.1421720667099841,-0.0914560781541875]","[1,1,1]","[0.07677767982595507,0.1198051389537105]","[-1,-1,-1]","[0.07878066530285793,-0.11028613961586425]","[1,1,1]","[-0.09488882313441302,-0.03896029135621977]","[-1,-1,-1]","[-0.04088788644028305,-0.07905513507260226]","[-1,-1,-1]","[0.1652405988104843,0.09898813688297552]","[-1,-1,-1]","[-0.01973226384386813,-0.17337073405105535]","[1,1,1]","[-0.09393736652030708,-0.1696088372401262]","[1,1,1]","[-0.06051023699750876,0.03449976536031041]","[-1,-1,-1]","[-0.04561182124746465,-0.024629440596876245]","[1,1,1]","[0.14348446743409182,-0.08768941799927549]","[-1,-1,-1]","[-0.014155228251875285,0.14908156693913407]","[-1,-1,-1]","[0.056079202658640935,0.1743104217287381]","[-1,-1,-1]","[-0.1944350150071802,0.02551032996751062]","[-1,-1,-1]","[-0.18597855009331873,-0.06358250314793763]","[1,1,1]","[-0.08000840906722922,0.17732038404791098]","[1,1,1]","[-0.11012127517341537,-0.0007420347038923477]","[1,1,1]","[-0.10407821932643152,0.0426149799682806]","[1,1,1]","[0.1902689280586338,0.007451875035642238]","[1,1,1]","[0.11988725370940392,-0.00666562790533732]","[1,1,1]","[0.03828260598219871,-0.19262342780367314]","[1,1,1]","[0.02,0.02]",222.6958,0,41,41,159,1,,,,,,,
,,,,,,,682634b74da614d118d7990e,682db39f429e8300156c69cb,2025-05-21_07h06.52.173,cuing_paradigm_dot,2024.1.5,Win32,60.24096386,682d556593cb38ad0a074487,,,,,,,,,,,222.6977,223.1962,,,223.437,223.9313,left,,,,,,,,0.45,0.4727,,,,,,,223.1965,223.4368,223.9316,"[-0.09938227745672018,0.1314774042434646]","[-1,-1,-1]","[0.08346553962716328,0.07045235412715026]","[-1,-1,-1]","[-0.05150939091679239,0.004014164620250919]","[-1,-1,-1]","[0.11988262362284868,-0.13007003481695514]","[-1,-1,-1]","[-0.028240772768870402,-0.13060866534150917]","[1,1,1]","[-0.0047132787164108625,0.13583712220962654]","[-1,-1,-1]","[-0.1464937437535962,0.0033582310589042154]","[1,1,1]","[-0.06172565748923767,-0.05157715787420425]","[1,1,1]","[-0.12962743519183423,-0.11307922225195947]","[-1,-1,-1]","[0.07227648347381085,-0.11196734299897745]","[1,1,1]","[-0.10452096660506216,0.0048560777670179035]","[1,1,1]","[0.034491476743360505,-0.044222629232251356]","[-1,-1,-1]","[0.10475641247494948,-0.021262128301871523]","[-1,-1,-1]","[-0.14499295437970433,0.06468783206435293]","[-1,-1,-1]","[0.041888331557439214,0.04307729865733022]","[1,1,1]","[0.012842429584622722,-0.138542512809959]","[1,1,1]","[0.14651677973197255,-0.026283689743630507]","[1,1,1]","[0.025118389240509235,-0.09265689564616357]","[1,1,1]","[0.12947492630738125,0.07600041403726708]","[-1,-1,-1]","[-0.05188187146815543,-0.18309492856781812]","[1,1,1]","[-0.026344516312102592,-0.08877643391097233]","[1,1,1]","[0.005792289627721603,0.07852385473911337]","[-1,-1,-1]","[-0.11476399652179663,-0.07519866421509737]","[-1,-1,-1]","[0.1788750094400064,-0.002172192746185937]","[1,1,1]","[0.06925780148056047,-0.15369169611817154]","[-1,-1,-1]","[0.1387596496926504,0.02308095500772868]","[-1,-1,-1]","[-0.08161475566210213,0.05255903740078028]","[1,1,1]","[-0.009164777702381471,-0.005249591473497894]","[-1,-1,-1]","[0.1079660827571038,-0.0636416059391696]","[-1,-1,-1]","[-0.007899805647400697,0.18629722767989657]","[1,1,1]","[0.02862555182090024,0.16238676524856283]","[-1,-1,-1]","[0.17146525284270456,-0.10285519569396649]","[-1,-1,-1]","[0.02,0.02]",225.0305,0,42,42,73,1,,,,,,,
,,,,,,,682634b74da614d118d7990e,682db39f429e8300156c69cb,2025-05-21_07h06.52.173,cuing_paradigm_dot,2024.1.5,Win32,60.24096386,682d556593cb38ad0a074487,,,,,,,,,,,225.0325,225.5305,,,225.7814,226.7139,right,,,,,,,,0.9,0.9169,,,,,,,225.5307,225.7812,226.7143,"[-0.08295896379166554,0.0699407964411409]","[1,1,1]","[-0.16785147388813965,-0.01985389984025676]","[1,1,1]","[0.1323819902531645,0.06303200956192323]","[1,1,1]","[0.13892630493890715,0.12473863423511722]","[1,1,1]","[-0.006125781037874908,-0.05160350778823533]","[1,1,1]","[-0.05144789354220982,-0.1636023206692797]","[1,1,1]","[0.08296177149716762,-0.13730996936909534]","[1,1,1]","[0.035817202901915014,0.03879821637493841]","[1,1,1]","[-0.1123201245022349,-0.1130231411821169]","[1,1,1]","[-0.01592428351478016,0.024851772997189568]","[1,1,1]","[0.10763493491249336,-0.09955870793399672]","[-1,-1,-1]","[0.17437794745120913,-0.032550040920545954]","[-1,-1,-1]","[-0.1588334559830346,0.07641050568124769]","[1,1,1]","[-0.0828982309335215,-0.00013357069673111145]","[1,1,1]","[0.018205344533862747,0.09199397887142008]","[1,1,1]","[-0.018925126206665515,0.15221519185067758]","[1,1,1]","[0.09302751758547731,0.1362658333750948]","[1,1,1]","[-0.09566029228492288,0.15919889239442825]","[1,1,1]","[-0.09662981353368064,-0.048831752700692906]","[1,1,1]","[0.11875459454736606,-0.021923000315479127]","[1,1,1]","[0.022096893289398168,-0.18950739567799188]","[-1,-1,-1]","[0.02893167544906935,-0.1453631442928119]","[1,1,1]","[-0.048469035838494386,-0.02300598115371991]","[1,1,1]","[0.021453838581382372,0.13838405877081378]","[1,1,1]","[-0.05156348357205574,-0.10433713281773761]","[1,1,1]","[0.07345564973798448,-0.031061274393460913]","[1,1,1]","[0.1802778432568892,0.034763380313332544]","[1,1,1]","[0.06867994417876931,-0.1875429884973927]","[1,1,1]","[-0.1598268389191723,-0.07405379401569939]","[1,1,1]","[-0.12974149378056163,0.10663019284712733]","[1,1,1]","[0.08995750621968661,0.17836459464297807]","[1,1,1]","[-0.0503658152993155,0.10529539479563646]","[1,1,1]","[0.02,0.02]",227.8128,0,43,43,180,1,,,,,,,
,,,,,,,682634b74da614d118d7990e,682db39f429e8300156c69cb,2025-05-21_07h06.52.173,cuing_paradigm_dot,2024.1.5,Win32,60.24096386,682d556593cb38ad0a074487,,,,,,,,,,,227.8133,228.3135,,,228.5564,229.9563,left,,,,,,,,0.4,1.3852,,,,,,,228.3138,228.5563,229.9566,"[0.058709752175579506,-0.016468883282552825]","[-1,-1,-1]","[-0.10364629877870322,-0.13580033370020753]","[-1,-1,-1]","[-0.005232271334450049,-0.13423692787192282]","[1,1,1]","[0.09333721287957242,0.17249734668865915]","[-1,-1,-1]","[-0.14438834985463195,0.0418207540858656]","[1,1,1]","[0.14659427012223777,0.008186815405418688]","[1,1,1]","[0.1322441742086415,0.10904960356392163]","[1,1,1]","[0.13178119495024157,-0.1152021316421322]","[-1,-1,-1]","[0.07255246768257166,-0.12380641448451908]","[-1,-1,-1]","[-0.13237481842980672,-0.006503968448728361]","[-1,-1,-1]","[0.04257643979121564,0.04188017877936945]","[-1,-1,-1]","[0.12896374965041285,-0.03235701142746525]","[-1,-1,-1]","[-0.1547009213946026,-0.06970537342434341]","[1,1,1]","[-0.03100543242812495,-0.016297513683286635]","[1,1,1]","[-0.0968622754225947,0.04227674409951531]","[-1,-1,-1]","[0.008073882829261789,-0.06827797133668859]","[-1,-1,-1]","[-0.09781854120356638,0.12997829478414114]","[-1,-1,-1]","[0.18407249332224615,-0.03955557076865071]","[-1,-1,-1]","[-0.14720844392227592,0.1069642177324359]","[1,1,1]","[-0.19123335519542423,-0.023354876152633795]","[-1,-1,-1]","[0.15547522774750924,0.0673802103427737]","[1,1,1]","[0.19529206466545893,0.00019272448015641774]","[-1,-1,-1]","[-0.036184265862891765,-0.06701309190141015]","[-1,-1,-1]","[0.1593952376360411,-0.0824517287917456]","[-1,-1,-1]","[-0.0070126316219576304,0.11233053032159042]","[-1,-1,-1]","[0.08446133521212301,-0.08473739668934772]","[1,1,1]","[0.03963238533688677,0.16115909843659382]","[1,1,1]","[-0.03626422883527837,0.05951362038995948]","[1,1,1]","[0.016482908177615496,-0.016751755731016813]","[1,1,1]","[-0.062429092172624906,-0.1781790294648219]","[-1,-1,-1]","[0.09376673161116231,-0.16382693384904037]","[-1,-1,-1]","[0.043966689309187325,0.0988552462293691]","[1,1,1]","[0.02,0.02]",231.0553,0,44,44,43,1,,,,,,,
