right,left,explain.started,explain.stopped,key_resp_3.keys,key_resp_3.rt,key_resp_3.duration,participant,session,date,expName,psychopyVersion,OS,frameRate,study_id,explain_2.started,explain_2.stopped,key_resp_4.keys,key_resp_4.rt,key_resp_4.duration,explain_3.started,explain_3.stopped,key_resp_5.keys,key_resp_5.rt,key_resp_5.duration,fixation.started,fixation.stopped,practice.started,practice.stopped,response.started,response.stopped,key_resp.keys,feedback.started,feedback.stopped,trials_2.thisRepN,trials_2.thisTrialN,trials_2.thisN,trials_2.thisIndex,trials_2.ran,white_ratio,key_resp.rt,key_resp.duration,explain_4.started,explain_4.stopped,key_resp_6.keys,key_resp_6.rt,key_resp_6.duration,dotDisplay.started,dotDisplay.stopped,ITI.started,polygon_1.pos,polygon_1.color,polygon_2.pos,polygon_2.color,polygon_3.pos,polygon_3.color,polygon_4.pos,polygon_4.color,polygon_5.pos,polygon_5.color,polygon_6.pos,polygon_6.color,polygon_7.pos,polygon_7.color,polygon_8.pos,polygon_8.color,polygon_9.pos,polygon_9.color,polygon_10.pos,polygon_10.color,polygon_11.pos,polygon_11.color,polygon_12.pos,polygon_12.color,polygon_13.pos,polygon_13.color,polygon_14.pos,polygon_14.color,polygon_15.pos,polygon_15.color,polygon_16.pos,polygon_16.color,polygon_17.pos,polygon_17.color,polygon_18.pos,polygon_18.color,polygon_19.pos,polygon_19.color,polygon_20.pos,polygon_20.color,polygon_21.pos,polygon_21.color,polygon_22.pos,polygon_22.color,polygon_23.pos,polygon_23.color,polygon_24.pos,polygon_24.color,polygon_25.pos,polygon_25.color,polygon_26.pos,polygon_26.color,polygon_27.pos,polygon_27.color,polygon_28.pos,polygon_28.color,polygon_29.pos,polygon_29.color,polygon_30.pos,polygon_30.color,polygon_31.pos,polygon_31.color,polygon_32.pos,polygon_32.color,dot_size,ITI.stopped,trials.thisRepN,trials.thisTrialN,trials.thisN,trials.thisIndex,trials.ran,break_2.started,break_2.stopped,trials_3.thisRepN,trials_3.thisTrialN,trials_3.thisN,trials_3.thisIndex,trials_3.ran
subject chose black,subject chose white,0.0004,184.1444,space,169.1192,,682cada06e96e8a828a90ee2,682f1017f572c1c0528d9f0d,2025-05-22_13h56.10.564,cuing_paradigm_dot,2024.1.5,Win32,59.88023952,682d573fa47f1360d1451895,,,,,,,,,,,,,,,,,,,,,,,,,,,,,,,,,,,,,,,,,,,,,,,,,,,,,,,,,,,,,,,,,,,,,,,,,,,,,,,,,,,,,,,,,,,,,,,,,,,,,,,,,,,,,,,,,
,,,,,,,682cada06e96e8a828a90ee2,682f1017f572c1c0528d9f0d,2025-05-22_13h56.10.564,cuing_paradigm_dot,2024.1.5,Win32,59.88023952,682d573fa47f1360d1451895,184.1448,234.3108,space,20.1457,,,,,,,,,,,,,,,,,,,,,,,,,,,,,,,,,,,,,,,,,,,,,,,,,,,,,,,,,,,,,,,,,,,,,,,,,,,,,,,,,,,,,,,,,,,,,,,,,,,,,,,,,,,,,
,,,,,,,682cada06e96e8a828a90ee2,682f1017f572c1c0528d9f0d,2025-05-22_13h56.10.564,cuing_paradigm_dot,2024.1.5,Win32,59.88023952,682d573fa47f1360d1451895,,,,,,234.311,243.9108,space,6.579,,,,,,,,,,,,,,,,,,,,,,,,,,,,,,,,,,,,,,,,,,,,,,,,,,,,,,,,,,,,,,,,,,,,,,,,,,,,,,,,,,,,,,,,,,,,,,,,,,,,,,,,
,,,,,,,682cada06e96e8a828a90ee2,682f1017f572c1c0528d9f0d,2025-05-22_13h56.10.564,cuing_paradigm_dot,2024.1.5,Win32,59.88023952,682d573fa47f1360d1451895,,,,,,,,,,,243.9311,244.4273,244.4276,244.6776,244.6778,246.1773,,246.1774,247.2773,0,0,0,1,1,0.2,,,,,,,,,,,,,,,,,,,,,,,,,,,,,,,,,,,,,,,,,,,,,,,,,,,,,,,,,,,,,,,,,,,,,,,,,,,,,,,,,,,,,,,,
,,,,,,,682cada06e96e8a828a90ee2,682f1017f572c1c0528d9f0d,2025-05-22_13h56.10.564,cuing_paradigm_dot,2024.1.5,Win32,59.88023952,682d573fa47f1360d1451895,,,,,,,,,,,247.2779,247.777,247.7772,248.0275,248.0275,248.5773,left,248.5773,249.6772,0,1,1,0,1,0.8,0.5381,,,,,,,,,,,,,,,,,,,,,,,,,,,,,,,,,,,,,,,,,,,,,,,,,,,,,,,,,,,,,,,,,,,,,,,,,,,,,,,,,,,,,,,
,,,,,,,682cada06e96e8a828a90ee2,682f1017f572c1c0528d9f0d,2025-05-22_13h56.10.564,cuing_paradigm_dot,2024.1.5,Win32,59.88023952,682d573fa47f1360d1451895,,,,,,,,,,,,,,,,,,,,,,,,,,,,249.6775,254.2441,space,1.5483,,,,,,,,,,,,,,,,,,,,,,,,,,,,,,,,,,,,,,,,,,,,,,,,,,,,,,,,,,,,,,,,,,,,,,,,,,,,,,,,,,
,,,,,,,682cada06e96e8a828a90ee2,682f1017f572c1c0528d9f0d,2025-05-22_13h56.10.564,cuing_paradigm_dot,2024.1.5,Win32,59.88023952,682d573fa47f1360d1451895,,,,,,,,,,,254.2586,254.7604,,,255.0112,256.3272,right,,,,,,,,0.1,1.3066,,,,,,,254.7608,255.011,256.3277,"[0.006497363370858394,0.11021055821686795]","[-1,-1,-1]","[-0.06358158388802196,0.1401673986487394]","[-1,-1,-1]","[-0.026848245429706416,0.007245709161974048]","[-1,-1,-1]","[-0.08541906736251341,-0.11756983930388298]","[-1,-1,-1]","[-0.05973619560655213,0.07169817278678157]","[1,1,1]","[-0.14404546630472018,-0.06686333448796064]","[-1,-1,-1]","[0.015965441104468236,0.1801557918399967]","[-1,-1,-1]","[0.11341750050206208,-0.1446324432316449]","[-1,-1,-1]","[0.06797769972073,0.06517113961966567]","[-1,-1,-1]","[-0.10728575629204165,0.10550281084225598]","[-1,-1,-1]","[-0.06921991392515922,-0.07109785660240253]","[-1,-1,-1]","[0.07607081285755456,0.11512989944656962]","[-1,-1,-1]","[0.01993094185026283,0.03480267756812865]","[-1,-1,-1]","[-0.01346453825224478,-0.14934435640398552]","[-1,-1,-1]","[0.15762984468929522,0.05345695089884523]","[-1,-1,-1]","[-0.002361660653095977,-0.18840277075074627]","[-1,-1,-1]","[-0.18644924644038036,0.00459689785315686]","[-1,-1,-1]","[-0.1656171331942144,0.06746148969577428]","[1,1,1]","[0.038365957344616765,-0.07790767969817293]","[-1,-1,-1]","[-0.008557625943913391,-0.094114581249549]","[1,1,1]","[-0.15415202273519335,-0.12436317659069068]","[-1,-1,-1]","[0.16935892536959973,-0.09286230004179599]","[-1,-1,-1]","[0.11651591113934277,0.01001337112505577]","[-1,-1,-1]","[0.08333234114682853,0.18163893336824052]","[-1,-1,-1]","[0.18437389611375893,0.0037849818622399073]","[-1,-1,-1]","[-0.033820877947592115,0.18110070050337265]","[-1,-1,-1]","[0.10921520796381325,0.07974692900236471]","[-1,-1,-1]","[0.04780426336729775,-0.12220066971817672]","[-1,-1,-1]","[-0.0972339883126004,-0.025374878125401453]","[-1,-1,-1]","[0.06497092753874355,-0.01053308133988873]","[-1,-1,-1]","[0.16742320645124692,0.10668695058578036]","[-1,-1,-1]","[-0.013893731621784273,-0.03338450102794226]","[-1,-1,-1]","[0.02,0.02]",257.4273,0,0,0,16,1,,,,,,,
,,,,,,,682cada06e96e8a828a90ee2,682f1017f572c1c0528d9f0d,2025-05-22_13h56.10.564,cuing_paradigm_dot,2024.1.5,Win32,59.88023952,682d573fa47f1360d1451895,,,,,,,,,,,257.4277,257.9271,,,258.1774,258.9605,left,,,,,,,,0.45,0.7648,,,,,,,257.9272,258.1774,258.9605,"[-0.06481241427275485,0.10804310414675782]","[-1,-1,-1]","[0.018665934760496918,-0.0022501540470690213]","[-1,-1,-1]","[0.12116638858253063,-0.09809495906288657]","[-1,-1,-1]","[0.07670768844454247,-0.11134271331474284]","[-1,-1,-1]","[-0.09252069430118688,-0.15495191133804423]","[-1,-1,-1]","[-0.12891478428184447,-0.12168874466672275]","[1,1,1]","[-0.004255227881529074,0.11994977973690496]","[1,1,1]","[-0.086703608638992,-0.06722781681227132]","[-1,-1,-1]","[0.06890191738204272,0.03155101334915486]","[-1,-1,-1]","[-0.11058246583922403,0.050910944816496266]","[-1,-1,-1]","[-0.01849803140500115,-0.15575799806444082]","[-1,-1,-1]","[0.017875955291055606,-0.1170101207664877]","[1,1,1]","[0.1919535362532246,-0.0151897075772245]","[-1,-1,-1]","[0.10496041334023187,-0.16260753871112327]","[-1,-1,-1]","[0.09258485946793076,-0.06493765781529327]","[-1,-1,-1]","[0.011624709032321457,0.0746073831623993]","[-1,-1,-1]","[0.11558411431219627,0.06834967495955695]","[1,1,1]","[0.10338254458125677,-0.018517057361112452]","[1,1,1]","[-0.18602343414285621,-0.012862325157386797]","[1,1,1]","[-0.17483996882094713,0.08083340828098283]","[1,1,1]","[-0.03442787953941283,-0.0901368576342247]","[1,1,1]","[0.16493720016129226,0.09542688143094877]","[-1,-1,-1]","[0.030713798226444603,0.17504023757375745]","[1,1,1]","[-0.028047904684149444,0.08208968844667561]","[1,1,1]","[-0.05494458158052126,0.03841527319404334]","[-1,-1,-1]","[0.05824597891266944,-0.025924184677297134]","[-1,-1,-1]","[-0.1423100525955049,-0.07258019288578102]","[1,1,1]","[0.08069610420566045,0.1180961026403563]","[1,1,1]","[0.19071376135586812,0.029844151029893223]","[1,1,1]","[0.12734315341095076,0.1512812494390044]","[-1,-1,-1]","[-0.02770857228343945,-0.02476856683216715]","[-1,-1,-1]","[-0.0749721562897984,-0.016550979594009523]","[1,1,1]","[0.02,0.02]",260.0604,0,1,1,66,1,,,,,,,
,,,,,,,682cada06e96e8a828a90ee2,682f1017f572c1c0528d9f0d,2025-05-22_13h56.10.564,cuing_paradigm_dot,2024.1.5,Win32,59.88023952,682d573fa47f1360d1451895,,,,,,,,,,,260.0607,260.5604,,,260.8107,261.8105,right,,,,,,,,0.1,0.9818,,,,,,,260.5605,260.8107,261.8107,"[-0.0785491745036467,-0.03312714692302843]","[-1,-1,-1]","[-0.17204997598049238,0.045638187751000016]","[-1,-1,-1]","[-0.19683429341645192,-0.03156837567900176]","[-1,-1,-1]","[0.07758325219951091,-0.18376434799546926]","[-1,-1,-1]","[-0.0485328672731251,0.14280333147327057]","[-1,-1,-1]","[0.16006477848550013,0.049956933736427296]","[-1,-1,-1]","[0.1099456444638504,-0.06789919495720938]","[-1,-1,-1]","[0.009428209112273014,-0.004883654824013098]","[1,1,1]","[0.16282329943369026,-0.014638003564861817]","[-1,-1,-1]","[0.03295615147405119,-0.1679757417235952]","[-1,-1,-1]","[-0.16378276129890113,-0.08667884382215858]","[-1,-1,-1]","[0.004575001300277935,0.07249023485633539]","[-1,-1,-1]","[0.006342542982793528,-0.0970074808437635]","[-1,-1,-1]","[0.09153984230233131,0.09335263529318805]","[1,1,1]","[0.03752856564720434,0.09705800599408934]","[1,1,1]","[0.17307155972979166,0.09907100108791757]","[-1,-1,-1]","[-0.13227083992470956,-0.1357568365094235]","[-1,-1,-1]","[-0.14002429225237664,-0.035786536345791466]","[-1,-1,-1]","[0.09297241971795665,0.1419630457809285]","[-1,-1,-1]","[-0.08592008956374324,-0.1087618789342662]","[-1,-1,-1]","[0.1490064135371568,-0.11662667422241985]","[-1,-1,-1]","[-0.1502423007810597,0.12049608169503903]","[-1,-1,-1]","[-0.05901348877987157,0.02626187395505372]","[-1,-1,-1]","[0.07467915590216109,-0.008283704961662811]","[-1,-1,-1]","[0.05936285022460315,-0.07726497263384471]","[-1,-1,-1]","[0.10883378806641372,0.03596560020827718]","[-1,-1,-1]","[-0.014609674578236871,-0.1867641982668365]","[-1,-1,-1]","[-0.02137175513207866,-0.06608119264381603]","[-1,-1,-1]","[-0.07591804583145162,-0.17762504151346978]","[-1,-1,-1]","[0.04765464229432777,0.13838167873590354]","[-1,-1,-1]","[-0.11575407481109541,0.1534004440153449]","[-1,-1,-1]","[-0.06945684506127357,0.17708565903092377]","[-1,-1,-1]","[0.02,0.02]",262.9104,0,2,2,22,1,,,,,,,
,,,,,,,682cada06e96e8a828a90ee2,682f1017f572c1c0528d9f0d,2025-05-22_13h56.10.564,cuing_paradigm_dot,2024.1.5,Win32,59.88023952,682d573fa47f1360d1451895,,,,,,,,,,,262.9109,263.4105,,,263.6607,264.1772,left,,,,,,,,0.9,0.4981,,,,,,,263.4106,263.6606,264.1772,"[0.0092710649674491,0.18331383116151193]","[1,1,1]","[-0.15500350025779364,-0.07507196462133477]","[1,1,1]","[0.04769373071388579,0.057023957643045]","[-1,-1,-1]","[0.0591667571079045,-0.024405567405965927]","[1,1,1]","[0.015218604871256867,-0.06177788974799504]","[-1,-1,-1]","[0.07355605743778729,0.18285102886944535]","[1,1,1]","[0.046017735582725226,0.1504282991416168]","[1,1,1]","[0.12326666579875904,-0.051508466372643995]","[1,1,1]","[0.13657136342375367,0.10604271169784356]","[1,1,1]","[-0.0011884224553425225,0.03404440620541554]","[-1,-1,-1]","[0.03342213371192026,-0.13840251253485727]","[1,1,1]","[0.030793526802581933,-0.1807304147611065]","[1,1,1]","[0.15683661071914273,-0.11859493400703541]","[1,1,1]","[0.11406727447603666,-0.15640980852463657]","[1,1,1]","[-0.016615095790464603,-0.1993062924443953]","[1,1,1]","[-0.08682481600692743,0.16089935296031646]","[1,1,1]","[-0.04803976552643221,-0.05537172440736172]","[1,1,1]","[0.17697003319262283,0.06582072599343017]","[1,1,1]","[-0.13353336568109184,-0.041222064299872685]","[1,1,1]","[-0.07721780287846954,-0.13753392712386317]","[1,1,1]","[-0.04062594864982988,0.12369759462800071]","[1,1,1]","[0.10291285068253184,-0.09354595000438569]","[1,1,1]","[0.0956822555361791,0.029493438691325143]","[1,1,1]","[0.11388400266616709,0.06750504182370945]","[1,1,1]","[0.10248366520252533,0.13925840723074082]","[1,1,1]","[-0.1629474441501969,0.018380345424359738]","[1,1,1]","[-0.04007370122352522,-0.10505537345410917]","[1,1,1]","[-0.04158165679307117,0.05113652760015857]","[1,1,1]","[0.17737504180465707,0.018412500102254023]","[1,1,1]","[-0.14047420591473903,0.09259061565213439]","[1,1,1]","[0.07477449139521301,0.10286197817248986]","[1,1,1]","[-0.11170831675908331,-0.16478426032783666]","[1,1,1]","[0.02,0.02]",265.2771,0,3,3,201,1,,,,,,,
,,,,,,,682cada06e96e8a828a90ee2,682f1017f572c1c0528d9f0d,2025-05-22_13h56.10.564,cuing_paradigm_dot,2024.1.5,Win32,59.88023952,682d573fa47f1360d1451895,,,,,,,,,,,265.2775,265.7771,,,266.0274,266.7272,left,,,,,,,,0.6,0.6898,,,,,,,265.7772,266.0273,266.7273,"[-0.08443318443608361,0.08791547590686388]","[1,1,1]","[0.08856119860622091,-0.15075068878702622]","[-1,-1,-1]","[-0.11013600464230631,0.03345354274975036]","[-1,-1,-1]","[0.03417702204408351,-0.19005969914181023]","[1,1,1]","[-0.007225611000086758,-0.059174058704191373]","[1,1,1]","[0.15108202224558587,-0.11716865458030358]","[1,1,1]","[-0.14664379875516234,-0.1082082703406345]","[1,1,1]","[-0.003294395748078727,-0.13356872411434578]","[-1,-1,-1]","[0.16384524428456904,0.027526167469411916]","[1,1,1]","[0.07030097806001,0.046576624881400575]","[1,1,1]","[0.1301097020703231,0.0804344229516422]","[1,1,1]","[-0.04106100994334672,0.12175903120413344]","[1,1,1]","[0.0071877653007176474,0.10189260223713588]","[-1,-1,-1]","[-0.06406677046470559,-0.1295175054542594]","[1,1,1]","[0.14080156057113347,0.12206444244426465]","[-1,-1,-1]","[0.0011356830900383838,0.04491223179511998]","[1,1,1]","[0.09214768116717391,0.006705767625460195]","[-1,-1,-1]","[-0.14079271446688613,0.1281722518504906]","[1,1,1]","[0.0555540508236125,-0.07559406312260371]","[1,1,1]","[-0.07783152602530401,0.1699813032442162]","[-1,-1,-1]","[0.08687206371867956,0.13649170838518263]","[1,1,1]","[-0.039676620655713375,-0.1695290481133807]","[-1,-1,-1]","[0.0023340281294469425,0.15970286506576314]","[-1,-1,-1]","[-0.16711556911838896,-0.05640941147689927]","[1,1,1]","[0.02638402692953492,0.1941574440271099]","[1,1,1]","[0.14905492947548565,-0.03845065360526087]","[-1,-1,-1]","[0.05289567103429794,-0.12063923473133327]","[1,1,1]","[0.09747205552286312,-0.11010788093619511]","[-1,-1,-1]","[0.045118818088587816,0.13374106651225906]","[1,1,1]","[-0.0684962513393212,-0.059191531824600165]","[1,1,1]","[-0.0198980992897764,-0.00901749997965389]","[-1,-1,-1]","[-0.0342737692270229,0.06591549529897726]","[-1,-1,-1]","[0.02,0.02]",267.8271,0,4,4,169,1,,,,,,,
,,,,,,,682cada06e96e8a828a90ee2,682f1017f572c1c0528d9f0d,2025-05-22_13h56.10.564,cuing_paradigm_dot,2024.1.5,Win32,59.88023952,682d573fa47f1360d1451895,,,,,,,,,,,267.8275,268.3272,,,268.5775,269.0939,left,,,,,,,,0.9,0.508,,,,,,,268.3272,268.5774,269.094,"[0.09316546390478744,0.08982031093678268]","[1,1,1]","[-0.03176159277124109,0.19712992445283561]","[1,1,1]","[-0.13054852198102362,0.09637324692465088]","[1,1,1]","[0.027379774070604747,0.13188402088503087]","[-1,-1,-1]","[0.11587093976212566,0.14725669934505425]","[1,1,1]","[0.15464246118452013,-0.1241041876084503]","[1,1,1]","[0.016437439568353935,0.06206933199489438]","[1,1,1]","[-0.08328776408957421,0.16891569644497226]","[1,1,1]","[0.13315659060334065,0.03295311416496965]","[1,1,1]","[-0.0034596384312342685,-0.09230721604448673]","[1,1,1]","[0.15572575763045343,-0.024916197550712317]","[1,1,1]","[0.1624457978139561,-0.07347528940549784]","[-1,-1,-1]","[-0.19119111031707178,-0.019652758771828326]","[1,1,1]","[-0.07350205928378262,-0.18274077142838935]","[1,1,1]","[-0.11469815266224902,0.14024048567731348]","[1,1,1]","[0.026330893069227625,-0.024301154151988986]","[1,1,1]","[-0.02389784919129379,0.031309910913167496]","[1,1,1]","[-0.0716739877206394,0.07666906414339408]","[1,1,1]","[-0.12546209507953998,-0.06194275771753486]","[1,1,1]","[0.0760660156537409,-0.04907772194057998]","[1,1,1]","[0.09635993443769404,-0.12545332078074908]","[1,1,1]","[-0.1037392495315621,0.03403003572844336]","[-1,-1,-1]","[-0.1655525594084184,-0.07350389916072395]","[1,1,1]","[0.05727150024812923,-0.1012664908068245]","[1,1,1]","[-0.03204593256894611,-0.04164083023602452]","[1,1,1]","[-0.058115362791377245,0.12278581662884021]","[1,1,1]","[0.0067825089332053615,0.17624529782854637]","[1,1,1]","[-0.04439389244374296,-0.15526939115354235]","[1,1,1]","[-0.1807878659543039,0.06391884782397433]","[1,1,1]","[0.019964160159470095,-0.1542463060657517]","[1,1,1]","[-0.15282956077120638,-0.0070509502888825865]","[1,1,1]","[0.15692662193482634,0.0985921341150708]","[1,1,1]","[0.02,0.02]",270.1938,0,5,5,192,1,,,,,,,
,,,,,,,682cada06e96e8a828a90ee2,682f1017f572c1c0528d9f0d,2025-05-22_13h56.10.564,cuing_paradigm_dot,2024.1.5,Win32,59.88023952,682d573fa47f1360d1451895,,,,,,,,,,,270.1941,270.6938,,,270.9442,271.4272,left,,,,,,,,0.9,0.4768,,,,,,,270.6939,270.9441,271.4272,"[-0.1264208455981416,-0.12894969671305723]","[1,1,1]","[-0.13728950081829377,-0.01181479021433303]","[1,1,1]","[-0.19082590845526093,-0.03716613668052365]","[1,1,1]","[0.008986645786294887,0.15738021038628577]","[1,1,1]","[-0.022775328189929306,-0.030295491106942844]","[1,1,1]","[0.13129237803066257,0.046378212495664796]","[1,1,1]","[-0.10474956177461842,0.061921197539395345]","[1,1,1]","[0.1113567400448686,0.1463128812261831]","[1,1,1]","[0.07535562476846619,0.17073700005282505]","[1,1,1]","[0.11159652651164954,-0.15342072151575653]","[1,1,1]","[-0.009547844170088868,0.010793007201812293]","[1,1,1]","[-0.05000642393337907,-0.1479971874314006]","[1,1,1]","[-0.14633789511965786,-0.08597388626082857]","[-1,-1,-1]","[-0.006286283913996603,-0.12175856040007638]","[1,1,1]","[-0.04498196662671632,0.08868563738073358]","[1,1,1]","[0.15994831271419066,-0.11438681105653423]","[1,1,1]","[0.05845418987062325,0.0829629950875799]","[1,1,1]","[0.10185469517259718,-0.05482860675583008]","[-1,-1,-1]","[0.04442894960260994,-0.16549794030129092]","[-1,-1,-1]","[-0.10103549234033225,0.10882999647387111]","[1,1,1]","[-0.15085488264977376,0.06913144898313318]","[1,1,1]","[0.18420348503418194,0.07227361906651375]","[1,1,1]","[-0.07658133366151415,0.011620814542092734]","[1,1,1]","[0.07419278908646779,0.1280652904376469]","[1,1,1]","[-0.10379194907593545,-0.08085977490250776]","[1,1,1]","[0.12881730910551725,0.10593313417062461]","[1,1,1]","[0.12076447151359014,-0.10563394655433918]","[1,1,1]","[0.009552325385068079,0.06551749311274495]","[1,1,1]","[0.0466736941932916,0.007997091872564041]","[1,1,1]","[0.09883397108820555,0.01717058750649263]","[1,1,1]","[0.16868314423506842,0.021825062787433108]","[1,1,1]","[0.060596257837298384,-0.06153207785317549]","[1,1,1]","[0.02,0.02]",272.5271,0,6,6,186,1,,,,,,,
,,,,,,,682cada06e96e8a828a90ee2,682f1017f572c1c0528d9f0d,2025-05-22_13h56.10.564,cuing_paradigm_dot,2024.1.5,Win32,59.88023952,682d573fa47f1360d1451895,,,,,,,,,,,272.5275,273.027,,,273.2774,274.4108,left,,,,,,,,0.5,1.1278,,,,,,,273.0271,273.2774,274.4109,"[0.02539195163133385,0.09151710586558232]","[-1,-1,-1]","[-0.1258439658658644,-0.13346371679046504]","[1,1,1]","[0.1211040358413972,0.048676848816420155]","[-1,-1,-1]","[-0.18643183244984526,0.04375476074890604]","[1,1,1]","[-0.05468727156750077,-0.13686084200393295]","[-1,-1,-1]","[0.1115381094594508,-0.08260656432530873]","[-1,-1,-1]","[0.057324320219439596,-0.1820121396807976]","[-1,-1,-1]","[0.02582618869983103,0.033332628246451855]","[-1,-1,-1]","[-0.02758881605318092,-0.01659164330348603]","[1,1,1]","[-0.11669670330668404,-0.034153514535031564]","[-1,-1,-1]","[0.08163307934378397,0.09320410642713717]","[-1,-1,-1]","[-0.03390220318748934,0.12473012464512395]","[-1,-1,-1]","[0.04769825183366596,0.1329048246547208]","[-1,-1,-1]","[-0.06517132656983406,0.18024787136623022]","[1,1,1]","[0.06828985644503435,-0.01012629664828508]","[1,1,1]","[-0.18099047417790098,-0.030106226694564267]","[1,1,1]","[-0.008032226961562743,-0.1322526870228893]","[-1,-1,-1]","[-0.07048008505402688,0.03651068790734169]","[1,1,1]","[0.13204120710736372,0.09377564301222836]","[1,1,1]","[0.09681225553927163,0.13736021856786357]","[-1,-1,-1]","[0.025467761506856458,-0.06530972381933244]","[-1,-1,-1]","[-0.17258281722045682,-0.07668183890460058]","[1,1,1]","[0.05147054718029582,-0.1301954566482233]","[1,1,1]","[-0.11032510740484315,0.1341560491231425]","[-1,-1,-1]","[-0.14215706912891368,0.05778189871310283]","[-1,-1,-1]","[0.029752335145336616,-0.02162439956409918]","[1,1,1]","[-0.0661769215025117,0.08335920742860237]","[1,1,1]","[-0.08447765268275875,-0.1657957352224394]","[1,1,1]","[-0.08703584481209863,-0.0003203641981202072]","[1,1,1]","[0.19352019283965943,0.011108705394441724]","[1,1,1]","[0.1260908425664736,-0.14276855337695066]","[-1,-1,-1]","[-0.1589801594603365,0.11102081882644989]","[1,1,1]","[0.02,0.02]",275.5105,0,7,7,102,1,,,,,,,
,,,,,,,682cada06e96e8a828a90ee2,682f1017f572c1c0528d9f0d,2025-05-22_13h56.10.564,cuing_paradigm_dot,2024.1.5,Win32,59.88023952,682d573fa47f1360d1451895,,,,,,,,,,,275.5108,276.0103,,,276.2607,276.9105,left,,,,,,,,0.9,0.6408,,,,,,,276.0103,276.2606,276.9106,"[-0.09846829538727307,-0.03973509261802067]","[1,1,1]","[0.030234340119152468,-0.18201763106907476]","[1,1,1]","[-0.05747745657971512,0.03996776347882321]","[1,1,1]","[-0.1699543505483988,0.042500218110028895]","[1,1,1]","[0.18709765160233624,0.01705036487149067]","[1,1,1]","[-0.0431176038554978,-0.19378633181079963]","[1,1,1]","[-0.0571477569889265,0.16906190565966833]","[1,1,1]","[-0.09155786808550469,0.11077523148436576]","[1,1,1]","[0.12812773279518794,-0.006286450758371265]","[1,1,1]","[0.017807345679262482,0.04854475918879161]","[1,1,1]","[-0.0989197677015784,0.009220796239889967]","[1,1,1]","[0.10339588719149423,0.06800111376068299]","[1,1,1]","[0.037303984562762876,-0.041530920345206605]","[1,1,1]","[-0.0026984547172312673,-0.03838631157551305]","[1,1,1]","[0.15172372779087787,0.057767683287889345]","[-1,-1,-1]","[0.11147307516204671,0.11556426327524036]","[1,1,1]","[-0.024395346008858922,-0.125079036906931]","[1,1,1]","[0.05648254788582796,-0.09577287336885221]","[1,1,1]","[-0.11608165551350097,0.07650450635844545]","[1,1,1]","[-0.11470273139488128,-0.14757655979377685]","[1,1,1]","[0.02351488751540025,0.0894451898554552]","[1,1,1]","[-0.05497707385389105,-0.041056334587057396]","[-1,-1,-1]","[0.07368691412505218,0.14533725157933827]","[1,1,1]","[0.016252379717309934,0.16222459553514837]","[1,1,1]","[0.050652692658808444,0.014877850627775475]","[1,1,1]","[0.016226531667849157,-0.11842436253669311]","[1,1,1]","[0.16779534047749808,-0.04783512354428101]","[1,1,1]","[0.08645493869921617,-0.16874271072135427]","[1,1,1]","[0.12045136810075681,-0.10508861940913265]","[-1,-1,-1]","[-0.10876187451458415,-0.08281830014980945]","[1,1,1]","[-0.19636329654691292,-0.03534403352748554]","[1,1,1]","[-0.1503193527441696,0.12530097883546898]","[1,1,1]","[0.02,0.02]",278.0105,0,8,8,203,1,,,,,,,
,,,,,,,682cada06e96e8a828a90ee2,682f1017f572c1c0528d9f0d,2025-05-22_13h56.10.564,cuing_paradigm_dot,2024.1.5,Win32,59.88023952,682d573fa47f1360d1451895,,,,,,,,,,,278.0108,278.5104,,,278.7607,279.5107,right,,,,,,,,0.5,0.7323,,,,,,,278.5104,278.7607,279.5107,"[0.10693029143760018,0.01848446998121272]","[-1,-1,-1]","[-0.05328928296837946,-0.13365642185327553]","[1,1,1]","[0.11962082407083463,0.13637418946316382]","[-1,-1,-1]","[-0.02321129154176971,0.1829377767386047]","[1,1,1]","[0.0361824050901937,0.06658776527822675]","[1,1,1]","[0.11144774184958653,0.0733342213667098]","[-1,-1,-1]","[0.07950786744089854,0.12898210397940588]","[-1,-1,-1]","[-0.021023488120332254,0.13735512725397803]","[-1,-1,-1]","[0.11005487719542767,-0.057549323273202314]","[1,1,1]","[-0.14823673297192502,0.038232219033305634]","[-1,-1,-1]","[0.04053460970135671,0.15682779564053023]","[1,1,1]","[-0.15724684209593326,0.09521368822099067]","[-1,-1,-1]","[0.029393872033173757,0.012036973137655069]","[1,1,1]","[0.06687442321045207,-0.06970663498233183]","[1,1,1]","[-0.184024205676882,0.01199321691052086]","[1,1,1]","[0.0724333286069175,-0.11801534193447596]","[1,1,1]","[-0.030966005276536826,-0.0340928238831676]","[1,1,1]","[0.15376902987452112,-0.09436267523359017]","[1,1,1]","[-0.11509447374661176,0.12098287106183192]","[-1,-1,-1]","[-0.06733972383895147,0.0636183157932274]","[1,1,1]","[-0.13093354986002498,-0.14188056844051278]","[1,1,1]","[-0.06060631678218118,0.002323972417571217]","[-1,-1,-1]","[0.09882846159590392,-0.15911721095342327]","[-1,-1,-1]","[-0.017662225508159744,-0.11157825807894078]","[1,1,1]","[0.038518184714107596,0.11229925834506956]","[-1,-1,-1]","[0.02547930676136974,-0.14017612095162293]","[-1,-1,-1]","[0.15301740151070253,0.0057938961633822094]","[-1,-1,-1]","[0.16162885305523345,0.08284103186147738]","[1,1,1]","[-0.04681248781848024,-0.1796310380234671]","[-1,-1,-1]","[-0.013252633949410555,0.03542676827185024]","[1,1,1]","[-0.09921905584473541,-0.088510849013874]","[-1,-1,-1]","[0.11698060089884557,-0.11763682910396063]","[-1,-1,-1]","[0.02,0.02]",280.6105,0,9,9,92,1,,,,,,,
,,,,,,,682cada06e96e8a828a90ee2,682f1017f572c1c0528d9f0d,2025-05-22_13h56.10.564,cuing_paradigm_dot,2024.1.5,Win32,59.88023952,682d573fa47f1360d1451895,,,,,,,,,,,280.6108,281.1105,,,281.3608,282.2272,left,,,,,,,,0.55,0.8523,,,,,,,281.1105,281.3607,282.2274,"[-0.08626203296988216,-0.00398509784453071]","[1,1,1]","[0.0020632843478506986,-0.10084884262852525]","[1,1,1]","[0.12863126255931098,-0.03151074445950446]","[1,1,1]","[-0.054172999511887386,-0.07080999397676233]","[-1,-1,-1]","[0.10787094456818452,0.01631389781858056]","[-1,-1,-1]","[0.015943758588003544,0.07513936485557514]","[1,1,1]","[-0.13817753801320998,0.08080842748784584]","[1,1,1]","[-0.1530087602535966,-0.05563373249697097]","[-1,-1,-1]","[-0.041419757578232734,0.19352002479426356]","[1,1,1]","[-0.19344544424360302,0.028804988441572067]","[1,1,1]","[-0.15657212149577218,0.011682633005174798]","[-1,-1,-1]","[0.024985863732722293,-0.1630698189872783]","[-1,-1,-1]","[-0.10102973689277735,0.13435371041354677]","[1,1,1]","[0.027244695465123234,-0.013823430786820896]","[1,1,1]","[0.16144824780759207,0.0992318824424619]","[1,1,1]","[0.13898618594148396,-0.0858263386316809]","[1,1,1]","[-0.0979740106794554,0.07403124716358525]","[-1,-1,-1]","[0.0334081389678858,0.18949899041668364]","[-1,-1,-1]","[-0.07596721274328483,-0.1573456613661094]","[-1,-1,-1]","[-0.13897326372636432,-0.10622584078317052]","[1,1,1]","[-0.047974190604065194,0.028467331585017592]","[-1,-1,-1]","[0.09887929850071878,0.07389817969850324]","[1,1,1]","[-0.014244864369059295,-0.19385398552403352]","[1,1,1]","[0.10448672242437394,0.14945597711133332]","[-1,-1,-1]","[0.050985137141132265,-0.04825904593960328]","[1,1,1]","[0.10268432322000035,-0.14190878984101085]","[1,1,1]","[0.08817992507653495,-0.03118113639285474]","[-1,-1,-1]","[0.07651138849483857,-0.10183384749990036]","[-1,-1,-1]","[-0.023841779454616414,-0.03572233341309363]","[1,1,1]","[-0.016666526881268098,0.14918974441389862]","[-1,-1,-1]","[-0.03364824414842757,0.09532435308406906]","[-1,-1,-1]","[-0.10816619875189652,-0.04200830147437416]","[1,1,1]","[0.02,0.02]",283.3271,0,10,10,128,1,,,,,,,
,,,,,,,682cada06e96e8a828a90ee2,682f1017f572c1c0528d9f0d,2025-05-22_13h56.10.564,cuing_paradigm_dot,2024.1.5,Win32,59.88023952,682d573fa47f1360d1451895,,,,,,,,,,,283.3275,283.8271,,,284.0774,284.9939,left,,,,,,,,0.9,0.9004,,,,,,,283.8271,284.0774,284.9939,"[0.1261398939675919,-0.14262122048929793]","[1,1,1]","[0.00030078795982073895,-0.16932308989462297]","[1,1,1]","[0.088024882130863,0.002908649696710897]","[1,1,1]","[-0.0676245890906285,-0.098297236603869]","[1,1,1]","[-0.19463546516180874,0.04573996189992926]","[1,1,1]","[-0.015036581452199615,-0.03330179471646041]","[1,1,1]","[0.017800090943059843,-0.005154986315459568]","[1,1,1]","[0.1176905649086216,-0.09303085897381475]","[1,1,1]","[0.065269064054709,-0.0602607782634403]","[1,1,1]","[-0.03779158886714299,-0.13028192039395484]","[1,1,1]","[0.16514254754470786,-0.09347423401691161]","[1,1,1]","[0.031778757907090754,0.09252786730796907]","[1,1,1]","[-0.16999338228352942,0.005893168150802161]","[1,1,1]","[-0.09434850731841529,-0.02188662028136896]","[1,1,1]","[-0.11784502401149088,0.02280285130614865]","[1,1,1]","[0.009743596455659096,-0.07044259287420063]","[1,1,1]","[-0.0643782093750851,0.17103394281565362]","[-1,-1,-1]","[0.05520983255905672,0.15306814149594633]","[1,1,1]","[-0.1378765523725437,-0.02980808159509708]","[-1,-1,-1]","[0.0831013027723158,0.05444627121907645]","[1,1,1]","[0.08110863337620512,0.12114793414032564]","[1,1,1]","[-0.10964300827734,0.11263923924922765]","[1,1,1]","[-0.14889879291517413,-0.08516056533775615]","[1,1,1]","[0.13349366407207316,0.06547560928838934]","[1,1,1]","[-0.11638946695155032,-0.1455268218484414]","[-1,-1,-1]","[-0.07296417454185877,0.03883562444283045]","[1,1,1]","[0.18906485884455748,0.049458704055826856]","[1,1,1]","[-0.004240190063737585,0.17444901153363007]","[1,1,1]","[0.10894348692564396,0.16188022300184327]","[1,1,1]","[-0.05573567558283173,-0.18567039602351906]","[1,1,1]","[-0.02893232983500597,0.10644586887422892]","[1,1,1]","[-0.020499359865640242,0.010701429323062252]","[1,1,1]","[0.02,0.02]",286.0937,0,11,11,199,1,,,,,,,
,,,,,,,682cada06e96e8a828a90ee2,682f1017f572c1c0528d9f0d,2025-05-22_13h56.10.564,cuing_paradigm_dot,2024.1.5,Win32,59.88023952,682d573fa47f1360d1451895,,,,,,,,,,,286.0942,286.5939,,,286.8441,288.3438,,,,,,,,,0.5,,,,,,,,286.5939,286.844,288.3438,"[0.0156597917094153,-0.08307936765094566]","[-1,-1,-1]","[0.022922793772028917,-0.19430137847143464]","[1,1,1]","[-0.03748127752438195,-0.12300846058272298]","[-1,-1,-1]","[-0.0573615764795768,0.18650087112860328]","[-1,-1,-1]","[0.008002148611640024,0.175660949161077]","[-1,-1,-1]","[-0.12156345655753759,-0.07883792263411199]","[-1,-1,-1]","[-0.08066938398579583,-0.1594516168706225]","[-1,-1,-1]","[0.06417452790931574,-0.15323278592795195]","[-1,-1,-1]","[0.11686106640295547,-0.12366421062784624]","[1,1,1]","[0.014405612940023457,-0.14230850344010174]","[-1,-1,-1]","[-0.09369136220245544,0.054142933541640556]","[1,1,1]","[-0.05172299461960613,0.074817256593221]","[1,1,1]","[-0.01241219870414674,-0.05400399774790009]","[1,1,1]","[-0.13886237168523327,0.038959986309016315]","[-1,-1,-1]","[0.139079410033765,0.07572663770968527]","[1,1,1]","[-0.0922779386079771,-0.024667234155164693]","[1,1,1]","[0.04415943788076633,0.13895821846849415]","[1,1,1]","[0.1422869635280921,0.02115867122261442]","[1,1,1]","[0.03376981811701842,0.029522585420967595]","[1,1,1]","[-0.13792568864516838,0.12492867561620578]","[-1,-1,-1]","[0.0604059346390646,0.18000128866716872]","[-1,-1,-1]","[-0.04329782186540889,-0.0238052492987193]","[-1,-1,-1]","[0.08955136100065508,0.021374553233925696]","[-1,-1,-1]","[-0.19220485664077516,-0.03893878237189997]","[1,1,1]","[-0.019229619275043148,0.10680107565379658]","[-1,-1,-1]","[0.13159299710937106,0.13225140881582034]","[1,1,1]","[0.13118078295627586,-0.07066702919336486]","[-1,-1,-1]","[0.0683938429881539,-0.03830516400432042]","[1,1,1]","[0.05459946216046596,0.08889760341868025]","[-1,-1,-1]","[-0.07977783077328385,0.11157001412896643]","[1,1,1]","[-0.1567329738432615,-0.11155408076004251]","[1,1,1]","[-0.055062143621543144,-0.1914726948756397]","[1,1,1]","[0.02,0.02]",289.4438,0,12,12,100,1,,,,,,,
,,,,,,,682cada06e96e8a828a90ee2,682f1017f572c1c0528d9f0d,2025-05-22_13h56.10.564,cuing_paradigm_dot,2024.1.5,Win32,59.88023952,682d573fa47f1360d1451895,,,,,,,,,,,289.4442,289.9437,,,290.194,290.8109,left,,,,,,,,0.6,0.6112,,,,,,,289.9438,290.194,290.8109,"[0.10768284349299603,0.0751697710192411]","[-1,-1,-1]","[0.18556483693812,0.011749782618864594]","[-1,-1,-1]","[0.057141088826999906,-0.1327167912487296]","[1,1,1]","[0.008923758767844079,0.16807241428356415]","[1,1,1]","[0.08959200208826515,0.17672516516350287]","[1,1,1]","[0.052759402766003355,0.12558099998788788]","[1,1,1]","[-0.17672879746549144,-0.040671059745618174]","[-1,-1,-1]","[0.17031599095754257,-0.07478346235541845]","[1,1,1]","[-0.1301084479165039,0.07483531234893473]","[-1,-1,-1]","[-0.0804467437704016,0.16713660750881054]","[-1,-1,-1]","[-0.011154606622677182,-0.0664635981078442]","[-1,-1,-1]","[-0.188884165595728,0.03860514310517869]","[-1,-1,-1]","[0.03406565531617005,0.08525538593621447]","[-1,-1,-1]","[0.030439408281174328,0.014859222477701932]","[1,1,1]","[0.17223037318076823,0.0677967785150044]","[1,1,1]","[0.11198962619850637,0.11957617284369698]","[-1,-1,-1]","[0.11652793240456795,-0.12057039553440396]","[-1,-1,-1]","[0.04641389890286187,-0.1876386274759463]","[-1,-1,-1]","[0.09797433452768937,-0.007001880736444567]","[1,1,1]","[-0.17144821684318595,0.09662516433953974]","[1,1,1]","[-0.06566865591662494,0.10798485413080355]","[1,1,1]","[-0.06380632259614426,-0.027071232230825082]","[1,1,1]","[-0.01929262855230546,-0.000894121674079281]","[1,1,1]","[0.07997026228273321,0.03564363244664194]","[1,1,1]","[-0.10774347075847787,-0.15299320201740121]","[-1,-1,-1]","[-0.029929420619754912,-0.19496702548536132]","[1,1,1]","[0.11541416778995722,-0.16188934547629405]","[-1,-1,-1]","[-0.09269431073849892,0.036360255602012684]","[1,1,1]","[0.01106999618366162,-0.10102458923960735]","[1,1,1]","[0.15731080376156337,0.11991405034177884]","[1,1,1]","[-0.029758359349690826,-0.12316847561653368]","[1,1,1]","[-0.00459422929886225,0.054248690256553864]","[1,1,1]","[0.02,0.02]",291.9106,0,13,13,153,1,,,,,,,
,,,,,,,682cada06e96e8a828a90ee2,682f1017f572c1c0528d9f0d,2025-05-22_13h56.10.564,cuing_paradigm_dot,2024.1.5,Win32,59.88023952,682d573fa47f1360d1451895,,,,,,,,,,,291.9109,292.4106,,,292.6607,293.4106,left,,,,,,,,0.4,0.736,,,,,,,292.4106,292.6607,293.4106,"[-0.002765162851861824,-0.06137947988395045]","[1,1,1]","[0.13549272594151862,0.05410676561454203]","[1,1,1]","[-0.1462938885135261,0.057873007724236945]","[-1,-1,-1]","[-0.0670451579620848,0.05974383516299515]","[-1,-1,-1]","[-0.12783286588532794,-0.14577268323639203]","[1,1,1]","[0.10420176045118307,-0.15527915553573354]","[-1,-1,-1]","[0.11105788053881245,-0.0488832666235462]","[-1,-1,-1]","[-0.14945406484871235,0.10605669210405268]","[1,1,1]","[-0.002630830305225217,-0.14182351091031686]","[-1,-1,-1]","[0.08073798259638859,-0.012992686286189537]","[-1,-1,-1]","[0.16012285110643626,-0.05215715615421468]","[-1,-1,-1]","[-0.06675556445528077,0.14235300129780767]","[-1,-1,-1]","[0.028008359919418444,0.061087342279164424]","[1,1,1]","[-0.025361090713822053,-0.17666694885813714]","[1,1,1]","[0.07926391237123591,0.14981825283632136]","[-1,-1,-1]","[-0.13415206194925872,-0.09062923065050578]","[-1,-1,-1]","[0.17673000717180212,0.03901377505976245]","[1,1,1]","[-0.17777098277661002,-0.06315894624772661]","[1,1,1]","[0.04420141012890691,-0.1668654938162908]","[-1,-1,-1]","[-0.0844144612658301,-0.028238580719158003]","[-1,-1,-1]","[0.05602069555806741,-0.08337658274938443]","[-1,-1,-1]","[-0.022139321566370444,0.16795923067747878]","[-1,-1,-1]","[-0.09744393493879606,0.09325117485685484]","[-1,-1,-1]","[0.1404930739223656,0.12843199672826186]","[1,1,1]","[0.06761943949484865,0.026789287667432486]","[-1,-1,-1]","[-0.1629628500078541,-0.02011741374249541]","[-1,-1,-1]","[0.12274141623494976,-0.10594419045353287]","[-1,-1,-1]","[0.18815326564081997,-0.00453692950603964]","[1,1,1]","[-0.09249515143756104,0.0261244932715298]","[1,1,1]","[0.04900137686865583,0.1208273093842085]","[1,1,1]","[-0.06855386167060705,-0.1697872965124086]","[1,1,1]","[0.026257210654250886,0.1680723786188119]","[-1,-1,-1]","[0.02,0.02]",294.5104,0,14,14,53,1,,,,,,,
,,,,,,,682cada06e96e8a828a90ee2,682f1017f572c1c0528d9f0d,2025-05-22_13h56.10.564,cuing_paradigm_dot,2024.1.5,Win32,59.88023952,682d573fa47f1360d1451895,,,,,,,,,,,294.5108,295.0106,,,295.2607,295.8773,right,,,,,,,,0.1,0.6,,,,,,,295.0106,295.2607,295.8773,"[-0.08236112308829598,-0.10396581976407655]","[-1,-1,-1]","[0.1548301473295443,-0.052645241642397145]","[-1,-1,-1]","[-0.0225647365585635,0.022231895713385418]","[-1,-1,-1]","[-0.15778474007705628,0.051443813845867666]","[-1,-1,-1]","[-0.11377045774976985,-0.05471898659972379]","[-1,-1,-1]","[-0.1759168287563862,-0.0006191399901160781]","[-1,-1,-1]","[-0.01140642858669173,-0.07546876181071788]","[-1,-1,-1]","[0.024668904350109072,-0.1541088158152821]","[-1,-1,-1]","[0.10347372557456756,-0.050902510609904354]","[-1,-1,-1]","[0.028724463037774806,0.03462419031349854]","[-1,-1,-1]","[-0.05442063335512939,0.12273871520360297]","[-1,-1,-1]","[0.031842611907938585,0.1787444072216155]","[1,1,1]","[-0.12363418051390614,-0.10554168363489361]","[-1,-1,-1]","[-0.08459474689934998,-0.1795092013791665]","[-1,-1,-1]","[-0.08194312162734736,0.04803158757778681]","[-1,-1,-1]","[-0.03164284302537878,-0.03978190460154891]","[-1,-1,-1]","[-0.06259262588733508,0.1659020112973688]","[-1,-1,-1]","[0.1166715001256764,0.10808214332843738]","[-1,-1,-1]","[0.08174616992973657,-0.1266714411783228]","[-1,-1,-1]","[0.08289635640926594,0.03617700862031125]","[-1,-1,-1]","[0.06440726021393342,-0.1726241447469618]","[-1,-1,-1]","[-0.12090903997089675,0.10707890919657438]","[-1,-1,-1]","[0.031214434982798096,-0.015912674014172016]","[-1,-1,-1]","[0.17282809266107055,0.05210396961878727]","[-1,-1,-1]","[0.064177358349586,0.09369315756752683]","[-1,-1,-1]","[0.1556966203086349,-0.00694316674512374]","[-1,-1,-1]","[-0.137801970479285,0.013896850711299605]","[-1,-1,-1]","[0.06801438994273783,0.14789896456214122]","[-1,-1,-1]","[0.13636523163882108,-0.10632353057862573]","[1,1,1]","[-0.018619196474836487,-0.146807676411299]","[1,1,1]","[0.01246638574452305,0.1381321909699173]","[-1,-1,-1]","[-0.06956793908869505,0.0006459865013624177]","[-1,-1,-1]","[0.02,0.02]",296.9771,0,15,15,18,1,,,,,,,
,,,,,,,682cada06e96e8a828a90ee2,682f1017f572c1c0528d9f0d,2025-05-22_13h56.10.564,cuing_paradigm_dot,2024.1.5,Win32,59.88023952,682d573fa47f1360d1451895,,,,,,,,,,,296.9775,297.4772,,,297.7274,298.1773,right,,,,,,,,0.1,0.4374,,,,,,,297.4772,297.7274,298.1773,"[0.1401076548637779,0.0358120828209755]","[-1,-1,-1]","[0.07482696482175322,-0.16655119968627788]","[-1,-1,-1]","[-0.09585471376808663,-0.0957859906008498]","[-1,-1,-1]","[0.1192013241575207,-0.12349327579518657]","[-1,-1,-1]","[-0.13224456692298528,0.12456248537941142]","[-1,-1,-1]","[-0.11637758971814245,0.07163576592154745]","[-1,-1,-1]","[-0.08727995056313806,0.035073473354773316]","[-1,-1,-1]","[-0.010265727538075153,-0.027432841156794622]","[-1,-1,-1]","[-0.038828667129520024,-0.11216734514678366]","[-1,-1,-1]","[0.028526601693658667,-0.14441385595517733]","[-1,-1,-1]","[0.0626509698263369,0.18667846431137944]","[-1,-1,-1]","[0.06019142362302483,0.028763711427710514]","[-1,-1,-1]","[0.045377203860507885,-0.02180026945889954]","[-1,-1,-1]","[-0.07267363356824555,0.11126897448959243]","[-1,-1,-1]","[0.04260364510562759,0.06822570159903675]","[-1,-1,-1]","[-0.0027941528840292654,0.16407509208721183]","[-1,-1,-1]","[-0.013009912210762349,-0.0690133661345478]","[-1,-1,-1]","[-0.04858857043434166,-0.1915061398630062]","[-1,-1,-1]","[-0.14618366168010224,-0.09011208447356449]","[1,1,1]","[0.026656658133354376,0.12636712084021687]","[-1,-1,-1]","[0.18275194156994606,-0.07517976436214435]","[1,1,1]","[-0.1639226343301089,-0.043574538062078776]","[-1,-1,-1]","[-0.0558207331451431,-0.0001296549014382166]","[-1,-1,-1]","[-0.07670842508042577,-0.03679200296557572]","[-1,-1,-1]","[-0.09905946791459184,0.1664976710082322]","[-1,-1,-1]","[-0.022264031567548685,0.07738401518422139]","[-1,-1,-1]","[0.10398520494867522,0.07358941548272876]","[-1,-1,-1]","[-0.18265433287531677,0.0038343122521057407]","[-1,-1,-1]","[0.1333244672775946,-0.041867644623436215]","[-1,-1,-1]","[-0.1669558060913149,0.05437509913068402]","[1,1,1]","[0.053706894596839236,-0.06610307647343129]","[-1,-1,-1]","[0.14660641210477887,0.10700788039529421]","[-1,-1,-1]","[0.02,0.02]",299.2771,0,16,16,5,1,,,,,,,
,,,,,,,682cada06e96e8a828a90ee2,682f1017f572c1c0528d9f0d,2025-05-22_13h56.10.564,cuing_paradigm_dot,2024.1.5,Win32,59.88023952,682d573fa47f1360d1451895,,,,,,,,,,,299.2775,299.7771,,,300.0274,300.6107,right,,,,,,,,0.45,0.5695,,,,,,,299.7771,300.0274,300.6107,"[-0.09189430989773124,-0.033995660554639276]","[1,1,1]","[0.10048446883906038,-0.14233123095463793]","[1,1,1]","[-0.13747500818278963,0.0380208270444759]","[1,1,1]","[-0.05526323367022482,0.1041083694539071]","[1,1,1]","[-0.12062959208709473,-0.12166172391484531]","[-1,-1,-1]","[0.1744883964945181,0.07042373148983026]","[-1,-1,-1]","[0.06648179684254454,0.17815872210939007]","[-1,-1,-1]","[0.013542489022658095,0.0866951669842963]","[1,1,1]","[0.16894480159450867,0.01760386188453259]","[-1,-1,-1]","[0.12007228874042669,0.13976003193967743]","[-1,-1,-1]","[-0.04775746494489143,-0.04743338177827519]","[1,1,1]","[0.014528083893401888,0.04258982515922333]","[-1,-1,-1]","[0.06260648747392575,-0.05320066561800277]","[1,1,1]","[-0.04627806060391982,0.17340320548703736]","[1,1,1]","[-0.19323085019265504,0.00366726236117063]","[1,1,1]","[0.1334740149719764,-0.05203035809470956]","[1,1,1]","[-0.008434217124171446,-0.17274358960191255]","[1,1,1]","[-0.0009867071836366442,0.1817210901592428]","[-1,-1,-1]","[-0.13846464433824685,0.0987912885448678]","[-1,-1,-1]","[0.03142851535690868,0.12500740186152998]","[-1,-1,-1]","[0.039304573170298694,-0.1401284899750228]","[1,1,1]","[-0.05818449272689544,-0.09914852442085066]","[-1,-1,-1]","[-0.04813790055577111,0.036873724853893924]","[-1,-1,-1]","[-0.16460354298966448,-0.02579434091353947]","[-1,-1,-1]","[0.022004810723806403,-0.035023804202887046]","[-1,-1,-1]","[-0.01617134205507581,-0.13277391558102272]","[1,1,1]","[-0.00898470762382676,-0.006035669765543243]","[-1,-1,-1]","[0.08556844375626074,0.08013135238832357]","[-1,-1,-1]","[-0.07144543029321748,-0.14280772452284307]","[-1,-1,-1]","[0.041472201323099284,-0.09736149354046161]","[1,1,1]","[0.10157930398437887,-0.10017202597504601]","[-1,-1,-1]","[0.11450730238494136,0.033256489865116416]","[-1,-1,-1]","[0.02,0.02]",301.7105,0,17,17,74,1,,,,,,,
,,,,,,,682cada06e96e8a828a90ee2,682f1017f572c1c0528d9f0d,2025-05-22_13h56.10.564,cuing_paradigm_dot,2024.1.5,Win32,59.88023952,682d573fa47f1360d1451895,,,,,,,,,,,301.7109,302.2105,,,302.4609,303.2272,left,,,,,,,,0.4,0.7603,,,,,,,302.2105,302.4608,303.2273,"[-0.09568974153324385,-0.020021801099025488]","[1,1,1]","[-0.0008576903588189862,-0.12743324083000637]","[1,1,1]","[0.1454071652930042,-0.08524324625050406]","[-1,-1,-1]","[-0.06282697212858898,0.04629192629506515]","[-1,-1,-1]","[0.1806517204584979,-0.04863922576635656]","[1,1,1]","[-0.02259680727264286,-0.024639409083447895]","[1,1,1]","[0.0900164760930924,-0.05495452012114321]","[-1,-1,-1]","[-0.11053354053326923,0.10813463058036529]","[-1,-1,-1]","[0.1372377027252729,0.10266284743886582]","[-1,-1,-1]","[0.008991065383711552,-0.06748771620215588]","[-1,-1,-1]","[0.12197305313153185,-0.15051094859401606]","[1,1,1]","[0.11650653017650368,-0.00037991416914985143]","[-1,-1,-1]","[-0.16612670467676507,0.08681629642506465]","[-1,-1,-1]","[-0.12309583920802776,0.155278442188804]","[-1,-1,-1]","[-0.1179315696462574,-0.12140079035663812]","[1,1,1]","[-0.16206347898625018,-0.05048865334579864]","[1,1,1]","[0.04677997277800715,0.06679154000034426]","[-1,-1,-1]","[-0.03061572717732105,0.08547754378796975]","[-1,-1,-1]","[-0.16291233693522247,0.03799231394993193]","[1,1,1]","[-0.03855173257506978,-0.14840648036934598]","[-1,-1,-1]","[0.016857553807713133,0.030246973611660666]","[-1,-1,-1]","[-0.0011487087108292963,-0.1909490869193472]","[1,1,1]","[0.04881431030710073,0.13058942590204012]","[1,1,1]","[0.10416538423262053,0.15419017647369188]","[-1,-1,-1]","[0.08343654453579481,0.09462150718068453]","[-1,-1,-1]","[-0.08595323470150892,0.17533416960059278]","[-1,-1,-1]","[-0.16140063536901866,-0.10124051170996601]","[-1,-1,-1]","[-0.10771936311430798,-0.07672845049743306]","[1,1,1]","[0.0708983390070901,-0.17764241451164994]","[1,1,1]","[0.08428290580245061,0.026613475046110988]","[-1,-1,-1]","[0.036371500570054616,-0.1093311570446205]","[1,1,1]","[0.17327017162072839,0.07943054217935369]","[-1,-1,-1]","[0.02,0.02]",304.3271,0,18,18,35,1,,,,,,,
,,,,,,,682cada06e96e8a828a90ee2,682f1017f572c1c0528d9f0d,2025-05-22_13h56.10.564,cuing_paradigm_dot,2024.1.5,Win32,59.88023952,682d573fa47f1360d1451895,,,,,,,,,,,304.3275,304.8271,,,305.0774,305.9272,right,,,,,,,,0.1,0.8315,,,,,,,304.8272,305.0774,305.9273,"[-0.07194560852536537,-0.12518145288847585]","[-1,-1,-1]","[0.08980026606297334,0.08166616410713723]","[-1,-1,-1]","[-0.031073861992590393,-0.14227640831602145]","[-1,-1,-1]","[-0.11210848597389236,0.10824217329813139]","[-1,-1,-1]","[-0.18157906504505306,-0.033280822981086255]","[-1,-1,-1]","[0.014133774208687555,0.12662671701671077]","[-1,-1,-1]","[0.03272725094791681,-0.01971979988237142]","[-1,-1,-1]","[0.06323017737511329,0.03771964183249211]","[-1,-1,-1]","[0.12735225819283963,0.053503543506137924]","[-1,-1,-1]","[0.13845836678294046,0.11284647088899737]","[-1,-1,-1]","[0.09551852328353085,-0.031270936052156556]","[-1,-1,-1]","[0.016907448331946157,0.022529083670456824]","[-1,-1,-1]","[-0.08417957202016885,-0.023437125762516716]","[-1,-1,-1]","[-0.06940253237004661,0.1022581074181186]","[-1,-1,-1]","[0.19636721326277434,0.029229295449716124]","[-1,-1,-1]","[-0.1045645146308046,0.017869764613054256]","[-1,-1,-1]","[-0.025362442897694803,0.1950634878515321]","[-1,-1,-1]","[0.04255725951735979,0.09647048096947597]","[1,1,1]","[-0.15540322611683177,0.04887344040831857]","[-1,-1,-1]","[0.07142154488944466,0.1862463446894708]","[-1,-1,-1]","[-0.14445452841546247,-0.00033714609482292526]","[-1,-1,-1]","[-0.1317527172742657,-0.1235825800326046]","[-1,-1,-1]","[0.008567527932468825,0.07460026034591408]","[-1,-1,-1]","[0.13447962755577975,-0.10270774005279236]","[-1,-1,-1]","[-0.044650044404084224,0.062347509825942]","[-1,-1,-1]","[0.10479840623800715,0.13477188124747816]","[1,1,1]","[0.09636587286718604,-0.127104062459513]","[-1,-1,-1]","[0.03070046473834819,-0.11975120197251492]","[-1,-1,-1]","[-0.029326384256679383,-0.19488727946045906]","[-1,-1,-1]","[0.083926153009253,-0.07252781911877773]","[-1,-1,-1]","[-0.03920493820628393,0.0020817409802525127]","[1,1,1]","[-0.01986361768406753,-0.0401873743670686]","[-1,-1,-1]","[0.02,0.02]",307.0271,0,19,19,7,1,,,,,,,
,,,,,,,682cada06e96e8a828a90ee2,682f1017f572c1c0528d9f0d,2025-05-22_13h56.10.564,cuing_paradigm_dot,2024.1.5,Win32,59.88023952,682d573fa47f1360d1451895,,,,,,,,,,,307.0275,307.5271,,,307.7775,308.6105,left,,,,,,,,0.45,0.8274,,,,,,,307.5272,307.7775,308.6106,"[0.11797919471833883,0.10370272709684757]","[-1,-1,-1]","[0.13192411765466872,-0.13004448194406884]","[1,1,1]","[-0.02658276556401622,-0.1950266576574496]","[1,1,1]","[-0.16774245972102697,-0.007284939881192545]","[1,1,1]","[-0.17392530062451583,0.05275480484141598]","[-1,-1,-1]","[0.01957176871777845,0.17898238292582125]","[-1,-1,-1]","[0.18147898076621694,-0.06413460686684341]","[1,1,1]","[0.00227328878797815,-0.0029226369151478587]","[-1,-1,-1]","[-0.19035825548851243,-0.052432425747982445]","[1,1,1]","[0.037939018540456046,0.04711725581378397]","[-1,-1,-1]","[-0.11566167650993034,0.038068932211940416]","[-1,-1,-1]","[0.06815120194796505,0.17701509844952695]","[1,1,1]","[0.11308380970618133,-0.05414976551502636]","[-1,-1,-1]","[-0.032017439113203976,0.16423102649284588]","[-1,-1,-1]","[-0.06190716600252976,0.05504574672026723]","[-1,-1,-1]","[-0.12794347764126274,-0.11539013778731906]","[-1,-1,-1]","[-0.1636922532827632,0.10137576656856458]","[1,1,1]","[0.16928355766900074,0.0027801037475716868]","[-1,-1,-1]","[0.09199677461260254,0.04092492619030014]","[-1,-1,-1]","[-0.08163513850065512,0.14909478707383614]","[-1,-1,-1]","[0.05253468412090431,-0.1596072703419768]","[-1,-1,-1]","[0.06203990657373332,0.1012237489814982]","[-1,-1,-1]","[0.04941588080873722,-0.07345387927637287]","[1,1,1]","[0.16987324354664246,0.07803502260195183]","[-1,-1,-1]","[-0.05589986855596956,-0.11250739661822648]","[1,1,1]","[-0.05201900482086634,-0.02942830506079849]","[-1,-1,-1]","[-0.04126541340880269,0.09994193500759727]","[1,1,1]","[0.10437289942182054,0.1576120372545304]","[1,1,1]","[-0.07803724693300791,-0.17617492591109235]","[1,1,1]","[0.15758089774836767,0.1196038561774666]","[1,1,1]","[-0.07650601213555797,-0.07555788984896368]","[-1,-1,-1]","[-0.13601510940128295,-0.0754566921784084]","[1,1,1]","[0.02,0.02]",309.7105,0,20,20,68,1,,,,,,,
,,,,,,,682cada06e96e8a828a90ee2,682f1017f572c1c0528d9f0d,2025-05-22_13h56.10.564,cuing_paradigm_dot,2024.1.5,Win32,59.88023952,682d573fa47f1360d1451895,,,,,,,,,,,309.7109,310.2105,,,310.4607,311.4942,right,,,,,,,,0.4,1.0241,,,,,,,310.2106,310.4607,311.4943,"[-0.11083478952328804,0.08765174457241771]","[1,1,1]","[0.1816935203234154,-0.021967594109102682]","[1,1,1]","[-0.13708207293903582,-0.045476397917653906]","[-1,-1,-1]","[-0.13555765588604204,-0.11984291888732655]","[1,1,1]","[-0.012378884254468748,-0.07018812726370253]","[1,1,1]","[-0.16637850823035638,0.09941638074997527]","[-1,-1,-1]","[-0.061812982232307974,-0.06497583327519922]","[-1,-1,-1]","[-0.044419394063984444,0.11676191312105884]","[-1,-1,-1]","[-0.007786861194313413,0.06898745635523328]","[-1,-1,-1]","[0.15943828420820091,-0.08874555383868012]","[-1,-1,-1]","[-0.018953264709683244,-0.11159162804191188]","[-1,-1,-1]","[0.10827981702516597,0.1239806857693725]","[-1,-1,-1]","[0.08171708805726284,0.15465224327040808]","[-1,-1,-1]","[0.08175873990781118,-0.07774655843170214]","[1,1,1]","[0.04283490585293108,-0.16423395506173227]","[1,1,1]","[0.0714794097844441,-0.0021619203515800627]","[-1,-1,-1]","[0.012989071089471328,-0.0009655588745953801]","[1,1,1]","[0.000032855713840888143,0.13825587331903233]","[1,1,1]","[-0.03019807234826039,0.0033930842428293285]","[-1,-1,-1]","[0.1828765204758429,0.04784981048211773]","[-1,-1,-1]","[0.049850217631906155,0.08528030945735823]","[1,1,1]","[-0.12192508177944411,0.03773109480183177]","[-1,-1,-1]","[0.13984415899621974,-0.03935029614852769]","[-1,-1,-1]","[0.11133544875785847,-0.11648096898719898]","[1,1,1]","[-0.1728196003142772,-0.0651505941888994]","[-1,-1,-1]","[0.12679020631204796,0.07507883999316563]","[1,1,1]","[-0.17995140092309556,0.042748548168298685]","[-1,-1,-1]","[0.022575946675873797,0.04118264528610533]","[-1,-1,-1]","[0.04404330458779207,-0.10174436781893882]","[1,1,1]","[-0.0675469838434566,-0.11092037944477182]","[-1,-1,-1]","[-0.035197548832631965,0.1808886986429708]","[-1,-1,-1]","[0.0695450788196851,0.043266147642954014]","[1,1,1]","[0.02,0.02]",312.5939,0,21,21,38,1,,,,,,,
,,,,,,,682cada06e96e8a828a90ee2,682f1017f572c1c0528d9f0d,2025-05-22_13h56.10.564,cuing_paradigm_dot,2024.1.5,Win32,59.88023952,682d573fa47f1360d1451895,,,,,,,,,,,312.5941,313.0938,,,313.3441,314.2274,left,,,,,,,,0.6,0.869,,,,,,,313.0938,313.344,314.2274,"[0.07103870237104122,-0.024790204495541267]","[1,1,1]","[0.07271658326234022,0.09935568046693816]","[1,1,1]","[0.14173392027632828,-0.025424415846812782]","[1,1,1]","[0.013697420613280168,-0.029997232068978183]","[1,1,1]","[-0.02935158797373372,0.19285033595046114]","[-1,-1,-1]","[0.17862742943077614,0.025101591821877545]","[1,1,1]","[0.018191154923729188,-0.12092725614317783]","[-1,-1,-1]","[-0.0679789403653532,0.07005330493439708]","[1,1,1]","[-0.06873412161084455,-0.1269193486350161]","[1,1,1]","[-0.0356480805752837,0.023738311980513804]","[-1,-1,-1]","[0.07280215864661799,-0.11142582733124798]","[-1,-1,-1]","[0.19105905290200614,-0.043863562354850526]","[-1,-1,-1]","[0.12502263337295988,-0.099000361860295]","[1,1,1]","[-0.16490895849949835,0.023953022724849497]","[-1,-1,-1]","[0.12356551181498976,0.13346612983305647]","[1,1,1]","[0.11397678412949039,0.07540091330637845]","[1,1,1]","[0.04399929696274779,0.06460393200512687]","[1,1,1]","[-0.012559920123669428,0.15631866029456767]","[1,1,1]","[-0.07778076896106664,-0.019750931294394942]","[1,1,1]","[0.04222914581460074,0.007838081820518141]","[-1,-1,-1]","[0.09511989061515458,-0.14493205744364993]","[-1,-1,-1]","[0.04030338078445363,0.1353821861400097]","[-1,-1,-1]","[-0.11086826345277176,0.025532899197004022]","[-1,-1,-1]","[-0.10225855223976275,0.12211109027831671]","[-1,-1,-1]","[0.0019616059268199315,0.11283135888986585]","[1,1,1]","[-0.03832753372789923,0.10340610745967749]","[1,1,1]","[-0.12671829719666994,-0.13363479052845856]","[1,1,1]","[0.03323685034736755,-0.18719353443402156]","[1,1,1]","[-0.10703613792475329,-0.06531414101057119]","[1,1,1]","[-0.0632833190668782,-0.08708817999176428]","[-1,-1,-1]","[-0.01349972330305773,0.06126153059046259]","[-1,-1,-1]","[0.07550712811525345,0.03616056019669362]","[1,1,1]","[0.02,0.02]",315.3272,0,22,22,157,1,,,,,,,
,,,,,,,682cada06e96e8a828a90ee2,682f1017f572c1c0528d9f0d,2025-05-22_13h56.10.564,cuing_paradigm_dot,2024.1.5,Win32,59.88023952,682d573fa47f1360d1451895,,,,,,,,,,,315.3275,315.8272,,,316.0774,316.4939,left,,,,,,,,0.6,0.3991,,,,,,,315.8272,316.0774,316.4939,"[-0.033235009730478514,-0.061749475968771415]","[-1,-1,-1]","[0.1689977763005235,-0.06687903282979714]","[1,1,1]","[-0.10281458342141095,-0.08821878340253488]","[-1,-1,-1]","[-0.048234108022290924,0.18854358903716475]","[1,1,1]","[-0.1170687967815941,0.11221622298233758]","[-1,-1,-1]","[-0.05245688588645985,0.10748420411495636]","[-1,-1,-1]","[0.0007094601846103802,-0.14570046610638673]","[1,1,1]","[-0.0803179213310775,-0.05191559943331542]","[1,1,1]","[0.09377123340190763,0.06590830913783109]","[1,1,1]","[0.11404251900333276,0.008161736110896633]","[-1,-1,-1]","[0.07699502085410176,-0.1349782821182545]","[1,1,1]","[0.11220487391094366,0.11095897998508257]","[1,1,1]","[0.16628909219790727,-0.005195754414421126]","[1,1,1]","[0.009575615926458713,0.12407982063085535]","[1,1,1]","[0.05573784073543387,0.011504832973680722]","[1,1,1]","[-0.1653684062419028,-0.05817451724814418]","[-1,-1,-1]","[0.05020750846801905,0.10307834184954687]","[-1,-1,-1]","[-0.14765328152749663,0.05561594185669987]","[1,1,1]","[-0.11865449643157322,0.15338815906017872]","[-1,-1,-1]","[-0.17699128628230307,-0.017668416506672897]","[1,1,1]","[-0.07271339888133546,0.14322906188301393]","[1,1,1]","[0.08479046603594376,-0.02633818732554159]","[1,1,1]","[-0.10975368115317156,-0.002079869655905139]","[-1,-1,-1]","[0.06381198966580688,0.15476515251204287]","[1,1,1]","[-0.18351084281096777,0.02908156437794694]","[1,1,1]","[0.007192333570431888,-0.05134208074089017]","[-1,-1,-1]","[-0.12489411535759937,-0.12578936155483839]","[-1,-1,-1]","[0.09844235852514854,-0.08949559431542958]","[1,1,1]","[-0.06247559782322259,0.056338867582653086]","[-1,-1,-1]","[-0.056744437184301055,-0.12161557349243536]","[1,1,1]","[0.034699114504494304,-0.1019866258072611]","[-1,-1,-1]","[0.013249465016000488,0.014264017785181635]","[1,1,1]","[0.02,0.02]",317.5939,0,23,23,171,1,,,,,,,
,,,,,,,682cada06e96e8a828a90ee2,682f1017f572c1c0528d9f0d,2025-05-22_13h56.10.564,cuing_paradigm_dot,2024.1.5,Win32,59.88023952,682d573fa47f1360d1451895,,,,,,,,,,,317.5942,318.0939,,,318.3441,319.444,right,,,,,,,,0.4,1.0845,,,,,,,318.094,318.344,319.444,"[-0.06914532358061773,-0.05978984163844288]","[-1,-1,-1]","[-0.07432250872062755,-0.12346478798619147]","[1,1,1]","[0.037184687642372906,-0.19217918103789342]","[1,1,1]","[0.11432765961390785,0.05018609685953414]","[-1,-1,-1]","[-0.026717576987417162,0.1233434838631736]","[1,1,1]","[0.12308931247573966,-0.1175939204846236]","[-1,-1,-1]","[-0.14349127821894778,0.006203659444775668]","[-1,-1,-1]","[-0.14438906110954441,0.09158291936568613]","[-1,-1,-1]","[0.06005387602460998,0.053931757295281595]","[1,1,1]","[-0.05942289533794847,-0.1654292363080923]","[-1,-1,-1]","[-0.19083347710190263,0.02835799681077005]","[1,1,1]","[-0.09733841228848875,0.07258997479058116]","[1,1,1]","[0.0942128716604803,0.08942581566768132]","[-1,-1,-1]","[-0.11187034889215756,-0.07790874423022982]","[-1,-1,-1]","[0.028308011728269085,0.018597810906981795]","[-1,-1,-1]","[0.03287704971913541,0.14818785336945248]","[-1,-1,-1]","[0.01019022483107559,0.07654931213964623]","[-1,-1,-1]","[-0.15284190321434288,-0.10676744735273246]","[1,1,1]","[0.07009037757543789,0.014423033730864976]","[-1,-1,-1]","[-0.10599363472263819,-0.00951419015229134]","[1,1,1]","[0.17087905837143008,-0.07807575324469812]","[-1,-1,-1]","[-0.08960652948238265,0.13774842563597886]","[-1,-1,-1]","[0.12470335662916121,-0.04853389499454223]","[1,1,1]","[-0.18184736397424214,-0.05223578688413395]","[-1,-1,-1]","[0.010003549226186167,0.1858435551284533]","[1,1,1]","[-0.06942854554389308,0.17809043509462422]","[1,1,1]","[-0.0284548005293578,0.05132727107238494]","[-1,-1,-1]","[0.027192884463139257,-0.06371188429284984]","[-1,-1,-1]","[0.09431062163659754,0.13395301862292086]","[-1,-1,-1]","[0.0005031500124440073,-0.12804528759681966]","[1,1,1]","[0.08723809823459139,-0.03093361281872554]","[1,1,1]","[0.14708105278272365,0.13408197357719093]","[-1,-1,-1]","[0.02,0.02]",320.544,0,24,24,55,1,,,,,,,
,,,,,,,682cada06e96e8a828a90ee2,682f1017f572c1c0528d9f0d,2025-05-22_13h56.10.564,cuing_paradigm_dot,2024.1.5,Win32,59.88023952,682d573fa47f1360d1451895,,,,,,,,,,,320.5443,321.0439,,,321.2942,321.6439,left,,,,,,,,0.9,0.3425,,,,,,,321.0439,321.2941,321.644,"[-0.19008457411958757,0.02785995279244392]","[1,1,1]","[-0.081418787072691,-0.056342605512776596]","[1,1,1]","[-0.13929070824182055,-0.10303888518302487]","[1,1,1]","[0.07935488132718249,0.10947893784147109]","[1,1,1]","[0.12676763658596893,-0.08265349555476578]","[1,1,1]","[-0.09819546467149602,0.04627149471253553]","[1,1,1]","[0.10113978885220337,-0.11411054544457956]","[1,1,1]","[-0.042530060548581876,0.19450978336767677]","[1,1,1]","[0.039569601489289556,-0.008834158399462734]","[-1,-1,-1]","[0.06259172057985256,-0.06357390546210895]","[1,1,1]","[-0.03498767591949725,-0.1722532642969796]","[1,1,1]","[0.17340647612108148,0.002902977153223185]","[1,1,1]","[-0.12690809756928564,-0.011647355257213686]","[1,1,1]","[-0.01625407240914458,0.015913931371041422]","[1,1,1]","[0.10352898169007559,0.03415828232596368]","[1,1,1]","[0.013570626144587327,0.05726840900794526]","[1,1,1]","[-0.014722491258975158,-0.04119392732299398]","[1,1,1]","[-0.040252260907520494,-0.0951432114281427]","[1,1,1]","[0.18983362708443205,0.05241378576147602]","[1,1,1]","[-0.11844741515310775,-0.15800825615196584]","[1,1,1]","[0.01686693340142642,-0.10527243046909414]","[1,1,1]","[0.056125469122887364,0.16463379869160633]","[1,1,1]","[-0.10512650340944323,0.14561273632842217]","[1,1,1]","[-0.08248732765479906,0.10260894600461883]","[1,1,1]","[0.00829008648542595,0.13714330539350011]","[1,1,1]","[0.06182718612842901,0.058753239199117485]","[1,1,1]","[0.1667269481485093,-0.04203810152601479]","[1,1,1]","[0.10569730986048932,0.15405649771933566]","[1,1,1]","[0.022450310384420764,-0.1942874162599609]","[1,1,1]","[0.14095849747311787,0.1326186054067655]","[-1,-1,-1]","[-0.07559781656424597,-0.14801713428001867]","[-1,-1,-1]","[0.17510973329353227,-0.09178431983713284]","[1,1,1]","[0.02,0.02]",322.7439,0,25,25,195,1,,,,,,,
,,,,,,,682cada06e96e8a828a90ee2,682f1017f572c1c0528d9f0d,2025-05-22_13h56.10.564,cuing_paradigm_dot,2024.1.5,Win32,59.88023952,682d573fa47f1360d1451895,,,,,,,,,,,322.7442,323.2439,,,323.4942,324.1439,left,,,,,,,,0.55,0.6386,,,,,,,323.2439,323.4942,324.144,"[0.041804075606295836,-0.10261306971684313]","[1,1,1]","[-0.13829558798955016,0.13697121661180386]","[1,1,1]","[0.15775382402214408,-0.11686063861653641]","[-1,-1,-1]","[0.06011203064132904,0.09348429036217965]","[1,1,1]","[-0.08540574814996545,0.0708522762617562]","[1,1,1]","[-0.10601291034689839,-0.11140101602001731]","[1,1,1]","[-0.08391481806768894,-0.008641965333207734]","[-1,-1,-1]","[0.034222980938874874,0.05896895885415701]","[-1,-1,-1]","[0.032535436924355426,-0.05991738850715073]","[1,1,1]","[-0.013403172523998589,-0.1521790610422627]","[1,1,1]","[0.05174160330305023,0.15429300158641862]","[1,1,1]","[0.09310133397265451,-0.032572231895045656]","[-1,-1,-1]","[-0.11520804779349311,-0.057403965831793476]","[-1,-1,-1]","[-0.06463803014012269,0.14671663675968696]","[1,1,1]","[0.13239977757205348,0.07190271333786395]","[-1,-1,-1]","[0.12886391650067713,0.0021720698444067247]","[1,1,1]","[-0.0909679889547125,0.1777890206146823]","[1,1,1]","[-0.05747434269372962,0.022779821783756784]","[-1,-1,-1]","[0.18389183584444826,0.017223753020859715]","[-1,-1,-1]","[0.0000494886907322255,0.1409272691560442]","[1,1,1]","[0.09254767015313721,0.029566769215479592]","[-1,-1,-1]","[-0.14128646715929602,0.08779152475874329]","[-1,-1,-1]","[0.16268919474449026,-0.05454996021100866]","[1,1,1]","[0.15646610512942827,0.11896908810569479]","[1,1,1]","[-0.034991380463388344,0.1742305492520901]","[1,1,1]","[-0.1592781434121025,0.04267518315120659]","[1,1,1]","[0.11232115075837586,-0.14943840577427164]","[1,1,1]","[-0.034755546335069575,-0.043266024880005485]","[-1,-1,-1]","[-0.0667474400089471,-0.07052167626038251]","[-1,-1,-1]","[-0.12647879814888793,0.01955026859016079]","[-1,-1,-1]","[0.06954942737991698,-0.13370859822381437]","[1,1,1]","[-0.17427092839250272,-0.0024936683150218347]","[-1,-1,-1]","[0.02,0.02]",325.2438,0,26,26,140,1,,,,,,,
,,,,,,,682cada06e96e8a828a90ee2,682f1017f572c1c0528d9f0d,2025-05-22_13h56.10.564,cuing_paradigm_dot,2024.1.5,Win32,59.88023952,682d573fa47f1360d1451895,,,,,,,,,,,325.2442,325.7439,,,325.9942,326.744,left,,,,,,,,0.55,0.7315,,,,,,,325.744,325.9941,326.744,"[-0.04699413893384429,-0.045727778791330914]","[1,1,1]","[-0.09137946054327105,-0.11468295243845054]","[1,1,1]","[0.11753534198522872,0.0828289996705341]","[1,1,1]","[-0.10324124458733902,-0.02019443037877475]","[-1,-1,-1]","[-0.17518881498070193,0.044016950790259496]","[-1,-1,-1]","[0.014949691795240588,-0.15718472186276547]","[1,1,1]","[-0.03564498362131485,-0.18679510453580453]","[-1,-1,-1]","[-0.057131850678655664,0.10769125594102225]","[1,1,1]","[-0.037123674561550225,-0.11742561697420506]","[1,1,1]","[-0.1566614669054275,-0.0733133777873739]","[-1,-1,-1]","[-0.11291024707375404,0.08117143542793548]","[1,1,1]","[0.0609621557190429,-0.1891827108408508]","[-1,-1,-1]","[0.010118650057969946,0.043660050187171694]","[-1,-1,-1]","[-0.032410463094912814,0.03151186479019692]","[1,1,1]","[0.13599234883815953,-0.0929004281092218]","[-1,-1,-1]","[0.007387061739437041,-0.061915542808857735]","[1,1,1]","[0.01891850048594005,0.12325340068272658]","[1,1,1]","[0.17270941724283742,0.02257445110878243]","[-1,-1,-1]","[0.07644188905349203,0.02328006162004125]","[1,1,1]","[0.09980515685774057,-0.03443348663946994]","[1,1,1]","[0.12456118873700621,0.003466317556792117]","[-1,-1,-1]","[-0.056737853599734954,0.1809693458274422]","[1,1,1]","[-0.15884166368229893,-0.012025218149963348]","[-1,-1,-1]","[0.10077434332344958,-0.15109132463024944]","[1,1,1]","[0.026005621691974106,-0.11517241831718197]","[-1,-1,-1]","[-0.09530715045557439,-0.1673181391120333]","[-1,-1,-1]","[0.19158315265053746,-0.04861161820414675]","[-1,-1,-1]","[0.07123947606069082,-0.07494930884362958]","[1,1,1]","[0.1538916317551019,0.10260623256299702]","[1,1,1]","[0.054876722302180006,-0.013012754202654221]","[-1,-1,-1]","[-0.14387901710765033,0.1118000424472129]","[1,1,1]","[0.06358494441782496,0.1238692366094768]","[1,1,1]","[0.02,0.02]",327.8439,0,27,27,126,1,,,,,,,
,,,,,,,682cada06e96e8a828a90ee2,682f1017f572c1c0528d9f0d,2025-05-22_13h56.10.564,cuing_paradigm_dot,2024.1.5,Win32,59.88023952,682d573fa47f1360d1451895,,,,,,,,,,,327.8442,328.3439,,,328.5942,329.8106,left,,,,,,,,0.55,1.2102,,,,,,,328.3439,328.5941,329.8106,"[0.17489187796427924,-0.023848445580905195]","[1,1,1]","[-0.1158401232862707,-0.08948143236645582]","[1,1,1]","[-0.029720099806315504,-0.05551257751790694]","[-1,-1,-1]","[-0.03649679507658381,0.11192826909639093]","[-1,-1,-1]","[0.09571546327006876,0.06620542649762677]","[1,1,1]","[0.16564200081647595,0.08484087824476567]","[1,1,1]","[0.00009387866232186659,-0.021017533486760824]","[-1,-1,-1]","[-0.01790692457037967,0.06687157506616762]","[1,1,1]","[-0.0257556094550551,-0.10895503788640777]","[1,1,1]","[0.054290946467394345,-0.18300843872125672]","[1,1,1]","[-0.10776366219265471,0.09167456042182925]","[1,1,1]","[0.07118083155999634,-0.08358800042552009]","[1,1,1]","[-0.040877214986888885,-0.013879036219954052]","[-1,-1,-1]","[-0.05857936001135046,-0.17241587657218957]","[1,1,1]","[0.03460248444708643,-0.04416647596942349]","[-1,-1,-1]","[-0.18158218781331917,-0.06893948881657673]","[-1,-1,-1]","[0.027298821389227755,0.10836841158273623]","[1,1,1]","[-0.1753636578696789,-0.017304235402020605]","[1,1,1]","[-0.15539981587986149,0.08357902054652581]","[-1,-1,-1]","[-0.07029111856190169,-0.05585869593616742]","[1,1,1]","[0.11785714505864978,0.02850485824393584]","[1,1,1]","[-0.00088362846459663,0.1415778873249479]","[-1,-1,-1]","[-0.11061696680246484,0.1564337201524242]","[1,1,1]","[0.06319125422405589,0.12895766175369955]","[1,1,1]","[0.029718242378069158,-0.09490214508994577]","[-1,-1,-1]","[0.1609742410223459,-0.062212165546963204]","[-1,-1,-1]","[-0.07715021201530288,0.034837402098899906]","[-1,-1,-1]","[0.1135902119645281,0.12097871371940558]","[-1,-1,-1]","[-0.19465640711543722,0.03425349698601668]","[-1,-1,-1]","[-0.11716405496285276,0.03947489276198807]","[1,1,1]","[0.08872933676913967,0.16660044624210044]","[1,1,1]","[0.16576070512659707,0.03634850624277669]","[-1,-1,-1]","[0.02,0.02]",330.9106,0,28,28,124,1,,,,,,,
,,,,,,,682cada06e96e8a828a90ee2,682f1017f572c1c0528d9f0d,2025-05-22_13h56.10.564,cuing_paradigm_dot,2024.1.5,Win32,59.88023952,682d573fa47f1360d1451895,,,,,,,,,,,330.911,331.4105,,,331.661,332.7606,left,,,,,,,,0.55,1.0879,,,,,,,331.4106,331.6609,332.7607,"[0.07355931596376784,0.1348697277766422]","[1,1,1]","[0.042933992742289345,-0.17825149028205947]","[-1,-1,-1]","[-0.06926266115000888,-0.14372378571925468]","[1,1,1]","[-0.06620183949027038,0.11720674746819229]","[-1,-1,-1]","[-0.16647923536804352,0.017939587052027525]","[-1,-1,-1]","[0.07117620203235267,-0.09936017238949277]","[1,1,1]","[-0.12519669264970018,0.04085896047162308]","[-1,-1,-1]","[-0.138085775764582,-0.1099840530071733]","[1,1,1]","[0.16058400560241567,0.03156894609491342]","[1,1,1]","[-0.027690597715148417,0.18490844700748726]","[1,1,1]","[0.08641086792183131,-0.17255446284650885]","[-1,-1,-1]","[-0.1800276363937832,-0.03339178342983287]","[-1,-1,-1]","[0.0008431045297893798,-0.11496087125785248]","[-1,-1,-1]","[0.10903197659769892,-0.031821276921154266]","[1,1,1]","[-0.04309982151121058,0.02587972508464234]","[-1,-1,-1]","[0.19820370214033783,0.008614628172863856]","[-1,-1,-1]","[-0.019620649866004078,-0.03601383987256451]","[1,1,1]","[0.1475651916287415,0.0754195463774728]","[1,1,1]","[0.011961663481863014,0.009224744474140404]","[1,1,1]","[-0.11018010298448207,0.1630296664576682]","[1,1,1]","[-0.11304256006097883,-0.15128616414560295]","[-1,-1,-1]","[-0.09776687229596188,-0.04643503632896154]","[-1,-1,-1]","[0.044775791098149796,-0.015033438643668247]","[1,1,1]","[0.15701908837493006,0.1165646472521318]","[1,1,1]","[-0.035290518582317326,-0.09451324888988435]","[1,1,1]","[-0.020742315260786355,-0.1743795964768077]","[-1,-1,-1]","[0.16177303211854396,-0.015906485984816185]","[-1,-1,-1]","[0.10871731283891471,-0.07551073261843143]","[1,1,1]","[0.04508417518353571,0.05408343744649577]","[1,1,1]","[0.12692986029401232,0.15100813188866663]","[1,1,1]","[-0.17408453268596025,0.0759068188193578]","[1,1,1]","[-0.13516026185323987,0.10544613767444969]","[-1,-1,-1]","[0.02,0.02]",333.8606,0,29,29,141,1,,,,,,,
,,,,,,,682cada06e96e8a828a90ee2,682f1017f572c1c0528d9f0d,2025-05-22_13h56.10.564,cuing_paradigm_dot,2024.1.5,Win32,59.88023952,682d573fa47f1360d1451895,,,,,,,,,,,333.8611,334.3605,,,334.6108,335.3273,left,,,,,,,,0.9,0.7058,,,,,,,334.3606,334.6107,335.3274,"[0.09236857821855297,0.01861328232952286]","[1,1,1]","[0.18982757303098954,0.014538142209556662]","[1,1,1]","[0.11363385516713839,0.08075020410862332]","[1,1,1]","[-0.022582779912156896,0.08958920082537382]","[1,1,1]","[0.14409613071143162,0.019573874205898182]","[1,1,1]","[0.16563232855008342,-0.06921824395447934]","[1,1,1]","[0.18677574193339122,-0.03488233836508258]","[1,1,1]","[0.008651753096478114,0.01775737824626229]","[1,1,1]","[-0.15421160618271462,-0.0338225968219801]","[1,1,1]","[0.16185307639905452,0.11059450179244472]","[1,1,1]","[-0.09365802759124336,-0.16416128565340968]","[1,1,1]","[0.03352471390357391,0.09055367023956257]","[1,1,1]","[-0.15379214855837608,0.04402328798104624]","[1,1,1]","[0.0841347182008722,-0.08162718542851546]","[1,1,1]","[0.08069053823024427,-0.15885377026987954]","[1,1,1]","[-0.02179663869481524,0.183629684120383]","[1,1,1]","[-0.034296256208550514,-0.155598315321359]","[1,1,1]","[-0.015934232889675614,-0.1167720291505289]","[1,1,1]","[0.15151330012369496,-0.12137273733788626]","[-1,-1,-1]","[-0.058682476767638894,0.017413029837698647]","[1,1,1]","[0.04687303180033099,-0.047438537304818174]","[1,1,1]","[-0.15059779953137697,0.09661904813508719]","[1,1,1]","[-0.1872719335296109,-0.0076686487743361075]","[1,1,1]","[-0.073589492716611,0.1853190689976931]","[1,1,1]","[0.01934694731685309,-0.13707736173690185]","[1,1,1]","[-0.15685871484323005,-0.10838570523939076]","[1,1,1]","[-0.09018740290396672,-0.03424391197952959]","[1,1,1]","[-0.00552472042858223,0.14105549937017597]","[-1,-1,-1]","[-0.021814033738887375,-0.015546973650884158]","[1,1,1]","[0.03373222292270745,-0.17736504600578523]","[1,1,1]","[0.05922234255734897,0.16539322489177866]","[-1,-1,-1]","[-0.11200443076491429,0.11596721232257108]","[1,1,1]","[0.02,0.02]",336.4273,0,30,30,190,1,,,,,,,
,,,,,,,682cada06e96e8a828a90ee2,682f1017f572c1c0528d9f0d,2025-05-22_13h56.10.564,cuing_paradigm_dot,2024.1.5,Win32,59.88023952,682d573fa47f1360d1451895,,,,,,,,,,,336.4276,336.9273,,,337.1776,337.7274,left,,,,,,,,0.9,0.5316,,,,,,,336.9273,337.1775,337.7274,"[0.18755725441788548,-0.027400299948778895]","[1,1,1]","[-0.04182528030687461,0.14116585789644673]","[1,1,1]","[0.07587025105241434,0.0676777525293906]","[1,1,1]","[-0.1669966999301699,-0.08849072660639848]","[1,1,1]","[0.10445224427806522,0.010720072120615364]","[1,1,1]","[-0.020214777335263764,-0.11688724269038792]","[1,1,1]","[0.029410572402874403,0.18065652202468577]","[-1,-1,-1]","[-0.037589306468648116,0.0784549165152626]","[1,1,1]","[-0.07059333890714035,-0.12256849645889585]","[1,1,1]","[-0.006673302172987074,-0.05319441148410648]","[1,1,1]","[0.025132655851903336,0.022514584235234728]","[1,1,1]","[0.046831541549294545,0.11233039996170845]","[1,1,1]","[-0.012060723277262687,-0.1633251873746874]","[1,1,1]","[-0.11207001788770235,0.06838505050232146]","[1,1,1]","[0.06691682162263106,-0.039915050137123445]","[1,1,1]","[0.07589127173937231,-0.14737110861976196]","[1,1,1]","[-0.048772423945045044,-0.03324607641987156]","[1,1,1]","[0.08688207795939848,-0.10311440479478429]","[1,1,1]","[0.04653225956596321,-0.11601797958448588]","[1,1,1]","[0.14277634787833846,-0.043005442641445984]","[-1,-1,-1]","[-0.11989761130631273,0.008216617906625178]","[1,1,1]","[0.14927399067560318,0.059127151406956874]","[1,1,1]","[-0.17446428980181558,0.05847923970259817]","[1,1,1]","[-0.10021251762101656,-0.15951650255006067]","[1,1,1]","[-0.011245664973426413,0.17543957797118526]","[1,1,1]","[-0.1094385867670718,0.14367005492587032]","[1,1,1]","[-0.04067926902514049,0.022557090535026615]","[1,1,1]","[-0.1742375020487322,0.009468823305340515]","[1,1,1]","[-0.07000247102905463,-0.18731518204748793]","[1,1,1]","[-0.1626354307540316,0.10850773316663381]","[-1,-1,-1]","[-0.13082522786154227,-0.1079708946487968]","[1,1,1]","[-0.09539210405174592,-0.03603783163627322]","[1,1,1]","[0.02,0.02]",338.8272,0,31,31,191,1,,,,,,,
,,,,,,,682cada06e96e8a828a90ee2,682f1017f572c1c0528d9f0d,2025-05-22_13h56.10.564,cuing_paradigm_dot,2024.1.5,Win32,59.88023952,682d573fa47f1360d1451895,,,,,,,,,,,338.8276,339.3272,,,339.5775,340.6107,left,,,,,,,,0.5,1.019,,,,,,,339.3272,339.5775,340.6108,"[-0.13748331040240702,0.025393842506247433]","[1,1,1]","[-0.18284252391195427,-0.03056655299242641]","[1,1,1]","[0.17170395610532035,-0.06173311411853051]","[1,1,1]","[-0.10299227398076749,-0.09380536682437911]","[-1,-1,-1]","[-0.13119282886762423,-0.1363906433129289]","[-1,-1,-1]","[0.006995926958790108,0.13824673078923835]","[-1,-1,-1]","[0.11140279487659371,0.05614641227828107]","[-1,-1,-1]","[0.051289916195474024,0.12303110026627387]","[-1,-1,-1]","[0.03533614995506566,-0.0739671391339797]","[-1,-1,-1]","[0.1393168743366841,-0.13910233057932359]","[-1,-1,-1]","[0.029134003329114307,-0.1687756193071187]","[1,1,1]","[0.09729924759744286,0.16365800199860056]","[-1,-1,-1]","[-0.1007761706071137,0.0454610971605694]","[-1,-1,-1]","[-0.02660792326313911,0.0984096641322095]","[1,1,1]","[-0.07275007496410048,0.17406931166240994]","[1,1,1]","[-0.016345785740972018,-0.09796961748264409]","[1,1,1]","[-0.0611134428407151,-0.06497661642326344]","[1,1,1]","[-0.023849379379494006,-0.013029531560703207]","[1,1,1]","[0.09418065945533827,0.013206226564894244]","[-1,-1,-1]","[-0.14048965967935115,-0.01648200147816619]","[-1,-1,-1]","[0.14596146247111158,-0.003290931478442981]","[-1,-1,-1]","[-0.14063922977466825,0.09054062746601185]","[1,1,1]","[0.1074415717795494,-0.03440987525343239]","[1,1,1]","[-0.09915597257468882,0.09426040837185116]","[1,1,1]","[0.04791658068457221,0.07406301431724359]","[-1,-1,-1]","[-0.03123494477045932,0.19366195779307846]","[1,1,1]","[-0.00019037338820879844,-0.0511122395205012]","[-1,-1,-1]","[-0.054272141364006266,-0.1497227299937827]","[-1,-1,-1]","[0.18091736283121362,0.08084330370354956]","[1,1,1]","[0.07071218119532778,-0.15860615273159379]","[-1,-1,-1]","[0.045958378275889465,0.010328852047958156]","[1,1,1]","[-0.06217553949769182,0.01354777662639619]","[1,1,1]","[0.02,0.02]",341.7106,0,32,32,114,1,,,,,,,
,,,,,,,682cada06e96e8a828a90ee2,682f1017f572c1c0528d9f0d,2025-05-22_13h56.10.564,cuing_paradigm_dot,2024.1.5,Win32,59.88023952,682d573fa47f1360d1451895,,,,,,,,,,,341.7109,342.2105,,,342.461,343.1107,left,,,,,,,,0.6,0.6316,,,,,,,342.2106,342.4609,343.1107,"[-0.1136929034931353,-0.1140298580267845]","[-1,-1,-1]","[0.03532804125384518,0.0050308135473329605]","[1,1,1]","[-0.13724965549643012,0.003018750135884248]","[-1,-1,-1]","[0.10056910467460731,-0.14857426632113052]","[-1,-1,-1]","[0.006456228841713738,-0.0647137735315363]","[1,1,1]","[-0.09428794139891257,-0.06611472883510702]","[1,1,1]","[-0.1538866550768755,0.09800063612306764]","[1,1,1]","[-0.17497335547840892,-0.08405338358174982]","[-1,-1,-1]","[0.10868983185689486,0.08632567684955784]","[1,1,1]","[-0.1540792290491141,-0.1231375032981819]","[1,1,1]","[-0.0032317030885166426,0.08095377869253377]","[1,1,1]","[0.04730058578517986,-0.17300392887655472]","[1,1,1]","[0.02750679992788474,-0.11412938515354676]","[-1,-1,-1]","[-0.01033285041477691,-0.16018112443484345]","[1,1,1]","[-0.032705677604966336,-0.07359456069266232]","[1,1,1]","[0.13320448679258434,-0.05140787402653473]","[-1,-1,-1]","[0.17823867771835558,0.008040506134236883]","[-1,-1,-1]","[-0.003728349664562271,0.19843965941752914]","[-1,-1,-1]","[-0.14174348513949314,0.05825565186278986]","[-1,-1,-1]","[-0.09649693555028355,0.10009305946715537]","[1,1,1]","[-0.023829997664485958,0.015341889424571147]","[1,1,1]","[0.07705982256458986,-0.07110316995663168]","[-1,-1,-1]","[0.1377711994059435,0.02641111276549023]","[1,1,1]","[0.05794049348872771,0.05140491340291492]","[1,1,1]","[0.06741042052046581,0.1869070628708615]","[-1,-1,-1]","[-0.029137012900508078,-0.1197626315872055]","[1,1,1]","[-0.06360358407768466,0.03321552097783944]","[-1,-1,-1]","[-0.02901033192721565,0.14008623318277466]","[1,1,1]","[0.04304100077127427,-0.037524017979875035]","[1,1,1]","[0.09414790986170427,0.14002522623700514]","[-1,-1,-1]","[0.08089043042379526,-0.009139704446750342]","[1,1,1]","[-0.1111057923120786,0.14200530616250265]","[1,1,1]","[0.02,0.02]",344.2106,0,33,33,168,1,,,,,,,
,,,,,,,682cada06e96e8a828a90ee2,682f1017f572c1c0528d9f0d,2025-05-22_13h56.10.564,cuing_paradigm_dot,2024.1.5,Win32,59.88023952,682d573fa47f1360d1451895,,,,,,,,,,,344.211,344.7106,,,344.9608,345.6273,right,,,,,,,,0.6,0.6596,,,,,,,344.7106,344.9608,345.6274,"[0.06812225377345361,-0.04389644428024634]","[1,1,1]","[-0.11451650975415664,-0.10443452977773776]","[-1,-1,-1]","[-0.033410733227981305,0.014863618860725323]","[1,1,1]","[0.0540490095873475,-0.1358335228993073]","[1,1,1]","[-0.15651530220678275,-0.07380698128981786]","[1,1,1]","[0.04139984827541244,0.12037148868085276]","[-1,-1,-1]","[-0.12630813705975907,0.021415940990197672]","[1,1,1]","[0.009045850412401583,0.04648015196957669]","[1,1,1]","[0.009752336883331388,0.1982254960175669]","[-1,-1,-1]","[-0.11864292468981144,-0.04785173168229813]","[1,1,1]","[0.11318093944017624,0.1379685512917169]","[1,1,1]","[-0.10723265329163224,0.10316789164455087]","[-1,-1,-1]","[-0.05598490302684389,0.15007624231196118]","[1,1,1]","[-0.12977929423371543,0.06725483557478573]","[1,1,1]","[-0.04149399354889636,-0.02584719242962831]","[-1,-1,-1]","[-0.04078982729216986,-0.19453337207452964]","[-1,-1,-1]","[0.030527258548341672,-0.075414724880612]","[-1,-1,-1]","[0.1517412060034575,-0.047472016193266624]","[-1,-1,-1]","[-0.18496928782058744,0.008885804685716921]","[-1,-1,-1]","[0.17002487406259184,0.002982154693695902]","[-1,-1,-1]","[-0.04104755791308911,-0.1411629459747781]","[1,1,1]","[0.10892919518079928,-0.03141597975494905]","[1,1,1]","[0.09584296587948296,-0.11623871229991563]","[-1,-1,-1]","[-0.002444429952572684,-0.01216314992233796]","[1,1,1]","[0.0657802994000485,0.1533725055776681]","[1,1,1]","[0.03518692263027219,0.0782309831969568]","[1,1,1]","[-0.010140741651241238,-0.07307155338656476]","[1,1,1]","[-0.013945920109623306,0.08740748370671014]","[-1,-1,-1]","[-0.11157343600495404,0.15822587496398605]","[1,1,1]","[-0.08479415241815653,0.006018819839481951]","[1,1,1]","[0.08541981391918704,0.03566555545314536]","[1,1,1]","[0.1433110826787964,0.07985201288764714]","[-1,-1,-1]","[0.02,0.02]",346.7272,0,34,34,174,1,,,,,,,
,,,,,,,682cada06e96e8a828a90ee2,682f1017f572c1c0528d9f0d,2025-05-22_13h56.10.564,cuing_paradigm_dot,2024.1.5,Win32,59.88023952,682d573fa47f1360d1451895,,,,,,,,,,,346.7276,347.2272,,,347.4776,348.5274,right,,,,,,,,0.55,1.0313,,,,,,,347.2273,347.4775,348.5275,"[-0.09277197700821925,0.11424470065479922]","[1,1,1]","[0.06060778776438801,-0.0374326273761816]","[1,1,1]","[0.11781365668971058,-0.03096338568794229]","[1,1,1]","[0.1156038044687072,0.15367367747399777]","[-1,-1,-1]","[-0.14920385144682866,-0.05275714835547839]","[-1,-1,-1]","[0.009931763783884223,0.18574482717666158]","[1,1,1]","[-0.010503999040089184,0.008737133502459062]","[1,1,1]","[-0.084138676278484,0.1767475508022192]","[-1,-1,-1]","[-0.02120513918406682,-0.15848153062940362]","[1,1,1]","[-0.17423883950068747,0.005678683686452092]","[-1,-1,-1]","[0.041464674414928925,0.1554701566407666]","[1,1,1]","[-0.07472009669504782,-0.10599561641144369]","[1,1,1]","[-0.16860169500189517,0.09958144974645286]","[1,1,1]","[-0.1928518818705936,-0.05085263295371719]","[1,1,1]","[0.007763087142881735,-0.10610711396772286]","[1,1,1]","[-0.12713506618431805,0.013238445084661809]","[1,1,1]","[0.12968338361927348,-0.11619736328498512]","[-1,-1,-1]","[0.08341794323838836,-0.002132609668848658]","[1,1,1]","[-0.0049082106896005465,-0.052749621300610006]","[-1,-1,-1]","[-0.03953853185013052,0.09494262224838582]","[-1,-1,-1]","[-0.07293481636717625,-0.16309399982690664]","[-1,-1,-1]","[-0.08852597182392358,-0.04420319732801167]","[-1,-1,-1]","[-0.03402831269125102,-0.08086541641211124]","[-1,-1,-1]","[-0.17442422343795755,0.05147716330969645]","[-1,-1,-1]","[0.07749587594199389,-0.10789812757186382]","[-1,-1,-1]","[-0.08341930991901107,0.07285472700947068]","[1,1,1]","[0.05424936320673304,0.08504081452240662]","[-1,-1,-1]","[0.14526023200596364,0.12379723767557259]","[1,1,1]","[-0.043923538867269414,0.04892297646104508]","[1,1,1]","[-0.028887462617871774,0.16324982968301657]","[-1,-1,-1]","[0.039940643488519195,-0.1758102774605015]","[1,1,1]","[0.1587796985513499,-0.04544806604810782]","[1,1,1]","[0.02,0.02]",349.6273,0,35,35,120,1,,,,,,,
,,,,,,,682cada06e96e8a828a90ee2,682f1017f572c1c0528d9f0d,2025-05-22_13h56.10.564,cuing_paradigm_dot,2024.1.5,Win32,59.88023952,682d573fa47f1360d1451895,,,,,,,,,,,349.6276,350.1273,,,350.3776,351.4273,right,,,,,,,,0.4,1.043,,,,,,,350.1273,350.3775,351.4275,"[-0.011792631086938258,-0.014121929946654106]","[1,1,1]","[-0.1068065592883775,-0.08379006107310288]","[1,1,1]","[-0.15609317967028374,-0.004200564023024071]","[-1,-1,-1]","[0.07752698453255456,0.05980676329969149]","[-1,-1,-1]","[0.11484128070698899,-0.013269646035358905]","[-1,-1,-1]","[-0.13662752805665027,0.10998136160785187]","[-1,-1,-1]","[-0.06813348716388505,-0.009901087024357259]","[-1,-1,-1]","[0.15794474873154346,0.07081265899772458]","[1,1,1]","[-0.13952412405129913,-0.12011801334424554]","[1,1,1]","[0.035896114284893324,-0.1452685751791194]","[1,1,1]","[-0.1136295389088024,0.044941730851638995]","[-1,-1,-1]","[-0.030914536202286586,-0.13469874789425998]","[1,1,1]","[-0.07663088248512594,-0.05093290985351827]","[-1,-1,-1]","[-0.01628650543734796,0.1271288962417757]","[-1,-1,-1]","[0.008361321239747485,0.054042444997272156]","[-1,-1,-1]","[0.07715173202770863,0.17173775723956541]","[-1,-1,-1]","[-0.03146640280796518,0.03074563194593291]","[-1,-1,-1]","[0.16447847189065137,-0.04474379601372405]","[1,1,1]","[-0.007524683070470302,0.1952571511754651]","[1,1,1]","[0.14481441216029992,0.12166826801809077]","[-1,-1,-1]","[-0.02659488967462161,-0.18684526712488456]","[1,1,1]","[-0.11078509678501866,-0.1489920383483544]","[-1,-1,-1]","[-0.15629330395097576,-0.0636762982668326]","[-1,-1,-1]","[0.03520604791409578,-0.05771824441476133]","[1,1,1]","[0.13774477142414257,-0.13063800792007554]","[-1,-1,-1]","[0.04029608762793719,0.014246744235788313]","[1,1,1]","[0.18806142426673053,0.03951889912152988]","[1,1,1]","[-0.06647564196984553,0.12307159329254057]","[-1,-1,-1]","[-0.15902822618740428,0.06592357072920314]","[1,1,1]","[-0.11574769627595637,-0.01533796496653037]","[-1,-1,-1]","[0.0763484085238556,-0.1618481937309748]","[-1,-1,-1]","[0.057048360896008204,0.11703665057020748]","[-1,-1,-1]","[0.02,0.02]",352.5272,0,36,36,40,1,,,,,,,
,,,,,,,682cada06e96e8a828a90ee2,682f1017f572c1c0528d9f0d,2025-05-22_13h56.10.564,cuing_paradigm_dot,2024.1.5,Win32,59.88023952,682d573fa47f1360d1451895,,,,,,,,,,,352.5276,353.0273,,,353.2778,353.8607,right,,,,,,,,0.1,0.5749,,,,,,,353.0273,353.2778,353.8608,"[-0.13815777264611634,-0.06486214507584315]","[-1,-1,-1]","[-0.011802759845935578,0.19582022073252187]","[-1,-1,-1]","[0.07077654069215057,0.17415671930916282]","[-1,-1,-1]","[0.06083330874295083,-0.16366671562873386]","[-1,-1,-1]","[0.06683847648692184,-0.05466291645712807]","[-1,-1,-1]","[0.017116268321013393,-0.15850430586365064]","[-1,-1,-1]","[-0.18291180823313058,0.006144569835827171]","[-1,-1,-1]","[-0.03574972695510676,-0.19014939955011614]","[-1,-1,-1]","[0.06258215515384397,0.0704263188377612]","[-1,-1,-1]","[-0.03537509660291633,0.022899505829390265]","[-1,-1,-1]","[-0.15831925937710953,-0.10507829514820619]","[-1,-1,-1]","[-0.09162826292578025,0.027800085999985815]","[-1,-1,-1]","[-0.08215113396193882,0.09718093294830135]","[-1,-1,-1]","[0.04879192621210167,0.005516619148110712]","[-1,-1,-1]","[-0.161890284998256,0.046505316899447396]","[-1,-1,-1]","[0.13487567078713888,-0.14518801982593182]","[1,1,1]","[0.17087625127313974,0.05307700812095097]","[-1,-1,-1]","[0.10653540911638516,0.10533386911920856]","[1,1,1]","[-0.057451973968587866,-0.10805578460504466]","[-1,-1,-1]","[-0.010549519566617586,-0.07607506919404508]","[-1,-1,-1]","[-0.13363429168854574,0.13323303414782753]","[-1,-1,-1]","[-0.13292053200048828,-0.008114145112330662]","[-1,-1,-1]","[-0.13104940459448267,0.07658932816486423]","[-1,-1,-1]","[0.15646815882656087,0.09914307352703938]","[-1,-1,-1]","[0.15194885058524138,-0.014626900045334304]","[-1,-1,-1]","[-0.047434877430260966,0.16392959288629855]","[-1,-1,-1]","[0.10244723187418352,-0.07643517491054691]","[1,1,1]","[0.009815667052882431,0.04160184461735256]","[-1,-1,-1]","[0.1221970924819995,0.062105401783966965]","[-1,-1,-1]","[-0.09618358677070114,-0.14970135033207607]","[-1,-1,-1]","[0.12269013384174454,0.1531533329408146]","[-1,-1,-1]","[-0.06056126515935007,-0.040355146255036674]","[-1,-1,-1]","[0.02,0.02]",354.9606,0,37,37,11,1,,,,,,,
,,,,,,,682cada06e96e8a828a90ee2,682f1017f572c1c0528d9f0d,2025-05-22_13h56.10.564,cuing_paradigm_dot,2024.1.5,Win32,59.88023952,682d573fa47f1360d1451895,,,,,,,,,,,354.9609,355.4606,,,355.7109,356.5274,left,,,,,,,,0.45,0.8055,,,,,,,355.4607,355.7108,356.5275,"[-0.06009258419850623,-0.104253772291303]","[-1,-1,-1]","[-0.008344343976830931,-0.004639475750189558]","[-1,-1,-1]","[0.08279664718175905,0.08976012939544373]","[1,1,1]","[-0.08330332990265692,-0.028302649866978294]","[1,1,1]","[-0.1070548577361711,0.04433195750502165]","[1,1,1]","[0.12076362207892909,-0.1202705425652027]","[-1,-1,-1]","[0.0912341867489788,-0.062212011248158505]","[1,1,1]","[0.09245054907728122,-0.16609655480834748]","[1,1,1]","[-0.0038721785781489697,-0.07348021848749194]","[-1,-1,-1]","[-0.18467685820097104,0.06901933980413243]","[1,1,1]","[0.04470660033398327,-0.026449163439147615]","[1,1,1]","[-0.1329464111146095,0.0879000101231848]","[-1,-1,-1]","[0.13720525666001757,0.12236196461412815]","[1,1,1]","[0.012391272317902786,0.09904481570097846]","[-1,-1,-1]","[-0.028615204966962116,0.11527346432439872]","[-1,-1,-1]","[0.03904460050597642,0.160067842833782]","[-1,-1,-1]","[0.12706811364948348,0.008309114811108383]","[-1,-1,-1]","[0.00013130627421362558,0.19692186068549025]","[1,1,1]","[-0.037222399025638106,-0.04472104314418356]","[-1,-1,-1]","[-0.01784697935673922,-0.17726165755198875]","[-1,-1,-1]","[0.17626639388001428,-0.07524321882830402]","[1,1,1]","[-0.07424852296429055,0.08515253044118326]","[-1,-1,-1]","[-0.15671519125728295,0.007328987582968139]","[1,1,1]","[0.13913287127476345,0.08064108421070795]","[-1,-1,-1]","[0.02548064089527264,-0.14827209562411556]","[1,1,1]","[-0.04517044062443854,0.03984032867119186]","[-1,-1,-1]","[0.06639198295042893,0.010942592684348475]","[1,1,1]","[0.18499337213479253,0.0017205039677553882]","[-1,-1,-1]","[-0.06652042069415631,-0.18610702124296313]","[-1,-1,-1]","[-0.10557097176104424,-0.15321452474570377]","[1,1,1]","[-0.16151334153134975,-0.10657974462989794]","[-1,-1,-1]","[-0.03265801002489906,0.15566067410012724]","[-1,-1,-1]","[0.02,0.02]",357.6273,0,38,38,63,1,,,,,,,
,,,,,,,682cada06e96e8a828a90ee2,682f1017f572c1c0528d9f0d,2025-05-22_13h56.10.564,cuing_paradigm_dot,2024.1.5,Win32,59.88023952,682d573fa47f1360d1451895,,,,,,,,,,,357.6276,358.1273,,,358.3775,358.8608,left,,,,,,,,0.9,0.467,,,,,,,358.1273,358.3775,358.8609,"[-0.04805466608012187,0.16136797785617607]","[1,1,1]","[-0.13541965909696949,0.003358645182179978]","[1,1,1]","[0.0780803465157778,-0.10605233112327744]","[-1,-1,-1]","[0.013300596736622454,0.15335987180543642]","[1,1,1]","[-0.1291427135432788,-0.07450235887337585]","[1,1,1]","[0.01418524018047234,-0.08032255616232196]","[1,1,1]","[0.04072375272841077,-0.1566154564159413]","[1,1,1]","[-0.0288394354003641,-0.12002901009875012]","[1,1,1]","[0.08419010392844996,-0.04915608210907618]","[1,1,1]","[0.1721879057173772,-0.03470050301339251]","[1,1,1]","[0.062348787321477146,0.018598365103654115]","[1,1,1]","[-0.011164408159974238,0.052116756719344896]","[1,1,1]","[-0.08400379533394775,0.136183221573853]","[1,1,1]","[0.04757925907224769,0.07958728672922533]","[1,1,1]","[-0.17347847077008943,0.07778126312357625]","[1,1,1]","[-0.053214670951337695,0.021247180283062862]","[1,1,1]","[0.11333155123591164,0.03305788212769322]","[1,1,1]","[0.05480413928756852,0.1284221435709377]","[1,1,1]","[-0.0701943610726829,-0.05119953237960433]","[1,1,1]","[-0.00777905704139264,-0.002716818495276054]","[1,1,1]","[-0.04586792859061235,0.0741785969679932]","[1,1,1]","[-0.08884945264188278,-0.11814250968277702]","[-1,-1,-1]","[0.0074841089559112214,0.10102370159128007]","[1,1,1]","[0.007148723710489697,-0.19834603632552905]","[1,1,1]","[0.1305842119954568,-0.12140704972108526]","[1,1,1]","[-0.1777721377936681,-0.08875070492273937]","[1,1,1]","[0.14713991536367932,-0.08451247925510474]","[1,1,1]","[0.14982320362820079,0.12735619381651844]","[1,1,1]","[-0.05867455266636319,-0.1549477053223259]","[1,1,1]","[-0.1881029538908053,-0.021242590359274022]","[1,1,1]","[-0.09878270952630323,0.020290299058928367]","[-1,-1,-1]","[0.08068526776777285,-0.17331074962641715]","[1,1,1]","[0.02,0.02]",359.9606,0,39,39,181,1,,,,,,,
,,,,,,,682cada06e96e8a828a90ee2,682f1017f572c1c0528d9f0d,2025-05-22_13h56.10.564,cuing_paradigm_dot,2024.1.5,Win32,59.88023952,682d573fa47f1360d1451895,,,,,,,,,,,359.961,360.4607,,,360.7109,361.3274,right,,,,,,,,0.45,0.5981,,,,,,,360.4607,360.7108,361.3275,"[-0.05946908766019837,0.08624322927653601]","[1,1,1]","[-0.09932206879671737,0.013352413583669539]","[-1,-1,-1]","[0.18464005728879104,0.06019295994460029]","[1,1,1]","[0.019181830178880418,0.13927307228423913]","[1,1,1]","[-0.0784579515875261,0.17671031776567186]","[-1,-1,-1]","[-0.1358195974112779,0.09173405071236856]","[-1,-1,-1]","[-0.08321062741738441,0.13314317458793262]","[1,1,1]","[0.16396283412415097,-0.06777460593073316]","[1,1,1]","[0.08405130830272572,0.033537162913506134]","[-1,-1,-1]","[0.05462336821030939,-0.08332719280183143]","[-1,-1,-1]","[-0.12261406386373422,-0.042580837350646814]","[1,1,1]","[-0.1890000288307823,-0.0022996612984722857]","[1,1,1]","[-0.10036467415525918,-0.14708389992912974]","[-1,-1,-1]","[0.013040895904260384,0.1861249154683895]","[-1,-1,-1]","[-0.04220232103516645,-0.1571496620117813]","[1,1,1]","[-0.12407990548840378,-0.09297767601136353]","[-1,-1,-1]","[-0.05377906802311058,-0.03489208088633374]","[-1,-1,-1]","[-0.1845709798523252,-0.071172503739717]","[-1,-1,-1]","[-0.00752444534854564,-0.08176085566605634]","[-1,-1,-1]","[0.03407414590932915,0.07072567959922861]","[-1,-1,-1]","[0.1087550364664161,0.15248751012608774]","[1,1,1]","[-0.0009939300826011601,0.04731198920782474]","[1,1,1]","[0.14829892469004838,0.11023237445972207]","[1,1,1]","[0.10996557237680223,-0.15172291808540553]","[-1,-1,-1]","[-0.13931202455247454,0.014892046937278245]","[-1,-1,-1]","[0.03012655271755605,-0.029695991505058427]","[1,1,1]","[0.0038213686241454848,-0.14179138456353382]","[-1,-1,-1]","[0.10778538737160705,-0.08585116377948229]","[-1,-1,-1]","[0.13169502661907068,0.05415397258306541]","[-1,-1,-1]","[0.19836866369316747,-0.012401594577240459]","[1,1,1]","[-0.1662127745715978,0.04510025535849161]","[1,1,1]","[0.08141643232661949,-0.046984935177458984]","[-1,-1,-1]","[0.02,0.02]",362.4273,0,40,40,75,1,,,,,,,
,,,,,,,682cada06e96e8a828a90ee2,682f1017f572c1c0528d9f0d,2025-05-22_13h56.10.564,cuing_paradigm_dot,2024.1.5,Win32,59.88023952,682d573fa47f1360d1451895,,,,,,,,,,,362.4276,362.9273,,,363.1776,364.0774,right,,,,,,,,0.45,0.8907,,,,,,,362.9274,363.1775,364.0774,"[0.023315637805947278,-0.09586432208045843]","[1,1,1]","[-0.07312365685326673,-0.000784752274648282]","[1,1,1]","[0.1755183534977205,0.0003145019282876818]","[1,1,1]","[0.07400196640220084,-0.16038701311086784]","[1,1,1]","[0.028577936518836545,-0.15146365492820463]","[-1,-1,-1]","[0.0827378364009081,-0.023672714631882207]","[1,1,1]","[0.09351231873092436,0.04978494985288067]","[-1,-1,-1]","[-0.00604664760396164,0.12259071899802283]","[1,1,1]","[-0.09497900754072858,0.16792131094739932]","[1,1,1]","[-0.09281937162399469,-0.1028316584142384]","[1,1,1]","[-0.052449226393938786,-0.0800427409880493]","[1,1,1]","[-0.039615398269296706,-0.17917914323125986]","[-1,-1,-1]","[-0.046362033927609285,0.1263026684023853]","[-1,-1,-1]","[-0.1329858192125133,-0.119397132668482]","[-1,-1,-1]","[0.062247894359390744,-0.06581966942721414]","[1,1,1]","[0.04337331703622054,0.020615441962014126]","[1,1,1]","[-0.031788402114579645,-0.00028879489744903223]","[-1,-1,-1]","[0.12238409586871328,0.0021333965042322632]","[-1,-1,-1]","[0.17548921110495208,-0.060123374003831644]","[-1,-1,-1]","[0.1320939670693199,-0.06778275679983599]","[1,1,1]","[-0.050455975354263695,-0.12017732457453137]","[-1,-1,-1]","[0.15671253620364822,0.07631567572011515]","[1,1,1]","[-0.12799103546162327,0.03380674001175099]","[-1,-1,-1]","[0.16729197200927237,-0.10791900545116133]","[-1,-1,-1]","[-0.13390415207888426,-0.02348303393908185]","[1,1,1]","[-0.10378652893936283,0.12537936610831352]","[-1,-1,-1]","[0.022806978273633198,-0.01381906629248311]","[-1,-1,-1]","[0.06272664468953142,0.18590310656992345]","[-1,-1,-1]","[0.020956005956343168,0.06719199050731865]","[-1,-1,-1]","[0.024025256667015545,0.16834725331082606]","[-1,-1,-1]","[0.12320969834956,0.13178994114923248]","[-1,-1,-1]","[-0.024364479709062158,0.1757861793114827]","[-1,-1,-1]","[0.02,0.02]",365.1774,0,41,41,82,1,,,,,,,
,,,,,,,682cada06e96e8a828a90ee2,682f1017f572c1c0528d9f0d,2025-05-22_13h56.10.564,cuing_paradigm_dot,2024.1.5,Win32,59.88023952,682d573fa47f1360d1451895,,,,,,,,,,,365.1778,365.6772,,,365.9274,367.094,right,,,,,,,,0.45,1.1488,,,,,,,365.6773,365.9274,367.094,"[0.1240663503886081,0.048810624456362854]","[-1,-1,-1]","[-0.00317321369104557,-0.011234722862587697]","[1,1,1]","[0.0150527606360651,0.09595080870117978]","[1,1,1]","[-0.14222112428542769,-0.11591039690511802]","[-1,-1,-1]","[0.14232303652803532,0.12339016431618237]","[1,1,1]","[-0.18614862821744715,-0.005104516770104738]","[1,1,1]","[0.021468750924038563,-0.18072032880220096]","[1,1,1]","[0.10654093540839815,0.15035297935844866]","[-1,-1,-1]","[-0.06337908520316986,-0.16231186296968836]","[-1,-1,-1]","[-0.07125661570383181,-0.0687605807962653]","[1,1,1]","[-0.10681833873512277,0.050529372332451465]","[-1,-1,-1]","[-0.00022222497126329652,0.14552151684353865]","[-1,-1,-1]","[0.06446899574602039,-0.07377368623763943]","[-1,-1,-1]","[-0.12730766412496336,-0.018765029718767538]","[1,1,1]","[0.01884699805594313,-0.08195131191025228]","[1,1,1]","[-0.025600211985835192,-0.06017197310068367]","[1,1,1]","[0.10788441972492781,-0.014835027995353302]","[-1,-1,-1]","[0.08506561335425962,0.10297943971207661]","[-1,-1,-1]","[-0.024747355506727388,0.07117875150703178]","[1,1,1]","[-0.19382971885529715,0.03570533679507336]","[1,1,1]","[-0.0843931655175768,0.015247564433805164]","[-1,-1,-1]","[0.010222733627190086,0.04626496560416365]","[-1,-1,-1]","[-0.03854096810584017,0.11867736093024461]","[-1,-1,-1]","[-0.04173292227760988,0.16657818522282516]","[1,1,1]","[0.15916083543479845,0.07557668758813663]","[-1,-1,-1]","[0.10703502117778481,-0.08789503895572133]","[-1,-1,-1]","[0.0671702894010021,-0.11888473011412454]","[-1,-1,-1]","[0.017495035382240804,0.18454159051345603]","[-1,-1,-1]","[0.0667277209199359,0.16931372239770417]","[1,1,1]","[-0.13533509653944198,0.13595858574088682]","[-1,-1,-1]","[-0.09714934110169779,0.10756650618345784]","[-1,-1,-1]","[0.0678077450572058,0.004847672332545767]","[1,1,1]","[0.02,0.02]",368.194,0,42,42,65,1,,,,,,,
,,,,,,,682cada06e96e8a828a90ee2,682f1017f572c1c0528d9f0d,2025-05-22_13h56.10.564,cuing_paradigm_dot,2024.1.5,Win32,59.88023952,682d573fa47f1360d1451895,,,,,,,,,,,368.1943,368.694,,,368.9442,369.3608,left,,,,,,,,0.4,0.4042,,,,,,,368.694,368.9441,369.3608,"[-0.03732382111442869,0.1013991845018587]","[-1,-1,-1]","[0.1812299194031772,-0.00669366315864726]","[1,1,1]","[0.15071120468345703,-0.0858479457749323]","[-1,-1,-1]","[-0.0417421728782558,0.057877762189505626]","[-1,-1,-1]","[-0.029899455520008108,0.14918928837984874]","[-1,-1,-1]","[-0.1811768229666161,-0.07883367157250577]","[-1,-1,-1]","[0.15625120083041766,0.10332700055970619]","[-1,-1,-1]","[0.08508259304277076,0.0160466369802443]","[1,1,1]","[0.02202395626108576,0.015015873886409884]","[1,1,1]","[-0.12572329391786605,0.08186545643313733]","[-1,-1,-1]","[0.03517319448281406,-0.0595101268518837]","[1,1,1]","[-0.011474425415604917,-0.18823560162160993]","[1,1,1]","[0.09699177008274197,-0.09818379620504228]","[-1,-1,-1]","[-0.18185588733615166,0.040227192850709734]","[-1,-1,-1]","[0.01742485443464124,-0.1329612161224377]","[-1,-1,-1]","[-0.13220727689473916,-0.0367634152824978]","[1,1,1]","[-0.12755631041602777,0.03269836169626075]","[1,1,1]","[-0.04954483162390197,-0.15355186059533268]","[-1,-1,-1]","[0.052489279520914305,0.1647442857050082]","[1,1,1]","[0.08880759533397058,-0.16813372960472409]","[1,1,1]","[-0.19060330345695653,-0.009258948350530607]","[-1,-1,-1]","[-0.09369599382878009,-0.16334373495276364]","[-1,-1,-1]","[0.05193042126712752,0.0614285358012708]","[-1,-1,-1]","[-0.09052782060910539,0.05934448049471204]","[1,1,1]","[0.13322289615786548,0.14066278818389769]","[1,1,1]","[-0.11731225743142203,-0.11922805701642641]","[-1,-1,-1]","[0.18709508736001026,0.061223412891720265]","[-1,-1,-1]","[-0.010551830137367709,-0.05384302290392861]","[1,1,1]","[0.028092951633933307,-0.1732380514096706]","[1,1,1]","[0.09084694860696875,-0.05697621910931338]","[-1,-1,-1]","[-0.07048603096573615,-0.054986503115394283]","[-1,-1,-1]","[0.12228926690848221,-0.0027369694939381036]","[-1,-1,-1]","[0.02,0.02]",370.4606,0,43,43,48,1,,,,,,,
,,,,,,,682cada06e96e8a828a90ee2,682f1017f572c1c0528d9f0d,2025-05-22_13h56.10.564,cuing_paradigm_dot,2024.1.5,Win32,59.88023952,682d573fa47f1360d1451895,,,,,,,,,,,370.4609,370.9607,,,371.211,371.7941,right,,,,,,,,0.1,0.5694,,,,,,,370.9607,371.2109,371.7941,"[0.027964105953797988,0.025085002761115287]","[-1,-1,-1]","[-0.1578315713730945,0.05697337068782875]","[1,1,1]","[0.15210026389564799,0.04350370249880292]","[-1,-1,-1]","[0.04896055497022337,0.06289104906240695]","[-1,-1,-1]","[0.07793430497007217,-0.028804471986586797]","[-1,-1,-1]","[-0.025721913831400135,0.038193626734263325]","[-1,-1,-1]","[0.008707148399845507,-0.19679764018374302]","[-1,-1,-1]","[-0.04972617338790142,-0.1174853370999594]","[-1,-1,-1]","[-0.04259902763283593,0.1295118688226742]","[1,1,1]","[-0.03969807468707695,-0.06910775825914295]","[-1,-1,-1]","[0.02663096196783336,-0.160697545784347]","[1,1,1]","[0.1381443824662325,-0.07244633552978258]","[-1,-1,-1]","[0.11131248988637477,0.1160060653771242]","[-1,-1,-1]","[-0.08250427631238669,-0.06507353748802444]","[-1,-1,-1]","[-0.08353983553765983,-0.02125179720880399]","[-1,-1,-1]","[-0.18345838631418815,-0.03293939421185066]","[-1,-1,-1]","[0.10854505971493938,0.05892828343950983]","[-1,-1,-1]","[0.07795929357205843,-0.1539539700465702]","[-1,-1,-1]","[0.05141159571341995,0.12787478703457583]","[-1,-1,-1]","[-0.06508689441701462,0.04900495144672746]","[-1,-1,-1]","[0.026365822698531622,-0.10438966237022292]","[-1,-1,-1]","[-0.1617538572256772,-0.11592841503750763]","[-1,-1,-1]","[-0.11027049036527022,0.14753190535654334]","[-1,-1,-1]","[0.10802976501026826,-0.10467327623817538]","[-1,-1,-1]","[0.1774956480088741,-0.029968078099606173]","[-1,-1,-1]","[0.059794088266132375,0.1699345768970638]","[-1,-1,-1]","[-0.0704922098860111,0.17367436159462357]","[-1,-1,-1]","[-0.14328351428305786,-0.0586967460160251]","[-1,-1,-1]","[0.13786990380760714,0.002555428424138995]","[-1,-1,-1]","[-0.002519012732794773,0.14670005619425985]","[-1,-1,-1]","[-0.10860233021545178,0.03571050270590667]","[-1,-1,-1]","[-0.11035778859967302,-0.11770366343089227]","[-1,-1,-1]","[0.02,0.02]",372.8941,0,44,44,3,1,,,,,,,
