right,left,explain.started,explain.stopped,key_resp_3.keys,key_resp_3.rt,key_resp_3.duration,participant,session,date,expName,psychopyVersion,OS,frameRate,study_id,explain_2.started,explain_2.stopped,key_resp_4.keys,key_resp_4.rt,key_resp_4.duration,explain_3.started,explain_3.stopped,key_resp_5.keys,key_resp_5.rt,key_resp_5.duration,fixation.started,fixation.stopped,practice.started,practice.stopped,response.started,response.stopped,key_resp.keys,key_resp.rt,key_resp.duration,feedback.started,feedback.stopped,trials_2.thisRepN,trials_2.thisTrialN,trials_2.thisN,trials_2.thisIndex,trials_2.ran,white_ratio,explain_4.started,explain_4.stopped,key_resp_6.keys,key_resp_6.rt,key_resp_6.duration,dotDisplay.started,dotDisplay.stopped,ITI.started,ITI.stopped,trials.thisRepN,trials.thisTrialN,trials.thisN,trials.thisIndex,trials.ran,break_2.started,break_2.stopped,trials_3.thisRepN,trials_3.thisTrialN,trials_3.thisN,trials_3.thisIndex,trials_3.ran
subject chose white,subject chose black,0.0005,93.4542,space,78.4476,,67f047016c147b1c30dbd4a4,682530bfa8ef9ff98b07117d,2025-05-14_20h09.54.791,cuing_paradigm_dot,2024.1.5,Win32,60.24096386,68242c07d0c0e200c6451fdd,,,,,,,,,,,,,,,,,,,,,,,,,,,,,,,,,,,,,,,,,,,,,,,,
,,,,,,,67f047016c147b1c30dbd4a4,682530bfa8ef9ff98b07117d,2025-05-14_20h09.54.791,cuing_paradigm_dot,2024.1.5,Win32,60.24096386,68242c07d0c0e200c6451fdd,93.4546,183.3083,space,59.8422,,,,,,,,,,,,,,,,,,,,,,,,,,,,,,,,,,,,,,,,,,,,
,,,,,,,67f047016c147b1c30dbd4a4,682530bfa8ef9ff98b07117d,2025-05-14_20h09.54.791,cuing_paradigm_dot,2024.1.5,Win32,60.24096386,68242c07d0c0e200c6451fdd,,,,,,183.3085,189.1437,space,2.8243,,,,,,,,,,,,,,,,,,,,,,,,,,,,,,,,,,,,,,,
,,,,,,,67f047016c147b1c30dbd4a4,682530bfa8ef9ff98b07117d,2025-05-14_20h09.54.791,cuing_paradigm_dot,2024.1.5,Win32,60.24096386,68242c07d0c0e200c6451fdd,,,,,,,,,,,189.174,189.6476,189.648,189.9079,189.9081,190.5144,right,0.57,,190.5146,191.6025,0,0,0,0,1,0.8,,,,,,,,,,,,,,,,,,,,,
,,,,,,,67f047016c147b1c30dbd4a4,682530bfa8ef9ff98b07117d,2025-05-14_20h09.54.791,cuing_paradigm_dot,2024.1.5,Win32,60.24096386,68242c07d0c0e200c6451fdd,,,,,,,,,,,191.6033,192.1035,192.1035,192.3542,192.3543,192.6555,left,0.2852,,192.6555,193.7436,0,1,1,1,1,0.2,,,,,,,,,,,,,,,,,,,,,
,,,,,,,67f047016c147b1c30dbd4a4,682530bfa8ef9ff98b07117d,2025-05-14_20h09.54.791,cuing_paradigm_dot,2024.1.5,Win32,60.24096386,68242c07d0c0e200c6451fdd,,,,,,,,,,,,,,,,,,,,,,,,,,,,193.7442,204.7324,space,7.9732,,,,,,,,,,,,,,,,,
,,,,,,,67f047016c147b1c30dbd4a4,682530bfa8ef9ff98b07117d,2025-05-14_20h09.54.791,cuing_paradigm_dot,2024.1.5,Win32,60.24096386,68242c07d0c0e200c6451fdd,,,,,,,,,,,204.7524,205.2491,,,205.4973,205.7679,right,0.2515,,,,,,,,,0.6,,,,,,205.2496,205.4972,205.7682,206.8575,0,0,0,155,1,,,,,,,
,,,,,,,67f047016c147b1c30dbd4a4,682530bfa8ef9ff98b07117d,2025-05-14_20h09.54.791,cuing_paradigm_dot,2024.1.5,Win32,60.24096386,68242c07d0c0e200c6451fdd,,,,,,,,,,,206.858,207.3581,,,207.6089,207.8415,right,0.2031,,,,,,,,,0.1,,,,,,207.3581,207.6089,207.8416,208.9294,0,1,1,10,1,,,,,,,
,,,,,,,67f047016c147b1c30dbd4a4,682530bfa8ef9ff98b07117d,2025-05-14_20h09.54.791,cuing_paradigm_dot,2024.1.5,Win32,60.24096386,68242c07d0c0e200c6451fdd,,,,,,,,,,,208.93,209.4316,,,209.6831,209.9505,right,0.2358,,,,,,,,,0.9,,,,,,209.4316,209.683,209.9506,211.053,0,2,2,190,1,,,,,,,
,,,,,,,67f047016c147b1c30dbd4a4,682530bfa8ef9ff98b07117d,2025-05-14_20h09.54.791,cuing_paradigm_dot,2024.1.5,Win32,60.24096386,68242c07d0c0e200c6451fdd,,,,,,,,,,,211.0535,211.5553,,,211.8069,211.9913,left,0.1453,,,,,,,,,0.4,,,,,,211.5554,211.8069,211.9913,213.0936,0,3,3,37,1,,,,,,,
,,,,,,,67f047016c147b1c30dbd4a4,682530bfa8ef9ff98b07117d,2025-05-14_20h09.54.791,cuing_paradigm_dot,2024.1.5,Win32,60.24096386,68242c07d0c0e200c6451fdd,,,,,,,,,,,213.0939,213.5964,,,213.859,214.0306,right,0.1511,,,,,,,,,0.9,,,,,,213.5964,213.8589,214.0307,215.1346,0,4,4,184,1,,,,,,,
,,,,,,,67f047016c147b1c30dbd4a4,682530bfa8ef9ff98b07117d,2025-05-14_20h09.54.791,cuing_paradigm_dot,2024.1.5,Win32,60.24096386,68242c07d0c0e200c6451fdd,,,,,,,,,,,215.1351,215.6354,,,215.8704,216.3046,left,0.4187,,,,,,,,,0.55,,,,,,215.6355,215.8703,216.3048,217.3927,0,5,5,139,1,,,,,,,
,,,,,,,67f047016c147b1c30dbd4a4,682530bfa8ef9ff98b07117d,2025-05-14_20h09.54.791,cuing_paradigm_dot,2024.1.5,Win32,60.24096386,68242c07d0c0e200c6451fdd,,,,,,,,,,,217.3932,217.8944,,,218.1426,218.2281,right,0.0682,,,,,,,,,0.1,,,,,,217.8945,218.1426,218.2282,219.3324,0,6,6,25,1,,,,,,,
,,,,,,,67f047016c147b1c30dbd4a4,682530bfa8ef9ff98b07117d,2025-05-14_20h09.54.791,cuing_paradigm_dot,2024.1.5,Win32,60.24096386,68242c07d0c0e200c6451fdd,,,,,,,,,,,219.333,219.8332,,,220.0691,220.2527,right,0.1519,,,,,,,,,0.9,,,,,,219.8332,220.0691,220.2527,221.3553,0,7,7,188,1,,,,,,,
,,,,,,,67f047016c147b1c30dbd4a4,682530bfa8ef9ff98b07117d,2025-05-14_20h09.54.791,cuing_paradigm_dot,2024.1.5,Win32,60.24096386,68242c07d0c0e200c6451fdd,,,,,,,,,,,221.3557,221.8634,,,222.1088,222.2787,left,0.1557,,,,,,,,,0.9,,,,,,221.8634,222.1088,222.2788,223.3793,0,8,8,180,1,,,,,,,
,,,,,,,67f047016c147b1c30dbd4a4,682530bfa8ef9ff98b07117d,2025-05-14_20h09.54.791,cuing_paradigm_dot,2024.1.5,Win32,60.24096386,68242c07d0c0e200c6451fdd,,,,,,,,,,,223.3797,223.882,,,224.1324,224.4501,left,0.3019,,,,,,,,,0.45,,,,,,223.882,224.1324,224.4502,225.5537,0,9,9,60,1,,,,,,,
,,,,,,,67f047016c147b1c30dbd4a4,682530bfa8ef9ff98b07117d,2025-05-14_20h09.54.791,cuing_paradigm_dot,2024.1.5,Win32,60.24096386,68242c07d0c0e200c6451fdd,,,,,,,,,,,225.5541,226.0556,,,226.3192,226.5065,right,0.17,,,,,,,,,0.45,,,,,,226.0556,226.3191,226.5067,227.5958,0,10,10,79,1,,,,,,,
,,,,,,,67f047016c147b1c30dbd4a4,682530bfa8ef9ff98b07117d,2025-05-14_20h09.54.791,cuing_paradigm_dot,2024.1.5,Win32,60.24096386,68242c07d0c0e200c6451fdd,,,,,,,,,,,227.5964,228.0962,,,228.344,228.5811,right,0.2179,,,,,,,,,0.4,,,,,,228.0963,228.3439,228.5812,229.669,0,11,11,39,1,,,,,,,
,,,,,,,67f047016c147b1c30dbd4a4,682530bfa8ef9ff98b07117d,2025-05-14_20h09.54.791,cuing_paradigm_dot,2024.1.5,Win32,60.24096386,68242c07d0c0e200c6451fdd,,,,,,,,,,,229.6695,230.1713,,,230.4137,230.6521,right,0.2163,,,,,,,,,0.9,,,,,,230.1714,230.4137,230.6521,231.7418,0,12,12,189,1,,,,,,,
,,,,,,,67f047016c147b1c30dbd4a4,682530bfa8ef9ff98b07117d,2025-05-14_20h09.54.791,cuing_paradigm_dot,2024.1.5,Win32,60.24096386,68242c07d0c0e200c6451fdd,,,,,,,,,,,231.7423,232.2437,,,232.4945,232.7144,left,0.2064,,,,,,,,,0.1,,,,,,232.2437,232.4944,232.7144,233.816,0,13,13,11,1,,,,,,,
,,,,,,,67f047016c147b1c30dbd4a4,682530bfa8ef9ff98b07117d,2025-05-14_20h09.54.791,cuing_paradigm_dot,2024.1.5,Win32,60.24096386,68242c07d0c0e200c6451fdd,,,,,,,,,,,233.8164,234.3202,,,234.5597,234.8364,right,0.2537,,,,,,,,,0.1,,,,,,234.3203,234.5596,234.8365,235.9397,0,14,14,13,1,,,,,,,
,,,,,,,67f047016c147b1c30dbd4a4,682530bfa8ef9ff98b07117d,2025-05-14_20h09.54.791,cuing_paradigm_dot,2024.1.5,Win32,60.24096386,68242c07d0c0e200c6451fdd,,,,,,,,,,,235.9401,236.4425,,,236.6846,236.9239,right,0.2182,,,,,,,,,0.6,,,,,,236.4426,236.6845,236.924,238.015,0,15,15,164,1,,,,,,,
,,,,,,,67f047016c147b1c30dbd4a4,682530bfa8ef9ff98b07117d,2025-05-14_20h09.54.791,cuing_paradigm_dot,2024.1.5,Win32,60.24096386,68242c07d0c0e200c6451fdd,,,,,,,,,,,238.0155,238.5156,,,238.767,239.1522,right,0.367,,,,,,,,,0.45,,,,,,238.5157,238.767,239.1523,240.2548,0,16,16,89,1,,,,,,,
,,,,,,,67f047016c147b1c30dbd4a4,682530bfa8ef9ff98b07117d,2025-05-14_20h09.54.791,cuing_paradigm_dot,2024.1.5,Win32,60.24096386,68242c07d0c0e200c6451fdd,,,,,,,,,,,240.2552,240.7572,,,241.0089,241.158,left,0.1334,,,,,,,,,0.55,,,,,,240.7572,241.0088,241.1581,242.2461,0,17,17,136,1,,,,,,,
,,,,,,,67f047016c147b1c30dbd4a4,682530bfa8ef9ff98b07117d,2025-05-14_20h09.54.791,cuing_paradigm_dot,2024.1.5,Win32,60.24096386,68242c07d0c0e200c6451fdd,,,,,,,,,,,242.2468,242.7478,,,243.0005,243.1326,left,0.1033,,,,,,,,,0.6,,,,,,242.7478,243.0004,243.1326,244.2204,0,18,18,158,1,,,,,,,
,,,,,,,67f047016c147b1c30dbd4a4,682530bfa8ef9ff98b07117d,2025-05-14_20h09.54.791,cuing_paradigm_dot,2024.1.5,Win32,60.24096386,68242c07d0c0e200c6451fdd,,,,,,,,,,,244.2209,244.7209,,,244.9724,245.3393,left,0.3507,,,,,,,,,0.6,,,,,,244.721,244.9724,245.3394,246.4277,0,19,19,166,1,,,,,,,
,,,,,,,67f047016c147b1c30dbd4a4,682530bfa8ef9ff98b07117d,2025-05-14_20h09.54.791,cuing_paradigm_dot,2024.1.5,Win32,60.24096386,68242c07d0c0e200c6451fdd,,,,,,,,,,,246.4281,246.9282,,,247.1795,247.4328,right,0.24,,,,,,,,,0.1,,,,,,246.9283,247.1795,247.4329,248.534,0,20,20,16,1,,,,,,,
,,,,,,,67f047016c147b1c30dbd4a4,682530bfa8ef9ff98b07117d,2025-05-14_20h09.54.791,cuing_paradigm_dot,2024.1.5,Win32,60.24096386,68242c07d0c0e200c6451fdd,,,,,,,,,,,248.5343,249.0354,,,249.3001,249.6386,right,0.3223,,,,,,,,,0.6,,,,,,249.0355,249.3001,249.6387,250.7427,0,21,21,172,1,,,,,,,
,,,,,,,67f047016c147b1c30dbd4a4,682530bfa8ef9ff98b07117d,2025-05-14_20h09.54.791,cuing_paradigm_dot,2024.1.5,Win32,60.24096386,68242c07d0c0e200c6451fdd,,,,,,,,,,,250.7432,251.2443,,,251.4962,251.7221,left,0.2125,,,,,,,,,0.5,,,,,,251.2444,251.4962,251.7221,252.8161,0,22,22,118,1,,,,,,,
,,,,,,,67f047016c147b1c30dbd4a4,682530bfa8ef9ff98b07117d,2025-05-14_20h09.54.791,cuing_paradigm_dot,2024.1.5,Win32,60.24096386,68242c07d0c0e200c6451fdd,,,,,,,,,,,252.8167,253.3183,,,253.5688,253.7527,left,0.169,,,,,,,,,0.5,,,,,,253.3183,253.5687,253.7527,254.8585,0,23,23,116,1,,,,,,,
,,,,,,,67f047016c147b1c30dbd4a4,682530bfa8ef9ff98b07117d,2025-05-14_20h09.54.791,cuing_paradigm_dot,2024.1.5,Win32,60.24096386,68242c07d0c0e200c6451fdd,,,,,,,,,,,254.859,255.3588,,,255.6094,255.8439,right,0.2169,,,,,,,,,0.6,,,,,,255.3588,255.6094,255.844,256.9465,0,24,24,168,1,,,,,,,
,,,,,,,67f047016c147b1c30dbd4a4,682530bfa8ef9ff98b07117d,2025-05-14_20h09.54.791,cuing_paradigm_dot,2024.1.5,Win32,60.24096386,68242c07d0c0e200c6451fdd,,,,,,,,,,,256.9469,257.4488,,,257.7003,257.8342,left,0.1177,,,,,,,,,0.45,,,,,,257.4489,257.7002,257.8342,258.9373,0,25,25,77,1,,,,,,,
,,,,,,,67f047016c147b1c30dbd4a4,682530bfa8ef9ff98b07117d,2025-05-14_20h09.54.791,cuing_paradigm_dot,2024.1.5,Win32,60.24096386,68242c07d0c0e200c6451fdd,,,,,,,,,,,258.9379,259.4395,,,259.6974,259.9406,right,0.2315,,,,,,,,,0.4,,,,,,259.4395,259.6974,259.9407,261.0445,0,26,26,34,1,,,,,,,
,,,,,,,67f047016c147b1c30dbd4a4,682530bfa8ef9ff98b07117d,2025-05-14_20h09.54.791,cuing_paradigm_dot,2024.1.5,Win32,60.24096386,68242c07d0c0e200c6451fdd,,,,,,,,,,,261.0452,261.5484,,,261.8017,261.9164,right,0.098,,,,,,,,,0.9,,,,,,261.5484,261.8017,261.9165,263.0183,0,27,27,183,1,,,,,,,
,,,,,,,67f047016c147b1c30dbd4a4,682530bfa8ef9ff98b07117d,2025-05-14_20h09.54.791,cuing_paradigm_dot,2024.1.5,Win32,60.24096386,68242c07d0c0e200c6451fdd,,,,,,,,,,,263.0189,263.52,,,263.7728,263.9044,left,0.118,,,,,,,,,0.45,,,,,,263.52,263.7727,263.9044,264.9922,0,28,28,81,1,,,,,,,
,,,,,,,67f047016c147b1c30dbd4a4,682530bfa8ef9ff98b07117d,2025-05-14_20h09.54.791,cuing_paradigm_dot,2024.1.5,Win32,60.24096386,68242c07d0c0e200c6451fdd,,,,,,,,,,,264.9926,265.4959,,,265.7461,266.0454,right,0.2845,,,,,,,,,0.45,,,,,,265.4959,265.7461,266.0454,267.1343,0,29,29,82,1,,,,,,,
,,,,,,,67f047016c147b1c30dbd4a4,682530bfa8ef9ff98b07117d,2025-05-14_20h09.54.791,cuing_paradigm_dot,2024.1.5,Win32,60.24096386,68242c07d0c0e200c6451fdd,,,,,,,,,,,267.1347,267.6355,,,267.8865,268.2037,left,0.3014,,,,,,,,,0.55,,,,,,267.6355,267.8865,268.2038,269.3082,0,30,30,122,1,,,,,,,
,,,,,,,67f047016c147b1c30dbd4a4,682530bfa8ef9ff98b07117d,2025-05-14_20h09.54.791,cuing_paradigm_dot,2024.1.5,Win32,60.24096386,68242c07d0c0e200c6451fdd,,,,,,,,,,,269.3086,269.8101,,,270.0717,270.2602,right,0.168,,,,,,,,,0.4,,,,,,269.8101,270.0717,270.2603,271.3483,0,31,31,54,1,,,,,,,
,,,,,,,67f047016c147b1c30dbd4a4,682530bfa8ef9ff98b07117d,2025-05-14_20h09.54.791,cuing_paradigm_dot,2024.1.5,Win32,60.24096386,68242c07d0c0e200c6451fdd,,,,,,,,,,,271.3488,271.8491,,,272.1009,272.267,left,0.1503,,,,,,,,,0.5,,,,,,271.8492,272.1009,272.2672,273.3711,0,32,32,102,1,,,,,,,
,,,,,,,67f047016c147b1c30dbd4a4,682530bfa8ef9ff98b07117d,2025-05-14_20h09.54.791,cuing_paradigm_dot,2024.1.5,Win32,60.24096386,68242c07d0c0e200c6451fdd,,,,,,,,,,,273.3714,273.873,,,274.1074,274.5098,left,0.3878,,,,,,,,,0.55,,,,,,273.873,274.1074,274.5098,275.6048,0,33,33,148,1,,,,,,,
,,,,,,,67f047016c147b1c30dbd4a4,682530bfa8ef9ff98b07117d,2025-05-14_20h09.54.791,cuing_paradigm_dot,2024.1.5,Win32,60.24096386,68242c07d0c0e200c6451fdd,,,,,,,,,,,275.6052,276.0975,,,276.3482,276.6358,left,0.2744,,,,,,,,,0.55,,,,,,276.0977,276.3481,276.6359,277.736,0,34,34,145,1,,,,,,,
,,,,,,,67f047016c147b1c30dbd4a4,682530bfa8ef9ff98b07117d,2025-05-14_20h09.54.791,cuing_paradigm_dot,2024.1.5,Win32,60.24096386,68242c07d0c0e200c6451fdd,,,,,,,,,,,277.7365,278.238,,,278.4893,278.8403,left,0.3378,,,,,,,,,0.5,,,,,,278.238,278.4891,278.8403,279.9286,0,35,35,90,1,,,,,,,
,,,,,,,67f047016c147b1c30dbd4a4,682530bfa8ef9ff98b07117d,2025-05-14_20h09.54.791,cuing_paradigm_dot,2024.1.5,Win32,60.24096386,68242c07d0c0e200c6451fdd,,,,,,,,,,,279.929,280.4287,,,280.6727,280.8329,right,0.1501,,,,,,,,,0.4,,,,,,280.4288,280.6726,280.8329,281.9467,0,36,36,45,1,,,,,,,
,,,,,,,67f047016c147b1c30dbd4a4,682530bfa8ef9ff98b07117d,2025-05-14_20h09.54.791,cuing_paradigm_dot,2024.1.5,Win32,60.24096386,68242c07d0c0e200c6451fdd,,,,,,,,,,,281.9471,282.436,,,282.6869,282.9377,left,0.2365,,,,,,,,,0.5,,,,,,282.4361,282.6868,282.9377,284.0256,0,37,37,105,1,,,,,,,
,,,,,,,67f047016c147b1c30dbd4a4,682530bfa8ef9ff98b07117d,2025-05-14_20h09.54.791,cuing_paradigm_dot,2024.1.5,Win32,60.24096386,68242c07d0c0e200c6451fdd,,,,,,,,,,,284.026,284.5268,,,284.7682,285.0298,left,0.2356,,,,,,,,,0.5,,,,,,284.5269,284.7682,285.03,286.1329,0,38,38,111,1,,,,,,,
,,,,,,,67f047016c147b1c30dbd4a4,682530bfa8ef9ff98b07117d,2025-05-14_20h09.54.791,cuing_paradigm_dot,2024.1.5,Win32,60.24096386,68242c07d0c0e200c6451fdd,,,,,,,,,,,286.1333,286.6345,,,286.8854,287.0526,left,0.1515,,,,,,,,,0.55,,,,,,286.6346,286.8853,287.0527,288.1405,0,39,39,138,1,,,,,,,
,,,,,,,67f047016c147b1c30dbd4a4,682530bfa8ef9ff98b07117d,2025-05-14_20h09.54.791,cuing_paradigm_dot,2024.1.5,Win32,60.24096386,68242c07d0c0e200c6451fdd,,,,,,,,,,,288.141,288.6425,,,288.8934,289.0617,right,0.1384,,,,,,,,,0.4,,,,,,288.6425,288.8933,289.0618,290.1627,0,40,40,50,1,,,,,,,
,,,,,,,67f047016c147b1c30dbd4a4,682530bfa8ef9ff98b07117d,2025-05-14_20h09.54.791,cuing_paradigm_dot,2024.1.5,Win32,60.24096386,68242c07d0c0e200c6451fdd,,,,,,,,,,,290.1631,290.6609,,,290.9001,291.0006,left,0.0693,,,,,,,,,0.5,,,,,,290.6609,290.9,291.0006,292.1041,0,41,41,91,1,,,,,,,
,,,,,,,67f047016c147b1c30dbd4a4,682530bfa8ef9ff98b07117d,2025-05-14_20h09.54.791,cuing_paradigm_dot,2024.1.5,Win32,60.24096386,68242c07d0c0e200c6451fdd,,,,,,,,,,,292.1046,292.6047,,,292.8685,293.0918,left,0.2056,,,,,,,,,0.9,,,,,,292.6047,292.8684,293.092,294.195,0,42,42,193,1,,,,,,,
,,,,,,,67f047016c147b1c30dbd4a4,682530bfa8ef9ff98b07117d,2025-05-14_20h09.54.791,cuing_paradigm_dot,2024.1.5,Win32,60.24096386,68242c07d0c0e200c6451fdd,,,,,,,,,,,294.1955,294.6966,,,294.9473,295.1642,right,0.1958,,,,,,,,,0.6,,,,,,294.6966,294.9473,295.1642,296.2687,0,43,43,152,1,,,,,,,
,,,,,,,67f047016c147b1c30dbd4a4,682530bfa8ef9ff98b07117d,2025-05-14_20h09.54.791,cuing_paradigm_dot,2024.1.5,Win32,60.24096386,68242c07d0c0e200c6451fdd,,,,,,,,,,,296.2691,296.7697,,,297.0212,297.2882,right,0.2521,,,,,,,,,0.6,,,,,,296.7698,297.0211,297.2882,298.3765,0,44,44,174,1,,,,,,,
,,,,,,,67f047016c147b1c30dbd4a4,682530bfa8ef9ff98b07117d,2025-05-14_20h09.54.791,cuing_paradigm_dot,2024.1.5,Win32,60.24096386,68242c07d0c0e200c6451fdd,,,,,,,,,,,298.3771,298.8778,,,299.1281,299.323,left,0.1773,,,,,,,,,0.1,,,,,,298.8779,299.1281,299.3231,300.4161,0,45,45,3,1,,,,,,,
,,,,,,,67f047016c147b1c30dbd4a4,682530bfa8ef9ff98b07117d,2025-05-14_20h09.54.791,cuing_paradigm_dot,2024.1.5,Win32,60.24096386,68242c07d0c0e200c6451fdd,,,,,,,,,,,300.4165,300.917,,,301.1693,301.486,left,0.2854,,,,,,,,,0.9,,,,,,300.9171,301.1693,301.486,302.5912,0,46,46,186,1,,,,,,,
,,,,,,,67f047016c147b1c30dbd4a4,682530bfa8ef9ff98b07117d,2025-05-14_20h09.54.791,cuing_paradigm_dot,2024.1.5,Win32,60.24096386,68242c07d0c0e200c6451fdd,,,,,,,,,,,302.5916,303.0914,,,303.3365,303.51,left,0.1582,,,,,,,,,0.1,,,,,,303.0915,303.3364,303.51,304.5978,0,47,47,1,1,,,,,,,
,,,,,,,67f047016c147b1c30dbd4a4,682530bfa8ef9ff98b07117d,2025-05-14_20h09.54.791,cuing_paradigm_dot,2024.1.5,Win32,60.24096386,68242c07d0c0e200c6451fdd,,,,,,,,,,,304.5982,305.0994,,,305.3433,305.5339,right,0.1682,,,,,,,,,0.4,,,,,,305.0995,305.3433,305.534,306.6221,0,48,48,48,1,,,,,,,
,,,,,,,67f047016c147b1c30dbd4a4,682530bfa8ef9ff98b07117d,2025-05-14_20h09.54.791,cuing_paradigm_dot,2024.1.5,Win32,60.24096386,68242c07d0c0e200c6451fdd,,,,,,,,,,,306.6225,307.1233,,,307.3699,307.5585,left,0.1721,,,,,,,,,0.5,,,,,,307.1234,307.3699,307.5585,308.6619,0,49,49,112,1,,,,,,,
,,,,,,,67f047016c147b1c30dbd4a4,682530bfa8ef9ff98b07117d,2025-05-14_20h09.54.791,cuing_paradigm_dot,2024.1.5,Win32,60.24096386,68242c07d0c0e200c6451fdd,,,,,,,,,,,308.6625,309.1628,,,309.3986,309.5807,left,0.1515,,,,,,,,,0.6,,,,,,309.1628,309.3986,309.5807,310.6689,0,50,50,160,1,,,,,,,
,,,,,,,67f047016c147b1c30dbd4a4,682530bfa8ef9ff98b07117d,2025-05-14_20h09.54.791,cuing_paradigm_dot,2024.1.5,Win32,60.24096386,68242c07d0c0e200c6451fdd,,,,,,,,,,,310.6693,311.1699,,,311.4187,311.8392,right,0.4038,,,,,,,,,0.55,,,,,,311.17,311.4186,311.8392,312.9275,0,51,51,146,1,,,,,,,
,,,,,,,67f047016c147b1c30dbd4a4,682530bfa8ef9ff98b07117d,2025-05-14_20h09.54.791,cuing_paradigm_dot,2024.1.5,Win32,60.24096386,68242c07d0c0e200c6451fdd,,,,,,,,,,,312.928,313.4286,,,313.6759,313.8483,right,0.1562,,,,,,,,,0.9,,,,,,313.4287,313.6759,313.8483,314.9498,0,52,52,182,1,,,,,,,
,,,,,,,67f047016c147b1c30dbd4a4,682530bfa8ef9ff98b07117d,2025-05-14_20h09.54.791,cuing_paradigm_dot,2024.1.5,Win32,60.24096386,68242c07d0c0e200c6451fdd,,,,,,,,,,,314.9503,315.4525,,,315.7033,315.8872,left,0.1677,,,,,,,,,0.1,,,,,,315.4525,315.7033,315.8873,316.9909,0,53,53,7,1,,,,,,,
,,,,,,,67f047016c147b1c30dbd4a4,682530bfa8ef9ff98b07117d,2025-05-14_20h09.54.791,cuing_paradigm_dot,2024.1.5,Win32,60.24096386,68242c07d0c0e200c6451fdd,,,,,,,,,,,316.9913,317.492,,,317.737,318.0743,right,0.3182,,,,,,,,,0.9,,,,,,317.4921,317.737,318.0744,319.1653,0,54,54,204,1,,,,,,,
,,,,,,,67f047016c147b1c30dbd4a4,682530bfa8ef9ff98b07117d,2025-05-14_20h09.54.791,cuing_paradigm_dot,2024.1.5,Win32,60.24096386,68242c07d0c0e200c6451fdd,,,,,,,,,,,319.1658,319.6673,,,319.9107,320.2364,left,0.2979,,,,,,,,,0.5,,,,,,319.6673,319.9106,320.2365,321.3398,0,55,55,106,1,,,,,,,
,,,,,,,67f047016c147b1c30dbd4a4,682530bfa8ef9ff98b07117d,2025-05-14_20h09.54.791,cuing_paradigm_dot,2024.1.5,Win32,60.24096386,68242c07d0c0e200c6451fdd,,,,,,,,,,,321.3403,321.8406,,,322.0924,322.2759,right,0.1693,,,,,,,,,0.1,,,,,,321.8407,322.0923,322.276,323.3769,0,56,56,17,1,,,,,,,
,,,,,,,67f047016c147b1c30dbd4a4,682530bfa8ef9ff98b07117d,2025-05-14_20h09.54.791,cuing_paradigm_dot,2024.1.5,Win32,60.24096386,68242c07d0c0e200c6451fdd,,,,,,,,,,,323.3774,323.8657,,,324.1105,324.4338,left,0.2959,,,,,,,,,0.1,,,,,,323.8658,324.1105,324.4339,325.5376,0,57,57,5,1,,,,,,,
,,,,,,,67f047016c147b1c30dbd4a4,682530bfa8ef9ff98b07117d,2025-05-14_20h09.54.791,cuing_paradigm_dot,2024.1.5,Win32,60.24096386,68242c07d0c0e200c6451fdd,,,,,,,,,,,325.5381,326.0391,,,326.2831,326.4252,left,0.1222,,,,,,,,,0.1,,,,,,326.0392,326.283,326.4253,327.5163,0,58,58,26,1,,,,,,,
,,,,,,,67f047016c147b1c30dbd4a4,682530bfa8ef9ff98b07117d,2025-05-14_20h09.54.791,cuing_paradigm_dot,2024.1.5,Win32,60.24096386,68242c07d0c0e200c6451fdd,,,,,,,,,,,327.517,328.012,,,328.2564,328.6991,right,0.419,,,,,,,,,0.55,,,,,,328.0122,328.2564,328.6993,329.8027,0,59,59,142,1,,,,,,,
,,,,,,,67f047016c147b1c30dbd4a4,682530bfa8ef9ff98b07117d,2025-05-14_20h09.54.791,cuing_paradigm_dot,2024.1.5,Win32,60.24096386,68242c07d0c0e200c6451fdd,,,,,,,,,,,329.8031,330.3036,,,330.5642,330.8388,right,0.2623,,,,,,,,,0.4,,,,,,330.3037,330.5641,330.8388,331.9267,0,60,60,35,1,,,,,,,
,,,,,,,67f047016c147b1c30dbd4a4,682530bfa8ef9ff98b07117d,2025-05-14_20h09.54.791,cuing_paradigm_dot,2024.1.5,Win32,60.24096386,68242c07d0c0e200c6451fdd,,,,,,,,,,,331.9272,332.4274,,,332.6816,332.9328,right,0.2389,,,,,,,,,0.6,,,,,,332.4274,332.6816,332.9328,334.0335,0,61,61,153,1,,,,,,,
,,,,,,,67f047016c147b1c30dbd4a4,682530bfa8ef9ff98b07117d,2025-05-14_20h09.54.791,cuing_paradigm_dot,2024.1.5,Win32,60.24096386,68242c07d0c0e200c6451fdd,,,,,,,,,,,334.0341,334.5255,,,334.7701,335.3087,left,0.5244,,,,,,,,,0.45,,,,,,334.5256,334.7699,335.3087,336.4089,0,62,62,80,1,,,,,,,
,,,,,,,67f047016c147b1c30dbd4a4,682530bfa8ef9ff98b07117d,2025-05-14_20h09.54.791,cuing_paradigm_dot,2024.1.5,Win32,60.24096386,68242c07d0c0e200c6451fdd,,,,,,,,,,,336.4095,336.9,,,337.145,337.4131,left,0.2523,,,,,,,,,0.4,,,,,,336.9001,337.1449,337.4131,338.5154,0,63,63,43,1,,,,,,,
,,,,,,,67f047016c147b1c30dbd4a4,682530bfa8ef9ff98b07117d,2025-05-14_20h09.54.791,cuing_paradigm_dot,2024.1.5,Win32,60.24096386,68242c07d0c0e200c6451fdd,,,,,,,,,,,338.5157,339.0191,,,339.2704,339.4025,left,0.1178,,,,,,,,,0.5,,,,,,339.0191,339.2703,339.4026,340.5065,0,64,64,103,1,,,,,,,
,,,,,,,67f047016c147b1c30dbd4a4,682530bfa8ef9ff98b07117d,2025-05-14_20h09.54.791,cuing_paradigm_dot,2024.1.5,Win32,60.24096386,68242c07d0c0e200c6451fdd,,,,,,,,,,,340.507,341.0095,,,341.2609,341.5774,left,0.3019,,,,,,,,,0.5,,,,,,341.0095,341.2608,341.5774,342.6804,0,65,65,110,1,,,,,,,
,,,,,,,67f047016c147b1c30dbd4a4,682530bfa8ef9ff98b07117d,2025-05-14_20h09.54.791,cuing_paradigm_dot,2024.1.5,Win32,60.24096386,68242c07d0c0e200c6451fdd,,,,,,,,,,,342.6808,343.1733,,,343.4165,343.5841,left,0.1518,,,,,,,,,0.55,,,,,,343.1733,343.4165,343.5841,344.6872,0,66,66,140,1,,,,,,,
,,,,,,,67f047016c147b1c30dbd4a4,682530bfa8ef9ff98b07117d,2025-05-14_20h09.54.791,cuing_paradigm_dot,2024.1.5,Win32,60.24096386,68242c07d0c0e200c6451fdd,,,,,,,,,,,344.6876,345.1896,,,345.4424,345.7282,right,0.2716,,,,,,,,,0.9,,,,,,345.1897,345.4423,345.7283,346.8284,0,67,67,202,1,,,,,,,
,,,,,,,67f047016c147b1c30dbd4a4,682530bfa8ef9ff98b07117d,2025-05-14_20h09.54.791,cuing_paradigm_dot,2024.1.5,Win32,60.24096386,68242c07d0c0e200c6451fdd,,,,,,,,,,,346.8288,347.3302,,,347.5815,347.9665,right,0.3692,,,,,,,,,0.5,,,,,,347.3302,347.5815,347.9665,349.0699,0,68,68,97,1,,,,,,,
,,,,,,,67f047016c147b1c30dbd4a4,682530bfa8ef9ff98b07117d,2025-05-14_20h09.54.791,cuing_paradigm_dot,2024.1.5,Win32,60.24096386,68242c07d0c0e200c6451fdd,,,,,,,,,,,349.0704,349.5716,,,349.8229,350.1239,left,0.2817,,,,,,,,,0.1,,,,,,349.5717,349.8228,350.1239,351.2266,0,69,69,19,1,,,,,,,
,,,,,,,67f047016c147b1c30dbd4a4,682530bfa8ef9ff98b07117d,2025-05-14_20h09.54.791,cuing_paradigm_dot,2024.1.5,Win32,60.24096386,68242c07d0c0e200c6451fdd,,,,,,,,,,,351.227,351.729,,,351.9801,352.1637,left,0.1679,,,,,,,,,0.45,,,,,,351.729,351.98,352.1638,353.2681,0,70,70,78,1,,,,,,,
,,,,,,,67f047016c147b1c30dbd4a4,682530bfa8ef9ff98b07117d,2025-05-14_20h09.54.791,cuing_paradigm_dot,2024.1.5,Win32,60.24096386,68242c07d0c0e200c6451fdd,,,,,,,,,,,353.2686,353.7697,,,354.0218,354.1878,left,0.1506,,,,,,,,,0.4,,,,,,353.7698,354.0217,354.1878,355.2806,0,71,71,49,1,,,,,,,
,,,,,,,67f047016c147b1c30dbd4a4,682530bfa8ef9ff98b07117d,2025-05-14_20h09.54.791,cuing_paradigm_dot,2024.1.5,Win32,60.24096386,68242c07d0c0e200c6451fdd,,,,,,,,,,,355.2811,355.7762,,,356.0277,356.1617,left,0.1193,,,,,,,,,0.1,,,,,,355.7762,356.0275,356.1618,357.2653,0,72,72,12,1,,,,,,,
,,,,,,,67f047016c147b1c30dbd4a4,682530bfa8ef9ff98b07117d,2025-05-14_20h09.54.791,cuing_paradigm_dot,2024.1.5,Win32,60.24096386,68242c07d0c0e200c6451fdd,,,,,,,,,,,357.2658,357.7664,,,358.0181,358.1346,left,0.1003,,,,,,,,,0.1,,,,,,357.7665,358.018,358.1346,359.2227,0,73,73,27,1,,,,,,,
,,,,,,,67f047016c147b1c30dbd4a4,682530bfa8ef9ff98b07117d,2025-05-14_20h09.54.791,cuing_paradigm_dot,2024.1.5,Win32,60.24096386,68242c07d0c0e200c6451fdd,,,,,,,,,,,359.2231,359.7266,,,359.9753,360.2615,right,0.2726,,,,,,,,,0.9,,,,,,359.7267,359.9753,360.2615,361.3629,0,74,74,203,1,,,,,,,
,,,,,,,67f047016c147b1c30dbd4a4,682530bfa8ef9ff98b07117d,2025-05-14_20h09.54.791,cuing_paradigm_dot,2024.1.5,Win32,60.24096386,68242c07d0c0e200c6451fdd,,,,,,,,,,,361.3633,361.8642,,,362.1169,362.2826,right,0.1474,,,,,,,,,0.4,,,,,,361.8642,362.1168,362.2826,363.3706,0,75,75,56,1,,,,,,,
,,,,,,,67f047016c147b1c30dbd4a4,682530bfa8ef9ff98b07117d,2025-05-14_20h09.54.791,cuing_paradigm_dot,2024.1.5,Win32,60.24096386,68242c07d0c0e200c6451fdd,,,,,,,,,,,363.3709,363.8709,,,364.1223,364.3731,left,0.2346,,,,,,,,,0.9,,,,,,363.871,364.1223,364.3731,365.4609,0,76,76,196,1,,,,,,,
,,,,,,,67f047016c147b1c30dbd4a4,682530bfa8ef9ff98b07117d,2025-05-14_20h09.54.791,cuing_paradigm_dot,2024.1.5,Win32,60.24096386,68242c07d0c0e200c6451fdd,,,,,,,,,,,365.4614,365.9625,,,366.2136,366.364,right,0.1338,,,,,,,,,0.6,,,,,,365.9625,366.2136,366.3641,367.4672,0,77,77,170,1,,,,,,,
,,,,,,,67f047016c147b1c30dbd4a4,682530bfa8ef9ff98b07117d,2025-05-14_20h09.54.791,cuing_paradigm_dot,2024.1.5,Win32,60.24096386,68242c07d0c0e200c6451fdd,,,,,,,,,,,367.4677,367.9694,,,368.2233,368.4374,right,0.2006,,,,,,,,,0.6,,,,,,367.9695,368.2232,368.4376,369.5306,0,78,78,157,1,,,,,,,
,,,,,,,67f047016c147b1c30dbd4a4,682530bfa8ef9ff98b07117d,2025-05-14_20h09.54.791,cuing_paradigm_dot,2024.1.5,Win32,60.24096386,68242c07d0c0e200c6451fdd,,,,,,,,,,,369.5312,370.0264,,,370.2786,370.4968,right,0.2047,,,,,,,,,0.45,,,,,,370.0264,370.2786,370.4968,371.5998,0,79,79,61,1,,,,,,,
,,,,,,,67f047016c147b1c30dbd4a4,682530bfa8ef9ff98b07117d,2025-05-14_20h09.54.791,cuing_paradigm_dot,2024.1.5,Win32,60.24096386,68242c07d0c0e200c6451fdd,,,,,,,,,,,371.6003,372.1008,,,372.3576,372.5873,left,0.2156,,,,,,,,,0.4,,,,,,372.1008,372.3575,372.5873,373.6889,0,80,80,32,1,,,,,,,
,,,,,,,67f047016c147b1c30dbd4a4,682530bfa8ef9ff98b07117d,2025-05-14_20h09.54.791,cuing_paradigm_dot,2024.1.5,Win32,60.24096386,68242c07d0c0e200c6451fdd,,,,,,,,,,,373.6894,374.1902,,,374.4423,374.5764,left,0.1186,,,,,,,,,0.6,,,,,,374.1903,374.4422,374.5765,375.6793,0,81,81,169,1,,,,,,,
,,,,,,,67f047016c147b1c30dbd4a4,682530bfa8ef9ff98b07117d,2025-05-14_20h09.54.791,cuing_paradigm_dot,2024.1.5,Win32,60.24096386,68242c07d0c0e200c6451fdd,,,,,,,,,,,375.68,376.1838,,,376.4327,376.6668,left,0.2173,,,,,,,,,0.5,,,,,,376.1838,376.4327,376.6668,377.7699,0,82,82,108,1,,,,,,,
,,,,,,,67f047016c147b1c30dbd4a4,682530bfa8ef9ff98b07117d,2025-05-14_20h09.54.791,cuing_paradigm_dot,2024.1.5,Win32,60.24096386,68242c07d0c0e200c6451fdd,,,,,,,,,,,377.7702,378.2723,,,378.5225,378.8236,left,0.2856,,,,,,,,,0.4,,,,,,378.2723,378.5224,378.8236,379.9296,0,83,83,44,1,,,,,,,
,,,,,,,67f047016c147b1c30dbd4a4,682530bfa8ef9ff98b07117d,2025-05-14_20h09.54.791,cuing_paradigm_dot,2024.1.5,Win32,60.24096386,68242c07d0c0e200c6451fdd,,,,,,,,,,,379.9301,380.4319,,,380.6832,380.9157,left,0.218,,,,,,,,,0.45,,,,,,380.4319,380.6831,380.9158,382.0255,0,84,84,71,1,,,,,,,
,,,,,,,67f047016c147b1c30dbd4a4,682530bfa8ef9ff98b07117d,2025-05-14_20h09.54.791,cuing_paradigm_dot,2024.1.5,Win32,60.24096386,68242c07d0c0e200c6451fdd,,,,,,,,,,,382.026,382.5213,,,382.7709,383.273,right,0.4863,,,,,,,,,0.6,,,,,,382.5213,382.7709,383.273,384.3764,0,85,85,171,1,,,,,,,
,,,,,,,67f047016c147b1c30dbd4a4,682530bfa8ef9ff98b07117d,2025-05-14_20h09.54.791,cuing_paradigm_dot,2024.1.5,Win32,60.24096386,68242c07d0c0e200c6451fdd,,,,,,,,,,,384.3769,384.8785,,,385.1291,385.314,right,0.1689,,,,,,,,,0.9,,,,,,384.8786,385.1291,385.3141,386.4174,0,86,86,195,1,,,,,,,
,,,,,,,67f047016c147b1c30dbd4a4,682530bfa8ef9ff98b07117d,2025-05-14_20h09.54.791,cuing_paradigm_dot,2024.1.5,Win32,60.24096386,68242c07d0c0e200c6451fdd,,,,,,,,,,,386.4178,386.9213,,,387.1726,387.5574,left,0.3704,,,,,,,,,0.1,,,,,,386.9213,387.1726,387.5574,388.6595,0,87,87,23,1,,,,,,,
,,,,,,,67f047016c147b1c30dbd4a4,682530bfa8ef9ff98b07117d,2025-05-14_20h09.54.791,cuing_paradigm_dot,2024.1.5,Win32,60.24096386,68242c07d0c0e200c6451fdd,,,,,,,,,,,388.66,389.16,,,389.4115,389.6288,left,0.2014,,,,,,,,,0.5,,,,,,389.1601,389.4114,389.6289,390.7318,0,88,88,114,1,,,,,,,
,,,,,,,67f047016c147b1c30dbd4a4,682530bfa8ef9ff98b07117d,2025-05-14_20h09.54.791,cuing_paradigm_dot,2024.1.5,Win32,60.24096386,68242c07d0c0e200c6451fdd,,,,,,,,,,,390.7323,391.2339,,,391.4851,391.753,left,0.2514,,,,,,,,,0.55,,,,,,391.234,391.4849,391.7531,392.8564,0,89,89,141,1,,,,,,,
,,,,,,,67f047016c147b1c30dbd4a4,682530bfa8ef9ff98b07117d,2025-05-14_20h09.54.791,cuing_paradigm_dot,2024.1.5,Win32,60.24096386,68242c07d0c0e200c6451fdd,,,,,,,,,,,392.8569,393.3576,,,393.609,393.9847,left,0.361,,,,,,,,,0.5,,,,,,393.3576,393.6089,393.9847,395.0811,0,90,90,104,1,,,,,,,
,,,,,,,67f047016c147b1c30dbd4a4,682530bfa8ef9ff98b07117d,2025-05-14_20h09.54.791,cuing_paradigm_dot,2024.1.5,Win32,60.24096386,68242c07d0c0e200c6451fdd,,,,,,,,,,,395.0818,395.5828,,,395.8339,396.1013,right,0.2512,,,,,,,,,0.9,,,,,,395.5828,395.8339,396.1014,397.1891,0,91,91,187,1,,,,,,,
,,,,,,,67f047016c147b1c30dbd4a4,682530bfa8ef9ff98b07117d,2025-05-14_20h09.54.791,cuing_paradigm_dot,2024.1.5,Win32,60.24096386,68242c07d0c0e200c6451fdd,,,,,,,,,,,397.1896,397.6899,,,397.9421,398.1925,right,0.2356,,,,,,,,,0.9,,,,,,397.69,397.942,398.1927,399.2958,0,92,92,191,1,,,,,,,
,,,,,,,67f047016c147b1c30dbd4a4,682530bfa8ef9ff98b07117d,2025-05-14_20h09.54.791,cuing_paradigm_dot,2024.1.5,Win32,60.24096386,68242c07d0c0e200c6451fdd,,,,,,,,,,,399.2962,399.7995,,,400.0511,400.2993,right,0.2337,,,,,,,,,0.9,,,,,,399.7995,400.0511,400.2993,401.4027,0,93,93,197,1,,,,,,,
,,,,,,,67f047016c147b1c30dbd4a4,682530bfa8ef9ff98b07117d,2025-05-14_20h09.54.791,cuing_paradigm_dot,2024.1.5,Win32,60.24096386,68242c07d0c0e200c6451fdd,,,,,,,,,,,401.4031,401.9043,,,402.1558,402.5403,right,0.3688,,,,,,,,,0.55,,,,,,401.9044,402.1557,402.5403,403.6439,0,94,94,144,1,,,,,,,
,,,,,,,67f047016c147b1c30dbd4a4,682530bfa8ef9ff98b07117d,2025-05-14_20h09.54.791,cuing_paradigm_dot,2024.1.5,Win32,60.24096386,68242c07d0c0e200c6451fdd,,,,,,,,,,,403.6442,404.146,,,404.3968,404.5637,left,0.1515,,,,,,,,,0.1,,,,,,404.146,404.3968,404.5637,405.6514,0,95,95,14,1,,,,,,,
,,,,,,,67f047016c147b1c30dbd4a4,682530bfa8ef9ff98b07117d,2025-05-14_20h09.54.791,cuing_paradigm_dot,2024.1.5,Win32,60.24096386,68242c07d0c0e200c6451fdd,,,,,,,,,,,405.6518,406.1525,,,406.4037,406.5203,left,0.1019,,,,,,,,,0.55,,,,,,406.1526,406.4037,406.5203,407.6143,0,96,96,129,1,,,,,,,
,,,,,,,67f047016c147b1c30dbd4a4,682530bfa8ef9ff98b07117d,2025-05-14_20h09.54.791,cuing_paradigm_dot,2024.1.5,Win32,60.24096386,68242c07d0c0e200c6451fdd,,,,,,,,,,,407.6149,408.1098,,,408.3606,408.3773,right,0.0006,,,,,,,,,0.4,,,,,,408.1099,408.3605,408.3773,409.4813,0,97,97,36,1,,,,,,,
,,,,,,,67f047016c147b1c30dbd4a4,682530bfa8ef9ff98b07117d,2025-05-14_20h09.54.791,cuing_paradigm_dot,2024.1.5,Win32,60.24096386,68242c07d0c0e200c6451fdd,,,,,,,,,,,409.4819,409.9829,,,410.2345,411.7223,,,,,,,,,,,0.9,,,,,,409.983,410.2345,411.7224,412.8265,0,98,98,201,1,,,,,,,
,,,,,,,67f047016c147b1c30dbd4a4,682530bfa8ef9ff98b07117d,2025-05-14_20h09.54.791,cuing_paradigm_dot,2024.1.5,Win32,60.24096386,68242c07d0c0e200c6451fdd,,,,,,,,,,,412.827,413.3178,,,413.5622,414.7503,right,1.1727,,,,,,,,,0.45,,,,,,413.3179,413.5622,414.7503,415.8539,0,99,99,84,1,,,,,,,
,,,,,,,67f047016c147b1c30dbd4a4,682530bfa8ef9ff98b07117d,2025-05-14_20h09.54.791,cuing_paradigm_dot,2024.1.5,Win32,60.24096386,68242c07d0c0e200c6451fdd,,,,,,,,,,,415.8542,416.3545,,,416.6069,416.7929,right,0.1725,,,,,,,,,0.4,,,,,,416.3546,416.6068,416.7929,417.8937,0,100,100,59,1,,,,,,,
,,,,,,,67f047016c147b1c30dbd4a4,682530bfa8ef9ff98b07117d,2025-05-14_20h09.54.791,cuing_paradigm_dot,2024.1.5,Win32,60.24096386,68242c07d0c0e200c6451fdd,,,,,,,,,,,417.894,418.3952,,,418.6491,418.7817,right,0.1159,,,,,,,,,0.9,,,,,,418.3953,418.6491,418.7818,419.8846,0,101,101,200,1,,,,,,,
,,,,,,,67f047016c147b1c30dbd4a4,682530bfa8ef9ff98b07117d,2025-05-14_20h09.54.791,cuing_paradigm_dot,2024.1.5,Win32,60.24096386,68242c07d0c0e200c6451fdd,,,,,,,,,,,419.885,420.3858,,,420.6372,420.7209,right,0.0681,,,,,,,,,0.6,,,,,,420.3858,420.6371,420.7209,421.8242,0,102,102,177,1,,,,,,,
,,,,,,,67f047016c147b1c30dbd4a4,682530bfa8ef9ff98b07117d,2025-05-14_20h09.54.791,cuing_paradigm_dot,2024.1.5,Win32,60.24096386,68242c07d0c0e200c6451fdd,,,,,,,,,,,421.8247,422.3257,,,422.5771,422.7457,right,0.1513,,,,,,,,,0.45,,,,,,422.3257,422.577,422.7457,423.8484,0,103,103,72,1,,,,,,,
,,,,,,,67f047016c147b1c30dbd4a4,682530bfa8ef9ff98b07117d,2025-05-14_20h09.54.791,cuing_paradigm_dot,2024.1.5,Win32,60.24096386,68242c07d0c0e200c6451fdd,,,,,,,,,,,423.8489,424.3502,,,424.6006,424.6342,left,0.0171,,,,,,,,,0.9,,,,,,424.3503,424.6006,424.6342,425.7386,0,104,104,181,1,,,,,,,
,,,,,,,67f047016c147b1c30dbd4a4,682530bfa8ef9ff98b07117d,2025-05-14_20h09.54.791,cuing_paradigm_dot,2024.1.5,Win32,60.24096386,68242c07d0c0e200c6451fdd,,,,,,,,,,,425.7392,426.2398,,,426.4908,426.524,right,0.0173,,,,,,,,,0.5,,,,,,426.2398,426.4908,426.5241,427.629,0,105,105,96,1,,,,,,,
,,,,,,,67f047016c147b1c30dbd4a4,682530bfa8ef9ff98b07117d,2025-05-14_20h09.54.791,cuing_paradigm_dot,2024.1.5,Win32,60.24096386,68242c07d0c0e200c6451fdd,,,,,,,,,,,427.6295,428.1293,,,428.3814,428.437,right,0.0418,,,,,,,,,0.5,,,,,,428.1293,428.3813,428.4371,429.5347,0,106,106,98,1,,,,,,,
,,,,,,,67f047016c147b1c30dbd4a4,682530bfa8ef9ff98b07117d,2025-05-14_20h09.54.791,cuing_paradigm_dot,2024.1.5,Win32,60.24096386,68242c07d0c0e200c6451fdd,,,,,,,,,,,429.5351,430.0373,,,430.2873,430.479,right,0.1766,,,,,,,,,0.9,,,,,,430.0374,430.2873,430.4791,431.5745,0,107,107,198,1,,,,,,,
,,,,,,,67f047016c147b1c30dbd4a4,682530bfa8ef9ff98b07117d,2025-05-14_20h09.54.791,cuing_paradigm_dot,2024.1.5,Win32,60.24096386,68242c07d0c0e200c6451fdd,,,,,,,,,,,431.575,432.0768,,,432.3181,432.6469,left,0.3184,,,,,,,,,0.55,,,,,,432.0768,432.3181,432.6469,433.7491,0,108,108,123,1,,,,,,,
,,,,,,,67f047016c147b1c30dbd4a4,682530bfa8ef9ff98b07117d,2025-05-14_20h09.54.791,cuing_paradigm_dot,2024.1.5,Win32,60.24096386,68242c07d0c0e200c6451fdd,,,,,,,,,,,433.7496,434.2508,,,434.5021,434.5361,right,0.0179,,,,,,,,,0.6,,,,,,434.2508,434.502,434.5362,435.6404,0,109,109,179,1,,,,,,,
,,,,,,,67f047016c147b1c30dbd4a4,682530bfa8ef9ff98b07117d,2025-05-14_20h09.54.791,cuing_paradigm_dot,2024.1.5,Win32,60.24096386,68242c07d0c0e200c6451fdd,,,,,,,,,,,435.6408,436.1413,,,436.3918,436.609,right,0.2023,,,,,,,,,0.1,,,,,,436.1414,436.3918,436.6091,437.713,0,110,110,18,1,,,,,,,
,,,,,,,67f047016c147b1c30dbd4a4,682530bfa8ef9ff98b07117d,2025-05-14_20h09.54.791,cuing_paradigm_dot,2024.1.5,Win32,60.24096386,68242c07d0c0e200c6451fdd,,,,,,,,,,,437.7134,438.2172,,,438.4686,438.6027,left,0.1218,,,,,,,,,0.55,,,,,,438.2172,438.4685,438.6028,439.7033,0,111,111,128,1,,,,,,,
,,,,,,,67f047016c147b1c30dbd4a4,682530bfa8ef9ff98b07117d,2025-05-14_20h09.54.791,cuing_paradigm_dot,2024.1.5,Win32,60.24096386,68242c07d0c0e200c6451fdd,,,,,,,,,,,439.7039,440.205,,,440.4565,440.6428,left,0.1719,,,,,,,,,0.4,,,,,,440.205,440.4565,440.6428,441.7332,0,112,112,33,1,,,,,,,
,,,,,,,67f047016c147b1c30dbd4a4,682530bfa8ef9ff98b07117d,2025-05-14_20h09.54.791,cuing_paradigm_dot,2024.1.5,Win32,60.24096386,68242c07d0c0e200c6451fdd,,,,,,,,,,,441.7338,442.2289,,,442.4814,442.6657,left,0.1676,,,,,,,,,0.45,,,,,,442.229,442.4814,442.6657,443.7682,0,113,113,69,1,,,,,,,
,,,,,,,67f047016c147b1c30dbd4a4,682530bfa8ef9ff98b07117d,2025-05-14_20h09.54.791,cuing_paradigm_dot,2024.1.5,Win32,60.24096386,68242c07d0c0e200c6451fdd,,,,,,,,,,,443.7687,444.2757,,,444.5202,444.638,left,0.1008,,,,,,,,,0.4,,,,,,444.2758,444.5202,444.638,445.7412,0,114,114,42,1,,,,,,,
,,,,,,,67f047016c147b1c30dbd4a4,682530bfa8ef9ff98b07117d,2025-05-14_20h09.54.791,cuing_paradigm_dot,2024.1.5,Win32,60.24096386,68242c07d0c0e200c6451fdd,,,,,,,,,,,445.7415,446.2436,,,446.4942,446.5445,left,0.0346,,,,,,,,,0.55,,,,,,446.2437,446.4941,446.5446,447.6342,0,115,115,126,1,,,,,,,
,,,,,,,67f047016c147b1c30dbd4a4,682530bfa8ef9ff98b07117d,2025-05-14_20h09.54.791,cuing_paradigm_dot,2024.1.5,Win32,60.24096386,68242c07d0c0e200c6451fdd,,,,,,,,,,,447.6346,448.1326,,,448.3849,448.4371,right,0.0385,,,,,,,,,0.55,,,,,,448.1327,448.3849,448.4372,449.5384,0,116,116,143,1,,,,,,,
,,,,,,,67f047016c147b1c30dbd4a4,682530bfa8ef9ff98b07117d,2025-05-14_20h09.54.791,cuing_paradigm_dot,2024.1.5,Win32,60.24096386,68242c07d0c0e200c6451fdd,,,,,,,,,,,449.5388,450.0394,,,450.2814,450.3417,right,0.0479,,,,,,,,,0.5,,,,,,450.0395,450.2814,450.3417,451.4447,0,117,117,119,1,,,,,,,
,,,,,,,67f047016c147b1c30dbd4a4,682530bfa8ef9ff98b07117d,2025-05-14_20h09.54.791,cuing_paradigm_dot,2024.1.5,Win32,60.24096386,68242c07d0c0e200c6451fdd,,,,,,,,,,,451.4451,451.9476,,,452.1975,453.3697,right,1.1577,,,,,,,,,0.1,,,,,,451.9476,452.1974,453.3697,454.4747,0,118,118,15,1,,,,,,,
,,,,,,,67f047016c147b1c30dbd4a4,682530bfa8ef9ff98b07117d,2025-05-14_20h09.54.791,cuing_paradigm_dot,2024.1.5,Win32,60.24096386,68242c07d0c0e200c6451fdd,,,,,,,,,,,454.4751,454.9751,,,455.2244,455.2777,left,0.0374,,,,,,,,,0.5,,,,,,454.9751,455.2244,455.2778,456.3783,0,119,119,94,1,,,,,,,
,,,,,,,67f047016c147b1c30dbd4a4,682530bfa8ef9ff98b07117d,2025-05-14_20h09.54.791,cuing_paradigm_dot,2024.1.5,Win32,60.24096386,68242c07d0c0e200c6451fdd,,,,,,,,,,,456.3787,456.8815,,,457.1315,457.1849,left,0.0381,,,,,,,,,0.45,,,,,,456.8815,457.1314,457.185,458.2857,0,120,120,74,1,,,,,,,
,,,,,,,67f047016c147b1c30dbd4a4,682530bfa8ef9ff98b07117d,2025-05-14_20h09.54.791,cuing_paradigm_dot,2024.1.5,Win32,60.24096386,68242c07d0c0e200c6451fdd,,,,,,,,,,,458.2861,458.7868,,,459.0277,459.072,left,0.0319,,,,,,,,,0.9,,,,,,458.7869,459.0277,459.0721,460.1756,0,121,121,185,1,,,,,,,
,,,,,,,67f047016c147b1c30dbd4a4,682530bfa8ef9ff98b07117d,2025-05-14_20h09.54.791,cuing_paradigm_dot,2024.1.5,Win32,60.24096386,68242c07d0c0e200c6451fdd,,,,,,,,,,,460.176,460.6768,,,460.9277,461.2471,left,0.3043,,,,,,,,,0.5,,,,,,460.6768,460.9277,461.2472,462.349,0,122,122,113,1,,,,,,,
,,,,,,,67f047016c147b1c30dbd4a4,682530bfa8ef9ff98b07117d,2025-05-14_20h09.54.791,cuing_paradigm_dot,2024.1.5,Win32,60.24096386,68242c07d0c0e200c6451fdd,,,,,,,,,,,462.3493,462.8512,,,463.1019,463.1693,left,0.051,,,,,,,,,0.6,,,,,,462.8512,463.1019,463.1694,464.2735,0,123,123,154,1,,,,,,,
,,,,,,,67f047016c147b1c30dbd4a4,682530bfa8ef9ff98b07117d,2025-05-14_20h09.54.791,cuing_paradigm_dot,2024.1.5,Win32,60.24096386,68242c07d0c0e200c6451fdd,,,,,,,,,,,464.2739,464.7746,,,465.026,465.277,left,0.2344,,,,,,,,,0.9,,,,,,464.7746,465.026,465.2771,466.3798,0,124,124,205,1,,,,,,,
,,,,,,,67f047016c147b1c30dbd4a4,682530bfa8ef9ff98b07117d,2025-05-14_20h09.54.791,cuing_paradigm_dot,2024.1.5,Win32,60.24096386,68242c07d0c0e200c6451fdd,,,,,,,,,,,466.3802,466.882,,,467.1345,467.3671,right,0.2175,,,,,,,,,0.1,,,,,,466.882,467.1345,467.3672,468.4557,0,125,125,22,1,,,,,,,
,,,,,,,67f047016c147b1c30dbd4a4,682530bfa8ef9ff98b07117d,2025-05-14_20h09.54.791,cuing_paradigm_dot,2024.1.5,Win32,60.24096386,68242c07d0c0e200c6451fdd,,,,,,,,,,,468.4561,468.9553,,,469.2071,469.4427,left,0.2208,,,,,,,,,0.9,,,,,,468.9553,469.2071,469.4427,470.547,0,126,126,207,1,,,,,,,
,,,,,,,67f047016c147b1c30dbd4a4,682530bfa8ef9ff98b07117d,2025-05-14_20h09.54.791,cuing_paradigm_dot,2024.1.5,Win32,60.24096386,68242c07d0c0e200c6451fdd,,,,,,,,,,,470.5477,471.0473,,,471.2976,471.584,left,0.2719,,,,,,,,,0.5,,,,,,471.0474,471.2976,471.584,472.6854,0,127,127,93,1,,,,,,,
,,,,,,,67f047016c147b1c30dbd4a4,682530bfa8ef9ff98b07117d,2025-05-14_20h09.54.791,cuing_paradigm_dot,2024.1.5,Win32,60.24096386,68242c07d0c0e200c6451fdd,,,,,,,,,,,472.6861,473.1871,,,473.4389,473.6738,right,0.2186,,,,,,,,,0.9,,,,,,473.1871,473.4389,473.6739,474.7761,0,128,128,206,1,,,,,,,
,,,,,,,67f047016c147b1c30dbd4a4,682530bfa8ef9ff98b07117d,2025-05-14_20h09.54.791,cuing_paradigm_dot,2024.1.5,Win32,60.24096386,68242c07d0c0e200c6451fdd,,,,,,,,,,,474.7765,475.2791,,,475.5295,475.8,right,0.2519,,,,,,,,,0.55,,,,,,475.2791,475.5294,475.8,476.9005,0,129,129,133,1,,,,,,,
,,,,,,,67f047016c147b1c30dbd4a4,682530bfa8ef9ff98b07117d,2025-05-14_20h09.54.791,cuing_paradigm_dot,2024.1.5,Win32,60.24096386,68242c07d0c0e200c6451fdd,,,,,,,,,,,476.901,477.4015,,,477.6534,477.8888,left,0.2207,,,,,,,,,0.45,,,,,,477.4015,477.6534,477.8889,478.9911,0,130,130,67,1,,,,,,,
,,,,,,,67f047016c147b1c30dbd4a4,682530bfa8ef9ff98b07117d,2025-05-14_20h09.54.791,cuing_paradigm_dot,2024.1.5,Win32,60.24096386,68242c07d0c0e200c6451fdd,,,,,,,,,,,478.9916,479.4936,,,479.7456,479.9123,right,0.1526,,,,,,,,,0.55,,,,,,479.4936,479.7456,479.9123,481.0145,0,131,131,124,1,,,,,,,
,,,,,,,67f047016c147b1c30dbd4a4,682530bfa8ef9ff98b07117d,2025-05-14_20h09.54.791,cuing_paradigm_dot,2024.1.5,Win32,60.24096386,68242c07d0c0e200c6451fdd,,,,,,,,,,,481.0149,481.5178,,,481.7696,481.8707,left,0.0878,,,,,,,,,0.45,,,,,,481.5178,481.7696,481.8707,482.9715,0,132,132,85,1,,,,,,,
,,,,,,,67f047016c147b1c30dbd4a4,682530bfa8ef9ff98b07117d,2025-05-14_20h09.54.791,cuing_paradigm_dot,2024.1.5,Win32,60.24096386,68242c07d0c0e200c6451fdd,,,,,,,,,,,482.9719,483.4729,,,483.7245,483.9756,left,0.2341,,,,,,,,,0.1,,,,,,483.473,483.7244,483.9756,485.0788,0,133,133,6,1,,,,,,,
,,,,,,,67f047016c147b1c30dbd4a4,682530bfa8ef9ff98b07117d,2025-05-14_20h09.54.791,cuing_paradigm_dot,2024.1.5,Win32,60.24096386,68242c07d0c0e200c6451fdd,,,,,,,,,,,485.0793,485.5807,,,485.8318,485.9819,left,0.1337,,,,,,,,,0.55,,,,,,485.5807,485.8317,485.9819,487.0697,0,134,134,127,1,,,,,,,
,,,,,,,67f047016c147b1c30dbd4a4,682530bfa8ef9ff98b07117d,2025-05-14_20h09.54.791,cuing_paradigm_dot,2024.1.5,Win32,60.24096386,68242c07d0c0e200c6451fdd,,,,,,,,,,,487.0701,487.571,,,487.8217,488.0561,left,0.2136,,,,,,,,,0.45,,,,,,487.571,487.8216,488.0561,489.1468,0,135,135,75,1,,,,,,,
,,,,,,,67f047016c147b1c30dbd4a4,682530bfa8ef9ff98b07117d,2025-05-14_20h09.54.791,cuing_paradigm_dot,2024.1.5,Win32,60.24096386,68242c07d0c0e200c6451fdd,,,,,,,,,,,489.1471,489.6453,,,489.8962,490.2811,right,0.3689,,,,,,,,,0.6,,,,,,489.6454,489.8961,490.2812,491.3691,0,136,136,167,1,,,,,,,
,,,,,,,67f047016c147b1c30dbd4a4,682530bfa8ef9ff98b07117d,2025-05-14_20h09.54.791,cuing_paradigm_dot,2024.1.5,Win32,60.24096386,68242c07d0c0e200c6451fdd,,,,,,,,,,,491.3695,491.8693,,,492.1211,492.4392,left,0.3037,,,,,,,,,0.1,,,,,,491.8693,492.1209,492.4392,493.5417,0,137,137,24,1,,,,,,,
,,,,,,,67f047016c147b1c30dbd4a4,682530bfa8ef9ff98b07117d,2025-05-14_20h09.54.791,cuing_paradigm_dot,2024.1.5,Win32,60.24096386,68242c07d0c0e200c6451fdd,,,,,,,,,,,493.542,494.0434,,,494.2992,494.6128,left,0.2975,,,,,,,,,0.5,,,,,,494.0435,494.2991,494.6129,495.7163,0,138,138,107,1,,,,,,,
,,,,,,,67f047016c147b1c30dbd4a4,682530bfa8ef9ff98b07117d,2025-05-14_20h09.54.791,cuing_paradigm_dot,2024.1.5,Win32,60.24096386,68242c07d0c0e200c6451fdd,,,,,,,,,,,495.7168,496.2182,,,496.4721,496.5891,left,0.1049,,,,,,,,,0.4,,,,,,496.2183,496.4721,496.5892,497.691,0,139,139,55,1,,,,,,,
,,,,,,,67f047016c147b1c30dbd4a4,682530bfa8ef9ff98b07117d,2025-05-14_20h09.54.791,cuing_paradigm_dot,2024.1.5,Win32,60.24096386,68242c07d0c0e200c6451fdd,,,,,,,,,,,497.6915,498.1914,,,498.4422,498.5929,left,0.1354,,,,,,,,,0.45,,,,,,498.1914,498.4422,498.5929,499.6805,0,140,140,62,1,,,,,,,
,,,,,,,67f047016c147b1c30dbd4a4,682530bfa8ef9ff98b07117d,2025-05-14_20h09.54.791,cuing_paradigm_dot,2024.1.5,Win32,60.24096386,68242c07d0c0e200c6451fdd,,,,,,,,,,,499.681,500.1829,,,500.4336,500.5673,left,0.1189,,,,,,,,,0.6,,,,,,500.1829,500.4336,500.5673,501.6703,0,141,141,159,1,,,,,,,
,,,,,,,67f047016c147b1c30dbd4a4,682530bfa8ef9ff98b07117d,2025-05-14_20h09.54.791,cuing_paradigm_dot,2024.1.5,Win32,60.24096386,68242c07d0c0e200c6451fdd,,,,,,,,,,,501.671,502.1717,,,502.4246,502.6419,left,0.1994,,,,,,,,,0.55,,,,,,502.1717,502.4246,502.642,503.7456,0,142,142,121,1,,,,,,,
,,,,,,,67f047016c147b1c30dbd4a4,682530bfa8ef9ff98b07117d,2025-05-14_20h09.54.791,cuing_paradigm_dot,2024.1.5,Win32,60.24096386,68242c07d0c0e200c6451fdd,,,,,,,,,,,503.7463,504.2466,,,504.4971,504.8159,left,0.3018,,,,,,,,,0.1,,,,,,504.2466,504.497,504.816,505.9186,0,143,143,8,1,,,,,,,
,,,,,,,67f047016c147b1c30dbd4a4,682530bfa8ef9ff98b07117d,2025-05-14_20h09.54.791,cuing_paradigm_dot,2024.1.5,Win32,60.24096386,68242c07d0c0e200c6451fdd,,,,,,,,,,,505.919,506.4203,,,506.6716,506.9057,left,0.2182,,,,,,,,,0.45,,,,,,506.4203,506.6716,506.9058,507.9938,0,144,144,86,1,,,,,,,
,,,,,,,67f047016c147b1c30dbd4a4,682530bfa8ef9ff98b07117d,2025-05-14_20h09.54.791,cuing_paradigm_dot,2024.1.5,Win32,60.24096386,68242c07d0c0e200c6451fdd,,,,,,,,,,,507.9942,508.4955,,,508.7229,508.9131,right,0.168,,,,,,,,,0.9,,,,,,508.4956,508.7229,508.9132,510.0175,0,145,145,209,1,,,,,,,
,,,,,,,67f047016c147b1c30dbd4a4,682530bfa8ef9ff98b07117d,2025-05-14_20h09.54.791,cuing_paradigm_dot,2024.1.5,Win32,60.24096386,68242c07d0c0e200c6451fdd,,,,,,,,,,,510.018,510.5174,,,510.7824,511.1222,right,0.3193,,,,,,,,,0.5,,,,,,510.5174,510.7824,511.1223,512.2198,0,146,146,117,1,,,,,,,
,,,,,,,67f047016c147b1c30dbd4a4,682530bfa8ef9ff98b07117d,2025-05-14_20h09.54.791,cuing_paradigm_dot,2024.1.5,Win32,60.24096386,68242c07d0c0e200c6451fdd,,,,,,,,,,,512.2203,512.7089,,,512.9609,513.4416,right,0.4522,,,,,,,,,0.45,,,,,,512.7089,512.9609,513.4416,514.5326,0,147,147,76,1,,,,,,,
,,,,,,,67f047016c147b1c30dbd4a4,682530bfa8ef9ff98b07117d,2025-05-14_20h09.54.791,cuing_paradigm_dot,2024.1.5,Win32,60.24096386,68242c07d0c0e200c6451fdd,,,,,,,,,,,514.5331,515.0338,,,515.2848,515.5532,right,0.2544,,,,,,,,,0.6,,,,,,515.0339,515.2848,515.5533,516.6692,0,148,148,156,1,,,,,,,
,,,,,,,67f047016c147b1c30dbd4a4,682530bfa8ef9ff98b07117d,2025-05-14_20h09.54.791,cuing_paradigm_dot,2024.1.5,Win32,60.24096386,68242c07d0c0e200c6451fdd,,,,,,,,,,,516.6696,517.1575,,,517.4022,517.5626,right,0.1398,,,,,,,,,0.1,,,,,,517.1576,517.4021,517.5626,518.663,0,149,149,9,1,,,,,,,
,,,,,,,67f047016c147b1c30dbd4a4,682530bfa8ef9ff98b07117d,2025-05-14_20h09.54.791,cuing_paradigm_dot,2024.1.5,Win32,60.24096386,68242c07d0c0e200c6451fdd,,,,,,,,,,,518.6634,519.1664,,,519.4162,519.6499,left,0.2173,,,,,,,,,0.55,,,,,,519.1664,519.4162,519.6499,520.7543,0,150,150,134,1,,,,,,,
,,,,,,,67f047016c147b1c30dbd4a4,682530bfa8ef9ff98b07117d,2025-05-14_20h09.54.791,cuing_paradigm_dot,2024.1.5,Win32,60.24096386,68242c07d0c0e200c6451fdd,,,,,,,,,,,520.7547,521.258,,,521.5068,521.757,left,0.2262,,,,,,,,,0.6,,,,,,521.258,521.5068,521.757,522.8606,0,151,151,178,1,,,,,,,
,,,,,,,67f047016c147b1c30dbd4a4,682530bfa8ef9ff98b07117d,2025-05-14_20h09.54.791,cuing_paradigm_dot,2024.1.5,Win32,60.24096386,68242c07d0c0e200c6451fdd,,,,,,,,,,,522.861,523.349,,,523.5971,523.7695,left,0.1578,,,,,,,,,0.55,,,,,,523.349,523.597,523.7696,524.8681,0,152,152,149,1,,,,,,,
,,,,,,,67f047016c147b1c30dbd4a4,682530bfa8ef9ff98b07117d,2025-05-14_20h09.54.791,cuing_paradigm_dot,2024.1.5,Win32,60.24096386,68242c07d0c0e200c6451fdd,,,,,,,,,,,524.8686,525.3704,,,525.6219,525.7213,left,0.0844,,,,,,,,,0.4,,,,,,525.3704,525.6219,525.7213,526.8099,0,153,153,41,1,,,,,,,
,,,,,,,67f047016c147b1c30dbd4a4,682530bfa8ef9ff98b07117d,2025-05-14_20h09.54.791,cuing_paradigm_dot,2024.1.5,Win32,60.24096386,68242c07d0c0e200c6451fdd,,,,,,,,,,,526.8103,527.3102,,,527.5609,527.746,left,0.1685,,,,,,,,,0.4,,,,,,527.3102,527.5609,527.7461,528.8514,0,154,154,57,1,,,,,,,
,,,,,,,67f047016c147b1c30dbd4a4,682530bfa8ef9ff98b07117d,2025-05-14_20h09.54.791,cuing_paradigm_dot,2024.1.5,Win32,60.24096386,68242c07d0c0e200c6451fdd,,,,,,,,,,,528.8518,529.3502,,,529.6018,529.6354,left,0.0175,,,,,,,,,0.55,,,,,,529.3502,529.6018,529.6354,530.7391,0,155,155,147,1,,,,,,,
,,,,,,,67f047016c147b1c30dbd4a4,682530bfa8ef9ff98b07117d,2025-05-14_20h09.54.791,cuing_paradigm_dot,2024.1.5,Win32,60.24096386,68242c07d0c0e200c6451fdd,,,,,,,,,,,530.7396,531.242,,,531.4919,531.7928,left,0.2851,,,,,,,,,0.55,,,,,,531.2421,531.4918,531.7929,532.8962,0,156,156,137,1,,,,,,,
,,,,,,,67f047016c147b1c30dbd4a4,682530bfa8ef9ff98b07117d,2025-05-14_20h09.54.791,cuing_paradigm_dot,2024.1.5,Win32,60.24096386,68242c07d0c0e200c6451fdd,,,,,,,,,,,532.8966,533.3989,,,533.6496,534.0175,left,0.3528,,,,,,,,,0.1,,,,,,533.399,533.6496,534.0175,535.1205,0,157,157,29,1,,,,,,,
,,,,,,,67f047016c147b1c30dbd4a4,682530bfa8ef9ff98b07117d,2025-05-14_20h09.54.791,cuing_paradigm_dot,2024.1.5,Win32,60.24096386,68242c07d0c0e200c6451fdd,,,,,,,,,,,535.1209,535.6235,,,535.8737,536.2085,right,0.3188,,,,,,,,,0.4,,,,,,535.6236,535.8736,536.2085,537.3122,0,158,158,52,1,,,,,,,
,,,,,,,67f047016c147b1c30dbd4a4,682530bfa8ef9ff98b07117d,2025-05-14_20h09.54.791,cuing_paradigm_dot,2024.1.5,Win32,60.24096386,68242c07d0c0e200c6451fdd,,,,,,,,,,,537.3126,537.8144,,,538.0648,538.4068,left,0.3263,,,,,,,,,0.45,,,,,,537.8144,538.0648,538.4069,539.504,0,159,159,87,1,,,,,,,
,,,,,,,67f047016c147b1c30dbd4a4,682530bfa8ef9ff98b07117d,2025-05-14_20h09.54.791,cuing_paradigm_dot,2024.1.5,Win32,60.24096386,68242c07d0c0e200c6451fdd,,,,,,,,,,,539.5043,540.0068,,,540.2583,540.5909,left,0.318,,,,,,,,,0.4,,,,,,540.0068,540.2583,540.5909,541.6938,0,160,160,31,1,,,,,,,
,,,,,,,67f047016c147b1c30dbd4a4,682530bfa8ef9ff98b07117d,2025-05-14_20h09.54.791,cuing_paradigm_dot,2024.1.5,Win32,60.24096386,68242c07d0c0e200c6451fdd,,,,,,,,,,,541.6943,542.1952,,,542.4464,542.6978,left,0.2362,,,,,,,,,0.4,,,,,,542.1952,542.4464,542.6979,543.8012,0,161,161,38,1,,,,,,,
,,,,,,,67f047016c147b1c30dbd4a4,682530bfa8ef9ff98b07117d,2025-05-14_20h09.54.791,cuing_paradigm_dot,2024.1.5,Win32,60.24096386,68242c07d0c0e200c6451fdd,,,,,,,,,,,543.8016,544.3054,,,544.5536,544.9225,left,0.3522,,,,,,,,,0.45,,,,,,544.3055,544.5534,544.9225,546.0104,0,162,162,64,1,,,,,,,
,,,,,,,67f047016c147b1c30dbd4a4,682530bfa8ef9ff98b07117d,2025-05-14_20h09.54.791,cuing_paradigm_dot,2024.1.5,Win32,60.24096386,68242c07d0c0e200c6451fdd,,,,,,,,,,,546.0107,546.5105,,,546.751,547.1635,left,0.3992,,,,,,,,,0.4,,,,,,546.5106,546.751,547.1635,548.2514,0,163,163,40,1,,,,,,,
,,,,,,,67f047016c147b1c30dbd4a4,682530bfa8ef9ff98b07117d,2025-05-14_20h09.54.791,cuing_paradigm_dot,2024.1.5,Win32,60.24096386,68242c07d0c0e200c6451fdd,,,,,,,,,,,548.2517,548.7517,,,549.0053,549.3715,right,0.3524,,,,,,,,,0.5,,,,,,548.7518,549.0053,549.3715,550.4756,0,164,164,92,1,,,,,,,
,,,,,,,67f047016c147b1c30dbd4a4,682530bfa8ef9ff98b07117d,2025-05-14_20h09.54.791,cuing_paradigm_dot,2024.1.5,Win32,60.24096386,68242c07d0c0e200c6451fdd,,,,,,,,,,,550.4759,550.9776,,,551.2347,551.4114,right,0.1644,,,,,,,,,0.9,,,,,,550.9777,551.2346,551.4115,552.5151,0,165,165,199,1,,,,,,,
,,,,,,,67f047016c147b1c30dbd4a4,682530bfa8ef9ff98b07117d,2025-05-14_20h09.54.791,cuing_paradigm_dot,2024.1.5,Win32,60.24096386,68242c07d0c0e200c6451fdd,,,,,,,,,,,552.5154,553.0168,,,553.2674,553.6532,left,0.3684,,,,,,,,,0.1,,,,,,553.0168,553.2674,553.6533,554.7558,0,166,166,28,1,,,,,,,
,,,,,,,67f047016c147b1c30dbd4a4,682530bfa8ef9ff98b07117d,2025-05-14_20h09.54.791,cuing_paradigm_dot,2024.1.5,Win32,60.24096386,68242c07d0c0e200c6451fdd,,,,,,,,,,,554.7563,555.259,,,555.5093,555.7105,left,0.1868,,,,,,,,,0.45,,,,,,555.2591,555.5092,555.7106,556.8133,0,167,167,66,1,,,,,,,
,,,,,,,67f047016c147b1c30dbd4a4,682530bfa8ef9ff98b07117d,2025-05-14_20h09.54.791,cuing_paradigm_dot,2024.1.5,Win32,60.24096386,68242c07d0c0e200c6451fdd,,,,,,,,,,,556.8138,557.3153,,,557.5672,557.7701,right,0.1894,,,,,,,,,0.9,,,,,,557.3153,557.5671,557.7701,558.8607,0,168,168,208,1,,,,,,,
,,,,,,,67f047016c147b1c30dbd4a4,682530bfa8ef9ff98b07117d,2025-05-14_20h09.54.791,cuing_paradigm_dot,2024.1.5,Win32,60.24096386,68242c07d0c0e200c6451fdd,,,,,,,,,,,558.8614,559.3559,,,559.6082,559.7925,right,0.1684,,,,,,,,,0.55,,,,,,559.356,559.6082,559.7926,560.8969,0,169,169,132,1,,,,,,,
,,,,,,,67f047016c147b1c30dbd4a4,682530bfa8ef9ff98b07117d,2025-05-14_20h09.54.791,cuing_paradigm_dot,2024.1.5,Win32,60.24096386,68242c07d0c0e200c6451fdd,,,,,,,,,,,560.8973,561.3962,,,561.6469,561.9151,right,0.2517,,,,,,,,,0.1,,,,,,561.3962,561.6469,561.9151,563.0247,0,170,170,20,1,,,,,,,
,,,,,,,67f047016c147b1c30dbd4a4,682530bfa8ef9ff98b07117d,2025-05-14_20h09.54.791,cuing_paradigm_dot,2024.1.5,Win32,60.24096386,68242c07d0c0e200c6451fdd,,,,,,,,,,,563.0252,563.5203,,,563.7713,563.94,left,0.1504,,,,,,,,,0.45,,,,,,563.5204,563.7713,563.9401,565.0424,0,171,171,83,1,,,,,,,
,,,,,,,67f047016c147b1c30dbd4a4,682530bfa8ef9ff98b07117d,2025-05-14_20h09.54.791,cuing_paradigm_dot,2024.1.5,Win32,60.24096386,68242c07d0c0e200c6451fdd,,,,,,,,,,,565.0428,565.544,,,565.795,566.0959,left,0.2848,,,,,,,,,0.45,,,,,,565.5441,565.7949,566.0959,567.2003,0,172,172,65,1,,,,,,,
,,,,,,,67f047016c147b1c30dbd4a4,682530bfa8ef9ff98b07117d,2025-05-14_20h09.54.791,cuing_paradigm_dot,2024.1.5,Win32,60.24096386,68242c07d0c0e200c6451fdd,,,,,,,,,,,567.2007,567.7015,,,567.9526,568.1872,left,0.2186,,,,,,,,,0.9,,,,,,567.7015,567.9525,568.1872,569.2903,0,173,173,194,1,,,,,,,
,,,,,,,67f047016c147b1c30dbd4a4,682530bfa8ef9ff98b07117d,2025-05-14_20h09.54.791,cuing_paradigm_dot,2024.1.5,Win32,60.24096386,68242c07d0c0e200c6451fdd,,,,,,,,,,,569.2907,569.7918,,,570.0445,570.2133,right,0.1558,,,,,,,,,0.6,,,,,,569.7918,570.0445,570.2134,571.3148,0,174,174,175,1,,,,,,,
,,,,,,,67f047016c147b1c30dbd4a4,682530bfa8ef9ff98b07117d,2025-05-14_20h09.54.791,cuing_paradigm_dot,2024.1.5,Win32,60.24096386,68242c07d0c0e200c6451fdd,,,,,,,,,,,571.3152,571.8164,,,572.0545,572.6209,right,0.5495,,,,,,,,,0.55,,,,,,571.8164,572.0545,572.621,573.7263,0,175,175,130,1,,,,,,,
,,,,,,,67f047016c147b1c30dbd4a4,682530bfa8ef9ff98b07117d,2025-05-14_20h09.54.791,cuing_paradigm_dot,2024.1.5,Win32,60.24096386,68242c07d0c0e200c6451fdd,,,,,,,,,,,573.7267,574.2245,,,574.476,574.6599,right,0.1686,,,,,,,,,0.6,,,,,,574.2246,574.4758,574.66,575.7478,0,176,176,163,1,,,,,,,
,,,,,,,67f047016c147b1c30dbd4a4,682530bfa8ef9ff98b07117d,2025-05-14_20h09.54.791,cuing_paradigm_dot,2024.1.5,Win32,60.24096386,68242c07d0c0e200c6451fdd,,,,,,,,,,,575.7484,576.2481,,,576.4931,576.6843,right,0.1724,,,,,,,,,0.9,,,,,,576.2482,576.4931,576.6844,577.7862,0,177,177,192,1,,,,,,,
,,,,,,,67f047016c147b1c30dbd4a4,682530bfa8ef9ff98b07117d,2025-05-14_20h09.54.791,cuing_paradigm_dot,2024.1.5,Win32,60.24096386,68242c07d0c0e200c6451fdd,,,,,,,,,,,577.7866,578.2884,,,578.5344,578.7915,left,0.2423,,,,,,,,,0.1,,,,,,578.2884,578.5342,578.7916,579.8937,0,178,178,4,1,,,,,,,
,,,,,,,67f047016c147b1c30dbd4a4,682530bfa8ef9ff98b07117d,2025-05-14_20h09.54.791,cuing_paradigm_dot,2024.1.5,Win32,60.24096386,68242c07d0c0e200c6451fdd,,,,,,,,,,,579.894,580.3891,,,580.6274,580.8652,right,0.2186,,,,,,,,,0.1,,,,,,580.3891,580.6274,580.8654,581.9694,0,179,179,2,1,,,,,,,
,,,,,,,67f047016c147b1c30dbd4a4,682530bfa8ef9ff98b07117d,2025-05-14_20h09.54.791,cuing_paradigm_dot,2024.1.5,Win32,60.24096386,68242c07d0c0e200c6451fdd,,,,,,,,,,,581.9699,582.4825,,,582.7339,582.8219,left,0.0712,,,,,,,,,0.4,,,,,,582.4825,582.7339,582.822,583.9244,0,180,180,58,1,,,,,,,
,,,,,,,67f047016c147b1c30dbd4a4,682530bfa8ef9ff98b07117d,2025-05-14_20h09.54.791,cuing_paradigm_dot,2024.1.5,Win32,60.24096386,68242c07d0c0e200c6451fdd,,,,,,,,,,,583.9248,584.4262,,,584.6804,584.9299,left,0.2354,,,,,,,,,0.1,,,,,,584.4263,584.6803,584.9299,586.0326,0,181,181,21,1,,,,,,,
,,,,,,,67f047016c147b1c30dbd4a4,682530bfa8ef9ff98b07117d,2025-05-14_20h09.54.791,cuing_paradigm_dot,2024.1.5,Win32,60.24096386,68242c07d0c0e200c6451fdd,,,,,,,,,,,586.0332,586.5347,,,586.7944,586.9854,left,0.1784,,,,,,,,,0.5,,,,,,586.5348,586.7944,586.9854,588.0731,0,182,182,101,1,,,,,,,
,,,,,,,67f047016c147b1c30dbd4a4,682530bfa8ef9ff98b07117d,2025-05-14_20h09.54.791,cuing_paradigm_dot,2024.1.5,Win32,60.24096386,68242c07d0c0e200c6451fdd,,,,,,,,,,,588.0735,588.5742,,,588.8191,588.9771,left,0.1308,,,,,,,,,0.5,,,,,,588.5742,588.8191,588.9773,590.0805,0,183,183,95,1,,,,,,,
,,,,,,,67f047016c147b1c30dbd4a4,682530bfa8ef9ff98b07117d,2025-05-14_20h09.54.791,cuing_paradigm_dot,2024.1.5,Win32,60.24096386,68242c07d0c0e200c6451fdd,,,,,,,,,,,590.0816,590.5947,,,590.8459,591.2349,right,0.3727,,,,,,,,,0.5,,,,,,590.5947,590.8459,591.235,592.3372,0,184,184,109,1,,,,,,,
,,,,,,,67f047016c147b1c30dbd4a4,682530bfa8ef9ff98b07117d,2025-05-14_20h09.54.791,cuing_paradigm_dot,2024.1.5,Win32,60.24096386,68242c07d0c0e200c6451fdd,,,,,,,,,,,592.3377,592.8395,,,593.0866,594.129,left,1.0295,,,,,,,,,0.1,,,,,,592.8395,593.0866,594.129,595.2322,0,185,185,0,1,,,,,,,
,,,,,,,67f047016c147b1c30dbd4a4,682530bfa8ef9ff98b07117d,2025-05-14_20h09.54.791,cuing_paradigm_dot,2024.1.5,Win32,60.24096386,68242c07d0c0e200c6451fdd,,,,,,,,,,,595.2326,595.733,,,595.9846,596.4184,left,0.4064,,,,,,,,,0.55,,,,,,595.7331,595.9846,596.4185,597.5223,0,186,186,131,1,,,,,,,
,,,,,,,67f047016c147b1c30dbd4a4,682530bfa8ef9ff98b07117d,2025-05-14_20h09.54.791,cuing_paradigm_dot,2024.1.5,Win32,60.24096386,68242c07d0c0e200c6451fdd,,,,,,,,,,,597.5227,598.0242,,,598.27,598.3777,left,0.0847,,,,,,,,,0.55,,,,,,598.0243,598.27,598.3777,599.4793,0,187,187,125,1,,,,,,,
,,,,,,,67f047016c147b1c30dbd4a4,682530bfa8ef9ff98b07117d,2025-05-14_20h09.54.791,cuing_paradigm_dot,2024.1.5,Win32,60.24096386,68242c07d0c0e200c6451fdd,,,,,,,,,,,599.4797,599.9698,,,600.2121,600.6665,right,0.4358,,,,,,,,,0.55,,,,,,599.9699,600.2121,600.6665,601.7555,0,188,188,120,1,,,,,,,
,,,,,,,67f047016c147b1c30dbd4a4,682530bfa8ef9ff98b07117d,2025-05-14_20h09.54.791,cuing_paradigm_dot,2024.1.5,Win32,60.24096386,68242c07d0c0e200c6451fdd,,,,,,,,,,,601.756,602.256,,,602.5069,602.5904,right,0.0531,,,,,,,,,0.6,,,,,,602.2561,602.5069,602.5904,603.6948,0,189,189,150,1,,,,,,,
,,,,,,,67f047016c147b1c30dbd4a4,682530bfa8ef9ff98b07117d,2025-05-14_20h09.54.791,cuing_paradigm_dot,2024.1.5,Win32,60.24096386,68242c07d0c0e200c6451fdd,,,,,,,,,,,603.6952,604.1955,,,604.4408,604.5654,right,0.1044,,,,,,,,,0.55,,,,,,604.1957,604.4408,604.5654,605.6685,0,190,190,135,1,,,,,,,
,,,,,,,67f047016c147b1c30dbd4a4,682530bfa8ef9ff98b07117d,2025-05-14_20h09.54.791,cuing_paradigm_dot,2024.1.5,Win32,60.24096386,68242c07d0c0e200c6451fdd,,,,,,,,,,,605.669,606.1695,,,606.4231,606.5713,right,0.1185,,,,,,,,,0.6,,,,,,606.1696,606.423,606.5714,607.6754,0,191,191,173,1,,,,,,,
,,,,,,,67f047016c147b1c30dbd4a4,682530bfa8ef9ff98b07117d,2025-05-14_20h09.54.791,cuing_paradigm_dot,2024.1.5,Win32,60.24096386,68242c07d0c0e200c6451fdd,,,,,,,,,,,607.6759,608.1893,,,608.4297,608.6122,right,0.1541,,,,,,,,,0.4,,,,,,608.1893,608.4296,608.6122,609.7159,0,192,192,47,1,,,,,,,
,,,,,,,67f047016c147b1c30dbd4a4,682530bfa8ef9ff98b07117d,2025-05-14_20h09.54.791,cuing_paradigm_dot,2024.1.5,Win32,60.24096386,68242c07d0c0e200c6451fdd,,,,,,,,,,,609.7166,610.2164,,,610.4643,610.6359,left,0.1519,,,,,,,,,0.4,,,,,,610.2164,610.4643,610.636,611.753,0,193,193,51,1,,,,,,,
,,,,,,,67f047016c147b1c30dbd4a4,682530bfa8ef9ff98b07117d,2025-05-14_20h09.54.791,cuing_paradigm_dot,2024.1.5,Win32,60.24096386,68242c07d0c0e200c6451fdd,,,,,,,,,,,611.7534,612.2405,,,612.4928,612.5247,left,0.0142,,,,,,,,,0.45,,,,,,612.2406,612.4928,612.5247,613.6288,0,194,194,73,1,,,,,,,
,,,,,,,67f047016c147b1c30dbd4a4,682530bfa8ef9ff98b07117d,2025-05-14_20h09.54.791,cuing_paradigm_dot,2024.1.5,Win32,60.24096386,68242c07d0c0e200c6451fdd,,,,,,,,,,,613.6291,614.1305,,,614.3806,614.5325,left,0.1351,,,,,,,,,0.6,,,,,,614.1306,614.3805,614.5325,615.6369,0,195,195,165,1,,,,,,,
,,,,,,,67f047016c147b1c30dbd4a4,682530bfa8ef9ff98b07117d,2025-05-14_20h09.54.791,cuing_paradigm_dot,2024.1.5,Win32,60.24096386,68242c07d0c0e200c6451fdd,,,,,,,,,,,615.6376,616.1384,,,616.3805,616.4308,right,0.0288,,,,,,,,,0.5,,,,,,616.1385,616.3805,616.4309,617.5264,0,196,196,100,1,,,,,,,
,,,,,,,67f047016c147b1c30dbd4a4,682530bfa8ef9ff98b07117d,2025-05-14_20h09.54.791,cuing_paradigm_dot,2024.1.5,Win32,60.24096386,68242c07d0c0e200c6451fdd,,,,,,,,,,,617.5269,618.0272,,,618.2882,618.4793,left,0.1692,,,,,,,,,0.45,,,,,,618.0273,618.2881,618.4793,619.5686,0,197,197,88,1,,,,,,,
,,,,,,,67f047016c147b1c30dbd4a4,682530bfa8ef9ff98b07117d,2025-05-14_20h09.54.791,cuing_paradigm_dot,2024.1.5,Win32,60.24096386,68242c07d0c0e200c6451fdd,,,,,,,,,,,619.5691,620.068,,,620.317,620.4202,left,0.0859,,,,,,,,,0.6,,,,,,620.068,620.317,620.4203,621.5235,0,198,198,151,1,,,,,,,
,,,,,,,67f047016c147b1c30dbd4a4,682530bfa8ef9ff98b07117d,2025-05-14_20h09.54.791,cuing_paradigm_dot,2024.1.5,Win32,60.24096386,68242c07d0c0e200c6451fdd,,,,,,,,,,,621.524,622.0248,,,622.2768,622.4608,right,0.1684,,,,,,,,,0.5,,,,,,622.0248,622.2768,622.4609,623.5498,0,199,199,115,1,,,,,,,
,,,,,,,67f047016c147b1c30dbd4a4,682530bfa8ef9ff98b07117d,2025-05-14_20h09.54.791,cuing_paradigm_dot,2024.1.5,Win32,60.24096386,68242c07d0c0e200c6451fdd,,,,,,,,,,,623.5502,624.0501,,,624.2925,624.3661,right,0.0528,,,,,,,,,0.4,,,,,,624.0501,624.2925,624.3662,625.4637,0,200,200,53,1,,,,,,,
,,,,,,,67f047016c147b1c30dbd4a4,682530bfa8ef9ff98b07117d,2025-05-14_20h09.54.791,cuing_paradigm_dot,2024.1.5,Win32,60.24096386,68242c07d0c0e200c6451fdd,,,,,,,,,,,625.4642,625.9554,,,626.2068,626.3749,left,0.1538,,,,,,,,,0.6,,,,,,625.9555,626.2068,626.3749,627.4776,0,201,201,176,1,,,,,,,
,,,,,,,67f047016c147b1c30dbd4a4,682530bfa8ef9ff98b07117d,2025-05-14_20h09.54.791,cuing_paradigm_dot,2024.1.5,Win32,60.24096386,68242c07d0c0e200c6451fdd,,,,,,,,,,,627.478,627.979,,,628.2314,628.598,left,0.3357,,,,,,,,,0.4,,,,,,627.979,628.2313,628.598,629.7027,0,202,202,46,1,,,,,,,
,,,,,,,67f047016c147b1c30dbd4a4,682530bfa8ef9ff98b07117d,2025-05-14_20h09.54.791,cuing_paradigm_dot,2024.1.5,Win32,60.24096386,68242c07d0c0e200c6451fdd,,,,,,,,,,,629.704,630.2041,,,630.4474,630.6229,right,0.1527,,,,,,,,,0.6,,,,,,630.2042,630.4474,630.623,631.7252,0,203,203,162,1,,,,,,,
,,,,,,,67f047016c147b1c30dbd4a4,682530bfa8ef9ff98b07117d,2025-05-14_20h09.54.791,cuing_paradigm_dot,2024.1.5,Win32,60.24096386,68242c07d0c0e200c6451fdd,,,,,,,,,,,631.7256,632.2287,,,632.4734,633.4818,right,0.9901,,,,,,,,,0.4,,,,,,632.2287,632.4733,633.4818,634.57,0,204,204,30,1,,,,,,,
,,,,,,,67f047016c147b1c30dbd4a4,682530bfa8ef9ff98b07117d,2025-05-14_20h09.54.791,cuing_paradigm_dot,2024.1.5,Win32,60.24096386,68242c07d0c0e200c6451fdd,,,,,,,,,,,634.5704,635.0706,,,635.3218,635.3548,left,0.0147,,,,,,,,,0.45,,,,,,635.0706,635.3217,635.3549,636.4587,0,205,205,70,1,,,,,,,
,,,,,,,67f047016c147b1c30dbd4a4,682530bfa8ef9ff98b07117d,2025-05-14_20h09.54.791,cuing_paradigm_dot,2024.1.5,Win32,60.24096386,68242c07d0c0e200c6451fdd,,,,,,,,,,,636.4591,636.9604,,,637.2046,637.4623,left,0.2353,,,,,,,,,0.45,,,,,,636.9604,637.2046,637.4624,638.5683,0,206,206,68,1,,,,,,,
,,,,,,,67f047016c147b1c30dbd4a4,682530bfa8ef9ff98b07117d,2025-05-14_20h09.54.791,cuing_paradigm_dot,2024.1.5,Win32,60.24096386,68242c07d0c0e200c6451fdd,,,,,,,,,,,638.5688,639.0675,,,639.315,639.3432,left,0.0153,,,,,,,,,0.6,,,,,,639.0675,639.3149,639.3432,640.4391,0,207,207,161,1,,,,,,,
,,,,,,,67f047016c147b1c30dbd4a4,682530bfa8ef9ff98b07117d,2025-05-14_20h09.54.791,cuing_paradigm_dot,2024.1.5,Win32,60.24096386,68242c07d0c0e200c6451fdd,,,,,,,,,,,640.4395,640.9436,,,641.1921,641.3264,right,0.12,,,,,,,,,0.5,,,,,,640.9436,641.1921,641.3264,642.4303,0,208,208,99,1,,,,,,,
,,,,,,,67f047016c147b1c30dbd4a4,682530bfa8ef9ff98b07117d,2025-05-14_20h09.54.791,cuing_paradigm_dot,2024.1.5,Win32,60.24096386,68242c07d0c0e200c6451fdd,,,,,,,,,,,642.4311,642.931,,,643.1763,643.9353,left,0.7379,,,,,,,,,0.45,,,,,,642.931,643.1762,643.9353,645.0395,0,209,209,63,1,,,,,,,
,,,,,,,67f047016c147b1c30dbd4a4,682530bfa8ef9ff98b07117d,2025-05-14_20h09.54.791,cuing_paradigm_dot,2024.1.5,Win32,60.24096386,68242c07d0c0e200c6451fdd,,,,,,,,,,,,,,,,,,,,,,,,,,,,,,,,,,,,,,,,,,645.0401,705.0327,,,,,
,,,,,,,67f047016c147b1c30dbd4a4,682530bfa8ef9ff98b07117d,2025-05-14_20h09.54.791,cuing_paradigm_dot,2024.1.5,Win32,60.24096386,68242c07d0c0e200c6451fdd,,,,,,,,,,,705.055,705.5509,,,705.7859,706.0059,right,0.205,,,,,,,,,0.6,,,,,,705.551,705.7858,706.006,707.1061,,,,,,,,0,0,0,169,1
,,,,,,,67f047016c147b1c30dbd4a4,682530bfa8ef9ff98b07117d,2025-05-14_20h09.54.791,cuing_paradigm_dot,2024.1.5,Win32,60.24096386,68242c07d0c0e200c6451fdd,,,,,,,,,,,707.1072,707.6085,,,707.8589,708.01,right,0.1345,,,,,,,,,0.5,,,,,,707.6085,707.8588,708.01,709.1131,,,,,,,,0,1,1,92,1
,,,,,,,67f047016c147b1c30dbd4a4,682530bfa8ef9ff98b07117d,2025-05-14_20h09.54.791,cuing_paradigm_dot,2024.1.5,Win32,60.24096386,68242c07d0c0e200c6451fdd,,,,,,,,,,,709.1135,709.6148,,,709.8662,709.9493,left,0.068,,,,,,,,,0.55,,,,,,709.6149,709.8661,709.9494,711.0529,,,,,,,,0,2,2,138,1
,,,,,,,67f047016c147b1c30dbd4a4,682530bfa8ef9ff98b07117d,2025-05-14_20h09.54.791,cuing_paradigm_dot,2024.1.5,Win32,60.24096386,68242c07d0c0e200c6451fdd,,,,,,,,,,,711.0533,711.5591,,,711.8085,711.8731,right,0.0503,,,,,,,,,0.9,,,,,,711.5591,711.8084,711.8731,712.9768,,,,,,,,0,3,3,182,1
,,,,,,,67f047016c147b1c30dbd4a4,682530bfa8ef9ff98b07117d,2025-05-14_20h09.54.791,cuing_paradigm_dot,2024.1.5,Win32,60.24096386,68242c07d0c0e200c6451fdd,,,,,,,,,,,712.9772,713.4847,,,713.731,713.8817,right,0.1375,,,,,,,,,0.1,,,,,,713.4848,713.731,713.8817,714.9852,,,,,,,,0,4,4,24,1
,,,,,,,67f047016c147b1c30dbd4a4,682530bfa8ef9ff98b07117d,2025-05-14_20h09.54.791,cuing_paradigm_dot,2024.1.5,Win32,60.24096386,68242c07d0c0e200c6451fdd,,,,,,,,,,,714.9857,715.4851,,,715.7364,715.9043,left,0.1468,,,,,,,,,0.9,,,,,,715.4851,715.7364,715.9043,717.0071,,,,,,,,0,5,5,206,1
,,,,,,,67f047016c147b1c30dbd4a4,682530bfa8ef9ff98b07117d,2025-05-14_20h09.54.791,cuing_paradigm_dot,2024.1.5,Win32,60.24096386,68242c07d0c0e200c6451fdd,,,,,,,,,,,717.0074,717.5098,,,717.7609,717.9112,right,0.1346,,,,,,,,,0.45,,,,,,717.5098,717.7609,717.9112,719.0148,,,,,,,,0,6,6,71,1
,,,,,,,67f047016c147b1c30dbd4a4,682530bfa8ef9ff98b07117d,2025-05-14_20h09.54.791,cuing_paradigm_dot,2024.1.5,Win32,60.24096386,68242c07d0c0e200c6451fdd,,,,,,,,,,,719.0151,719.5176,,,719.7678,720.1853,right,0.4021,,,,,,,,,0.55,,,,,,719.5176,719.7677,720.1854,721.2905,,,,,,,,0,7,7,124,1
,,,,,,,67f047016c147b1c30dbd4a4,682530bfa8ef9ff98b07117d,2025-05-14_20h09.54.791,cuing_paradigm_dot,2024.1.5,Win32,60.24096386,68242c07d0c0e200c6451fdd,,,,,,,,,,,721.2908,721.793,,,722.0426,722.1592,left,0.1006,,,,,,,,,0.6,,,,,,721.793,722.0426,722.1592,723.2624,,,,,,,,0,8,8,152,1
,,,,,,,67f047016c147b1c30dbd4a4,682530bfa8ef9ff98b07117d,2025-05-14_20h09.54.791,cuing_paradigm_dot,2024.1.5,Win32,60.24096386,68242c07d0c0e200c6451fdd,,,,,,,,,,,723.2629,723.764,,,724.0159,724.1332,right,0.0993,,,,,,,,,0.5,,,,,,723.7641,724.0159,724.1332,725.2226,,,,,,,,0,9,9,113,1
,,,,,,,67f047016c147b1c30dbd4a4,682530bfa8ef9ff98b07117d,2025-05-14_20h09.54.791,cuing_paradigm_dot,2024.1.5,Win32,60.24096386,68242c07d0c0e200c6451fdd,,,,,,,,,,,725.2231,725.7218,,,725.9724,726.1435,left,0.1564,,,,,,,,,0.9,,,,,,725.7219,725.9724,726.1435,727.2445,,,,,,,,0,10,10,184,1
,,,,,,,67f047016c147b1c30dbd4a4,682530bfa8ef9ff98b07117d,2025-05-14_20h09.54.791,cuing_paradigm_dot,2024.1.5,Win32,60.24096386,68242c07d0c0e200c6451fdd,,,,,,,,,,,727.2456,727.7456,,,727.9961,728.2806,left,0.2682,,,,,,,,,0.4,,,,,,727.7456,727.9961,728.2806,729.3687,,,,,,,,0,11,11,55,1
,,,,,,,67f047016c147b1c30dbd4a4,682530bfa8ef9ff98b07117d,2025-05-14_20h09.54.791,cuing_paradigm_dot,2024.1.5,Win32,60.24096386,68242c07d0c0e200c6451fdd,,,,,,,,,,,729.3691,729.8703,,,730.1199,730.4243,right,0.2902,,,,,,,,,0.6,,,,,,729.8703,730.1199,730.4243,731.525,,,,,,,,0,12,12,179,1
,,,,,,,67f047016c147b1c30dbd4a4,682530bfa8ef9ff98b07117d,2025-05-14_20h09.54.791,cuing_paradigm_dot,2024.1.5,Win32,60.24096386,68242c07d0c0e200c6451fdd,,,,,,,,,,,731.5254,732.0273,,,732.2669,732.5809,left,0.3034,,,,,,,,,0.1,,,,,,732.0273,732.2668,732.5809,733.6823,,,,,,,,0,13,13,15,1
,,,,,,,67f047016c147b1c30dbd4a4,682530bfa8ef9ff98b07117d,2025-05-14_20h09.54.791,cuing_paradigm_dot,2024.1.5,Win32,60.24096386,68242c07d0c0e200c6451fdd,,,,,,,,,,,733.6828,734.1847,,,734.4356,734.8368,right,0.3852,,,,,,,,,0.5,,,,,,734.1847,734.4355,734.8368,735.9251,,,,,,,,0,14,14,94,1
,,,,,,,67f047016c147b1c30dbd4a4,682530bfa8ef9ff98b07117d,2025-05-14_20h09.54.791,cuing_paradigm_dot,2024.1.5,Win32,60.24096386,68242c07d0c0e200c6451fdd,,,,,,,,,,,735.9256,736.4251,,,736.6762,736.8947,right,0.2025,,,,,,,,,0.4,,,,,,736.4251,736.6761,736.8947,737.9998,,,,,,,,0,15,15,32,1
,,,,,,,67f047016c147b1c30dbd4a4,682530bfa8ef9ff98b07117d,2025-05-14_20h09.54.791,cuing_paradigm_dot,2024.1.5,Win32,60.24096386,68242c07d0c0e200c6451fdd,,,,,,,,,,,738.0004,738.499,,,738.7511,738.8019,right,0.0331,,,,,,,,,0.1,,,,,,738.499,738.7511,738.802,739.9043,,,,,,,,0,16,16,16,1
,,,,,,,67f047016c147b1c30dbd4a4,682530bfa8ef9ff98b07117d,2025-05-14_20h09.54.791,cuing_paradigm_dot,2024.1.5,Win32,60.24096386,68242c07d0c0e200c6451fdd,,,,,,,,,,,739.9048,740.4059,,,740.657,740.7238,right,0.0509,,,,,,,,,0.4,,,,,,740.406,740.657,740.7238,741.8282,,,,,,,,0,17,17,35,1
,,,,,,,67f047016c147b1c30dbd4a4,682530bfa8ef9ff98b07117d,2025-05-14_20h09.54.791,cuing_paradigm_dot,2024.1.5,Win32,60.24096386,68242c07d0c0e200c6451fdd,,,,,,,,,,,741.8286,742.33,,,742.5805,742.7325,left,0.1375,,,,,,,,,0.55,,,,,,742.33,742.5804,742.7325,743.8355,,,,,,,,0,18,18,144,1
,,,,,,,67f047016c147b1c30dbd4a4,682530bfa8ef9ff98b07117d,2025-05-14_20h09.54.791,cuing_paradigm_dot,2024.1.5,Win32,60.24096386,68242c07d0c0e200c6451fdd,,,,,,,,,,,743.8363,744.3365,,,744.5877,744.8388,right,0.2347,,,,,,,,,0.4,,,,,,744.3365,744.5876,744.8389,745.9266,,,,,,,,0,19,19,48,1
,,,,,,,67f047016c147b1c30dbd4a4,682530bfa8ef9ff98b07117d,2025-05-14_20h09.54.791,cuing_paradigm_dot,2024.1.5,Win32,60.24096386,68242c07d0c0e200c6451fdd,,,,,,,,,,,745.927,746.4302,,,746.6808,746.9454,right,0.2512,,,,,,,,,0.6,,,,,,746.4302,746.6808,746.9454,748.0342,,,,,,,,0,20,20,150,1
,,,,,,,67f047016c147b1c30dbd4a4,682530bfa8ef9ff98b07117d,2025-05-14_20h09.54.791,cuing_paradigm_dot,2024.1.5,Win32,60.24096386,68242c07d0c0e200c6451fdd,,,,,,,,,,,748.0346,748.5341,,,748.7862,749.0704,right,0.2687,,,,,,,,,0.55,,,,,,748.5341,748.7862,749.0704,750.1735,,,,,,,,0,21,21,137,1
,,,,,,,67f047016c147b1c30dbd4a4,682530bfa8ef9ff98b07117d,2025-05-14_20h09.54.791,cuing_paradigm_dot,2024.1.5,Win32,60.24096386,68242c07d0c0e200c6451fdd,,,,,,,,,,,750.1739,750.6767,,,750.9268,751.0942,right,0.1512,,,,,,,,,0.4,,,,,,750.6767,750.9265,751.0943,752.182,,,,,,,,0,22,22,44,1
,,,,,,,67f047016c147b1c30dbd4a4,682530bfa8ef9ff98b07117d,2025-05-14_20h09.54.791,cuing_paradigm_dot,2024.1.5,Win32,60.24096386,68242c07d0c0e200c6451fdd,,,,,,,,,,,752.1827,752.6845,,,752.9406,752.984,left,0.0313,,,,,,,,,0.4,,,,,,752.6845,752.9406,752.984,754.0873,,,,,,,,0,23,23,58,1
,,,,,,,67f047016c147b1c30dbd4a4,682530bfa8ef9ff98b07117d,2025-05-14_20h09.54.791,cuing_paradigm_dot,2024.1.5,Win32,60.24096386,68242c07d0c0e200c6451fdd,,,,,,,,,,,754.088,754.5895,,,754.8401,754.9746,left,0.1169,,,,,,,,,0.4,,,,,,754.5895,754.8401,754.9747,756.0781,,,,,,,,0,24,24,52,1
,,,,,,,67f047016c147b1c30dbd4a4,682530bfa8ef9ff98b07117d,2025-05-14_20h09.54.791,cuing_paradigm_dot,2024.1.5,Win32,60.24096386,68242c07d0c0e200c6451fdd,,,,,,,,,,,756.0785,756.5793,,,756.8309,756.9484,left,0.1025,,,,,,,,,0.4,,,,,,756.5793,756.8309,756.9485,758.0525,,,,,,,,0,25,25,47,1
,,,,,,,67f047016c147b1c30dbd4a4,682530bfa8ef9ff98b07117d,2025-05-14_20h09.54.791,cuing_paradigm_dot,2024.1.5,Win32,60.24096386,68242c07d0c0e200c6451fdd,,,,,,,,,,,758.0529,758.5553,,,758.8043,758.9539,left,0.1343,,,,,,,,,0.45,,,,,,758.5553,758.8043,758.954,760.0427,,,,,,,,0,26,26,76,1
,,,,,,,67f047016c147b1c30dbd4a4,682530bfa8ef9ff98b07117d,2025-05-14_20h09.54.791,cuing_paradigm_dot,2024.1.5,Win32,60.24096386,68242c07d0c0e200c6451fdd,,,,,,,,,,,760.0431,760.5431,,,760.7939,760.8292,left,0.0204,,,,,,,,,0.1,,,,,,760.5431,760.7939,760.8292,761.9324,,,,,,,,0,27,27,23,1
,,,,,,,67f047016c147b1c30dbd4a4,682530bfa8ef9ff98b07117d,2025-05-14_20h09.54.791,cuing_paradigm_dot,2024.1.5,Win32,60.24096386,68242c07d0c0e200c6451fdd,,,,,,,,,,,761.9328,762.4329,,,762.6843,762.9209,left,0.2208,,,,,,,,,0.1,,,,,,762.4329,762.6842,762.921,764.0222,,,,,,,,0,28,28,1,1
,,,,,,,67f047016c147b1c30dbd4a4,682530bfa8ef9ff98b07117d,2025-05-14_20h09.54.791,cuing_paradigm_dot,2024.1.5,Win32,60.24096386,68242c07d0c0e200c6451fdd,,,,,,,,,,,764.0229,764.524,,,764.7749,765.1601,left,0.369,,,,,,,,,0.5,,,,,,764.524,764.7749,765.1601,766.2642,,,,,,,,0,29,29,110,1
,,,,,,,67f047016c147b1c30dbd4a4,682530bfa8ef9ff98b07117d,2025-05-14_20h09.54.791,cuing_paradigm_dot,2024.1.5,Win32,60.24096386,68242c07d0c0e200c6451fdd,,,,,,,,,,,766.2647,766.7655,,,767.0162,767.2331,right,0.196,,,,,,,,,0.9,,,,,,766.7655,767.0161,767.2331,768.3372,,,,,,,,0,30,30,193,1
,,,,,,,67f047016c147b1c30dbd4a4,682530bfa8ef9ff98b07117d,2025-05-14_20h09.54.791,cuing_paradigm_dot,2024.1.5,Win32,60.24096386,68242c07d0c0e200c6451fdd,,,,,,,,,,,768.3377,768.8386,,,769.0926,769.1574,right,0.0503,,,,,,,,,0.1,,,,,,768.8386,769.0926,769.1574,770.261,,,,,,,,0,31,31,17,1
,,,,,,,67f047016c147b1c30dbd4a4,682530bfa8ef9ff98b07117d,2025-05-14_20h09.54.791,cuing_paradigm_dot,2024.1.5,Win32,60.24096386,68242c07d0c0e200c6451fdd,,,,,,,,,,,770.2615,770.7629,,,771.014,771.231,left,0.2019,,,,,,,,,0.1,,,,,,770.7629,771.0139,771.231,772.3346,,,,,,,,0,32,32,6,1
,,,,,,,67f047016c147b1c30dbd4a4,682530bfa8ef9ff98b07117d,2025-05-14_20h09.54.791,cuing_paradigm_dot,2024.1.5,Win32,60.24096386,68242c07d0c0e200c6451fdd,,,,,,,,,,,772.3351,772.8362,,,773.0897,773.3881,right,0.2847,,,,,,,,,0.5,,,,,,772.8362,773.0896,773.3882,774.4918,,,,,,,,0,33,33,103,1
,,,,,,,67f047016c147b1c30dbd4a4,682530bfa8ef9ff98b07117d,2025-05-14_20h09.54.791,cuing_paradigm_dot,2024.1.5,Win32,60.24096386,68242c07d0c0e200c6451fdd,,,,,,,,,,,774.4921,774.9946,,,775.2357,775.5161,left,0.27,,,,,,,,,0.5,,,,,,774.9946,775.2357,775.5161,776.6059,,,,,,,,0,34,34,105,1
,,,,,,,67f047016c147b1c30dbd4a4,682530bfa8ef9ff98b07117d,2025-05-14_20h09.54.791,cuing_paradigm_dot,2024.1.5,Win32,60.24096386,68242c07d0c0e200c6451fdd,,,,,,,,,,,776.6066,777.1013,,,777.353,777.5382,right,0.1677,,,,,,,,,0.9,,,,,,777.1014,777.3529,777.5382,778.6399,,,,,,,,0,35,35,180,1
,,,,,,,67f047016c147b1c30dbd4a4,682530bfa8ef9ff98b07117d,2025-05-14_20h09.54.791,cuing_paradigm_dot,2024.1.5,Win32,60.24096386,68242c07d0c0e200c6451fdd,,,,,,,,,,,778.6403,779.1451,,,779.3924,779.6611,left,0.2532,,,,,,,,,0.1,,,,,,779.1451,779.3924,779.6612,780.7637,,,,,,,,0,36,36,29,1
,,,,,,,67f047016c147b1c30dbd4a4,682530bfa8ef9ff98b07117d,2025-05-14_20h09.54.791,cuing_paradigm_dot,2024.1.5,Win32,60.24096386,68242c07d0c0e200c6451fdd,,,,,,,,,,,780.7642,781.2657,,,781.5168,781.7182,left,0.1854,,,,,,,,,0.9,,,,,,781.2657,781.5167,781.7182,782.8212,,,,,,,,0,37,37,190,1
,,,,,,,67f047016c147b1c30dbd4a4,682530bfa8ef9ff98b07117d,2025-05-14_20h09.54.791,cuing_paradigm_dot,2024.1.5,Win32,60.24096386,68242c07d0c0e200c6451fdd,,,,,,,,,,,782.8217,783.323,,,783.5742,783.6743,right,0.0855,,,,,,,,,0.5,,,,,,783.323,783.5742,783.6744,784.7782,,,,,,,,0,38,38,118,1
,,,,,,,67f047016c147b1c30dbd4a4,682530bfa8ef9ff98b07117d,2025-05-14_20h09.54.791,cuing_paradigm_dot,2024.1.5,Win32,60.24096386,68242c07d0c0e200c6451fdd,,,,,,,,,,,784.7786,785.2794,,,785.5312,785.6647,left,0.1176,,,,,,,,,0.5,,,,,,785.2794,785.5311,785.6648,786.7696,,,,,,,,0,39,39,111,1
,,,,,,,67f047016c147b1c30dbd4a4,682530bfa8ef9ff98b07117d,2025-05-14_20h09.54.791,cuing_paradigm_dot,2024.1.5,Win32,60.24096386,68242c07d0c0e200c6451fdd,,,,,,,,,,,786.7701,787.2705,,,787.5223,787.6231,right,0.0874,,,,,,,,,0.6,,,,,,787.2707,787.5222,787.6231,788.7278,,,,,,,,0,40,40,159,1
,,,,,,,67f047016c147b1c30dbd4a4,682530bfa8ef9ff98b07117d,2025-05-14_20h09.54.791,cuing_paradigm_dot,2024.1.5,Win32,60.24096386,68242c07d0c0e200c6451fdd,,,,,,,,,,,788.7283,789.2274,,,789.4779,789.7806,left,0.2877,,,,,,,,,0.4,,,,,,789.2275,789.4778,789.7806,790.8689,,,,,,,,0,41,41,41,1
,,,,,,,67f047016c147b1c30dbd4a4,682530bfa8ef9ff98b07117d,2025-05-14_20h09.54.791,cuing_paradigm_dot,2024.1.5,Win32,60.24096386,68242c07d0c0e200c6451fdd,,,,,,,,,,,790.8692,791.3682,,,791.6188,791.8718,left,0.238,,,,,,,,,0.5,,,,,,791.3683,791.6188,791.8718,792.9745,,,,,,,,0,42,42,104,1
,,,,,,,67f047016c147b1c30dbd4a4,682530bfa8ef9ff98b07117d,2025-05-14_20h09.54.791,cuing_paradigm_dot,2024.1.5,Win32,60.24096386,68242c07d0c0e200c6451fdd,,,,,,,,,,,792.9751,793.4821,,,793.7272,794.5956,right,0.8539,,,,,,,,,0.45,,,,,,793.4821,793.7272,794.5956,795.6992,,,,,,,,0,43,43,80,1
,,,,,,,67f047016c147b1c30dbd4a4,682530bfa8ef9ff98b07117d,2025-05-14_20h09.54.791,cuing_paradigm_dot,2024.1.5,Win32,60.24096386,68242c07d0c0e200c6451fdd,,,,,,,,,,,795.6996,796.1915,,,796.4361,796.7866,right,0.335,,,,,,,,,0.4,,,,,,796.1916,796.4361,796.7866,797.8756,,,,,,,,0,44,44,45,1
,,,,,,,67f047016c147b1c30dbd4a4,682530bfa8ef9ff98b07117d,2025-05-14_20h09.54.791,cuing_paradigm_dot,2024.1.5,Win32,60.24096386,68242c07d0c0e200c6451fdd,,,,,,,,,,,797.8762,798.3761,,,798.6291,798.7946,right,0.151,,,,,,,,,0.45,,,,,,798.3762,798.6291,798.7946,799.898,,,,,,,,0,45,45,84,1
,,,,,,,67f047016c147b1c30dbd4a4,682530bfa8ef9ff98b07117d,2025-05-14_20h09.54.791,cuing_paradigm_dot,2024.1.5,Win32,60.24096386,68242c07d0c0e200c6451fdd,,,,,,,,,,,799.8985,800.399,,,800.6518,800.8016,right,0.1356,,,,,,,,,0.6,,,,,,800.399,800.6518,800.8016,801.9048,,,,,,,,0,46,46,172,1
,,,,,,,67f047016c147b1c30dbd4a4,682530bfa8ef9ff98b07117d,2025-05-14_20h09.54.791,cuing_paradigm_dot,2024.1.5,Win32,60.24096386,68242c07d0c0e200c6451fdd,,,,,,,,,,,801.9053,802.4065,,,802.6576,802.8416,right,0.1681,,,,,,,,,0.45,,,,,,802.4065,802.6576,802.8416,803.9352,,,,,,,,0,47,47,61,1
,,,,,,,67f047016c147b1c30dbd4a4,682530bfa8ef9ff98b07117d,2025-05-14_20h09.54.791,cuing_paradigm_dot,2024.1.5,Win32,60.24096386,68242c07d0c0e200c6451fdd,,,,,,,,,,,803.9357,804.43,,,804.6813,804.8163,left,0.1176,,,,,,,,,0.55,,,,,,804.43,804.6813,804.8163,805.9199,,,,,,,,0,48,48,139,1
,,,,,,,67f047016c147b1c30dbd4a4,682530bfa8ef9ff98b07117d,2025-05-14_20h09.54.791,cuing_paradigm_dot,2024.1.5,Win32,60.24096386,68242c07d0c0e200c6451fdd,,,,,,,,,,,805.9203,806.4213,,,806.6741,806.907,left,0.2176,,,,,,,,,0.6,,,,,,806.4213,806.674,806.907,808.0157,,,,,,,,0,49,49,151,1
,,,,,,,67f047016c147b1c30dbd4a4,682530bfa8ef9ff98b07117d,2025-05-14_20h09.54.791,cuing_paradigm_dot,2024.1.5,Win32,60.24096386,68242c07d0c0e200c6451fdd,,,,,,,,,,,808.0162,808.5119,,,808.7588,808.981,left,0.205,,,,,,,,,0.6,,,,,,808.512,808.7588,808.9811,810.0829,,,,,,,,0,50,50,173,1
,,,,,,,67f047016c147b1c30dbd4a4,682530bfa8ef9ff98b07117d,2025-05-14_20h09.54.791,cuing_paradigm_dot,2024.1.5,Win32,60.24096386,68242c07d0c0e200c6451fdd,,,,,,,,,,,810.0833,810.5859,,,810.8307,811.0042,right,0.1348,,,,,,,,,0.5,,,,,,810.5859,810.8306,811.0042,812.1071,,,,,,,,0,51,51,109,1
,,,,,,,67f047016c147b1c30dbd4a4,682530bfa8ef9ff98b07117d,2025-05-14_20h09.54.791,cuing_paradigm_dot,2024.1.5,Win32,60.24096386,68242c07d0c0e200c6451fdd,,,,,,,,,,,812.1076,812.6088,,,812.8561,813.1079,left,0.218,,,,,,,,,0.4,,,,,,812.6088,812.8561,813.1079,814.1983,,,,,,,,0,52,52,33,1
,,,,,,,67f047016c147b1c30dbd4a4,682530bfa8ef9ff98b07117d,2025-05-14_20h09.54.791,cuing_paradigm_dot,2024.1.5,Win32,60.24096386,68242c07d0c0e200c6451fdd,,,,,,,,,,,814.1987,814.6997,,,814.9507,815.0687,left,0.1029,,,,,,,,,0.55,,,,,,814.6997,814.9506,815.0688,816.1725,,,,,,,,0,53,53,130,1
,,,,,,,67f047016c147b1c30dbd4a4,682530bfa8ef9ff98b07117d,2025-05-14_20h09.54.791,cuing_paradigm_dot,2024.1.5,Win32,60.24096386,68242c07d0c0e200c6451fdd,,,,,,,,,,,816.173,816.6637,,,816.9051,817.16,right,0.2394,,,,,,,,,0.55,,,,,,816.6637,816.905,817.1601,818.2627,,,,,,,,0,54,54,145,1
,,,,,,,67f047016c147b1c30dbd4a4,682530bfa8ef9ff98b07117d,2025-05-14_20h09.54.791,cuing_paradigm_dot,2024.1.5,Win32,60.24096386,68242c07d0c0e200c6451fdd,,,,,,,,,,,818.2632,818.764,,,819.0149,819.2831,left,0.2518,,,,,,,,,0.1,,,,,,818.7641,819.0148,819.2831,820.3857,,,,,,,,0,55,55,8,1
,,,,,,,67f047016c147b1c30dbd4a4,682530bfa8ef9ff98b07117d,2025-05-14_20h09.54.791,cuing_paradigm_dot,2024.1.5,Win32,60.24096386,68242c07d0c0e200c6451fdd,,,,,,,,,,,820.3861,820.8883,,,821.1323,821.5061,right,0.3523,,,,,,,,,0.55,,,,,,820.8883,821.1322,821.5061,822.5939,,,,,,,,0,56,56,146,1
,,,,,,,67f047016c147b1c30dbd4a4,682530bfa8ef9ff98b07117d,2025-05-14_20h09.54.791,cuing_paradigm_dot,2024.1.5,Win32,60.24096386,68242c07d0c0e200c6451fdd,,,,,,,,,,,822.5945,823.096,,,823.3425,823.531,right,0.168,,,,,,,,,0.45,,,,,,823.0961,823.3425,823.5311,824.634,,,,,,,,0,57,57,67,1
,,,,,,,67f047016c147b1c30dbd4a4,682530bfa8ef9ff98b07117d,2025-05-14_20h09.54.791,cuing_paradigm_dot,2024.1.5,Win32,60.24096386,68242c07d0c0e200c6451fdd,,,,,,,,,,,824.6344,825.1356,,,825.3804,826.2063,left,0.8038,,,,,,,,,0.4,,,,,,825.1356,825.3804,826.2064,827.2941,,,,,,,,0,58,58,54,1
,,,,,,,67f047016c147b1c30dbd4a4,682530bfa8ef9ff98b07117d,2025-05-14_20h09.54.791,cuing_paradigm_dot,2024.1.5,Win32,60.24096386,68242c07d0c0e200c6451fdd,,,,,,,,,,,827.2945,827.7958,,,828.0373,828.3157,left,0.2565,,,,,,,,,0.55,,,,,,827.7959,828.0373,828.3158,829.418,,,,,,,,0,59,59,133,1
,,,,,,,67f047016c147b1c30dbd4a4,682530bfa8ef9ff98b07117d,2025-05-14_20h09.54.791,cuing_paradigm_dot,2024.1.5,Win32,60.24096386,68242c07d0c0e200c6451fdd,,,,,,,,,,,829.4185,829.9207,,,830.1599,830.204,right,0.0113,,,,,,,,,0.4,,,,,,829.9207,830.1598,830.2041,831.3081,,,,,,,,0,60,60,39,1
,,,,,,,67f047016c147b1c30dbd4a4,682530bfa8ef9ff98b07117d,2025-05-14_20h09.54.791,cuing_paradigm_dot,2024.1.5,Win32,60.24096386,68242c07d0c0e200c6451fdd,,,,,,,,,,,831.3085,831.8092,,,832.056,832.2944,right,0.2186,,,,,,,,,0.5,,,,,,831.8093,832.056,832.2944,833.3981,,,,,,,,0,61,61,117,1
,,,,,,,67f047016c147b1c30dbd4a4,682530bfa8ef9ff98b07117d,2025-05-14_20h09.54.791,cuing_paradigm_dot,2024.1.5,Win32,60.24096386,68242c07d0c0e200c6451fdd,,,,,,,,,,,833.3986,833.9002,,,834.1512,834.302,left,0.1329,,,,,,,,,0.1,,,,,,833.9003,834.1511,834.302,835.4053,,,,,,,,0,62,62,2,1
,,,,,,,67f047016c147b1c30dbd4a4,682530bfa8ef9ff98b07117d,2025-05-14_20h09.54.791,cuing_paradigm_dot,2024.1.5,Win32,60.24096386,68242c07d0c0e200c6451fdd,,,,,,,,,,,835.4057,835.9076,,,836.1583,836.2279,left,0.0559,,,,,,,,,0.45,,,,,,835.9076,836.1582,836.228,837.3288,,,,,,,,0,63,63,70,1
,,,,,,,67f047016c147b1c30dbd4a4,682530bfa8ef9ff98b07117d,2025-05-14_20h09.54.791,cuing_paradigm_dot,2024.1.5,Win32,60.24096386,68242c07d0c0e200c6451fdd,,,,,,,,,,,837.3294,837.8309,,,838.0828,838.1115,right,0.0005,,,,,,,,,0.6,,,,,,837.831,838.0827,838.1115,839.2016,,,,,,,,0,64,64,176,1
,,,,,,,67f047016c147b1c30dbd4a4,682530bfa8ef9ff98b07117d,2025-05-14_20h09.54.791,cuing_paradigm_dot,2024.1.5,Win32,60.24096386,68242c07d0c0e200c6451fdd,,,,,,,,,,,839.2019,839.7032,,,839.952,840.6741,left,0.6986,,,,,,,,,0.1,,,,,,839.7032,839.9519,840.6741,841.7899,,,,,,,,0,65,65,21,1
,,,,,,,67f047016c147b1c30dbd4a4,682530bfa8ef9ff98b07117d,2025-05-14_20h09.54.791,cuing_paradigm_dot,2024.1.5,Win32,60.24096386,68242c07d0c0e200c6451fdd,,,,,,,,,,,841.7902,842.2791,,,842.5312,842.5635,left,0.0139,,,,,,,,,0.45,,,,,,842.2792,842.5312,842.5636,843.6516,,,,,,,,0,66,66,83,1
,,,,,,,67f047016c147b1c30dbd4a4,682530bfa8ef9ff98b07117d,2025-05-14_20h09.54.791,cuing_paradigm_dot,2024.1.5,Win32,60.24096386,68242c07d0c0e200c6451fdd,,,,,,,,,,,843.6525,844.1536,,,844.4138,844.4505,left,0.0172,,,,,,,,,0.9,,,,,,844.1537,844.4137,844.4505,845.5411,,,,,,,,0,67,67,186,1
,,,,,,,67f047016c147b1c30dbd4a4,682530bfa8ef9ff98b07117d,2025-05-14_20h09.54.791,cuing_paradigm_dot,2024.1.5,Win32,60.24096386,68242c07d0c0e200c6451fdd,,,,,,,,,,,845.5423,846.0425,,,846.2935,846.394,left,0.0682,,,,,,,,,0.4,,,,,,846.0425,846.2934,846.3941,847.497,,,,,,,,0,68,68,42,1
,,,,,,,67f047016c147b1c30dbd4a4,682530bfa8ef9ff98b07117d,2025-05-14_20h09.54.791,cuing_paradigm_dot,2024.1.5,Win32,60.24096386,68242c07d0c0e200c6451fdd,,,,,,,,,,,847.4974,848.0006,,,848.2434,848.2771,right,0.0135,,,,,,,,,0.9,,,,,,848.0006,848.2434,848.2771,849.3708,,,,,,,,0,69,69,207,1
,,,,,,,67f047016c147b1c30dbd4a4,682530bfa8ef9ff98b07117d,2025-05-14_20h09.54.791,cuing_paradigm_dot,2024.1.5,Win32,60.24096386,68242c07d0c0e200c6451fdd,,,,,,,,,,,849.3713,849.8731,,,850.1239,850.2241,right,0.0846,,,,,,,,,0.55,,,,,,849.8732,850.1239,850.2241,851.3274,,,,,,,,0,70,70,128,1
,,,,,,,67f047016c147b1c30dbd4a4,682530bfa8ef9ff98b07117d,2025-05-14_20h09.54.791,cuing_paradigm_dot,2024.1.5,Win32,60.24096386,68242c07d0c0e200c6451fdd,,,,,,,,,,,851.3279,851.8307,,,852.0736,852.1972,left,0.1019,,,,,,,,,0.5,,,,,,851.8308,852.0735,852.1973,853.3008,,,,,,,,0,71,71,90,1
,,,,,,,67f047016c147b1c30dbd4a4,682530bfa8ef9ff98b07117d,2025-05-14_20h09.54.791,cuing_paradigm_dot,2024.1.5,Win32,60.24096386,68242c07d0c0e200c6451fdd,,,,,,,,,,,853.3011,853.8037,,,854.0469,854.0972,left,0.0294,,,,,,,,,0.5,,,,,,853.8038,854.0469,854.0972,855.1908,,,,,,,,0,72,72,100,1
,,,,,,,67f047016c147b1c30dbd4a4,682530bfa8ef9ff98b07117d,2025-05-14_20h09.54.791,cuing_paradigm_dot,2024.1.5,Win32,60.24096386,68242c07d0c0e200c6451fdd,,,,,,,,,,,855.1914,855.6938,,,855.9445,855.9782,right,0.015,,,,,,,,,0.6,,,,,,855.6939,855.9444,855.9783,857.0819,,,,,,,,0,73,73,153,1
,,,,,,,67f047016c147b1c30dbd4a4,682530bfa8ef9ff98b07117d,2025-05-14_20h09.54.791,cuing_paradigm_dot,2024.1.5,Win32,60.24096386,68242c07d0c0e200c6451fdd,,,,,,,,,,,857.0823,857.585,,,857.8323,858.3689,right,0.5186,,,,,,,,,0.55,,,,,,857.585,857.8323,858.369,859.4567,,,,,,,,0,74,74,131,1
,,,,,,,67f047016c147b1c30dbd4a4,682530bfa8ef9ff98b07117d,2025-05-14_20h09.54.791,cuing_paradigm_dot,2024.1.5,Win32,60.24096386,68242c07d0c0e200c6451fdd,,,,,,,,,,,859.4572,859.958,,,860.2018,860.3599,right,0.1351,,,,,,,,,0.5,,,,,,859.958,860.2018,860.3599,861.4636,,,,,,,,0,75,75,107,1
,,,,,,,67f047016c147b1c30dbd4a4,682530bfa8ef9ff98b07117d,2025-05-14_20h09.54.791,cuing_paradigm_dot,2024.1.5,Win32,60.24096386,68242c07d0c0e200c6451fdd,,,,,,,,,,,861.4642,861.965,,,862.2159,862.2496,right,0.0174,,,,,,,,,0.9,,,,,,861.965,862.2159,862.2497,863.3537,,,,,,,,0,76,76,192,1
,,,,,,,67f047016c147b1c30dbd4a4,682530bfa8ef9ff98b07117d,2025-05-14_20h09.54.791,cuing_paradigm_dot,2024.1.5,Win32,60.24096386,68242c07d0c0e200c6451fdd,,,,,,,,,,,863.354,863.8472,,,864.0894,864.1402,right,0.0365,,,,,,,,,0.55,,,,,,863.8472,864.0893,864.1403,865.243,,,,,,,,0,77,77,132,1
,,,,,,,67f047016c147b1c30dbd4a4,682530bfa8ef9ff98b07117d,2025-05-14_20h09.54.791,cuing_paradigm_dot,2024.1.5,Win32,60.24096386,68242c07d0c0e200c6451fdd,,,,,,,,,,,865.2433,865.7309,,,865.9787,866.7161,left,0.7205,,,,,,,,,0.55,,,,,,865.7309,865.9787,866.7161,867.8185,,,,,,,,0,78,78,120,1
,,,,,,,67f047016c147b1c30dbd4a4,682530bfa8ef9ff98b07117d,2025-05-14_20h09.54.791,cuing_paradigm_dot,2024.1.5,Win32,60.24096386,68242c07d0c0e200c6451fdd,,,,,,,,,,,867.8189,868.3119,,,868.5667,868.6895,left,0.101,,,,,,,,,0.9,,,,,,868.3119,868.5667,868.6895,869.8056,,,,,,,,0,79,79,196,1
,,,,,,,67f047016c147b1c30dbd4a4,682530bfa8ef9ff98b07117d,2025-05-14_20h09.54.791,cuing_paradigm_dot,2024.1.5,Win32,60.24096386,68242c07d0c0e200c6451fdd,,,,,,,,,,,869.8058,870.295,,,870.5452,870.7798,left,0.22,,,,,,,,,0.1,,,,,,870.295,870.5451,870.7799,871.8833,,,,,,,,0,80,80,18,1
,,,,,,,67f047016c147b1c30dbd4a4,682530bfa8ef9ff98b07117d,2025-05-14_20h09.54.791,cuing_paradigm_dot,2024.1.5,Win32,60.24096386,68242c07d0c0e200c6451fdd,,,,,,,,,,,871.8837,872.3859,,,872.6354,872.7533,left,0.1012,,,,,,,,,0.45,,,,,,872.3859,872.6354,872.7533,873.8564,,,,,,,,0,81,81,64,1
,,,,,,,67f047016c147b1c30dbd4a4,682530bfa8ef9ff98b07117d,2025-05-14_20h09.54.791,cuing_paradigm_dot,2024.1.5,Win32,60.24096386,68242c07d0c0e200c6451fdd,,,,,,,,,,,873.8572,874.3583,,,874.6068,875.5653,left,0.9402,,,,,,,,,0.4,,,,,,874.3583,874.6068,875.5654,876.6668,,,,,,,,0,82,82,43,1
,,,,,,,67f047016c147b1c30dbd4a4,682530bfa8ef9ff98b07117d,2025-05-14_20h09.54.791,cuing_paradigm_dot,2024.1.5,Win32,60.24096386,68242c07d0c0e200c6451fdd,,,,,,,,,,,876.6673,877.1675,,,877.4228,877.4858,right,0.0485,,,,,,,,,0.6,,,,,,877.1675,877.4228,877.4858,878.5827,,,,,,,,0,83,83,165,1
,,,,,,,67f047016c147b1c30dbd4a4,682530bfa8ef9ff98b07117d,2025-05-14_20h09.54.791,cuing_paradigm_dot,2024.1.5,Win32,60.24096386,68242c07d0c0e200c6451fdd,,,,,,,,,,,878.5837,879.0745,,,879.3258,879.3586,left,0.0177,,,,,,,,,0.1,,,,,,879.0745,879.3258,879.3586,880.4469,,,,,,,,0,84,84,0,1
,,,,,,,67f047016c147b1c30dbd4a4,682530bfa8ef9ff98b07117d,2025-05-14_20h09.54.791,cuing_paradigm_dot,2024.1.5,Win32,60.24096386,68242c07d0c0e200c6451fdd,,,,,,,,,,,880.4474,880.9475,,,881.199,881.2667,left,0.0506,,,,,,,,,0.45,,,,,,880.9475,881.1989,881.2668,882.3698,,,,,,,,0,85,85,75,1
,,,,,,,67f047016c147b1c30dbd4a4,682530bfa8ef9ff98b07117d,2025-05-14_20h09.54.791,cuing_paradigm_dot,2024.1.5,Win32,60.24096386,68242c07d0c0e200c6451fdd,,,,,,,,,,,882.3703,882.8728,,,883.1157,883.2997,left,0.1644,,,,,,,,,0.6,,,,,,882.8728,883.1156,883.2997,884.4009,,,,,,,,0,86,86,162,1
,,,,,,,67f047016c147b1c30dbd4a4,682530bfa8ef9ff98b07117d,2025-05-14_20h09.54.791,cuing_paradigm_dot,2024.1.5,Win32,60.24096386,68242c07d0c0e200c6451fdd,,,,,,,,,,,884.4014,884.8952,,,885.1611,885.8317,left,0.6521,,,,,,,,,0.1,,,,,,884.8953,885.161,885.8318,886.9363,,,,,,,,0,87,87,9,1
,,,,,,,67f047016c147b1c30dbd4a4,682530bfa8ef9ff98b07117d,2025-05-14_20h09.54.791,cuing_paradigm_dot,2024.1.5,Win32,60.24096386,68242c07d0c0e200c6451fdd,,,,,,,,,,,886.9369,887.4381,,,887.6827,888.1398,left,0.436,,,,,,,,,0.1,,,,,,887.4381,887.6827,888.1398,889.2445,,,,,,,,0,88,88,28,1
,,,,,,,67f047016c147b1c30dbd4a4,682530bfa8ef9ff98b07117d,2025-05-14_20h09.54.791,cuing_paradigm_dot,2024.1.5,Win32,60.24096386,68242c07d0c0e200c6451fdd,,,,,,,,,,,889.245,889.745,,,890.0106,890.2315,left,0.2015,,,,,,,,,0.1,,,,,,889.745,890.0106,890.2315,891.335,,,,,,,,0,89,89,27,1
,,,,,,,67f047016c147b1c30dbd4a4,682530bfa8ef9ff98b07117d,2025-05-14_20h09.54.791,cuing_paradigm_dot,2024.1.5,Win32,60.24096386,68242c07d0c0e200c6451fdd,,,,,,,,,,,891.3354,891.8368,,,892.0836,892.3256,left,0.2257,,,,,,,,,0.4,,,,,,891.8368,892.0836,892.3257,893.4249,,,,,,,,0,90,90,38,1
,,,,,,,67f047016c147b1c30dbd4a4,682530bfa8ef9ff98b07117d,2025-05-14_20h09.54.791,cuing_paradigm_dot,2024.1.5,Win32,60.24096386,68242c07d0c0e200c6451fdd,,,,,,,,,,,893.4254,893.9264,,,894.1721,894.8734,right,0.6827,,,,,,,,,0.6,,,,,,893.9265,894.1721,894.8734,895.9669,,,,,,,,0,91,91,171,1
,,,,,,,67f047016c147b1c30dbd4a4,682530bfa8ef9ff98b07117d,2025-05-14_20h09.54.791,cuing_paradigm_dot,2024.1.5,Win32,60.24096386,68242c07d0c0e200c6451fdd,,,,,,,,,,,895.9672,896.4695,,,896.717,896.8035,right,0.068,,,,,,,,,0.45,,,,,,896.4696,896.717,896.8036,897.9045,,,,,,,,0,92,92,60,1
,,,,,,,67f047016c147b1c30dbd4a4,682530bfa8ef9ff98b07117d,2025-05-14_20h09.54.791,cuing_paradigm_dot,2024.1.5,Win32,60.24096386,68242c07d0c0e200c6451fdd,,,,,,,,,,,897.9049,898.3935,,,898.6353,898.7104,right,0.0527,,,,,,,,,0.55,,,,,,898.3935,898.6353,898.7104,899.8141,,,,,,,,0,93,93,149,1
,,,,,,,67f047016c147b1c30dbd4a4,682530bfa8ef9ff98b07117d,2025-05-14_20h09.54.791,cuing_paradigm_dot,2024.1.5,Win32,60.24096386,68242c07d0c0e200c6451fdd,,,,,,,,,,,899.8147,900.3165,,,900.5607,900.7184,right,0.1355,,,,,,,,,0.1,,,,,,900.3166,900.5607,900.7184,901.8182,,,,,,,,0,94,94,22,1
,,,,,,,67f047016c147b1c30dbd4a4,682530bfa8ef9ff98b07117d,2025-05-14_20h09.54.791,cuing_paradigm_dot,2024.1.5,Win32,60.24096386,68242c07d0c0e200c6451fdd,,,,,,,,,,,901.8186,902.3065,,,902.5576,902.6739,left,0.0998,,,,,,,,,0.45,,,,,,902.3065,902.5576,902.6739,903.7618,,,,,,,,0,95,95,87,1
,,,,,,,67f047016c147b1c30dbd4a4,682530bfa8ef9ff98b07117d,2025-05-14_20h09.54.791,cuing_paradigm_dot,2024.1.5,Win32,60.24096386,68242c07d0c0e200c6451fdd,,,,,,,,,,,903.7623,904.2637,,,904.5141,904.6146,left,0.0858,,,,,,,,,0.1,,,,,,904.2637,904.5141,904.6146,905.7034,,,,,,,,0,96,96,13,1
,,,,,,,67f047016c147b1c30dbd4a4,682530bfa8ef9ff98b07117d,2025-05-14_20h09.54.791,cuing_paradigm_dot,2024.1.5,Win32,60.24096386,68242c07d0c0e200c6451fdd,,,,,,,,,,,905.704,906.2036,,,906.4553,906.5711,left,0.0999,,,,,,,,,0.4,,,,,,906.2036,906.4553,906.5711,907.6587,,,,,,,,0,97,97,36,1
,,,,,,,67f047016c147b1c30dbd4a4,682530bfa8ef9ff98b07117d,2025-05-14_20h09.54.791,cuing_paradigm_dot,2024.1.5,Win32,60.24096386,68242c07d0c0e200c6451fdd,,,,,,,,,,,907.6593,908.153,,,908.3954,908.5444,left,0.1334,,,,,,,,,0.6,,,,,,908.1531,908.3953,908.5445,909.6486,,,,,,,,0,98,98,177,1
,,,,,,,67f047016c147b1c30dbd4a4,682530bfa8ef9ff98b07117d,2025-05-14_20h09.54.791,cuing_paradigm_dot,2024.1.5,Win32,60.24096386,68242c07d0c0e200c6451fdd,,,,,,,,,,,909.649,910.1501,,,910.4013,910.4847,right,0.069,,,,,,,,,0.45,,,,,,910.1502,910.4013,910.4848,911.5732,,,,,,,,0,99,99,81,1
,,,,,,,67f047016c147b1c30dbd4a4,682530bfa8ef9ff98b07117d,2025-05-14_20h09.54.791,cuing_paradigm_dot,2024.1.5,Win32,60.24096386,68242c07d0c0e200c6451fdd,,,,,,,,,,,911.5737,912.0749,,,912.3204,912.4596,right,0.1216,,,,,,,,,0.9,,,,,,912.075,912.3203,912.4596,913.5636,,,,,,,,0,100,100,189,1
,,,,,,,67f047016c147b1c30dbd4a4,682530bfa8ef9ff98b07117d,2025-05-14_20h09.54.791,cuing_paradigm_dot,2024.1.5,Win32,60.24096386,68242c07d0c0e200c6451fdd,,,,,,,,,,,913.5642,914.064,,,914.304,914.3733,right,0.0452,,,,,,,,,0.9,,,,,,914.064,914.304,914.3733,915.4699,,,,,,,,0,101,101,204,1
,,,,,,,67f047016c147b1c30dbd4a4,682530bfa8ef9ff98b07117d,2025-05-14_20h09.54.791,cuing_paradigm_dot,2024.1.5,Win32,60.24096386,68242c07d0c0e200c6451fdd,,,,,,,,,,,915.4704,915.9705,,,916.2226,916.4531,left,0.2015,,,,,,,,,0.4,,,,,,915.9705,916.2226,916.4532,917.5439,,,,,,,,0,102,102,50,1
,,,,,,,67f047016c147b1c30dbd4a4,682530bfa8ef9ff98b07117d,2025-05-14_20h09.54.791,cuing_paradigm_dot,2024.1.5,Win32,60.24096386,68242c07d0c0e200c6451fdd,,,,,,,,,,,917.5443,918.0451,,,918.2954,918.5802,right,0.2628,,,,,,,,,0.9,,,,,,918.0451,918.2954,918.5803,919.6865,,,,,,,,0,103,103,197,1
,,,,,,,67f047016c147b1c30dbd4a4,682530bfa8ef9ff98b07117d,2025-05-14_20h09.54.791,cuing_paradigm_dot,2024.1.5,Win32,60.24096386,68242c07d0c0e200c6451fdd,,,,,,,,,,,919.6868,920.1861,,,920.4227,920.7555,left,0.306,,,,,,,,,0.6,,,,,,920.1862,920.4227,920.7556,921.8584,,,,,,,,0,104,104,166,1
,,,,,,,67f047016c147b1c30dbd4a4,682530bfa8ef9ff98b07117d,2025-05-14_20h09.54.791,cuing_paradigm_dot,2024.1.5,Win32,60.24096386,68242c07d0c0e200c6451fdd,,,,,,,,,,,921.8589,922.3596,,,922.6235,922.7778,right,0.1348,,,,,,,,,0.45,,,,,,922.3597,922.6235,922.7778,923.8717,,,,,,,,0,105,105,82,1
,,,,,,,67f047016c147b1c30dbd4a4,682530bfa8ef9ff98b07117d,2025-05-14_20h09.54.791,cuing_paradigm_dot,2024.1.5,Win32,60.24096386,68242c07d0c0e200c6451fdd,,,,,,,,,,,923.8723,924.3661,,,924.6144,924.7681,right,0.135,,,,,,,,,0.4,,,,,,924.3663,924.6144,924.7683,925.8563,,,,,,,,0,106,106,31,1
,,,,,,,67f047016c147b1c30dbd4a4,682530bfa8ef9ff98b07117d,2025-05-14_20h09.54.791,cuing_paradigm_dot,2024.1.5,Win32,60.24096386,68242c07d0c0e200c6451fdd,,,,,,,,,,,925.8567,926.3567,,,926.6083,926.6764,right,0.054,,,,,,,,,0.9,,,,,,926.3567,926.6081,926.6764,927.7792,,,,,,,,0,107,107,191,1
,,,,,,,67f047016c147b1c30dbd4a4,682530bfa8ef9ff98b07117d,2025-05-14_20h09.54.791,cuing_paradigm_dot,2024.1.5,Win32,60.24096386,68242c07d0c0e200c6451fdd,,,,,,,,,,,927.7796,928.2804,,,928.5315,928.6318,right,0.0836,,,,,,,,,0.9,,,,,,928.2804,928.5314,928.6318,929.7371,,,,,,,,0,108,108,199,1
,,,,,,,67f047016c147b1c30dbd4a4,682530bfa8ef9ff98b07117d,2025-05-14_20h09.54.791,cuing_paradigm_dot,2024.1.5,Win32,60.24096386,68242c07d0c0e200c6451fdd,,,,,,,,,,,929.7375,930.2376,,,930.488,930.7587,left,0.2544,,,,,,,,,0.4,,,,,,930.2376,930.488,930.7588,931.8594,,,,,,,,0,109,109,59,1
,,,,,,,67f047016c147b1c30dbd4a4,682530bfa8ef9ff98b07117d,2025-05-14_20h09.54.791,cuing_paradigm_dot,2024.1.5,Win32,60.24096386,68242c07d0c0e200c6451fdd,,,,,,,,,,,931.8598,932.3621,,,932.6134,932.9134,right,0.2864,,,,,,,,,0.45,,,,,,932.3621,932.6133,932.9134,934.0168,,,,,,,,0,110,110,77,1
,,,,,,,67f047016c147b1c30dbd4a4,682530bfa8ef9ff98b07117d,2025-05-14_20h09.54.791,cuing_paradigm_dot,2024.1.5,Win32,60.24096386,68242c07d0c0e200c6451fdd,,,,,,,,,,,934.0171,934.5203,,,934.7701,935.0395,right,0.2547,,,,,,,,,0.5,,,,,,934.5203,934.77,935.0396,936.1414,,,,,,,,0,111,111,99,1
,,,,,,,67f047016c147b1c30dbd4a4,682530bfa8ef9ff98b07117d,2025-05-14_20h09.54.791,cuing_paradigm_dot,2024.1.5,Win32,60.24096386,68242c07d0c0e200c6451fdd,,,,,,,,,,,936.1418,936.643,,,936.8946,936.9957,right,0.084,,,,,,,,,0.9,,,,,,936.6431,936.8946,936.9958,938.0978,,,,,,,,0,112,112,208,1
,,,,,,,67f047016c147b1c30dbd4a4,682530bfa8ef9ff98b07117d,2025-05-14_20h09.54.791,cuing_paradigm_dot,2024.1.5,Win32,60.24096386,68242c07d0c0e200c6451fdd,,,,,,,,,,,938.0984,938.6062,,,938.8513,938.9685,right,0.101,,,,,,,,,0.5,,,,,,938.6063,938.8512,938.9685,940.0715,,,,,,,,0,113,113,102,1
,,,,,,,67f047016c147b1c30dbd4a4,682530bfa8ef9ff98b07117d,2025-05-14_20h09.54.791,cuing_paradigm_dot,2024.1.5,Win32,60.24096386,68242c07d0c0e200c6451fdd,,,,,,,,,,,940.0723,940.5731,,,940.8142,941.0098,left,0.183,,,,,,,,,0.1,,,,,,940.5731,940.8142,941.0098,942.1128,,,,,,,,0,114,114,4,1
,,,,,,,67f047016c147b1c30dbd4a4,682530bfa8ef9ff98b07117d,2025-05-14_20h09.54.791,cuing_paradigm_dot,2024.1.5,Win32,60.24096386,68242c07d0c0e200c6451fdd,,,,,,,,,,,942.1132,942.6154,,,942.8762,942.9481,left,0.0527,,,,,,,,,0.6,,,,,,942.6154,942.8761,942.9482,944.0366,,,,,,,,0,115,115,175,1
,,,,,,,67f047016c147b1c30dbd4a4,682530bfa8ef9ff98b07117d,2025-05-14_20h09.54.791,cuing_paradigm_dot,2024.1.5,Win32,60.24096386,68242c07d0c0e200c6451fdd,,,,,,,,,,,944.037,944.537,,,944.782,944.9059,right,0.0987,,,,,,,,,0.9,,,,,,944.5371,944.782,944.906,946.0093,,,,,,,,0,116,116,187,1
,,,,,,,67f047016c147b1c30dbd4a4,682530bfa8ef9ff98b07117d,2025-05-14_20h09.54.791,cuing_paradigm_dot,2024.1.5,Win32,60.24096386,68242c07d0c0e200c6451fdd,,,,,,,,,,,946.0097,946.5109,,,946.7622,946.8518,right,0.0752,,,,,,,,,0.9,,,,,,946.511,946.7621,946.8518,947.9491,,,,,,,,0,117,117,205,1
,,,,,,,67f047016c147b1c30dbd4a4,682530bfa8ef9ff98b07117d,2025-05-14_20h09.54.791,cuing_paradigm_dot,2024.1.5,Win32,60.24096386,68242c07d0c0e200c6451fdd,,,,,,,,,,,947.9496,948.451,,,948.7039,948.9871,left,0.2639,,,,,,,,,0.5,,,,,,948.451,948.7039,948.9872,950.0897,,,,,,,,0,118,118,101,1
,,,,,,,67f047016c147b1c30dbd4a4,682530bfa8ef9ff98b07117d,2025-05-14_20h09.54.791,cuing_paradigm_dot,2024.1.5,Win32,60.24096386,68242c07d0c0e200c6451fdd,,,,,,,,,,,950.0901,950.592,,,950.8435,951.3784,right,0.5194,,,,,,,,,0.9,,,,,,950.592,950.8435,951.3785,952.4817,,,,,,,,0,119,119,200,1
,,,,,,,67f047016c147b1c30dbd4a4,682530bfa8ef9ff98b07117d,2025-05-14_20h09.54.791,cuing_paradigm_dot,2024.1.5,Win32,60.24096386,68242c07d0c0e200c6451fdd,,,,,,,,,,,952.4822,952.9838,,,953.2345,953.3357,right,0.0828,,,,,,,,,0.45,,,,,,952.9838,953.2344,953.3357,954.445,,,,,,,,0,120,120,69,1
,,,,,,,67f047016c147b1c30dbd4a4,682530bfa8ef9ff98b07117d,2025-05-14_20h09.54.791,cuing_paradigm_dot,2024.1.5,Win32,60.24096386,68242c07d0c0e200c6451fdd,,,,,,,,,,,954.4456,954.9401,,,955.1916,955.3454,right,0.1359,,,,,,,,,0.45,,,,,,954.9402,955.1916,955.3454,956.4458,,,,,,,,0,121,121,88,1
,,,,,,,67f047016c147b1c30dbd4a4,682530bfa8ef9ff98b07117d,2025-05-14_20h09.54.791,cuing_paradigm_dot,2024.1.5,Win32,60.24096386,68242c07d0c0e200c6451fdd,,,,,,,,,,,956.4461,956.9374,,,957.1849,957.3163,right,0.1177,,,,,,,,,0.1,,,,,,956.9375,957.1849,957.3163,958.4202,,,,,,,,0,122,122,7,1
,,,,,,,67f047016c147b1c30dbd4a4,682530bfa8ef9ff98b07117d,2025-05-14_20h09.54.791,cuing_paradigm_dot,2024.1.5,Win32,60.24096386,68242c07d0c0e200c6451fdd,,,,,,,,,,,958.4208,958.9211,,,959.1726,959.189,left,0.0006,,,,,,,,,0.6,,,,,,958.9212,959.1726,959.1891,960.2943,,,,,,,,0,123,123,158,1
,,,,,,,67f047016c147b1c30dbd4a4,682530bfa8ef9ff98b07117d,2025-05-14_20h09.54.791,cuing_paradigm_dot,2024.1.5,Win32,60.24096386,68242c07d0c0e200c6451fdd,,,,,,,,,,,960.2948,960.7947,,,961.0452,961.3474,right,0.2876,,,,,,,,,0.45,,,,,,960.7947,961.0452,961.3474,962.4518,,,,,,,,0,124,124,79,1
,,,,,,,67f047016c147b1c30dbd4a4,682530bfa8ef9ff98b07117d,2025-05-14_20h09.54.791,cuing_paradigm_dot,2024.1.5,Win32,60.24096386,68242c07d0c0e200c6451fdd,,,,,,,,,,,962.4522,962.9517,,,963.2038,963.6709,right,0.4518,,,,,,,,,0.4,,,,,,962.9517,963.2038,963.6709,964.7585,,,,,,,,0,125,125,34,1
,,,,,,,67f047016c147b1c30dbd4a4,682530bfa8ef9ff98b07117d,2025-05-14_20h09.54.791,cuing_paradigm_dot,2024.1.5,Win32,60.24096386,68242c07d0c0e200c6451fdd,,,,,,,,,,,964.7589,965.2598,,,965.511,965.5978,right,0.0707,,,,,,,,,0.5,,,,,,965.2599,965.5109,965.5978,966.6996,,,,,,,,0,126,126,95,1
,,,,,,,67f047016c147b1c30dbd4a4,682530bfa8ef9ff98b07117d,2025-05-14_20h09.54.791,cuing_paradigm_dot,2024.1.5,Win32,60.24096386,68242c07d0c0e200c6451fdd,,,,,,,,,,,966.7,967.2014,,,967.451,967.568,right,0.1004,,,,,,,,,0.5,,,,,,967.2015,967.451,967.568,968.6742,,,,,,,,0,127,127,108,1
,,,,,,,67f047016c147b1c30dbd4a4,682530bfa8ef9ff98b07117d,2025-05-14_20h09.54.791,cuing_paradigm_dot,2024.1.5,Win32,60.24096386,68242c07d0c0e200c6451fdd,,,,,,,,,,,968.6747,969.1735,,,969.4246,969.5417,right,0.1006,,,,,,,,,0.45,,,,,,969.1736,969.4245,969.5418,970.63,,,,,,,,0,128,128,74,1
