right,left,explain.started,explain.stopped,key_resp_3.keys,key_resp_3.rt,key_resp_3.duration,participant,session,date,expName,psychopyVersion,OS,frameRate,study_id,explain_2.started,explain_2.stopped,key_resp_4.keys,key_resp_4.rt,key_resp_4.duration,explain_3.started,explain_3.stopped,key_resp_5.keys,key_resp_5.rt,key_resp_5.duration,fixation.started,fixation.stopped,practice.started,practice.stopped,response.started,response.stopped,key_resp.keys,feedback.started,feedback.stopped,trials_2.thisRepN,trials_2.thisTrialN,trials_2.thisN,trials_2.thisIndex,trials_2.ran,white_ratio,key_resp.rt,key_resp.duration,explain_4.started,explain_4.stopped,key_resp_6.keys,key_resp_6.rt,key_resp_6.duration,dotDisplay.started,dotDisplay.stopped,ITI.started,polygon_1.pos,polygon_1.color,polygon_2.pos,polygon_2.color,polygon_3.pos,polygon_3.color,polygon_4.pos,polygon_4.color,polygon_5.pos,polygon_5.color,polygon_6.pos,polygon_6.color,polygon_7.pos,polygon_7.color,polygon_8.pos,polygon_8.color,polygon_9.pos,polygon_9.color,polygon_10.pos,polygon_10.color,polygon_11.pos,polygon_11.color,polygon_12.pos,polygon_12.color,polygon_13.pos,polygon_13.color,polygon_14.pos,polygon_14.color,polygon_15.pos,polygon_15.color,polygon_16.pos,polygon_16.color,polygon_17.pos,polygon_17.color,polygon_18.pos,polygon_18.color,polygon_19.pos,polygon_19.color,polygon_20.pos,polygon_20.color,polygon_21.pos,polygon_21.color,polygon_22.pos,polygon_22.color,polygon_23.pos,polygon_23.color,polygon_24.pos,polygon_24.color,polygon_25.pos,polygon_25.color,polygon_26.pos,polygon_26.color,polygon_27.pos,polygon_27.color,polygon_28.pos,polygon_28.color,polygon_29.pos,polygon_29.color,polygon_30.pos,polygon_30.color,polygon_31.pos,polygon_31.color,polygon_32.pos,polygon_32.color,dot_size,ITI.stopped,trials.thisRepN,trials.thisTrialN,trials.thisN,trials.thisIndex,trials.ran,break_2.started,break_2.stopped,trials_3.thisRepN,trials_3.thisTrialN,trials_3.thisN,trials_3.thisIndex,trials_3.ran
subject chose white,subject chose black,0.0005,161.537,space,146.5152,,67e8891f804abbe65ff993ad,68317a63a5a38dd7eba645da,2025-05-23_23h52.39.796,cuing_paradigm_dot,2024.1.5,Win32,59.52380952,682d573fa47f1360d1451895,,,,,,,,,,,,,,,,,,,,,,,,,,,,,,,,,,,,,,,,,,,,,,,,,,,,,,,,,,,,,,,,,,,,,,,,,,,,,,,,,,,,,,,,,,,,,,,,,,,,,,,,,,,,,,,,,
,,,,,,,67e8891f804abbe65ff993ad,68317a63a5a38dd7eba645da,2025-05-23_23h52.39.796,cuing_paradigm_dot,2024.1.5,Win32,59.52380952,682d573fa47f1360d1451895,161.5378,249.0139,space,57.4573,,,,,,,,,,,,,,,,,,,,,,,,,,,,,,,,,,,,,,,,,,,,,,,,,,,,,,,,,,,,,,,,,,,,,,,,,,,,,,,,,,,,,,,,,,,,,,,,,,,,,,,,,,,,,
,,,,,,,67e8891f804abbe65ff993ad,68317a63a5a38dd7eba645da,2025-05-23_23h52.39.796,cuing_paradigm_dot,2024.1.5,Win32,59.52380952,682d573fa47f1360d1451895,,,,,,249.0144,252.196,space,0.1573,,,,,,,,,,,,,,,,,,,,,,,,,,,,,,,,,,,,,,,,,,,,,,,,,,,,,,,,,,,,,,,,,,,,,,,,,,,,,,,,,,,,,,,,,,,,,,,,,,,,,,,,
,,,,,,,67e8891f804abbe65ff993ad,68317a63a5a38dd7eba645da,2025-05-23_23h52.39.796,cuing_paradigm_dot,2024.1.5,Win32,59.52380952,682d573fa47f1360d1451895,,,,,,,,,,,252.2642,252.7127,252.7136,252.9637,252.9641,254.4623,,254.4627,255.5617,0,0,0,1,1,0.2,,,,,,,,,,,,,,,,,,,,,,,,,,,,,,,,,,,,,,,,,,,,,,,,,,,,,,,,,,,,,,,,,,,,,,,,,,,,,,,,,,,,,,,,
,,,,,,,67e8891f804abbe65ff993ad,68317a63a5a38dd7eba645da,2025-05-23_23h52.39.796,cuing_paradigm_dot,2024.1.5,Win32,59.52380952,682d573fa47f1360d1451895,,,,,,,,,,,255.563,256.0613,256.0613,256.312,256.3121,257.0449,right,257.0451,258.1442,0,1,1,0,1,0.8,0.7068,,,,,,,,,,,,,,,,,,,,,,,,,,,,,,,,,,,,,,,,,,,,,,,,,,,,,,,,,,,,,,,,,,,,,,,,,,,,,,,,,,,,,,,
,,,,,,,67e8891f804abbe65ff993ad,68317a63a5a38dd7eba645da,2025-05-23_23h52.39.796,cuing_paradigm_dot,2024.1.5,Win32,59.52380952,682d573fa47f1360d1451895,,,,,,,,,,,,,,,,,,,,,,,,,,,,258.1451,263.7932,space,2.6265,,,,,,,,,,,,,,,,,,,,,,,,,,,,,,,,,,,,,,,,,,,,,,,,,,,,,,,,,,,,,,,,,,,,,,,,,,,,,,,,,,
,,,,,,,67e8891f804abbe65ff993ad,68317a63a5a38dd7eba645da,2025-05-23_23h52.39.796,cuing_paradigm_dot,2024.1.5,Win32,59.52380952,682d573fa47f1360d1451895,,,,,,,,,,,263.8337,264.3094,,,264.5508,265.2321,left,,,,,,,,0.1,0.6669,,,,,,,264.3106,264.5507,265.2331,"[-0.03914414324528752,0.15445019202019017]","[-1,-1,-1]","[0.09821127101614696,0.13737560380132738]","[-1,-1,-1]","[0.10051284668981027,0.07550121203188052]","[-1,-1,-1]","[0.023508526659277402,0.1547562665793487]","[-1,-1,-1]","[-0.14993265563565922,-0.11646102828193929]","[-1,-1,-1]","[0.020299001876323136,-0.02722888843767897]","[-1,-1,-1]","[-0.06532983832384823,-0.1497245073978337]","[-1,-1,-1]","[-0.1720814796100587,0.0743428983704246]","[-1,-1,-1]","[-0.044684463146773226,0.0886560121968952]","[-1,-1,-1]","[0.17359612327093518,0.08018470790043664]","[-1,-1,-1]","[0.0032874958392948394,0.056025902636822396]","[-1,-1,-1]","[0.09213118070411513,-0.04008027135055729]","[-1,-1,-1]","[-0.12412225116100374,-0.059356951103991154]","[-1,-1,-1]","[0.15567722328016553,-0.08843046984580863]","[-1,-1,-1]","[0.043257445162739834,-0.08949764130651752]","[-1,-1,-1]","[-0.07029515102068379,-0.024159689644515127]","[1,1,1]","[-0.09053709897859617,0.16492869822350925]","[-1,-1,-1]","[-0.0007061597160483795,-0.1226860498404816]","[1,1,1]","[-0.1801240077394474,-0.07855040186746982]","[-1,-1,-1]","[0.18760564289137316,-0.017287364909622596]","[-1,-1,-1]","[-0.09402565412323,0.076672432788405]","[-1,-1,-1]","[-0.17567087793964298,-0.019845002155696206]","[-1,-1,-1]","[-0.023698710242761448,0.02609048626070122]","[-1,-1,-1]","[-0.1302627418385371,0.13262158816590758]","[-1,-1,-1]","[0.04470985910433419,-0.1524938918107123]","[-1,-1,-1]","[0.030587273048046208,0.10061599736059657]","[-1,-1,-1]","[0.07177292834839924,0.012252309693286669]","[-1,-1,-1]","[-0.08178067744273973,-0.08770965561947941]","[-1,-1,-1]","[-0.0253622512353726,-0.04034414651633354]","[-1,-1,-1]","[0.08773666117758985,-0.08889471838144153]","[1,1,1]","[0.059046280251267874,0.1864158554548285]","[-1,-1,-1]","[0.13333389995480416,0.04845183957289314]","[-1,-1,-1]","[0.02,0.02]",266.3318,0,0,0,2,1,,,,,,,
,,,,,,,67e8891f804abbe65ff993ad,68317a63a5a38dd7eba645da,2025-05-23_23h52.39.796,cuing_paradigm_dot,2024.1.5,Win32,59.52380952,682d573fa47f1360d1451895,,,,,,,,,,,266.3327,266.831,,,267.0817,267.4086,right,,,,,,,,0.9,0.3021,,,,,,,266.8311,267.0817,267.4087,"[0.06537453466633825,0.010156143617081847]","[1,1,1]","[-0.022465566335325832,-0.054873186696210344]","[1,1,1]","[0.15410428048396071,0.02830974977365524]","[1,1,1]","[-0.1769203367154848,-0.057509067596023054]","[1,1,1]","[0.043837010523942774,-0.039098252809062935]","[1,1,1]","[-0.04870564548410296,0.15346174857868078]","[1,1,1]","[-0.08999462720255194,-0.1260113075896409]","[1,1,1]","[-0.04134748950046859,-0.00798783273507916]","[1,1,1]","[0.01866570714079661,0.01406656468433173]","[1,1,1]","[0.002555812859641463,0.09545528936694084]","[1,1,1]","[-0.05773885622521727,-0.0809158055767431]","[1,1,1]","[0.08207146153445853,0.1672975467759967]","[1,1,1]","[-0.01359016369301953,-0.13257347007526912]","[1,1,1]","[0.09958506110244039,-0.1251187352012161]","[1,1,1]","[0.051118867962135876,-0.1554534119266358]","[1,1,1]","[0.08569179573829401,0.0720553269937086]","[1,1,1]","[-0.11336063037038234,0.10729504395194725]","[1,1,1]","[0.1522612031327366,0.11770163068502265]","[1,1,1]","[0.1746031981814254,-0.08870558409829478]","[1,1,1]","[-0.1793325346019011,-0.004467637011365868]","[1,1,1]","[0.10255569340577475,0.11347362368422315]","[1,1,1]","[0.028079729622098683,0.061572372852435]","[-1,-1,-1]","[-0.09788096864512515,0.05303323907674099]","[1,1,1]","[0.022432605352633923,0.18068283638135496]","[1,1,1]","[-0.05007422853911794,-0.15901377618631773]","[1,1,1]","[0.020302849388028812,-0.08168289582020881]","[-1,-1,-1]","[-0.13027791018002347,-0.08151675423757532]","[1,1,1]","[-0.1539594955755936,-0.12424480200112768]","[1,1,1]","[0.10866992778539866,-0.07973213167040617]","[1,1,1]","[-0.15516317847212163,0.04819137814035014]","[1,1,1]","[0.17198144868595844,-0.04208471576442725]","[1,1,1]","[-0.0030785974518795513,0.13832635712118693]","[-1,-1,-1]","[0.02,0.02]",268.5083,0,1,1,202,1,,,,,,,
,,,,,,,67e8891f804abbe65ff993ad,68317a63a5a38dd7eba645da,2025-05-23_23h52.39.796,cuing_paradigm_dot,2024.1.5,Win32,59.52380952,682d573fa47f1360d1451895,,,,,,,,,,,268.5091,269.0083,,,269.2597,269.9912,left,,,,,,,,0.5,0.7108,,,,,,,269.0083,269.2597,269.9913,"[-0.04376266272313418,0.10456960858572002]","[-1,-1,-1]","[-0.04335962663264881,-0.06168793786570687]","[-1,-1,-1]","[0.0480157600315969,-0.15044312111411023]","[-1,-1,-1]","[-0.19921562228023665,0.006095511089608705]","[-1,-1,-1]","[0.07490803508263678,-0.04555598052363986]","[-1,-1,-1]","[-0.08711599399186737,-0.14555556012424917]","[1,1,1]","[0.10614307723094137,0.15304889404061062]","[-1,-1,-1]","[-0.045863427001309125,0.06002015689768792]","[1,1,1]","[0.11721309181052066,-0.039584891887465314]","[1,1,1]","[0.10298889865294912,-0.1560730104591918]","[-1,-1,-1]","[0.035599167028520735,0.17776995938541973]","[1,1,1]","[-0.13256342546345265,-0.04294696254895882]","[1,1,1]","[-0.12728397770782665,-0.09062166467119323]","[1,1,1]","[-0.07198893232653317,0.1706503399497654]","[1,1,1]","[-0.13425347687627973,0.03118775918338527]","[1,1,1]","[0.15025217057469728,0.07720146974536946]","[-1,-1,-1]","[-0.02619138122850158,-0.11876551809367496]","[-1,-1,-1]","[0.12186577353569564,0.020600279072245025]","[-1,-1,-1]","[-0.1401754422215864,0.07613353481595028]","[-1,-1,-1]","[-0.022233805162542582,-0.1753335363663884]","[1,1,1]","[-0.07061001226028249,0.012682599084394819]","[1,1,1]","[-0.037227044484413795,0.19527090188475135]","[1,1,1]","[-0.0023701713345113673,0.004235744869310158]","[1,1,1]","[0.030523012682690004,0.08029089157472134]","[1,1,1]","[0.1384853668473921,-0.11121227663443911]","[1,1,1]","[0.06535155272939082,0.10072360318969183]","[-1,-1,-1]","[-0.1884838750409131,0.04640256258595416]","[-1,-1,-1]","[0.029073691635365124,-0.027138675025149613]","[1,1,1]","[-0.1807311836244291,-0.032041491336980414]","[1,1,1]","[0.08205257662784586,0.03432113492199234]","[-1,-1,-1]","[-0.08547923048330032,-0.03193114573219178]","[-1,-1,-1]","[0.04025136653253682,0.03965390231965509]","[-1,-1,-1]","[0.02,0.02]",271.0911,0,2,2,109,1,,,,,,,
,,,,,,,67e8891f804abbe65ff993ad,68317a63a5a38dd7eba645da,2025-05-23_23h52.39.796,cuing_paradigm_dot,2024.1.5,Win32,59.52380952,682d573fa47f1360d1451895,,,,,,,,,,,271.0919,271.5912,,,271.8415,272.0576,right,,,,,,,,0.5,0.1853,,,,,,,271.5913,271.8413,272.0576,"[-0.09723670602540774,-0.019874471789628707]","[1,1,1]","[0.04651651711575525,-0.08856636055572946]","[1,1,1]","[-0.09622833948019655,0.05733733454936459]","[-1,-1,-1]","[0.08912430161463157,-0.1514277387307376]","[1,1,1]","[0.17731612825704793,-0.08523914865421381]","[-1,-1,-1]","[0.04672156663930938,0.08314816980306665]","[-1,-1,-1]","[0.08697894446920813,0.15818954054987133]","[1,1,1]","[-0.07785382936012102,-0.15654390571069615]","[1,1,1]","[0.12764229757123705,0.02649098738626228]","[1,1,1]","[-0.13683348690966848,-0.03798424313855965]","[-1,-1,-1]","[-0.12195738781383807,0.1361061005452884]","[-1,-1,-1]","[-0.07017217524933443,-0.11470116721459059]","[1,1,1]","[-0.012532505728924535,-0.19392697681124066]","[1,1,1]","[0.022346516454978236,-0.12201005102697732]","[1,1,1]","[-0.11252733206161879,-0.11838201860784864]","[1,1,1]","[-0.020404954513357925,-0.12894724553773926]","[-1,-1,-1]","[-0.08553990086251502,-0.06523464042658902]","[1,1,1]","[0.11985064327757794,0.1167623350427141]","[-1,-1,-1]","[-0.05136415835319812,0.036052133042073525]","[1,1,1]","[0.0003776498842343553,0.05870381497756483]","[-1,-1,-1]","[0.10690142486746841,-0.08180611383894155]","[-1,-1,-1]","[0.04855321362615329,0.16945695997066973]","[-1,-1,-1]","[0.0572002448349621,-0.03572607333547911]","[-1,-1,-1]","[-0.022615814054705426,0.16712394529976324]","[-1,-1,-1]","[0.1905598177841116,-0.030516195002520976]","[-1,-1,-1]","[0.17812714976263416,0.025727671496113578]","[1,1,1]","[-0.1815594723909259,-0.08254557311159372]","[1,1,1]","[-0.055293092967413075,-0.02452298844487684]","[-1,-1,-1]","[0.010117870498043146,0.12863606030821273]","[-1,-1,-1]","[-0.08969485204094983,0.16951111058924756]","[1,1,1]","[0.097362781089774,0.05720328257539447]","[-1,-1,-1]","[-0.17796372347686265,0.04529230314443558]","[1,1,1]","[0.02,0.02]",273.1574,0,3,3,105,1,,,,,,,
,,,,,,,67e8891f804abbe65ff993ad,68317a63a5a38dd7eba645da,2025-05-23_23h52.39.796,cuing_paradigm_dot,2024.1.5,Win32,59.52380952,682d573fa47f1360d1451895,,,,,,,,,,,273.1585,273.6571,,,273.908,274.4901,right,,,,,,,,0.55,0.5556,,,,,,,273.6572,273.9079,274.4902,"[-0.09525376103891774,0.11828030134366319]","[-1,-1,-1]","[0.13962666926639722,0.04879130412092557]","[1,1,1]","[-0.1860398510384848,-0.025389783821122287]","[-1,-1,-1]","[-0.14034000276410372,0.11048151665291944]","[1,1,1]","[-0.03186646077063056,0.10163477993261916]","[1,1,1]","[0.035559339398027176,0.004919256954546298]","[1,1,1]","[0.09501312109618082,-0.08323930504827536]","[-1,-1,-1]","[0.043404650435187216,0.06133087763853608]","[-1,-1,-1]","[0.18812259421994804,-0.03187125259327382]","[-1,-1,-1]","[-0.17539303969910694,0.06108858115292799]","[-1,-1,-1]","[-0.001057718030865981,-0.15767595958591687]","[1,1,1]","[-0.09735524860829058,-0.09871008809195708]","[1,1,1]","[-0.0103589572049917,-0.08717752152183526]","[1,1,1]","[-0.03130561584585219,0.03597969363871259]","[-1,-1,-1]","[-0.03513028196699992,-0.054833008503989256]","[1,1,1]","[0.055495712523220254,0.16807808145577982]","[1,1,1]","[-0.11858646704602903,-0.14279594089441805]","[1,1,1]","[0.1860824870855925,0.018295464619206295]","[-1,-1,-1]","[0.053107817611125194,-0.17496166707045466]","[-1,-1,-1]","[-0.04595220291355253,-0.18871030733067728]","[-1,-1,-1]","[-0.10218531040549535,0.007234161739976227]","[-1,-1,-1]","[0.04412891528272279,-0.044998771011743564]","[1,1,1]","[-0.17267579203808764,0.015983397319876046]","[1,1,1]","[-0.12880820221576678,0.0432295741455444]","[1,1,1]","[0.01285101227081184,0.11771212747650617]","[-1,-1,-1]","[-0.05053513416440951,0.1920440939020398]","[1,1,1]","[-0.07527594556921204,-0.13465957648747948]","[-1,-1,-1]","[0.12588782799159529,-0.010164761334296089]","[1,1,1]","[-0.08652042267309469,-0.03923407928446213]","[-1,-1,-1]","[-0.14152444361924774,-0.10764267146494844]","[1,1,1]","[0.0944631465979435,0.15861394370522716]","[1,1,1]","[0.07892499338773709,-0.023689596755325393]","[1,1,1]","[0.02,0.02]",275.5901,0,4,4,133,1,,,,,,,
,,,,,,,67e8891f804abbe65ff993ad,68317a63a5a38dd7eba645da,2025-05-23_23h52.39.796,cuing_paradigm_dot,2024.1.5,Win32,59.52380952,682d573fa47f1360d1451895,,,,,,,,,,,275.5909,276.0896,,,276.3405,276.7897,left,,,,,,,,0.5,0.4177,,,,,,,276.0897,276.3404,276.7897,"[-0.17107324794001852,0.03716503278572833]","[1,1,1]","[-0.10916876976150998,-0.16100467189637796]","[-1,-1,-1]","[-0.05802643559449835,-0.1616444268638714]","[1,1,1]","[0.12495383106371674,-0.15574201911544902]","[1,1,1]","[0.09387802648610516,0.09581288748270408]","[1,1,1]","[0.1754812489383668,-0.051561442262913]","[1,1,1]","[-0.003291422191156691,-0.1087510644027202]","[-1,-1,-1]","[0.005587861806409188,0.07337152164970509]","[1,1,1]","[-0.0673864165122139,0.17520701750022946]","[1,1,1]","[0.059835386754916634,-0.16780444708516373]","[1,1,1]","[0.06255950789796091,0.06094300107924316]","[-1,-1,-1]","[-0.004080559854180981,-0.1620221125791983]","[-1,-1,-1]","[-0.0845177300835182,-0.07741033139769922]","[-1,-1,-1]","[-0.1341186137333479,0.13696374393547733]","[1,1,1]","[0.12321194670530937,0.03216286221541559]","[-1,-1,-1]","[-0.09845099079224393,-0.01788178162684476]","[-1,-1,-1]","[-0.16179096003942892,-0.04692480625472891]","[-1,-1,-1]","[-0.12649984199792705,0.07228396884576148]","[-1,-1,-1]","[0.07474623719221195,-0.013609390042776224]","[1,1,1]","[-0.14402659650760247,-0.13407640865460543]","[-1,-1,-1]","[-0.07920871880196818,0.08947331493494877]","[-1,-1,-1]","[-0.045352564434612636,0.03962740280117021]","[-1,-1,-1]","[0.058848824848791774,0.11818778891967426]","[1,1,1]","[0.01737993883635922,0.00046016296348279796]","[-1,-1,-1]","[-0.006836722329226477,-0.034946735204056396]","[-1,-1,-1]","[-0.014154371192853241,0.1083175660231247]","[1,1,1]","[0.042265916691117546,-0.09073510188025305]","[1,1,1]","[0.128594272834496,-0.020117375920143798]","[-1,-1,-1]","[-0.04121523737126994,-0.06564248621509443]","[1,1,1]","[-0.11731248991008583,-0.10281207380172523]","[1,1,1]","[0.1338949482186104,-0.0704014001993955]","[-1,-1,-1]","[0.1900493323926071,0.00029281979751737976]","[1,1,1]","[0.02,0.02]",277.8898,0,5,5,111,1,,,,,,,
,,,,,,,67e8891f804abbe65ff993ad,68317a63a5a38dd7eba645da,2025-05-23_23h52.39.796,cuing_paradigm_dot,2024.1.5,Win32,59.52380952,682d573fa47f1360d1451895,,,,,,,,,,,277.891,278.3894,,,278.6399,279.1391,right,,,,,,,,0.5,0.4686,,,,,,,278.3894,278.6398,279.1391,"[0.13765362997943179,0.07183270012138283]","[-1,-1,-1]","[-0.08559319003699331,-0.021275556715569563]","[-1,-1,-1]","[-0.017910245202662895,-0.04569101693145225]","[-1,-1,-1]","[0.13092097077214856,-0.09731511103660032]","[1,1,1]","[0.08898962986767293,-0.16962555591463924]","[-1,-1,-1]","[-0.018684420042925236,0.06688986193192517]","[1,1,1]","[-0.0774923590701323,0.04804964489537101]","[1,1,1]","[-0.03646560306927944,0.008204461031183155]","[1,1,1]","[-0.1322282351677975,0.0973377840660866]","[-1,-1,-1]","[0.07676437253187668,0.15936982097813948]","[1,1,1]","[0.07698025016954316,-0.008318313587249923]","[1,1,1]","[0.1250780655245604,0.11284039705362416]","[-1,-1,-1]","[0.010763175153124386,-0.17860598943458353]","[1,1,1]","[0.16197458317800054,-0.034407985926873406]","[1,1,1]","[0.07642786244113275,-0.1312842438005125]","[-1,-1,-1]","[-0.0287870166517683,0.17598388080392394]","[1,1,1]","[-0.07205018189546447,0.15805459512789694]","[-1,-1,-1]","[-0.02784460996219545,-0.09188822109687864]","[1,1,1]","[0.03555330504821748,0.05086384861908162]","[-1,-1,-1]","[-0.13904522178622605,0.03831071623377004]","[-1,-1,-1]","[-0.1467623010837108,-0.02272615692924574]","[-1,-1,-1]","[-0.05421711590851662,0.09172949341801147]","[1,1,1]","[0.021286161056550998,0.18665550427976269]","[1,1,1]","[0.01729366904789676,0.0009952852644512648]","[1,1,1]","[0.04888249557628805,-0.06250160376935705]","[-1,-1,-1]","[-0.1666604050781411,0.07103935838806022]","[-1,-1,-1]","[-0.11316596118045517,-0.15057278584856804]","[1,1,1]","[0.015842657146146057,0.0908935916397901]","[-1,-1,-1]","[0.12126910675931799,-0.13834996896173046]","[1,1,1]","[0.1128706641514422,0.036788420591320765]","[-1,-1,-1]","[0.08982647432104048,-0.05711150530616607]","[1,1,1]","[-0.18546988257333963,-0.05887125121028045]","[-1,-1,-1]","[0.02,0.02]",280.2388,0,6,6,100,1,,,,,,,
,,,,,,,67e8891f804abbe65ff993ad,68317a63a5a38dd7eba645da,2025-05-23_23h52.39.796,cuing_paradigm_dot,2024.1.5,Win32,59.52380952,682d573fa47f1360d1451895,,,,,,,,,,,280.2395,280.7389,,,280.9895,281.6884,right,,,,,,,,0.1,0.6677,,,,,,,280.739,280.9893,281.6885,"[-0.1394085897851367,0.03687065531214542]","[-1,-1,-1]","[0.16505888675631653,0.07635131904734661]","[-1,-1,-1]","[0.12017757678723497,-0.11046023114547258]","[-1,-1,-1]","[0.018778150350159457,0.029614066680209796]","[-1,-1,-1]","[0.12117916298265193,0.0024499386482918647]","[-1,-1,-1]","[0.04881831426284481,-0.052335674872732815]","[-1,-1,-1]","[-0.10986997314104613,0.10508822269698165]","[-1,-1,-1]","[-0.041842200297964996,-0.004287958465082237]","[-1,-1,-1]","[-0.024409472027056237,-0.1002921556455305]","[-1,-1,-1]","[0.06988405997621502,-0.10703237090298805]","[-1,-1,-1]","[-0.08073452565467608,-0.1591621838736093]","[1,1,1]","[0.12581979461032675,-0.04795549762184009]","[-1,-1,-1]","[-0.053331284695945856,0.1203869256533945]","[-1,-1,-1]","[0.10185491566400486,0.08191467552010874]","[-1,-1,-1]","[0.03857290647966601,-0.1830673113913826]","[-1,-1,-1]","[-0.12901948257331253,-0.011764722068818224]","[-1,-1,-1]","[-0.028118151218113622,-0.17540481033808575]","[-1,-1,-1]","[0.17617596488654996,-0.05330342772488201]","[-1,-1,-1]","[0.06762640143635677,0.049851155758756774]","[-1,-1,-1]","[0.015621189369641367,-0.07474091232020623]","[-1,-1,-1]","[-0.18490763865922089,-0.013713216425212945]","[-1,-1,-1]","[-0.009164799009268912,0.17057828795101693]","[-1,-1,-1]","[-0.0936346444018976,0.008948565955879725]","[-1,-1,-1]","[-0.0039082687345309034,-0.01841699512920539]","[1,1,1]","[-0.07040199439292875,0.04447478246555092]","[-1,-1,-1]","[0.07569044315368462,-0.004269463823654226]","[-1,-1,-1]","[-0.1443072600227215,-0.1030158648814476]","[1,1,1]","[0.10558671786268674,-0.14776391154679733]","[-1,-1,-1]","[0.005536576480865362,-0.13240387848767504]","[-1,-1,-1]","[0.06457569988161124,0.1620340660051095]","[-1,-1,-1]","[0.16408876214834425,0.026098551260604612]","[-1,-1,-1]","[0.0039019161878489895,0.08288520182807632]","[-1,-1,-1]","[0.02,0.02]",282.7882,0,7,7,3,1,,,,,,,
,,,,,,,67e8891f804abbe65ff993ad,68317a63a5a38dd7eba645da,2025-05-23_23h52.39.796,cuing_paradigm_dot,2024.1.5,Win32,59.52380952,682d573fa47f1360d1451895,,,,,,,,,,,282.7888,283.2883,,,283.5389,283.9381,right,,,,,,,,0.1,0.3716,,,,,,,283.2883,283.5388,283.9381,"[0.07109537361021179,0.12373254972081842]","[-1,-1,-1]","[0.07464598550084658,-0.08079459719214926]","[-1,-1,-1]","[0.1528732678569413,0.10099527389808503]","[-1,-1,-1]","[0.1679248316836476,-0.07622893840398706]","[-1,-1,-1]","[0.014146516990754742,-0.02032209618853322]","[-1,-1,-1]","[-0.10069603052890748,-0.0901187468151077]","[-1,-1,-1]","[-0.01783713740088711,0.03194622136551961]","[-1,-1,-1]","[-0.10184673195237098,-0.009513180390544452]","[-1,-1,-1]","[-0.06172746705622837,-0.16252036816981588]","[-1,-1,-1]","[0.12640173915170252,-0.06795757285058354]","[-1,-1,-1]","[0.08265320006129538,0.03358070083595148]","[-1,-1,-1]","[-0.10520346927018591,0.08903413354242663]","[-1,-1,-1]","[-0.14885926088951437,0.089113777911504]","[-1,-1,-1]","[-0.10971898417733011,0.1333000822881099]","[-1,-1,-1]","[-0.1534370630506701,-0.08788013738699432]","[-1,-1,-1]","[0.11872240477402285,0.14629520685194053]","[1,1,1]","[-0.03541544845380095,-0.06139086880296415]","[-1,-1,-1]","[-0.1877133468563514,0.05730212010471555]","[1,1,1]","[-0.0034972320582076456,0.08421507141274115]","[-1,-1,-1]","[0.04619924273676308,-0.1686920538340098]","[-1,-1,-1]","[0.15081099609157952,0.05806944313853288]","[-1,-1,-1]","[-0.00550076489206629,0.14386572994304384]","[1,1,1]","[0.028661083842288358,0.05053234589988642]","[-1,-1,-1]","[-0.04288198576485564,0.09161440149198394]","[-1,-1,-1]","[0.043182962916762484,-0.12219831067523355]","[-1,-1,-1]","[-0.18565915971129945,-0.02614007975099696]","[-1,-1,-1]","[0.10444125522319402,-0.14772554221234463]","[-1,-1,-1]","[0.03611555787142806,0.09168834090009045]","[-1,-1,-1]","[0.07955395347132696,0.17005372667042615]","[-1,-1,-1]","[-0.133763245292363,0.02719732877418607]","[-1,-1,-1]","[-0.05536177632578263,0.19021501431998236]","[-1,-1,-1]","[-0.06710081367006004,0.03530734908068916]","[-1,-1,-1]","[0.02,0.02]",285.0376,0,8,8,17,1,,,,,,,
,,,,,,,67e8891f804abbe65ff993ad,68317a63a5a38dd7eba645da,2025-05-23_23h52.39.796,cuing_paradigm_dot,2024.1.5,Win32,59.52380952,682d573fa47f1360d1451895,,,,,,,,,,,285.0381,285.5377,,,285.7885,286.3547,left,,,,,,,,0.4,0.5392,,,,,,,285.5378,285.7885,286.3549,"[0.097486822923165,-0.060125404703910826]","[-1,-1,-1]","[0.18236874748960194,0.008433510492102586]","[-1,-1,-1]","[-0.06849008162263877,-0.09273709978357464]","[-1,-1,-1]","[-0.07439982612233018,0.011070346502484615]","[1,1,1]","[-0.002083371804290109,-0.17878558240752376]","[-1,-1,-1]","[-0.06725903910094203,0.09919529628221145]","[1,1,1]","[0.12138863453324754,0.08007059141618829]","[-1,-1,-1]","[0.004806805408651034,0.06764317260676074]","[1,1,1]","[0.0132780769424017,0.005160004820600531]","[1,1,1]","[-0.024385349295385203,-0.1166679396604511]","[1,1,1]","[0.044944262195021074,0.13241933001026643]","[-1,-1,-1]","[-0.09988849480526023,0.12642641964476922]","[-1,-1,-1]","[-0.12987608835737402,0.008317385907951409]","[1,1,1]","[-0.14475368762537297,-0.049447333329829146]","[1,1,1]","[-0.1019765629594089,0.05390076222296408]","[1,1,1]","[0.03590655640282118,-0.16614498230089786]","[1,1,1]","[0.09250283812628726,0.12940267398530939]","[-1,-1,-1]","[0.022402156806255263,-0.1254015887557516]","[-1,-1,-1]","[0.04914317205360417,0.06921467865478685]","[-1,-1,-1]","[-0.03656185178783012,-0.0023025184831500342]","[1,1,1]","[0.1943592382112571,-0.04664545927882361]","[-1,-1,-1]","[0.1390022080611258,-0.04668471219691171]","[1,1,1]","[-0.09657465444299329,-0.04110180881795052]","[1,1,1]","[0.09654449543969817,0.02903884305888132]","[-1,-1,-1]","[-0.025584695824203682,0.18078557331723857]","[-1,-1,-1]","[-0.11370300363291186,-0.08925854654663355]","[-1,-1,-1]","[0.08242594031191096,-0.16585466868101628]","[-1,-1,-1]","[0.10563198314182441,-0.10562262837320395]","[1,1,1]","[-0.029776041811511566,0.04326021086099778]","[-1,-1,-1]","[0.016850566885196226,-0.06768911065892742]","[-1,-1,-1]","[-0.04609321340914083,-0.19448193334382566]","[-1,-1,-1]","[0.06416454830621057,-0.02985933429553382]","[-1,-1,-1]","[0.02,0.02]",287.4538,0,9,9,57,1,,,,,,,
,,,,,,,67e8891f804abbe65ff993ad,68317a63a5a38dd7eba645da,2025-05-23_23h52.39.796,cuing_paradigm_dot,2024.1.5,Win32,59.52380952,682d573fa47f1360d1451895,,,,,,,,,,,287.4544,287.9535,,,288.2049,289.0704,right,,,,,,,,0.55,0.8345,,,,,,,287.9535,288.2049,289.0706,"[0.1137807425099992,-0.153478246479122]","[-1,-1,-1]","[0.1793758567868578,-0.03376541316257509]","[1,1,1]","[0.06886928015574176,0.10060070146817396]","[-1,-1,-1]","[-0.022112455284028193,0.15492985408292537]","[1,1,1]","[-0.01052801171542075,0.04243151158630955]","[-1,-1,-1]","[-0.14762920679813307,-0.09478873950692022]","[-1,-1,-1]","[0.1367745766826193,0.1091751586604136]","[-1,-1,-1]","[-0.1759839243698346,0.04812341318413845]","[1,1,1]","[0.14510927919074915,0.030403851623774385]","[1,1,1]","[0.05547340296837356,0.016767640857272847]","[1,1,1]","[-0.08910869520614427,-0.13099676223992743]","[-1,-1,-1]","[0.08995475484713344,-0.07896263231453131]","[1,1,1]","[-0.009508152371070389,-0.13043746904818815]","[1,1,1]","[-0.15248866513277062,-0.03043994844925392]","[1,1,1]","[-0.07237516238743624,0.07395753201902684]","[1,1,1]","[0.049724026992271096,-0.11396312989439407]","[-1,-1,-1]","[0.16395736015927453,-0.11309623342758178]","[1,1,1]","[-0.18649761243186364,-0.0034116952209591643]","[1,1,1]","[0.10654550506801846,0.05015238584985416]","[-1,-1,-1]","[-0.046145154449026414,-0.1632835091939617]","[1,1,1]","[-0.13970033454608102,0.12029972599677909]","[-1,-1,-1]","[-0.00788031116701769,0.10909302802419656]","[-1,-1,-1]","[0.01523197660201886,0.17976718762320967]","[-1,-1,-1]","[-0.11406102814078806,-0.008184841446224866]","[-1,-1,-1]","[0.06983027249711116,-0.17547649879548352]","[-1,-1,-1]","[-0.012513099214447288,-0.08731440779336727]","[1,1,1]","[-0.07139331178958806,-0.06410548095550662]","[1,1,1]","[0.07298346273247702,0.16403921294566975]","[1,1,1]","[-0.17455391951938515,0.09663119790849008]","[1,1,1]","[0.10655068848289664,0.0027826690072566608]","[-1,-1,-1]","[-0.0986048778161555,0.033838000395640395]","[1,1,1]","[-0.07990726583035433,0.18042979170834703]","[1,1,1]","[0.02,0.02]",290.1698,0,10,10,122,1,,,,,,,
,,,,,,,67e8891f804abbe65ff993ad,68317a63a5a38dd7eba645da,2025-05-23_23h52.39.796,cuing_paradigm_dot,2024.1.5,Win32,59.52380952,682d573fa47f1360d1451895,,,,,,,,,,,290.1706,290.6696,,,290.9207,291.8193,right,,,,,,,,0.5,0.873,,,,,,,290.6697,290.9206,291.8193,"[-0.07903782143899503,0.03240345888038709]","[-1,-1,-1]","[0.10911397085030908,0.1561380700911535]","[1,1,1]","[0.09149051373641465,0.08658295391661276]","[-1,-1,-1]","[-0.07233112958975749,-0.15000463191136076]","[1,1,1]","[0.049322540860755576,-0.013516863838548781]","[-1,-1,-1]","[-0.12061608617925942,-0.03188002878569226]","[-1,-1,-1]","[-0.05354662513759785,0.18015661962472443]","[1,1,1]","[0.1495013813570175,0.12083501430837368]","[1,1,1]","[0.18452236828912277,-0.06275503040752124]","[-1,-1,-1]","[0.1580532675039182,-0.025572798886504367]","[-1,-1,-1]","[-0.08132876331512998,0.11546642011001909]","[-1,-1,-1]","[-0.020979683082591568,-0.039162954221990294]","[1,1,1]","[0.11111015430201625,-0.15560701985620642]","[1,1,1]","[0.009083091889488906,-0.14334016367218166]","[1,1,1]","[-0.1469575724482606,0.07703010089799231]","[1,1,1]","[0.09217714992259973,-0.05376270393687922]","[-1,-1,-1]","[-0.183278482791803,0.004033985214162315]","[-1,-1,-1]","[0.02560673771281401,0.045394056690539704]","[1,1,1]","[-0.10513193725839448,-0.07185503121006458]","[1,1,1]","[-0.17123857055387806,-0.041958858983203444]","[1,1,1]","[0.05018114187375354,-0.1100587850674929]","[-1,-1,-1]","[-0.028848076509574685,-0.15919416455848182]","[-1,-1,-1]","[0.03194912669016363,0.1699259711861163]","[1,1,1]","[-0.07854561510508631,-0.02534270092906217]","[-1,-1,-1]","[0.15409955368092396,-0.12671460403657975]","[1,1,1]","[-0.035701749875142935,0.1385064611197671]","[-1,-1,-1]","[-0.044081969818950996,-0.08563519616083966]","[-1,-1,-1]","[0.027695254963910156,-0.18208921061572766]","[-1,-1,-1]","[0.13986529624615618,0.013767885156386567]","[1,1,1]","[-0.012159705778230646,0.1841257864196521]","[1,1,1]","[0.10682966474151039,-0.0920932778463571]","[-1,-1,-1]","[0.06915012395698461,0.03795615029394189]","[1,1,1]","[0.02,0.02]",292.919,0,11,11,110,1,,,,,,,
,,,,,,,67e8891f804abbe65ff993ad,68317a63a5a38dd7eba645da,2025-05-23_23h52.39.796,cuing_paradigm_dot,2024.1.5,Win32,59.52380952,682d573fa47f1360d1451895,,,,,,,,,,,292.9195,293.419,,,293.6703,294.402,right,,,,,,,,0.55,0.7084,,,,,,,293.419,293.6702,294.4021,"[0.13388729149345124,-0.01740380357525206]","[1,1,1]","[0.0456831382448885,-0.07828726972781702]","[1,1,1]","[0.08940540981783895,0.13529821539453943]","[-1,-1,-1]","[0.10003484828945264,-0.10091347960597494]","[1,1,1]","[0.03341120752506032,0.030772444094826823]","[1,1,1]","[-0.03486191682849667,-0.11985112475922088]","[-1,-1,-1]","[-0.0696622282164141,0.18674151315336904]","[-1,-1,-1]","[0.008817415318325486,0.08962537214421377]","[1,1,1]","[-0.0395776915074448,0.14438307209611498]","[-1,-1,-1]","[0.15284092845384376,-0.06167102595825365]","[1,1,1]","[0.1353462000952788,-0.13393657703565884]","[-1,-1,-1]","[-0.001083135903222643,-0.14738784937008087]","[1,1,1]","[-0.1745433464231647,-0.07583788887714978]","[1,1,1]","[0.1738445345122936,0.03902227428884794]","[1,1,1]","[-0.17602065966365343,0.03556966115167464]","[-1,-1,-1]","[0.15964917146676638,0.07646422681654862]","[1,1,1]","[-0.08978326515877844,-0.016798355692949483]","[1,1,1]","[-0.10005876786016274,-0.11890415025419769]","[-1,-1,-1]","[0.04729221762495856,-0.03144658165548532]","[-1,-1,-1]","[-0.10455534423384047,0.046829601705837914]","[-1,-1,-1]","[-0.05981445698635695,-0.057035771262903164]","[1,1,1]","[-0.16137961368824869,0.08432269106881812]","[-1,-1,-1]","[0.1018075474535332,0.06252870574565668]","[-1,-1,-1]","[0.11817509950510798,0.10063112425269864]","[1,1,1]","[-0.028607391670303503,0.0016775713020360599]","[1,1,1]","[-0.17512550141567257,-0.00936777149984718]","[-1,-1,-1]","[0.05135163007111794,-0.16047489237196358]","[1,1,1]","[0.016635298916801385,0.19069323896007373]","[1,1,1]","[-0.03201454118067829,0.08895288760841788]","[1,1,1]","[-0.0784079647623334,0.13131114570683078]","[1,1,1]","[-0.009309826920932893,-0.07067503526756354]","[-1,-1,-1]","[0.19907637688004692,-0.010670879540171247]","[-1,-1,-1]","[0.02,0.02]",295.5021,0,12,12,146,1,,,,,,,
,,,,,,,67e8891f804abbe65ff993ad,68317a63a5a38dd7eba645da,2025-05-23_23h52.39.796,cuing_paradigm_dot,2024.1.5,Win32,59.52380952,682d573fa47f1360d1451895,,,,,,,,,,,295.5033,296.0016,,,296.252,296.7014,left,,,,,,,,0.1,0.4429,,,,,,,296.0017,296.2519,296.7014,"[-0.1195886836886318,0.021122080243663254]","[-1,-1,-1]","[0.1800467890384814,0.00969396804749295]","[-1,-1,-1]","[-0.10829222776961143,0.06969589258970581]","[1,1,1]","[0.08507373550544248,0.0828205924819601]","[1,1,1]","[0.003549268751703293,-0.06842649848540945]","[-1,-1,-1]","[0.0498902080815366,-0.0730858273448767]","[-1,-1,-1]","[-0.02952547811835975,-0.015406320784092011]","[-1,-1,-1]","[0.015250871630390218,0.08755946678355941]","[-1,-1,-1]","[-0.0456302167360298,0.02189009946552709]","[-1,-1,-1]","[-0.13738619659817855,-0.03919852496938126]","[-1,-1,-1]","[0.13355454227801203,0.018392894381025305]","[-1,-1,-1]","[0.03370723589584474,-0.004507404092496476]","[-1,-1,-1]","[-0.029056674585240853,0.19770988963508232]","[-1,-1,-1]","[-0.0015623145315848944,-0.16780524066031643]","[-1,-1,-1]","[0.14763738094308204,0.11874751931277218]","[-1,-1,-1]","[-0.11458030831303859,0.14377983957372134]","[-1,-1,-1]","[0.1427708141377127,-0.031953293238177735]","[-1,-1,-1]","[-0.10180672271285729,-0.146172172207146]","[-1,-1,-1]","[0.11166528171973464,0.15063050709424058]","[-1,-1,-1]","[0.10014870275004052,-0.0210772435927386]","[-1,-1,-1]","[-0.05664819919425449,-0.16884068833396185]","[1,1,1]","[0.07032449808278113,-0.13111830893301715]","[-1,-1,-1]","[-0.0277960863230794,0.14469047144817637]","[-1,-1,-1]","[-0.06570643850362995,0.12884614944060602]","[-1,-1,-1]","[0.03687520788365059,0.17065309242840937]","[-1,-1,-1]","[-0.08079647893208405,0.1670856691926655]","[-1,-1,-1]","[0.0938346066096064,0.031178276332038093]","[-1,-1,-1]","[0.10410322830794219,-0.10133947610493617]","[-1,-1,-1]","[0.11451179575990005,-0.15703079820411195]","[-1,-1,-1]","[-0.1811368497505133,0.05016861073018401]","[-1,-1,-1]","[-0.07064974549957019,-0.06308574097016575]","[-1,-1,-1]","[-0.15226105409574706,-0.0862280578100887]","[-1,-1,-1]","[0.02,0.02]",297.8014,0,13,13,13,1,,,,,,,
,,,,,,,67e8891f804abbe65ff993ad,68317a63a5a38dd7eba645da,2025-05-23_23h52.39.796,cuing_paradigm_dot,2024.1.5,Win32,59.52380952,682d573fa47f1360d1451895,,,,,,,,,,,297.8021,298.3012,,,298.5516,298.9177,right,,,,,,,,0.9,0.3342,,,,,,,298.3012,298.5515,298.9178,"[-0.1471013276064218,-0.04005395470746472]","[1,1,1]","[-0.14556619061990772,-0.1043489195365779]","[1,1,1]","[0.1534202036967379,0.0741904150604187]","[1,1,1]","[0.02947025093330928,0.010228747815107311]","[1,1,1]","[0.1220763860418761,0.11978634472556696]","[1,1,1]","[-0.06298977493964969,-0.05469635239915658]","[1,1,1]","[-0.017982842499882655,-0.12027475695573167]","[1,1,1]","[-0.02470619910029587,0.1523433919265052]","[1,1,1]","[0.09418876467607899,-0.1651258617487404]","[1,1,1]","[0.08459255783192328,-0.06527454005375949]","[1,1,1]","[-0.11192753039069214,0.1573935666369328]","[1,1,1]","[-0.17688594527456714,0.011425905344815631]","[1,1,1]","[-0.1055455537576797,-0.01550106101119711]","[1,1,1]","[-0.01416395845129292,0.03616204361268452]","[-1,-1,-1]","[0.01840066966917445,0.06253701321565658]","[1,1,1]","[-0.07126792934714615,0.10026013670419168]","[-1,-1,-1]","[0.04770326926596941,-0.11311418602684441]","[1,1,1]","[0.03867799509880246,0.1342165083008789]","[1,1,1]","[0.016222141610816285,-0.16855812172961493]","[1,1,1]","[0.15100803462625706,-0.0866301686378773]","[1,1,1]","[-0.10890699204279197,-0.1651771946969998]","[1,1,1]","[-0.17281372238784484,0.09898586453194007]","[1,1,1]","[0.11050629811565973,0.013469138626494312]","[1,1,1]","[0.05185270125903226,0.18820424736489544]","[1,1,1]","[0.03871136875414558,-0.029601155547042204]","[1,1,1]","[0.10055280497327292,-0.026894623271969564]","[1,1,1]","[-0.00624353932485993,0.10171581433288429]","[1,1,1]","[-0.10714645375285796,0.05653988373135783]","[-1,-1,-1]","[-0.15189741507765311,0.05035985373240196]","[1,1,1]","[0.1800798362455109,-0.04301953394392522]","[1,1,1]","[-0.012461021299316413,-0.07614049372740993]","[1,1,1]","[0.0678886144890143,0.049858435419811276]","[1,1,1]","[0.02,0.02]",300.0174,0,14,14,195,1,,,,,,,
,,,,,,,67e8891f804abbe65ff993ad,68317a63a5a38dd7eba645da,2025-05-23_23h52.39.796,cuing_paradigm_dot,2024.1.5,Win32,59.52380952,682d573fa47f1360d1451895,,,,,,,,,,,300.0185,300.5172,,,300.7678,301.3339,left,,,,,,,,0.4,0.5353,,,,,,,300.5172,300.7676,301.334,"[0.11763936158154964,-0.014196339323501731]","[1,1,1]","[0.17316770570922704,-0.06977788158172196]","[-1,-1,-1]","[-0.19995802469396678,-0.003307786671419845]","[-1,-1,-1]","[-0.04900065222405824,0.041412859399977756]","[-1,-1,-1]","[0.031308902133753834,-0.19601420274932704]","[1,1,1]","[-0.1754538570441603,0.03766361939891329]","[-1,-1,-1]","[-0.010524378303530197,-0.057241021098009714]","[-1,-1,-1]","[-0.11679686150578057,-0.1621837470553374]","[-1,-1,-1]","[-0.004563238673060398,-0.11419743144498003]","[1,1,1]","[0.15359525289793688,0.1066891669849021]","[1,1,1]","[-0.005716675663027872,-0.0025232437107391872]","[-1,-1,-1]","[-0.008089510423123534,0.10071721414514302]","[-1,-1,-1]","[0.055204614728321104,0.14213640656302243]","[1,1,1]","[0.028370272573399892,-0.08304286202219671]","[-1,-1,-1]","[-0.0680707324356221,-0.06191611404022684]","[-1,-1,-1]","[0.05131586010343351,0.029147735463384544]","[1,1,1]","[-0.03012995079785427,0.1733898391593317]","[1,1,1]","[-0.07700760819323316,-0.1040942968336899]","[-1,-1,-1]","[0.16270783567223315,0.04116280388097547]","[-1,-1,-1]","[-0.10296571279078799,0.08533734570654156]","[-1,-1,-1]","[0.0916392847706237,0.15966336715702695]","[-1,-1,-1]","[0.06579657265201763,-0.12949327462933916]","[-1,-1,-1]","[0.12013276361298258,0.05826188949490558]","[1,1,1]","[0.11968530138998848,-0.057716071260996746]","[-1,-1,-1]","[0.14205997267871412,-0.1342875741455438]","[-1,-1,-1]","[-0.10987343063723638,-0.010029102823447477]","[1,1,1]","[0.08342951434867928,-0.0843691311950562]","[1,1,1]","[0.029676284634767888,0.17589370960299824]","[1,1,1]","[-0.05997147052035038,-0.02093673433846777]","[1,1,1]","[-0.12788322646490008,-0.06073983146230106]","[-1,-1,-1]","[-0.14278099966008986,0.06811311421100642]","[-1,-1,-1]","[-0.06089984855080284,-0.16128595611847138]","[1,1,1]","[0.02,0.02]",302.4335,0,15,15,55,1,,,,,,,
,,,,,,,67e8891f804abbe65ff993ad,68317a63a5a38dd7eba645da,2025-05-23_23h52.39.796,cuing_paradigm_dot,2024.1.5,Win32,59.52380952,682d573fa47f1360d1451895,,,,,,,,,,,302.4344,302.9331,,,303.184,303.7665,right,,,,,,,,0.4,0.5563,,,,,,,302.9332,303.184,303.7666,"[0.11681363608762053,0.047079115949330896]","[-1,-1,-1]","[-0.026382322956636187,0.04319206023711149]","[-1,-1,-1]","[-0.11462299885210332,0.06477588798805378]","[-1,-1,-1]","[-0.1766549386608097,-0.025304881273087627]","[1,1,1]","[0.00446321330125846,-0.13047204938172585]","[-1,-1,-1]","[0.1552015440009112,-0.04772084712960428]","[1,1,1]","[-0.0918393232345088,0.1513284640657304]","[-1,-1,-1]","[0.06936576548639738,-0.14835900784612077]","[1,1,1]","[0.07473572504132121,-0.09833239511189698]","[-1,-1,-1]","[0.16527945543612338,0.01695135423701159]","[1,1,1]","[-0.027781685989175187,-0.006384367904865604]","[-1,-1,-1]","[-0.17513050775939282,0.039147756999834034]","[1,1,1]","[-0.06572904203317707,-0.028631570275202675]","[1,1,1]","[-0.061481026749167236,0.09589393525520853]","[1,1,1]","[0.06137676880785912,-0.028160102391263434]","[-1,-1,-1]","[-0.11086632927541716,-0.12220636319552641]","[-1,-1,-1]","[-0.13325518371260447,-0.08447793856276162]","[-1,-1,-1]","[0.02728688298128924,0.04525819213193347]","[1,1,1]","[0.195375843743109,-0.03761228979854216]","[-1,-1,-1]","[-0.03830540619453408,-0.08220015097690882]","[-1,-1,-1]","[-0.1172745784422674,0.10571078975514434]","[-1,-1,-1]","[-0.17845307494879015,-0.082895665977245]","[-1,-1,-1]","[0.13089837855316566,0.10248782007469236]","[-1,-1,-1]","[0.035010816765507255,0.14871213397488675]","[1,1,1]","[0.03429102713346608,-0.07282878629465622]","[1,1,1]","[0.03676696483544716,0.004354431710781675]","[-1,-1,-1]","[-0.032099410818221166,-0.16281843571846047]","[1,1,1]","[0.1577695776955551,-0.11235909670725897]","[1,1,1]","[0.03699790938259414,0.09780217641138415]","[-1,-1,-1]","[0.07514239040929818,0.1467814965156143]","[1,1,1]","[0.08757197397543572,0.07660053362427685]","[-1,-1,-1]","[-0.17308280642809293,0.09106413537205663]","[-1,-1,-1]","[0.02,0.02]",304.8661,0,16,16,33,1,,,,,,,
,,,,,,,67e8891f804abbe65ff993ad,68317a63a5a38dd7eba645da,2025-05-23_23h52.39.796,cuing_paradigm_dot,2024.1.5,Win32,59.52380952,682d573fa47f1360d1451895,,,,,,,,,,,304.8672,305.3662,,,305.6164,306.1494,right,,,,,,,,0.55,0.5177,,,,,,,305.3662,305.6163,306.1495,"[-0.004459839585620509,-0.042919376529589826]","[1,1,1]","[-0.10304096670007395,-0.14960030171645325]","[1,1,1]","[-0.1727727351126376,-0.02501728752043052]","[-1,-1,-1]","[0.12648981912954285,0.12165057935929556]","[1,1,1]","[0.09938665868139439,-0.06847395652478375]","[1,1,1]","[-0.015760287930798672,-0.000036020878575631305]","[1,1,1]","[0.16212256423671054,-0.01700055396379785]","[1,1,1]","[-0.19485996990017587,0.0399229567632114]","[1,1,1]","[0.01279014523968458,-0.17656682652798575]","[1,1,1]","[0.059046153998867326,-0.13100978355169152]","[1,1,1]","[0.1376000798129664,0.06344369000864739]","[-1,-1,-1]","[0.10935972983986203,-0.11030954439962624]","[1,1,1]","[0.07895363416360164,0.1406512122518498]","[1,1,1]","[-0.15579094736400967,0.06194234107088727]","[-1,-1,-1]","[-0.012979376619917436,0.13211292854473483]","[-1,-1,-1]","[-0.09381843646829696,0.013143252232562786]","[-1,-1,-1]","[-0.17160551035569827,-0.09746035854643038]","[-1,-1,-1]","[-0.03387524965767887,-0.10861981258233429]","[1,1,1]","[0.06712724760141994,0.012769837195601465]","[1,1,1]","[-0.0026662667609083685,0.07167816969548184]","[1,1,1]","[0.10996536318247854,0.016485408494529265]","[-1,-1,-1]","[-0.10215418643231038,0.06292391725560727]","[1,1,1]","[-0.047437168555996584,-0.027565193323604593]","[-1,-1,-1]","[-0.14650898726841868,0.104797890461049]","[-1,-1,-1]","[0.03836028712467202,0.1943459232803183]","[-1,-1,-1]","[-0.1049309335137007,0.1573172330859401]","[-1,-1,-1]","[-0.09401743482888075,0.11171827002836014]","[-1,-1,-1]","[-0.05356374654558251,0.14600729700336448]","[-1,-1,-1]","[0.048054538104452905,0.0948631120119034]","[1,1,1]","[0.10610255543595078,-0.1621849205777415]","[1,1,1]","[0.14853298327535075,-0.07696437388759311]","[1,1,1]","[-0.10349224657457588,-0.05835258064241984]","[-1,-1,-1]","[0.02,0.02]",307.2491,0,17,17,128,1,,,,,,,
,,,,,,,67e8891f804abbe65ff993ad,68317a63a5a38dd7eba645da,2025-05-23_23h52.39.796,cuing_paradigm_dot,2024.1.5,Win32,59.52380952,682d573fa47f1360d1451895,,,,,,,,,,,307.2499,307.7487,,,307.9994,308.6487,left,,,,,,,,0.5,0.6182,,,,,,,307.7489,307.9993,308.6488,"[-0.08125627942533824,0.17462813071348982]","[-1,-1,-1]","[0.0664649041167352,-0.13426734334426965]","[-1,-1,-1]","[0.14961747679431,-0.028929284065838116]","[-1,-1,-1]","[0.14386523559448078,0.11952446816338307]","[1,1,1]","[0.18253256363511486,0.02604854691413]","[-1,-1,-1]","[0.0533980642794597,-0.179882380457259]","[1,1,1]","[-0.09023404986778887,-0.11835399570489022]","[-1,-1,-1]","[-0.041486914877966685,0.03915013224585025]","[-1,-1,-1]","[0.051209892113968244,0.14763712517115082]","[1,1,1]","[-0.13819702462255928,0.06408803504099796]","[1,1,1]","[-0.044050895194342105,-0.043317869145682336]","[-1,-1,-1]","[0.10245656434943841,-0.06036663187004176]","[1,1,1]","[0.037076399853570405,0.04829299920493998]","[1,1,1]","[-0.18386114679517132,0.004096376984638357]","[1,1,1]","[-0.09106489360920843,-0.07693625843011175]","[-1,-1,-1]","[-0.021262809840466617,0.15004574195238995]","[1,1,1]","[0.16157111933535892,0.06236433911177437]","[-1,-1,-1]","[-0.12535680102671795,-0.002609971814899735]","[-1,-1,-1]","[-0.05163229123649723,0.1137476747195875]","[-1,-1,-1]","[0.13644603171848474,0.009248111272944282]","[1,1,1]","[0.09233577760539936,0.12431305445799416]","[-1,-1,-1]","[0.014214494137971162,0.1735073607017907]","[1,1,1]","[0.030549492313056033,-0.027988751007228804]","[1,1,1]","[-0.017110383108338362,-0.0063359860043283815]","[-1,-1,-1]","[0.06374897677765802,-0.08631029529050377]","[1,1,1]","[-0.17662987736195518,-0.0857354426546153]","[-1,-1,-1]","[-0.02934330667176326,-0.18513240869476566]","[-1,-1,-1]","[-0.12956950252071098,-0.0447861251338556]","[-1,-1,-1]","[-0.09658125634083164,-0.15889726351211975]","[1,1,1]","[-0.028286363670935354,0.19063898184065267]","[1,1,1]","[-0.08632002350688327,0.023717528562516754]","[1,1,1]","[-0.1242525115435311,0.10631033852077673]","[1,1,1]","[0.02,0.02]",309.7483,0,18,18,99,1,,,,,,,
,,,,,,,67e8891f804abbe65ff993ad,68317a63a5a38dd7eba645da,2025-05-23_23h52.39.796,cuing_paradigm_dot,2024.1.5,Win32,59.52380952,682d573fa47f1360d1451895,,,,,,,,,,,309.749,310.2481,,,310.4986,311.267,right,,,,,,,,0.5,0.7427,,,,,,,310.2481,310.4985,311.267,"[0.08866689523189114,0.04089172479275502]","[1,1,1]","[-0.04333718417556828,0.05905795618330032]","[-1,-1,-1]","[0.07235158701367586,0.13610704387568015]","[-1,-1,-1]","[-0.1170323715879459,0.11065855232456041]","[1,1,1]","[-0.16800651522092339,-0.09953929864156826]","[1,1,1]","[0.11609701489236342,0.08671528699520786]","[-1,-1,-1]","[0.014560432728798445,0.15360086563301623]","[-1,-1,-1]","[0.016633140491774955,-0.0767236817225287]","[-1,-1,-1]","[-0.11795333703444129,-0.013910324347072896]","[1,1,1]","[-0.05115434220755874,0.09881181090641258]","[-1,-1,-1]","[0.12706097911691366,0.14541621443873085]","[-1,-1,-1]","[-0.11987063838447827,-0.133165578600061]","[1,1,1]","[0.15174403500717845,-0.11572705373546184]","[-1,-1,-1]","[0.02487638396099807,0.022929082359519622]","[1,1,1]","[-0.11493987031209393,0.03131031410617685]","[-1,-1,-1]","[0.1558990422932108,0.06098685039345463]","[-1,-1,-1]","[-0.0942005846397694,0.14508206920085123]","[-1,-1,-1]","[0.17103821086591547,0.015242710612506517]","[-1,-1,-1]","[-0.03608447240775731,-0.0029205829333829375]","[1,1,1]","[0.012110663802233086,-0.030433125981973178]","[-1,-1,-1]","[-0.16506408163884295,0.0896491236483591]","[1,1,1]","[-0.07575046316258226,-0.06867024979988443]","[1,1,1]","[0.08438865240114346,-0.022639515977158884]","[1,1,1]","[0.06486895080416909,-0.1377792953204523]","[-1,-1,-1]","[0.1934743823280577,-0.029346587067291]","[1,1,1]","[-0.02764310765757172,-0.19382843333487623]","[1,1,1]","[-0.13027465824859175,-0.05340126840113699]","[-1,-1,-1]","[-0.001698568500605915,0.19279498172045395]","[-1,-1,-1]","[-0.049100729384625036,0.16009440690145468]","[1,1,1]","[-0.08058751032558895,-0.11495439549060403]","[1,1,1]","[-0.03419807101944947,-0.13482944381614273]","[1,1,1]","[0.13282829152281853,-0.027640773581182557]","[1,1,1]","[0.02,0.02]",312.3642,0,19,19,103,1,,,,,,,
,,,,,,,67e8891f804abbe65ff993ad,68317a63a5a38dd7eba645da,2025-05-23_23h52.39.796,cuing_paradigm_dot,2024.1.5,Win32,59.52380952,682d573fa47f1360d1451895,,,,,,,,,,,312.3649,312.8643,,,313.1154,313.7139,left,,,,,,,,0.45,0.5772,,,,,,,312.8644,313.1154,313.7139,"[-0.13694807910318618,0.1266417842463947]","[1,1,1]","[0.09397451850448349,-0.12632884618826667]","[-1,-1,-1]","[-0.17275444540789994,-0.07137274158051538]","[-1,-1,-1]","[0.05054156613147426,-0.14730511966768647]","[-1,-1,-1]","[0.009880071277021639,0.19340385934298587]","[1,1,1]","[-0.10427211020370439,-0.13264184552728428]","[-1,-1,-1]","[-0.10722657880038215,0.0679067997524491]","[1,1,1]","[-0.007421028981376353,0.10137819451033316]","[-1,-1,-1]","[-0.037601342643242615,-0.04554520159271916]","[-1,-1,-1]","[0.094333994149742,0.15329465805672005]","[-1,-1,-1]","[-0.111028164187784,0.02494714153905592]","[1,1,1]","[0.054620583273055585,-0.021833279480954933]","[-1,-1,-1]","[0.1304913761261785,0.09973971400799353]","[-1,-1,-1]","[-0.15861539828344456,-0.11189512522297809]","[1,1,1]","[0.04537015496264391,0.02658080603850661]","[-1,-1,-1]","[-0.19337426142947814,-0.00603084579908887]","[-1,-1,-1]","[0.1426443777907557,0.04031922638441008]","[-1,-1,-1]","[0.05805695103970436,-0.09221635793506582]","[-1,-1,-1]","[-0.035631660192320426,0.023445227971698675]","[1,1,1]","[-0.06817654243599675,0.08612817170721151]","[-1,-1,-1]","[-0.059819009567221165,-0.18408822257956683]","[1,1,1]","[0.1925466923178493,-0.009266132367335343]","[-1,-1,-1]","[0.06548546871463638,0.11169091672757596]","[-1,-1,-1]","[0.09811678409533472,0.02543894217948529]","[-1,-1,-1]","[0.18024910020290244,0.07904682297171843]","[1,1,1]","[-0.15003212003864116,0.04600199448228636]","[1,1,1]","[-0.014269976741095395,-0.19106049585932097]","[1,1,1]","[-0.014839684770951107,-0.11450286553420104]","[1,1,1]","[0.15068394870299096,-0.05770830484713705]","[-1,-1,-1]","[-0.1554477511829711,-0.03358627852358897]","[1,1,1]","[-0.10337894831319207,-0.025292651573007797]","[1,1,1]","[-0.07999041242022978,0.1457058302057692]","[1,1,1]","[0.02,0.02]",314.8138,0,20,20,63,1,,,,,,,
,,,,,,,67e8891f804abbe65ff993ad,68317a63a5a38dd7eba645da,2025-05-23_23h52.39.796,cuing_paradigm_dot,2024.1.5,Win32,59.52380952,682d573fa47f1360d1451895,,,,,,,,,,,314.8144,315.3137,,,315.5646,316.0635,right,,,,,,,,0.5,0.4711,,,,,,,315.3138,315.5644,316.0636,"[0.09597491945753832,0.15806742908341967]","[1,1,1]","[-0.05012396222132668,-0.13053482405148023]","[-1,-1,-1]","[0.06254434029892328,-0.17752141094450224]","[1,1,1]","[-0.008367888133196165,0.0074962233565772085]","[1,1,1]","[0.11641990362040644,-0.07634965398136079]","[-1,-1,-1]","[0.17199702406261935,-0.09368471520306823]","[-1,-1,-1]","[0.1615260839655615,0.1068104637413017]","[-1,-1,-1]","[0.012007634549339478,0.05246365560476847]","[1,1,1]","[0.0994647795777665,0.05577728232988784]","[1,1,1]","[0.05723618931114805,0.10015399485677538]","[1,1,1]","[-0.13051815517048157,0.035941941534941825]","[-1,-1,-1]","[0.07063109405929943,-0.1065432910290127]","[1,1,1]","[-0.11497350608134663,-0.07500716973449968]","[-1,-1,-1]","[0.18815980232231436,-0.04610951601975553]","[-1,-1,-1]","[-0.15829030767396457,-0.02729426845211712]","[-1,-1,-1]","[-0.038556926917135505,-0.04738264899203042]","[-1,-1,-1]","[0.004826007087419231,0.1945690856046545]","[-1,-1,-1]","[-0.06099827015005927,0.12074642129485046]","[1,1,1]","[-0.03435029637448543,0.08061475045630781]","[1,1,1]","[0.11957156419334641,-0.14095172208951362]","[-1,-1,-1]","[-0.15302543486120776,0.08692647483642282]","[-1,-1,-1]","[-0.11039039196835834,0.14657991599259945]","[1,1,1]","[-0.09528664826987682,0.08245325243323331]","[1,1,1]","[-0.006101734040606204,-0.15611637759909144]","[-1,-1,-1]","[0.12922889961565645,-0.007728432852510164]","[1,1,1]","[-0.10734798276035955,-0.144031643470951]","[1,1,1]","[-0.08166651765876566,-0.09819744397431748]","[-1,-1,-1]","[-0.18182266286774426,0.058714552582482794]","[-1,-1,-1]","[0.00788779403871214,-0.04701539011657238]","[-1,-1,-1]","[0.08089136383528711,-0.03569179064174855]","[1,1,1]","[-0.05210112448278161,0.03142557970426715]","[1,1,1]","[0.05424782369030865,0.19173712263253373]","[1,1,1]","[0.02,0.02]",317.163,0,21,21,112,1,,,,,,,
,,,,,,,67e8891f804abbe65ff993ad,68317a63a5a38dd7eba645da,2025-05-23_23h52.39.796,cuing_paradigm_dot,2024.1.5,Win32,59.52380952,682d573fa47f1360d1451895,,,,,,,,,,,317.1637,317.6633,,,317.9134,318.4797,right,,,,,,,,0.9,0.5496,,,,,,,317.6634,317.9133,318.4797,"[0.04645535815133508,0.011813524689752716]","[1,1,1]","[0.013520165063398966,0.12038052086563908]","[1,1,1]","[-0.15458930885921598,-0.024048995115673655]","[1,1,1]","[-0.0192680841452866,0.17822283245238174]","[1,1,1]","[-0.0806811007211448,0.1171082601448026]","[1,1,1]","[0.07753702313546346,-0.12532226311607933]","[1,1,1]","[0.1175041497206291,-0.13037028766296538]","[1,1,1]","[0.013793650589059028,-0.11702641578817043]","[1,1,1]","[-0.13688096436502314,0.06959035710366812]","[1,1,1]","[-0.06713891067712655,0.16884724587304656]","[1,1,1]","[-0.019697895983947025,0.06038591751221042]","[1,1,1]","[0.06274421163280522,0.09613764649330969]","[1,1,1]","[0.10905391142846065,0.11893777520759782]","[1,1,1]","[-0.09041457826173896,-0.02415941693016724]","[1,1,1]","[0.10448840769815536,-0.017871493761004952]","[1,1,1]","[0.05995268277863512,-0.07710680192482369]","[-1,-1,-1]","[-0.03594725825035623,-0.00951329918209056]","[1,1,1]","[-0.06581144914051175,0.04130757135592802]","[1,1,1]","[-0.1078161234488729,0.1466199203054491]","[1,1,1]","[-0.10200237337247905,-0.0668494071527752]","[1,1,1]","[0.1888129673954011,0.022894383203497484]","[1,1,1]","[0.15909181123549498,0.07671244725428694]","[1,1,1]","[-0.14828362986913438,-0.12769773271137436]","[-1,-1,-1]","[0.06515910292386247,-0.17359718925949547]","[1,1,1]","[-0.15846871031922174,0.11690787508490741]","[1,1,1]","[0.14758545515672608,-0.0983181383684245]","[1,1,1]","[-0.17983314869950134,0.05679723435635954]","[1,1,1]","[-0.08147152727529121,-0.16682248266003927]","[1,1,1]","[0.0019572310944076994,-0.04450123613121973]","[-1,-1,-1]","[0.016759330593532667,-0.186356826168878]","[1,1,1]","[-0.03374690131982047,-0.09581106544275524]","[1,1,1]","[-0.07675492597315449,-0.1021886043318615]","[1,1,1]","[0.02,0.02]",319.5795,0,22,22,204,1,,,,,,,
,,,,,,,67e8891f804abbe65ff993ad,68317a63a5a38dd7eba645da,2025-05-23_23h52.39.796,cuing_paradigm_dot,2024.1.5,Win32,59.52380952,682d573fa47f1360d1451895,,,,,,,,,,,319.5806,320.0795,,,320.3299,320.6957,right,,,,,,,,0.9,0.3417,,,,,,,320.0795,320.3298,320.6958,"[-0.13231757248130877,-0.008061958728330279]","[1,1,1]","[-0.07555801929465916,-0.0327075389674664]","[1,1,1]","[0.016464472731100247,-0.10621601208122515]","[1,1,1]","[0.10647900239136537,-0.08506043260181373]","[1,1,1]","[0.061951693989675136,-0.14152233359515115]","[1,1,1]","[-0.14087689098339462,-0.06630468826908675]","[1,1,1]","[-0.01723352783644946,0.09067872782659626]","[1,1,1]","[0.08303610714019827,0.026734496753666025]","[-1,-1,-1]","[0.032429455637995416,-0.015687756248108614]","[1,1,1]","[-0.08296570254405307,-0.12371871687460041]","[1,1,1]","[-0.08373408444529876,0.17792930378213767]","[1,1,1]","[0.051770464438040883,-0.1918661687522257]","[1,1,1]","[0.030177633340722303,0.17787185959437546]","[1,1,1]","[-0.03868219263664149,-0.05325879162543124]","[1,1,1]","[-0.14281344250171835,0.12463167032160131]","[1,1,1]","[0.0682999617346205,0.1602719230840464]","[1,1,1]","[0.1296114740396488,0.005405945223371748]","[1,1,1]","[0.0685036988717135,0.119923150625261]","[1,1,1]","[0.0397361979350828,0.08777010971037709]","[1,1,1]","[0.14469178365255286,-0.13615190981691266]","[1,1,1]","[0.18167153169117498,0.07432895142107267]","[1,1,1]","[-0.01952023155891784,-0.17627057467696985]","[1,1,1]","[-0.08617073643299403,0.05628245042891367]","[1,1,1]","[-0.17516149122274283,-0.012356665860771563]","[1,1,1]","[0.11465088011052138,0.15399424792924005]","[1,1,1]","[-0.030928856006434614,0.1680228660004689]","[-1,-1,-1]","[-0.044038707867254036,0.02692743267277626]","[1,1,1]","[0.12588023861895326,0.09644772604495012]","[1,1,1]","[0.10539420408976097,-0.16536881362993053]","[-1,-1,-1]","[0.15733009319337707,-0.08564567580467876]","[1,1,1]","[-0.10394838609907389,-0.16082185408505262]","[1,1,1]","[0.18414414121750924,0.010563168841138166]","[1,1,1]","[0.02,0.02]",321.7952,0,23,23,199,1,,,,,,,
,,,,,,,67e8891f804abbe65ff993ad,68317a63a5a38dd7eba645da,2025-05-23_23h52.39.796,cuing_paradigm_dot,2024.1.5,Win32,59.52380952,682d573fa47f1360d1451895,,,,,,,,,,,321.7958,322.2957,,,322.5455,323.0284,left,,,,,,,,0.4,0.4513,,,,,,,322.2958,322.5455,323.0285,"[-0.055102436817923546,0.02265596307481154]","[-1,-1,-1]","[-0.030008786098492665,0.14210032421752886]","[1,1,1]","[0.14345710241230394,0.004476780325953239]","[1,1,1]","[0.011302695052882828,0.07791718382581365]","[-1,-1,-1]","[-0.03005229615684721,-0.17861089865819366]","[1,1,1]","[0.09122289030747131,0.1323348938190506]","[1,1,1]","[0.02263068853585237,0.11634517066037324]","[-1,-1,-1]","[0.05476277480882861,0.07967539796800394]","[-1,-1,-1]","[0.10375216093856617,0.04518497521404457]","[-1,-1,-1]","[0.06261358200915161,0.0018271869372802057]","[-1,-1,-1]","[-0.08933039745449518,0.05899633095544551]","[1,1,1]","[-0.04825715414941968,0.08155848092544454]","[-1,-1,-1]","[-0.10058663442012115,-0.10769663586779263]","[-1,-1,-1]","[-0.13271107524676812,0.05273778517217349]","[-1,-1,-1]","[-0.12729135222199256,-0.024636197476340216]","[-1,-1,-1]","[-0.011216128286497594,-0.13580095547635374]","[-1,-1,-1]","[-0.06270683606237705,-0.08761593201040833]","[-1,-1,-1]","[-0.019874901765737266,-0.05813742066335309]","[-1,-1,-1]","[-0.15985901700608982,0.09998154961816826]","[-1,-1,-1]","[0.1651423322595374,-0.1096279299293314]","[1,1,1]","[0.025119507201174025,-0.06639180487289058]","[1,1,1]","[-0.19701950743032634,-0.008282941234089977]","[1,1,1]","[0.10766572086662769,-0.1601748133792815]","[-1,-1,-1]","[0.13551316493427581,-0.06854438936820671]","[1,1,1]","[0.05269733878482787,-0.18372978829232692]","[-1,-1,-1]","[0.1400654846039805,0.09010331171674384]","[1,1,1]","[0.07620640161547838,-0.0975756856188716]","[-1,-1,-1]","[0.18800614149804487,-0.029942728392932893]","[-1,-1,-1]","[-0.12286379779151957,0.13209112098567086]","[1,1,1]","[-0.0803591204702764,-0.16103715256225373]","[-1,-1,-1]","[-0.07855931595900732,0.12855084929261973]","[1,1,1]","[-0.004052084342051694,0.017265934375785573]","[1,1,1]","[0.02,0.02]",324.1285,0,24,24,49,1,,,,,,,
,,,,,,,67e8891f804abbe65ff993ad,68317a63a5a38dd7eba645da,2025-05-23_23h52.39.796,cuing_paradigm_dot,2024.1.5,Win32,59.52380952,682d573fa47f1360d1451895,,,,,,,,,,,324.1292,324.6278,,,324.8789,325.3946,right,,,,,,,,0.4,0.4839,,,,,,,324.6279,324.8788,325.3948,"[-0.0568084994481082,-0.1270295982940938]","[-1,-1,-1]","[0.11916742790602987,0.024472844577445474]","[1,1,1]","[-0.05461189899866211,0.17625074921787767]","[-1,-1,-1]","[0.08793256414310242,-0.07591677003145765]","[-1,-1,-1]","[0.06615224627986444,0.032998693656640335]","[-1,-1,-1]","[0.021071636093204157,0.08379588198961063]","[1,1,1]","[0.10438255416858237,0.0992633154147297]","[1,1,1]","[0.046215524667311145,-0.11683005387218151]","[-1,-1,-1]","[-0.012183714056574589,0.12311442267976686]","[1,1,1]","[-0.1877041706935048,-0.05733704602056696]","[-1,-1,-1]","[0.15967215389919084,-0.06509763308505187]","[-1,-1,-1]","[-0.07056511552488398,-0.07790222583054378]","[-1,-1,-1]","[-0.1453192149492722,-0.11626000988231273]","[-1,-1,-1]","[-0.043816991133816124,0.09799569488266326]","[-1,-1,-1]","[0.18462291343190917,0.03389871891298513]","[-1,-1,-1]","[-0.1247784914563674,0.11513823480060428]","[1,1,1]","[0.1282773058283016,0.1407615053968888]","[1,1,1]","[0.16855269766869038,-0.009256548642597234]","[1,1,1]","[-0.050119826773226135,0.03652067939835064]","[-1,-1,-1]","[0.10736069819291755,-0.12469182026041524]","[1,1,1]","[-0.0003283699139880122,0.016830353172292506]","[1,1,1]","[0.05132557484061664,0.12000247301657782]","[1,1,1]","[0.09547473176914734,-0.17395438340451355]","[-1,-1,-1]","[-0.030375194462899074,-0.07746402446446987]","[1,1,1]","[-0.07661412853327025,0.12714976989321186]","[-1,-1,-1]","[-0.12735429838749132,-0.07271256726285057]","[1,1,1]","[-0.06995425620050576,-0.02116089820438256]","[-1,-1,-1]","[-0.16309067437313718,0.00908687641309531]","[-1,-1,-1]","[0.00862458721104179,0.1713873831204072]","[-1,-1,-1]","[-0.1585658015201683,0.08210429240702942]","[1,1,1]","[-0.09835033451210827,0.17162292243675312]","[-1,-1,-1]","[-0.08378278050892156,0.07792677338049667]","[-1,-1,-1]","[0.02,0.02]",326.4943,0,25,25,59,1,,,,,,,
,,,,,,,67e8891f804abbe65ff993ad,68317a63a5a38dd7eba645da,2025-05-23_23h52.39.796,cuing_paradigm_dot,2024.1.5,Win32,59.52380952,682d573fa47f1360d1451895,,,,,,,,,,,326.4951,326.9945,,,327.2506,327.744,left,,,,,,,,0.1,0.4676,,,,,,,326.9945,327.2505,327.7442,"[0.08310943527473957,0.015923301130824796]","[-1,-1,-1]","[0.023633465118960646,0.0900620078599657]","[-1,-1,-1]","[-0.0978591395262754,-0.12366697259841972]","[-1,-1,-1]","[0.06371677114776973,0.15005385946343563]","[-1,-1,-1]","[0.1784278617681535,-0.06999521778966296]","[-1,-1,-1]","[-0.16771872190698942,-0.021152143762669443]","[-1,-1,-1]","[-0.1628398024721539,-0.08686551248509414]","[-1,-1,-1]","[-0.03203058549503182,-0.052297326668725476]","[-1,-1,-1]","[0.056542528350151756,-0.08130652600902137]","[-1,-1,-1]","[0.0665814060860261,-0.13188554128920765]","[-1,-1,-1]","[-0.008252927644049222,0.1366490878543765]","[-1,-1,-1]","[0.1878697124831763,0.0012329298768408005]","[-1,-1,-1]","[-0.06111029037233665,0.10272293548048961]","[1,1,1]","[-0.050016148911943545,0.1486343019676707]","[1,1,1]","[0.16746988768537222,0.040973498308739094]","[-1,-1,-1]","[-0.1307720142208985,-0.0562700131308436]","[-1,-1,-1]","[0.144562032167837,0.09496813264222467]","[-1,-1,-1]","[0.12987630350833676,-0.11005728637104678]","[-1,-1,-1]","[0.032209442151309484,0.17477548247787084]","[-1,-1,-1]","[0.09971528962605941,0.08759455686417188]","[-1,-1,-1]","[0.029704313192923625,0.02820374938708832]","[-1,-1,-1]","[0.0490731693271899,-0.17136952431267377]","[-1,-1,-1]","[-0.18404712119988717,0.07365387528014235]","[-1,-1,-1]","[-0.03384066316661355,-0.10359764817596574]","[-1,-1,-1]","[-0.10524731599174009,0.03650007101753374]","[-1,-1,-1]","[-0.04451998711836249,-0.15053634070840308]","[-1,-1,-1]","[0.11153339984176182,0.04863374644502061]","[-1,-1,-1]","[0.00005891931421437956,-0.13596007623666784]","[-1,-1,-1]","[-0.11947204783012487,0.14549501641824028]","[1,1,1]","[-0.08671171502273392,-0.03895899471560865]","[-1,-1,-1]","[-0.1149136922510848,-0.16167797552434812]","[-1,-1,-1]","[-0.07205785538792817,0.004218485751755838]","[-1,-1,-1]","[0.02,0.02]",328.8437,0,26,26,20,1,,,,,,,
,,,,,,,67e8891f804abbe65ff993ad,68317a63a5a38dd7eba645da,2025-05-23_23h52.39.796,cuing_paradigm_dot,2024.1.5,Win32,59.52380952,682d573fa47f1360d1451895,,,,,,,,,,,328.8444,329.3442,,,329.5939,330.06,right,,,,,,,,0.4,0.4347,,,,,,,329.3443,329.5938,330.0601,"[-0.06651293583759742,-0.16982009791243122]","[-1,-1,-1]","[0.044953708298012394,-0.051482651956422466]","[-1,-1,-1]","[-0.05313693189955498,0.007951618848719451]","[-1,-1,-1]","[-0.18475628236552336,-0.01964647625429371]","[-1,-1,-1]","[-0.052284985984288705,-0.08256675131918115]","[-1,-1,-1]","[-0.05011158313793862,0.08544458662511786]","[-1,-1,-1]","[-0.08665063449332064,0.17481841004221485]","[1,1,1]","[0.13164921465153523,-0.1199844023379658]","[1,1,1]","[0.04874980390809131,-0.1431471323796925]","[1,1,1]","[0.1623915917138975,0.05111963144615338]","[1,1,1]","[-0.011437933738015273,0.09782354502125647]","[1,1,1]","[-0.1148325470391443,0.04238178610149142]","[-1,-1,-1]","[0.0813157187464783,-0.10732617000867489]","[-1,-1,-1]","[0.11036103252853997,-0.06778889445628423]","[-1,-1,-1]","[-0.09955586602629773,0.10736078095331231]","[1,1,1]","[0.043174861189566156,0.03494672307086091]","[-1,-1,-1]","[-0.10217818436324982,-0.07540540333319029]","[-1,-1,-1]","[-0.012321371347889317,-0.06903551183954951]","[1,1,1]","[0.10810785553226883,-0.1618340811035414]","[1,1,1]","[0.0032956686496609443,-0.15713958685416687]","[-1,-1,-1]","[-0.14311830419956123,-0.025018025289034174]","[-1,-1,-1]","[0.1235462632799101,0.14264650745123725]","[-1,-1,-1]","[0.15635279110733616,0.009689267299869957]","[-1,-1,-1]","[-0.026923375557035598,0.1782861942820512]","[1,1,1]","[0.05380654576430687,0.16041461257509482]","[1,1,1]","[0.0645092788974926,0.07486375605121783]","[1,1,1]","[0.018505870961373416,-0.0038931263169862756]","[1,1,1]","[-0.12398906729220469,-0.1317283323256999]","[1,1,1]","[0.1861558752047763,-0.06959206595996505]","[-1,-1,-1]","[-0.10291349024436405,-0.0068419573795099765]","[-1,-1,-1]","[-0.04294024736155915,0.12899946009920812]","[-1,-1,-1]","[-0.13277138001744285,0.13106047523503492]","[-1,-1,-1]","[0.02,0.02]",331.1598,0,27,27,58,1,,,,,,,
,,,,,,,67e8891f804abbe65ff993ad,68317a63a5a38dd7eba645da,2025-05-23_23h52.39.796,cuing_paradigm_dot,2024.1.5,Win32,59.52380952,682d573fa47f1360d1451895,,,,,,,,,,,331.1603,331.6596,,,331.91,332.376,right,,,,,,,,0.5,0.4502,,,,,,,331.6597,331.9099,332.3761,"[0.11953897997121281,-0.0899314386828541]","[-1,-1,-1]","[-0.12978201622005525,-0.019925338986521823]","[-1,-1,-1]","[-0.05187718656545549,0.0051129909210425265]","[-1,-1,-1]","[-0.04401584899301319,0.11275743158527904]","[1,1,1]","[0.11920878374678721,-0.15010342254550663]","[1,1,1]","[-0.16195192277863313,0.08888792267882642]","[-1,-1,-1]","[-0.023607660929152223,-0.15573216439930526]","[1,1,1]","[-0.09348975501969753,0.08499374423806873]","[-1,-1,-1]","[0.021375575431136745,0.1361527078062082]","[-1,-1,-1]","[0.12253817569575919,0.01965774878593306]","[-1,-1,-1]","[0.061665171496099756,-0.05961910729421048]","[-1,-1,-1]","[-0.0030794880982800304,0.03244231209019365]","[1,1,1]","[0.022198468068792648,-0.17782533065399767]","[1,1,1]","[-0.07957207718180502,-0.17010231581774662]","[1,1,1]","[0.0054066658135056185,0.18432616930738277]","[1,1,1]","[0.03343081206319678,-0.09513918642270038]","[-1,-1,-1]","[-0.011488493247050372,-0.11007125280355441]","[1,1,1]","[0.1547130238554753,0.11125290803875922]","[-1,-1,-1]","[-0.09587145192704101,0.14376740408862698]","[1,1,1]","[0.12320613944095361,0.1441021323905384]","[1,1,1]","[0.06186227187485253,0.17423983607426147]","[1,1,1]","[0.029009214041964694,0.07921409597037464]","[-1,-1,-1]","[0.06773246449770642,-0.0008832131757476977]","[-1,-1,-1]","[-0.11124089621128422,-0.07514034709212397]","[1,1,1]","[0.0948815528838561,0.08634109101079027]","[1,1,1]","[-0.013170618082062786,-0.011520370564003343]","[-1,-1,-1]","[-0.05685769514502302,-0.04564486822187243]","[1,1,1]","[0.07056789561735265,-0.15160697115294675]","[-1,-1,-1]","[0.19042924256333849,0.017627351208727694]","[1,1,1]","[-0.09997551270789348,-0.1199999025636254]","[-1,-1,-1]","[0.0653500039054673,0.04454803329555955]","[1,1,1]","[0.16959304625247335,-0.04284842968379018]","[-1,-1,-1]","[0.02,0.02]",333.4757,0,28,28,101,1,,,,,,,
,,,,,,,67e8891f804abbe65ff993ad,68317a63a5a38dd7eba645da,2025-05-23_23h52.39.796,cuing_paradigm_dot,2024.1.5,Win32,59.52380952,682d573fa47f1360d1451895,,,,,,,,,,,333.4766,333.9757,,,334.226,335.0257,left,,,,,,,,0.6,0.7691,,,,,,,333.9757,334.226,335.0258,"[-0.16635685978580092,0.0208778824436543]","[1,1,1]","[0.12129334555109858,0.008940755477966274]","[-1,-1,-1]","[0.1438017389716003,0.08213409913980102]","[-1,-1,-1]","[-0.01862176512586832,-0.1661604960715553]","[1,1,1]","[0.0026864454606461675,0.026586861475538993]","[1,1,1]","[-0.026743855970017084,0.13997134286690305]","[1,1,1]","[-0.09151740422857715,0.026289381080741015]","[1,1,1]","[-0.06152303444338488,0.07935531660056845]","[1,1,1]","[-0.05008714625189397,0.017422104582802474]","[1,1,1]","[0.14148694217287408,-0.08966848135779616]","[-1,-1,-1]","[0.0927097365151427,-0.021879130876306694]","[1,1,1]","[0.09764623916931169,-0.10320513128658826]","[-1,-1,-1]","[0.017626668811264935,-0.03336293513262979]","[-1,-1,-1]","[-0.14631664381767506,0.05829985332277855]","[1,1,1]","[0.09956623833339184,0.09778964336041662]","[-1,-1,-1]","[-0.061780384724251465,-0.16042039905851413]","[1,1,1]","[0.1987772588252282,-0.00630066786712832]","[-1,-1,-1]","[0.024478387552923437,-0.09494755953384107]","[-1,-1,-1]","[-0.17366633075453108,-0.03518141825587115]","[1,1,1]","[0.16989210340960129,0.02964400513618029]","[-1,-1,-1]","[-0.1406482328088772,0.10073185588290919]","[1,1,1]","[-0.09297740440281314,-0.0553793802733864]","[1,1,1]","[-0.03448524837112183,-0.09208434939552691]","[-1,-1,-1]","[-0.13429173675278255,-0.045842271094346555]","[1,1,1]","[-0.024883684011034503,0.18419063388349838]","[-1,-1,-1]","[0.055087012974166655,0.052371587978572734]","[1,1,1]","[0.06155141013429922,-0.06167029104419357]","[-1,-1,-1]","[-0.0867367881683152,0.14031707534224297]","[1,1,1]","[0.064335205400318,-0.17796507460879554]","[1,1,1]","[0.05636535296867216,0.00686679762228258]","[-1,-1,-1]","[-0.039229328254700824,-0.02337878251615573]","[1,1,1]","[0.13529300350350432,-0.029551558524667728]","[1,1,1]","[0.02,0.02]",336.1251,0,29,29,170,1,,,,,,,
,,,,,,,67e8891f804abbe65ff993ad,68317a63a5a38dd7eba645da,2025-05-23_23h52.39.796,cuing_paradigm_dot,2024.1.5,Win32,59.52380952,682d573fa47f1360d1451895,,,,,,,,,,,336.1257,336.6251,,,336.8759,337.3082,right,,,,,,,,0.5,0.4042,,,,,,,336.6252,336.8759,337.3083,"[0.12757614416406304,0.06307886322364646]","[-1,-1,-1]","[-0.0374748735061344,-0.1738893087789849]","[1,1,1]","[-0.06920620946133521,0.05279625424372583]","[-1,-1,-1]","[0.051257812735064585,0.1255522562726049]","[1,1,1]","[-0.12244914564199845,0.13176302214072946]","[-1,-1,-1]","[-0.013620112748940238,0.14354924561297563]","[1,1,1]","[-0.15628748762673927,0.0032441529636621056]","[-1,-1,-1]","[-0.13894910527225765,0.0674348801829063]","[-1,-1,-1]","[0.16098764580366295,0.11672609275022741]","[-1,-1,-1]","[-0.08290024870504738,0.16097156531421758]","[-1,-1,-1]","[0.02827554955589319,-0.1958595946115314]","[1,1,1]","[-0.0704309905103188,0.11348957404378163]","[-1,-1,-1]","[0.042065395426381776,-0.09101245199271293]","[-1,-1,-1]","[0.11996111670644082,-0.06326356823783877]","[1,1,1]","[-0.02043427317045324,-0.13130265281612205]","[1,1,1]","[-0.19644354559334895,-0.007250509186180699]","[-1,-1,-1]","[-0.12068674291214512,-0.15191996549097525]","[-1,-1,-1]","[0.1631535226452891,-0.10134052896702933]","[1,1,1]","[0.1674951162654293,0.03198027986285374]","[1,1,1]","[-0.0265440954702821,-0.053238702150981566]","[-1,-1,-1]","[0.1793507539159085,-0.024698783134868955]","[-1,-1,-1]","[0.014387088985739194,-0.04625152710960503]","[1,1,1]","[-0.0690217811047634,-0.015922216065698526]","[1,1,1]","[-0.09431850115176137,-0.09226090998226202]","[1,1,1]","[0.09480877547375484,0.13371077295886816]","[1,1,1]","[0.11290492169563102,-0.13991342201689422]","[1,1,1]","[0.13056371539293873,0.0032456032371606376]","[1,1,1]","[0.09464400045246572,0.08789031535680848]","[1,1,1]","[-0.07569428852541735,-0.12867194114013394]","[-1,-1,-1]","[0.051084570358494355,0.003157271371177635]","[-1,-1,-1]","[-0.1567952797238684,-0.088279304725413]","[-1,-1,-1]","[0.02727125894134967,0.16634136219600498]","[1,1,1]","[0.02,0.02]",338.408,0,30,30,108,1,,,,,,,
,,,,,,,67e8891f804abbe65ff993ad,68317a63a5a38dd7eba645da,2025-05-23_23h52.39.796,cuing_paradigm_dot,2024.1.5,Win32,59.52380952,682d573fa47f1360d1451895,,,,,,,,,,,338.4087,338.9079,,,339.1583,339.7075,left,,,,,,,,0.1,0.5397,,,,,,,338.908,339.1582,339.7075,"[-0.036462203027909285,0.1692220140273392]","[-1,-1,-1]","[0.061867707165284565,-0.16675555358145325]","[-1,-1,-1]","[-0.19614185852091184,0.0023837397597139902]","[-1,-1,-1]","[-0.07496241111427772,0.08610936411229925]","[-1,-1,-1]","[0.013292405870284602,0.14623089004622938]","[-1,-1,-1]","[-0.06225663987785482,-0.15076026959088207]","[-1,-1,-1]","[-0.015188155963355376,0.06811885356687926]","[1,1,1]","[-0.07059656002747734,-0.0437194876570841]","[-1,-1,-1]","[-0.1499535392742662,0.1230933865035094]","[-1,-1,-1]","[0.18480523851370703,-0.05492425154216453]","[-1,-1,-1]","[0.0031672340492289253,-0.07404213216793581]","[-1,-1,-1]","[0.030955708654728225,-0.13514871340658152]","[-1,-1,-1]","[0.04819679417284558,-0.013039908742154594]","[-1,-1,-1]","[0.10265955688184143,0.02920717295245427]","[-1,-1,-1]","[0.12671630715833573,-0.07851080028381609]","[-1,-1,-1]","[-0.10295928156590707,0.16780963984974442]","[-1,-1,-1]","[0.1518417107281804,0.00200313068825274]","[-1,-1,-1]","[-0.14547039682408766,-0.059276348614725506]","[-1,-1,-1]","[-0.05402548241287564,0.03690043662606999]","[-1,-1,-1]","[0.19899625935891266,-0.012085222580003718]","[-1,-1,-1]","[0.09448896747180405,-0.043853312089106616]","[-1,-1,-1]","[-0.06901715697892016,-0.09980765663634265]","[-1,-1,-1]","[0.10653072115626376,0.15114081743827074]","[-1,-1,-1]","[0.019410960051326004,0.03958192167099222]","[-1,-1,-1]","[0.13037353022246329,0.11027674050803739]","[1,1,1]","[0.07356679654618621,0.0700929325617838]","[1,1,1]","[-0.14445739559143428,-0.135785881017149]","[-1,-1,-1]","[-0.17983050705833764,0.08415411180793245]","[-1,-1,-1]","[0.074780641490091,0.1842448891408027]","[-1,-1,-1]","[0.1724646836147454,0.05824368413524889]","[-1,-1,-1]","[-0.030707130632805415,0.0002459392868033947]","[-1,-1,-1]","[0.08749333830850456,-0.11351512817571924]","[-1,-1,-1]","[0.02,0.02]",340.8073,0,31,31,8,1,,,,,,,
,,,,,,,67e8891f804abbe65ff993ad,68317a63a5a38dd7eba645da,2025-05-23_23h52.39.796,cuing_paradigm_dot,2024.1.5,Win32,59.52380952,682d573fa47f1360d1451895,,,,,,,,,,,340.8079,341.3072,,,341.5467,342.3236,left,,,,,,,,0.45,0.7612,,,,,,,341.3072,341.5466,342.3237,"[-0.14346894880157654,0.046382427063295095]","[-1,-1,-1]","[-0.17721141548929406,0.01817167080090384]","[1,1,1]","[0.07828429719316637,0.12741010520996784]","[1,1,1]","[-0.16364595253878436,-0.040346067470490556]","[-1,-1,-1]","[0.048843598765899894,-0.11114710884365601]","[-1,-1,-1]","[0.13418662596954042,-0.07189236631108768]","[-1,-1,-1]","[-0.07962886636936833,0.1548401474785466]","[1,1,1]","[0.0383118943114016,-0.18184208887615055]","[1,1,1]","[-0.035633757556270275,0.06609828634575533]","[1,1,1]","[0.10999066517687195,0.08398226818836568]","[1,1,1]","[0.15538267364961242,0.07576269217409631]","[-1,-1,-1]","[0.16066610866121256,-0.02213353160195457]","[1,1,1]","[-0.10351969772698769,-0.13929940114087996]","[-1,-1,-1]","[0.06563783172845207,-0.013959261680954396]","[1,1,1]","[0.03953200836373972,0.08292005389527345]","[1,1,1]","[-0.07637379904859909,0.09912553671683418]","[1,1,1]","[-0.023278476499967234,-0.0784753509313293]","[1,1,1]","[0.028656318657664052,0.01822719737854724]","[-1,-1,-1]","[-0.04957414273331787,-0.14274759576138193]","[-1,-1,-1]","[0.04154132810479495,0.16280784785320712]","[-1,-1,-1]","[-0.030360271953994586,-0.005785667701279144]","[1,1,1]","[-0.14667394328360403,-0.10567892262391256]","[-1,-1,-1]","[0.06745032624863803,-0.14916407466301151]","[-1,-1,-1]","[0.19762350136518764,0.005595665473434635]","[1,1,1]","[-0.09908977512874906,-0.04827486212038608]","[-1,-1,-1]","[0.07707954017965395,0.028747265404768567]","[-1,-1,-1]","[0.11371071576098359,0.16189503268406313]","[-1,-1,-1]","[-0.07320082984162546,0.048723003734919834]","[1,1,1]","[0.003282664409246015,0.055542243006561985]","[-1,-1,-1]","[-0.14115335565581472,0.08881162821341389]","[-1,-1,-1]","[0.13422011589259344,-0.12749873589658028]","[-1,-1,-1]","[0.0958586243053745,-0.09611511082653658]","[-1,-1,-1]","[0.02,0.02]",343.4234,0,32,32,83,1,,,,,,,
,,,,,,,67e8891f804abbe65ff993ad,68317a63a5a38dd7eba645da,2025-05-23_23h52.39.796,cuing_paradigm_dot,2024.1.5,Win32,59.52380952,682d573fa47f1360d1451895,,,,,,,,,,,343.4241,343.9263,,,344.1741,344.7565,left,,,,,,,,0.5,0.5522,,,,,,,343.9264,344.1739,344.7566,"[0.07076050385917651,-0.014861681279293904]","[-1,-1,-1]","[0.07830943088634675,-0.1716600862929596]","[1,1,1]","[0.07857713978148641,0.07974363246916556]","[1,1,1]","[-0.00009422100006971872,0.006749444613843433]","[1,1,1]","[0.16484451393134641,0.11199951991170319]","[1,1,1]","[0.10487203327428549,-0.0724401947925677]","[-1,-1,-1]","[0.07469771108607895,0.17294155954426454]","[1,1,1]","[0.0538175652330209,-0.10755896211188311]","[-1,-1,-1]","[-0.06839228188046867,0.03644148163811483]","[-1,-1,-1]","[0.12450628282001068,0.14190836848228627]","[-1,-1,-1]","[-0.11187774411679362,0.1257102996599548]","[1,1,1]","[0.14582357612155739,0.0025427041759185924]","[-1,-1,-1]","[-0.11479943416704293,-0.11786327556525358]","[-1,-1,-1]","[-0.16777432121475597,-0.08425222923621496]","[1,1,1]","[0.1389829247667065,0.06836555599957549]","[-1,-1,-1]","[-0.006628713597211588,0.1977927147753433]","[1,1,1]","[0.03846794545577147,0.06712154067410811]","[1,1,1]","[-0.11304838914863713,0.04421679908861349]","[1,1,1]","[0.007538363487548785,-0.14100772651068375]","[-1,-1,-1]","[-0.13985502001434774,0.00961893877098926]","[-1,-1,-1]","[-0.0610689917309308,-0.040554917822956275]","[1,1,1]","[0.029511375109526426,0.13164742257063713]","[1,1,1]","[-0.011447948381061137,0.07923912857228697]","[-1,-1,-1]","[-0.19665863262663472,0.03173714618499733]","[-1,-1,-1]","[-0.18510001371454762,-0.04567207929259647]","[1,1,1]","[-0.06502202974982761,-0.1668287799749353]","[-1,-1,-1]","[0.12480608219067477,-0.13354279200173194]","[1,1,1]","[-0.05007131084078719,0.1354074585394147]","[1,1,1]","[0.18891471354584496,-0.034873647101696534]","[1,1,1]","[-0.11825860534627579,-0.03670939186743918]","[-1,-1,-1]","[0.18434327603117895,0.0757827963775409]","[-1,-1,-1]","[-0.08253133885657638,-0.08566936711741614]","[-1,-1,-1]","[0.02,0.02]",345.8562,0,33,33,95,1,,,,,,,
,,,,,,,67e8891f804abbe65ff993ad,68317a63a5a38dd7eba645da,2025-05-23_23h52.39.796,cuing_paradigm_dot,2024.1.5,Win32,59.52380952,682d573fa47f1360d1451895,,,,,,,,,,,345.857,346.3559,,,346.6064,347.3225,left,,,,,,,,0.5,0.6999,,,,,,,346.356,346.6064,347.3225,"[-0.00815312289035298,0.09362494185985619]","[-1,-1,-1]","[0.06939419783616077,-0.18697292640233384]","[1,1,1]","[0.17553314446024218,0.07736422406658634]","[-1,-1,-1]","[-0.05791721627095808,0.03577801739627796]","[-1,-1,-1]","[-0.14713285482839256,0.1280986616861579]","[1,1,1]","[0.027789860319019734,-0.045776643268345976]","[1,1,1]","[0.016874279253071618,0.15073652266240473]","[-1,-1,-1]","[-0.025343762558523712,-0.12459214267000243]","[1,1,1]","[-0.012430825729979042,-0.17631700388647614]","[-1,-1,-1]","[0.05181130698579682,0.05010689525648951]","[-1,-1,-1]","[-0.19564842425787554,0.021313821295585116]","[1,1,1]","[-0.0011196663331171492,0.028157925015160113]","[1,1,1]","[-0.04579009987984808,0.07692974949377951]","[-1,-1,-1]","[-0.08502538906241768,-0.009588149904798653]","[1,1,1]","[-0.1496617805487864,-0.013455767116211149]","[1,1,1]","[0.03876529938936474,0.10544019696750835]","[1,1,1]","[-0.029770378550314506,0.171212121611388]","[1,1,1]","[0.13269012517855736,0.006438571418922104]","[-1,-1,-1]","[-0.14194886294846268,-0.06083834068449513]","[-1,-1,-1]","[0.09200347108761127,0.052737275762714045]","[-1,-1,-1]","[0.07320843082988703,-0.05591006489822912]","[1,1,1]","[-0.13237032166065058,0.08651305385923934]","[-1,-1,-1]","[0.0886828306264709,-0.01327051234613227]","[-1,-1,-1]","[0.1960935105925306,0.03746791205746224]","[1,1,1]","[0.13969776348953405,0.10140140056931345]","[1,1,1]","[-0.12485616848597607,-0.1404445736058528]","[-1,-1,-1]","[-0.06754390717207595,0.1516796438052192]","[1,1,1]","[0.0906288152111901,-0.11486113301555788]","[1,1,1]","[-0.001191937642236056,-0.016263706682683003]","[-1,-1,-1]","[0.1985809520882487,-0.005199819932017542]","[1,1,1]","[0.05740443853094844,0.1495354625617194]","[-1,-1,-1]","[0.10336747394774534,0.167545913930418]","[-1,-1,-1]","[0.02,0.02]",348.422,0,34,34,102,1,,,,,,,
,,,,,,,67e8891f804abbe65ff993ad,68317a63a5a38dd7eba645da,2025-05-23_23h52.39.796,cuing_paradigm_dot,2024.1.5,Win32,59.52380952,682d573fa47f1360d1451895,,,,,,,,,,,348.4227,348.9221,,,349.1728,349.422,right,,,,,,,,0.9,0.2184,,,,,,,348.9221,349.1726,349.422,"[0.06447159436650061,-0.1322581658047881]","[1,1,1]","[-0.005413228659640542,-0.18051032360967012]","[1,1,1]","[-0.05769204176866076,0.12408455308167021]","[1,1,1]","[0.07872629407670402,-0.027616025461124367]","[1,1,1]","[-0.15324085965916645,0.08139560645015431]","[1,1,1]","[0.16890055719566535,0.038652351186489506]","[1,1,1]","[-0.17535144485131288,-0.009721575787044343]","[1,1,1]","[0.11920410014669525,-0.004037190894048874]","[1,1,1]","[-0.08463073493307645,-0.13847033005282314]","[1,1,1]","[0.161968089212523,0.0923236533127199]","[1,1,1]","[-0.16880608959463184,-0.09399490229204446]","[1,1,1]","[-0.014962717024481454,0.13950295946476687]","[1,1,1]","[-0.15454030397166452,0.12167037652972451]","[-1,-1,-1]","[-0.15930996217010174,-0.04852198031157132]","[1,1,1]","[-0.006337673645453964,0.1888066652833275]","[1,1,1]","[0.11109959887485973,-0.1491783740171623]","[1,1,1]","[-0.053300516496588596,0.028992371400627204]","[1,1,1]","[0.07878723465580766,0.050118982836921545]","[1,1,1]","[-0.011118951738522212,-0.1363097376451333]","[1,1,1]","[0.037447822876871956,0.12131266394129372]","[1,1,1]","[0.022732889107937967,-0.04964582743429743]","[1,1,1]","[-0.09735695223627089,0.17103619160697925]","[1,1,1]","[0.051349569060013825,0.018984895959000367]","[1,1,1]","[0.0021020153359490716,0.0652878375657239]","[1,1,1]","[0.02087470554705041,-0.10723214379067628]","[1,1,1]","[0.07503107988434654,0.15948460257030989]","[1,1,1]","[-0.05085452748753927,0.16721769203022055]","[1,1,1]","[-0.12441592684349205,0.04338914648919098]","[1,1,1]","[-0.06250774218187981,-0.05115029074448842]","[-1,-1,-1]","[-0.11590232267242083,-0.11010995939633152]","[-1,-1,-1]","[0.05395284702565472,-0.1788922495573161]","[1,1,1]","[0.07763280961003093,-0.07078344824799493]","[1,1,1]","[0.02,0.02]",350.5216,0,35,35,200,1,,,,,,,
,,,,,,,67e8891f804abbe65ff993ad,68317a63a5a38dd7eba645da,2025-05-23_23h52.39.796,cuing_paradigm_dot,2024.1.5,Win32,59.52380952,682d573fa47f1360d1451895,,,,,,,,,,,350.5222,351.0216,,,351.272,351.5381,right,,,,,,,,0.9,0.2356,,,,,,,351.0217,351.2719,351.5382,"[-0.13508567892569476,-0.0951080834106627]","[1,1,1]","[-0.057974715411084295,-0.1163102123844437]","[1,1,1]","[-0.08013461572050992,-0.027557919854892983]","[1,1,1]","[0.08715679937080811,0.10290700003031046]","[1,1,1]","[0.08144024809792703,-0.03348530133743622]","[1,1,1]","[0.12935243410649733,-0.05055293734309522]","[1,1,1]","[-0.03127581217966807,0.1682032838406213]","[1,1,1]","[-0.014858374903072619,-0.12132612102528316]","[1,1,1]","[-0.09734210980487196,0.11942127505181163]","[1,1,1]","[-0.07812559076400459,0.01243918814563487]","[1,1,1]","[-0.06316198469211391,0.09447248818960441]","[1,1,1]","[0.06936208132338334,-0.1608340827111808]","[1,1,1]","[0.1701079401271892,0.05138736598422829]","[1,1,1]","[0.13327329328218626,0.019237341258581946]","[1,1,1]","[-0.1467564349513051,0.027034131181857986]","[1,1,1]","[-0.13106087214536458,-0.032180573760548496]","[1,1,1]","[0.028581797554423638,-0.13527327593624883]","[1,1,1]","[-0.07208019235496897,-0.07542775286894385]","[1,1,1]","[0.012867560088788083,0.07335422425196826]","[1,1,1]","[0.10946888679626905,0.15437794199692542]","[1,1,1]","[0.11609407832486322,-0.1364715816429648]","[-1,-1,-1]","[0.034096112915512684,0.11612860375139082]","[1,1,1]","[-0.13469103316609907,0.08341484270280565]","[1,1,1]","[-0.17338075312115628,-0.020787643570819938]","[1,1,1]","[-0.18782523940723195,0.05535019128393012]","[1,1,1]","[0.1692101114063615,0.10329350973056001]","[-1,-1,-1]","[0.08804914456161692,0.017442355726665092]","[1,1,1]","[-0.13729500857770646,-0.13621771408356825]","[1,1,1]","[0.042434230628886224,-0.055644820939132936]","[1,1,1]","[-0.026417653330788507,0.044768677735220065]","[1,1,1]","[0.030929965074128905,-0.1833209355219281]","[1,1,1]","[0.016582747881823876,0.17183853114978648]","[-1,-1,-1]","[0.02,0.02]",352.6381,0,36,36,201,1,,,,,,,
,,,,,,,67e8891f804abbe65ff993ad,68317a63a5a38dd7eba645da,2025-05-23_23h52.39.796,cuing_paradigm_dot,2024.1.5,Win32,59.52380952,682d573fa47f1360d1451895,,,,,,,,,,,352.6389,353.138,,,353.3881,353.7874,right,,,,,,,,0.6,0.3862,,,,,,,353.138,353.388,353.7875,"[0.11994630050150294,-0.041009003142440284]","[1,1,1]","[-0.04118590512317611,-0.18281826448915847]","[1,1,1]","[0.10350143448399995,0.06018323927069039]","[1,1,1]","[-0.05083000346582373,0.10742518577266563]","[1,1,1]","[0.03840042027662498,0.1064852172800778]","[1,1,1]","[0.17047123256566377,0.025440309911327084]","[1,1,1]","[-0.008019566961784678,-0.1064980793065344]","[1,1,1]","[0.12721552685457013,0.10737365354211399]","[-1,-1,-1]","[0.046902114155531416,0.16739680206401844]","[1,1,1]","[0.07879820046865649,-0.058252763860365965]","[1,1,1]","[0.001623515822379931,-0.02676824497420068]","[-1,-1,-1]","[0.020629533294350005,-0.1385720617537355]","[-1,-1,-1]","[-0.11134219385609041,0.15017452280679963]","[1,1,1]","[-0.11759289960674855,-0.11049347166846349]","[-1,-1,-1]","[-0.1216429827732997,0.10340101073667031]","[1,1,1]","[-0.06396953998909742,-0.13456523132272574]","[1,1,1]","[0.16541218493158574,-0.07605539162408269]","[1,1,1]","[0.0499143556715251,0.012020646219108644]","[1,1,1]","[-0.045231178961112964,-0.018413431879911728]","[1,1,1]","[-0.057403615441204606,0.04776364861387939]","[-1,-1,-1]","[-0.18261674822913398,0.06052920457163332]","[1,1,1]","[-0.10066212238256546,-0.1525686937157217]","[1,1,1]","[0.12525013395933807,-0.12741713814872468]","[-1,-1,-1]","[0.09311313708010661,0.13716543635810816]","[-1,-1,-1]","[-0.1734659655764815,-0.05489417664633487]","[-1,-1,-1]","[0.03631146525086431,0.057625778655210305]","[-1,-1,-1]","[-0.0054422635271988975,0.07882279610238481]","[-1,-1,-1]","[-0.11412058871557158,0.03800663048615825]","[-1,-1,-1]","[-0.05575019145782185,-0.06752640868276014]","[-1,-1,-1]","[-0.08173133314584727,0.08139195254168112]","[1,1,1]","[0.18294448017878676,-0.022876097046258724]","[-1,-1,-1]","[0.07448627820813856,0.08891724575681667]","[1,1,1]","[0.02,0.02]",354.8872,0,37,37,168,1,,,,,,,
,,,,,,,67e8891f804abbe65ff993ad,68317a63a5a38dd7eba645da,2025-05-23_23h52.39.796,cuing_paradigm_dot,2024.1.5,Win32,59.52380952,682d573fa47f1360d1451895,,,,,,,,,,,354.8877,355.3871,,,355.6379,356.187,left,,,,,,,,0.55,0.5275,,,,,,,355.3872,355.6379,356.187,"[-0.044485309773201705,0.00592542871387037]","[-1,-1,-1]","[0.16753276442728068,-0.0023656368997179177]","[-1,-1,-1]","[-0.009411007387243148,-0.05361365965410032]","[1,1,1]","[0.05972614042776143,-0.10955451927869789]","[-1,-1,-1]","[0.1263667244651233,0.06375273241304487]","[1,1,1]","[0.03589148101822648,0.18172299061714084]","[-1,-1,-1]","[0.12337385565116622,0.018013904510817285]","[1,1,1]","[0.17328520791618496,0.09368136724147293]","[1,1,1]","[0.1275936544011371,0.14749465532507838]","[1,1,1]","[-0.05625140353968207,0.16009948994392542]","[-1,-1,-1]","[-0.10801047169202169,0.024966910734921993]","[1,1,1]","[0.05389288055896412,0.10193384999860751]","[-1,-1,-1]","[-0.1199289399076815,-0.01698303349090801]","[-1,-1,-1]","[0.17253202082427033,0.049087163822684785]","[1,1,1]","[0.0029549065473746085,0.11986484670901099]","[1,1,1]","[0.030763827089040217,0.04609092146165293]","[-1,-1,-1]","[-0.09552416897503162,-0.13492411202280996]","[1,1,1]","[-0.018769022448550495,-0.13110855828894544]","[1,1,1]","[-0.12008471756084911,0.08272530039485679]","[1,1,1]","[-0.15924740964070877,-0.05878335822059867]","[-1,-1,-1]","[0.13847271702835828,-0.13264539571044526]","[-1,-1,-1]","[-0.05401137285486595,0.088961980780249]","[1,1,1]","[-0.0074569905077919345,0.18932477280274446]","[1,1,1]","[0.08892818359489918,0.165941112876423]","[1,1,1]","[0.052806216166706985,-0.0550249774011909]","[1,1,1]","[-0.1038017777916417,0.14728993248052785]","[-1,-1,-1]","[-0.09917501763239935,-0.0679552176794744]","[1,1,1]","[0.032235917645023086,-0.16325559019538202]","[-1,-1,-1]","[0.0252314289717873,-0.017582312473656287]","[-1,-1,-1]","[-0.0514881738716592,-0.17056572280506685]","[-1,-1,-1]","[0.07061369007692303,0.05067830492542296]","[1,1,1]","[0.11040313468316387,-0.16484264678180305]","[1,1,1]","[0.02,0.02]",357.2866,0,38,38,135,1,,,,,,,
,,,,,,,67e8891f804abbe65ff993ad,68317a63a5a38dd7eba645da,2025-05-23_23h52.39.796,cuing_paradigm_dot,2024.1.5,Win32,59.52380952,682d573fa47f1360d1451895,,,,,,,,,,,357.2873,357.7868,,,358.0374,358.7029,left,,,,,,,,0.6,0.6343,,,,,,,357.7868,358.0374,358.703,"[-0.1383854348334269,-0.09673670037145093]","[-1,-1,-1]","[0.09370853339161983,0.01922938750080308]","[-1,-1,-1]","[-0.0953580814543098,-0.14781836132324044]","[-1,-1,-1]","[0.029052222482905895,0.04382384656443403]","[-1,-1,-1]","[-0.11281064940138409,0.08091740377166609]","[1,1,1]","[0.053752930715944225,0.18564149463489524]","[-1,-1,-1]","[0.05301922684521834,0.10363182756002091]","[1,1,1]","[0.18621461270000167,-0.057258536406793105]","[-1,-1,-1]","[-0.04168460637241849,0.08714291743765423]","[1,1,1]","[-0.07241536936430956,-0.03136155562958896]","[-1,-1,-1]","[0.14525727154185838,-0.09190318321736299]","[-1,-1,-1]","[-0.013268289656580941,-0.026338366100719043]","[1,1,1]","[-0.015036956193339144,0.18426251750267605]","[-1,-1,-1]","[-0.18458904193112938,-0.002698622451593476]","[1,1,1]","[-0.033184859794499595,-0.0915471664369244]","[1,1,1]","[0.06416773373486152,-0.15610652139740103]","[1,1,1]","[-0.07920930319889283,-0.07752538342755841]","[1,1,1]","[-0.09463032159252031,0.009857729853515285]","[-1,-1,-1]","[0.061346057228400114,-0.052174266328321936]","[1,1,1]","[-0.1415789368252974,-0.05616114444238267]","[-1,-1,-1]","[-0.10968380319187801,0.16287523408464996]","[1,1,1]","[0.11518376532958027,0.08498471530746866]","[1,1,1]","[-0.04816598899428402,-0.1715640402284829]","[-1,-1,-1]","[-0.1570950847923638,0.052948182035612516]","[1,1,1]","[-0.14449870651803884,0.11726247973643279]","[1,1,1]","[-0.03484962691442798,0.009706687302622702]","[1,1,1]","[0.10726139575759612,0.16310210483870277]","[1,1,1]","[-0.0013827328988071032,0.11461839971283203]","[1,1,1]","[0.004586918411792581,-0.10687520689544172]","[-1,-1,-1]","[0.18066103650683,0.07556811445578172]","[1,1,1]","[-0.06277445835504881,0.17664543788014334]","[1,1,1]","[-0.07224776469959222,0.12877063227309624]","[1,1,1]","[0.02,0.02]",359.8026,0,39,39,177,1,,,,,,,
,,,,,,,67e8891f804abbe65ff993ad,68317a63a5a38dd7eba645da,2025-05-23_23h52.39.796,cuing_paradigm_dot,2024.1.5,Win32,59.52380952,682d573fa47f1360d1451895,,,,,,,,,,,359.8036,360.3028,,,360.5533,361.0023,right,,,,,,,,0.45,0.4349,,,,,,,360.3029,360.5532,361.0024,"[-0.17481938683476708,0.02382235557941127]","[-1,-1,-1]","[-0.13172891877186155,0.04268835441826766]","[-1,-1,-1]","[0.06197687756209727,0.04180669172012436]","[-1,-1,-1]","[0.008235979741997843,-0.17533134328543995]","[-1,-1,-1]","[-0.008947801633226553,-0.054813985603210796]","[1,1,1]","[0.009589012913083573,0.05404166582425242]","[-1,-1,-1]","[-0.041203315123907576,0.1517736863372399]","[-1,-1,-1]","[-0.09947116333565878,0.013235565339111204]","[1,1,1]","[0.0035165110928683583,-0.01122757134132162]","[-1,-1,-1]","[0.0261680526412462,-0.10916652451398304]","[1,1,1]","[0.1362311987733021,0.09298589218237219]","[-1,-1,-1]","[0.03203562194732642,0.14286814845611018]","[-1,-1,-1]","[-0.11035407968921722,-0.1437176365629929]","[1,1,1]","[-0.07342574848121772,0.04569802733017634]","[-1,-1,-1]","[0.11083363352461287,-0.009598946947664872]","[-1,-1,-1]","[0.07232912478416201,-0.05517033559537326]","[1,1,1]","[-0.029888222502794826,0.020307548232842077]","[1,1,1]","[0.09370165171337429,-0.12333620197135563]","[-1,-1,-1]","[-0.07781587474972995,-0.04375576216753666]","[1,1,1]","[0.16266883599505075,-0.012315650608133465]","[-1,-1,-1]","[-0.11682815686856865,0.08798947951556779]","[-1,-1,-1]","[-0.10749096565678583,0.14950057127862618]","[-1,-1,-1]","[0.15924312460395895,-0.06803228657744302]","[-1,-1,-1]","[-0.15277112954822977,-0.10197890843566437]","[1,1,1]","[-0.14466987026115666,-0.03659666394667739]","[1,1,1]","[0.08207424960913726,0.17013132052208726]","[1,1,1]","[0.09588204276012305,0.12212316548704004]","[-1,-1,-1]","[0.11777513506874003,-0.05063763423613719]","[1,1,1]","[0.036756577859458364,0.19261760875576217]","[1,1,1]","[-0.15896160302034915,0.0891333313260402]","[1,1,1]","[0.16188339268490276,0.05363122684309144]","[-1,-1,-1]","[-0.01577869927258039,-0.12120649842275284]","[1,1,1]","[0.02,0.02]",362.1023,0,40,40,65,1,,,,,,,
,,,,,,,67e8891f804abbe65ff993ad,68317a63a5a38dd7eba645da,2025-05-23_23h52.39.796,cuing_paradigm_dot,2024.1.5,Win32,59.52380952,682d573fa47f1360d1451895,,,,,,,,,,,362.1032,362.6019,,,362.8527,363.4353,left,,,,,,,,0.6,0.5525,,,,,,,362.602,362.8526,363.4353,"[-0.034034846419099055,-0.1950640016191801]","[1,1,1]","[-0.10029091922653606,0.055541355818325235]","[-1,-1,-1]","[0.012715477363285129,0.0463004818806258]","[-1,-1,-1]","[0.008604186745552389,-0.007846480288471812]","[1,1,1]","[0.07012804133052525,0.00927336641655841]","[-1,-1,-1]","[-0.18561580794001734,0.04141869266818423]","[1,1,1]","[-0.0516755610924776,0.13326783578767057]","[1,1,1]","[-0.038753757167773066,0.0903135377400647]","[1,1,1]","[0.14657926582553787,-0.036224348691714564]","[-1,-1,-1]","[-0.05934036981197201,-0.01664376085791836]","[-1,-1,-1]","[-0.149598985457317,0.08740952457192633]","[1,1,1]","[0.004052066351740488,-0.13255573717535488]","[1,1,1]","[0.10455049872869988,0.08022988391010305]","[-1,-1,-1]","[-0.026121993788110955,-0.09434810135884013]","[1,1,1]","[0.02202895203897598,0.1929728439344659]","[-1,-1,-1]","[-0.11712939486124904,-0.01583731052090674]","[-1,-1,-1]","[-0.11448169489058274,0.14645034232812426]","[-1,-1,-1]","[0.05400683741318112,-0.09470399704427802]","[1,1,1]","[-0.07086385528820478,-0.05517108396321878]","[1,1,1]","[-0.02717717844455038,0.03097113709181126]","[1,1,1]","[0.1026106702805469,-0.14621428266097888]","[1,1,1]","[0.04124120525162007,0.12750848899170153]","[1,1,1]","[0.1662347422520907,0.03725725627000232]","[1,1,1]","[0.11911828147381194,-0.07580322686161095]","[1,1,1]","[-0.14130128282483773,-0.07865122952340896]","[1,1,1]","[0.05426263890782951,-0.1870476405340425]","[-1,-1,-1]","[0.15698687083663868,0.08500289435668595]","[-1,-1,-1]","[0.12257808270788402,0.13527542649077692]","[-1,-1,-1]","[-0.08152512498838195,-0.10754879286465903]","[-1,-1,-1]","[-0.04431323950672639,0.18387769700770423]","[1,1,1]","[-0.045231519396613226,-0.15155622709405414]","[1,1,1]","[-0.005871606492517565,0.15631892745672493]","[1,1,1]","[0.02,0.02]",364.5352,0,41,41,159,1,,,,,,,
,,,,,,,67e8891f804abbe65ff993ad,68317a63a5a38dd7eba645da,2025-05-23_23h52.39.796,cuing_paradigm_dot,2024.1.5,Win32,59.52380952,682d573fa47f1360d1451895,,,,,,,,,,,364.5359,365.035,,,365.2854,365.885,right,,,,,,,,0.6,0.569,,,,,,,365.0351,365.2853,365.8851,"[0.14916980143783282,0.051952607093057865]","[1,1,1]","[-0.15363853998783142,-0.05220311975683723]","[1,1,1]","[0.06846863222750517,-0.0029393347382036202]","[-1,-1,-1]","[0.19649686444145503,0.016332520927247768]","[1,1,1]","[0.04430195262337759,-0.11764616366181752]","[1,1,1]","[0.15386511364490826,-0.024726642492647184]","[-1,-1,-1]","[0.03624788122287224,-0.18199605417176024]","[1,1,1]","[-0.007449463109303955,-0.10969377389746036]","[-1,-1,-1]","[-0.17383997278370075,0.018255368118380886]","[-1,-1,-1]","[0.0953084677786088,0.16286441657974723]","[1,1,1]","[0.020808543817000605,0.08754778622395559]","[1,1,1]","[0.006801767086195514,-0.03178600243068512]","[1,1,1]","[0.025818742966727645,0.1453665446207106]","[-1,-1,-1]","[0.08180896067622924,0.059276770930513464]","[1,1,1]","[-0.06148759061592863,0.0794245806004909]","[-1,-1,-1]","[-0.03304914505617391,-0.00043380965005813987]","[1,1,1]","[-0.15986508601153615,-0.09749455380331563]","[1,1,1]","[-0.12266896065319208,0.14949966967352418]","[-1,-1,-1]","[-0.08374358050459033,-0.12519181876614718]","[1,1,1]","[-0.10574161961112534,0.1066508899776709]","[-1,-1,-1]","[-0.023992266984205608,-0.19403765508157814]","[-1,-1,-1]","[-0.12193445192255359,0.01739602610395206]","[1,1,1]","[-0.0027207395158589205,0.17409077164041017]","[-1,-1,-1]","[0.08199179449010742,-0.10308106716335871]","[1,1,1]","[-0.10026118236336548,-0.018234976879239126]","[1,1,1]","[0.12760018258882802,0.11078981795320587]","[1,1,1]","[0.051322743212280995,-0.044892029382629775]","[-1,-1,-1]","[0.12277090548502251,0.015008168213338028]","[1,1,1]","[0.1803990801713433,-0.05981858181849406]","[1,1,1]","[-0.173927944150446,0.09284195116918965]","[1,1,1]","[-0.1466081133770299,0.06361266661312096]","[-1,-1,-1]","[0.09785286594479652,-0.061731962455253]","[-1,-1,-1]","[0.02,0.02]",366.9843,0,42,42,175,1,,,,,,,
,,,,,,,67e8891f804abbe65ff993ad,68317a63a5a38dd7eba645da,2025-05-23_23h52.39.796,cuing_paradigm_dot,2024.1.5,Win32,59.52380952,682d573fa47f1360d1451895,,,,,,,,,,,366.985,367.4843,,,367.7351,368.2337,left,,,,,,,,0.45,0.4674,,,,,,,367.4843,367.735,368.2338,"[0.12909150715704543,0.03925656496831806]","[-1,-1,-1]","[-0.06454782830528955,-0.06949795393397307]","[-1,-1,-1]","[0.03232914936446983,0.0037497757273901085]","[-1,-1,-1]","[-0.10698711703020221,-0.007638476874814577]","[-1,-1,-1]","[0.012667287871543118,-0.16154359111010527]","[-1,-1,-1]","[0.02464583085390319,0.14368233646400114]","[1,1,1]","[0.08949840342677357,0.091253524149514]","[1,1,1]","[-0.15645861315855722,0.04625289530856769]","[1,1,1]","[0.08398093046165328,-0.11956953542132248]","[1,1,1]","[0.13508082227020912,-0.00839867835542006]","[-1,-1,-1]","[0.006669433182365703,0.19843532541127137]","[1,1,1]","[-0.07990317503258564,0.06394483108534645]","[-1,-1,-1]","[-0.11950350997671032,-0.13417213274596318]","[1,1,1]","[-0.14697013530679054,0.11055610629453202]","[1,1,1]","[-0.060407495098826994,-0.18884248841884324]","[1,1,1]","[0.19455226823094462,-0.03476573971521093]","[-1,-1,-1]","[-0.14504976923130863,-0.03779662340362926]","[-1,-1,-1]","[0.13755553274290414,0.11817712692826925]","[-1,-1,-1]","[0.104574139143217,-0.15435266932671468]","[1,1,1]","[0.04272171076171854,-0.11422927973088788]","[-1,-1,-1]","[-0.02408051008603551,-0.09388954968731751]","[1,1,1]","[0.07766852866399825,0.01051956178447905]","[-1,-1,-1]","[-0.14431547422333452,0.0075119604353226415]","[1,1,1]","[-0.033567323532014866,0.13446345068362434]","[-1,-1,-1]","[0.06668383641574625,-0.052154993307265585]","[1,1,1]","[0.03763528530348772,0.07343344699585395]","[1,1,1]","[-0.049997188585069394,0.18007183328710544]","[-1,-1,-1]","[0.06755997295874726,0.12596079122193357]","[1,1,1]","[-0.026425315779641897,0.009366940770619036]","[-1,-1,-1]","[0.10800346392455135,-0.047699262990573865]","[-1,-1,-1]","[-0.10628885174699804,0.11259879098633985]","[-1,-1,-1]","[-0.06754030341318318,-0.0006495986548994453]","[-1,-1,-1]","[0.02,0.02]",369.3338,0,43,43,74,1,,,,,,,
,,,,,,,67e8891f804abbe65ff993ad,68317a63a5a38dd7eba645da,2025-05-23_23h52.39.796,cuing_paradigm_dot,2024.1.5,Win32,59.52380952,682d573fa47f1360d1451895,,,,,,,,,,,369.3345,369.8339,,,370.084,370.7671,right,,,,,,,,0.45,0.653,,,,,,,369.834,370.0839,370.7673,"[-0.011428447273224914,-0.173697774323166]","[1,1,1]","[0.10605590857826441,-0.14135829748945136]","[-1,-1,-1]","[-0.12240816630999228,0.13796837041348534]","[1,1,1]","[0.0804477387635469,-0.0032423754392002456]","[-1,-1,-1]","[0.007275157795354868,-0.12086799996620096]","[1,1,1]","[-0.047336141348656144,-0.04626312225939094]","[1,1,1]","[-0.004352702374157749,0.14599599209528294]","[1,1,1]","[0.09633558698787571,0.13774257541584733]","[1,1,1]","[-0.030926769751555564,0.041205108076091554]","[-1,-1,-1]","[-0.12411889826922039,-0.13102706687355337]","[-1,-1,-1]","[0.16694422802328412,-0.042359542743868585]","[1,1,1]","[0.1533922503878026,0.0682201349954971]","[-1,-1,-1]","[0.06561605082429438,-0.08552826266297263]","[-1,-1,-1]","[0.15394645407987168,0.12278287687224532]","[1,1,1]","[0.07808976321566044,-0.17672758816597256]","[1,1,1]","[-0.05257654249711481,0.09349996273848393]","[-1,-1,-1]","[0.07268861899315275,0.037395941839734145]","[-1,-1,-1]","[-0.0784481781224014,0.152949808499572]","[-1,-1,-1]","[-0.09990297725919137,0.015621969114173967]","[-1,-1,-1]","[0.06672223910445896,0.10727319803624022]","[-1,-1,-1]","[-0.08204986450919997,-0.1440068845160962]","[1,1,1]","[-0.18501568664903945,-0.03572519634502976]","[-1,-1,-1]","[0.04055984966537235,-0.15440451350393214]","[-1,-1,-1]","[0.0049548093473255825,0.008696332746663002]","[1,1,1]","[0.02351511080079053,-0.029346580529112345]","[-1,-1,-1]","[-0.12246974102081432,-0.05888842838438223]","[-1,-1,-1]","[0.04422274400958624,0.14211386404527507]","[1,1,1]","[-0.10536460111466435,0.09134165781119782]","[-1,-1,-1]","[0.04639692980987119,0.06831173275573364]","[-1,-1,-1]","[-0.15108718094944087,0.007141873185080275]","[1,1,1]","[0.10377673449889366,0.06878157002921925]","[1,1,1]","[0.10186164268879813,-0.04761717064219408]","[-1,-1,-1]","[0.02,0.02]",371.8664,0,44,44,82,1,,,,,,,
