right,left,explain.started,explain.stopped,key_resp_3.keys,key_resp_3.rt,key_resp_3.duration,participant,session,date,expName,psychopyVersion,OS,frameRate,study_id,explain_2.started,explain_2.stopped,key_resp_4.keys,key_resp_4.rt,key_resp_4.duration,explain_3.started,explain_3.stopped,key_resp_5.keys,key_resp_5.rt,key_resp_5.duration,fixation.started,fixation.stopped,practice.started,practice.stopped,response.started,response.stopped,key_resp.keys,feedback.started,feedback.stopped,trials_2.thisRepN,trials_2.thisTrialN,trials_2.thisN,trials_2.thisIndex,trials_2.ran,white_ratio,explain_4.started,explain_4.stopped,key_resp_6.keys,key_resp_6.rt,key_resp_6.duration,dotDisplay.started,dotDisplay.stopped,key_resp.rt,key_resp.duration,ITI.started,ITI.stopped,trials.thisRepN,trials.thisTrialN,trials.thisN,trials.thisIndex,trials.ran,break_2.started,break_2.stopped,trials_3.thisRepN,trials_3.thisTrialN,trials_3.thisN,trials_3.thisIndex,trials_3.ran
subject chose white,subject chose black,0.0015,56.3551,space,41.3075,0.0137,67daae91f4057c50a9fd19fc,682530fd1893e63b4b947f44,2025-05-15_02h14.26.140,cuing_paradigm_dot,2024.1.5,Linux armv81,59.52380952,68242c07d0c0e200c6451fdd,,,,,,,,,,,,,,,,,,,,,,,,,,,,,,,,,,,,,,,,,,,,,,,,
,,,,,,,67daae91f4057c50a9fd19fc,682530fd1893e63b4b947f44,2025-05-15_02h14.26.140,cuing_paradigm_dot,2024.1.5,Linux armv81,59.52380952,68242c07d0c0e200c6451fdd,56.3578,87.0405,space,0.6639,0.0008,,,,,,,,,,,,,,,,,,,,,,,,,,,,,,,,,,,,,,,,,,,
,,,,,,,67daae91f4057c50a9fd19fc,682530fd1893e63b4b947f44,2025-05-15_02h14.26.140,cuing_paradigm_dot,2024.1.5,Linux armv81,59.52380952,68242c07d0c0e200c6451fdd,,,,,,87.0413,92.8549,space,2.7944,0.0008,,,,,,,,,,,,,,,,,,,,,,,,,,,,,,,,,,,,,,
,,,,,,,67daae91f4057c50a9fd19fc,682530fd1893e63b4b947f44,2025-05-15_02h14.26.140,cuing_paradigm_dot,2024.1.5,Linux armv81,59.52380952,68242c07d0c0e200c6451fdd,,,,,,,,,,,93.0706,93.369,93.3706,93.5694,93.5703,95.0747,,95.0771,96.1686,0,0,0,0,1,0.8,,,,,,,,,,,,,,,,,,,,,,,
,,,,,,,67daae91f4057c50a9fd19fc,682530fd1893e63b4b947f44,2025-05-15_02h14.26.140,cuing_paradigm_dot,2024.1.5,Linux armv81,59.52380952,68242c07d0c0e200c6451fdd,,,,,,,,,,,96.1723,96.6664,96.6668,96.8361,96.8374,98.3335,,98.335,99.437,0,1,1,1,1,0.2,,,,,,,,,,,,,,,,,,,,,,,
,,,,,,,67daae91f4057c50a9fd19fc,682530fd1893e63b4b947f44,2025-05-15_02h14.26.140,cuing_paradigm_dot,2024.1.5,Linux armv81,59.52380952,68242c07d0c0e200c6451fdd,,,,,,,,,,,,,,,,,,,,,,,,,,99.4403,105.12,space,2.6677,0.0011,,,,,,,,,,,,,,,,,,
,,,,,,,67daae91f4057c50a9fd19fc,682530fd1893e63b4b947f44,2025-05-15_02h14.26.140,cuing_paradigm_dot,2024.1.5,Linux armv81,59.52380952,68242c07d0c0e200c6451fdd,,,,,,,,,,,105.3059,105.6278,,,105.8247,107.0055,left,,,,,,,,0.55,,,,,,105.6293,105.8245,1.1448,0.0165,107.0061,108.1226,0,0,0,143,1,,,,,,,
,,,,,,,67daae91f4057c50a9fd19fc,682530fd1893e63b4b947f44,2025-05-15_02h14.26.140,cuing_paradigm_dot,2024.1.5,Linux armv81,59.52380952,68242c07d0c0e200c6451fdd,,,,,,,,,,,108.1243,108.6092,,,108.8755,110.3621,,,,,,,,,0.5,,,,,,108.6101,108.8752,,,110.3622,111.4604,0,1,1,92,1,,,,,,,
,,,,,,,67daae91f4057c50a9fd19fc,682530fd1893e63b4b947f44,2025-05-15_02h14.26.140,cuing_paradigm_dot,2024.1.5,Linux armv81,59.52380952,68242c07d0c0e200c6451fdd,,,,,,,,,,,111.4621,111.9622,,,112.2072,112.9875,left,,,,,,,,0.1,,,,,,111.9624,112.207,0.761,,112.9885,114.0902,0,2,2,17,1,,,,,,,
,,,,,,,67daae91f4057c50a9fd19fc,682530fd1893e63b4b947f44,2025-05-15_02h14.26.140,cuing_paradigm_dot,2024.1.5,Linux armv81,59.52380952,68242c07d0c0e200c6451fdd,,,,,,,,,,,114.0924,114.5942,,,114.8455,115.5254,right,,,,,,,,0.9,,,,,,114.5951,114.8453,0.6614,,115.5264,116.6129,0,3,3,196,1,,,,,,,
,,,,,,,67daae91f4057c50a9fd19fc,682530fd1893e63b4b947f44,2025-05-15_02h14.26.140,cuing_paradigm_dot,2024.1.5,Linux armv81,59.52380952,68242c07d0c0e200c6451fdd,,,,,,,,,,,116.6168,117.1343,,,117.3927,117.9392,right,,,,,,,,0.55,,,,,,117.1352,117.3924,0.52,,117.9417,119.0478,0,4,4,129,1,,,,,,,
,,,,,,,67daae91f4057c50a9fd19fc,682530fd1893e63b4b947f44,2025-05-15_02h14.26.140,cuing_paradigm_dot,2024.1.5,Linux armv81,59.52380952,68242c07d0c0e200c6451fdd,,,,,,,,,,,119.049,119.5488,,,119.7977,120.4254,left,,,,,,,,0.1,,,,,,119.5489,119.7976,0.6122,,120.4256,121.5143,0,5,5,5,1,,,,,,,
,,,,,,,67daae91f4057c50a9fd19fc,682530fd1893e63b4b947f44,2025-05-15_02h14.26.140,cuing_paradigm_dot,2024.1.5,Linux armv81,59.52380952,68242c07d0c0e200c6451fdd,,,,,,,,,,,121.5156,122.0519,,,122.2078,122.8694,right,,,,,,,,0.45,,,,,,122.052,122.2072,0.6412,,122.8696,123.9784,0,6,6,75,1,,,,,,,
,,,,,,,67daae91f4057c50a9fd19fc,682530fd1893e63b4b947f44,2025-05-15_02h14.26.140,cuing_paradigm_dot,2024.1.5,Linux armv81,59.52380952,68242c07d0c0e200c6451fdd,,,,,,,,,,,123.9826,124.4846,,,124.7293,125.2326,right,,,,,,,,0.6,,,,,,124.4853,124.7291,0.4799,0.0007,125.233,126.3309,0,7,7,175,1,,,,,,,
,,,,,,,67daae91f4057c50a9fd19fc,682530fd1893e63b4b947f44,2025-05-15_02h14.26.140,cuing_paradigm_dot,2024.1.5,Linux armv81,59.52380952,68242c07d0c0e200c6451fdd,,,,,,,,,,,126.3321,126.8303,,,127.0894,127.8188,right,,,,,,,,0.45,,,,,,126.8304,127.0892,0.7117,,127.819,128.9074,0,8,8,73,1,,,,,,,
,,,,,,,67daae91f4057c50a9fd19fc,682530fd1893e63b4b947f44,2025-05-15_02h14.26.140,cuing_paradigm_dot,2024.1.5,Linux armv81,59.52380952,68242c07d0c0e200c6451fdd,,,,,,,,,,,128.909,129.4109,,,129.6463,130.1593,right,,,,,,,,0.6,,,,,,129.4112,129.646,0.4878,,130.1595,131.2411,0,9,9,178,1,,,,,,,
,,,,,,,67daae91f4057c50a9fd19fc,682530fd1893e63b4b947f44,2025-05-15_02h14.26.140,cuing_paradigm_dot,2024.1.5,Linux armv81,59.52380952,68242c07d0c0e200c6451fdd,,,,,,,,,,,131.2437,131.7468,,,131.9933,132.5965,right,,,,,,,,0.6,,,,,,131.7469,131.9931,0.5861,,132.5967,133.7042,0,10,10,153,1,,,,,,,
,,,,,,,67daae91f4057c50a9fd19fc,682530fd1893e63b4b947f44,2025-05-15_02h14.26.140,cuing_paradigm_dot,2024.1.5,Linux armv81,59.52380952,68242c07d0c0e200c6451fdd,,,,,,,,,,,133.7071,134.1965,,,134.4406,134.9298,right,,,,,,,,0.6,,,,,,134.1974,134.4405,0.464,,134.93,136.0257,0,11,11,161,1,,,,,,,
,,,,,,,67daae91f4057c50a9fd19fc,682530fd1893e63b4b947f44,2025-05-15_02h14.26.140,cuing_paradigm_dot,2024.1.5,Linux armv81,59.52380952,68242c07d0c0e200c6451fdd,,,,,,,,,,,136.0277,136.5237,,,136.6969,137.6064,left,,,,,,,,0.4,,,,,,136.5238,136.6964,0.8821,,137.6066,138.7076,0,12,12,46,1,,,,,,,
,,,,,,,67daae91f4057c50a9fd19fc,682530fd1893e63b4b947f44,2025-05-15_02h14.26.140,cuing_paradigm_dot,2024.1.5,Linux armv81,59.52380952,68242c07d0c0e200c6451fdd,,,,,,,,,,,138.709,139.2125,,,139.4485,139.9837,right,,,,,,,,0.5,,,,,,139.2126,139.4484,0.5179,,139.9838,141.0743,0,13,13,117,1,,,,,,,
,,,,,,,67daae91f4057c50a9fd19fc,682530fd1893e63b4b947f44,2025-05-15_02h14.26.140,cuing_paradigm_dot,2024.1.5,Linux armv81,59.52380952,68242c07d0c0e200c6451fdd,,,,,,,,,,,141.0757,141.5756,,,141.8246,142.4111,right,,,,,,,,0.5,,,,,,141.5759,141.8244,0.5726,,142.4112,143.5171,0,14,14,97,1,,,,,,,
,,,,,,,67daae91f4057c50a9fd19fc,682530fd1893e63b4b947f44,2025-05-15_02h14.26.140,cuing_paradigm_dot,2024.1.5,Linux armv81,59.52380952,68242c07d0c0e200c6451fdd,,,,,,,,,,,143.5182,144.0262,,,144.2734,144.9063,left,,,,,,,,0.4,,,,,,144.0264,144.2734,0.6166,,144.9065,145.9964,0,15,15,49,1,,,,,,,
,,,,,,,67daae91f4057c50a9fd19fc,682530fd1893e63b4b947f44,2025-05-15_02h14.26.140,cuing_paradigm_dot,2024.1.5,Linux armv81,59.52380952,68242c07d0c0e200c6451fdd,,,,,,,,,,,145.9979,146.4919,,,146.745,147.4305,right,,,,,,,,0.5,,,,,,146.4921,146.7449,0.6664,,147.4306,148.5317,0,16,16,106,1,,,,,,,
,,,,,,,67daae91f4057c50a9fd19fc,682530fd1893e63b4b947f44,2025-05-15_02h14.26.140,cuing_paradigm_dot,2024.1.5,Linux armv81,59.52380952,68242c07d0c0e200c6451fdd,,,,,,,,,,,148.5389,149.0279,,,149.2603,150.03,left,,,,,,,,0.5,,,,,,149.0281,149.2601,0.748,,150.0303,151.1314,0,17,17,104,1,,,,,,,
,,,,,,,67daae91f4057c50a9fd19fc,682530fd1893e63b4b947f44,2025-05-15_02h14.26.140,cuing_paradigm_dot,2024.1.5,Linux armv81,59.52380952,68242c07d0c0e200c6451fdd,,,,,,,,,,,151.1341,151.6417,,,151.8749,152.4923,right,,,,,,,,0.45,,,,,,151.6421,151.8746,0.5943,,152.4925,153.5823,0,18,18,82,1,,,,,,,
,,,,,,,67daae91f4057c50a9fd19fc,682530fd1893e63b4b947f44,2025-05-15_02h14.26.140,cuing_paradigm_dot,2024.1.5,Linux armv81,59.52380952,68242c07d0c0e200c6451fdd,,,,,,,,,,,153.5848,154.0925,,,154.3335,154.9708,right,,,,,,,,0.45,,,,,,154.0929,154.3332,0.6178,,154.971,156.0725,0,19,19,89,1,,,,,,,
,,,,,,,67daae91f4057c50a9fd19fc,682530fd1893e63b4b947f44,2025-05-15_02h14.26.140,cuing_paradigm_dot,2024.1.5,Linux armv81,59.52380952,68242c07d0c0e200c6451fdd,,,,,,,,,,,156.0745,156.5737,,,156.8281,157.401,right,,,,,,,,0.6,,,,,,156.574,156.828,0.5497,,157.4014,158.4886,0,20,20,166,1,,,,,,,
,,,,,,,67daae91f4057c50a9fd19fc,682530fd1893e63b4b947f44,2025-05-15_02h14.26.140,cuing_paradigm_dot,2024.1.5,Linux armv81,59.52380952,68242c07d0c0e200c6451fdd,,,,,,,,,,,158.4906,158.9996,,,159.2488,159.9839,right,,,,,,,,0.55,,,,,,158.9999,159.2486,0.7135,,159.9842,161.0837,0,21,21,125,1,,,,,,,
,,,,,,,67daae91f4057c50a9fd19fc,682530fd1893e63b4b947f44,2025-05-15_02h14.26.140,cuing_paradigm_dot,2024.1.5,Linux armv81,59.52380952,68242c07d0c0e200c6451fdd,,,,,,,,,,,161.0858,161.5855,,,161.8284,162.6597,right,,,,,,,,0.6,,,,,,161.5857,161.8282,0.8054,,162.66,163.7549,0,22,22,160,1,,,,,,,
,,,,,,,67daae91f4057c50a9fd19fc,682530fd1893e63b4b947f44,2025-05-15_02h14.26.140,cuing_paradigm_dot,2024.1.5,Linux armv81,59.52380952,68242c07d0c0e200c6451fdd,,,,,,,,,,,163.7569,164.2572,,,164.4977,165.0656,left,,,,,,,,0.1,,,,,,164.2573,164.4975,0.5426,,165.0661,166.1624,0,23,23,8,1,,,,,,,
,,,,,,,67daae91f4057c50a9fd19fc,682530fd1893e63b4b947f44,2025-05-15_02h14.26.140,cuing_paradigm_dot,2024.1.5,Linux armv81,59.52380952,68242c07d0c0e200c6451fdd,,,,,,,,,,,166.1645,166.6688,,,166.9207,167.5127,right,,,,,,,,0.6,,,,,,166.669,166.9204,0.5668,,167.5129,168.6022,0,24,24,171,1,,,,,,,
,,,,,,,67daae91f4057c50a9fd19fc,682530fd1893e63b4b947f44,2025-05-15_02h14.26.140,cuing_paradigm_dot,2024.1.5,Linux armv81,59.52380952,68242c07d0c0e200c6451fdd,,,,,,,,,,,168.604,169.0857,,,169.3427,170.0474,left,,,,,,,,0.1,,,,,,169.086,169.3425,0.6815,,170.0477,171.1588,0,25,25,6,1,,,,,,,
,,,,,,,67daae91f4057c50a9fd19fc,682530fd1893e63b4b947f44,2025-05-15_02h14.26.140,cuing_paradigm_dot,2024.1.5,Linux armv81,59.52380952,68242c07d0c0e200c6451fdd,,,,,,,,,,,171.1606,171.6722,,,171.9125,172.5333,right,,,,,,,,0.5,,,,,,171.6732,171.9123,0.5929,,172.5382,173.6437,0,26,26,111,1,,,,,,,
,,,,,,,67daae91f4057c50a9fd19fc,682530fd1893e63b4b947f44,2025-05-15_02h14.26.140,cuing_paradigm_dot,2024.1.5,Linux armv81,59.52380952,68242c07d0c0e200c6451fdd,,,,,,,,,,,173.6452,174.1475,,,174.3888,175.4175,left,,,,,,,,0.45,,,,,,174.1478,174.3886,1.0074,,175.4177,176.5089,0,27,27,64,1,,,,,,,
,,,,,,,67daae91f4057c50a9fd19fc,682530fd1893e63b4b947f44,2025-05-15_02h14.26.140,cuing_paradigm_dot,2024.1.5,Linux armv81,59.52380952,68242c07d0c0e200c6451fdd,,,,,,,,,,,176.5108,177.0008,,,177.2391,177.8801,right,,,,,,,,0.6,,,,,,177.0009,177.2383,0.6222,,177.8808,178.9753,0,28,28,168,1,,,,,,,
,,,,,,,67daae91f4057c50a9fd19fc,682530fd1893e63b4b947f44,2025-05-15_02h14.26.140,cuing_paradigm_dot,2024.1.5,Linux armv81,59.52380952,68242c07d0c0e200c6451fdd,,,,,,,,,,,178.9776,179.4811,,,179.7329,180.5184,right,,,,,,,,0.55,,,,,,179.4812,179.7327,0.7709,,180.5186,181.6101,0,29,29,135,1,,,,,,,
,,,,,,,67daae91f4057c50a9fd19fc,682530fd1893e63b4b947f44,2025-05-15_02h14.26.140,cuing_paradigm_dot,2024.1.5,Linux armv81,59.52380952,68242c07d0c0e200c6451fdd,,,,,,,,,,,181.6119,182.0916,,,182.3391,182.9522,right,,,,,,,,0.5,,,,,,182.0917,182.3386,0.5886,,182.9525,184.0487,0,30,30,114,1,,,,,,,
,,,,,,,67daae91f4057c50a9fd19fc,682530fd1893e63b4b947f44,2025-05-15_02h14.26.140,cuing_paradigm_dot,2024.1.5,Linux armv81,59.52380952,68242c07d0c0e200c6451fdd,,,,,,,,,,,184.0512,184.5561,,,184.82,185.486,left,,,,,,,,0.1,,,,,,184.5563,184.8195,0.6414,,185.4863,186.5755,0,31,31,24,1,,,,,,,
,,,,,,,67daae91f4057c50a9fd19fc,682530fd1893e63b4b947f44,2025-05-15_02h14.26.140,cuing_paradigm_dot,2024.1.5,Linux armv81,59.52380952,68242c07d0c0e200c6451fdd,,,,,,,,,,,186.5792,187.0625,,,187.3178,187.8715,right,,,,,,,,0.9,,,,,,187.0632,187.3176,0.527,,187.8718,188.9648,0,32,32,195,1,,,,,,,
,,,,,,,67daae91f4057c50a9fd19fc,682530fd1893e63b4b947f44,2025-05-15_02h14.26.140,cuing_paradigm_dot,2024.1.5,Linux armv81,59.52380952,68242c07d0c0e200c6451fdd,,,,,,,,,,,188.9672,189.4662,,,189.7126,190.5834,left,,,,,,,,0.4,,,,,,189.4664,189.7121,0.8451,,190.5837,191.6727,0,33,33,50,1,,,,,,,
,,,,,,,67daae91f4057c50a9fd19fc,682530fd1893e63b4b947f44,2025-05-15_02h14.26.140,cuing_paradigm_dot,2024.1.5,Linux armv81,59.52380952,68242c07d0c0e200c6451fdd,,,,,,,,,,,191.676,192.1721,,,192.4125,193.0418,right,,,,,,,,0.55,,,,,,192.1723,192.4122,0.6075,,193.0421,194.137,0,34,34,127,1,,,,,,,
,,,,,,,67daae91f4057c50a9fd19fc,682530fd1893e63b4b947f44,2025-05-15_02h14.26.140,cuing_paradigm_dot,2024.1.5,Linux armv81,59.52380952,68242c07d0c0e200c6451fdd,,,,,,,,,,,194.1413,194.632,,,194.8863,195.4954,left,,,,,,,,0.4,,,,,,194.6322,194.886,0.5892,,195.4957,196.589,0,35,35,32,1,,,,,,,
,,,,,,,67daae91f4057c50a9fd19fc,682530fd1893e63b4b947f44,2025-05-15_02h14.26.140,cuing_paradigm_dot,2024.1.5,Linux armv81,59.52380952,68242c07d0c0e200c6451fdd,,,,,,,,,,,196.5916,197.0718,,,197.3209,197.8081,right,,,,,,,,0.55,,,,,,197.0719,197.3207,0.4625,,197.8084,198.9157,0,36,36,146,1,,,,,,,
,,,,,,,67daae91f4057c50a9fd19fc,682530fd1893e63b4b947f44,2025-05-15_02h14.26.140,cuing_paradigm_dot,2024.1.5,Linux armv81,59.52380952,68242c07d0c0e200c6451fdd,,,,,,,,,,,198.919,199.4089,,,199.6553,200.8733,right,,,,,,,,0.55,,,,,,199.409,199.655,1.1973,,200.8736,201.9513,0,37,37,142,1,,,,,,,
,,,,,,,67daae91f4057c50a9fd19fc,682530fd1893e63b4b947f44,2025-05-15_02h14.26.140,cuing_paradigm_dot,2024.1.5,Linux armv81,59.52380952,68242c07d0c0e200c6451fdd,,,,,,,,,,,201.9536,202.4374,,,202.6813,203.4731,right,,,,,,,,0.6,,,,,,202.4375,202.6811,0.767,,203.4734,204.5675,0,38,38,177,1,,,,,,,
,,,,,,,67daae91f4057c50a9fd19fc,682530fd1893e63b4b947f44,2025-05-15_02h14.26.140,cuing_paradigm_dot,2024.1.5,Linux armv81,59.52380952,68242c07d0c0e200c6451fdd,,,,,,,,,,,204.5699,205.0664,,,205.2951,205.9372,left,,,,,,,,0.4,,,,,,205.0667,205.295,0.6183,,205.9374,207.0322,0,39,39,43,1,,,,,,,
,,,,,,,67daae91f4057c50a9fd19fc,682530fd1893e63b4b947f44,2025-05-15_02h14.26.140,cuing_paradigm_dot,2024.1.5,Linux armv81,59.52380952,68242c07d0c0e200c6451fdd,,,,,,,,,,,207.0343,207.4591,,,207.6914,208.3986,right,,,,,,,,0.45,,,,,,207.4593,207.6912,0.6855,0.0013,208.3988,209.4838,0,40,40,87,1,,,,,,,
,,,,,,,67daae91f4057c50a9fd19fc,682530fd1893e63b4b947f44,2025-05-15_02h14.26.140,cuing_paradigm_dot,2024.1.5,Linux armv81,59.52380952,68242c07d0c0e200c6451fdd,,,,,,,,,,,209.4873,209.9977,,,210.2326,210.7908,right,,,,,,,,0.6,,,,,,209.998,210.2324,0.5336,,210.7912,211.8884,0,41,41,152,1,,,,,,,
,,,,,,,67daae91f4057c50a9fd19fc,682530fd1893e63b4b947f44,2025-05-15_02h14.26.140,cuing_paradigm_dot,2024.1.5,Linux armv81,59.52380952,68242c07d0c0e200c6451fdd,,,,,,,,,,,211.8911,212.3972,,,212.6519,213.3291,left,,,,,,,,0.4,,,,,,212.3999,212.6516,0.6602,,213.3299,214.4395,0,42,42,59,1,,,,,,,
,,,,,,,67daae91f4057c50a9fd19fc,682530fd1893e63b4b947f44,2025-05-15_02h14.26.140,cuing_paradigm_dot,2024.1.5,Linux armv81,59.52380952,68242c07d0c0e200c6451fdd,,,,,,,,,,,214.4434,214.9488,,,215.2079,216.02,left,,,,,,,,0.4,,,,,,214.949,215.2077,0.7907,,216.0204,217.1212,0,43,43,37,1,,,,,,,
,,,,,,,67daae91f4057c50a9fd19fc,682530fd1893e63b4b947f44,2025-05-15_02h14.26.140,cuing_paradigm_dot,2024.1.5,Linux armv81,59.52380952,68242c07d0c0e200c6451fdd,,,,,,,,,,,217.1245,217.6231,,,217.902,218.359,right,,,,,,,,0.9,,,,,,217.6232,217.9011,0.4352,,218.3595,219.4364,0,44,44,204,1,,,,,,,
,,,,,,,67daae91f4057c50a9fd19fc,682530fd1893e63b4b947f44,2025-05-15_02h14.26.140,cuing_paradigm_dot,2024.1.5,Linux armv81,59.52380952,68242c07d0c0e200c6451fdd,,,,,,,,,,,219.4401,219.9275,,,220.166,220.7688,right,,,,,,,,0.9,,,,,,219.9281,220.1657,0.5774,,220.7691,221.8618,0,45,45,182,1,,,,,,,
,,,,,,,67daae91f4057c50a9fd19fc,682530fd1893e63b4b947f44,2025-05-15_02h14.26.140,cuing_paradigm_dot,2024.1.5,Linux armv81,59.52380952,68242c07d0c0e200c6451fdd,,,,,,,,,,,221.8638,222.373,,,222.6154,223.2868,left,,,,,,,,0.4,,,,,,222.3738,222.6151,0.6537,,223.287,224.3883,0,46,46,57,1,,,,,,,
,,,,,,,67daae91f4057c50a9fd19fc,682530fd1893e63b4b947f44,2025-05-15_02h14.26.140,cuing_paradigm_dot,2024.1.5,Linux armv81,59.52380952,68242c07d0c0e200c6451fdd,,,,,,,,,,,224.3909,224.8931,,,225.1341,225.886,right,,,,,,,,0.6,,,,,,224.8932,225.1338,0.7304,,225.8862,226.9951,0,47,47,173,1,,,,,,,
,,,,,,,67daae91f4057c50a9fd19fc,682530fd1893e63b4b947f44,2025-05-15_02h14.26.140,cuing_paradigm_dot,2024.1.5,Linux armv81,59.52380952,68242c07d0c0e200c6451fdd,,,,,,,,,,,226.9972,227.4875,,,227.7463,228.547,left,,,,,,,,0.9,,,,,,227.488,227.7461,0.7797,,228.5473,229.633,0,48,48,191,1,,,,,,,
,,,,,,,67daae91f4057c50a9fd19fc,682530fd1893e63b4b947f44,2025-05-15_02h14.26.140,cuing_paradigm_dot,2024.1.5,Linux armv81,59.52380952,68242c07d0c0e200c6451fdd,,,,,,,,,,,229.635,230.1329,,,230.3803,231.2503,left,,,,,,,,0.45,,,,,,230.133,230.38,0.8496,,231.2506,232.3457,0,49,49,71,1,,,,,,,
,,,,,,,67daae91f4057c50a9fd19fc,682530fd1893e63b4b947f44,2025-05-15_02h14.26.140,cuing_paradigm_dot,2024.1.5,Linux armv81,59.52380952,68242c07d0c0e200c6451fdd,,,,,,,,,,,232.3504,232.8594,,,233.1178,233.748,right,,,,,,,,0.55,,,,,,232.8595,233.1175,0.6088,,233.7482,234.8398,0,50,50,133,1,,,,,,,
,,,,,,,67daae91f4057c50a9fd19fc,682530fd1893e63b4b947f44,2025-05-15_02h14.26.140,cuing_paradigm_dot,2024.1.5,Linux armv81,59.52380952,68242c07d0c0e200c6451fdd,,,,,,,,,,,234.8423,235.3431,,,235.605,236.2974,right,,,,,,,,0.6,,,,,,235.3432,235.6047,0.6709,,236.2976,237.4007,0,51,51,176,1,,,,,,,
,,,,,,,67daae91f4057c50a9fd19fc,682530fd1893e63b4b947f44,2025-05-15_02h14.26.140,cuing_paradigm_dot,2024.1.5,Linux armv81,59.52380952,68242c07d0c0e200c6451fdd,,,,,,,,,,,237.4025,237.9068,,,238.1664,238.8725,right,,,,,,,,0.55,,,,,,237.9073,238.1656,0.6822,,238.8727,239.9723,0,52,52,120,1,,,,,,,
,,,,,,,67daae91f4057c50a9fd19fc,682530fd1893e63b4b947f44,2025-05-15_02h14.26.140,cuing_paradigm_dot,2024.1.5,Linux armv81,59.52380952,68242c07d0c0e200c6451fdd,,,,,,,,,,,239.9747,240.4714,,,240.7217,241.345,right,,,,,,,,0.6,,,,,,240.4716,240.7213,0.5992,,241.3454,242.4474,0,53,53,170,1,,,,,,,
,,,,,,,67daae91f4057c50a9fd19fc,682530fd1893e63b4b947f44,2025-05-15_02h14.26.140,cuing_paradigm_dot,2024.1.5,Linux armv81,59.52380952,68242c07d0c0e200c6451fdd,,,,,,,,,,,242.4501,242.9612,,,243.1248,243.8753,left,,,,,,,,0.4,,,,,,242.9615,243.1245,0.7273,,243.8756,244.9817,0,54,54,45,1,,,,,,,
,,,,,,,67daae91f4057c50a9fd19fc,682530fd1893e63b4b947f44,2025-05-15_02h14.26.140,cuing_paradigm_dot,2024.1.5,Linux armv81,59.52380952,68242c07d0c0e200c6451fdd,,,,,,,,,,,244.9843,245.484,,,245.7363,246.4881,left,,,,,,,,0.4,,,,,,245.4843,245.736,0.7304,,246.4883,247.5888,0,55,55,54,1,,,,,,,
,,,,,,,67daae91f4057c50a9fd19fc,682530fd1893e63b4b947f44,2025-05-15_02h14.26.140,cuing_paradigm_dot,2024.1.5,Linux armv81,59.52380952,68242c07d0c0e200c6451fdd,,,,,,,,,,,247.5919,248.0816,,,248.3433,248.8131,right,,,,,,,,0.9,,,,,,248.0824,248.343,0.4498,,248.8133,249.9125,0,56,56,209,1,,,,,,,
,,,,,,,67daae91f4057c50a9fd19fc,682530fd1893e63b4b947f44,2025-05-15_02h14.26.140,cuing_paradigm_dot,2024.1.5,Linux armv81,59.52380952,68242c07d0c0e200c6451fdd,,,,,,,,,,,249.9146,250.4125,,,250.6558,251.2682,right,,,,,,,,0.55,,,,,,250.4129,250.6555,0.5909,,251.2684,252.3689,0,57,57,126,1,,,,,,,
,,,,,,,67daae91f4057c50a9fd19fc,682530fd1893e63b4b947f44,2025-05-15_02h14.26.140,cuing_paradigm_dot,2024.1.5,Linux armv81,59.52380952,68242c07d0c0e200c6451fdd,,,,,,,,,,,252.3719,252.8837,,,253.125,253.7895,right,,,,,,,,0.6,,,,,,252.8839,253.1247,0.6432,,253.7897,254.8919,0,58,58,167,1,,,,,,,
,,,,,,,67daae91f4057c50a9fd19fc,682530fd1893e63b4b947f44,2025-05-15_02h14.26.140,cuing_paradigm_dot,2024.1.5,Linux armv81,59.52380952,68242c07d0c0e200c6451fdd,,,,,,,,,,,254.8937,255.3931,,,255.6396,256.3171,left,,,,,,,,0.1,,,,,,255.3931,255.6394,0.6575,,256.3173,257.4151,0,59,59,27,1,,,,,,,
,,,,,,,67daae91f4057c50a9fd19fc,682530fd1893e63b4b947f44,2025-05-15_02h14.26.140,cuing_paradigm_dot,2024.1.5,Linux armv81,59.52380952,68242c07d0c0e200c6451fdd,,,,,,,,,,,257.4168,257.9184,,,258.1582,258.8425,left,,,,,,,,0.45,,,,,,257.9189,258.1575,0.6624,,258.8432,259.9314,0,60,60,74,1,,,,,,,
,,,,,,,67daae91f4057c50a9fd19fc,682530fd1893e63b4b947f44,2025-05-15_02h14.26.140,cuing_paradigm_dot,2024.1.5,Linux armv81,59.52380952,68242c07d0c0e200c6451fdd,,,,,,,,,,,259.9333,260.4372,,,260.6793,261.2922,right,,,,,,,,0.5,,,,,,260.4374,260.6791,0.5877,,261.2924,262.3924,0,61,61,94,1,,,,,,,
,,,,,,,67daae91f4057c50a9fd19fc,682530fd1893e63b4b947f44,2025-05-15_02h14.26.140,cuing_paradigm_dot,2024.1.5,Linux armv81,59.52380952,68242c07d0c0e200c6451fdd,,,,,,,,,,,262.3941,262.8941,,,263.1395,263.6143,right,,,,,,,,0.9,,,,,,262.8943,263.1392,0.456,,263.6146,264.7196,0,62,62,194,1,,,,,,,
,,,,,,,67daae91f4057c50a9fd19fc,682530fd1893e63b4b947f44,2025-05-15_02h14.26.140,cuing_paradigm_dot,2024.1.5,Linux armv81,59.52380952,68242c07d0c0e200c6451fdd,,,,,,,,,,,264.7258,265.2321,,,265.4629,266.1427,left,,,,,,,,0.1,,,,,,265.2324,265.4626,0.6591,,266.143,267.2498,0,63,63,26,1,,,,,,,
,,,,,,,67daae91f4057c50a9fd19fc,682530fd1893e63b4b947f44,2025-05-15_02h14.26.140,cuing_paradigm_dot,2024.1.5,Linux armv81,59.52380952,68242c07d0c0e200c6451fdd,,,,,,,,,,,267.2527,267.7431,,,267.9736,268.5284,right,,,,,,,,0.9,,,,,,267.7432,267.9734,0.5339,,268.5287,269.6179,0,64,64,193,1,,,,,,,
,,,,,,,67daae91f4057c50a9fd19fc,682530fd1893e63b4b947f44,2025-05-15_02h14.26.140,cuing_paradigm_dot,2024.1.5,Linux armv81,59.52380952,68242c07d0c0e200c6451fdd,,,,,,,,,,,269.6221,270.113,,,270.367,271.2361,left,,,,,,,,0.55,,,,,,270.1133,270.3668,0.8443,,271.2364,272.3329,0,65,65,122,1,,,,,,,
,,,,,,,67daae91f4057c50a9fd19fc,682530fd1893e63b4b947f44,2025-05-15_02h14.26.140,cuing_paradigm_dot,2024.1.5,Linux armv81,59.52380952,68242c07d0c0e200c6451fdd,,,,,,,,,,,272.335,272.8339,,,273.0643,273.7174,left,,,,,,,,0.5,,,,,,272.8342,273.064,0.6295,,273.7175,274.7973,0,66,66,112,1,,,,,,,
,,,,,,,67daae91f4057c50a9fd19fc,682530fd1893e63b4b947f44,2025-05-15_02h14.26.140,cuing_paradigm_dot,2024.1.5,Linux armv81,59.52380952,68242c07d0c0e200c6451fdd,,,,,,,,,,,274.8039,275.3075,,,275.5404,276.2118,right,,,,,,,,0.4,,,,,,275.3076,275.5402,0.6522,,276.212,277.3105,0,67,67,34,1,,,,,,,
,,,,,,,67daae91f4057c50a9fd19fc,682530fd1893e63b4b947f44,2025-05-15_02h14.26.140,cuing_paradigm_dot,2024.1.5,Linux armv81,59.52380952,68242c07d0c0e200c6451fdd,,,,,,,,,,,277.3126,277.8045,,,278.046,279.2136,right,,,,,,,,0.5,,,,,,277.8047,278.0452,1.1433,,279.214,280.3078,0,68,68,95,1,,,,,,,
,,,,,,,67daae91f4057c50a9fd19fc,682530fd1893e63b4b947f44,2025-05-15_02h14.26.140,cuing_paradigm_dot,2024.1.5,Linux armv81,59.52380952,68242c07d0c0e200c6451fdd,,,,,,,,,,,280.3108,280.7924,,,281.0285,281.7736,left,,,,,,,,0.4,,,,,,280.7927,281.0284,0.7241,,281.7738,282.8776,0,69,69,40,1,,,,,,,
,,,,,,,67daae91f4057c50a9fd19fc,682530fd1893e63b4b947f44,2025-05-15_02h14.26.140,cuing_paradigm_dot,2024.1.5,Linux armv81,59.52380952,68242c07d0c0e200c6451fdd,,,,,,,,,,,282.881,283.3915,,,283.6453,284.5543,right,,,,,,,,0.55,,,,,,283.3916,283.6444,0.8896,,284.5546,285.6435,0,70,70,131,1,,,,,,,
,,,,,,,67daae91f4057c50a9fd19fc,682530fd1893e63b4b947f44,2025-05-15_02h14.26.140,cuing_paradigm_dot,2024.1.5,Linux armv81,59.52380952,68242c07d0c0e200c6451fdd,,,,,,,,,,,285.6464,286.1438,,,286.4098,287.098,left,,,,,,,,0.1,,,,,,286.1445,286.4095,0.6624,,287.0983,288.1872,0,71,71,18,1,,,,,,,
,,,,,,,67daae91f4057c50a9fd19fc,682530fd1893e63b4b947f44,2025-05-15_02h14.26.140,cuing_paradigm_dot,2024.1.5,Linux armv81,59.52380952,68242c07d0c0e200c6451fdd,,,,,,,,,,,288.1907,288.7097,,,288.9419,289.5558,left,,,,,,,,0.1,,,,,,288.7105,288.9416,0.5946,,289.5559,290.6639,0,72,72,10,1,,,,,,,
,,,,,,,67daae91f4057c50a9fd19fc,682530fd1893e63b4b947f44,2025-05-15_02h14.26.140,cuing_paradigm_dot,2024.1.5,Linux armv81,59.52380952,68242c07d0c0e200c6451fdd,,,,,,,,,,,290.6654,291.1643,,,291.4032,292.2719,right,,,,,,,,0.6,,,,,,291.1646,291.403,0.843,,292.2731,293.3811,0,73,73,179,1,,,,,,,
,,,,,,,67daae91f4057c50a9fd19fc,682530fd1893e63b4b947f44,2025-05-15_02h14.26.140,cuing_paradigm_dot,2024.1.5,Linux armv81,59.52380952,68242c07d0c0e200c6451fdd,,,,,,,,,,,293.3843,293.8688,,,294.1199,294.7496,left,,,,,,,,0.1,,,,,,293.8689,294.1197,0.6052,,294.75,295.8265,0,74,74,19,1,,,,,,,
,,,,,,,67daae91f4057c50a9fd19fc,682530fd1893e63b4b947f44,2025-05-15_02h14.26.140,cuing_paradigm_dot,2024.1.5,Linux armv81,59.52380952,68242c07d0c0e200c6451fdd,,,,,,,,,,,295.8309,296.3284,,,296.5773,297.5043,right,,,,,,,,0.45,,,,,,296.3285,296.5771,0.9073,,297.5046,298.5995,0,75,75,61,1,,,,,,,
,,,,,,,67daae91f4057c50a9fd19fc,682530fd1893e63b4b947f44,2025-05-15_02h14.26.140,cuing_paradigm_dot,2024.1.5,Linux armv81,59.52380952,68242c07d0c0e200c6451fdd,,,,,,,,,,,298.6034,299.1116,,,299.3431,300.1439,right,,,,,,,,0.5,,,,,,299.1119,299.3429,0.7826,,300.1441,301.2531,0,76,76,108,1,,,,,,,
,,,,,,,67daae91f4057c50a9fd19fc,682530fd1893e63b4b947f44,2025-05-15_02h14.26.140,cuing_paradigm_dot,2024.1.5,Linux armv81,59.52380952,68242c07d0c0e200c6451fdd,,,,,,,,,,,301.2549,301.7523,,,302.0001,302.6412,left,,,,,,,,0.4,,,,,,301.7525,301.9999,0.6196,,302.6414,303.7415,0,77,77,38,1,,,,,,,
,,,,,,,67daae91f4057c50a9fd19fc,682530fd1893e63b4b947f44,2025-05-15_02h14.26.140,cuing_paradigm_dot,2024.1.5,Linux armv81,59.52380952,68242c07d0c0e200c6451fdd,,,,,,,,,,,303.7435,304.248,,,304.51,304.9849,right,,,,,,,,0.9,,,,,,304.2502,304.5097,0.4538,,304.9854,306.0814,0,78,78,180,1,,,,,,,
,,,,,,,67daae91f4057c50a9fd19fc,682530fd1893e63b4b947f44,2025-05-15_02h14.26.140,cuing_paradigm_dot,2024.1.5,Linux armv81,59.52380952,68242c07d0c0e200c6451fdd,,,,,,,,,,,306.0834,306.5846,,,306.8383,307.8057,right,,,,,,,,0.4,,,,,,306.5848,306.838,0.9464,,307.806,308.9088,0,79,79,53,1,,,,,,,
,,,,,,,67daae91f4057c50a9fd19fc,682530fd1893e63b4b947f44,2025-05-15_02h14.26.140,cuing_paradigm_dot,2024.1.5,Linux armv81,59.52380952,68242c07d0c0e200c6451fdd,,,,,,,,,,,308.9121,309.4096,,,309.6728,310.4757,left,,,,,,,,0.4,,,,,,309.41,309.6725,0.7833,,310.476,311.5744,0,80,80,48,1,,,,,,,
,,,,,,,67daae91f4057c50a9fd19fc,682530fd1893e63b4b947f44,2025-05-15_02h14.26.140,cuing_paradigm_dot,2024.1.5,Linux armv81,59.52380952,68242c07d0c0e200c6451fdd,,,,,,,,,,,311.5768,312.0755,,,312.3187,312.923,right,,,,,,,,0.9,,,,,,312.0756,312.3185,0.5824,,312.9232,314.0188,0,81,81,205,1,,,,,,,
,,,,,,,67daae91f4057c50a9fd19fc,682530fd1893e63b4b947f44,2025-05-15_02h14.26.140,cuing_paradigm_dot,2024.1.5,Linux armv81,59.52380952,68242c07d0c0e200c6451fdd,,,,,,,,,,,314.0208,314.529,,,314.7975,315.4052,left,,,,,,,,0.1,,,,,,314.5293,314.7972,0.5869,,315.4054,316.5088,0,82,82,4,1,,,,,,,
,,,,,,,67daae91f4057c50a9fd19fc,682530fd1893e63b4b947f44,2025-05-15_02h14.26.140,cuing_paradigm_dot,2024.1.5,Linux armv81,59.52380952,68242c07d0c0e200c6451fdd,,,,,,,,,,,316.5121,317.0221,,,317.2653,317.8136,right,,,,,,,,0.55,,,,,,317.0224,317.2651,0.5256,,317.8141,318.9226,0,83,83,149,1,,,,,,,
,,,,,,,67daae91f4057c50a9fd19fc,682530fd1893e63b4b947f44,2025-05-15_02h14.26.140,cuing_paradigm_dot,2024.1.5,Linux armv81,59.52380952,68242c07d0c0e200c6451fdd,,,,,,,,,,,318.9248,319.4145,,,319.6845,320.3026,left,,,,,,,,0.1,,,,,,319.4147,319.6839,0.5975,,320.303,321.4041,0,84,84,20,1,,,,,,,
,,,,,,,67daae91f4057c50a9fd19fc,682530fd1893e63b4b947f44,2025-05-15_02h14.26.140,cuing_paradigm_dot,2024.1.5,Linux armv81,59.52380952,68242c07d0c0e200c6451fdd,,,,,,,,,,,321.407,321.9071,,,322.1453,322.9361,left,,,,,,,,0.45,,,,,,321.9071,322.1449,0.7692,,322.9362,324.0384,0,85,85,84,1,,,,,,,
,,,,,,,67daae91f4057c50a9fd19fc,682530fd1893e63b4b947f44,2025-05-15_02h14.26.140,cuing_paradigm_dot,2024.1.5,Linux armv81,59.52380952,68242c07d0c0e200c6451fdd,,,,,,,,,,,324.041,324.543,,,324.7817,325.2855,right,,,,,,,,0.9,,,,,,324.5432,324.7815,0.4793,,325.2857,326.3765,0,86,86,207,1,,,,,,,
,,,,,,,67daae91f4057c50a9fd19fc,682530fd1893e63b4b947f44,2025-05-15_02h14.26.140,cuing_paradigm_dot,2024.1.5,Linux armv81,59.52380952,68242c07d0c0e200c6451fdd,,,,,,,,,,,326.3785,326.8644,,,327.1229,328.0687,left,,,,,,,,0.45,,,,,,326.8646,327.1227,0.9266,,328.0689,329.1727,0,87,87,70,1,,,,,,,
,,,,,,,67daae91f4057c50a9fd19fc,682530fd1893e63b4b947f44,2025-05-15_02h14.26.140,cuing_paradigm_dot,2024.1.5,Linux armv81,59.52380952,68242c07d0c0e200c6451fdd,,,,,,,,,,,329.1759,329.6841,,,329.9321,330.6731,left,,,,,,,,0.1,,,,,,329.6843,329.9311,0.7196,,330.6736,331.7795,0,88,88,16,1,,,,,,,
,,,,,,,67daae91f4057c50a9fd19fc,682530fd1893e63b4b947f44,2025-05-15_02h14.26.140,cuing_paradigm_dot,2024.1.5,Linux armv81,59.52380952,68242c07d0c0e200c6451fdd,,,,,,,,,,,331.7817,332.2642,,,332.5168,333.1674,right,,,,,,,,0.55,,,,,,332.2646,332.5165,0.628,,333.1678,334.2704,0,89,89,128,1,,,,,,,
,,,,,,,67daae91f4057c50a9fd19fc,682530fd1893e63b4b947f44,2025-05-15_02h14.26.140,cuing_paradigm_dot,2024.1.5,Linux armv81,59.52380952,68242c07d0c0e200c6451fdd,,,,,,,,,,,334.2722,334.7704,,,334.9995,335.7398,left,,,,,,,,0.45,,,,,,334.7705,334.9993,0.715,,335.74,336.8232,0,90,90,69,1,,,,,,,
,,,,,,,67daae91f4057c50a9fd19fc,682530fd1893e63b4b947f44,2025-05-15_02h14.26.140,cuing_paradigm_dot,2024.1.5,Linux armv81,59.52380952,68242c07d0c0e200c6451fdd,,,,,,,,,,,336.8256,337.3065,,,337.5388,338.7373,right,,,,,,,,0.4,,,,,,337.3066,337.5386,1.1772,,338.7375,339.8319,0,91,91,51,1,,,,,,,
,,,,,,,67daae91f4057c50a9fd19fc,682530fd1893e63b4b947f44,2025-05-15_02h14.26.140,cuing_paradigm_dot,2024.1.5,Linux armv81,59.52380952,68242c07d0c0e200c6451fdd,,,,,,,,,,,339.8351,340.3128,,,340.5639,341.2519,left,,,,,,,,0.1,,,,,,340.313,340.5636,0.6665,,341.252,342.3466,0,92,92,21,1,,,,,,,
,,,,,,,67daae91f4057c50a9fd19fc,682530fd1893e63b4b947f44,2025-05-15_02h14.26.140,cuing_paradigm_dot,2024.1.5,Linux armv81,59.52380952,68242c07d0c0e200c6451fdd,,,,,,,,,,,342.3491,342.8486,,,343.1061,344.3399,left,,,,,,,,0.45,,,,,,342.8488,343.1057,1.2105,,344.3401,345.4432,0,93,93,76,1,,,,,,,
,,,,,,,67daae91f4057c50a9fd19fc,682530fd1893e63b4b947f44,2025-05-15_02h14.26.140,cuing_paradigm_dot,2024.1.5,Linux armv81,59.52380952,68242c07d0c0e200c6451fdd,,,,,,,,,,,345.4448,345.9442,,,346.2006,346.8495,right,,,,,,,,0.4,,,,,,345.9452,346.2004,0.6239,,346.8498,347.9481,0,94,94,52,1,,,,,,,
,,,,,,,67daae91f4057c50a9fd19fc,682530fd1893e63b4b947f44,2025-05-15_02h14.26.140,cuing_paradigm_dot,2024.1.5,Linux armv81,59.52380952,68242c07d0c0e200c6451fdd,,,,,,,,,,,347.95,348.448,,,348.7023,350.0048,right,,,,,,,,0.6,,,,,,348.4482,348.7021,1.2827,,350.005,351.0937,0,95,95,164,1,,,,,,,
,,,,,,,67daae91f4057c50a9fd19fc,682530fd1893e63b4b947f44,2025-05-15_02h14.26.140,cuing_paradigm_dot,2024.1.5,Linux armv81,59.52380952,68242c07d0c0e200c6451fdd,,,,,,,,,,,351.0958,351.5886,,,351.834,352.6824,left,,,,,,,,0.55,,,,,,351.5889,351.8335,0.8288,,352.6825,353.786,0,96,96,139,1,,,,,,,
,,,,,,,67daae91f4057c50a9fd19fc,682530fd1893e63b4b947f44,2025-05-15_02h14.26.140,cuing_paradigm_dot,2024.1.5,Linux armv81,59.52380952,68242c07d0c0e200c6451fdd,,,,,,,,,,,353.7897,354.2811,,,354.5264,355.1787,right,,,,,,,,0.55,,,,,,354.2813,354.5262,0.6312,,355.179,356.274,0,97,97,132,1,,,,,,,
,,,,,,,67daae91f4057c50a9fd19fc,682530fd1893e63b4b947f44,2025-05-15_02h14.26.140,cuing_paradigm_dot,2024.1.5,Linux armv81,59.52380952,68242c07d0c0e200c6451fdd,,,,,,,,,,,356.2777,356.7745,,,357.0179,357.8465,left,,,,,,,,0.4,,,,,,356.7747,357.0176,0.8066,,357.8467,358.9416,0,98,98,55,1,,,,,,,
,,,,,,,67daae91f4057c50a9fd19fc,682530fd1893e63b4b947f44,2025-05-15_02h14.26.140,cuing_paradigm_dot,2024.1.5,Linux armv81,59.52380952,68242c07d0c0e200c6451fdd,,,,,,,,,,,358.9445,359.4265,,,359.6689,360.6341,right,,,,,,,,0.4,,,,,,359.4268,359.6687,0.9403,,360.6343,361.7162,0,99,99,47,1,,,,,,,
,,,,,,,67daae91f4057c50a9fd19fc,682530fd1893e63b4b947f44,2025-05-15_02h14.26.140,cuing_paradigm_dot,2024.1.5,Linux armv81,59.52380952,68242c07d0c0e200c6451fdd,,,,,,,,,,,361.7184,362.2177,,,362.4633,363.3507,left,,,,,,,,0.5,,,,,,362.2183,362.4631,0.868,,363.351,364.443,0,100,100,90,1,,,,,,,
,,,,,,,67daae91f4057c50a9fd19fc,682530fd1893e63b4b947f44,2025-05-15_02h14.26.140,cuing_paradigm_dot,2024.1.5,Linux armv81,59.52380952,68242c07d0c0e200c6451fdd,,,,,,,,,,,364.4456,364.9486,,,365.1803,366.0617,right,,,,,,,,0.6,,,,,,364.9488,365.1801,0.8544,,366.0622,367.1562,0,101,101,159,1,,,,,,,
,,,,,,,67daae91f4057c50a9fd19fc,682530fd1893e63b4b947f44,2025-05-15_02h14.26.140,cuing_paradigm_dot,2024.1.5,Linux armv81,59.52380952,68242c07d0c0e200c6451fdd,,,,,,,,,,,367.1594,367.6471,,,367.8825,368.5301,right,,,,,,,,0.55,,,,,,367.6474,367.8823,0.6267,,368.5303,369.6206,0,102,102,147,1,,,,,,,
,,,,,,,67daae91f4057c50a9fd19fc,682530fd1893e63b4b947f44,2025-05-15_02h14.26.140,cuing_paradigm_dot,2024.1.5,Linux armv81,59.52380952,68242c07d0c0e200c6451fdd,,,,,,,,,,,369.6233,370.1204,,,370.3802,371.0396,left,,,,,,,,0.4,,,,,,370.1205,370.38,0.6406,,371.0398,372.1334,0,103,103,39,1,,,,,,,
,,,,,,,67daae91f4057c50a9fd19fc,682530fd1893e63b4b947f44,2025-05-15_02h14.26.140,cuing_paradigm_dot,2024.1.5,Linux armv81,59.52380952,68242c07d0c0e200c6451fdd,,,,,,,,,,,372.1351,372.6285,,,372.8633,373.5175,left,,,,,,,,0.1,,,,,,372.6291,372.863,0.6341,,373.5192,374.6227,0,104,104,13,1,,,,,,,
,,,,,,,67daae91f4057c50a9fd19fc,682530fd1893e63b4b947f44,2025-05-15_02h14.26.140,cuing_paradigm_dot,2024.1.5,Linux armv81,59.52380952,68242c07d0c0e200c6451fdd,,,,,,,,,,,374.6254,375.1348,,,375.3821,375.9588,left,,,,,,,,0.1,,,,,,375.1351,375.3816,0.5553,,375.9591,377.063,0,105,105,15,1,,,,,,,
,,,,,,,67daae91f4057c50a9fd19fc,682530fd1893e63b4b947f44,2025-05-15_02h14.26.140,cuing_paradigm_dot,2024.1.5,Linux armv81,59.52380952,68242c07d0c0e200c6451fdd,,,,,,,,,,,377.0653,377.5548,,,377.7933,378.3915,right,,,,,,,,0.55,,,,,,377.555,377.7932,0.5743,,378.3919,379.4977,0,106,106,145,1,,,,,,,
,,,,,,,67daae91f4057c50a9fd19fc,682530fd1893e63b4b947f44,2025-05-15_02h14.26.140,cuing_paradigm_dot,2024.1.5,Linux armv81,59.52380952,68242c07d0c0e200c6451fdd,,,,,,,,,,,379.504,379.9933,,,380.2234,381.0596,left,,,,,,,,0.5,,,,,,379.9935,380.2231,0.8139,,381.0598,382.1635,0,107,107,105,1,,,,,,,
,,,,,,,67daae91f4057c50a9fd19fc,682530fd1893e63b4b947f44,2025-05-15_02h14.26.140,cuing_paradigm_dot,2024.1.5,Linux armv81,59.52380952,68242c07d0c0e200c6451fdd,,,,,,,,,,,382.1656,382.6594,,,382.889,383.5644,left,,,,,,,,0.45,,,,,,382.6597,382.8889,0.6557,,383.5647,384.6687,0,108,108,62,1,,,,,,,
,,,,,,,67daae91f4057c50a9fd19fc,682530fd1893e63b4b947f44,2025-05-15_02h14.26.140,cuing_paradigm_dot,2024.1.5,Linux armv81,59.52380952,68242c07d0c0e200c6451fdd,,,,,,,,,,,384.671,385.1538,,,385.4035,386.0507,left,,,,,,,,0.1,,,,,,385.1544,385.4033,0.6236,,386.0509,387.1426,0,109,109,7,1,,,,,,,
,,,,,,,67daae91f4057c50a9fd19fc,682530fd1893e63b4b947f44,2025-05-15_02h14.26.140,cuing_paradigm_dot,2024.1.5,Linux armv81,59.52380952,68242c07d0c0e200c6451fdd,,,,,,,,,,,387.1442,387.6426,,,387.8832,388.6494,right,,,,,,,,0.5,,,,,,387.6428,387.8829,0.7426,,388.6496,389.7523,0,110,110,101,1,,,,,,,
,,,,,,,67daae91f4057c50a9fd19fc,682530fd1893e63b4b947f44,2025-05-15_02h14.26.140,cuing_paradigm_dot,2024.1.5,Linux armv81,59.52380952,68242c07d0c0e200c6451fdd,,,,,,,,,,,389.7544,390.2496,,,390.478,391.1933,left,,,,,,,,0.5,,,,,,390.2499,390.4777,0.6945,,391.1939,392.2834,0,111,111,98,1,,,,,,,
,,,,,,,67daae91f4057c50a9fd19fc,682530fd1893e63b4b947f44,2025-05-15_02h14.26.140,cuing_paradigm_dot,2024.1.5,Linux armv81,59.52380952,68242c07d0c0e200c6451fdd,,,,,,,,,,,392.286,392.7815,,,393.0227,393.925,right,,,,,,,,0.55,,,,,,392.7817,393.0221,0.8808,,393.9252,395.0133,0,112,112,124,1,,,,,,,
,,,,,,,67daae91f4057c50a9fd19fc,682530fd1893e63b4b947f44,2025-05-15_02h14.26.140,cuing_paradigm_dot,2024.1.5,Linux armv81,59.52380952,68242c07d0c0e200c6451fdd,,,,,,,,,,,395.0162,395.5153,,,395.7714,396.5182,left,,,,,,,,0.45,,,,,,395.5162,395.7712,0.7237,,396.5184,397.6084,0,113,113,80,1,,,,,,,
,,,,,,,67daae91f4057c50a9fd19fc,682530fd1893e63b4b947f44,2025-05-15_02h14.26.140,cuing_paradigm_dot,2024.1.5,Linux armv81,59.52380952,68242c07d0c0e200c6451fdd,,,,,,,,,,,397.6115,398.1046,,,398.3492,399.101,left,,,,,,,,0.5,,,,,,398.1047,398.3488,0.7268,,399.1018,400.1978,0,114,114,115,1,,,,,,,
,,,,,,,67daae91f4057c50a9fd19fc,682530fd1893e63b4b947f44,2025-05-15_02h14.26.140,cuing_paradigm_dot,2024.1.5,Linux armv81,59.52380952,68242c07d0c0e200c6451fdd,,,,,,,,,,,400.2044,400.7039,,,400.9552,401.7949,right,,,,,,,,0.4,,,,,,400.7041,400.955,0.8174,,401.795,402.885,0,115,115,36,1,,,,,,,
,,,,,,,67daae91f4057c50a9fd19fc,682530fd1893e63b4b947f44,2025-05-15_02h14.26.140,cuing_paradigm_dot,2024.1.5,Linux armv81,59.52380952,68242c07d0c0e200c6451fdd,,,,,,,,,,,402.8874,403.3816,,,403.6418,404.3521,left,,,,,,,,0.6,,,,,,403.3818,403.6415,0.6906,,404.3523,405.4525,0,116,116,165,1,,,,,,,
,,,,,,,67daae91f4057c50a9fd19fc,682530fd1893e63b4b947f44,2025-05-15_02h14.26.140,cuing_paradigm_dot,2024.1.5,Linux armv81,59.52380952,68242c07d0c0e200c6451fdd,,,,,,,,,,,405.4544,405.9509,,,406.2068,406.7697,right,,,,,,,,0.9,,,,,,405.9515,406.2054,0.5366,,406.7704,407.8586,0,117,117,184,1,,,,,,,
,,,,,,,67daae91f4057c50a9fd19fc,682530fd1893e63b4b947f44,2025-05-15_02h14.26.140,cuing_paradigm_dot,2024.1.5,Linux armv81,59.52380952,68242c07d0c0e200c6451fdd,,,,,,,,,,,407.8616,408.3566,,,408.6085,409.3412,left,,,,,,,,0.5,,,,,,408.357,408.6083,0.7084,,409.3425,410.4463,0,118,118,110,1,,,,,,,
,,,,,,,67daae91f4057c50a9fd19fc,682530fd1893e63b4b947f44,2025-05-15_02h14.26.140,cuing_paradigm_dot,2024.1.5,Linux armv81,59.52380952,68242c07d0c0e200c6451fdd,,,,,,,,,,,410.4488,410.9365,,,411.1853,411.8992,left,,,,,,,,0.5,,,,,,410.9366,411.1851,0.6899,,411.8995,412.9905,0,119,119,91,1,,,,,,,
,,,,,,,67daae91f4057c50a9fd19fc,682530fd1893e63b4b947f44,2025-05-15_02h14.26.140,cuing_paradigm_dot,2024.1.5,Linux armv81,59.52380952,68242c07d0c0e200c6451fdd,,,,,,,,,,,412.9925,413.4907,,,413.7377,414.4589,left,,,,,,,,0.45,,,,,,413.4909,413.7375,0.7019,,414.4591,415.5475,0,120,120,72,1,,,,,,,
,,,,,,,67daae91f4057c50a9fd19fc,682530fd1893e63b4b947f44,2025-05-15_02h14.26.140,cuing_paradigm_dot,2024.1.5,Linux armv81,59.52380952,68242c07d0c0e200c6451fdd,,,,,,,,,,,415.5495,416.0416,,,416.3046,416.9974,left,,,,,,,,0.1,,,,,,416.042,416.3043,0.6722,,416.9976,418.0915,0,121,121,22,1,,,,,,,
,,,,,,,67daae91f4057c50a9fd19fc,682530fd1893e63b4b947f44,2025-05-15_02h14.26.140,cuing_paradigm_dot,2024.1.5,Linux armv81,59.52380952,68242c07d0c0e200c6451fdd,,,,,,,,,,,418.0967,418.5887,,,418.8352,420.0238,right,,,,,,,,0.5,,,,,,418.5889,418.835,1.168,,420.0241,421.1253,0,122,122,107,1,,,,,,,
,,,,,,,67daae91f4057c50a9fd19fc,682530fd1893e63b4b947f44,2025-05-15_02h14.26.140,cuing_paradigm_dot,2024.1.5,Linux armv81,59.52380952,68242c07d0c0e200c6451fdd,,,,,,,,,,,421.1273,421.6109,,,421.8715,422.4883,left,,,,,,,,0.1,,,,,,421.611,421.8712,0.5938,,422.4886,423.581,0,123,123,9,1,,,,,,,
,,,,,,,67daae91f4057c50a9fd19fc,682530fd1893e63b4b947f44,2025-05-15_02h14.26.140,cuing_paradigm_dot,2024.1.5,Linux armv81,59.52380952,68242c07d0c0e200c6451fdd,,,,,,,,,,,423.5841,424.0723,,,424.305,425.0976,right,,,,,,,,0.55,,,,,,424.0725,424.3048,0.7703,,425.1,426.2019,0,124,124,121,1,,,,,,,
,,,,,,,67daae91f4057c50a9fd19fc,682530fd1893e63b4b947f44,2025-05-15_02h14.26.140,cuing_paradigm_dot,2024.1.5,Linux armv81,59.52380952,68242c07d0c0e200c6451fdd,,,,,,,,,,,426.2045,426.7118,,,426.9715,427.6814,left,,,,,,,,0.45,,,,,,426.712,426.9713,0.6857,,427.6816,428.7752,0,125,125,81,1,,,,,,,
,,,,,,,67daae91f4057c50a9fd19fc,682530fd1893e63b4b947f44,2025-05-15_02h14.26.140,cuing_paradigm_dot,2024.1.5,Linux armv81,59.52380952,68242c07d0c0e200c6451fdd,,,,,,,,,,,428.7772,429.2797,,,429.5208,430.2818,left,,,,,,,,0.4,,,,,,429.2799,429.5205,0.7382,,430.2824,431.3815,0,126,126,56,1,,,,,,,
,,,,,,,67daae91f4057c50a9fd19fc,682530fd1893e63b4b947f44,2025-05-15_02h14.26.140,cuing_paradigm_dot,2024.1.5,Linux armv81,59.52380952,68242c07d0c0e200c6451fdd,,,,,,,,,,,431.3838,431.8873,,,432.1295,433.1508,left,,,,,,,,0.5,,,,,,431.8875,432.1293,1.0008,,433.151,434.2423,0,127,127,116,1,,,,,,,
,,,,,,,67daae91f4057c50a9fd19fc,682530fd1893e63b4b947f44,2025-05-15_02h14.26.140,cuing_paradigm_dot,2024.1.5,Linux armv81,59.52380952,68242c07d0c0e200c6451fdd,,,,,,,,,,,434.2446,434.7441,,,434.9879,435.5795,right,,,,,,,,0.6,,,,,,434.7443,434.9877,0.5703,,435.5798,436.6909,0,128,128,155,1,,,,,,,
,,,,,,,67daae91f4057c50a9fd19fc,682530fd1893e63b4b947f44,2025-05-15_02h14.26.140,cuing_paradigm_dot,2024.1.5,Linux armv81,59.52380952,68242c07d0c0e200c6451fdd,,,,,,,,,,,436.6936,437.1838,,,437.4309,438.3674,left,,,,,,,,0.5,,,,,,437.184,437.4307,0.915,,438.3676,439.463,0,129,129,93,1,,,,,,,
,,,,,,,67daae91f4057c50a9fd19fc,682530fd1893e63b4b947f44,2025-05-15_02h14.26.140,cuing_paradigm_dot,2024.1.5,Linux armv81,59.52380952,68242c07d0c0e200c6451fdd,,,,,,,,,,,439.4657,439.9527,,,440.1919,441.255,left,,,,,,,,0.45,,,,,,439.9529,440.1918,1.0421,,441.2554,442.3554,0,130,130,63,1,,,,,,,
,,,,,,,67daae91f4057c50a9fd19fc,682530fd1893e63b4b947f44,2025-05-15_02h14.26.140,cuing_paradigm_dot,2024.1.5,Linux armv81,59.52380952,68242c07d0c0e200c6451fdd,,,,,,,,,,,442.3585,442.86,,,443.1097,443.8798,left,,,,,,,,0.4,,,,,,442.8601,443.1094,0.7518,,443.8809,444.966,0,131,131,41,1,,,,,,,
,,,,,,,67daae91f4057c50a9fd19fc,682530fd1893e63b4b947f44,2025-05-15_02h14.26.140,cuing_paradigm_dot,2024.1.5,Linux armv81,59.52380952,68242c07d0c0e200c6451fdd,,,,,,,,,,,444.9681,445.4679,,,445.735,446.1197,right,,,,,,,,0.9,,,,,,445.4681,445.7348,0.3599,,446.1199,447.2151,0,132,132,187,1,,,,,,,
,,,,,,,67daae91f4057c50a9fd19fc,682530fd1893e63b4b947f44,2025-05-15_02h14.26.140,cuing_paradigm_dot,2024.1.5,Linux armv81,59.52380952,68242c07d0c0e200c6451fdd,,,,,,,,,,,447.2175,447.7032,,,447.9609,448.3933,right,,,,,,,,0.9,,,,,,447.7033,447.9607,0.4085,,448.3935,449.4923,0,133,133,202,1,,,,,,,
,,,,,,,67daae91f4057c50a9fd19fc,682530fd1893e63b4b947f44,2025-05-15_02h14.26.140,cuing_paradigm_dot,2024.1.5,Linux armv81,59.52380952,68242c07d0c0e200c6451fdd,,,,,,,,,,,449.4948,449.9893,,,450.2245,450.8593,left,,,,,,,,0.1,,,,,,449.9894,450.2242,0.6155,,450.8595,451.966,0,134,134,12,1,,,,,,,
,,,,,,,67daae91f4057c50a9fd19fc,682530fd1893e63b4b947f44,2025-05-15_02h14.26.140,cuing_paradigm_dot,2024.1.5,Linux armv81,59.52380952,68242c07d0c0e200c6451fdd,,,,,,,,,,,451.9679,452.4729,,,452.7121,453.435,right,,,,,,,,0.9,,,,,,452.4731,452.7055,0.697,,453.4353,454.5239,0,135,135,198,1,,,,,,,
,,,,,,,67daae91f4057c50a9fd19fc,682530fd1893e63b4b947f44,2025-05-15_02h14.26.140,cuing_paradigm_dot,2024.1.5,Linux armv81,59.52380952,68242c07d0c0e200c6451fdd,,,,,,,,,,,454.5267,455.0037,,,455.2547,455.9322,left,,,,,,,,0.5,,,,,,455.0039,455.2544,0.656,,455.9324,457.0233,0,136,136,99,1,,,,,,,
,,,,,,,67daae91f4057c50a9fd19fc,682530fd1893e63b4b947f44,2025-05-15_02h14.26.140,cuing_paradigm_dot,2024.1.5,Linux armv81,59.52380952,68242c07d0c0e200c6451fdd,,,,,,,,,,,457.0264,457.5109,,,457.7702,458.4271,left,,,,,,,,0.1,,,,,,457.5111,457.7699,0.6356,,458.4273,459.5322,0,137,137,0,1,,,,,,,
,,,,,,,67daae91f4057c50a9fd19fc,682530fd1893e63b4b947f44,2025-05-15_02h14.26.140,cuing_paradigm_dot,2024.1.5,Linux armv81,59.52380952,68242c07d0c0e200c6451fdd,,,,,,,,,,,459.5341,460.0338,,,460.2785,460.9603,right,,,,,,,,0.55,,,,,,460.034,460.2777,0.6598,,460.9604,462.0493,0,138,138,141,1,,,,,,,
,,,,,,,67daae91f4057c50a9fd19fc,682530fd1893e63b4b947f44,2025-05-15_02h14.26.140,cuing_paradigm_dot,2024.1.5,Linux armv81,59.52380952,68242c07d0c0e200c6451fdd,,,,,,,,,,,462.0524,462.559,,,462.7972,463.4414,left,,,,,,,,0.45,,,,,,462.5593,462.7969,0.6244,,463.4417,464.5296,0,139,139,60,1,,,,,,,
,,,,,,,67daae91f4057c50a9fd19fc,682530fd1893e63b4b947f44,2025-05-15_02h14.26.140,cuing_paradigm_dot,2024.1.5,Linux armv81,59.52380952,68242c07d0c0e200c6451fdd,,,,,,,,,,,464.5318,465.0386,,,465.2999,466.0073,right,,,,,,,,0.5,,,,,,465.0388,465.2997,0.6853,,466.0077,467.0897,0,140,140,103,1,,,,,,,
,,,,,,,67daae91f4057c50a9fd19fc,682530fd1893e63b4b947f44,2025-05-15_02h14.26.140,cuing_paradigm_dot,2024.1.5,Linux armv81,59.52380952,68242c07d0c0e200c6451fdd,,,,,,,,,,,467.0941,467.6047,,,467.8544,468.8584,right,,,,,,,,0.9,,,,,,467.605,467.8541,0.9817,,468.8586,469.9662,0,141,141,206,1,,,,,,,
,,,,,,,67daae91f4057c50a9fd19fc,682530fd1893e63b4b947f44,2025-05-15_02h14.26.140,cuing_paradigm_dot,2024.1.5,Linux armv81,59.52380952,68242c07d0c0e200c6451fdd,,,,,,,,,,,469.9697,470.4459,,,470.7066,471.1235,right,,,,,,,,0.9,,,,,,470.4461,470.7063,0.3961,,471.1237,472.2028,0,142,142,183,1,,,,,,,
,,,,,,,67daae91f4057c50a9fd19fc,682530fd1893e63b4b947f44,2025-05-15_02h14.26.140,cuing_paradigm_dot,2024.1.5,Linux armv81,59.52380952,68242c07d0c0e200c6451fdd,,,,,,,,,,,472.2067,472.7116,,,472.9309,473.623,left,,,,,,,,0.45,,,,,,472.7119,472.9307,0.6699,,473.6233,474.7316,0,143,143,78,1,,,,,,,
,,,,,,,67daae91f4057c50a9fd19fc,682530fd1893e63b4b947f44,2025-05-15_02h14.26.140,cuing_paradigm_dot,2024.1.5,Linux armv81,59.52380952,68242c07d0c0e200c6451fdd,,,,,,,,,,,474.7338,475.2263,,,475.4572,476.2034,right,,,,,,,,0.55,,,,,,475.2278,475.457,0.722,,476.2037,477.2918,0,144,144,134,1,,,,,,,
,,,,,,,67daae91f4057c50a9fd19fc,682530fd1893e63b4b947f44,2025-05-15_02h14.26.140,cuing_paradigm_dot,2024.1.5,Linux armv81,59.52380952,68242c07d0c0e200c6451fdd,,,,,,,,,,,477.2941,477.7878,,,478.0393,479.1674,left,,,,,,,,0.1,,,,,,477.7881,478.0391,1.1058,,479.1675,480.2681,0,145,145,23,1,,,,,,,
,,,,,,,67daae91f4057c50a9fd19fc,682530fd1893e63b4b947f44,2025-05-15_02h14.26.140,cuing_paradigm_dot,2024.1.5,Linux armv81,59.52380952,68242c07d0c0e200c6451fdd,,,,,,,,,,,480.2698,480.7661,,,481.0118,481.6,right,,,,,,,,0.9,,,,,,480.7664,481.0115,0.569,,481.6002,482.6881,0,146,146,188,1,,,,,,,
,,,,,,,67daae91f4057c50a9fd19fc,682530fd1893e63b4b947f44,2025-05-15_02h14.26.140,cuing_paradigm_dot,2024.1.5,Linux armv81,59.52380952,68242c07d0c0e200c6451fdd,,,,,,,,,,,482.6908,483.1844,,,483.4497,484.0601,left,,,,,,,,0.5,,,,,,483.185,483.4495,0.587,,484.0603,485.1426,0,147,147,113,1,,,,,,,
,,,,,,,67daae91f4057c50a9fd19fc,682530fd1893e63b4b947f44,2025-05-15_02h14.26.140,cuing_paradigm_dot,2024.1.5,Linux armv81,59.52380952,68242c07d0c0e200c6451fdd,,,,,,,,,,,485.1456,485.6415,,,485.9023,486.8112,right,,,,,,,,0.6,,,,,,485.6418,485.9021,0.8867,,486.8113,487.8995,0,148,148,157,1,,,,,,,
,,,,,,,67daae91f4057c50a9fd19fc,682530fd1893e63b4b947f44,2025-05-15_02h14.26.140,cuing_paradigm_dot,2024.1.5,Linux armv81,59.52380952,68242c07d0c0e200c6451fdd,,,,,,,,,,,487.9024,488.4082,,,488.6428,489.2895,left,,,,,,,,0.4,,,,,,488.4087,488.6426,0.6264,,489.2897,490.388,0,149,149,31,1,,,,,,,
,,,,,,,67daae91f4057c50a9fd19fc,682530fd1893e63b4b947f44,2025-05-15_02h14.26.140,cuing_paradigm_dot,2024.1.5,Linux armv81,59.52380952,68242c07d0c0e200c6451fdd,,,,,,,,,,,490.3897,490.895,,,491.1443,492.3709,right,,,,,,,,0.5,,,,,,490.8951,491.1441,1.1957,,492.3712,493.4477,0,150,150,102,1,,,,,,,
,,,,,,,67daae91f4057c50a9fd19fc,682530fd1893e63b4b947f44,2025-05-15_02h14.26.140,cuing_paradigm_dot,2024.1.5,Linux armv81,59.52380952,68242c07d0c0e200c6451fdd,,,,,,,,,,,493.4494,493.949,,,494.2047,495.1409,left,,,,,,,,0.55,,,,,,493.9491,494.2042,0.9119,,495.1412,496.2251,0,151,151,140,1,,,,,,,
,,,,,,,67daae91f4057c50a9fd19fc,682530fd1893e63b4b947f44,2025-05-15_02h14.26.140,cuing_paradigm_dot,2024.1.5,Linux armv81,59.52380952,68242c07d0c0e200c6451fdd,,,,,,,,,,,496.228,496.7284,,,496.9769,497.7092,left,,,,,,,,0.1,,,,,,496.729,496.9766,0.7104,,497.7094,498.818,0,152,152,29,1,,,,,,,
,,,,,,,67daae91f4057c50a9fd19fc,682530fd1893e63b4b947f44,2025-05-15_02h14.26.140,cuing_paradigm_dot,2024.1.5,Linux armv81,59.52380952,68242c07d0c0e200c6451fdd,,,,,,,,,,,498.8203,499.3288,,,499.5635,500.4475,right,,,,,,,,0.5,,,,,,499.329,499.5633,0.8608,,500.4477,501.5395,0,153,153,109,1,,,,,,,
,,,,,,,67daae91f4057c50a9fd19fc,682530fd1893e63b4b947f44,2025-05-15_02h14.26.140,cuing_paradigm_dot,2024.1.5,Linux armv81,59.52380952,68242c07d0c0e200c6451fdd,,,,,,,,,,,501.5441,502.0489,,,502.2775,502.9954,left,,,,,,,,0.45,,,,,,502.049,502.2771,0.6987,,502.9956,504.0912,0,154,154,77,1,,,,,,,
,,,,,,,67daae91f4057c50a9fd19fc,682530fd1893e63b4b947f44,2025-05-15_02h14.26.140,cuing_paradigm_dot,2024.1.5,Linux armv81,59.52380952,68242c07d0c0e200c6451fdd,,,,,,,,,,,504.093,504.5916,,,504.8379,505.5577,left,,,,,,,,0.4,,,,,,504.5917,504.8376,0.6992,,505.5583,506.6484,0,155,155,33,1,,,,,,,
,,,,,,,67daae91f4057c50a9fd19fc,682530fd1893e63b4b947f44,2025-05-15_02h14.26.140,cuing_paradigm_dot,2024.1.5,Linux armv81,59.52380952,68242c07d0c0e200c6451fdd,,,,,,,,,,,506.6507,507.1287,,,507.377,508.1329,left,,,,,,,,0.45,,,,,,507.1289,507.3768,0.7282,,508.133,509.222,0,156,156,79,1,,,,,,,
,,,,,,,67daae91f4057c50a9fd19fc,682530fd1893e63b4b947f44,2025-05-15_02h14.26.140,cuing_paradigm_dot,2024.1.5,Linux armv81,59.52380952,68242c07d0c0e200c6451fdd,,,,,,,,,,,509.2246,509.7062,,,509.9588,510.5287,right,,,,,,,,0.6,,,,,,509.7063,509.9586,0.5507,,510.5289,511.6256,0,157,157,162,1,,,,,,,
,,,,,,,67daae91f4057c50a9fd19fc,682530fd1893e63b4b947f44,2025-05-15_02h14.26.140,cuing_paradigm_dot,2024.1.5,Linux armv81,59.52380952,68242c07d0c0e200c6451fdd,,,,,,,,,,,511.6276,512.1246,,,512.3624,513.101,left,,,,,,,,0.4,,,,,,512.1247,512.3622,0.7148,,513.1017,514.203,0,158,158,35,1,,,,,,,
,,,,,,,67daae91f4057c50a9fd19fc,682530fd1893e63b4b947f44,2025-05-15_02h14.26.140,cuing_paradigm_dot,2024.1.5,Linux armv81,59.52380952,68242c07d0c0e200c6451fdd,,,,,,,,,,,514.2048,514.6981,,,514.955,516.2191,left,,,,,,,,0.5,,,,,,514.6983,514.9548,1.2373,,516.2193,517.3074,0,159,159,118,1,,,,,,,
,,,,,,,67daae91f4057c50a9fd19fc,682530fd1893e63b4b947f44,2025-05-15_02h14.26.140,cuing_paradigm_dot,2024.1.5,Linux armv81,59.52380952,68242c07d0c0e200c6451fdd,,,,,,,,,,,517.3087,517.7986,,,518.0532,518.8307,right,,,,,,,,0.5,,,,,,517.7988,518.053,0.7559,,518.8309,519.9322,0,160,160,96,1,,,,,,,
,,,,,,,67daae91f4057c50a9fd19fc,682530fd1893e63b4b947f44,2025-05-15_02h14.26.140,cuing_paradigm_dot,2024.1.5,Linux armv81,59.52380952,68242c07d0c0e200c6451fdd,,,,,,,,,,,519.9347,520.4411,,,520.6885,521.3309,left,,,,,,,,0.1,,,,,,520.4413,520.6882,0.6171,,521.3314,522.4294,0,161,161,25,1,,,,,,,
,,,,,,,67daae91f4057c50a9fd19fc,682530fd1893e63b4b947f44,2025-05-15_02h14.26.140,cuing_paradigm_dot,2024.1.5,Linux armv81,59.52380952,68242c07d0c0e200c6451fdd,,,,,,,,,,,522.4318,522.9208,,,523.1664,524.4366,left,,,,,,,,0.55,,,,,,522.921,523.1661,1.2482,,524.4369,525.5271,0,162,162,130,1,,,,,,,
,,,,,,,67daae91f4057c50a9fd19fc,682530fd1893e63b4b947f44,2025-05-15_02h14.26.140,cuing_paradigm_dot,2024.1.5,Linux armv81,59.52380952,68242c07d0c0e200c6451fdd,,,,,,,,,,,525.5289,526.0277,,,526.2906,526.8298,right,,,,,,,,0.55,,,,,,526.0279,526.2901,0.5181,,526.8301,527.9264,0,163,163,148,1,,,,,,,
,,,,,,,67daae91f4057c50a9fd19fc,682530fd1893e63b4b947f44,2025-05-15_02h14.26.140,cuing_paradigm_dot,2024.1.5,Linux armv81,59.52380952,68242c07d0c0e200c6451fdd,,,,,,,,,,,527.9287,528.4271,,,528.6775,529.3317,left,,,,,,,,0.1,,,,,,528.4274,528.6773,0.6339,,529.3319,530.4252,0,164,164,2,1,,,,,,,
,,,,,,,67daae91f4057c50a9fd19fc,682530fd1893e63b4b947f44,2025-05-15_02h14.26.140,cuing_paradigm_dot,2024.1.5,Linux armv81,59.52380952,68242c07d0c0e200c6451fdd,,,,,,,,,,,530.4296,530.9193,,,531.1701,531.9255,left,,,,,,,,0.45,,,,,,530.9195,531.1697,0.7357,,531.926,533.0161,0,165,165,67,1,,,,,,,
,,,,,,,67daae91f4057c50a9fd19fc,682530fd1893e63b4b947f44,2025-05-15_02h14.26.140,cuing_paradigm_dot,2024.1.5,Linux armv81,59.52380952,68242c07d0c0e200c6451fdd,,,,,,,,,,,533.0202,533.4966,,,533.7342,534.2986,right,,,,,,,,0.6,,,,,,533.4967,533.7337,0.538,,534.2988,535.3828,0,166,166,172,1,,,,,,,
,,,,,,,67daae91f4057c50a9fd19fc,682530fd1893e63b4b947f44,2025-05-15_02h14.26.140,cuing_paradigm_dot,2024.1.5,Linux armv81,59.52380952,68242c07d0c0e200c6451fdd,,,,,,,,,,,535.3855,535.8838,,,536.1367,536.6643,right,,,,,,,,0.9,,,,,,535.884,536.1366,0.5077,,536.6645,537.7478,0,167,167,185,1,,,,,,,
,,,,,,,67daae91f4057c50a9fd19fc,682530fd1893e63b4b947f44,2025-05-15_02h14.26.140,cuing_paradigm_dot,2024.1.5,Linux armv81,59.52380952,68242c07d0c0e200c6451fdd,,,,,,,,,,,537.751,538.239,,,538.4847,539.3204,right,,,,,,,,0.55,,,,,,538.2393,538.484,0.8143,,539.3208,540.4117,0,168,168,123,1,,,,,,,
,,,,,,,67daae91f4057c50a9fd19fc,682530fd1893e63b4b947f44,2025-05-15_02h14.26.140,cuing_paradigm_dot,2024.1.5,Linux armv81,59.52380952,68242c07d0c0e200c6451fdd,,,,,,,,,,,540.4134,540.9229,,,541.1669,542.1156,right,,,,,,,,0.9,,,,,,540.9234,541.1667,0.9285,,542.1158,543.2038,0,169,169,192,1,,,,,,,
,,,,,,,67daae91f4057c50a9fd19fc,682530fd1893e63b4b947f44,2025-05-15_02h14.26.140,cuing_paradigm_dot,2024.1.5,Linux armv81,59.52380952,68242c07d0c0e200c6451fdd,,,,,,,,,,,543.2067,543.6844,,,543.9219,544.4426,right,,,,,,,,0.9,,,,,,543.6846,543.9215,0.5014,,544.443,545.5437,0,170,170,203,1,,,,,,,
,,,,,,,67daae91f4057c50a9fd19fc,682530fd1893e63b4b947f44,2025-05-15_02h14.26.140,cuing_paradigm_dot,2024.1.5,Linux armv81,59.52380952,68242c07d0c0e200c6451fdd,,,,,,,,,,,545.5462,546.0411,,,546.2929,547.1001,right,,,,,,,,0.9,,,,,,546.0413,546.2927,0.7821,,547.1005,548.1918,0,171,171,200,1,,,,,,,
,,,,,,,67daae91f4057c50a9fd19fc,682530fd1893e63b4b947f44,2025-05-15_02h14.26.140,cuing_paradigm_dot,2024.1.5,Linux armv81,59.52380952,68242c07d0c0e200c6451fdd,,,,,,,,,,,548.1945,548.6812,,,548.9377,549.4326,right,,,,,,,,0.55,,,,,,548.6826,548.9375,0.4765,,549.4328,550.5404,0,172,172,138,1,,,,,,,
,,,,,,,67daae91f4057c50a9fd19fc,682530fd1893e63b4b947f44,2025-05-15_02h14.26.140,cuing_paradigm_dot,2024.1.5,Linux armv81,59.52380952,68242c07d0c0e200c6451fdd,,,,,,,,,,,550.5445,551.022,,,551.2676,552.0625,left,,,,,,,,0.4,,,,,,551.0222,551.2673,0.7701,,552.0628,553.1729,0,173,173,58,1,,,,,,,
,,,,,,,67daae91f4057c50a9fd19fc,682530fd1893e63b4b947f44,2025-05-15_02h14.26.140,cuing_paradigm_dot,2024.1.5,Linux armv81,59.52380952,68242c07d0c0e200c6451fdd,,,,,,,,,,,553.1754,553.6605,,,553.9119,554.4725,left,,,,,,,,0.4,,,,,,553.6607,553.9116,0.5394,,554.4727,555.5656,0,174,174,44,1,,,,,,,
,,,,,,,67daae91f4057c50a9fd19fc,682530fd1893e63b4b947f44,2025-05-15_02h14.26.140,cuing_paradigm_dot,2024.1.5,Linux armv81,59.52380952,68242c07d0c0e200c6451fdd,,,,,,,,,,,555.569,556.0755,,,556.3306,556.8668,left,,,,,,,,0.1,,,,,,556.0757,556.3304,0.5158,,556.8671,557.9648,0,175,175,1,1,,,,,,,
,,,,,,,67daae91f4057c50a9fd19fc,682530fd1893e63b4b947f44,2025-05-15_02h14.26.140,cuing_paradigm_dot,2024.1.5,Linux armv81,59.52380952,68242c07d0c0e200c6451fdd,,,,,,,,,,,557.9681,558.4725,,,558.7183,559.9084,left,,,,,,,,0.5,,,,,,558.4727,558.7181,1.1708,,559.9086,561.0092,0,176,176,119,1,,,,,,,
,,,,,,,67daae91f4057c50a9fd19fc,682530fd1893e63b4b947f44,2025-05-15_02h14.26.140,cuing_paradigm_dot,2024.1.5,Linux armv81,59.52380952,68242c07d0c0e200c6451fdd,,,,,,,,,,,561.0126,561.5108,,,561.7572,562.2851,right,,,,,,,,0.9,,,,,,561.5113,561.757,0.5027,,562.2855,563.3936,0,177,177,208,1,,,,,,,
,,,,,,,67daae91f4057c50a9fd19fc,682530fd1893e63b4b947f44,2025-05-15_02h14.26.140,cuing_paradigm_dot,2024.1.5,Linux armv81,59.52380952,68242c07d0c0e200c6451fdd,,,,,,,,,,,563.3956,563.8867,,,564.136,564.53,right,,,,,,,,0.9,,,,,,563.8868,564.1358,0.3692,,564.5303,565.6203,0,178,178,201,1,,,,,,,
,,,,,,,67daae91f4057c50a9fd19fc,682530fd1893e63b4b947f44,2025-05-15_02h14.26.140,cuing_paradigm_dot,2024.1.5,Linux armv81,59.52380952,68242c07d0c0e200c6451fdd,,,,,,,,,,,565.6237,566.1294,,,566.392,567.06,left,,,,,,,,0.45,,,,,,566.132,566.3918,0.647,,567.0603,568.1517,0,179,179,88,1,,,,,,,
,,,,,,,67daae91f4057c50a9fd19fc,682530fd1893e63b4b947f44,2025-05-15_02h14.26.140,cuing_paradigm_dot,2024.1.5,Linux armv81,59.52380952,68242c07d0c0e200c6451fdd,,,,,,,,,,,568.1559,568.6439,,,568.9002,569.3207,right,,,,,,,,0.9,,,,,,568.644,568.8998,0.3974,,569.3209,570.3999,0,180,180,181,1,,,,,,,
,,,,,,,67daae91f4057c50a9fd19fc,682530fd1893e63b4b947f44,2025-05-15_02h14.26.140,cuing_paradigm_dot,2024.1.5,Linux armv81,59.52380952,68242c07d0c0e200c6451fdd,,,,,,,,,,,570.4028,570.8992,,,571.1494,571.6428,right,,,,,,,,0.6,,,,,,570.8995,571.1492,0.4713,,571.6431,572.7538,0,181,181,174,1,,,,,,,
,,,,,,,67daae91f4057c50a9fd19fc,682530fd1893e63b4b947f44,2025-05-15_02h14.26.140,cuing_paradigm_dot,2024.1.5,Linux armv81,59.52380952,68242c07d0c0e200c6451fdd,,,,,,,,,,,572.756,573.2456,,,573.4772,574.2874,left,,,,,,,,0.4,,,,,,573.2457,573.4769,0.7915,,574.2876,575.3755,0,182,182,30,1,,,,,,,
,,,,,,,67daae91f4057c50a9fd19fc,682530fd1893e63b4b947f44,2025-05-15_02h14.26.140,cuing_paradigm_dot,2024.1.5,Linux armv81,59.52380952,68242c07d0c0e200c6451fdd,,,,,,,,,,,575.3776,575.8746,,,576.1224,576.6439,left,,,,,,,,0.1,,,,,,575.875,576.1221,0.497,,576.6442,577.7369,0,183,183,28,1,,,,,,,
,,,,,,,67daae91f4057c50a9fd19fc,682530fd1893e63b4b947f44,2025-05-15_02h14.26.140,cuing_paradigm_dot,2024.1.5,Linux armv81,59.52380952,68242c07d0c0e200c6451fdd,,,,,,,,,,,577.7396,578.2296,,,578.4749,578.9569,right,,,,,,,,0.6,,,,,,578.2299,578.4746,0.4629,,578.9571,580.0531,0,184,184,154,1,,,,,,,
,,,,,,,67daae91f4057c50a9fd19fc,682530fd1893e63b4b947f44,2025-05-15_02h14.26.140,cuing_paradigm_dot,2024.1.5,Linux armv81,59.52380952,68242c07d0c0e200c6451fdd,,,,,,,,,,,580.0557,580.5437,,,580.7906,581.4614,left,,,,,,,,0.45,,,,,,580.5441,580.7902,0.6488,,581.4616,582.5688,0,185,185,83,1,,,,,,,
,,,,,,,67daae91f4057c50a9fd19fc,682530fd1893e63b4b947f44,2025-05-15_02h14.26.140,cuing_paradigm_dot,2024.1.5,Linux armv81,59.52380952,68242c07d0c0e200c6451fdd,,,,,,,,,,,582.5722,583.0484,,,583.2967,584.1811,right,,,,,,,,0.6,,,,,,583.0491,583.2966,0.8644,,584.1814,585.2875,0,186,186,156,1,,,,,,,
,,,,,,,67daae91f4057c50a9fd19fc,682530fd1893e63b4b947f44,2025-05-15_02h14.26.140,cuing_paradigm_dot,2024.1.5,Linux armv81,59.52380952,68242c07d0c0e200c6451fdd,,,,,,,,,,,585.2902,585.7878,,,586.0176,586.8877,right,,,,,,,,0.9,,,,,,585.7883,586.0174,0.8495,,586.8879,587.9916,0,187,187,190,1,,,,,,,
,,,,,,,67daae91f4057c50a9fd19fc,682530fd1893e63b4b947f44,2025-05-15_02h14.26.140,cuing_paradigm_dot,2024.1.5,Linux armv81,59.52380952,68242c07d0c0e200c6451fdd,,,,,,,,,,,587.9949,588.4894,,,588.7296,589.4,right,,,,,,,,0.55,,,,,,588.4896,588.7293,0.6484,,589.4002,590.4796,0,188,188,137,1,,,,,,,
,,,,,,,67daae91f4057c50a9fd19fc,682530fd1893e63b4b947f44,2025-05-15_02h14.26.140,cuing_paradigm_dot,2024.1.5,Linux armv81,59.52380952,68242c07d0c0e200c6451fdd,,,,,,,,,,,590.4841,590.9812,,,591.2303,591.8476,left,,,,,,,,0.45,,,,,,590.9814,591.2302,0.5972,,591.8479,592.9247,0,189,189,68,1,,,,,,,
,,,,,,,67daae91f4057c50a9fd19fc,682530fd1893e63b4b947f44,2025-05-15_02h14.26.140,cuing_paradigm_dot,2024.1.5,Linux armv81,59.52380952,68242c07d0c0e200c6451fdd,,,,,,,,,,,592.9277,593.4227,,,593.6767,594.4361,left,,,,,,,,0.1,,,,,,593.4228,593.6764,0.7395,,594.4363,595.5279,0,190,190,3,1,,,,,,,
,,,,,,,67daae91f4057c50a9fd19fc,682530fd1893e63b4b947f44,2025-05-15_02h14.26.140,cuing_paradigm_dot,2024.1.5,Linux armv81,59.52380952,68242c07d0c0e200c6451fdd,,,,,,,,,,,595.5301,596.0275,,,596.281,597.0405,left,,,,,,,,0.5,,,,,,596.0278,596.2807,0.7347,,597.0409,598.1483,0,191,191,100,1,,,,,,,
,,,,,,,67daae91f4057c50a9fd19fc,682530fd1893e63b4b947f44,2025-05-15_02h14.26.140,cuing_paradigm_dot,2024.1.5,Linux armv81,59.52380952,68242c07d0c0e200c6451fdd,,,,,,,,,,,598.1516,598.6616,,,598.9036,599.4097,right,,,,,,,,0.9,,,,,,598.6617,598.9034,0.4831,,599.4102,600.5107,0,192,192,189,1,,,,,,,
,,,,,,,67daae91f4057c50a9fd19fc,682530fd1893e63b4b947f44,2025-05-15_02h14.26.140,cuing_paradigm_dot,2024.1.5,Linux armv81,59.52380952,68242c07d0c0e200c6451fdd,,,,,,,,,,,600.5126,601.0231,,,601.2736,602.1401,right,,,,,,,,0.55,,,,,,601.0232,601.2734,0.846,,602.1404,603.2477,0,193,193,136,1,,,,,,,
,,,,,,,67daae91f4057c50a9fd19fc,682530fd1893e63b4b947f44,2025-05-15_02h14.26.140,cuing_paradigm_dot,2024.1.5,Linux armv81,59.52380952,68242c07d0c0e200c6451fdd,,,,,,,,,,,603.2502,603.7561,,,603.9863,605.0262,left,,,,,,,,0.45,,,,,,603.7563,603.9861,1.0169,,605.0264,606.1198,0,194,194,65,1,,,,,,,
,,,,,,,67daae91f4057c50a9fd19fc,682530fd1893e63b4b947f44,2025-05-15_02h14.26.140,cuing_paradigm_dot,2024.1.5,Linux armv81,59.52380952,68242c07d0c0e200c6451fdd,,,,,,,,,,,606.1223,606.6297,,,606.8757,607.5191,left,,,,,,,,0.1,,,,,,606.63,606.8755,0.6213,,607.5194,608.6212,0,195,195,11,1,,,,,,,
,,,,,,,67daae91f4057c50a9fd19fc,682530fd1893e63b4b947f44,2025-05-15_02h14.26.140,cuing_paradigm_dot,2024.1.5,Linux armv81,59.52380952,68242c07d0c0e200c6451fdd,,,,,,,,,,,608.6234,609.127,,,609.3806,609.8982,right,,,,,,,,0.6,,,,,,609.1272,609.3804,0.4956,,609.8984,611.0082,0,196,196,150,1,,,,,,,
,,,,,,,67daae91f4057c50a9fd19fc,682530fd1893e63b4b947f44,2025-05-15_02h14.26.140,cuing_paradigm_dot,2024.1.5,Linux armv81,59.52380952,68242c07d0c0e200c6451fdd,,,,,,,,,,,611.0111,611.5155,,,611.7608,612.5543,left,,,,,,,,0.45,,,,,,611.5159,611.7603,0.7709,,612.5545,613.6562,0,197,197,86,1,,,,,,,
,,,,,,,67daae91f4057c50a9fd19fc,682530fd1893e63b4b947f44,2025-05-15_02h14.26.140,cuing_paradigm_dot,2024.1.5,Linux armv81,59.52380952,68242c07d0c0e200c6451fdd,,,,,,,,,,,613.6584,614.1557,,,614.4009,615.2436,left,,,,,,,,0.6,,,,,,614.1558,614.4006,0.8231,,615.2439,616.3432,0,198,198,169,1,,,,,,,
,,,,,,,67daae91f4057c50a9fd19fc,682530fd1893e63b4b947f44,2025-05-15_02h14.26.140,cuing_paradigm_dot,2024.1.5,Linux armv81,59.52380952,68242c07d0c0e200c6451fdd,,,,,,,,,,,616.3451,616.8447,,,617.1001,617.7333,left,,,,,,,,0.1,,,,,,616.845,617.0996,0.6073,,617.7335,618.8342,0,199,199,14,1,,,,,,,
,,,,,,,67daae91f4057c50a9fd19fc,682530fd1893e63b4b947f44,2025-05-15_02h14.26.140,cuing_paradigm_dot,2024.1.5,Linux armv81,59.52380952,68242c07d0c0e200c6451fdd,,,,,,,,,,,618.8387,619.3179,,,619.5652,620.1198,right,,,,,,,,0.6,,,,,,619.3183,619.565,0.5335,,620.1201,621.2067,0,200,200,151,1,,,,,,,
,,,,,,,67daae91f4057c50a9fd19fc,682530fd1893e63b4b947f44,2025-05-15_02h14.26.140,cuing_paradigm_dot,2024.1.5,Linux armv81,59.52380952,68242c07d0c0e200c6451fdd,,,,,,,,,,,621.2091,621.6924,,,621.9285,622.5854,right,,,,,,,,0.55,,,,,,621.6926,621.9284,0.6371,,622.5857,623.6757,0,201,201,144,1,,,,,,,
,,,,,,,67daae91f4057c50a9fd19fc,682530fd1893e63b4b947f44,2025-05-15_02h14.26.140,cuing_paradigm_dot,2024.1.5,Linux armv81,59.52380952,68242c07d0c0e200c6451fdd,,,,,,,,,,,623.6775,624.1705,,,624.4237,625.0132,right,,,,,,,,0.9,,,,,,624.1707,624.4232,0.5669,,625.0134,626.1169,0,202,202,186,1,,,,,,,
,,,,,,,67daae91f4057c50a9fd19fc,682530fd1893e63b4b947f44,2025-05-15_02h14.26.140,cuing_paradigm_dot,2024.1.5,Linux armv81,59.52380952,68242c07d0c0e200c6451fdd,,,,,,,,,,,626.1193,626.6231,,,626.8547,627.5543,right,,,,,,,,0.6,,,,,,626.6232,626.8545,0.6777,,627.5545,628.647,0,203,203,163,1,,,,,,,
,,,,,,,67daae91f4057c50a9fd19fc,682530fd1893e63b4b947f44,2025-05-15_02h14.26.140,cuing_paradigm_dot,2024.1.5,Linux armv81,59.52380952,68242c07d0c0e200c6451fdd,,,,,,,,,,,628.6488,629.1525,,,629.4066,630.1298,left,,,,,,,,0.4,,,,,,629.1527,629.4064,0.7012,,630.1302,631.2169,0,204,204,42,1,,,,,,,
,,,,,,,67daae91f4057c50a9fd19fc,682530fd1893e63b4b947f44,2025-05-15_02h14.26.140,cuing_paradigm_dot,2024.1.5,Linux armv81,59.52380952,68242c07d0c0e200c6451fdd,,,,,,,,,,,631.2201,631.7199,,,631.978,633.1463,right,,,,,,,,0.9,,,,,,631.7202,631.9776,1.1482,,633.1465,634.2241,0,205,205,199,1,,,,,,,
,,,,,,,67daae91f4057c50a9fd19fc,682530fd1893e63b4b947f44,2025-05-15_02h14.26.140,cuing_paradigm_dot,2024.1.5,Linux armv81,59.52380952,68242c07d0c0e200c6451fdd,,,,,,,,,,,634.2268,634.7369,,,634.9933,635.7966,right,,,,,,,,0.45,,,,,,634.7371,634.9932,0.7822,,635.7971,636.9062,0,206,206,66,1,,,,,,,
,,,,,,,67daae91f4057c50a9fd19fc,682530fd1893e63b4b947f44,2025-05-15_02h14.26.140,cuing_paradigm_dot,2024.1.5,Linux armv81,59.52380952,68242c07d0c0e200c6451fdd,,,,,,,,,,,636.9083,637.3965,,,637.6408,638.234,right,,,,,,,,0.6,,,,,,637.3965,637.6407,0.5729,,638.2341,639.3289,0,207,207,158,1,,,,,,,
,,,,,,,67daae91f4057c50a9fd19fc,682530fd1893e63b4b947f44,2025-05-15_02h14.26.140,cuing_paradigm_dot,2024.1.5,Linux armv81,59.52380952,68242c07d0c0e200c6451fdd,,,,,,,,,,,639.3305,639.8293,,,640.0639,640.812,left,,,,,,,,0.45,,,,,,639.8294,640.0638,0.7304,,640.8123,641.9128,0,208,208,85,1,,,,,,,
,,,,,,,67daae91f4057c50a9fd19fc,682530fd1893e63b4b947f44,2025-05-15_02h14.26.140,cuing_paradigm_dot,2024.1.5,Linux armv81,59.52380952,68242c07d0c0e200c6451fdd,,,,,,,,,,,641.9162,642.4032,,,642.6423,643.2069,right,,,,,,,,0.9,,,,,,642.4034,642.6419,0.544,,643.2072,644.3036,0,209,209,197,1,,,,,,,
,,,,,,,67daae91f4057c50a9fd19fc,682530fd1893e63b4b947f44,2025-05-15_02h14.26.140,cuing_paradigm_dot,2024.1.5,Linux armv81,59.52380952,68242c07d0c0e200c6451fdd,,,,,,,,,,,,,,,,,,,,,,,,,,,,,,,,,,,,,,,,,,644.3144,704.309,,,,,
,,,,,,,67daae91f4057c50a9fd19fc,682530fd1893e63b4b947f44,2025-05-15_02h14.26.140,cuing_paradigm_dot,2024.1.5,Linux armv81,59.52380952,68242c07d0c0e200c6451fdd,,,,,,,,,,,704.4628,704.816,,,705.0768,706.225,right,,,,,,,,0.9,,,,,,704.8165,705.0765,1.1291,,706.2253,707.3112,,,,,,,,0,0,0,206,1
,,,,,,,67daae91f4057c50a9fd19fc,682530fd1893e63b4b947f44,2025-05-15_02h14.26.140,cuing_paradigm_dot,2024.1.5,Linux armv81,59.52380952,68242c07d0c0e200c6451fdd,,,,,,,,,,,707.3145,707.8192,,,708.054,708.5946,right,,,,,,,,0.9,,,,,,707.8194,708.0536,0.5132,,708.5949,709.6818,,,,,,,,0,1,1,197,1
,,,,,,,67daae91f4057c50a9fd19fc,682530fd1893e63b4b947f44,2025-05-15_02h14.26.140,cuing_paradigm_dot,2024.1.5,Linux armv81,59.52380952,68242c07d0c0e200c6451fdd,,,,,,,,,,,709.6837,710.1735,,,710.4333,710.8313,right,,,,,,,,0.9,,,,,,710.1737,710.4331,0.3738,,710.8315,711.928,,,,,,,,0,2,2,199,1
,,,,,,,67daae91f4057c50a9fd19fc,682530fd1893e63b4b947f44,2025-05-15_02h14.26.140,cuing_paradigm_dot,2024.1.5,Linux armv81,59.52380952,68242c07d0c0e200c6451fdd,,,,,,,,,,,711.9317,712.4401,,,712.6939,713.4384,right,,,,,,,,0.6,,,,,,712.4409,712.6936,0.7208,,713.4386,714.5415,,,,,,,,0,3,3,169,1
,,,,,,,67daae91f4057c50a9fd19fc,682530fd1893e63b4b947f44,2025-05-15_02h14.26.140,cuing_paradigm_dot,2024.1.5,Linux armv81,59.52380952,68242c07d0c0e200c6451fdd,,,,,,,,,,,714.544,715.0315,,,715.2756,716.0431,right,,,,,,,,0.6,,,,,,715.0317,715.2754,0.7431,,716.0434,717.1489,,,,,,,,0,4,4,179,1
,,,,,,,67daae91f4057c50a9fd19fc,682530fd1893e63b4b947f44,2025-05-15_02h14.26.140,cuing_paradigm_dot,2024.1.5,Linux armv81,59.52380952,68242c07d0c0e200c6451fdd,,,,,,,,,,,717.1511,717.641,,,717.8757,718.7155,left,,,,,,,,0.6,,,,,,717.6417,717.8754,0.811,,718.7159,719.798,,,,,,,,0,5,5,166,1
,,,,,,,67daae91f4057c50a9fd19fc,682530fd1893e63b4b947f44,2025-05-15_02h14.26.140,cuing_paradigm_dot,2024.1.5,Linux armv81,59.52380952,68242c07d0c0e200c6451fdd,,,,,,,,,,,719.8028,720.3004,,,720.5384,721.2165,left,,,,,,,,0.45,,,,,,720.3032,720.5381,0.6547,,721.2168,722.3159,,,,,,,,0,6,6,79,1
,,,,,,,67daae91f4057c50a9fd19fc,682530fd1893e63b4b947f44,2025-05-15_02h14.26.140,cuing_paradigm_dot,2024.1.5,Linux armv81,59.52380952,68242c07d0c0e200c6451fdd,,,,,,,,,,,722.3181,722.8054,,,723.0504,723.6627,right,,,,,,,,0.4,,,,,,722.8057,723.05,0.5968,,723.663,724.7474,,,,,,,,0,7,7,53,1
,,,,,,,67daae91f4057c50a9fd19fc,682530fd1893e63b4b947f44,2025-05-15_02h14.26.140,cuing_paradigm_dot,2024.1.5,Linux armv81,59.52380952,68242c07d0c0e200c6451fdd,,,,,,,,,,,724.7512,725.2534,,,725.4995,726.3761,left,,,,,,,,0.1,,,,,,725.2535,725.4974,0.8555,,726.3764,727.4715,,,,,,,,0,8,8,12,1
,,,,,,,67daae91f4057c50a9fd19fc,682530fd1893e63b4b947f44,2025-05-15_02h14.26.140,cuing_paradigm_dot,2024.1.5,Linux armv81,59.52380952,68242c07d0c0e200c6451fdd,,,,,,,,,,,727.4753,727.9811,,,728.2255,728.9591,left,,,,,,,,0.4,,,,,,727.9812,728.2253,0.711,,728.9593,730.0552,,,,,,,,0,9,9,54,1
,,,,,,,67daae91f4057c50a9fd19fc,682530fd1893e63b4b947f44,2025-05-15_02h14.26.140,cuing_paradigm_dot,2024.1.5,Linux armv81,59.52380952,68242c07d0c0e200c6451fdd,,,,,,,,,,,730.0591,730.5369,,,730.7728,731.5219,left,,,,,,,,0.45,,,,,,730.5371,730.7725,0.728,,731.5223,732.6246,,,,,,,,0,10,10,76,1
,,,,,,,67daae91f4057c50a9fd19fc,682530fd1893e63b4b947f44,2025-05-15_02h14.26.140,cuing_paradigm_dot,2024.1.5,Linux armv81,59.52380952,68242c07d0c0e200c6451fdd,,,,,,,,,,,732.628,733.1268,,,733.3513,734.1931,left,,,,,,,,0.5,,,,,,733.127,733.3483,0.8216,,734.1933,735.2992,,,,,,,,0,11,11,112,1
,,,,,,,67daae91f4057c50a9fd19fc,682530fd1893e63b4b947f44,2025-05-15_02h14.26.140,cuing_paradigm_dot,2024.1.5,Linux armv81,59.52380952,68242c07d0c0e200c6451fdd,,,,,,,,,,,735.3017,735.7803,,,736.034,736.4842,right,,,,,,,,0.9,,,,,,735.7804,736.0336,0.4281,,736.4844,737.5869,,,,,,,,0,12,12,187,1
,,,,,,,67daae91f4057c50a9fd19fc,682530fd1893e63b4b947f44,2025-05-15_02h14.26.140,cuing_paradigm_dot,2024.1.5,Linux armv81,59.52380952,68242c07d0c0e200c6451fdd,,,,,,,,,,,737.5902,738.093,,,738.3522,738.9309,right,,,,,,,,0.5,,,,,,738.0932,738.352,0.557,,738.9313,740.0251,,,,,,,,0,13,13,94,1
,,,,,,,67daae91f4057c50a9fd19fc,682530fd1893e63b4b947f44,2025-05-15_02h14.26.140,cuing_paradigm_dot,2024.1.5,Linux armv81,59.52380952,68242c07d0c0e200c6451fdd,,,,,,,,,,,740.0279,740.525,,,740.7573,741.4426,left,,,,,,,,0.45,,,,,,740.5251,740.7571,0.6637,,741.443,742.5257,,,,,,,,0,14,14,71,1
,,,,,,,67daae91f4057c50a9fd19fc,682530fd1893e63b4b947f44,2025-05-15_02h14.26.140,cuing_paradigm_dot,2024.1.5,Linux armv81,59.52380952,68242c07d0c0e200c6451fdd,,,,,,,,,,,742.5288,743.0334,,,743.2814,743.9752,left,,,,,,,,0.45,,,,,,743.0336,743.2811,0.671,,743.9754,745.0533,,,,,,,,0,15,15,74,1
,,,,,,,67daae91f4057c50a9fd19fc,682530fd1893e63b4b947f44,2025-05-15_02h14.26.140,cuing_paradigm_dot,2024.1.5,Linux armv81,59.52380952,68242c07d0c0e200c6451fdd,,,,,,,,,,,745.0568,745.5515,,,745.8108,746.6633,left,,,,,,,,0.5,,,,,,745.5518,745.8105,0.8293,,746.6639,747.7721,,,,,,,,0,16,16,90,1
,,,,,,,67daae91f4057c50a9fd19fc,682530fd1893e63b4b947f44,2025-05-15_02h14.26.140,cuing_paradigm_dot,2024.1.5,Linux armv81,59.52380952,68242c07d0c0e200c6451fdd,,,,,,,,,,,747.7742,748.2755,,,748.5155,749.2282,left,,,,,,,,0.4,,,,,,748.2756,748.5153,0.6912,,749.2286,750.3272,,,,,,,,0,17,17,43,1
,,,,,,,67daae91f4057c50a9fd19fc,682530fd1893e63b4b947f44,2025-05-15_02h14.26.140,cuing_paradigm_dot,2024.1.5,Linux armv81,59.52380952,68242c07d0c0e200c6451fdd,,,,,,,,,,,750.3293,750.8159,,,751.0495,751.814,left,,,,,,,,0.1,,,,,,750.8162,751.0493,0.7456,,751.8143,752.9051,,,,,,,,0,18,18,24,1
,,,,,,,67daae91f4057c50a9fd19fc,682530fd1893e63b4b947f44,2025-05-15_02h14.26.140,cuing_paradigm_dot,2024.1.5,Linux armv81,59.52380952,68242c07d0c0e200c6451fdd,,,,,,,,,,,752.9075,753.4057,,,753.6677,754.2282,right,,,,,,,,0.55,,,,,,753.4058,753.6675,0.5391,,754.2286,755.3269,,,,,,,,0,19,19,131,1
,,,,,,,67daae91f4057c50a9fd19fc,682530fd1893e63b4b947f44,2025-05-15_02h14.26.140,cuing_paradigm_dot,2024.1.5,Linux armv81,59.52380952,68242c07d0c0e200c6451fdd,,,,,,,,,,,755.3285,755.8301,,,756.0837,756.7922,left,,,,,,,,0.45,,,,,,755.8304,756.0835,0.6885,,756.7924,757.8811,,,,,,,,0,20,20,60,1
,,,,,,,67daae91f4057c50a9fd19fc,682530fd1893e63b4b947f44,2025-05-15_02h14.26.140,cuing_paradigm_dot,2024.1.5,Linux armv81,59.52380952,68242c07d0c0e200c6451fdd,,,,,,,,,,,757.885,758.369,,,758.609,759.5845,left,,,,,,,,0.55,,,,,,758.3693,758.6088,0.9458,,759.5847,760.6755,,,,,,,,0,21,21,127,1
,,,,,,,67daae91f4057c50a9fd19fc,682530fd1893e63b4b947f44,2025-05-15_02h14.26.140,cuing_paradigm_dot,2024.1.5,Linux armv81,59.52380952,68242c07d0c0e200c6451fdd,,,,,,,,,,,760.6775,761.1815,,,761.4291,762.1589,left,,,,,,,,0.1,,,,,,761.1818,761.4288,0.708,,762.1592,763.2628,,,,,,,,0,22,22,14,1
,,,,,,,67daae91f4057c50a9fd19fc,682530fd1893e63b4b947f44,2025-05-15_02h14.26.140,cuing_paradigm_dot,2024.1.5,Linux armv81,59.52380952,68242c07d0c0e200c6451fdd,,,,,,,,,,,763.2645,763.7682,,,764.0295,765.5233,,,,,,,,,0.5,,,,,,763.7684,764.0293,,,765.5235,766.6133,,,,,,,,0,23,23,119,1
,,,,,,,67daae91f4057c50a9fd19fc,682530fd1893e63b4b947f44,2025-05-15_02h14.26.140,cuing_paradigm_dot,2024.1.5,Linux armv81,59.52380952,68242c07d0c0e200c6451fdd,,,,,,,,,,,766.6173,767.1213,,,767.3646,768.2164,left,,,,,,,,0.4,,,,,,767.1215,767.3643,0.8291,,768.217,769.3069,,,,,,,,0,24,24,55,1
,,,,,,,67daae91f4057c50a9fd19fc,682530fd1893e63b4b947f44,2025-05-15_02h14.26.140,cuing_paradigm_dot,2024.1.5,Linux armv81,59.52380952,68242c07d0c0e200c6451fdd,,,,,,,,,,,769.3095,769.8044,,,770.0488,771.0504,left,,,,,,,,0.5,,,,,,769.8051,770.0487,0.9802,,771.0508,772.1315,,,,,,,,0,25,25,91,1
,,,,,,,67daae91f4057c50a9fd19fc,682530fd1893e63b4b947f44,2025-05-15_02h14.26.140,cuing_paradigm_dot,2024.1.5,Linux armv81,59.52380952,68242c07d0c0e200c6451fdd,,,,,,,,,,,772.1347,772.6279,,,772.8739,773.6417,left,,,,,,,,0.5,,,,,,772.628,772.8737,0.7448,,773.642,774.7314,,,,,,,,0,26,26,93,1
,,,,,,,67daae91f4057c50a9fd19fc,682530fd1893e63b4b947f44,2025-05-15_02h14.26.140,cuing_paradigm_dot,2024.1.5,Linux armv81,59.52380952,68242c07d0c0e200c6451fdd,,,,,,,,,,,774.7337,775.2406,,,775.4721,776.2325,right,,,,,,,,0.9,,,,,,775.241,775.4718,0.7391,,776.2331,777.3293,,,,,,,,0,27,27,182,1
,,,,,,,67daae91f4057c50a9fd19fc,682530fd1893e63b4b947f44,2025-05-15_02h14.26.140,cuing_paradigm_dot,2024.1.5,Linux armv81,59.52380952,68242c07d0c0e200c6451fdd,,,,,,,,,,,777.3313,777.8356,,,778.0759,778.7828,left,,,,,,,,0.45,,,,,,777.8358,778.0757,0.6801,,778.7831,779.8697,,,,,,,,0,28,28,63,1
,,,,,,,67daae91f4057c50a9fd19fc,682530fd1893e63b4b947f44,2025-05-15_02h14.26.140,cuing_paradigm_dot,2024.1.5,Linux armv81,59.52380952,68242c07d0c0e200c6451fdd,,,,,,,,,,,779.8724,780.3708,,,780.6284,781.8032,right,,,,,,,,0.55,,,,,,780.3718,780.6282,1.154,,781.8034,782.8993,,,,,,,,0,29,29,134,1
,,,,,,,67daae91f4057c50a9fd19fc,682530fd1893e63b4b947f44,2025-05-15_02h14.26.140,cuing_paradigm_dot,2024.1.5,Linux armv81,59.52380952,68242c07d0c0e200c6451fdd,,,,,,,,,,,782.9026,783.3976,,,783.6598,784.4771,left,,,,,,,,0.6,,,,,,783.3978,783.6596,0.7945,,784.4774,785.5802,,,,,,,,0,30,30,159,1
,,,,,,,67daae91f4057c50a9fd19fc,682530fd1893e63b4b947f44,2025-05-15_02h14.26.140,cuing_paradigm_dot,2024.1.5,Linux armv81,59.52380952,68242c07d0c0e200c6451fdd,,,,,,,,,,,785.5828,786.0774,,,786.3226,787.3091,left,,,,,,,,0.4,,,,,,786.0776,786.3222,0.965,,787.3094,788.4079,,,,,,,,0,31,31,35,1
,,,,,,,67daae91f4057c50a9fd19fc,682530fd1893e63b4b947f44,2025-05-15_02h14.26.140,cuing_paradigm_dot,2024.1.5,Linux armv81,59.52380952,68242c07d0c0e200c6451fdd,,,,,,,,,,,788.4105,788.9015,,,789.148,789.9317,right,,,,,,,,0.6,,,,,,788.9022,789.1474,0.7598,,789.932,791.0265,,,,,,,,0,32,32,154,1
,,,,,,,67daae91f4057c50a9fd19fc,682530fd1893e63b4b947f44,2025-05-15_02h14.26.140,cuing_paradigm_dot,2024.1.5,Linux armv81,59.52380952,68242c07d0c0e200c6451fdd,,,,,,,,,,,791.0289,791.511,,,791.7794,792.3169,right,,,,,,,,0.6,,,,,,791.5112,791.7792,0.5151,,792.3171,793.4044,,,,,,,,0,33,33,162,1
,,,,,,,67daae91f4057c50a9fd19fc,682530fd1893e63b4b947f44,2025-05-15_02h14.26.140,cuing_paradigm_dot,2024.1.5,Linux armv81,59.52380952,68242c07d0c0e200c6451fdd,,,,,,,,,,,793.4069,793.9017,,,794.1534,795.239,right,,,,,,,,0.5,,,,,,793.9019,794.1532,1.0668,,795.2397,796.3372,,,,,,,,0,34,34,117,1
,,,,,,,67daae91f4057c50a9fd19fc,682530fd1893e63b4b947f44,2025-05-15_02h14.26.140,cuing_paradigm_dot,2024.1.5,Linux armv81,59.52380952,68242c07d0c0e200c6451fdd,,,,,,,,,,,796.3399,796.8396,,,797.075,797.8767,right,,,,,,,,0.6,,,,,,796.8398,797.0748,0.7783,,797.8769,798.9677,,,,,,,,0,35,35,168,1
,,,,,,,67daae91f4057c50a9fd19fc,682530fd1893e63b4b947f44,2025-05-15_02h14.26.140,cuing_paradigm_dot,2024.1.5,Linux armv81,59.52380952,68242c07d0c0e200c6451fdd,,,,,,,,,,,798.9706,799.4598,,,799.6954,800.2696,right,,,,,,,,0.9,,,,,,799.4604,799.6952,0.5492,,800.2701,801.3692,,,,,,,,0,36,36,189,1
,,,,,,,67daae91f4057c50a9fd19fc,682530fd1893e63b4b947f44,2025-05-15_02h14.26.140,cuing_paradigm_dot,2024.1.5,Linux armv81,59.52380952,68242c07d0c0e200c6451fdd,,,,,,,,,,,801.3713,801.8776,,,802.1338,802.8125,right,,,,,,,,0.6,,,,,,801.8781,802.1332,0.6523,,802.8127,803.9213,,,,,,,,0,37,37,175,1
,,,,,,,67daae91f4057c50a9fd19fc,682530fd1893e63b4b947f44,2025-05-15_02h14.26.140,cuing_paradigm_dot,2024.1.5,Linux armv81,59.52380952,68242c07d0c0e200c6451fdd,,,,,,,,,,,803.9243,804.407,,,804.6588,805.2944,right,,,,,,,,0.9,,,,,,804.4071,804.6586,0.6163,,805.2946,806.3867,,,,,,,,0,38,38,188,1
,,,,,,,67daae91f4057c50a9fd19fc,682530fd1893e63b4b947f44,2025-05-15_02h14.26.140,cuing_paradigm_dot,2024.1.5,Linux armv81,59.52380952,68242c07d0c0e200c6451fdd,,,,,,,,,,,806.3891,806.8868,,,807.1237,807.8705,left,,,,,,,,0.5,,,,,,806.8871,807.1234,0.726,,807.871,808.9552,,,,,,,,0,39,39,115,1
,,,,,,,67daae91f4057c50a9fd19fc,682530fd1893e63b4b947f44,2025-05-15_02h14.26.140,cuing_paradigm_dot,2024.1.5,Linux armv81,59.52380952,68242c07d0c0e200c6451fdd,,,,,,,,,,,808.9574,809.4413,,,809.6825,810.421,left,,,,,,,,0.5,,,,,,809.4415,809.6822,0.7144,,810.4213,811.5014,,,,,,,,0,40,40,107,1
,,,,,,,67daae91f4057c50a9fd19fc,682530fd1893e63b4b947f44,2025-05-15_02h14.26.140,cuing_paradigm_dot,2024.1.5,Linux armv81,59.52380952,68242c07d0c0e200c6451fdd,,,,,,,,,,,811.5037,812.009,,,812.2397,813.0103,left,,,,,,,,0.5,,,,,,812.0093,812.2395,0.7499,,813.0105,814.1037,,,,,,,,0,41,41,111,1
,,,,,,,67daae91f4057c50a9fd19fc,682530fd1893e63b4b947f44,2025-05-15_02h14.26.140,cuing_paradigm_dot,2024.1.5,Linux armv81,59.52380952,68242c07d0c0e200c6451fdd,,,,,,,,,,,814.1072,814.6137,,,814.866,815.5814,left,,,,,,,,0.5,,,,,,814.6141,814.8657,0.6957,,815.5816,816.6614,,,,,,,,0,42,42,92,1
,,,,,,,67daae91f4057c50a9fd19fc,682530fd1893e63b4b947f44,2025-05-15_02h14.26.140,cuing_paradigm_dot,2024.1.5,Linux armv81,59.52380952,68242c07d0c0e200c6451fdd,,,,,,,,,,,816.664,817.1739,,,817.4154,818.0911,left,,,,,,,,0.4,,,,,,817.1742,817.4147,0.6536,,818.0913,819.1856,,,,,,,,0,43,43,52,1
,,,,,,,67daae91f4057c50a9fd19fc,682530fd1893e63b4b947f44,2025-05-15_02h14.26.140,cuing_paradigm_dot,2024.1.5,Linux armv81,59.52380952,68242c07d0c0e200c6451fdd,,,,,,,,,,,819.1895,819.6832,,,819.945,820.9526,right,,,,,,,,0.9,,,,,,819.6833,819.9448,0.9852,,820.9529,822.0559,,,,,,,,0,44,44,203,1
,,,,,,,67daae91f4057c50a9fd19fc,682530fd1893e63b4b947f44,2025-05-15_02h14.26.140,cuing_paradigm_dot,2024.1.5,Linux armv81,59.52380952,68242c07d0c0e200c6451fdd,,,,,,,,,,,822.0592,822.5564,,,822.8071,823.4944,left,,,,,,,,0.1,,,,,,822.5565,822.8068,0.6649,,823.4949,824.5732,,,,,,,,0,45,45,18,1
,,,,,,,67daae91f4057c50a9fd19fc,682530fd1893e63b4b947f44,2025-05-15_02h14.26.140,cuing_paradigm_dot,2024.1.5,Linux armv81,59.52380952,68242c07d0c0e200c6451fdd,,,,,,,,,,,824.5769,825.0805,,,825.3383,826.1266,left,,,,,,,,0.4,,,,,,825.0812,825.3381,0.7654,,826.1268,827.2187,,,,,,,,0,46,46,56,1
,,,,,,,67daae91f4057c50a9fd19fc,682530fd1893e63b4b947f44,2025-05-15_02h14.26.140,cuing_paradigm_dot,2024.1.5,Linux armv81,59.52380952,68242c07d0c0e200c6451fdd,,,,,,,,,,,827.221,827.7146,,,827.9727,828.5744,right,,,,,,,,0.6,,,,,,827.7147,827.9724,0.5836,,828.5747,829.6791,,,,,,,,0,47,47,165,1
,,,,,,,67daae91f4057c50a9fd19fc,682530fd1893e63b4b947f44,2025-05-15_02h14.26.140,cuing_paradigm_dot,2024.1.5,Linux armv81,59.52380952,68242c07d0c0e200c6451fdd,,,,,,,,,,,829.6832,830.1748,,,830.4357,831.0827,left,,,,,,,,0.45,,,,,,830.175,830.4353,0.6239,,831.083,832.168,,,,,,,,0,48,48,78,1
,,,,,,,67daae91f4057c50a9fd19fc,682530fd1893e63b4b947f44,2025-05-15_02h14.26.140,cuing_paradigm_dot,2024.1.5,Linux armv81,59.52380952,68242c07d0c0e200c6451fdd,,,,,,,,,,,832.1711,832.6744,,,832.9137,833.4755,right,,,,,,,,0.9,,,,,,832.6746,832.9135,0.5379,,833.4757,834.5676,,,,,,,,0,49,49,191,1
,,,,,,,67daae91f4057c50a9fd19fc,682530fd1893e63b4b947f44,2025-05-15_02h14.26.140,cuing_paradigm_dot,2024.1.5,Linux armv81,59.52380952,68242c07d0c0e200c6451fdd,,,,,,,,,,,834.5701,835.061,,,835.3278,836.0042,left,,,,,,,,0.5,,,,,,835.0613,835.3276,0.6502,,836.0043,837.1045,,,,,,,,0,50,50,108,1
,,,,,,,67daae91f4057c50a9fd19fc,682530fd1893e63b4b947f44,2025-05-15_02h14.26.140,cuing_paradigm_dot,2024.1.5,Linux armv81,59.52380952,68242c07d0c0e200c6451fdd,,,,,,,,,,,837.1064,837.6072,,,837.8592,838.6042,right,,,,,,,,0.6,,,,,,837.6075,837.859,0.717,,838.6044,839.6946,,,,,,,,0,51,51,157,1
,,,,,,,67daae91f4057c50a9fd19fc,682530fd1893e63b4b947f44,2025-05-15_02h14.26.140,cuing_paradigm_dot,2024.1.5,Linux armv81,59.52380952,68242c07d0c0e200c6451fdd,,,,,,,,,,,839.6976,840.1929,,,840.4304,841.1948,left,,,,,,,,0.45,,,,,,840.1931,840.4303,0.7474,,841.1951,842.2866,,,,,,,,0,52,52,73,1
,,,,,,,67daae91f4057c50a9fd19fc,682530fd1893e63b4b947f44,2025-05-15_02h14.26.140,cuing_paradigm_dot,2024.1.5,Linux armv81,59.52380952,68242c07d0c0e200c6451fdd,,,,,,,,,,,842.2895,842.7788,,,843.0241,843.6766,right,,,,,,,,0.55,,,,,,842.7789,843.024,0.628,,843.6768,844.7785,,,,,,,,0,53,53,121,1
,,,,,,,67daae91f4057c50a9fd19fc,682530fd1893e63b4b947f44,2025-05-15_02h14.26.140,cuing_paradigm_dot,2024.1.5,Linux armv81,59.52380952,68242c07d0c0e200c6451fdd,,,,,,,,,,,844.7807,845.27,,,845.5067,846.4731,right,,,,,,,,0.4,,,,,,845.2703,845.5063,0.94,,846.4733,847.568,,,,,,,,0,54,54,34,1
,,,,,,,67daae91f4057c50a9fd19fc,682530fd1893e63b4b947f44,2025-05-15_02h14.26.140,cuing_paradigm_dot,2024.1.5,Linux armv81,59.52380952,68242c07d0c0e200c6451fdd,,,,,,,,,,,847.5706,848.0837,,,848.344,849.1238,left,,,,,,,,0.45,,,,,,848.0838,848.3438,0.7569,,849.124,850.2112,,,,,,,,0,55,55,80,1
,,,,,,,67daae91f4057c50a9fd19fc,682530fd1893e63b4b947f44,2025-05-15_02h14.26.140,cuing_paradigm_dot,2024.1.5,Linux armv81,59.52380952,68242c07d0c0e200c6451fdd,,,,,,,,,,,850.2131,850.7051,,,850.9676,851.5497,right,,,,,,,,0.9,,,,,,850.7054,850.9673,0.5599,,851.55,852.6307,,,,,,,,0,56,56,181,1
,,,,,,,67daae91f4057c50a9fd19fc,682530fd1893e63b4b947f44,2025-05-15_02h14.26.140,cuing_paradigm_dot,2024.1.5,Linux armv81,59.52380952,68242c07d0c0e200c6451fdd,,,,,,,,,,,852.6329,853.1266,,,853.3693,853.9162,right,,,,,,,,0.5,,,,,,853.1268,853.3688,0.5215,,853.9165,855.0051,,,,,,,,0,57,57,118,1
,,,,,,,67daae91f4057c50a9fd19fc,682530fd1893e63b4b947f44,2025-05-15_02h14.26.140,cuing_paradigm_dot,2024.1.5,Linux armv81,59.52380952,68242c07d0c0e200c6451fdd,,,,,,,,,,,855.009,855.5003,,,855.7478,856.1891,right,,,,,,,,0.9,,,,,,855.5005,855.7476,0.418,,856.1893,857.2722,,,,,,,,0,58,58,198,1
,,,,,,,67daae91f4057c50a9fd19fc,682530fd1893e63b4b947f44,2025-05-15_02h14.26.140,cuing_paradigm_dot,2024.1.5,Linux armv81,59.52380952,68242c07d0c0e200c6451fdd,,,,,,,,,,,857.2747,857.778,,,858.0248,858.5036,right,,,,,,,,0.9,,,,,,857.7781,858.0247,0.4602,,858.5038,859.6086,,,,,,,,0,59,59,192,1
,,,,,,,67daae91f4057c50a9fd19fc,682530fd1893e63b4b947f44,2025-05-15_02h14.26.140,cuing_paradigm_dot,2024.1.5,Linux armv81,59.52380952,68242c07d0c0e200c6451fdd,,,,,,,,,,,859.6117,860.1075,,,860.3634,860.8412,right,,,,,,,,0.6,,,,,,860.1078,860.3631,0.4551,,860.8419,861.9322,,,,,,,,0,60,60,155,1
,,,,,,,67daae91f4057c50a9fd19fc,682530fd1893e63b4b947f44,2025-05-15_02h14.26.140,cuing_paradigm_dot,2024.1.5,Linux armv81,59.52380952,68242c07d0c0e200c6451fdd,,,,,,,,,,,861.9341,862.4292,,,862.7113,863.37,left,,,,,,,,0.1,,,,,,862.4294,862.7109,0.6385,,863.3703,864.4677,,,,,,,,0,61,61,4,1
,,,,,,,67daae91f4057c50a9fd19fc,682530fd1893e63b4b947f44,2025-05-15_02h14.26.140,cuing_paradigm_dot,2024.1.5,Linux armv81,59.52380952,68242c07d0c0e200c6451fdd,,,,,,,,,,,864.4707,864.9597,,,865.216,865.8076,right,,,,,,,,0.6,,,,,,864.96,865.2156,0.5675,,865.8078,866.9112,,,,,,,,0,62,62,158,1
,,,,,,,67daae91f4057c50a9fd19fc,682530fd1893e63b4b947f44,2025-05-15_02h14.26.140,cuing_paradigm_dot,2024.1.5,Linux armv81,59.52380952,68242c07d0c0e200c6451fdd,,,,,,,,,,,866.9136,867.4208,,,867.6673,868.327,left,,,,,,,,0.4,,,,,,867.4241,867.6671,0.6406,,868.3273,869.4228,,,,,,,,0,63,63,33,1
,,,,,,,67daae91f4057c50a9fd19fc,682530fd1893e63b4b947f44,2025-05-15_02h14.26.140,cuing_paradigm_dot,2024.1.5,Linux armv81,59.52380952,68242c07d0c0e200c6451fdd,,,,,,,,,,,869.4248,869.9049,,,870.1521,870.788,left,,,,,,,,0.45,,,,,,869.905,870.1519,0.6129,,870.7881,871.8906,,,,,,,,0,64,64,66,1
,,,,,,,67daae91f4057c50a9fd19fc,682530fd1893e63b4b947f44,2025-05-15_02h14.26.140,cuing_paradigm_dot,2024.1.5,Linux armv81,59.52380952,68242c07d0c0e200c6451fdd,,,,,,,,,,,871.8926,872.3764,,,872.6235,873.0655,right,,,,,,,,0.6,,,,,,872.3766,872.6233,0.421,,873.0657,874.1469,,,,,,,,0,65,65,163,1
,,,,,,,67daae91f4057c50a9fd19fc,682530fd1893e63b4b947f44,2025-05-15_02h14.26.140,cuing_paradigm_dot,2024.1.5,Linux armv81,59.52380952,68242c07d0c0e200c6451fdd,,,,,,,,,,,874.1499,874.6467,,,874.8768,875.605,left,,,,,,,,0.1,,,,,,874.6469,874.8766,0.7069,,875.6053,876.7114,,,,,,,,0,66,66,10,1
,,,,,,,67daae91f4057c50a9fd19fc,682530fd1893e63b4b947f44,2025-05-15_02h14.26.140,cuing_paradigm_dot,2024.1.5,Linux armv81,59.52380952,68242c07d0c0e200c6451fdd,,,,,,,,,,,876.7138,877.212,,,877.4521,878.0453,left,,,,,,,,0.1,,,,,,877.2121,877.4519,0.5708,,878.0456,879.1375,,,,,,,,0,67,67,8,1
,,,,,,,67daae91f4057c50a9fd19fc,682530fd1893e63b4b947f44,2025-05-15_02h14.26.140,cuing_paradigm_dot,2024.1.5,Linux armv81,59.52380952,68242c07d0c0e200c6451fdd,,,,,,,,,,,879.1412,879.6412,,,879.9011,880.6522,right,,,,,,,,0.9,,,,,,879.6414,879.9001,0.731,,880.6525,881.7621,,,,,,,,0,68,68,209,1
,,,,,,,67daae91f4057c50a9fd19fc,682530fd1893e63b4b947f44,2025-05-15_02h14.26.140,cuing_paradigm_dot,2024.1.5,Linux armv81,59.52380952,68242c07d0c0e200c6451fdd,,,,,,,,,,,881.7648,882.2598,,,882.492,882.9853,right,,,,,,,,0.55,,,,,,882.26,882.4918,0.4716,,882.9855,884.081,,,,,,,,0,69,69,133,1
,,,,,,,67daae91f4057c50a9fd19fc,682530fd1893e63b4b947f44,2025-05-15_02h14.26.140,cuing_paradigm_dot,2024.1.5,Linux armv81,59.52380952,68242c07d0c0e200c6451fdd,,,,,,,,,,,884.0842,884.5758,,,884.8131,885.5401,left,,,,,,,,0.55,,,,,,884.5763,884.8129,0.7055,,885.5403,886.6356,,,,,,,,0,70,70,129,1
,,,,,,,67daae91f4057c50a9fd19fc,682530fd1893e63b4b947f44,2025-05-15_02h14.26.140,cuing_paradigm_dot,2024.1.5,Linux armv81,59.52380952,68242c07d0c0e200c6451fdd,,,,,,,,,,,886.6382,887.1497,,,887.3892,888.1262,left,,,,,,,,0.4,,,,,,887.15,887.3889,0.7136,,888.1264,889.2146,,,,,,,,0,71,71,37,1
,,,,,,,67daae91f4057c50a9fd19fc,682530fd1893e63b4b947f44,2025-05-15_02h14.26.140,cuing_paradigm_dot,2024.1.5,Linux armv81,59.52380952,68242c07d0c0e200c6451fdd,,,,,,,,,,,889.2164,889.7049,,,889.9505,890.6697,right,,,,,,,,0.5,,,,,,889.7051,889.9502,0.7,,890.67,891.7745,,,,,,,,0,72,72,99,1
,,,,,,,67daae91f4057c50a9fd19fc,682530fd1893e63b4b947f44,2025-05-15_02h14.26.140,cuing_paradigm_dot,2024.1.5,Linux armv81,59.52380952,68242c07d0c0e200c6451fdd,,,,,,,,,,,891.7781,892.278,,,892.5239,893.3824,right,,,,,,,,0.45,,,,,,892.2782,892.5236,0.8364,,893.3826,894.4808,,,,,,,,0,73,73,68,1
,,,,,,,67daae91f4057c50a9fd19fc,682530fd1893e63b4b947f44,2025-05-15_02h14.26.140,cuing_paradigm_dot,2024.1.5,Linux armv81,59.52380952,68242c07d0c0e200c6451fdd,,,,,,,,,,,894.4837,894.9914,,,895.2494,895.9095,right,,,,,,,,0.5,,,,,,894.9915,895.249,0.6352,,895.9097,897.0127,,,,,,,,0,74,74,100,1
,,,,,,,67daae91f4057c50a9fd19fc,682530fd1893e63b4b947f44,2025-05-15_02h14.26.140,cuing_paradigm_dot,2024.1.5,Linux armv81,59.52380952,68242c07d0c0e200c6451fdd,,,,,,,,,,,897.0146,897.5044,,,897.7572,898.5042,left,,,,,,,,0.45,,,,,,897.5045,897.7569,0.7256,,898.5045,899.6082,,,,,,,,0,75,75,87,1
,,,,,,,67daae91f4057c50a9fd19fc,682530fd1893e63b4b947f44,2025-05-15_02h14.26.140,cuing_paradigm_dot,2024.1.5,Linux armv81,59.52380952,68242c07d0c0e200c6451fdd,,,,,,,,,,,899.6101,900.1067,,,900.3517,900.9556,right,,,,,,,,0.6,,,,,,900.107,900.3515,0.5784,,900.9559,902.0529,,,,,,,,0,76,76,160,1
,,,,,,,67daae91f4057c50a9fd19fc,682530fd1893e63b4b947f44,2025-05-15_02h14.26.140,cuing_paradigm_dot,2024.1.5,Linux armv81,59.52380952,68242c07d0c0e200c6451fdd,,,,,,,,,,,902.0599,902.5481,,,902.7976,903.6015,right,,,,,,,,0.9,,,,,,902.5484,902.7971,0.7606,,903.6017,904.7041,,,,,,,,0,77,77,195,1
,,,,,,,67daae91f4057c50a9fd19fc,682530fd1893e63b4b947f44,2025-05-15_02h14.26.140,cuing_paradigm_dot,2024.1.5,Linux armv81,59.52380952,68242c07d0c0e200c6451fdd,,,,,,,,,,,904.7068,905.2029,,,905.4611,905.9848,right,,,,,,,,0.55,,,,,,905.2031,905.4609,0.5021,,905.985,907.0911,,,,,,,,0,78,78,126,1
,,,,,,,67daae91f4057c50a9fd19fc,682530fd1893e63b4b947f44,2025-05-15_02h14.26.140,cuing_paradigm_dot,2024.1.5,Linux armv81,59.52380952,68242c07d0c0e200c6451fdd,,,,,,,,,,,907.0928,907.5903,,,907.8587,908.5671,left,,,,,,,,0.1,,,,,,907.5904,907.8585,0.6881,,908.5673,909.6597,,,,,,,,0,79,79,26,1
,,,,,,,67daae91f4057c50a9fd19fc,682530fd1893e63b4b947f44,2025-05-15_02h14.26.140,cuing_paradigm_dot,2024.1.5,Linux armv81,59.52380952,68242c07d0c0e200c6451fdd,,,,,,,,,,,909.6621,910.1598,,,910.3942,911.0377,left,,,,,,,,0.1,,,,,,910.16,910.3938,0.6225,,911.0381,912.1387,,,,,,,,0,80,80,9,1
,,,,,,,67daae91f4057c50a9fd19fc,682530fd1893e63b4b947f44,2025-05-15_02h14.26.140,cuing_paradigm_dot,2024.1.5,Linux armv81,59.52380952,68242c07d0c0e200c6451fdd,,,,,,,,,,,912.1406,912.6393,,,912.875,913.4023,right,,,,,,,,0.9,,,,,,912.6396,912.8749,0.5061,,913.4025,914.4848,,,,,,,,0,81,81,204,1
,,,,,,,67daae91f4057c50a9fd19fc,682530fd1893e63b4b947f44,2025-05-15_02h14.26.140,cuing_paradigm_dot,2024.1.5,Linux armv81,59.52380952,68242c07d0c0e200c6451fdd,,,,,,,,,,,914.4864,914.9886,,,915.2472,915.8321,right,,,,,,,,0.9,,,,,,914.9888,915.247,0.5612,,915.8323,916.9307,,,,,,,,0,82,82,193,1
,,,,,,,67daae91f4057c50a9fd19fc,682530fd1893e63b4b947f44,2025-05-15_02h14.26.140,cuing_paradigm_dot,2024.1.5,Linux armv81,59.52380952,68242c07d0c0e200c6451fdd,,,,,,,,,,,916.9326,917.4198,,,917.6616,918.3185,left,,,,,,,,0.1,,,,,,917.42,917.6612,0.6363,,918.3188,919.4221,,,,,,,,0,83,83,17,1
,,,,,,,67daae91f4057c50a9fd19fc,682530fd1893e63b4b947f44,2025-05-15_02h14.26.140,cuing_paradigm_dot,2024.1.5,Linux armv81,59.52380952,68242c07d0c0e200c6451fdd,,,,,,,,,,,919.4245,919.9267,,,920.1812,921.1279,right,,,,,,,,0.6,,,,,,919.9269,920.181,0.923,,921.1282,922.2181,,,,,,,,0,84,84,152,1
,,,,,,,67daae91f4057c50a9fd19fc,682530fd1893e63b4b947f44,2025-05-15_02h14.26.140,cuing_paradigm_dot,2024.1.5,Linux armv81,59.52380952,68242c07d0c0e200c6451fdd,,,,,,,,,,,922.2213,922.699,,,922.9433,923.7702,left,,,,,,,,0.1,,,,,,922.6997,922.9431,0.8058,,923.7705,924.851,,,,,,,,0,85,85,13,1
,,,,,,,67daae91f4057c50a9fd19fc,682530fd1893e63b4b947f44,2025-05-15_02h14.26.140,cuing_paradigm_dot,2024.1.5,Linux armv81,59.52380952,68242c07d0c0e200c6451fdd,,,,,,,,,,,924.8534,925.3331,,,925.5829,926.1031,right,,,,,,,,0.6,,,,,,925.3332,925.5827,0.4991,,926.1033,927.2069,,,,,,,,0,86,86,173,1
,,,,,,,67daae91f4057c50a9fd19fc,682530fd1893e63b4b947f44,2025-05-15_02h14.26.140,cuing_paradigm_dot,2024.1.5,Linux armv81,59.52380952,68242c07d0c0e200c6451fdd,,,,,,,,,,,927.2097,927.6922,,,927.945,928.6688,left,,,,,,,,0.1,,,,,,927.6923,927.9448,0.7013,,928.6691,929.7469,,,,,,,,0,87,87,21,1
,,,,,,,67daae91f4057c50a9fd19fc,682530fd1893e63b4b947f44,2025-05-15_02h14.26.140,cuing_paradigm_dot,2024.1.5,Linux armv81,59.52380952,68242c07d0c0e200c6451fdd,,,,,,,,,,,929.7492,930.2334,,,930.4695,931.097,left,,,,,,,,0.1,,,,,,930.2343,930.4692,0.605,,931.0973,932.2028,,,,,,,,0,88,88,15,1
,,,,,,,67daae91f4057c50a9fd19fc,682530fd1893e63b4b947f44,2025-05-15_02h14.26.140,cuing_paradigm_dot,2024.1.5,Linux armv81,59.52380952,68242c07d0c0e200c6451fdd,,,,,,,,,,,932.2053,932.6968,,,932.9445,933.6077,left,,,,,,,,0.4,,,,,,932.697,932.9442,0.641,,933.6079,934.7133,,,,,,,,0,89,89,45,1
,,,,,,,67daae91f4057c50a9fd19fc,682530fd1893e63b4b947f44,2025-05-15_02h14.26.140,cuing_paradigm_dot,2024.1.5,Linux armv81,59.52380952,68242c07d0c0e200c6451fdd,,,,,,,,,,,934.7165,935.2249,,,935.4657,936.3093,left,,,,,,,,0.4,,,,,,935.2256,935.4653,0.8182,,936.31,937.3985,,,,,,,,0,90,90,57,1
,,,,,,,67daae91f4057c50a9fd19fc,682530fd1893e63b4b947f44,2025-05-15_02h14.26.140,cuing_paradigm_dot,2024.1.5,Linux armv81,59.52380952,68242c07d0c0e200c6451fdd,,,,,,,,,,,937.4015,937.8814,,,938.1266,938.9376,right,,,,,,,,0.5,,,,,,937.8816,938.1264,0.787,,938.9379,940.0435,,,,,,,,0,91,91,103,1
,,,,,,,67daae91f4057c50a9fd19fc,682530fd1893e63b4b947f44,2025-05-15_02h14.26.140,cuing_paradigm_dot,2024.1.5,Linux armv81,59.52380952,68242c07d0c0e200c6451fdd,,,,,,,,,,,940.0473,940.5402,,,940.7915,941.1856,right,,,,,,,,0.9,,,,,,940.5403,940.7911,0.3668,,941.1864,942.2882,,,,,,,,0,92,92,196,1
,,,,,,,67daae91f4057c50a9fd19fc,682530fd1893e63b4b947f44,2025-05-15_02h14.26.140,cuing_paradigm_dot,2024.1.5,Linux armv81,59.52380952,68242c07d0c0e200c6451fdd,,,,,,,,,,,942.2908,942.7958,,,943.051,943.6432,left,,,,,,,,0.4,,,,,,942.796,943.0507,0.5675,,943.6434,944.7314,,,,,,,,0,93,93,47,1
,,,,,,,67daae91f4057c50a9fd19fc,682530fd1893e63b4b947f44,2025-05-15_02h14.26.140,cuing_paradigm_dot,2024.1.5,Linux armv81,59.52380952,68242c07d0c0e200c6451fdd,,,,,,,,,,,944.734,945.2399,,,945.4771,946.0575,left,,,,,,,,0.45,,,,,,945.2401,945.4769,0.5589,,946.0583,947.1445,,,,,,,,0,94,94,65,1
,,,,,,,67daae91f4057c50a9fd19fc,682530fd1893e63b4b947f44,2025-05-15_02h14.26.140,cuing_paradigm_dot,2024.1.5,Linux armv81,59.52380952,68242c07d0c0e200c6451fdd,,,,,,,,,,,947.1481,947.6576,,,947.8889,948.2962,right,,,,,,,,0.6,,,,,,947.6577,947.8886,0.3836,,948.2964,949.3854,,,,,,,,0,95,95,170,1
,,,,,,,67daae91f4057c50a9fd19fc,682530fd1893e63b4b947f44,2025-05-15_02h14.26.140,cuing_paradigm_dot,2024.1.5,Linux armv81,59.52380952,68242c07d0c0e200c6451fdd,,,,,,,,,,,949.3885,949.8929,,,950.1527,950.9235,left,,,,,,,,0.45,,,,,,949.8931,950.1525,0.7487,,950.9237,952.0322,,,,,,,,0,96,96,83,1
,,,,,,,67daae91f4057c50a9fd19fc,682530fd1893e63b4b947f44,2025-05-15_02h14.26.140,cuing_paradigm_dot,2024.1.5,Linux armv81,59.52380952,68242c07d0c0e200c6451fdd,,,,,,,,,,,952.0345,952.5257,,,952.7553,953.7059,right,,,,,,,,0.5,,,,,,952.5262,952.7551,0.9279,,953.7063,954.8036,,,,,,,,0,97,97,105,1
,,,,,,,67daae91f4057c50a9fd19fc,682530fd1893e63b4b947f44,2025-05-15_02h14.26.140,cuing_paradigm_dot,2024.1.5,Linux armv81,59.52380952,68242c07d0c0e200c6451fdd,,,,,,,,,,,954.8052,955.3107,,,955.5596,956.5287,right,,,,,,,,0.6,,,,,,955.3108,955.5593,0.9485,,956.5289,957.6281,,,,,,,,0,98,98,174,1
,,,,,,,67daae91f4057c50a9fd19fc,682530fd1893e63b4b947f44,2025-05-15_02h14.26.140,cuing_paradigm_dot,2024.1.5,Linux armv81,59.52380952,68242c07d0c0e200c6451fdd,,,,,,,,,,,957.6302,958.1128,,,958.3584,959.325,left,,,,,,,,0.45,,,,,,958.1134,958.3581,0.9445,,959.3255,960.4374,,,,,,,,0,99,99,62,1
,,,,,,,67daae91f4057c50a9fd19fc,682530fd1893e63b4b947f44,2025-05-15_02h14.26.140,cuing_paradigm_dot,2024.1.5,Linux armv81,59.52380952,68242c07d0c0e200c6451fdd,,,,,,,,,,,960.4399,960.9369,,,961.1884,961.8764,right,,,,,,,,0.6,,,,,,960.9371,961.1882,0.6667,,961.8767,962.9592,,,,,,,,0,100,100,167,1
,,,,,,,67daae91f4057c50a9fd19fc,682530fd1893e63b4b947f44,2025-05-15_02h14.26.140,cuing_paradigm_dot,2024.1.5,Linux armv81,59.52380952,68242c07d0c0e200c6451fdd,,,,,,,,,,,962.962,963.4635,,,963.7122,964.3355,right,,,,,,,,0.5,,,,,,963.4638,963.712,0.6019,,964.3357,965.4187,,,,,,,,0,101,101,113,1
,,,,,,,67daae91f4057c50a9fd19fc,682530fd1893e63b4b947f44,2025-05-15_02h14.26.140,cuing_paradigm_dot,2024.1.5,Linux armv81,59.52380952,68242c07d0c0e200c6451fdd,,,,,,,,,,,965.4212,965.9216,,,966.164,966.7844,right,,,,,,,,0.55,,,,,,965.9217,966.1639,0.5994,,966.7847,967.8732,,,,,,,,0,102,102,120,1
,,,,,,,67daae91f4057c50a9fd19fc,682530fd1893e63b4b947f44,2025-05-15_02h14.26.140,cuing_paradigm_dot,2024.1.5,Linux armv81,59.52380952,68242c07d0c0e200c6451fdd,,,,,,,,,,,967.8767,968.3749,,,968.6166,969.499,right,,,,,,,,0.55,,,,,,968.3751,968.6164,0.861,,969.4992,970.5792,,,,,,,,0,103,103,148,1
,,,,,,,67daae91f4057c50a9fd19fc,682530fd1893e63b4b947f44,2025-05-15_02h14.26.140,cuing_paradigm_dot,2024.1.5,Linux armv81,59.52380952,68242c07d0c0e200c6451fdd,,,,,,,,,,,970.5816,971.0783,,,971.338,971.9511,left,,,,,,,,0.1,,,,,,971.0786,971.3377,0.5891,,971.9513,973.0571,,,,,,,,0,104,104,5,1
,,,,,,,67daae91f4057c50a9fd19fc,682530fd1893e63b4b947f44,2025-05-15_02h14.26.140,cuing_paradigm_dot,2024.1.5,Linux armv81,59.52380952,68242c07d0c0e200c6451fdd,,,,,,,,,,,973.0591,973.5656,,,973.8183,974.349,left,,,,,,,,0.4,,,,,,973.5657,973.8181,0.5071,,974.3493,975.4485,,,,,,,,0,105,105,51,1
,,,,,,,67daae91f4057c50a9fd19fc,682530fd1893e63b4b947f44,2025-05-15_02h14.26.140,cuing_paradigm_dot,2024.1.5,Linux armv81,59.52380952,68242c07d0c0e200c6451fdd,,,,,,,,,,,975.4513,975.9558,,,976.2112,976.9265,right,,,,,,,,0.5,,,,,,975.9561,976.211,0.6924,,976.9267,978.0257,,,,,,,,0,106,106,96,1
,,,,,,,67daae91f4057c50a9fd19fc,682530fd1893e63b4b947f44,2025-05-15_02h14.26.140,cuing_paradigm_dot,2024.1.5,Linux armv81,59.52380952,68242c07d0c0e200c6451fdd,,,,,,,,,,,978.0289,978.5368,,,978.7766,979.6692,left,,,,,,,,0.45,,,,,,978.537,978.7765,0.8718,,979.6694,980.7515,,,,,,,,0,107,107,86,1
,,,,,,,67daae91f4057c50a9fd19fc,682530fd1893e63b4b947f44,2025-05-15_02h14.26.140,cuing_paradigm_dot,2024.1.5,Linux armv81,59.52380952,68242c07d0c0e200c6451fdd,,,,,,,,,,,980.7543,981.2526,,,981.4991,982.4129,right,,,,,,,,0.55,,,,,,981.2527,981.4989,0.8907,,982.4131,983.523,,,,,,,,0,108,108,146,1
,,,,,,,67daae91f4057c50a9fd19fc,682530fd1893e63b4b947f44,2025-05-15_02h14.26.140,cuing_paradigm_dot,2024.1.5,Linux armv81,59.52380952,68242c07d0c0e200c6451fdd,,,,,,,,,,,983.5256,984.0292,,,984.2697,985.102,left,,,,,,,,0.45,,,,,,984.0295,984.2694,0.8108,,985.1023,986.2,,,,,,,,0,109,109,81,1
,,,,,,,67daae91f4057c50a9fd19fc,682530fd1893e63b4b947f44,2025-05-15_02h14.26.140,cuing_paradigm_dot,2024.1.5,Linux armv81,59.52380952,68242c07d0c0e200c6451fdd,,,,,,,,,,,986.2028,986.7093,,,986.9745,987.4792,right,,,,,,,,0.55,,,,,,986.71,986.9742,0.488,,987.4796,988.5687,,,,,,,,0,110,110,124,1
,,,,,,,67daae91f4057c50a9fd19fc,682530fd1893e63b4b947f44,2025-05-15_02h14.26.140,cuing_paradigm_dot,2024.1.5,Linux armv81,59.52380952,68242c07d0c0e200c6451fdd,,,,,,,,,,,988.5707,989.0589,,,989.3156,990.2046,right,,,,,,,,0.9,,,,,,989.0591,989.3137,0.8622,,990.205,991.2988,,,,,,,,0,111,111,190,1
,,,,,,,67daae91f4057c50a9fd19fc,682530fd1893e63b4b947f44,2025-05-15_02h14.26.140,cuing_paradigm_dot,2024.1.5,Linux armv81,59.52380952,68242c07d0c0e200c6451fdd,,,,,,,,,,,991.3051,991.8122,,,992.0432,992.7368,left,,,,,,,,0.45,,,,,,991.8128,992.043,0.6695,,992.7374,993.8359,,,,,,,,0,112,112,77,1
,,,,,,,67daae91f4057c50a9fd19fc,682530fd1893e63b4b947f44,2025-05-15_02h14.26.140,cuing_paradigm_dot,2024.1.5,Linux armv81,59.52380952,68242c07d0c0e200c6451fdd,,,,,,,,,,,993.8387,994.3197,,,994.5511,995.1863,right,,,,,,,,0.45,,,,,,994.3198,994.5509,0.6095,,995.1864,996.2861,,,,,,,,0,113,113,69,1
,,,,,,,67daae91f4057c50a9fd19fc,682530fd1893e63b4b947f44,2025-05-15_02h14.26.140,cuing_paradigm_dot,2024.1.5,Linux armv81,59.52380952,68242c07d0c0e200c6451fdd,,,,,,,,,,,996.2884,996.7837,,,997.0167,997.4465,right,,,,,,,,0.6,,,,,,996.7839,997.0165,0.4057,,997.4469,998.5466,,,,,,,,0,114,114,178,1
,,,,,,,67daae91f4057c50a9fd19fc,682530fd1893e63b4b947f44,2025-05-15_02h14.26.140,cuing_paradigm_dot,2024.1.5,Linux armv81,59.52380952,68242c07d0c0e200c6451fdd,,,,,,,,,,,998.5488,999.0482,,,999.2933,999.7741,right,,,,,,,,0.55,,,,,,999.0483,999.2931,0.4566,,999.7747,1000.8707,,,,,,,,0,115,115,145,1
,,,,,,,67daae91f4057c50a9fd19fc,682530fd1893e63b4b947f44,2025-05-15_02h14.26.140,cuing_paradigm_dot,2024.1.5,Linux armv81,59.52380952,68242c07d0c0e200c6451fdd,,,,,,,,,,,1000.873,1001.371,,,1001.6228,1002.1081,right,,,,,,,,0.9,,,,,,1001.3712,1001.6226,0.461,,1002.1084,1003.2184,,,,,,,,0,116,116,200,1
,,,,,,,67daae91f4057c50a9fd19fc,682530fd1893e63b4b947f44,2025-05-15_02h14.26.140,cuing_paradigm_dot,2024.1.5,Linux armv81,59.52380952,68242c07d0c0e200c6451fdd,,,,,,,,,,,1003.2203,1003.7073,,,1003.9452,1004.3254,right,,,,,,,,0.9,,,,,,1003.7075,1003.945,0.3569,,1004.3256,1005.4139,,,,,,,,0,117,117,194,1
,,,,,,,67daae91f4057c50a9fd19fc,682530fd1893e63b4b947f44,2025-05-15_02h14.26.140,cuing_paradigm_dot,2024.1.5,Linux armv81,59.52380952,68242c07d0c0e200c6451fdd,,,,,,,,,,,1005.4168,1005.9102,,,1006.1679,1006.7374,right,,,,,,,,0.55,,,,,,1005.9105,1006.1676,0.5436,,1006.7377,1007.8338,,,,,,,,0,118,118,149,1
,,,,,,,67daae91f4057c50a9fd19fc,682530fd1893e63b4b947f44,2025-05-15_02h14.26.140,cuing_paradigm_dot,2024.1.5,Linux armv81,59.52380952,68242c07d0c0e200c6451fdd,,,,,,,,,,,1007.8356,1008.334,,,1008.5921,1009.0065,left,,,,,,,,0.4,,,,,,1008.3342,1008.5919,0.3948,,1009.0068,1010.1095,,,,,,,,0,119,119,46,1
