right,left,explain.started,explain.stopped,key_resp_3.keys,key_resp_3.rt,key_resp_3.duration,participant,session,date,expName,psychopyVersion,OS,frameRate,study_id,explain_2.started,explain_2.stopped,key_resp_4.keys,key_resp_4.rt,key_resp_4.duration,explain_3.started,explain_3.stopped,key_resp_5.keys,key_resp_5.rt,key_resp_5.duration,fixation.started,fixation.stopped,practice.started,practice.stopped,response.started,response.stopped,key_resp.keys,feedback.started,feedback.stopped,trials_2.thisRepN,trials_2.thisTrialN,trials_2.thisN,trials_2.thisIndex,trials_2.ran,white_ratio,key_resp.rt,key_resp.duration,explain_4.started,explain_4.stopped,key_resp_6.keys,key_resp_6.rt,key_resp_6.duration,dotDisplay.started,dotDisplay.stopped,ITI.started,ITI.stopped,trials.thisRepN,trials.thisTrialN,trials.thisN,trials.thisIndex,trials.ran,break_2.started,break_2.stopped,trials_3.thisRepN,trials_3.thisTrialN,trials_3.thisN,trials_3.thisIndex,trials_3.ran
subject chose white,subject chose black,0,75.868,space,60.854,,66d5353794a257d22919673b,682530b798de94e67efc5d05,2025-05-14_20h11.40.377,cuing_paradigm_dot,2024.1.5,Win32,60.0240096,68242c07d0c0e200c6451fdd,,,,,,,,,,,,,,,,,,,,,,,,,,,,,,,,,,,,,,,,,,,,,,,,
,,,,,,,66d5353794a257d22919673b,682530b798de94e67efc5d05,2025-05-14_20h11.40.377,cuing_paradigm_dot,2024.1.5,Win32,60.0240096,68242c07d0c0e200c6451fdd,75.868,128.96,space,23.074,,,,,,,,,,,,,,,,,,,,,,,,,,,,,,,,,,,,,,,,,,,,
,,,,,,,66d5353794a257d22919673b,682530b798de94e67efc5d05,2025-05-14_20h11.40.377,cuing_paradigm_dot,2024.1.5,Win32,60.0240096,68242c07d0c0e200c6451fdd,,,,,,128.96,138.954,space,6.98,,,,,,,,,,,,,,,,,,,,,,,,,,,,,,,,,,,,,,,
,,,,,,,66d5353794a257d22919673b,682530b798de94e67efc5d05,2025-05-14_20h11.40.377,cuing_paradigm_dot,2024.1.5,Win32,60.0240096,68242c07d0c0e200c6451fdd,,,,,,,,,,,138.982,139.47,139.47,139.786,139.786,141.22,,141.22,142.32,0,0,0,0,1,0.8,,,,,,,,,,,,,,,,,,,,,,,
,,,,,,,66d5353794a257d22919673b,682530b798de94e67efc5d05,2025-05-14_20h11.40.377,cuing_paradigm_dot,2024.1.5,Win32,60.0240096,68242c07d0c0e200c6451fdd,,,,,,,,,,,142.321,142.819,142.819,143.071,143.071,144.153,left,144.154,145.253,0,1,1,1,1,0.2,1.067,,,,,,,,,,,,,,,,,,,,,,
,,,,,,,66d5353794a257d22919673b,682530b798de94e67efc5d05,2025-05-14_20h11.40.377,cuing_paradigm_dot,2024.1.5,Win32,60.0240096,68242c07d0c0e200c6451fdd,,,,,,,,,,,,,,,,,,,,,,,,,,,,145.253,169.101,space,20.839,,,,,,,,,,,,,,,,,
,,,,,,,66d5353794a257d22919673b,682530b798de94e67efc5d05,2025-05-14_20h11.40.377,cuing_paradigm_dot,2024.1.5,Win32,60.0240096,68242c07d0c0e200c6451fdd,,,,,,,,,,,169.125,169.617,,,169.836,170.883,left,,,,,,,,0.5,1.037,,,,,,,169.617,169.836,170.884,171.983,0,0,0,90,1,,,,,,,
,,,,,,,66d5353794a257d22919673b,682530b798de94e67efc5d05,2025-05-14_20h11.40.377,cuing_paradigm_dot,2024.1.5,Win32,60.0240096,68242c07d0c0e200c6451fdd,,,,,,,,,,,171.986,172.483,,,172.734,173.016,right,,,,,,,,0.55,0.269,,,,,,,172.483,172.734,173.016,174.116,0,1,1,139,1,,,,,,,
,,,,,,,66d5353794a257d22919673b,682530b798de94e67efc5d05,2025-05-14_20h11.40.377,cuing_paradigm_dot,2024.1.5,Win32,60.0240096,68242c07d0c0e200c6451fdd,,,,,,,,,,,174.116,174.616,,,174.868,175.166,right,,,,,,,,0.4,0.284,,,,,,,174.616,174.868,175.167,176.266,0,2,2,48,1,,,,,,,
,,,,,,,66d5353794a257d22919673b,682530b798de94e67efc5d05,2025-05-14_20h11.40.377,cuing_paradigm_dot,2024.1.5,Win32,60.0240096,68242c07d0c0e200c6451fdd,,,,,,,,,,,176.269,176.765,,,177.016,177.266,left,,,,,,,,0.1,0.235,,,,,,,176.765,177.016,177.266,178.365,0,3,3,23,1,,,,,,,
,,,,,,,66d5353794a257d22919673b,682530b798de94e67efc5d05,2025-05-14_20h11.40.377,cuing_paradigm_dot,2024.1.5,Win32,60.0240096,68242c07d0c0e200c6451fdd,,,,,,,,,,,178.367,178.866,,,179.116,179.615,left,,,,,,,,0.1,0.485,,,,,,,178.866,179.116,179.616,180.715,0,4,4,8,1,,,,,,,
,,,,,,,66d5353794a257d22919673b,682530b798de94e67efc5d05,2025-05-14_20h11.40.377,cuing_paradigm_dot,2024.1.5,Win32,60.0240096,68242c07d0c0e200c6451fdd,,,,,,,,,,,180.716,181.215,,,181.465,181.898,left,,,,,,,,0.4,0.417,,,,,,,181.215,181.465,181.898,182.999,0,5,5,39,1,,,,,,,
,,,,,,,66d5353794a257d22919673b,682530b798de94e67efc5d05,2025-05-14_20h11.40.377,cuing_paradigm_dot,2024.1.5,Win32,60.0240096,68242c07d0c0e200c6451fdd,,,,,,,,,,,183,183.498,,,183.749,184.148,right,,,,,,,,0.55,0.384,,,,,,,183.499,183.749,184.148,185.248,0,6,6,130,1,,,,,,,
,,,,,,,66d5353794a257d22919673b,682530b798de94e67efc5d05,2025-05-14_20h11.40.377,cuing_paradigm_dot,2024.1.5,Win32,60.0240096,68242c07d0c0e200c6451fdd,,,,,,,,,,,185.249,185.748,,,185.999,186.314,left,,,,,,,,0.9,0.3,,,,,,,185.748,185.999,186.314,187.414,0,7,7,185,1,,,,,,,
,,,,,,,66d5353794a257d22919673b,682530b798de94e67efc5d05,2025-05-14_20h11.40.377,cuing_paradigm_dot,2024.1.5,Win32,60.0240096,68242c07d0c0e200c6451fdd,,,,,,,,,,,187.415,187.914,,,188.154,188.864,right,,,,,,,,0.55,0.701,,,,,,,187.914,188.154,188.864,189.964,0,8,8,147,1,,,,,,,
,,,,,,,66d5353794a257d22919673b,682530b798de94e67efc5d05,2025-05-14_20h11.40.377,cuing_paradigm_dot,2024.1.5,Win32,60.0240096,68242c07d0c0e200c6451fdd,,,,,,,,,,,189.965,190.464,,,190.67,191.214,right,,,,,,,,0.5,0.537,,,,,,,190.464,190.669,191.214,192.314,0,9,9,97,1,,,,,,,
,,,,,,,66d5353794a257d22919673b,682530b798de94e67efc5d05,2025-05-14_20h11.40.377,cuing_paradigm_dot,2024.1.5,Win32,60.0240096,68242c07d0c0e200c6451fdd,,,,,,,,,,,192.315,192.814,,,193.064,193.898,left,,,,,,,,0.5,0.821,,,,,,,192.814,193.064,193.898,194.998,0,10,10,114,1,,,,,,,
,,,,,,,66d5353794a257d22919673b,682530b798de94e67efc5d05,2025-05-14_20h11.40.377,cuing_paradigm_dot,2024.1.5,Win32,60.0240096,68242c07d0c0e200c6451fdd,,,,,,,,,,,195.005,195.496,,,195.748,196.296,right,,,,,,,,0.45,0.534,,,,,,,195.497,195.748,196.296,197.397,0,11,11,75,1,,,,,,,
,,,,,,,66d5353794a257d22919673b,682530b798de94e67efc5d05,2025-05-14_20h11.40.377,cuing_paradigm_dot,2024.1.5,Win32,60.0240096,68242c07d0c0e200c6451fdd,,,,,,,,,,,197.397,197.896,,,198.146,198.363,right,,,,,,,,0.1,0.201,,,,,,,197.896,198.146,198.363,199.463,0,12,12,12,1,,,,,,,
,,,,,,,66d5353794a257d22919673b,682530b798de94e67efc5d05,2025-05-14_20h11.40.377,cuing_paradigm_dot,2024.1.5,Win32,60.0240096,68242c07d0c0e200c6451fdd,,,,,,,,,,,199.464,199.963,,,200.166,200.512,left,,,,,,,,0.6,0.337,,,,,,,199.963,200.166,200.513,201.613,0,13,13,156,1,,,,,,,
,,,,,,,66d5353794a257d22919673b,682530b798de94e67efc5d05,2025-05-14_20h11.40.377,cuing_paradigm_dot,2024.1.5,Win32,60.0240096,68242c07d0c0e200c6451fdd,,,,,,,,,,,201.614,202.113,,,202.363,202.613,left,,,,,,,,0.5,0.233,,,,,,,202.113,202.363,202.613,203.712,0,14,14,110,1,,,,,,,
,,,,,,,66d5353794a257d22919673b,682530b798de94e67efc5d05,2025-05-14_20h11.40.377,cuing_paradigm_dot,2024.1.5,Win32,60.0240096,68242c07d0c0e200c6451fdd,,,,,,,,,,,203.714,204.213,,,204.463,204.745,left,,,,,,,,0.5,0.265,,,,,,,204.213,204.463,204.745,205.845,0,15,15,91,1,,,,,,,
,,,,,,,66d5353794a257d22919673b,682530b798de94e67efc5d05,2025-05-14_20h11.40.377,cuing_paradigm_dot,2024.1.5,Win32,60.0240096,68242c07d0c0e200c6451fdd,,,,,,,,,,,205.846,206.345,,,206.598,206.829,right,,,,,,,,0.5,0.222,,,,,,,206.345,206.598,206.829,207.928,0,16,16,104,1,,,,,,,
,,,,,,,66d5353794a257d22919673b,682530b798de94e67efc5d05,2025-05-14_20h11.40.377,cuing_paradigm_dot,2024.1.5,Win32,60.0240096,68242c07d0c0e200c6451fdd,,,,,,,,,,,207.93,208.428,,,208.679,208.895,left,,,,,,,,0.6,0.201,,,,,,,208.429,208.678,208.895,209.995,0,17,17,173,1,,,,,,,
,,,,,,,66d5353794a257d22919673b,682530b798de94e67efc5d05,2025-05-14_20h11.40.377,cuing_paradigm_dot,2024.1.5,Win32,60.0240096,68242c07d0c0e200c6451fdd,,,,,,,,,,,209.996,210.495,,,210.745,211.128,right,,,,,,,,0.9,0.367,,,,,,,210.495,210.745,211.129,212.228,0,18,18,187,1,,,,,,,
,,,,,,,66d5353794a257d22919673b,682530b798de94e67efc5d05,2025-05-14_20h11.40.377,cuing_paradigm_dot,2024.1.5,Win32,60.0240096,68242c07d0c0e200c6451fdd,,,,,,,,,,,212.229,212.728,,,212.978,213.212,right,,,,,,,,0.45,0.219,,,,,,,212.728,212.977,213.212,214.312,0,19,19,71,1,,,,,,,
,,,,,,,66d5353794a257d22919673b,682530b798de94e67efc5d05,2025-05-14_20h11.40.377,cuing_paradigm_dot,2024.1.5,Win32,60.0240096,68242c07d0c0e200c6451fdd,,,,,,,,,,,214.312,214.811,,,215.061,215.262,right,,,,,,,,0.9,0.184,,,,,,,214.811,215.061,215.262,216.361,0,20,20,193,1,,,,,,,
,,,,,,,66d5353794a257d22919673b,682530b798de94e67efc5d05,2025-05-14_20h11.40.377,cuing_paradigm_dot,2024.1.5,Win32,60.0240096,68242c07d0c0e200c6451fdd,,,,,,,,,,,216.362,216.861,,,217.111,217.511,right,,,,,,,,0.45,0.386,,,,,,,216.861,217.111,217.511,218.61,0,21,21,86,1,,,,,,,
,,,,,,,66d5353794a257d22919673b,682530b798de94e67efc5d05,2025-05-14_20h11.40.377,cuing_paradigm_dot,2024.1.5,Win32,60.0240096,68242c07d0c0e200c6451fdd,,,,,,,,,,,218.61,219.11,,,219.361,219.793,right,,,,,,,,0.55,0.421,,,,,,,219.111,219.361,219.793,220.894,0,22,22,129,1,,,,,,,
,,,,,,,66d5353794a257d22919673b,682530b798de94e67efc5d05,2025-05-14_20h11.40.377,cuing_paradigm_dot,2024.1.5,Win32,60.0240096,68242c07d0c0e200c6451fdd,,,,,,,,,,,220.895,221.393,,,221.643,221.91,left,,,,,,,,0.6,0.253,,,,,,,221.393,221.643,221.91,223.01,0,23,23,154,1,,,,,,,
,,,,,,,66d5353794a257d22919673b,682530b798de94e67efc5d05,2025-05-14_20h11.40.377,cuing_paradigm_dot,2024.1.5,Win32,60.0240096,68242c07d0c0e200c6451fdd,,,,,,,,,,,223.01,223.511,,,223.761,223.976,right,,,,,,,,0.6,0.2,,,,,,,223.511,223.761,223.976,225.076,0,24,24,166,1,,,,,,,
,,,,,,,66d5353794a257d22919673b,682530b798de94e67efc5d05,2025-05-14_20h11.40.377,cuing_paradigm_dot,2024.1.5,Win32,60.0240096,68242c07d0c0e200c6451fdd,,,,,,,,,,,225.076,225.567,,,225.812,226.226,left,,,,,,,,0.1,0.398,,,,,,,225.568,225.812,226.226,227.326,0,25,25,13,1,,,,,,,
,,,,,,,66d5353794a257d22919673b,682530b798de94e67efc5d05,2025-05-14_20h11.40.377,cuing_paradigm_dot,2024.1.5,Win32,60.0240096,68242c07d0c0e200c6451fdd,,,,,,,,,,,227.33,227.825,,,228.075,228.359,right,,,,,,,,0.55,0.272,,,,,,,227.825,228.075,228.359,229.46,0,26,26,140,1,,,,,,,
,,,,,,,66d5353794a257d22919673b,682530b798de94e67efc5d05,2025-05-14_20h11.40.377,cuing_paradigm_dot,2024.1.5,Win32,60.0240096,68242c07d0c0e200c6451fdd,,,,,,,,,,,229.46,229.96,,,230.21,230.376,left,,,,,,,,0.1,0.15,,,,,,,229.96,230.21,230.376,231.476,0,27,27,25,1,,,,,,,
,,,,,,,66d5353794a257d22919673b,682530b798de94e67efc5d05,2025-05-14_20h11.40.377,cuing_paradigm_dot,2024.1.5,Win32,60.0240096,68242c07d0c0e200c6451fdd,,,,,,,,,,,231.478,231.976,,,232.226,232.592,right,,,,,,,,0.9,0.349,,,,,,,231.976,232.226,232.592,233.692,0,28,28,198,1,,,,,,,
,,,,,,,66d5353794a257d22919673b,682530b798de94e67efc5d05,2025-05-14_20h11.40.377,cuing_paradigm_dot,2024.1.5,Win32,60.0240096,68242c07d0c0e200c6451fdd,,,,,,,,,,,233.695,234.192,,,234.442,234.559,left,,,,,,,,0.1,0.099,,,,,,,234.193,234.442,234.559,235.659,0,29,29,4,1,,,,,,,
,,,,,,,66d5353794a257d22919673b,682530b798de94e67efc5d05,2025-05-14_20h11.40.377,cuing_paradigm_dot,2024.1.5,Win32,60.0240096,68242c07d0c0e200c6451fdd,,,,,,,,,,,235.66,236.158,,,236.409,236.775,left,,,,,,,,0.4,0.353,,,,,,,236.158,236.409,236.775,237.875,0,30,30,33,1,,,,,,,
,,,,,,,66d5353794a257d22919673b,682530b798de94e67efc5d05,2025-05-14_20h11.40.377,cuing_paradigm_dot,2024.1.5,Win32,60.0240096,68242c07d0c0e200c6451fdd,,,,,,,,,,,237.875,238.375,,,238.626,239.091,right,,,,,,,,0.4,0.448,,,,,,,238.375,238.626,239.091,240.191,0,31,31,36,1,,,,,,,
,,,,,,,66d5353794a257d22919673b,682530b798de94e67efc5d05,2025-05-14_20h11.40.377,cuing_paradigm_dot,2024.1.5,Win32,60.0240096,68242c07d0c0e200c6451fdd,,,,,,,,,,,240.192,240.692,,,240.942,241.157,left,,,,,,,,0.4,0.199,,,,,,,240.692,240.942,241.157,242.258,0,32,32,40,1,,,,,,,
,,,,,,,66d5353794a257d22919673b,682530b798de94e67efc5d05,2025-05-14_20h11.40.377,cuing_paradigm_dot,2024.1.5,Win32,60.0240096,68242c07d0c0e200c6451fdd,,,,,,,,,,,242.259,242.757,,,243.008,243.124,left,,,,,,,,0.1,0.1,,,,,,,242.757,243.008,243.125,244.224,0,33,33,21,1,,,,,,,
,,,,,,,66d5353794a257d22919673b,682530b798de94e67efc5d05,2025-05-14_20h11.40.377,cuing_paradigm_dot,2024.1.5,Win32,60.0240096,68242c07d0c0e200c6451fdd,,,,,,,,,,,244.225,244.724,,,244.975,245.141,left,,,,,,,,0.5,0.152,,,,,,,244.724,244.974,245.141,246.241,0,34,34,112,1,,,,,,,
,,,,,,,66d5353794a257d22919673b,682530b798de94e67efc5d05,2025-05-14_20h11.40.377,cuing_paradigm_dot,2024.1.5,Win32,60.0240096,68242c07d0c0e200c6451fdd,,,,,,,,,,,246.242,246.74,,,246.991,247.358,right,,,,,,,,0.9,0.352,,,,,,,246.74,246.991,247.358,248.457,0,35,35,194,1,,,,,,,
,,,,,,,66d5353794a257d22919673b,682530b798de94e67efc5d05,2025-05-14_20h11.40.377,cuing_paradigm_dot,2024.1.5,Win32,60.0240096,68242c07d0c0e200c6451fdd,,,,,,,,,,,248.458,248.957,,,249.207,249.389,right,,,,,,,,0.9,0.167,,,,,,,248.957,249.207,249.389,250.49,0,36,36,195,1,,,,,,,
,,,,,,,66d5353794a257d22919673b,682530b798de94e67efc5d05,2025-05-14_20h11.40.377,cuing_paradigm_dot,2024.1.5,Win32,60.0240096,68242c07d0c0e200c6451fdd,,,,,,,,,,,250.49,250.989,,,251.241,251.489,right,,,,,,,,0.55,0.235,,,,,,,250.989,251.241,251.49,252.59,0,37,37,144,1,,,,,,,
,,,,,,,66d5353794a257d22919673b,682530b798de94e67efc5d05,2025-05-14_20h11.40.377,cuing_paradigm_dot,2024.1.5,Win32,60.0240096,68242c07d0c0e200c6451fdd,,,,,,,,,,,252.591,253.089,,,253.34,253.522,left,,,,,,,,0.6,0.166,,,,,,,253.089,253.34,253.522,254.623,0,38,38,174,1,,,,,,,
,,,,,,,66d5353794a257d22919673b,682530b798de94e67efc5d05,2025-05-14_20h11.40.377,cuing_paradigm_dot,2024.1.5,Win32,60.0240096,68242c07d0c0e200c6451fdd,,,,,,,,,,,254.624,255.123,,,255.374,255.623,right,,,,,,,,0.45,0.235,,,,,,,255.123,255.374,255.623,256.722,0,39,39,64,1,,,,,,,
,,,,,,,66d5353794a257d22919673b,682530b798de94e67efc5d05,2025-05-14_20h11.40.377,cuing_paradigm_dot,2024.1.5,Win32,60.0240096,68242c07d0c0e200c6451fdd,,,,,,,,,,,256.722,257.223,,,257.473,257.639,right,,,,,,,,0.9,0.155,,,,,,,257.223,257.473,257.639,258.741,0,40,40,197,1,,,,,,,
,,,,,,,66d5353794a257d22919673b,682530b798de94e67efc5d05,2025-05-14_20h11.40.377,cuing_paradigm_dot,2024.1.5,Win32,60.0240096,68242c07d0c0e200c6451fdd,,,,,,,,,,,258.749,259.239,,,259.49,259.939,left,,,,,,,,0.4,0.436,,,,,,,259.24,259.49,259.939,261.038,0,41,41,31,1,,,,,,,
,,,,,,,66d5353794a257d22919673b,682530b798de94e67efc5d05,2025-05-14_20h11.40.377,cuing_paradigm_dot,2024.1.5,Win32,60.0240096,68242c07d0c0e200c6451fdd,,,,,,,,,,,261.039,261.539,,,261.756,262.255,left,,,,,,,,0.5,0.482,,,,,,,261.539,261.756,262.255,263.355,0,42,42,103,1,,,,,,,
,,,,,,,66d5353794a257d22919673b,682530b798de94e67efc5d05,2025-05-14_20h11.40.377,cuing_paradigm_dot,2024.1.5,Win32,60.0240096,68242c07d0c0e200c6451fdd,,,,,,,,,,,263.356,263.855,,,264.105,264.388,right,,,,,,,,0.6,0.268,,,,,,,263.855,264.105,264.388,265.489,0,43,43,172,1,,,,,,,
,,,,,,,66d5353794a257d22919673b,682530b798de94e67efc5d05,2025-05-14_20h11.40.377,cuing_paradigm_dot,2024.1.5,Win32,60.0240096,68242c07d0c0e200c6451fdd,,,,,,,,,,,265.491,265.989,,,266.238,266.488,left,,,,,,,,0.1,0.236,,,,,,,265.989,266.238,266.489,267.587,0,44,44,29,1,,,,,,,
,,,,,,,66d5353794a257d22919673b,682530b798de94e67efc5d05,2025-05-14_20h11.40.377,cuing_paradigm_dot,2024.1.5,Win32,60.0240096,68242c07d0c0e200c6451fdd,,,,,,,,,,,267.588,268.088,,,268.339,268.571,right,,,,,,,,0.55,0.217,,,,,,,268.088,268.339,268.571,269.671,0,45,45,145,1,,,,,,,
,,,,,,,66d5353794a257d22919673b,682530b798de94e67efc5d05,2025-05-14_20h11.40.377,cuing_paradigm_dot,2024.1.5,Win32,60.0240096,68242c07d0c0e200c6451fdd,,,,,,,,,,,269.673,270.171,,,270.421,270.587,left,,,,,,,,0.1,0.154,,,,,,,270.172,270.42,270.587,271.694,0,46,46,1,1,,,,,,,
,,,,,,,66d5353794a257d22919673b,682530b798de94e67efc5d05,2025-05-14_20h11.40.377,cuing_paradigm_dot,2024.1.5,Win32,60.0240096,68242c07d0c0e200c6451fdd,,,,,,,,,,,271.694,272.187,,,272.438,272.62,left,,,,,,,,0.1,0.169,,,,,,,272.187,272.438,272.621,273.721,0,47,47,10,1,,,,,,,
,,,,,,,66d5353794a257d22919673b,682530b798de94e67efc5d05,2025-05-14_20h11.40.377,cuing_paradigm_dot,2024.1.5,Win32,60.0240096,68242c07d0c0e200c6451fdd,,,,,,,,,,,273.722,274.221,,,274.472,274.621,left,,,,,,,,0.1,0.133,,,,,,,274.221,274.472,274.621,275.721,0,48,48,26,1,,,,,,,
,,,,,,,66d5353794a257d22919673b,682530b798de94e67efc5d05,2025-05-14_20h11.40.377,cuing_paradigm_dot,2024.1.5,Win32,60.0240096,68242c07d0c0e200c6451fdd,,,,,,,,,,,275.721,276.22,,,276.471,276.72,right,,,,,,,,0.55,0.232,,,,,,,276.221,276.471,276.72,277.821,0,49,49,124,1,,,,,,,
,,,,,,,66d5353794a257d22919673b,682530b798de94e67efc5d05,2025-05-14_20h11.40.377,cuing_paradigm_dot,2024.1.5,Win32,60.0240096,68242c07d0c0e200c6451fdd,,,,,,,,,,,277.821,278.321,,,278.57,278.82,right,,,,,,,,0.9,0.237,,,,,,,278.321,278.57,278.82,279.92,0,50,50,186,1,,,,,,,
,,,,,,,66d5353794a257d22919673b,682530b798de94e67efc5d05,2025-05-14_20h11.40.377,cuing_paradigm_dot,2024.1.5,Win32,60.0240096,68242c07d0c0e200c6451fdd,,,,,,,,,,,279.921,280.419,,,280.67,280.869,right,,,,,,,,0.6,0.189,,,,,,,280.419,280.67,280.87,281.969,0,51,51,163,1,,,,,,,
,,,,,,,66d5353794a257d22919673b,682530b798de94e67efc5d05,2025-05-14_20h11.40.377,cuing_paradigm_dot,2024.1.5,Win32,60.0240096,68242c07d0c0e200c6451fdd,,,,,,,,,,,281.97,282.47,,,282.719,283.036,left,,,,,,,,0.4,0.302,,,,,,,282.47,282.719,283.036,284.136,0,52,52,37,1,,,,,,,
,,,,,,,66d5353794a257d22919673b,682530b798de94e67efc5d05,2025-05-14_20h11.40.377,cuing_paradigm_dot,2024.1.5,Win32,60.0240096,68242c07d0c0e200c6451fdd,,,,,,,,,,,284.136,284.636,,,284.886,285.369,left,,,,,,,,0.5,0.468,,,,,,,284.636,284.886,285.369,286.47,0,53,53,105,1,,,,,,,
,,,,,,,66d5353794a257d22919673b,682530b798de94e67efc5d05,2025-05-14_20h11.40.377,cuing_paradigm_dot,2024.1.5,Win32,60.0240096,68242c07d0c0e200c6451fdd,,,,,,,,,,,286.47,286.968,,,287.219,287.669,right,,,,,,,,0.5,0.435,,,,,,,286.968,287.219,287.669,288.769,0,54,54,100,1,,,,,,,
,,,,,,,66d5353794a257d22919673b,682530b798de94e67efc5d05,2025-05-14_20h11.40.377,cuing_paradigm_dot,2024.1.5,Win32,60.0240096,68242c07d0c0e200c6451fdd,,,,,,,,,,,288.77,289.269,,,289.523,289.719,right,,,,,,,,0.1,0.179,,,,,,,289.269,289.522,289.719,290.818,0,55,55,15,1,,,,,,,
,,,,,,,66d5353794a257d22919673b,682530b798de94e67efc5d05,2025-05-14_20h11.40.377,cuing_paradigm_dot,2024.1.5,Win32,60.0240096,68242c07d0c0e200c6451fdd,,,,,,,,,,,290.825,291.318,,,291.569,291.785,left,,,,,,,,0.1,0.201,,,,,,,291.319,291.569,291.785,292.885,0,56,56,2,1,,,,,,,
,,,,,,,66d5353794a257d22919673b,682530b798de94e67efc5d05,2025-05-14_20h11.40.377,cuing_paradigm_dot,2024.1.5,Win32,60.0240096,68242c07d0c0e200c6451fdd,,,,,,,,,,,292.886,293.384,,,293.635,294.135,left,,,,,,,,0.55,0.483,,,,,,,293.384,293.635,294.135,295.235,0,57,57,137,1,,,,,,,
,,,,,,,66d5353794a257d22919673b,682530b798de94e67efc5d05,2025-05-14_20h11.40.377,cuing_paradigm_dot,2024.1.5,Win32,60.0240096,68242c07d0c0e200c6451fdd,,,,,,,,,,,295.236,295.741,,,295.985,296.217,left,,,,,,,,0.55,0.22,,,,,,,295.741,295.984,296.217,297.318,0,58,58,135,1,,,,,,,
,,,,,,,66d5353794a257d22919673b,682530b798de94e67efc5d05,2025-05-14_20h11.40.377,cuing_paradigm_dot,2024.1.5,Win32,60.0240096,68242c07d0c0e200c6451fdd,,,,,,,,,,,297.319,297.817,,,298.068,298.584,left,,,,,,,,0.4,0.506,,,,,,,297.818,298.068,298.584,299.684,0,59,59,57,1,,,,,,,
,,,,,,,66d5353794a257d22919673b,682530b798de94e67efc5d05,2025-05-14_20h11.40.377,cuing_paradigm_dot,2024.1.5,Win32,60.0240096,68242c07d0c0e200c6451fdd,,,,,,,,,,,299.685,300.183,,,300.434,300.851,left,,,,,,,,0.5,0.398,,,,,,,300.183,300.434,300.851,301.95,0,60,60,98,1,,,,,,,
,,,,,,,66d5353794a257d22919673b,682530b798de94e67efc5d05,2025-05-14_20h11.40.377,cuing_paradigm_dot,2024.1.5,Win32,60.0240096,68242c07d0c0e200c6451fdd,,,,,,,,,,,301.951,302.45,,,302.701,303.367,left,,,,,,,,0.55,0.65,,,,,,,302.45,302.701,303.367,304.466,0,61,61,142,1,,,,,,,
,,,,,,,66d5353794a257d22919673b,682530b798de94e67efc5d05,2025-05-14_20h11.40.377,cuing_paradigm_dot,2024.1.5,Win32,60.0240096,68242c07d0c0e200c6451fdd,,,,,,,,,,,304.467,304.967,,,305.216,305.416,right,,,,,,,,0.55,0.185,,,,,,,304.967,305.216,305.416,306.516,0,62,62,120,1,,,,,,,
,,,,,,,66d5353794a257d22919673b,682530b798de94e67efc5d05,2025-05-14_20h11.40.377,cuing_paradigm_dot,2024.1.5,Win32,60.0240096,68242c07d0c0e200c6451fdd,,,,,,,,,,,306.516,307.017,,,307.267,307.483,right,,,,,,,,0.4,0.199,,,,,,,307.017,307.267,307.483,308.583,0,63,63,58,1,,,,,,,
,,,,,,,66d5353794a257d22919673b,682530b798de94e67efc5d05,2025-05-14_20h11.40.377,cuing_paradigm_dot,2024.1.5,Win32,60.0240096,68242c07d0c0e200c6451fdd,,,,,,,,,,,308.583,309.082,,,309.334,309.649,left,,,,,,,,0.45,0.301,,,,,,,309.082,309.334,309.649,310.75,0,64,64,62,1,,,,,,,
,,,,,,,66d5353794a257d22919673b,682530b798de94e67efc5d05,2025-05-14_20h11.40.377,cuing_paradigm_dot,2024.1.5,Win32,60.0240096,68242c07d0c0e200c6451fdd,,,,,,,,,,,310.75,311.25,,,311.5,311.7,left,,,,,,,,0.6,0.184,,,,,,,311.25,311.5,311.7,312.799,0,65,65,171,1,,,,,,,
,,,,,,,66d5353794a257d22919673b,682530b798de94e67efc5d05,2025-05-14_20h11.40.377,cuing_paradigm_dot,2024.1.5,Win32,60.0240096,68242c07d0c0e200c6451fdd,,,,,,,,,,,312.8,313.299,,,313.549,315.048,,,,,,,,,0.6,,,,,,,,313.299,313.549,315.048,316.149,0,66,66,175,1,,,,,,,
,,,,,,,66d5353794a257d22919673b,682530b798de94e67efc5d05,2025-05-14_20h11.40.377,cuing_paradigm_dot,2024.1.5,Win32,60.0240096,68242c07d0c0e200c6451fdd,,,,,,,,,,,316.15,316.648,,,316.899,318.398,,,,,,,,,0.4,,,,,,,,316.648,316.899,318.398,319.498,0,67,67,45,1,,,,,,,
,,,,,,,66d5353794a257d22919673b,682530b798de94e67efc5d05,2025-05-14_20h11.40.377,cuing_paradigm_dot,2024.1.5,Win32,60.0240096,68242c07d0c0e200c6451fdd,,,,,,,,,,,319.498,319.998,,,320.248,320.698,right,,,,,,,,0.5,0.433,,,,,,,319.998,320.248,320.698,321.798,0,68,68,111,1,,,,,,,
,,,,,,,66d5353794a257d22919673b,682530b798de94e67efc5d05,2025-05-14_20h11.40.377,cuing_paradigm_dot,2024.1.5,Win32,60.0240096,68242c07d0c0e200c6451fdd,,,,,,,,,,,321.799,322.298,,,322.554,322.814,left,,,,,,,,0.45,0.248,,,,,,,322.298,322.554,322.814,323.914,0,69,69,73,1,,,,,,,
,,,,,,,66d5353794a257d22919673b,682530b798de94e67efc5d05,2025-05-14_20h11.40.377,cuing_paradigm_dot,2024.1.5,Win32,60.0240096,68242c07d0c0e200c6451fdd,,,,,,,,,,,323.919,324.414,,,324.664,324.897,right,,,,,,,,0.5,0.223,,,,,,,324.415,324.664,324.897,325.997,0,70,70,119,1,,,,,,,
,,,,,,,66d5353794a257d22919673b,682530b798de94e67efc5d05,2025-05-14_20h11.40.377,cuing_paradigm_dot,2024.1.5,Win32,60.0240096,68242c07d0c0e200c6451fdd,,,,,,,,,,,325.997,326.497,,,326.747,326.897,right,,,,,,,,0.9,0.136,,,,,,,326.497,326.747,326.897,327.997,0,71,71,205,1,,,,,,,
,,,,,,,66d5353794a257d22919673b,682530b798de94e67efc5d05,2025-05-14_20h11.40.377,cuing_paradigm_dot,2024.1.5,Win32,60.0240096,68242c07d0c0e200c6451fdd,,,,,,,,,,,327.998,328.498,,,328.746,328.964,left,,,,,,,,0.4,0.202,,,,,,,328.498,328.746,328.964,330.063,0,72,72,56,1,,,,,,,
,,,,,,,66d5353794a257d22919673b,682530b798de94e67efc5d05,2025-05-14_20h11.40.377,cuing_paradigm_dot,2024.1.5,Win32,60.0240096,68242c07d0c0e200c6451fdd,,,,,,,,,,,330.064,330.564,,,330.814,330.931,left,,,,,,,,0.1,0.102,,,,,,,330.564,330.814,330.931,332.031,0,73,73,24,1,,,,,,,
,,,,,,,66d5353794a257d22919673b,682530b798de94e67efc5d05,2025-05-14_20h11.40.377,cuing_paradigm_dot,2024.1.5,Win32,60.0240096,68242c07d0c0e200c6451fdd,,,,,,,,,,,332.032,332.53,,,332.78,332.997,left,,,,,,,,0.55,0.202,,,,,,,332.53,332.78,332.997,334.096,0,74,74,127,1,,,,,,,
,,,,,,,66d5353794a257d22919673b,682530b798de94e67efc5d05,2025-05-14_20h11.40.377,cuing_paradigm_dot,2024.1.5,Win32,60.0240096,68242c07d0c0e200c6451fdd,,,,,,,,,,,334.097,334.596,,,334.847,335.096,left,,,,,,,,0.9,0.233,,,,,,,334.596,334.847,335.096,336.196,0,75,75,200,1,,,,,,,
,,,,,,,66d5353794a257d22919673b,682530b798de94e67efc5d05,2025-05-14_20h11.40.377,cuing_paradigm_dot,2024.1.5,Win32,60.0240096,68242c07d0c0e200c6451fdd,,,,,,,,,,,336.196,336.697,,,336.946,337.396,right,,,,,,,,0.4,0.434,,,,,,,336.697,336.946,337.396,338.495,0,76,76,46,1,,,,,,,
,,,,,,,66d5353794a257d22919673b,682530b798de94e67efc5d05,2025-05-14_20h11.40.377,cuing_paradigm_dot,2024.1.5,Win32,60.0240096,68242c07d0c0e200c6451fdd,,,,,,,,,,,338.497,338.995,,,339.247,339.462,right,,,,,,,,0.4,0.202,,,,,,,338.995,339.246,339.462,340.562,0,77,77,42,1,,,,,,,
,,,,,,,66d5353794a257d22919673b,682530b798de94e67efc5d05,2025-05-14_20h11.40.377,cuing_paradigm_dot,2024.1.5,Win32,60.0240096,68242c07d0c0e200c6451fdd,,,,,,,,,,,340.563,341.062,,,341.313,341.546,right,,,,,,,,0.45,0.217,,,,,,,341.062,341.313,341.546,342.645,0,78,78,66,1,,,,,,,
,,,,,,,66d5353794a257d22919673b,682530b798de94e67efc5d05,2025-05-14_20h11.40.377,cuing_paradigm_dot,2024.1.5,Win32,60.0240096,68242c07d0c0e200c6451fdd,,,,,,,,,,,342.645,343.144,,,343.396,343.862,left,,,,,,,,0.6,0.452,,,,,,,343.144,343.396,343.862,344.961,0,79,79,160,1,,,,,,,
,,,,,,,66d5353794a257d22919673b,682530b798de94e67efc5d05,2025-05-14_20h11.40.377,cuing_paradigm_dot,2024.1.5,Win32,60.0240096,68242c07d0c0e200c6451fdd,,,,,,,,,,,344.962,345.462,,,345.711,345.962,right,,,,,,,,0.9,0.235,,,,,,,345.462,345.711,345.962,347.061,0,80,80,206,1,,,,,,,
,,,,,,,66d5353794a257d22919673b,682530b798de94e67efc5d05,2025-05-14_20h11.40.377,cuing_paradigm_dot,2024.1.5,Win32,60.0240096,68242c07d0c0e200c6451fdd,,,,,,,,,,,347.061,347.561,,,347.812,348.077,left,,,,,,,,0.1,0.249,,,,,,,347.561,347.812,348.077,349.177,0,81,81,22,1,,,,,,,
,,,,,,,66d5353794a257d22919673b,682530b798de94e67efc5d05,2025-05-14_20h11.40.377,cuing_paradigm_dot,2024.1.5,Win32,60.0240096,68242c07d0c0e200c6451fdd,,,,,,,,,,,349.178,349.678,,,349.927,350.111,right,,,,,,,,0.45,0.167,,,,,,,349.678,349.927,350.111,351.211,0,82,82,82,1,,,,,,,
,,,,,,,66d5353794a257d22919673b,682530b798de94e67efc5d05,2025-05-14_20h11.40.377,cuing_paradigm_dot,2024.1.5,Win32,60.0240096,68242c07d0c0e200c6451fdd,,,,,,,,,,,351.211,351.711,,,351.961,352.077,left,,,,,,,,0.1,0.1,,,,,,,351.711,351.961,352.077,353.178,0,83,83,14,1,,,,,,,
,,,,,,,66d5353794a257d22919673b,682530b798de94e67efc5d05,2025-05-14_20h11.40.377,cuing_paradigm_dot,2024.1.5,Win32,60.0240096,68242c07d0c0e200c6451fdd,,,,,,,,,,,353.184,353.678,,,353.928,354.195,right,,,,,,,,0.9,0.249,,,,,,,353.679,353.928,354.196,355.294,0,84,84,189,1,,,,,,,
,,,,,,,66d5353794a257d22919673b,682530b798de94e67efc5d05,2025-05-14_20h11.40.377,cuing_paradigm_dot,2024.1.5,Win32,60.0240096,68242c07d0c0e200c6451fdd,,,,,,,,,,,355.295,355.793,,,356.044,356.411,right,,,,,,,,0.6,0.354,,,,,,,355.793,356.044,356.411,357.51,0,85,85,150,1,,,,,,,
,,,,,,,66d5353794a257d22919673b,682530b798de94e67efc5d05,2025-05-14_20h11.40.377,cuing_paradigm_dot,2024.1.5,Win32,60.0240096,68242c07d0c0e200c6451fdd,,,,,,,,,,,357.511,358.01,,,358.261,358.61,right,,,,,,,,0.9,0.334,,,,,,,358.011,358.261,358.61,359.709,0,86,86,207,1,,,,,,,
,,,,,,,66d5353794a257d22919673b,682530b798de94e67efc5d05,2025-05-14_20h11.40.377,cuing_paradigm_dot,2024.1.5,Win32,60.0240096,68242c07d0c0e200c6451fdd,,,,,,,,,,,359.711,360.209,,,360.461,360.677,left,,,,,,,,0.55,0.202,,,,,,,360.209,360.46,360.677,361.775,0,87,87,133,1,,,,,,,
,,,,,,,66d5353794a257d22919673b,682530b798de94e67efc5d05,2025-05-14_20h11.40.377,cuing_paradigm_dot,2024.1.5,Win32,60.0240096,68242c07d0c0e200c6451fdd,,,,,,,,,,,361.777,362.276,,,362.526,362.942,right,,,,,,,,0.6,0.402,,,,,,,362.276,362.526,362.942,364.042,0,88,88,153,1,,,,,,,
,,,,,,,66d5353794a257d22919673b,682530b798de94e67efc5d05,2025-05-14_20h11.40.377,cuing_paradigm_dot,2024.1.5,Win32,60.0240096,68242c07d0c0e200c6451fdd,,,,,,,,,,,364.043,364.543,,,364.792,365.026,right,,,,,,,,0.6,0.217,,,,,,,364.544,364.792,365.026,366.126,0,89,89,170,1,,,,,,,
,,,,,,,66d5353794a257d22919673b,682530b798de94e67efc5d05,2025-05-14_20h11.40.377,cuing_paradigm_dot,2024.1.5,Win32,60.0240096,68242c07d0c0e200c6451fdd,,,,,,,,,,,366.127,366.626,,,366.876,367.209,left,,,,,,,,0.45,0.316,,,,,,,366.626,366.876,367.209,368.309,0,90,90,69,1,,,,,,,
,,,,,,,66d5353794a257d22919673b,682530b798de94e67efc5d05,2025-05-14_20h11.40.377,cuing_paradigm_dot,2024.1.5,Win32,60.0240096,68242c07d0c0e200c6451fdd,,,,,,,,,,,368.309,368.809,,,369.058,369.326,right,,,,,,,,0.9,0.255,,,,,,,368.809,369.058,369.326,370.426,0,91,91,202,1,,,,,,,
,,,,,,,66d5353794a257d22919673b,682530b798de94e67efc5d05,2025-05-14_20h11.40.377,cuing_paradigm_dot,2024.1.5,Win32,60.0240096,68242c07d0c0e200c6451fdd,,,,,,,,,,,370.426,370.925,,,371.175,371.458,right,,,,,,,,0.6,0.27,,,,,,,370.926,371.175,371.458,372.566,0,92,92,179,1,,,,,,,
,,,,,,,66d5353794a257d22919673b,682530b798de94e67efc5d05,2025-05-14_20h11.40.377,cuing_paradigm_dot,2024.1.5,Win32,60.0240096,68242c07d0c0e200c6451fdd,,,,,,,,,,,372.567,373.058,,,373.309,373.642,right,,,,,,,,0.6,0.317,,,,,,,373.058,373.309,373.642,374.741,0,93,93,167,1,,,,,,,
,,,,,,,66d5353794a257d22919673b,682530b798de94e67efc5d05,2025-05-14_20h11.40.377,cuing_paradigm_dot,2024.1.5,Win32,60.0240096,68242c07d0c0e200c6451fdd,,,,,,,,,,,374.742,375.241,,,375.492,375.858,right,,,,,,,,0.6,0.351,,,,,,,375.241,375.492,375.858,376.957,0,94,94,152,1,,,,,,,
,,,,,,,66d5353794a257d22919673b,682530b798de94e67efc5d05,2025-05-14_20h11.40.377,cuing_paradigm_dot,2024.1.5,Win32,60.0240096,68242c07d0c0e200c6451fdd,,,,,,,,,,,376.958,377.457,,,377.708,377.941,right,,,,,,,,0.5,0.219,,,,,,,377.457,377.708,377.941,379.04,0,95,95,118,1,,,,,,,
,,,,,,,66d5353794a257d22919673b,682530b798de94e67efc5d05,2025-05-14_20h11.40.377,cuing_paradigm_dot,2024.1.5,Win32,60.0240096,68242c07d0c0e200c6451fdd,,,,,,,,,,,379.04,379.541,,,379.791,380.174,right,,,,,,,,0.5,0.365,,,,,,,379.541,379.791,380.174,381.274,0,96,96,99,1,,,,,,,
,,,,,,,66d5353794a257d22919673b,682530b798de94e67efc5d05,2025-05-14_20h11.40.377,cuing_paradigm_dot,2024.1.5,Win32,60.0240096,68242c07d0c0e200c6451fdd,,,,,,,,,,,381.274,381.774,,,382.024,382.473,right,,,,,,,,0.45,0.434,,,,,,,381.774,382.024,382.474,383.573,0,97,97,63,1,,,,,,,
,,,,,,,66d5353794a257d22919673b,682530b798de94e67efc5d05,2025-05-14_20h11.40.377,cuing_paradigm_dot,2024.1.5,Win32,60.0240096,68242c07d0c0e200c6451fdd,,,,,,,,,,,383.574,384.073,,,384.324,384.574,right,,,,,,,,0.9,0.235,,,,,,,384.073,384.324,384.574,385.674,0,98,98,209,1,,,,,,,
,,,,,,,66d5353794a257d22919673b,682530b798de94e67efc5d05,2025-05-14_20h11.40.377,cuing_paradigm_dot,2024.1.5,Win32,60.0240096,68242c07d0c0e200c6451fdd,,,,,,,,,,,385.675,386.179,,,386.424,386.64,left,,,,,,,,0.1,0.202,,,,,,,386.179,386.424,386.641,387.739,0,99,99,3,1,,,,,,,
,,,,,,,66d5353794a257d22919673b,682530b798de94e67efc5d05,2025-05-14_20h11.40.377,cuing_paradigm_dot,2024.1.5,Win32,60.0240096,68242c07d0c0e200c6451fdd,,,,,,,,,,,387.745,388.24,,,388.49,388.69,left,,,,,,,,0.5,0.185,,,,,,,388.24,388.49,388.69,389.79,0,100,100,106,1,,,,,,,
,,,,,,,66d5353794a257d22919673b,682530b798de94e67efc5d05,2025-05-14_20h11.40.377,cuing_paradigm_dot,2024.1.5,Win32,60.0240096,68242c07d0c0e200c6451fdd,,,,,,,,,,,389.791,390.29,,,390.54,390.756,left,,,,,,,,0.5,0.201,,,,,,,390.29,390.54,390.756,391.857,0,101,101,102,1,,,,,,,
,,,,,,,66d5353794a257d22919673b,682530b798de94e67efc5d05,2025-05-14_20h11.40.377,cuing_paradigm_dot,2024.1.5,Win32,60.0240096,68242c07d0c0e200c6451fdd,,,,,,,,,,,391.858,392.355,,,392.606,392.972,left,,,,,,,,0.1,0.352,,,,,,,392.355,392.606,392.973,394.072,0,102,102,9,1,,,,,,,
,,,,,,,66d5353794a257d22919673b,682530b798de94e67efc5d05,2025-05-14_20h11.40.377,cuing_paradigm_dot,2024.1.5,Win32,60.0240096,68242c07d0c0e200c6451fdd,,,,,,,,,,,394.072,394.573,,,394.823,395.222,right,,,,,,,,0.6,0.386,,,,,,,394.573,394.823,395.222,396.322,0,103,103,151,1,,,,,,,
,,,,,,,66d5353794a257d22919673b,682530b798de94e67efc5d05,2025-05-14_20h11.40.377,cuing_paradigm_dot,2024.1.5,Win32,60.0240096,68242c07d0c0e200c6451fdd,,,,,,,,,,,396.324,396.822,,,397.072,397.272,right,,,,,,,,0.4,0.186,,,,,,,396.822,397.072,397.272,398.371,0,104,104,35,1,,,,,,,
,,,,,,,66d5353794a257d22919673b,682530b798de94e67efc5d05,2025-05-14_20h11.40.377,cuing_paradigm_dot,2024.1.5,Win32,60.0240096,68242c07d0c0e200c6451fdd,,,,,,,,,,,398.372,398.871,,,399.122,399.489,left,,,,,,,,0.55,0.352,,,,,,,398.871,399.122,399.489,400.588,0,105,105,126,1,,,,,,,
,,,,,,,66d5353794a257d22919673b,682530b798de94e67efc5d05,2025-05-14_20h11.40.377,cuing_paradigm_dot,2024.1.5,Win32,60.0240096,68242c07d0c0e200c6451fdd,,,,,,,,,,,400.588,401.088,,,401.338,401.538,right,,,,,,,,0.4,0.185,,,,,,,401.088,401.338,401.538,402.637,0,106,106,59,1,,,,,,,
,,,,,,,66d5353794a257d22919673b,682530b798de94e67efc5d05,2025-05-14_20h11.40.377,cuing_paradigm_dot,2024.1.5,Win32,60.0240096,68242c07d0c0e200c6451fdd,,,,,,,,,,,402.638,403.137,,,403.388,403.804,left,,,,,,,,0.55,0.402,,,,,,,403.137,403.388,403.804,404.904,0,107,107,149,1,,,,,,,
,,,,,,,66d5353794a257d22919673b,682530b798de94e67efc5d05,2025-05-14_20h11.40.377,cuing_paradigm_dot,2024.1.5,Win32,60.0240096,68242c07d0c0e200c6451fdd,,,,,,,,,,,404.905,405.404,,,405.654,406.187,right,,,,,,,,0.45,0.52,,,,,,,405.404,405.654,406.187,407.288,0,108,108,68,1,,,,,,,
,,,,,,,66d5353794a257d22919673b,682530b798de94e67efc5d05,2025-05-14_20h11.40.377,cuing_paradigm_dot,2024.1.5,Win32,60.0240096,68242c07d0c0e200c6451fdd,,,,,,,,,,,407.288,407.788,,,408.037,408.203,right,,,,,,,,0.5,0.152,,,,,,,407.788,408.037,408.203,409.303,0,109,109,117,1,,,,,,,
,,,,,,,66d5353794a257d22919673b,682530b798de94e67efc5d05,2025-05-14_20h11.40.377,cuing_paradigm_dot,2024.1.5,Win32,60.0240096,68242c07d0c0e200c6451fdd,,,,,,,,,,,409.304,409.804,,,410.053,410.454,right,,,,,,,,0.4,0.384,,,,,,,409.804,410.053,410.454,411.554,0,110,110,32,1,,,,,,,
,,,,,,,66d5353794a257d22919673b,682530b798de94e67efc5d05,2025-05-14_20h11.40.377,cuing_paradigm_dot,2024.1.5,Win32,60.0240096,68242c07d0c0e200c6451fdd,,,,,,,,,,,411.554,412.053,,,412.304,412.486,right,,,,,,,,0.9,0.169,,,,,,,412.053,412.304,412.486,413.587,0,111,111,184,1,,,,,,,
,,,,,,,66d5353794a257d22919673b,682530b798de94e67efc5d05,2025-05-14_20h11.40.377,cuing_paradigm_dot,2024.1.5,Win32,60.0240096,68242c07d0c0e200c6451fdd,,,,,,,,,,,413.587,414.086,,,414.336,414.47,right,,,,,,,,0.9,0.12,,,,,,,414.086,414.336,414.47,415.57,0,112,112,183,1,,,,,,,
,,,,,,,66d5353794a257d22919673b,682530b798de94e67efc5d05,2025-05-14_20h11.40.377,cuing_paradigm_dot,2024.1.5,Win32,60.0240096,68242c07d0c0e200c6451fdd,,,,,,,,,,,415.571,416.069,,,416.32,416.454,right,,,,,,,,0.9,0.118,,,,,,,416.069,416.32,416.454,417.555,0,113,113,204,1,,,,,,,
,,,,,,,66d5353794a257d22919673b,682530b798de94e67efc5d05,2025-05-14_20h11.40.377,cuing_paradigm_dot,2024.1.5,Win32,60.0240096,68242c07d0c0e200c6451fdd,,,,,,,,,,,417.563,418.052,,,418.305,418.452,right,,,,,,,,0.9,0.136,,,,,,,418.052,418.305,418.452,419.552,0,114,114,190,1,,,,,,,
,,,,,,,66d5353794a257d22919673b,682530b798de94e67efc5d05,2025-05-14_20h11.40.377,cuing_paradigm_dot,2024.1.5,Win32,60.0240096,68242c07d0c0e200c6451fdd,,,,,,,,,,,419.553,420.053,,,420.303,420.569,left,,,,,,,,0.45,0.253,,,,,,,420.053,420.303,420.57,421.67,0,115,115,81,1,,,,,,,
,,,,,,,66d5353794a257d22919673b,682530b798de94e67efc5d05,2025-05-14_20h11.40.377,cuing_paradigm_dot,2024.1.5,Win32,60.0240096,68242c07d0c0e200c6451fdd,,,,,,,,,,,421.67,422.169,,,422.419,422.77,right,,,,,,,,0.55,0.338,,,,,,,422.169,422.419,422.77,423.869,0,116,116,131,1,,,,,,,
,,,,,,,66d5353794a257d22919673b,682530b798de94e67efc5d05,2025-05-14_20h11.40.377,cuing_paradigm_dot,2024.1.5,Win32,60.0240096,68242c07d0c0e200c6451fdd,,,,,,,,,,,423.871,424.369,,,424.619,425.069,right,,,,,,,,0.45,0.432,,,,,,,424.369,424.619,425.069,426.169,0,117,117,78,1,,,,,,,
,,,,,,,66d5353794a257d22919673b,682530b798de94e67efc5d05,2025-05-14_20h11.40.377,cuing_paradigm_dot,2024.1.5,Win32,60.0240096,68242c07d0c0e200c6451fdd,,,,,,,,,,,426.17,426.669,,,426.919,427.334,right,,,,,,,,0.45,0.4,,,,,,,426.669,426.918,427.334,428.435,0,118,118,87,1,,,,,,,
,,,,,,,66d5353794a257d22919673b,682530b798de94e67efc5d05,2025-05-14_20h11.40.377,cuing_paradigm_dot,2024.1.5,Win32,60.0240096,68242c07d0c0e200c6451fdd,,,,,,,,,,,428.436,428.934,,,429.185,429.452,right,,,,,,,,0.9,0.249,,,,,,,428.934,429.185,429.452,430.551,0,119,119,182,1,,,,,,,
,,,,,,,66d5353794a257d22919673b,682530b798de94e67efc5d05,2025-05-14_20h11.40.377,cuing_paradigm_dot,2024.1.5,Win32,60.0240096,68242c07d0c0e200c6451fdd,,,,,,,,,,,430.552,431.05,,,431.301,431.651,left,,,,,,,,0.4,0.334,,,,,,,431.051,431.301,431.651,432.75,0,120,120,44,1,,,,,,,
,,,,,,,66d5353794a257d22919673b,682530b798de94e67efc5d05,2025-05-14_20h11.40.377,cuing_paradigm_dot,2024.1.5,Win32,60.0240096,68242c07d0c0e200c6451fdd,,,,,,,,,,,432.751,433.251,,,433.502,433.667,right,,,,,,,,0.1,0.151,,,,,,,433.251,433.502,433.667,434.768,0,121,121,6,1,,,,,,,
,,,,,,,66d5353794a257d22919673b,682530b798de94e67efc5d05,2025-05-14_20h11.40.377,cuing_paradigm_dot,2024.1.5,Win32,60.0240096,68242c07d0c0e200c6451fdd,,,,,,,,,,,434.768,435.267,,,435.517,435.951,left,,,,,,,,0.5,0.418,,,,,,,435.267,435.517,435.951,437.05,0,122,122,116,1,,,,,,,
,,,,,,,66d5353794a257d22919673b,682530b798de94e67efc5d05,2025-05-14_20h11.40.377,cuing_paradigm_dot,2024.1.5,Win32,60.0240096,68242c07d0c0e200c6451fdd,,,,,,,,,,,437.051,437.55,,,437.801,438.383,right,,,,,,,,0.55,0.567,,,,,,,437.55,437.801,438.383,439.483,0,123,123,132,1,,,,,,,
,,,,,,,66d5353794a257d22919673b,682530b798de94e67efc5d05,2025-05-14_20h11.40.377,cuing_paradigm_dot,2024.1.5,Win32,60.0240096,68242c07d0c0e200c6451fdd,,,,,,,,,,,439.484,439.983,,,440.234,440.716,right,,,,,,,,0.55,0.467,,,,,,,439.983,440.234,440.716,441.816,0,124,124,143,1,,,,,,,
,,,,,,,66d5353794a257d22919673b,682530b798de94e67efc5d05,2025-05-14_20h11.40.377,cuing_paradigm_dot,2024.1.5,Win32,60.0240096,68242c07d0c0e200c6451fdd,,,,,,,,,,,441.817,442.316,,,442.566,442.916,right,,,,,,,,0.5,0.333,,,,,,,442.316,442.566,442.916,444.016,0,125,125,113,1,,,,,,,
,,,,,,,66d5353794a257d22919673b,682530b798de94e67efc5d05,2025-05-14_20h11.40.377,cuing_paradigm_dot,2024.1.5,Win32,60.0240096,68242c07d0c0e200c6451fdd,,,,,,,,,,,444.016,444.517,,,444.766,445,right,,,,,,,,0.5,0.221,,,,,,,444.517,444.766,445,446.1,0,126,126,95,1,,,,,,,
,,,,,,,66d5353794a257d22919673b,682530b798de94e67efc5d05,2025-05-14_20h11.40.377,cuing_paradigm_dot,2024.1.5,Win32,60.0240096,68242c07d0c0e200c6451fdd,,,,,,,,,,,446.1,446.6,,,446.85,447.049,left,,,,,,,,0.5,0.183,,,,,,,446.6,446.85,447.049,448.149,0,127,127,93,1,,,,,,,
,,,,,,,66d5353794a257d22919673b,682530b798de94e67efc5d05,2025-05-14_20h11.40.377,cuing_paradigm_dot,2024.1.5,Win32,60.0240096,68242c07d0c0e200c6451fdd,,,,,,,,,,,448.155,448.649,,,448.9,449.315,left,,,,,,,,0.1,0.406,,,,,,,448.649,448.899,449.315,450.416,0,128,128,7,1,,,,,,,
,,,,,,,66d5353794a257d22919673b,682530b798de94e67efc5d05,2025-05-14_20h11.40.377,cuing_paradigm_dot,2024.1.5,Win32,60.0240096,68242c07d0c0e200c6451fdd,,,,,,,,,,,450.416,450.916,,,451.166,451.332,left,,,,,,,,0.1,0.152,,,,,,,450.916,451.166,451.332,452.432,0,129,129,27,1,,,,,,,
,,,,,,,66d5353794a257d22919673b,682530b798de94e67efc5d05,2025-05-14_20h11.40.377,cuing_paradigm_dot,2024.1.5,Win32,60.0240096,68242c07d0c0e200c6451fdd,,,,,,,,,,,452.434,452.932,,,453.181,453.348,left,,,,,,,,0.5,0.152,,,,,,,452.932,453.181,453.348,454.448,0,130,130,101,1,,,,,,,
,,,,,,,66d5353794a257d22919673b,682530b798de94e67efc5d05,2025-05-14_20h11.40.377,cuing_paradigm_dot,2024.1.5,Win32,60.0240096,68242c07d0c0e200c6451fdd,,,,,,,,,,,454.449,454.948,,,455.198,455.348,left,,,,,,,,0.4,0.133,,,,,,,454.948,455.198,455.348,456.448,0,131,131,52,1,,,,,,,
,,,,,,,66d5353794a257d22919673b,682530b798de94e67efc5d05,2025-05-14_20h11.40.377,cuing_paradigm_dot,2024.1.5,Win32,60.0240096,68242c07d0c0e200c6451fdd,,,,,,,,,,,456.449,456.948,,,457.198,457.381,left,,,,,,,,0.5,0.17,,,,,,,456.948,457.198,457.381,458.482,0,132,132,94,1,,,,,,,
,,,,,,,66d5353794a257d22919673b,682530b798de94e67efc5d05,2025-05-14_20h11.40.377,cuing_paradigm_dot,2024.1.5,Win32,60.0240096,68242c07d0c0e200c6451fdd,,,,,,,,,,,458.483,458.98,,,459.231,459.665,right,,,,,,,,0.45,0.418,,,,,,,458.981,459.231,459.665,460.764,0,133,133,88,1,,,,,,,
,,,,,,,66d5353794a257d22919673b,682530b798de94e67efc5d05,2025-05-14_20h11.40.377,cuing_paradigm_dot,2024.1.5,Win32,60.0240096,68242c07d0c0e200c6451fdd,,,,,,,,,,,460.765,461.264,,,461.515,461.865,right,,,,,,,,0.4,0.336,,,,,,,461.264,461.515,461.865,462.964,0,134,134,50,1,,,,,,,
,,,,,,,66d5353794a257d22919673b,682530b798de94e67efc5d05,2025-05-14_20h11.40.377,cuing_paradigm_dot,2024.1.5,Win32,60.0240096,68242c07d0c0e200c6451fdd,,,,,,,,,,,462.964,463.464,,,463.714,464.214,right,,,,,,,,0.9,0.486,,,,,,,463.464,463.714,464.214,465.313,0,135,135,180,1,,,,,,,
,,,,,,,66d5353794a257d22919673b,682530b798de94e67efc5d05,2025-05-14_20h11.40.377,cuing_paradigm_dot,2024.1.5,Win32,60.0240096,68242c07d0c0e200c6451fdd,,,,,,,,,,,465.314,465.814,,,466.064,466.48,right,,,,,,,,0.5,0.402,,,,,,,465.814,466.064,466.48,467.58,0,136,136,96,1,,,,,,,
,,,,,,,66d5353794a257d22919673b,682530b798de94e67efc5d05,2025-05-14_20h11.40.377,cuing_paradigm_dot,2024.1.5,Win32,60.0240096,68242c07d0c0e200c6451fdd,,,,,,,,,,,467.581,468.079,,,468.331,468.496,right,,,,,,,,0.9,0.15,,,,,,,468.079,468.331,468.496,469.596,0,137,137,199,1,,,,,,,
,,,,,,,66d5353794a257d22919673b,682530b798de94e67efc5d05,2025-05-14_20h11.40.377,cuing_paradigm_dot,2024.1.5,Win32,60.0240096,68242c07d0c0e200c6451fdd,,,,,,,,,,,469.597,470.085,,,470.33,470.595,left,,,,,,,,0.45,0.254,,,,,,,470.085,470.33,470.596,471.696,0,138,138,80,1,,,,,,,
,,,,,,,66d5353794a257d22919673b,682530b798de94e67efc5d05,2025-05-14_20h11.40.377,cuing_paradigm_dot,2024.1.5,Win32,60.0240096,68242c07d0c0e200c6451fdd,,,,,,,,,,,471.697,472.196,,,472.451,472.746,right,,,,,,,,0.55,0.282,,,,,,,472.196,472.451,472.746,473.845,0,139,139,148,1,,,,,,,
,,,,,,,66d5353794a257d22919673b,682530b798de94e67efc5d05,2025-05-14_20h11.40.377,cuing_paradigm_dot,2024.1.5,Win32,60.0240096,68242c07d0c0e200c6451fdd,,,,,,,,,,,473.846,474.346,,,474.596,474.896,right,,,,,,,,0.45,0.285,,,,,,,474.346,474.596,474.896,475.995,0,140,140,65,1,,,,,,,
,,,,,,,66d5353794a257d22919673b,682530b798de94e67efc5d05,2025-05-14_20h11.40.377,cuing_paradigm_dot,2024.1.5,Win32,60.0240096,68242c07d0c0e200c6451fdd,,,,,,,,,,,475.996,476.496,,,476.746,476.929,left,,,,,,,,0.45,0.17,,,,,,,476.496,476.746,476.929,478.029,0,141,141,70,1,,,,,,,
,,,,,,,66d5353794a257d22919673b,682530b798de94e67efc5d05,2025-05-14_20h11.40.377,cuing_paradigm_dot,2024.1.5,Win32,60.0240096,68242c07d0c0e200c6451fdd,,,,,,,,,,,478.029,478.528,,,478.78,478.928,left,,,,,,,,0.4,0.135,,,,,,,478.529,478.78,478.928,480.028,0,142,142,55,1,,,,,,,
,,,,,,,66d5353794a257d22919673b,682530b798de94e67efc5d05,2025-05-14_20h11.40.377,cuing_paradigm_dot,2024.1.5,Win32,60.0240096,68242c07d0c0e200c6451fdd,,,,,,,,,,,480.029,480.528,,,480.778,480.945,right,,,,,,,,0.9,0.153,,,,,,,480.528,480.778,480.945,482.045,0,143,143,208,1,,,,,,,
,,,,,,,66d5353794a257d22919673b,682530b798de94e67efc5d05,2025-05-14_20h11.40.377,cuing_paradigm_dot,2024.1.5,Win32,60.0240096,68242c07d0c0e200c6451fdd,,,,,,,,,,,482.049,482.544,,,482.795,483.094,right,,,,,,,,0.55,0.283,,,,,,,482.545,482.795,483.094,484.194,0,144,144,121,1,,,,,,,
,,,,,,,66d5353794a257d22919673b,682530b798de94e67efc5d05,2025-05-14_20h11.40.377,cuing_paradigm_dot,2024.1.5,Win32,60.0240096,68242c07d0c0e200c6451fdd,,,,,,,,,,,484.195,484.694,,,484.945,485.361,right,,,,,,,,0.45,0.401,,,,,,,484.694,484.945,485.361,486.461,0,145,145,84,1,,,,,,,
,,,,,,,66d5353794a257d22919673b,682530b798de94e67efc5d05,2025-05-14_20h11.40.377,cuing_paradigm_dot,2024.1.5,Win32,60.0240096,68242c07d0c0e200c6451fdd,,,,,,,,,,,486.462,486.96,,,487.211,487.429,right,,,,,,,,0.55,0.204,,,,,,,486.961,487.211,487.43,488.527,0,146,146,128,1,,,,,,,
,,,,,,,66d5353794a257d22919673b,682530b798de94e67efc5d05,2025-05-14_20h11.40.377,cuing_paradigm_dot,2024.1.5,Win32,60.0240096,68242c07d0c0e200c6451fdd,,,,,,,,,,,488.528,489.027,,,489.277,489.66,right,,,,,,,,0.4,0.37,,,,,,,489.027,489.277,489.66,490.76,0,147,147,38,1,,,,,,,
,,,,,,,66d5353794a257d22919673b,682530b798de94e67efc5d05,2025-05-14_20h11.40.377,cuing_paradigm_dot,2024.1.5,Win32,60.0240096,68242c07d0c0e200c6451fdd,,,,,,,,,,,490.761,491.26,,,491.511,491.611,left,,,,,,,,0.1,0.084,,,,,,,491.26,491.511,491.611,492.71,0,148,148,11,1,,,,,,,
,,,,,,,66d5353794a257d22919673b,682530b798de94e67efc5d05,2025-05-14_20h11.40.377,cuing_paradigm_dot,2024.1.5,Win32,60.0240096,68242c07d0c0e200c6451fdd,,,,,,,,,,,492.711,493.21,,,493.461,493.594,left,,,,,,,,0.45,0.116,,,,,,,493.21,493.461,493.594,494.693,0,149,149,85,1,,,,,,,
,,,,,,,66d5353794a257d22919673b,682530b798de94e67efc5d05,2025-05-14_20h11.40.377,cuing_paradigm_dot,2024.1.5,Win32,60.0240096,68242c07d0c0e200c6451fdd,,,,,,,,,,,494.695,495.193,,,495.444,495.593,right,,,,,,,,0.5,0.138,,,,,,,495.193,495.443,495.593,496.693,0,150,150,109,1,,,,,,,
,,,,,,,66d5353794a257d22919673b,682530b798de94e67efc5d05,2025-05-14_20h11.40.377,cuing_paradigm_dot,2024.1.5,Win32,60.0240096,68242c07d0c0e200c6451fdd,,,,,,,,,,,496.694,497.194,,,497.443,497.678,left,,,,,,,,0.6,0.221,,,,,,,497.194,497.443,497.678,498.776,0,151,151,162,1,,,,,,,
,,,,,,,66d5353794a257d22919673b,682530b798de94e67efc5d05,2025-05-14_20h11.40.377,cuing_paradigm_dot,2024.1.5,Win32,60.0240096,68242c07d0c0e200c6451fdd,,,,,,,,,,,498.777,499.276,,,499.526,499.935,right,,,,,,,,0.45,0.397,,,,,,,499.276,499.526,499.935,501.026,0,152,152,74,1,,,,,,,
,,,,,,,66d5353794a257d22919673b,682530b798de94e67efc5d05,2025-05-14_20h11.40.377,cuing_paradigm_dot,2024.1.5,Win32,60.0240096,68242c07d0c0e200c6451fdd,,,,,,,,,,,501.026,501.525,,,501.776,502.142,left,,,,,,,,0.1,0.351,,,,,,,501.525,501.776,502.142,503.243,0,153,153,19,1,,,,,,,
,,,,,,,66d5353794a257d22919673b,682530b798de94e67efc5d05,2025-05-14_20h11.40.377,cuing_paradigm_dot,2024.1.5,Win32,60.0240096,68242c07d0c0e200c6451fdd,,,,,,,,,,,503.243,503.743,,,503.992,504.441,left,,,,,,,,0.5,0.437,,,,,,,503.743,503.992,504.442,505.542,0,154,154,92,1,,,,,,,
,,,,,,,66d5353794a257d22919673b,682530b798de94e67efc5d05,2025-05-14_20h11.40.377,cuing_paradigm_dot,2024.1.5,Win32,60.0240096,68242c07d0c0e200c6451fdd,,,,,,,,,,,505.542,506.042,,,506.292,506.659,right,,,,,,,,0.6,0.354,,,,,,,506.043,506.292,506.659,507.758,0,155,155,157,1,,,,,,,
,,,,,,,66d5353794a257d22919673b,682530b798de94e67efc5d05,2025-05-14_20h11.40.377,cuing_paradigm_dot,2024.1.5,Win32,60.0240096,68242c07d0c0e200c6451fdd,,,,,,,,,,,507.759,508.258,,,508.509,509.125,left,,,,,,,,0.6,0.6,,,,,,,508.258,508.509,509.125,510.224,0,156,156,161,1,,,,,,,
,,,,,,,66d5353794a257d22919673b,682530b798de94e67efc5d05,2025-05-14_20h11.40.377,cuing_paradigm_dot,2024.1.5,Win32,60.0240096,68242c07d0c0e200c6451fdd,,,,,,,,,,,510.226,510.725,,,510.982,511.775,left,,,,,,,,0.4,0.781,,,,,,,510.725,510.982,511.775,512.875,0,157,157,34,1,,,,,,,
,,,,,,,66d5353794a257d22919673b,682530b798de94e67efc5d05,2025-05-14_20h11.40.377,cuing_paradigm_dot,2024.1.5,Win32,60.0240096,68242c07d0c0e200c6451fdd,,,,,,,,,,,512.876,513.378,,,513.626,514.207,right,,,,,,,,0.55,0.568,,,,,,,513.38,513.626,514.208,515.308,0,158,158,122,1,,,,,,,
,,,,,,,66d5353794a257d22919673b,682530b798de94e67efc5d05,2025-05-14_20h11.40.377,cuing_paradigm_dot,2024.1.5,Win32,60.0240096,68242c07d0c0e200c6451fdd,,,,,,,,,,,515.313,515.807,,,516.057,516.275,left,,,,,,,,0.4,0.202,,,,,,,515.807,516.057,516.275,517.374,0,159,159,53,1,,,,,,,
,,,,,,,66d5353794a257d22919673b,682530b798de94e67efc5d05,2025-05-14_20h11.40.377,cuing_paradigm_dot,2024.1.5,Win32,60.0240096,68242c07d0c0e200c6451fdd,,,,,,,,,,,517.375,517.874,,,518.124,518.706,right,,,,,,,,0.6,0.568,,,,,,,517.874,518.124,518.707,519.807,0,160,160,169,1,,,,,,,
,,,,,,,66d5353794a257d22919673b,682530b798de94e67efc5d05,2025-05-14_20h11.40.377,cuing_paradigm_dot,2024.1.5,Win32,60.0240096,68242c07d0c0e200c6451fdd,,,,,,,,,,,519.808,520.307,,,520.559,521.274,right,,,,,,,,0.6,0.705,,,,,,,520.307,520.559,521.274,522.373,0,161,161,168,1,,,,,,,
,,,,,,,66d5353794a257d22919673b,682530b798de94e67efc5d05,2025-05-14_20h11.40.377,cuing_paradigm_dot,2024.1.5,Win32,60.0240096,68242c07d0c0e200c6451fdd,,,,,,,,,,,522.373,522.873,,,523.125,523.54,right,,,,,,,,0.45,0.401,,,,,,,522.873,523.124,523.54,524.639,0,162,162,76,1,,,,,,,
,,,,,,,66d5353794a257d22919673b,682530b798de94e67efc5d05,2025-05-14_20h11.40.377,cuing_paradigm_dot,2024.1.5,Win32,60.0240096,68242c07d0c0e200c6451fdd,,,,,,,,,,,524.641,525.139,,,525.39,525.673,right,,,,,,,,0.5,0.265,,,,,,,525.139,525.39,525.673,526.772,0,163,163,108,1,,,,,,,
,,,,,,,66d5353794a257d22919673b,682530b798de94e67efc5d05,2025-05-14_20h11.40.377,cuing_paradigm_dot,2024.1.5,Win32,60.0240096,68242c07d0c0e200c6451fdd,,,,,,,,,,,526.772,527.272,,,527.523,527.706,left,,,,,,,,0.4,0.168,,,,,,,527.272,527.523,527.706,528.805,0,164,164,30,1,,,,,,,
,,,,,,,66d5353794a257d22919673b,682530b798de94e67efc5d05,2025-05-14_20h11.40.377,cuing_paradigm_dot,2024.1.5,Win32,60.0240096,68242c07d0c0e200c6451fdd,,,,,,,,,,,528.806,529.306,,,529.557,530.105,left,,,,,,,,0.5,0.533,,,,,,,529.306,529.557,530.105,531.206,0,165,165,115,1,,,,,,,
,,,,,,,66d5353794a257d22919673b,682530b798de94e67efc5d05,2025-05-14_20h11.40.377,cuing_paradigm_dot,2024.1.5,Win32,60.0240096,68242c07d0c0e200c6451fdd,,,,,,,,,,,531.207,531.705,,,531.955,532.471,right,,,,,,,,0.55,0.502,,,,,,,531.705,531.955,532.472,533.572,0,166,166,134,1,,,,,,,
,,,,,,,66d5353794a257d22919673b,682530b798de94e67efc5d05,2025-05-14_20h11.40.377,cuing_paradigm_dot,2024.1.5,Win32,60.0240096,68242c07d0c0e200c6451fdd,,,,,,,,,,,533.573,534.071,,,534.322,534.755,right,,,,,,,,0.9,0.417,,,,,,,534.071,534.322,534.755,535.855,0,167,167,192,1,,,,,,,
,,,,,,,66d5353794a257d22919673b,682530b798de94e67efc5d05,2025-05-14_20h11.40.377,cuing_paradigm_dot,2024.1.5,Win32,60.0240096,68242c07d0c0e200c6451fdd,,,,,,,,,,,535.856,536.355,,,536.605,536.805,right,,,,,,,,0.9,0.183,,,,,,,536.355,536.605,536.805,537.904,0,168,168,203,1,,,,,,,
,,,,,,,66d5353794a257d22919673b,682530b798de94e67efc5d05,2025-05-14_20h11.40.377,cuing_paradigm_dot,2024.1.5,Win32,60.0240096,68242c07d0c0e200c6451fdd,,,,,,,,,,,537.905,538.404,,,538.655,538.905,right,,,,,,,,0.4,0.235,,,,,,,538.404,538.655,538.905,540.005,0,169,169,43,1,,,,,,,
,,,,,,,66d5353794a257d22919673b,682530b798de94e67efc5d05,2025-05-14_20h11.40.377,cuing_paradigm_dot,2024.1.5,Win32,60.0240096,68242c07d0c0e200c6451fdd,,,,,,,,,,,540.005,540.505,,,540.755,541.287,right,,,,,,,,0.4,0.52,,,,,,,540.505,540.755,541.287,542.387,0,170,170,41,1,,,,,,,
,,,,,,,66d5353794a257d22919673b,682530b798de94e67efc5d05,2025-05-14_20h11.40.377,cuing_paradigm_dot,2024.1.5,Win32,60.0240096,68242c07d0c0e200c6451fdd,,,,,,,,,,,542.388,542.888,,,543.137,543.988,left,,,,,,,,0.55,0.837,,,,,,,542.888,543.137,543.988,545.087,0,171,171,136,1,,,,,,,
,,,,,,,66d5353794a257d22919673b,682530b798de94e67efc5d05,2025-05-14_20h11.40.377,cuing_paradigm_dot,2024.1.5,Win32,60.0240096,68242c07d0c0e200c6451fdd,,,,,,,,,,,545.093,545.586,,,545.838,546.103,left,,,,,,,,0.45,0.252,,,,,,,545.586,545.838,546.103,547.204,0,172,172,83,1,,,,,,,
,,,,,,,66d5353794a257d22919673b,682530b798de94e67efc5d05,2025-05-14_20h11.40.377,cuing_paradigm_dot,2024.1.5,Win32,60.0240096,68242c07d0c0e200c6451fdd,,,,,,,,,,,547.204,547.703,,,547.954,548.186,right,,,,,,,,0.1,0.218,,,,,,,547.704,547.954,548.186,549.286,0,173,173,17,1,,,,,,,
,,,,,,,66d5353794a257d22919673b,682530b798de94e67efc5d05,2025-05-14_20h11.40.377,cuing_paradigm_dot,2024.1.5,Win32,60.0240096,68242c07d0c0e200c6451fdd,,,,,,,,,,,549.286,549.786,,,550.038,550.437,right,,,,,,,,0.9,0.386,,,,,,,549.786,550.038,550.438,551.536,0,174,174,191,1,,,,,,,
,,,,,,,66d5353794a257d22919673b,682530b798de94e67efc5d05,2025-05-14_20h11.40.377,cuing_paradigm_dot,2024.1.5,Win32,60.0240096,68242c07d0c0e200c6451fdd,,,,,,,,,,,551.537,552.036,,,552.286,552.486,right,,,,,,,,0.9,0.183,,,,,,,552.036,552.286,552.486,553.586,0,175,175,181,1,,,,,,,
,,,,,,,66d5353794a257d22919673b,682530b798de94e67efc5d05,2025-05-14_20h11.40.377,cuing_paradigm_dot,2024.1.5,Win32,60.0240096,68242c07d0c0e200c6451fdd,,,,,,,,,,,553.587,554.085,,,554.336,554.452,right,,,,,,,,0.6,0.1,,,,,,,554.085,554.336,554.453,555.543,0,176,176,159,1,,,,,,,
,,,,,,,66d5353794a257d22919673b,682530b798de94e67efc5d05,2025-05-14_20h11.40.377,cuing_paradigm_dot,2024.1.5,Win32,60.0240096,68242c07d0c0e200c6451fdd,,,,,,,,,,,555.544,556.035,,,556.286,556.519,right,,,,,,,,0.55,0.216,,,,,,,556.035,556.286,556.519,557.619,0,177,177,141,1,,,,,,,
,,,,,,,66d5353794a257d22919673b,682530b798de94e67efc5d05,2025-05-14_20h11.40.377,cuing_paradigm_dot,2024.1.5,Win32,60.0240096,68242c07d0c0e200c6451fdd,,,,,,,,,,,557.621,558.118,,,558.368,558.534,right,,,,,,,,0.9,0.15,,,,,,,558.118,558.368,558.535,559.635,0,178,178,201,1,,,,,,,
,,,,,,,66d5353794a257d22919673b,682530b798de94e67efc5d05,2025-05-14_20h11.40.377,cuing_paradigm_dot,2024.1.5,Win32,60.0240096,68242c07d0c0e200c6451fdd,,,,,,,,,,,559.636,560.135,,,560.386,560.685,right,,,,,,,,0.6,0.282,,,,,,,560.135,560.385,560.685,561.785,0,179,179,177,1,,,,,,,
,,,,,,,66d5353794a257d22919673b,682530b798de94e67efc5d05,2025-05-14_20h11.40.377,cuing_paradigm_dot,2024.1.5,Win32,60.0240096,68242c07d0c0e200c6451fdd,,,,,,,,,,,561.786,562.284,,,562.534,562.701,left,,,,,,,,0.1,0.152,,,,,,,562.285,562.534,562.701,563.802,0,180,180,0,1,,,,,,,
,,,,,,,66d5353794a257d22919673b,682530b798de94e67efc5d05,2025-05-14_20h11.40.377,cuing_paradigm_dot,2024.1.5,Win32,60.0240096,68242c07d0c0e200c6451fdd,,,,,,,,,,,563.802,564.301,,,564.552,564.601,left,,,,,,,,0.1,0.036,,,,,,,564.301,564.552,564.601,565.701,0,181,181,28,1,,,,,,,
,,,,,,,66d5353794a257d22919673b,682530b798de94e67efc5d05,2025-05-14_20h11.40.377,cuing_paradigm_dot,2024.1.5,Win32,60.0240096,68242c07d0c0e200c6451fdd,,,,,,,,,,,565.701,566.201,,,566.452,566.568,left,,,,,,,,0.4,0.102,,,,,,,566.201,566.452,566.568,567.657,0,182,182,47,1,,,,,,,
,,,,,,,66d5353794a257d22919673b,682530b798de94e67efc5d05,2025-05-14_20h11.40.377,cuing_paradigm_dot,2024.1.5,Win32,60.0240096,68242c07d0c0e200c6451fdd,,,,,,,,,,,567.658,568.151,,,568.401,568.634,left,,,,,,,,0.1,0.218,,,,,,,568.151,568.401,568.635,569.734,0,183,183,16,1,,,,,,,
,,,,,,,66d5353794a257d22919673b,682530b798de94e67efc5d05,2025-05-14_20h11.40.377,cuing_paradigm_dot,2024.1.5,Win32,60.0240096,68242c07d0c0e200c6451fdd,,,,,,,,,,,569.735,570.234,,,570.485,570.903,right,,,,,,,,0.6,0.402,,,,,,,570.234,570.484,570.903,572,0,184,184,164,1,,,,,,,
,,,,,,,66d5353794a257d22919673b,682530b798de94e67efc5d05,2025-05-14_20h11.40.377,cuing_paradigm_dot,2024.1.5,Win32,60.0240096,68242c07d0c0e200c6451fdd,,,,,,,,,,,572.001,572.501,,,572.751,573.333,right,,,,,,,,0.6,0.566,,,,,,,572.501,572.751,573.333,574.424,0,185,185,165,1,,,,,,,
,,,,,,,66d5353794a257d22919673b,682530b798de94e67efc5d05,2025-05-14_20h11.40.377,cuing_paradigm_dot,2024.1.5,Win32,60.0240096,68242c07d0c0e200c6451fdd,,,,,,,,,,,574.424,574.917,,,575.171,575.334,left,,,,,,,,0.55,0.152,,,,,,,574.917,575.169,575.334,576.434,0,186,186,146,1,,,,,,,
,,,,,,,66d5353794a257d22919673b,682530b798de94e67efc5d05,2025-05-14_20h11.40.377,cuing_paradigm_dot,2024.1.5,Win32,60.0240096,68242c07d0c0e200c6451fdd,,,,,,,,,,,576.443,576.933,,,577.184,577.632,right,,,,,,,,0.6,0.436,,,,,,,576.934,577.184,577.632,578.733,0,187,187,176,1,,,,,,,
,,,,,,,66d5353794a257d22919673b,682530b798de94e67efc5d05,2025-05-14_20h11.40.377,cuing_paradigm_dot,2024.1.5,Win32,60.0240096,68242c07d0c0e200c6451fdd,,,,,,,,,,,578.734,579.233,,,579.483,579.733,right,,,,,,,,0.45,0.235,,,,,,,579.233,579.483,579.733,580.833,0,188,188,77,1,,,,,,,
,,,,,,,66d5353794a257d22919673b,682530b798de94e67efc5d05,2025-05-14_20h11.40.377,cuing_paradigm_dot,2024.1.5,Win32,60.0240096,68242c07d0c0e200c6451fdd,,,,,,,,,,,580.835,581.332,,,581.583,581.75,left,,,,,,,,0.1,0.152,,,,,,,581.333,581.582,581.75,582.85,0,189,189,20,1,,,,,,,
,,,,,,,66d5353794a257d22919673b,682530b798de94e67efc5d05,2025-05-14_20h11.40.377,cuing_paradigm_dot,2024.1.5,Win32,60.0240096,68242c07d0c0e200c6451fdd,,,,,,,,,,,582.851,583.349,,,583.6,583.766,left,,,,,,,,0.45,0.15,,,,,,,583.349,583.6,583.767,584.865,0,190,190,89,1,,,,,,,
,,,,,,,66d5353794a257d22919673b,682530b798de94e67efc5d05,2025-05-14_20h11.40.377,cuing_paradigm_dot,2024.1.5,Win32,60.0240096,68242c07d0c0e200c6451fdd,,,,,,,,,,,584.866,585.365,,,585.617,585.749,left,,,,,,,,0.45,0.119,,,,,,,585.366,585.617,585.749,586.848,0,191,191,61,1,,,,,,,
,,,,,,,66d5353794a257d22919673b,682530b798de94e67efc5d05,2025-05-14_20h11.40.377,cuing_paradigm_dot,2024.1.5,Win32,60.0240096,68242c07d0c0e200c6451fdd,,,,,,,,,,,586.848,587.349,,,587.598,588.014,right,,,,,,,,0.55,0.403,,,,,,,587.349,587.598,588.014,589.115,0,192,192,138,1,,,,,,,
,,,,,,,66d5353794a257d22919673b,682530b798de94e67efc5d05,2025-05-14_20h11.40.377,cuing_paradigm_dot,2024.1.5,Win32,60.0240096,68242c07d0c0e200c6451fdd,,,,,,,,,,,589.116,589.615,,,589.865,590.364,right,,,,,,,,0.4,0.483,,,,,,,589.615,589.865,590.365,591.465,0,193,193,54,1,,,,,,,
,,,,,,,66d5353794a257d22919673b,682530b798de94e67efc5d05,2025-05-14_20h11.40.377,cuing_paradigm_dot,2024.1.5,Win32,60.0240096,68242c07d0c0e200c6451fdd,,,,,,,,,,,591.466,591.965,,,592.215,592.848,right,,,,,,,,0.6,0.616,,,,,,,591.965,592.214,592.848,593.948,0,194,194,158,1,,,,,,,
,,,,,,,66d5353794a257d22919673b,682530b798de94e67efc5d05,2025-05-14_20h11.40.377,cuing_paradigm_dot,2024.1.5,Win32,60.0240096,68242c07d0c0e200c6451fdd,,,,,,,,,,,593.949,594.447,,,594.698,595.381,left,,,,,,,,0.45,0.666,,,,,,,594.448,594.698,595.381,596.481,0,195,195,79,1,,,,,,,
,,,,,,,66d5353794a257d22919673b,682530b798de94e67efc5d05,2025-05-14_20h11.40.377,cuing_paradigm_dot,2024.1.5,Win32,60.0240096,68242c07d0c0e200c6451fdd,,,,,,,,,,,596.481,596.98,,,597.231,597.78,right,,,,,,,,0.45,0.538,,,,,,,596.98,597.231,597.781,598.88,0,196,196,60,1,,,,,,,
,,,,,,,66d5353794a257d22919673b,682530b798de94e67efc5d05,2025-05-14_20h11.40.377,cuing_paradigm_dot,2024.1.5,Win32,60.0240096,68242c07d0c0e200c6451fdd,,,,,,,,,,,598.88,599.38,,,599.63,600.247,right,,,,,,,,0.6,0.6,,,,,,,599.38,599.63,600.247,601.346,0,197,197,178,1,,,,,,,
,,,,,,,66d5353794a257d22919673b,682530b798de94e67efc5d05,2025-05-14_20h11.40.377,cuing_paradigm_dot,2024.1.5,Win32,60.0240096,68242c07d0c0e200c6451fdd,,,,,,,,,,,601.347,601.847,,,602.097,602.263,left,,,,,,,,0.1,0.156,,,,,,,601.847,602.097,602.263,603.364,0,198,198,5,1,,,,,,,
,,,,,,,66d5353794a257d22919673b,682530b798de94e67efc5d05,2025-05-14_20h11.40.377,cuing_paradigm_dot,2024.1.5,Win32,60.0240096,68242c07d0c0e200c6451fdd,,,,,,,,,,,603.364,603.863,,,604.113,604.264,left,,,,,,,,0.1,0.137,,,,,,,603.863,604.113,604.264,605.363,0,199,199,18,1,,,,,,,
,,,,,,,66d5353794a257d22919673b,682530b798de94e67efc5d05,2025-05-14_20h11.40.377,cuing_paradigm_dot,2024.1.5,Win32,60.0240096,68242c07d0c0e200c6451fdd,,,,,,,,,,,605.364,605.862,,,606.117,606.279,left,,,,,,,,0.5,0.154,,,,,,,605.862,606.116,606.279,607.379,0,200,200,107,1,,,,,,,
,,,,,,,66d5353794a257d22919673b,682530b798de94e67efc5d05,2025-05-14_20h11.40.377,cuing_paradigm_dot,2024.1.5,Win32,60.0240096,68242c07d0c0e200c6451fdd,,,,,,,,,,,607.385,607.879,,,608.13,608.413,right,,,,,,,,0.55,0.268,,,,,,,607.88,608.13,608.413,609.512,0,201,201,125,1,,,,,,,
,,,,,,,66d5353794a257d22919673b,682530b798de94e67efc5d05,2025-05-14_20h11.40.377,cuing_paradigm_dot,2024.1.5,Win32,60.0240096,68242c07d0c0e200c6451fdd,,,,,,,,,,,609.513,610.012,,,610.264,610.695,right,,,,,,,,0.4,0.418,,,,,,,610.012,610.263,610.695,611.796,0,202,202,51,1,,,,,,,
,,,,,,,66d5353794a257d22919673b,682530b798de94e67efc5d05,2025-05-14_20h11.40.377,cuing_paradigm_dot,2024.1.5,Win32,60.0240096,68242c07d0c0e200c6451fdd,,,,,,,,,,,611.798,612.295,,,612.546,613.045,right,,,,,,,,0.9,0.487,,,,,,,612.296,612.546,613.045,614.145,0,203,203,188,1,,,,,,,
,,,,,,,66d5353794a257d22919673b,682530b798de94e67efc5d05,2025-05-14_20h11.40.377,cuing_paradigm_dot,2024.1.5,Win32,60.0240096,68242c07d0c0e200c6451fdd,,,,,,,,,,,614.146,614.646,,,614.896,615.613,right,,,,,,,,0.45,0.702,,,,,,,614.646,614.896,615.613,616.712,0,204,204,67,1,,,,,,,
,,,,,,,66d5353794a257d22919673b,682530b798de94e67efc5d05,2025-05-14_20h11.40.377,cuing_paradigm_dot,2024.1.5,Win32,60.0240096,68242c07d0c0e200c6451fdd,,,,,,,,,,,616.712,617.212,,,617.467,617.812,right,,,,,,,,0.9,0.334,,,,,,,617.212,617.467,617.812,618.911,0,205,205,196,1,,,,,,,
,,,,,,,66d5353794a257d22919673b,682530b798de94e67efc5d05,2025-05-14_20h11.40.377,cuing_paradigm_dot,2024.1.5,Win32,60.0240096,68242c07d0c0e200c6451fdd,,,,,,,,,,,618.913,619.411,,,619.663,619.944,right,,,,,,,,0.6,0.266,,,,,,,619.411,619.662,619.944,621.044,0,206,206,155,1,,,,,,,
,,,,,,,66d5353794a257d22919673b,682530b798de94e67efc5d05,2025-05-14_20h11.40.377,cuing_paradigm_dot,2024.1.5,Win32,60.0240096,68242c07d0c0e200c6451fdd,,,,,,,,,,,621.044,621.543,,,621.794,622.328,right,,,,,,,,0.4,0.517,,,,,,,621.544,621.794,622.328,623.427,0,207,207,49,1,,,,,,,
,,,,,,,66d5353794a257d22919673b,682530b798de94e67efc5d05,2025-05-14_20h11.40.377,cuing_paradigm_dot,2024.1.5,Win32,60.0240096,68242c07d0c0e200c6451fdd,,,,,,,,,,,623.428,623.927,,,624.177,624.561,right,,,,,,,,0.55,0.367,,,,,,,623.927,624.177,624.561,625.66,0,208,208,123,1,,,,,,,
,,,,,,,66d5353794a257d22919673b,682530b798de94e67efc5d05,2025-05-14_20h11.40.377,cuing_paradigm_dot,2024.1.5,Win32,60.0240096,68242c07d0c0e200c6451fdd,,,,,,,,,,,625.661,626.16,,,626.41,626.776,right,,,,,,,,0.45,0.35,,,,,,,626.16,626.41,626.776,627.877,0,209,209,72,1,,,,,,,
,,,,,,,66d5353794a257d22919673b,682530b798de94e67efc5d05,2025-05-14_20h11.40.377,cuing_paradigm_dot,2024.1.5,Win32,60.0240096,68242c07d0c0e200c6451fdd,,,,,,,,,,,,,,,,,,,,,,,,,,,,,,,,,,,,,,,,,,627.877,687.87,,,,,
,,,,,,,66d5353794a257d22919673b,682530b798de94e67efc5d05,2025-05-14_20h11.40.377,cuing_paradigm_dot,2024.1.5,Win32,60.0240096,68242c07d0c0e200c6451fdd,,,,,,,,,,,687.898,688.386,,,688.639,688.954,left,,,,,,,,0.55,0.305,,,,,,,688.386,688.638,688.954,690.052,,,,,,,,0,0,0,142,1
,,,,,,,66d5353794a257d22919673b,682530b798de94e67efc5d05,2025-05-14_20h11.40.377,cuing_paradigm_dot,2024.1.5,Win32,60.0240096,68242c07d0c0e200c6451fdd,,,,,,,,,,,690.054,690.553,,,690.803,691.069,left,,,,,,,,0.1,0.25,,,,,,,690.553,690.802,691.069,692.169,,,,,,,,0,1,1,9,1
,,,,,,,66d5353794a257d22919673b,682530b798de94e67efc5d05,2025-05-14_20h11.40.377,cuing_paradigm_dot,2024.1.5,Win32,60.0240096,68242c07d0c0e200c6451fdd,,,,,,,,,,,692.17,692.669,,,692.919,693.102,right,,,,,,,,0.9,0.165,,,,,,,692.669,692.919,693.102,694.203,,,,,,,,0,2,2,194,1
,,,,,,,66d5353794a257d22919673b,682530b798de94e67efc5d05,2025-05-14_20h11.40.377,cuing_paradigm_dot,2024.1.5,Win32,60.0240096,68242c07d0c0e200c6451fdd,,,,,,,,,,,694.203,694.702,,,694.952,695.469,right,,,,,,,,0.4,0.502,,,,,,,694.703,694.952,695.469,696.568,,,,,,,,0,3,3,32,1
,,,,,,,66d5353794a257d22919673b,682530b798de94e67efc5d05,2025-05-14_20h11.40.377,cuing_paradigm_dot,2024.1.5,Win32,60.0240096,68242c07d0c0e200c6451fdd,,,,,,,,,,,696.569,697.068,,,697.32,697.635,right,,,,,,,,0.45,0.299,,,,,,,697.068,697.32,697.635,698.735,,,,,,,,0,4,4,60,1
,,,,,,,66d5353794a257d22919673b,682530b798de94e67efc5d05,2025-05-14_20h11.40.377,cuing_paradigm_dot,2024.1.5,Win32,60.0240096,68242c07d0c0e200c6451fdd,,,,,,,,,,,698.735,699.234,,,699.485,699.901,right,,,,,,,,0.55,0.401,,,,,,,699.234,699.485,699.901,701.002,,,,,,,,0,5,5,139,1
,,,,,,,66d5353794a257d22919673b,682530b798de94e67efc5d05,2025-05-14_20h11.40.377,cuing_paradigm_dot,2024.1.5,Win32,60.0240096,68242c07d0c0e200c6451fdd,,,,,,,,,,,701.002,701.501,,,701.755,702.017,right,,,,,,,,0.55,0.252,,,,,,,701.502,701.753,702.018,703.118,,,,,,,,0,6,6,145,1
,,,,,,,66d5353794a257d22919673b,682530b798de94e67efc5d05,2025-05-14_20h11.40.377,cuing_paradigm_dot,2024.1.5,Win32,60.0240096,68242c07d0c0e200c6451fdd,,,,,,,,,,,703.122,703.617,,,703.867,704.083,right,,,,,,,,0.9,0.198,,,,,,,703.617,703.867,704.083,705.184,,,,,,,,0,7,7,181,1
,,,,,,,66d5353794a257d22919673b,682530b798de94e67efc5d05,2025-05-14_20h11.40.377,cuing_paradigm_dot,2024.1.5,Win32,60.0240096,68242c07d0c0e200c6451fdd,,,,,,,,,,,705.185,705.684,,,705.934,706.067,right,,,,,,,,0.9,0.115,,,,,,,705.684,705.934,706.067,707.167,,,,,,,,0,8,8,191,1
,,,,,,,66d5353794a257d22919673b,682530b798de94e67efc5d05,2025-05-14_20h11.40.377,cuing_paradigm_dot,2024.1.5,Win32,60.0240096,68242c07d0c0e200c6451fdd,,,,,,,,,,,707.167,707.667,,,707.917,708.367,right,,,,,,,,0.5,0.435,,,,,,,707.667,707.917,708.367,709.466,,,,,,,,0,9,9,107,1
,,,,,,,66d5353794a257d22919673b,682530b798de94e67efc5d05,2025-05-14_20h11.40.377,cuing_paradigm_dot,2024.1.5,Win32,60.0240096,68242c07d0c0e200c6451fdd,,,,,,,,,,,709.468,709.967,,,710.217,710.367,right,,,,,,,,0.9,0.139,,,,,,,709.967,710.217,710.368,711.466,,,,,,,,0,10,10,182,1
,,,,,,,66d5353794a257d22919673b,682530b798de94e67efc5d05,2025-05-14_20h11.40.377,cuing_paradigm_dot,2024.1.5,Win32,60.0240096,68242c07d0c0e200c6451fdd,,,,,,,,,,,711.467,711.967,,,712.217,712.384,left,,,,,,,,0.1,0.149,,,,,,,711.967,712.217,712.384,713.483,,,,,,,,0,11,11,18,1
,,,,,,,66d5353794a257d22919673b,682530b798de94e67efc5d05,2025-05-14_20h11.40.377,cuing_paradigm_dot,2024.1.5,Win32,60.0240096,68242c07d0c0e200c6451fdd,,,,,,,,,,,713.483,713.982,,,714.233,714.499,left,,,,,,,,0.45,0.253,,,,,,,713.982,714.233,714.5,715.599,,,,,,,,0,12,12,73,1
,,,,,,,66d5353794a257d22919673b,682530b798de94e67efc5d05,2025-05-14_20h11.40.377,cuing_paradigm_dot,2024.1.5,Win32,60.0240096,68242c07d0c0e200c6451fdd,,,,,,,,,,,715.599,716.099,,,716.35,716.482,right,,,,,,,,0.45,0.117,,,,,,,716.099,716.35,716.483,717.582,,,,,,,,0,13,13,86,1
,,,,,,,66d5353794a257d22919673b,682530b798de94e67efc5d05,2025-05-14_20h11.40.377,cuing_paradigm_dot,2024.1.5,Win32,60.0240096,68242c07d0c0e200c6451fdd,,,,,,,,,,,717.583,718.082,,,718.334,718.466,left,,,,,,,,0.1,0.116,,,,,,,718.082,718.334,718.466,719.566,,,,,,,,0,14,14,2,1
,,,,,,,66d5353794a257d22919673b,682530b798de94e67efc5d05,2025-05-14_20h11.40.377,cuing_paradigm_dot,2024.1.5,Win32,60.0240096,68242c07d0c0e200c6451fdd,,,,,,,,,,,719.566,720.065,,,720.316,720.415,left,,,,,,,,0.1,0.084,,,,,,,720.065,720.316,720.415,721.516,,,,,,,,0,15,15,24,1
,,,,,,,66d5353794a257d22919673b,682530b798de94e67efc5d05,2025-05-14_20h11.40.377,cuing_paradigm_dot,2024.1.5,Win32,60.0240096,68242c07d0c0e200c6451fdd,,,,,,,,,,,721.517,722.015,,,722.266,722.383,left,,,,,,,,0.55,0.104,,,,,,,722.015,722.266,722.383,723.482,,,,,,,,0,16,16,125,1
,,,,,,,66d5353794a257d22919673b,682530b798de94e67efc5d05,2025-05-14_20h11.40.377,cuing_paradigm_dot,2024.1.5,Win32,60.0240096,68242c07d0c0e200c6451fdd,,,,,,,,,,,723.483,723.982,,,724.233,724.431,right,,,,,,,,0.55,0.182,,,,,,,723.982,724.233,724.431,725.532,,,,,,,,0,17,17,148,1
,,,,,,,66d5353794a257d22919673b,682530b798de94e67efc5d05,2025-05-14_20h11.40.377,cuing_paradigm_dot,2024.1.5,Win32,60.0240096,68242c07d0c0e200c6451fdd,,,,,,,,,,,725.533,726.031,,,726.282,726.565,right,,,,,,,,0.6,0.271,,,,,,,726.031,726.282,726.565,727.665,,,,,,,,0,18,18,168,1
,,,,,,,66d5353794a257d22919673b,682530b798de94e67efc5d05,2025-05-14_20h11.40.377,cuing_paradigm_dot,2024.1.5,Win32,60.0240096,68242c07d0c0e200c6451fdd,,,,,,,,,,,727.665,728.164,,,728.422,728.647,right,,,,,,,,0.5,0.214,,,,,,,728.164,728.422,728.647,729.747,,,,,,,,0,19,19,110,1
,,,,,,,66d5353794a257d22919673b,682530b798de94e67efc5d05,2025-05-14_20h11.40.377,cuing_paradigm_dot,2024.1.5,Win32,60.0240096,68242c07d0c0e200c6451fdd,,,,,,,,,,,729.748,730.247,,,730.498,730.947,right,,,,,,,,0.5,0.434,,,,,,,730.247,730.498,730.947,732.046,,,,,,,,0,20,20,114,1
,,,,,,,66d5353794a257d22919673b,682530b798de94e67efc5d05,2025-05-14_20h11.40.377,cuing_paradigm_dot,2024.1.5,Win32,60.0240096,68242c07d0c0e200c6451fdd,,,,,,,,,,,732.047,732.547,,,732.798,733.014,right,,,,,,,,0.6,0.204,,,,,,,732.547,732.798,733.015,734.114,,,,,,,,0,21,21,179,1
,,,,,,,66d5353794a257d22919673b,682530b798de94e67efc5d05,2025-05-14_20h11.40.377,cuing_paradigm_dot,2024.1.5,Win32,60.0240096,68242c07d0c0e200c6451fdd,,,,,,,,,,,734.114,734.614,,,734.87,735.13,right,,,,,,,,0.5,0.246,,,,,,,734.614,734.869,735.13,736.231,,,,,,,,0,22,22,92,1
,,,,,,,66d5353794a257d22919673b,682530b798de94e67efc5d05,2025-05-14_20h11.40.377,cuing_paradigm_dot,2024.1.5,Win32,60.0240096,68242c07d0c0e200c6451fdd,,,,,,,,,,,736.238,736.73,,,736.981,737.164,right,,,,,,,,0.45,0.171,,,,,,,736.731,736.98,737.164,738.264,,,,,,,,0,23,23,74,1
,,,,,,,66d5353794a257d22919673b,682530b798de94e67efc5d05,2025-05-14_20h11.40.377,cuing_paradigm_dot,2024.1.5,Win32,60.0240096,68242c07d0c0e200c6451fdd,,,,,,,,,,,738.264,738.763,,,739.014,739.196,right,,,,,,,,0.5,0.17,,,,,,,738.763,739.014,739.196,740.297,,,,,,,,0,24,24,100,1
,,,,,,,66d5353794a257d22919673b,682530b798de94e67efc5d05,2025-05-14_20h11.40.377,cuing_paradigm_dot,2024.1.5,Win32,60.0240096,68242c07d0c0e200c6451fdd,,,,,,,,,,,740.299,740.796,,,741.046,741.313,right,,,,,,,,0.9,0.254,,,,,,,740.796,741.046,741.313,742.412,,,,,,,,0,25,25,199,1
,,,,,,,66d5353794a257d22919673b,682530b798de94e67efc5d05,2025-05-14_20h11.40.377,cuing_paradigm_dot,2024.1.5,Win32,60.0240096,68242c07d0c0e200c6451fdd,,,,,,,,,,,742.414,742.913,,,743.163,743.312,right,,,,,,,,0.6,0.135,,,,,,,742.913,743.163,743.313,744.412,,,,,,,,0,26,26,158,1
,,,,,,,66d5353794a257d22919673b,682530b798de94e67efc5d05,2025-05-14_20h11.40.377,cuing_paradigm_dot,2024.1.5,Win32,60.0240096,68242c07d0c0e200c6451fdd,,,,,,,,,,,744.413,744.913,,,745.163,745.595,left,,,,,,,,0.1,0.418,,,,,,,744.913,745.163,745.595,746.696,,,,,,,,0,27,27,14,1
,,,,,,,66d5353794a257d22919673b,682530b798de94e67efc5d05,2025-05-14_20h11.40.377,cuing_paradigm_dot,2024.1.5,Win32,60.0240096,68242c07d0c0e200c6451fdd,,,,,,,,,,,746.697,747.196,,,747.447,747.578,left,,,,,,,,0.1,0.115,,,,,,,747.196,747.446,747.578,748.679,,,,,,,,0,28,28,21,1
,,,,,,,66d5353794a257d22919673b,682530b798de94e67efc5d05,2025-05-14_20h11.40.377,cuing_paradigm_dot,2024.1.5,Win32,60.0240096,68242c07d0c0e200c6451fdd,,,,,,,,,,,748.681,749.178,,,749.429,749.912,left,,,,,,,,0.4,0.468,,,,,,,749.178,749.429,749.912,751.011,,,,,,,,0,29,29,36,1
,,,,,,,66d5353794a257d22919673b,682530b798de94e67efc5d05,2025-05-14_20h11.40.377,cuing_paradigm_dot,2024.1.5,Win32,60.0240096,68242c07d0c0e200c6451fdd,,,,,,,,,,,751.012,751.511,,,751.761,752.061,right,,,,,,,,0.5,0.282,,,,,,,751.512,751.761,752.061,753.162,,,,,,,,0,30,30,113,1
,,,,,,,66d5353794a257d22919673b,682530b798de94e67efc5d05,2025-05-14_20h11.40.377,cuing_paradigm_dot,2024.1.5,Win32,60.0240096,68242c07d0c0e200c6451fdd,,,,,,,,,,,753.162,753.661,,,753.912,754.161,right,,,,,,,,0.6,0.236,,,,,,,753.661,753.912,754.161,755.261,,,,,,,,0,31,31,170,1
,,,,,,,66d5353794a257d22919673b,682530b798de94e67efc5d05,2025-05-14_20h11.40.377,cuing_paradigm_dot,2024.1.5,Win32,60.0240096,68242c07d0c0e200c6451fdd,,,,,,,,,,,755.261,755.76,,,756.011,756.186,right,,,,,,,,0.9,0.152,,,,,,,755.76,756.011,756.186,757.277,,,,,,,,0,32,32,201,1
,,,,,,,66d5353794a257d22919673b,682530b798de94e67efc5d05,2025-05-14_20h11.40.377,cuing_paradigm_dot,2024.1.5,Win32,60.0240096,68242c07d0c0e200c6451fdd,,,,,,,,,,,757.278,757.777,,,758.027,758.31,right,,,,,,,,0.45,0.27,,,,,,,757.777,758.027,758.31,759.411,,,,,,,,0,33,33,62,1
,,,,,,,66d5353794a257d22919673b,682530b798de94e67efc5d05,2025-05-14_20h11.40.377,cuing_paradigm_dot,2024.1.5,Win32,60.0240096,68242c07d0c0e200c6451fdd,,,,,,,,,,,759.412,759.911,,,760.161,760.411,right,,,,,,,,0.6,0.233,,,,,,,759.911,760.16,760.411,761.51,,,,,,,,0,34,34,154,1
,,,,,,,66d5353794a257d22919673b,682530b798de94e67efc5d05,2025-05-14_20h11.40.377,cuing_paradigm_dot,2024.1.5,Win32,60.0240096,68242c07d0c0e200c6451fdd,,,,,,,,,,,761.511,762.01,,,762.261,762.601,right,,,,,,,,0.6,0.329,,,,,,,762.01,762.261,762.601,763.693,,,,,,,,0,35,35,161,1
,,,,,,,66d5353794a257d22919673b,682530b798de94e67efc5d05,2025-05-14_20h11.40.377,cuing_paradigm_dot,2024.1.5,Win32,60.0240096,68242c07d0c0e200c6451fdd,,,,,,,,,,,763.694,764.193,,,764.444,764.76,left,,,,,,,,0.4,0.3,,,,,,,764.193,764.443,764.76,765.86,,,,,,,,0,36,36,43,1
,,,,,,,66d5353794a257d22919673b,682530b798de94e67efc5d05,2025-05-14_20h11.40.377,cuing_paradigm_dot,2024.1.5,Win32,60.0240096,68242c07d0c0e200c6451fdd,,,,,,,,,,,765.86,766.36,,,766.609,766.843,right,,,,,,,,0.5,0.217,,,,,,,766.36,766.609,766.843,767.942,,,,,,,,0,37,37,93,1
,,,,,,,66d5353794a257d22919673b,682530b798de94e67efc5d05,2025-05-14_20h11.40.377,cuing_paradigm_dot,2024.1.5,Win32,60.0240096,68242c07d0c0e200c6451fdd,,,,,,,,,,,767.942,768.443,,,768.693,768.86,right,,,,,,,,0.55,0.151,,,,,,,768.443,768.693,768.861,769.96,,,,,,,,0,38,38,127,1
,,,,,,,66d5353794a257d22919673b,682530b798de94e67efc5d05,2025-05-14_20h11.40.377,cuing_paradigm_dot,2024.1.5,Win32,60.0240096,68242c07d0c0e200c6451fdd,,,,,,,,,,,769.967,770.46,,,770.712,771.01,left,,,,,,,,0.45,0.285,,,,,,,770.46,770.712,771.01,772.109,,,,,,,,0,39,39,85,1
,,,,,,,66d5353794a257d22919673b,682530b798de94e67efc5d05,2025-05-14_20h11.40.377,cuing_paradigm_dot,2024.1.5,Win32,60.0240096,68242c07d0c0e200c6451fdd,,,,,,,,,,,772.109,772.609,,,772.86,773.025,right,,,,,,,,0.1,0.151,,,,,,,772.609,772.86,773.025,774.126,,,,,,,,0,40,40,13,1
,,,,,,,66d5353794a257d22919673b,682530b798de94e67efc5d05,2025-05-14_20h11.40.377,cuing_paradigm_dot,2024.1.5,Win32,60.0240096,68242c07d0c0e200c6451fdd,,,,,,,,,,,774.127,774.625,,,774.875,775.075,left,,,,,,,,0.4,0.186,,,,,,,774.626,774.875,775.075,776.175,,,,,,,,0,41,41,37,1
,,,,,,,66d5353794a257d22919673b,682530b798de94e67efc5d05,2025-05-14_20h11.40.377,cuing_paradigm_dot,2024.1.5,Win32,60.0240096,68242c07d0c0e200c6451fdd,,,,,,,,,,,776.176,776.675,,,776.925,777.575,right,,,,,,,,0.55,0.634,,,,,,,776.675,776.925,777.575,778.675,,,,,,,,0,42,42,124,1
,,,,,,,66d5353794a257d22919673b,682530b798de94e67efc5d05,2025-05-14_20h11.40.377,cuing_paradigm_dot,2024.1.5,Win32,60.0240096,68242c07d0c0e200c6451fdd,,,,,,,,,,,778.677,779.175,,,779.426,779.708,left,,,,,,,,0.45,0.268,,,,,,,779.175,779.426,779.708,780.807,,,,,,,,0,43,43,79,1
,,,,,,,66d5353794a257d22919673b,682530b798de94e67efc5d05,2025-05-14_20h11.40.377,cuing_paradigm_dot,2024.1.5,Win32,60.0240096,68242c07d0c0e200c6451fdd,,,,,,,,,,,780.808,781.308,,,781.558,782.091,right,,,,,,,,0.4,0.516,,,,,,,781.308,781.558,782.091,783.191,,,,,,,,0,44,44,48,1
,,,,,,,66d5353794a257d22919673b,682530b798de94e67efc5d05,2025-05-14_20h11.40.377,cuing_paradigm_dot,2024.1.5,Win32,60.0240096,68242c07d0c0e200c6451fdd,,,,,,,,,,,783.192,783.691,,,783.941,784.174,right,,,,,,,,0.6,0.218,,,,,,,783.691,783.941,784.174,785.274,,,,,,,,0,45,45,160,1
,,,,,,,66d5353794a257d22919673b,682530b798de94e67efc5d05,2025-05-14_20h11.40.377,cuing_paradigm_dot,2024.1.5,Win32,60.0240096,68242c07d0c0e200c6451fdd,,,,,,,,,,,785.275,785.774,,,786.024,786.257,left,,,,,,,,0.1,0.218,,,,,,,785.774,786.024,786.257,787.356,,,,,,,,0,46,46,16,1
,,,,,,,66d5353794a257d22919673b,682530b798de94e67efc5d05,2025-05-14_20h11.40.377,cuing_paradigm_dot,2024.1.5,Win32,60.0240096,68242c07d0c0e200c6451fdd,,,,,,,,,,,787.357,787.856,,,788.107,788.623,left,,,,,,,,0.4,0.502,,,,,,,787.857,788.107,788.623,789.723,,,,,,,,0,47,47,50,1
,,,,,,,66d5353794a257d22919673b,682530b798de94e67efc5d05,2025-05-14_20h11.40.377,cuing_paradigm_dot,2024.1.5,Win32,60.0240096,68242c07d0c0e200c6451fdd,,,,,,,,,,,789.724,790.224,,,790.473,790.723,left,,,,,,,,0.45,0.235,,,,,,,790.224,790.473,790.723,791.823,,,,,,,,0,48,48,69,1
,,,,,,,66d5353794a257d22919673b,682530b798de94e67efc5d05,2025-05-14_20h11.40.377,cuing_paradigm_dot,2024.1.5,Win32,60.0240096,68242c07d0c0e200c6451fdd,,,,,,,,,,,791.823,792.324,,,792.573,792.856,left,,,,,,,,0.4,0.271,,,,,,,792.324,792.573,792.857,793.956,,,,,,,,0,49,49,40,1
,,,,,,,66d5353794a257d22919673b,682530b798de94e67efc5d05,2025-05-14_20h11.40.377,cuing_paradigm_dot,2024.1.5,Win32,60.0240096,68242c07d0c0e200c6451fdd,,,,,,,,,,,793.956,794.456,,,794.706,794.789,right,,,,,,,,0.9,0.069,,,,,,,794.456,794.706,794.789,795.889,,,,,,,,0,50,50,187,1
,,,,,,,66d5353794a257d22919673b,682530b798de94e67efc5d05,2025-05-14_20h11.40.377,cuing_paradigm_dot,2024.1.5,Win32,60.0240096,68242c07d0c0e200c6451fdd,,,,,,,,,,,795.889,796.389,,,796.64,796.889,right,,,,,,,,0.6,0.234,,,,,,,796.389,796.64,796.889,797.989,,,,,,,,0,51,51,164,1
,,,,,,,66d5353794a257d22919673b,682530b798de94e67efc5d05,2025-05-14_20h11.40.377,cuing_paradigm_dot,2024.1.5,Win32,60.0240096,68242c07d0c0e200c6451fdd,,,,,,,,,,,797.99,798.489,,,798.739,798.856,left,,,,,,,,0.55,0.101,,,,,,,798.489,798.739,798.856,799.955,,,,,,,,0,52,52,133,1
,,,,,,,66d5353794a257d22919673b,682530b798de94e67efc5d05,2025-05-14_20h11.40.377,cuing_paradigm_dot,2024.1.5,Win32,60.0240096,68242c07d0c0e200c6451fdd,,,,,,,,,,,799.957,800.455,,,800.705,800.888,right,,,,,,,,0.5,0.167,,,,,,,800.455,800.705,800.888,801.988,,,,,,,,0,53,53,97,1
,,,,,,,66d5353794a257d22919673b,682530b798de94e67efc5d05,2025-05-14_20h11.40.377,cuing_paradigm_dot,2024.1.5,Win32,60.0240096,68242c07d0c0e200c6451fdd,,,,,,,,,,,801.995,802.488,,,802.739,802.839,right,,,,,,,,0.9,0.085,,,,,,,802.489,802.739,802.839,803.938,,,,,,,,0,54,54,209,1
,,,,,,,66d5353794a257d22919673b,682530b798de94e67efc5d05,2025-05-14_20h11.40.377,cuing_paradigm_dot,2024.1.5,Win32,60.0240096,68242c07d0c0e200c6451fdd,,,,,,,,,,,803.939,804.438,,,804.689,804.805,right,,,,,,,,0.45,0.103,,,,,,,804.438,804.689,804.805,805.905,,,,,,,,0,55,55,77,1
,,,,,,,66d5353794a257d22919673b,682530b798de94e67efc5d05,2025-05-14_20h11.40.377,cuing_paradigm_dot,2024.1.5,Win32,60.0240096,68242c07d0c0e200c6451fdd,,,,,,,,,,,805.906,806.405,,,806.655,806.723,right,,,,,,,,0.55,0.055,,,,,,,806.405,806.655,806.723,807.822,,,,,,,,0,56,56,121,1
,,,,,,,66d5353794a257d22919673b,682530b798de94e67efc5d05,2025-05-14_20h11.40.377,cuing_paradigm_dot,2024.1.5,Win32,60.0240096,68242c07d0c0e200c6451fdd,,,,,,,,,,,807.824,808.32,,,808.572,808.62,right,,,,,,,,0.9,0.032,,,,,,,808.321,808.571,808.621,809.721,,,,,,,,0,57,57,208,1
,,,,,,,66d5353794a257d22919673b,682530b798de94e67efc5d05,2025-05-14_20h11.40.377,cuing_paradigm_dot,2024.1.5,Win32,60.0240096,68242c07d0c0e200c6451fdd,,,,,,,,,,,809.722,810.221,,,810.471,810.554,right,,,,,,,,0.5,0.068,,,,,,,810.221,810.471,810.554,811.654,,,,,,,,0,58,58,101,1
,,,,,,,66d5353794a257d22919673b,682530b798de94e67efc5d05,2025-05-14_20h11.40.377,cuing_paradigm_dot,2024.1.5,Win32,60.0240096,68242c07d0c0e200c6451fdd,,,,,,,,,,,811.655,812.154,,,812.376,812.603,right,,,,,,,,0.9,0.213,,,,,,,812.155,812.376,812.603,813.704,,,,,,,,0,59,59,197,1
,,,,,,,66d5353794a257d22919673b,682530b798de94e67efc5d05,2025-05-14_20h11.40.377,cuing_paradigm_dot,2024.1.5,Win32,60.0240096,68242c07d0c0e200c6451fdd,,,,,,,,,,,813.704,814.204,,,814.454,814.579,right,,,,,,,,0.45,0.101,,,,,,,814.204,814.454,814.579,815.67,,,,,,,,0,60,60,88,1
,,,,,,,66d5353794a257d22919673b,682530b798de94e67efc5d05,2025-05-14_20h11.40.377,cuing_paradigm_dot,2024.1.5,Win32,60.0240096,68242c07d0c0e200c6451fdd,,,,,,,,,,,815.673,816.17,,,816.42,816.703,right,,,,,,,,0.4,0.27,,,,,,,816.17,816.42,816.703,817.803,,,,,,,,0,61,61,30,1
,,,,,,,66d5353794a257d22919673b,682530b798de94e67efc5d05,2025-05-14_20h11.40.377,cuing_paradigm_dot,2024.1.5,Win32,60.0240096,68242c07d0c0e200c6451fdd,,,,,,,,,,,817.804,818.303,,,818.553,818.803,right,,,,,,,,0.6,0.233,,,,,,,818.303,818.553,818.803,819.903,,,,,,,,0,62,62,178,1
,,,,,,,66d5353794a257d22919673b,682530b798de94e67efc5d05,2025-05-14_20h11.40.377,cuing_paradigm_dot,2024.1.5,Win32,60.0240096,68242c07d0c0e200c6451fdd,,,,,,,,,,,819.905,820.403,,,820.653,820.904,right,,,,,,,,0.6,0.234,,,,,,,820.403,820.653,820.904,822.002,,,,,,,,0,63,63,155,1
,,,,,,,66d5353794a257d22919673b,682530b798de94e67efc5d05,2025-05-14_20h11.40.377,cuing_paradigm_dot,2024.1.5,Win32,60.0240096,68242c07d0c0e200c6451fdd,,,,,,,,,,,822.003,822.502,,,822.753,822.92,right,,,,,,,,0.55,0.15,,,,,,,822.502,822.753,822.92,824.019,,,,,,,,0,64,64,144,1
,,,,,,,66d5353794a257d22919673b,682530b798de94e67efc5d05,2025-05-14_20h11.40.377,cuing_paradigm_dot,2024.1.5,Win32,60.0240096,68242c07d0c0e200c6451fdd,,,,,,,,,,,824.02,824.519,,,824.769,824.819,right,,,,,,,,0.55,0.035,,,,,,,824.519,824.769,824.819,825.919,,,,,,,,0,65,65,149,1
,,,,,,,66d5353794a257d22919673b,682530b798de94e67efc5d05,2025-05-14_20h11.40.377,cuing_paradigm_dot,2024.1.5,Win32,60.0240096,68242c07d0c0e200c6451fdd,,,,,,,,,,,825.919,826.419,,,826.67,826.835,left,,,,,,,,0.1,0.147,,,,,,,826.419,826.67,826.835,827.935,,,,,,,,0,66,66,25,1
,,,,,,,66d5353794a257d22919673b,682530b798de94e67efc5d05,2025-05-14_20h11.40.377,cuing_paradigm_dot,2024.1.5,Win32,60.0240096,68242c07d0c0e200c6451fdd,,,,,,,,,,,827.936,828.435,,,828.685,828.868,left,,,,,,,,0.6,0.168,,,,,,,828.435,828.685,828.868,829.968,,,,,,,,0,67,67,174,1
,,,,,,,66d5353794a257d22919673b,682530b798de94e67efc5d05,2025-05-14_20h11.40.377,cuing_paradigm_dot,2024.1.5,Win32,60.0240096,68242c07d0c0e200c6451fdd,,,,,,,,,,,829.969,830.468,,,830.719,830.918,right,,,,,,,,0.9,0.185,,,,,,,830.468,830.719,830.919,832.018,,,,,,,,0,68,68,203,1
,,,,,,,66d5353794a257d22919673b,682530b798de94e67efc5d05,2025-05-14_20h11.40.377,cuing_paradigm_dot,2024.1.5,Win32,60.0240096,68242c07d0c0e200c6451fdd,,,,,,,,,,,832.019,832.519,,,832.769,833.018,left,,,,,,,,0.1,0.233,,,,,,,832.519,832.768,833.018,834.101,,,,,,,,0,69,69,19,1
,,,,,,,66d5353794a257d22919673b,682530b798de94e67efc5d05,2025-05-14_20h11.40.377,cuing_paradigm_dot,2024.1.5,Win32,60.0240096,68242c07d0c0e200c6451fdd,,,,,,,,,,,834.102,834.601,,,834.852,835.085,right,,,,,,,,0.4,0.214,,,,,,,834.601,834.852,835.085,836.174,,,,,,,,0,70,70,57,1
,,,,,,,66d5353794a257d22919673b,682530b798de94e67efc5d05,2025-05-14_20h11.40.377,cuing_paradigm_dot,2024.1.5,Win32,60.0240096,68242c07d0c0e200c6451fdd,,,,,,,,,,,836.176,836.667,,,836.92,837.001,left,,,,,,,,0.4,0.065,,,,,,,836.668,836.92,837.002,838.102,,,,,,,,0,71,71,54,1
,,,,,,,66d5353794a257d22919673b,682530b798de94e67efc5d05,2025-05-14_20h11.40.377,cuing_paradigm_dot,2024.1.5,Win32,60.0240096,68242c07d0c0e200c6451fdd,,,,,,,,,,,838.103,838.601,,,838.851,839.017,right,,,,,,,,0.4,0.153,,,,,,,838.601,838.851,839.017,840.118,,,,,,,,0,72,72,52,1
,,,,,,,66d5353794a257d22919673b,682530b798de94e67efc5d05,2025-05-14_20h11.40.377,cuing_paradigm_dot,2024.1.5,Win32,60.0240096,68242c07d0c0e200c6451fdd,,,,,,,,,,,840.119,840.617,,,840.867,841.017,left,,,,,,,,0.5,0.135,,,,,,,840.617,840.867,841.017,842.117,,,,,,,,0,73,73,111,1
,,,,,,,66d5353794a257d22919673b,682530b798de94e67efc5d05,2025-05-14_20h11.40.377,cuing_paradigm_dot,2024.1.5,Win32,60.0240096,68242c07d0c0e200c6451fdd,,,,,,,,,,,842.118,842.616,,,842.868,843.217,right,,,,,,,,0.5,0.334,,,,,,,842.617,842.868,843.217,844.316,,,,,,,,0,74,74,106,1
,,,,,,,66d5353794a257d22919673b,682530b798de94e67efc5d05,2025-05-14_20h11.40.377,cuing_paradigm_dot,2024.1.5,Win32,60.0240096,68242c07d0c0e200c6451fdd,,,,,,,,,,,844.317,844.817,,,845.071,845.267,right,,,,,,,,0.45,0.19,,,,,,,844.817,845.071,845.267,846.366,,,,,,,,0,75,75,68,1
,,,,,,,66d5353794a257d22919673b,682530b798de94e67efc5d05,2025-05-14_20h11.40.377,cuing_paradigm_dot,2024.1.5,Win32,60.0240096,68242c07d0c0e200c6451fdd,,,,,,,,,,,846.367,846.866,,,847.116,847.499,left,,,,,,,,0.5,0.368,,,,,,,846.866,847.116,847.499,848.599,,,,,,,,0,76,76,95,1
,,,,,,,66d5353794a257d22919673b,682530b798de94e67efc5d05,2025-05-14_20h11.40.377,cuing_paradigm_dot,2024.1.5,Win32,60.0240096,68242c07d0c0e200c6451fdd,,,,,,,,,,,848.6,849.099,,,849.349,849.933,right,,,,,,,,0.4,0.568,,,,,,,849.099,849.349,849.933,851.033,,,,,,,,0,77,77,33,1
,,,,,,,66d5353794a257d22919673b,682530b798de94e67efc5d05,2025-05-14_20h11.40.377,cuing_paradigm_dot,2024.1.5,Win32,60.0240096,68242c07d0c0e200c6451fdd,,,,,,,,,,,851.034,851.532,,,851.784,852,left,,,,,,,,0.45,0.201,,,,,,,851.533,851.784,852,853.1,,,,,,,,0,78,78,63,1
,,,,,,,66d5353794a257d22919673b,682530b798de94e67efc5d05,2025-05-14_20h11.40.377,cuing_paradigm_dot,2024.1.5,Win32,60.0240096,68242c07d0c0e200c6451fdd,,,,,,,,,,,853.101,853.599,,,853.85,854.116,right,,,,,,,,0.9,0.251,,,,,,,853.599,853.85,854.117,855.216,,,,,,,,0,79,79,185,1
,,,,,,,66d5353794a257d22919673b,682530b798de94e67efc5d05,2025-05-14_20h11.40.377,cuing_paradigm_dot,2024.1.5,Win32,60.0240096,68242c07d0c0e200c6451fdd,,,,,,,,,,,855.216,855.716,,,855.966,856.099,right,,,,,,,,0.9,0.118,,,,,,,855.716,855.966,856.099,857.198,,,,,,,,0,80,80,195,1
,,,,,,,66d5353794a257d22919673b,682530b798de94e67efc5d05,2025-05-14_20h11.40.377,cuing_paradigm_dot,2024.1.5,Win32,60.0240096,68242c07d0c0e200c6451fdd,,,,,,,,,,,857.199,857.699,,,857.95,858.298,right,,,,,,,,0.6,0.333,,,,,,,857.699,857.95,858.298,859.399,,,,,,,,0,81,81,177,1
,,,,,,,66d5353794a257d22919673b,682530b798de94e67efc5d05,2025-05-14_20h11.40.377,cuing_paradigm_dot,2024.1.5,Win32,60.0240096,68242c07d0c0e200c6451fdd,,,,,,,,,,,859.4,859.898,,,860.149,860.264,right,,,,,,,,0.1,0.103,,,,,,,859.899,860.148,860.265,861.365,,,,,,,,0,82,82,8,1
,,,,,,,66d5353794a257d22919673b,682530b798de94e67efc5d05,2025-05-14_20h11.40.377,cuing_paradigm_dot,2024.1.5,Win32,60.0240096,68242c07d0c0e200c6451fdd,,,,,,,,,,,861.366,861.865,,,862.115,862.487,right,,,,,,,,0.55,0.36,,,,,,,861.865,862.115,862.487,863.581,,,,,,,,0,83,83,138,1
,,,,,,,66d5353794a257d22919673b,682530b798de94e67efc5d05,2025-05-14_20h11.40.377,cuing_paradigm_dot,2024.1.5,Win32,60.0240096,68242c07d0c0e200c6451fdd,,,,,,,,,,,863.582,864.081,,,864.331,864.565,left,,,,,,,,0.1,0.218,,,,,,,864.081,864.331,864.565,865.664,,,,,,,,0,84,84,26,1
,,,,,,,66d5353794a257d22919673b,682530b798de94e67efc5d05,2025-05-14_20h11.40.377,cuing_paradigm_dot,2024.1.5,Win32,60.0240096,68242c07d0c0e200c6451fdd,,,,,,,,,,,865.665,866.164,,,866.415,866.664,right,,,,,,,,0.4,0.235,,,,,,,866.164,866.415,866.664,867.764,,,,,,,,0,85,85,47,1
,,,,,,,66d5353794a257d22919673b,682530b798de94e67efc5d05,2025-05-14_20h11.40.377,cuing_paradigm_dot,2024.1.5,Win32,60.0240096,68242c07d0c0e200c6451fdd,,,,,,,,,,,867.765,868.264,,,868.514,868.78,right,,,,,,,,0.55,0.249,,,,,,,868.264,868.514,868.78,869.881,,,,,,,,0,86,86,135,1
,,,,,,,66d5353794a257d22919673b,682530b798de94e67efc5d05,2025-05-14_20h11.40.377,cuing_paradigm_dot,2024.1.5,Win32,60.0240096,68242c07d0c0e200c6451fdd,,,,,,,,,,,869.881,870.38,,,870.63,871.032,right,,,,,,,,0.6,0.384,,,,,,,870.38,870.63,871.032,872.13,,,,,,,,0,87,87,157,1
,,,,,,,66d5353794a257d22919673b,682530b798de94e67efc5d05,2025-05-14_20h11.40.377,cuing_paradigm_dot,2024.1.5,Win32,60.0240096,68242c07d0c0e200c6451fdd,,,,,,,,,,,872.139,872.629,,,872.882,873.28,right,,,,,,,,0.45,0.385,,,,,,,872.63,872.882,873.28,874.38,,,,,,,,0,88,88,64,1
,,,,,,,66d5353794a257d22919673b,682530b798de94e67efc5d05,2025-05-14_20h11.40.377,cuing_paradigm_dot,2024.1.5,Win32,60.0240096,68242c07d0c0e200c6451fdd,,,,,,,,,,,874.382,874.88,,,875.13,875.346,right,,,,,,,,0.45,0.199,,,,,,,874.88,875.13,875.346,876.446,,,,,,,,0,89,89,82,1
,,,,,,,66d5353794a257d22919673b,682530b798de94e67efc5d05,2025-05-14_20h11.40.377,cuing_paradigm_dot,2024.1.5,Win32,60.0240096,68242c07d0c0e200c6451fdd,,,,,,,,,,,876.447,876.946,,,877.197,877.43,right,,,,,,,,0.5,0.22,,,,,,,876.946,877.197,877.43,878.529,,,,,,,,0,90,90,94,1
,,,,,,,66d5353794a257d22919673b,682530b798de94e67efc5d05,2025-05-14_20h11.40.377,cuing_paradigm_dot,2024.1.5,Win32,60.0240096,68242c07d0c0e200c6451fdd,,,,,,,,,,,878.53,879.029,,,879.279,879.496,right,,,,,,,,0.45,0.206,,,,,,,879.03,879.279,879.496,880.595,,,,,,,,0,91,91,65,1
,,,,,,,66d5353794a257d22919673b,682530b798de94e67efc5d05,2025-05-14_20h11.40.377,cuing_paradigm_dot,2024.1.5,Win32,60.0240096,68242c07d0c0e200c6451fdd,,,,,,,,,,,880.597,881.095,,,881.345,881.646,right,,,,,,,,0.6,0.286,,,,,,,881.095,881.345,881.646,882.745,,,,,,,,0,92,92,151,1
,,,,,,,66d5353794a257d22919673b,682530b798de94e67efc5d05,2025-05-14_20h11.40.377,cuing_paradigm_dot,2024.1.5,Win32,60.0240096,68242c07d0c0e200c6451fdd,,,,,,,,,,,882.746,883.246,,,883.496,883.862,right,,,,,,,,0.5,0.352,,,,,,,883.246,883.496,883.863,884.962,,,,,,,,0,93,93,115,1
,,,,,,,66d5353794a257d22919673b,682530b798de94e67efc5d05,2025-05-14_20h11.40.377,cuing_paradigm_dot,2024.1.5,Win32,60.0240096,68242c07d0c0e200c6451fdd,,,,,,,,,,,884.963,885.462,,,885.712,885.895,right,,,,,,,,0.4,0.168,,,,,,,885.462,885.712,885.896,886.995,,,,,,,,0,94,94,34,1
,,,,,,,66d5353794a257d22919673b,682530b798de94e67efc5d05,2025-05-14_20h11.40.377,cuing_paradigm_dot,2024.1.5,Win32,60.0240096,68242c07d0c0e200c6451fdd,,,,,,,,,,,886.996,887.495,,,887.745,887.894,right,,,,,,,,0.6,0.138,,,,,,,887.495,887.745,887.894,888.994,,,,,,,,0,95,95,165,1
,,,,,,,66d5353794a257d22919673b,682530b798de94e67efc5d05,2025-05-14_20h11.40.377,cuing_paradigm_dot,2024.1.5,Win32,60.0240096,68242c07d0c0e200c6451fdd,,,,,,,,,,,888.995,889.494,,,889.744,890.061,left,,,,,,,,0.1,0.303,,,,,,,889.494,889.744,890.061,891.161,,,,,,,,0,96,96,7,1
,,,,,,,66d5353794a257d22919673b,682530b798de94e67efc5d05,2025-05-14_20h11.40.377,cuing_paradigm_dot,2024.1.5,Win32,60.0240096,68242c07d0c0e200c6451fdd,,,,,,,,,,,891.162,891.661,,,891.911,892.06,left,,,,,,,,0.45,0.133,,,,,,,891.662,891.911,892.06,893.161,,,,,,,,0,97,97,61,1
,,,,,,,66d5353794a257d22919673b,682530b798de94e67efc5d05,2025-05-14_20h11.40.377,cuing_paradigm_dot,2024.1.5,Win32,60.0240096,68242c07d0c0e200c6451fdd,,,,,,,,,,,893.161,893.66,,,893.91,894.144,left,,,,,,,,0.1,0.222,,,,,,,893.66,893.91,894.144,895.232,,,,,,,,0,98,98,20,1
,,,,,,,66d5353794a257d22919673b,682530b798de94e67efc5d05,2025-05-14_20h11.40.377,cuing_paradigm_dot,2024.1.5,Win32,60.0240096,68242c07d0c0e200c6451fdd,,,,,,,,,,,895.233,895.727,,,895.977,896.127,left,,,,,,,,0.4,0.133,,,,,,,895.727,895.977,896.127,897.227,,,,,,,,0,99,99,59,1
,,,,,,,66d5353794a257d22919673b,682530b798de94e67efc5d05,2025-05-14_20h11.40.377,cuing_paradigm_dot,2024.1.5,Win32,60.0240096,68242c07d0c0e200c6451fdd,,,,,,,,,,,897.227,897.726,,,897.977,898.327,left,,,,,,,,0.4,0.331,,,,,,,897.726,897.977,898.327,899.427,,,,,,,,0,100,100,53,1
,,,,,,,66d5353794a257d22919673b,682530b798de94e67efc5d05,2025-05-14_20h11.40.377,cuing_paradigm_dot,2024.1.5,Win32,60.0240096,68242c07d0c0e200c6451fdd,,,,,,,,,,,899.427,899.927,,,900.177,900.293,right,,,,,,,,0.6,0.102,,,,,,,899.927,900.177,900.293,901.395,,,,,,,,0,101,101,166,1
,,,,,,,66d5353794a257d22919673b,682530b798de94e67efc5d05,2025-05-14_20h11.40.377,cuing_paradigm_dot,2024.1.5,Win32,60.0240096,68242c07d0c0e200c6451fdd,,,,,,,,,,,901.401,901.893,,,902.145,902.543,right,,,,,,,,0.55,0.385,,,,,,,901.893,902.145,902.543,903.643,,,,,,,,0,102,102,134,1
,,,,,,,66d5353794a257d22919673b,682530b798de94e67efc5d05,2025-05-14_20h11.40.377,cuing_paradigm_dot,2024.1.5,Win32,60.0240096,68242c07d0c0e200c6451fdd,,,,,,,,,,,903.643,904.142,,,904.393,904.593,right,,,,,,,,0.1,0.184,,,,,,,904.142,904.393,904.593,905.693,,,,,,,,0,103,103,27,1
,,,,,,,66d5353794a257d22919673b,682530b798de94e67efc5d05,2025-05-14_20h11.40.377,cuing_paradigm_dot,2024.1.5,Win32,60.0240096,68242c07d0c0e200c6451fdd,,,,,,,,,,,905.695,906.193,,,906.447,906.909,left,,,,,,,,0.4,0.455,,,,,,,906.193,906.447,906.909,908.01,,,,,,,,0,104,104,49,1
,,,,,,,66d5353794a257d22919673b,682530b798de94e67efc5d05,2025-05-14_20h11.40.377,cuing_paradigm_dot,2024.1.5,Win32,60.0240096,68242c07d0c0e200c6451fdd,,,,,,,,,,,908.012,908.509,,,908.759,909.042,left,,,,,,,,0.4,0.27,,,,,,,908.509,908.759,909.042,910.142,,,,,,,,0,105,105,51,1
,,,,,,,66d5353794a257d22919673b,682530b798de94e67efc5d05,2025-05-14_20h11.40.377,cuing_paradigm_dot,2024.1.5,Win32,60.0240096,68242c07d0c0e200c6451fdd,,,,,,,,,,,910.143,910.642,,,910.892,911.374,left,,,,,,,,0.5,0.464,,,,,,,910.642,910.892,911.375,912.475,,,,,,,,0,106,106,119,1
,,,,,,,66d5353794a257d22919673b,682530b798de94e67efc5d05,2025-05-14_20h11.40.377,cuing_paradigm_dot,2024.1.5,Win32,60.0240096,68242c07d0c0e200c6451fdd,,,,,,,,,,,912.477,912.975,,,913.225,913.708,right,,,,,,,,0.45,0.467,,,,,,,912.975,913.225,913.708,914.809,,,,,,,,0,107,107,87,1
,,,,,,,66d5353794a257d22919673b,682530b798de94e67efc5d05,2025-05-14_20h11.40.377,cuing_paradigm_dot,2024.1.5,Win32,60.0240096,68242c07d0c0e200c6451fdd,,,,,,,,,,,914.81,915.308,,,915.558,915.808,right,,,,,,,,0.55,0.235,,,,,,,915.308,915.558,915.808,916.908,,,,,,,,0,108,108,140,1
,,,,,,,66d5353794a257d22919673b,682530b798de94e67efc5d05,2025-05-14_20h11.40.377,cuing_paradigm_dot,2024.1.5,Win32,60.0240096,68242c07d0c0e200c6451fdd,,,,,,,,,,,916.908,917.408,,,917.658,918.024,left,,,,,,,,0.45,0.352,,,,,,,917.408,917.658,918.024,919.125,,,,,,,,0,109,109,71,1
,,,,,,,66d5353794a257d22919673b,682530b798de94e67efc5d05,2025-05-14_20h11.40.377,cuing_paradigm_dot,2024.1.5,Win32,60.0240096,68242c07d0c0e200c6451fdd,,,,,,,,,,,919.125,919.624,,,919.874,920.524,right,,,,,,,,0.45,0.634,,,,,,,919.624,919.874,920.524,921.624,,,,,,,,0,110,110,70,1
,,,,,,,66d5353794a257d22919673b,682530b798de94e67efc5d05,2025-05-14_20h11.40.377,cuing_paradigm_dot,2024.1.5,Win32,60.0240096,68242c07d0c0e200c6451fdd,,,,,,,,,,,921.624,922.125,,,922.374,922.874,right,,,,,,,,0.6,0.485,,,,,,,922.125,922.374,922.874,923.974,,,,,,,,0,111,111,153,1
,,,,,,,66d5353794a257d22919673b,682530b798de94e67efc5d05,2025-05-14_20h11.40.377,cuing_paradigm_dot,2024.1.5,Win32,60.0240096,68242c07d0c0e200c6451fdd,,,,,,,,,,,923.974,924.474,,,924.724,924.974,left,,,,,,,,0.1,0.234,,,,,,,924.474,924.724,924.974,926.074,,,,,,,,0,112,112,29,1
,,,,,,,66d5353794a257d22919673b,682530b798de94e67efc5d05,2025-05-14_20h11.40.377,cuing_paradigm_dot,2024.1.5,Win32,60.0240096,68242c07d0c0e200c6451fdd,,,,,,,,,,,926.075,926.573,,,926.824,927.074,left,,,,,,,,0.9,0.238,,,,,,,926.574,926.824,927.074,928.173,,,,,,,,0,113,113,207,1
,,,,,,,66d5353794a257d22919673b,682530b798de94e67efc5d05,2025-05-14_20h11.40.377,cuing_paradigm_dot,2024.1.5,Win32,60.0240096,68242c07d0c0e200c6451fdd,,,,,,,,,,,928.173,928.672,,,928.923,929.156,right,,,,,,,,0.9,0.222,,,,,,,928.672,928.923,929.156,930.256,,,,,,,,0,114,114,206,1
,,,,,,,66d5353794a257d22919673b,682530b798de94e67efc5d05,2025-05-14_20h11.40.377,cuing_paradigm_dot,2024.1.5,Win32,60.0240096,68242c07d0c0e200c6451fdd,,,,,,,,,,,930.256,930.756,,,931.007,931.389,right,,,,,,,,0.6,0.366,,,,,,,930.756,931.007,931.39,932.49,,,,,,,,0,115,115,171,1
,,,,,,,66d5353794a257d22919673b,682530b798de94e67efc5d05,2025-05-14_20h11.40.377,cuing_paradigm_dot,2024.1.5,Win32,60.0240096,68242c07d0c0e200c6451fdd,,,,,,,,,,,932.491,932.989,,,933.24,933.522,right,,,,,,,,0.45,0.269,,,,,,,932.989,933.24,933.522,934.622,,,,,,,,0,116,116,66,1
,,,,,,,66d5353794a257d22919673b,682530b798de94e67efc5d05,2025-05-14_20h11.40.377,cuing_paradigm_dot,2024.1.5,Win32,60.0240096,68242c07d0c0e200c6451fdd,,,,,,,,,,,934.623,935.122,,,935.377,935.844,right,,,,,,,,0.4,0.457,,,,,,,935.122,935.376,935.845,936.939,,,,,,,,0,117,117,46,1
,,,,,,,66d5353794a257d22919673b,682530b798de94e67efc5d05,2025-05-14_20h11.40.377,cuing_paradigm_dot,2024.1.5,Win32,60.0240096,68242c07d0c0e200c6451fdd,,,,,,,,,,,936.946,937.438,,,937.69,938.172,right,,,,,,,,0.55,0.467,,,,,,,937.439,937.69,938.172,939.271,,,,,,,,0,118,118,136,1
,,,,,,,66d5353794a257d22919673b,682530b798de94e67efc5d05,2025-05-14_20h11.40.377,cuing_paradigm_dot,2024.1.5,Win32,60.0240096,68242c07d0c0e200c6451fdd,,,,,,,,,,,939.272,939.772,,,940.022,940.238,left,,,,,,,,0.1,0.201,,,,,,,939.772,940.021,940.238,941.338,,,,,,,,0,119,119,4,1
,,,,,,,66d5353794a257d22919673b,682530b798de94e67efc5d05,2025-05-14_20h11.40.377,cuing_paradigm_dot,2024.1.5,Win32,60.0240096,68242c07d0c0e200c6451fdd,,,,,,,,,,,941.339,941.839,,,942.089,942.621,right,,,,,,,,0.55,0.516,,,,,,,941.839,942.089,942.621,943.721,,,,,,,,0,120,120,123,1
,,,,,,,66d5353794a257d22919673b,682530b798de94e67efc5d05,2025-05-14_20h11.40.377,cuing_paradigm_dot,2024.1.5,Win32,60.0240096,68242c07d0c0e200c6451fdd,,,,,,,,,,,943.726,944.221,,,944.472,944.872,right,,,,,,,,0.9,0.384,,,,,,,944.221,944.472,944.872,945.971,,,,,,,,0,121,121,193,1
,,,,,,,66d5353794a257d22919673b,682530b798de94e67efc5d05,2025-05-14_20h11.40.377,cuing_paradigm_dot,2024.1.5,Win32,60.0240096,68242c07d0c0e200c6451fdd,,,,,,,,,,,945.972,946.471,,,946.721,946.987,left,,,,,,,,0.1,0.254,,,,,,,946.471,946.721,946.987,948.088,,,,,,,,0,122,122,11,1
,,,,,,,66d5353794a257d22919673b,682530b798de94e67efc5d05,2025-05-14_20h11.40.377,cuing_paradigm_dot,2024.1.5,Win32,60.0240096,68242c07d0c0e200c6451fdd,,,,,,,,,,,948.089,948.588,,,948.837,949.004,right,,,,,,,,0.5,0.149,,,,,,,948.588,948.837,949.004,950.104,,,,,,,,0,123,123,91,1
,,,,,,,66d5353794a257d22919673b,682530b798de94e67efc5d05,2025-05-14_20h11.40.377,cuing_paradigm_dot,2024.1.5,Win32,60.0240096,68242c07d0c0e200c6451fdd,,,,,,,,,,,950.106,950.603,,,950.854,951.003,left,,,,,,,,0.1,0.137,,,,,,,950.603,950.854,951.003,952.103,,,,,,,,0,124,124,23,1
,,,,,,,66d5353794a257d22919673b,682530b798de94e67efc5d05,2025-05-14_20h11.40.377,cuing_paradigm_dot,2024.1.5,Win32,60.0240096,68242c07d0c0e200c6451fdd,,,,,,,,,,,952.105,952.603,,,952.854,953.354,right,,,,,,,,0.6,0.482,,,,,,,952.603,952.854,953.354,954.453,,,,,,,,0,125,125,172,1
,,,,,,,66d5353794a257d22919673b,682530b798de94e67efc5d05,2025-05-14_20h11.40.377,cuing_paradigm_dot,2024.1.5,Win32,60.0240096,68242c07d0c0e200c6451fdd,,,,,,,,,,,954.453,954.953,,,955.204,955.369,left,,,,,,,,0.1,0.15,,,,,,,954.953,955.204,955.369,956.47,,,,,,,,0,126,126,15,1
,,,,,,,66d5353794a257d22919673b,682530b798de94e67efc5d05,2025-05-14_20h11.40.377,cuing_paradigm_dot,2024.1.5,Win32,60.0240096,68242c07d0c0e200c6451fdd,,,,,,,,,,,956.47,956.97,,,957.219,957.436,right,,,,,,,,0.9,0.206,,,,,,,956.97,957.219,957.436,958.535,,,,,,,,0,127,127,204,1
,,,,,,,66d5353794a257d22919673b,682530b798de94e67efc5d05,2025-05-14_20h11.40.377,cuing_paradigm_dot,2024.1.5,Win32,60.0240096,68242c07d0c0e200c6451fdd,,,,,,,,,,,958.536,959.036,,,959.286,959.469,left,,,,,,,,0.1,0.17,,,,,,,959.036,959.285,959.469,960.57,,,,,,,,0,128,128,5,1
,,,,,,,66d5353794a257d22919673b,682530b798de94e67efc5d05,2025-05-14_20h11.40.377,cuing_paradigm_dot,2024.1.5,Win32,60.0240096,68242c07d0c0e200c6451fdd,,,,,,,,,,,960.571,961.069,,,961.319,961.451,right,,,,,,,,0.5,0.12,,,,,,,961.069,961.319,961.451,962.54,,,,,,,,0,129,129,103,1
,,,,,,,66d5353794a257d22919673b,682530b798de94e67efc5d05,2025-05-14_20h11.40.377,cuing_paradigm_dot,2024.1.5,Win32,60.0240096,68242c07d0c0e200c6451fdd,,,,,,,,,,,962.54,963.036,,,963.285,963.753,right,,,,,,,,0.55,0.452,,,,,,,963.036,963.285,963.753,964.853,,,,,,,,0,130,130,143,1
,,,,,,,66d5353794a257d22919673b,682530b798de94e67efc5d05,2025-05-14_20h11.40.377,cuing_paradigm_dot,2024.1.5,Win32,60.0240096,68242c07d0c0e200c6451fdd,,,,,,,,,,,964.853,965.352,,,965.602,965.701,left,,,,,,,,0.4,0.087,,,,,,,965.352,965.602,965.701,966.803,,,,,,,,0,131,131,35,1
,,,,,,,66d5353794a257d22919673b,682530b798de94e67efc5d05,2025-05-14_20h11.40.377,cuing_paradigm_dot,2024.1.5,Win32,60.0240096,68242c07d0c0e200c6451fdd,,,,,,,,,,,966.809,967.302,,,967.553,967.835,right,,,,,,,,0.55,0.264,,,,,,,967.302,967.553,967.835,968.935,,,,,,,,0,132,132,129,1
,,,,,,,66d5353794a257d22919673b,682530b798de94e67efc5d05,2025-05-14_20h11.40.377,cuing_paradigm_dot,2024.1.5,Win32,60.0240096,68242c07d0c0e200c6451fdd,,,,,,,,,,,968.936,969.434,,,969.684,970.202,right,,,,,,,,0.4,0.502,,,,,,,969.434,969.684,970.202,971.301,,,,,,,,0,133,133,56,1
,,,,,,,66d5353794a257d22919673b,682530b798de94e67efc5d05,2025-05-14_20h11.40.377,cuing_paradigm_dot,2024.1.5,Win32,60.0240096,68242c07d0c0e200c6451fdd,,,,,,,,,,,971.302,971.801,,,972.052,972.284,right,,,,,,,,0.1,0.22,,,,,,,971.801,972.052,972.284,973.384,,,,,,,,0,134,134,6,1
,,,,,,,66d5353794a257d22919673b,682530b798de94e67efc5d05,2025-05-14_20h11.40.377,cuing_paradigm_dot,2024.1.5,Win32,60.0240096,68242c07d0c0e200c6451fdd,,,,,,,,,,,973.386,973.884,,,974.134,974.584,right,,,,,,,,0.9,0.437,,,,,,,973.884,974.134,974.584,975.684,,,,,,,,0,135,135,186,1
,,,,,,,66d5353794a257d22919673b,682530b798de94e67efc5d05,2025-05-14_20h11.40.377,cuing_paradigm_dot,2024.1.5,Win32,60.0240096,68242c07d0c0e200c6451fdd,,,,,,,,,,,975.685,976.184,,,976.434,976.7,right,,,,,,,,0.9,0.251,,,,,,,976.184,976.434,976.701,977.8,,,,,,,,0,136,136,200,1
,,,,,,,66d5353794a257d22919673b,682530b798de94e67efc5d05,2025-05-14_20h11.40.377,cuing_paradigm_dot,2024.1.5,Win32,60.0240096,68242c07d0c0e200c6451fdd,,,,,,,,,,,977.8,978.3,,,978.551,978.734,right,,,,,,,,0.45,0.171,,,,,,,978.3,978.551,978.734,979.833,,,,,,,,0,137,137,81,1
,,,,,,,66d5353794a257d22919673b,682530b798de94e67efc5d05,2025-05-14_20h11.40.377,cuing_paradigm_dot,2024.1.5,Win32,60.0240096,68242c07d0c0e200c6451fdd,,,,,,,,,,,979.834,980.332,,,980.584,981.1,right,,,,,,,,0.5,0.5,,,,,,,980.332,980.584,981.1,982.2,,,,,,,,0,138,138,105,1
,,,,,,,66d5353794a257d22919673b,682530b798de94e67efc5d05,2025-05-14_20h11.40.377,cuing_paradigm_dot,2024.1.5,Win32,60.0240096,68242c07d0c0e200c6451fdd,,,,,,,,,,,982.201,982.7,,,982.95,983.434,right,,,,,,,,0.5,0.467,,,,,,,982.7,982.95,983.434,984.533,,,,,,,,0,139,139,112,1
,,,,,,,66d5353794a257d22919673b,682530b798de94e67efc5d05,2025-05-14_20h11.40.377,cuing_paradigm_dot,2024.1.5,Win32,60.0240096,68242c07d0c0e200c6451fdd,,,,,,,,,,,984.534,985.033,,,985.283,985.766,right,,,,,,,,0.6,0.47,,,,,,,985.033,985.283,985.766,986.866,,,,,,,,0,140,140,150,1
