right,left,explain.started,explain.stopped,key_resp_3.keys,key_resp_3.rt,key_resp_3.duration,participant,session,date,expName,psychopyVersion,OS,frameRate,study_id,explain_2.started,explain_2.stopped,key_resp_4.keys,key_resp_4.rt,key_resp_4.duration,explain_3.started,explain_3.stopped,key_resp_5.keys,key_resp_5.rt,key_resp_5.duration,fixation.started,fixation.stopped,practice.started,practice.stopped,response.started,response.stopped,key_resp.keys,key_resp.rt,key_resp.duration,feedback.started,feedback.stopped,trials_2.thisRepN,trials_2.thisTrialN,trials_2.thisN,trials_2.thisIndex,trials_2.ran,white_ratio,explain_4.started,explain_4.stopped,key_resp_6.keys,key_resp_6.rt,key_resp_6.duration,dotDisplay.started,dotDisplay.stopped,ITI.started,polygon_1.pos,polygon_1.color,polygon_2.pos,polygon_2.color,polygon_3.pos,polygon_3.color,polygon_4.pos,polygon_4.color,polygon_5.pos,polygon_5.color,polygon_6.pos,polygon_6.color,polygon_7.pos,polygon_7.color,polygon_8.pos,polygon_8.color,polygon_9.pos,polygon_9.color,polygon_10.pos,polygon_10.color,polygon_11.pos,polygon_11.color,polygon_12.pos,polygon_12.color,polygon_13.pos,polygon_13.color,polygon_14.pos,polygon_14.color,polygon_15.pos,polygon_15.color,polygon_16.pos,polygon_16.color,polygon_17.pos,polygon_17.color,polygon_18.pos,polygon_18.color,polygon_19.pos,polygon_19.color,polygon_20.pos,polygon_20.color,polygon_21.pos,polygon_21.color,polygon_22.pos,polygon_22.color,polygon_23.pos,polygon_23.color,polygon_24.pos,polygon_24.color,polygon_25.pos,polygon_25.color,polygon_26.pos,polygon_26.color,polygon_27.pos,polygon_27.color,polygon_28.pos,polygon_28.color,polygon_29.pos,polygon_29.color,polygon_30.pos,polygon_30.color,polygon_31.pos,polygon_31.color,polygon_32.pos,polygon_32.color,dot_size,ITI.stopped,trials.thisRepN,trials.thisTrialN,trials.thisN,trials.thisIndex,trials.ran,break_2.started,break_2.stopped,trials_3.thisRepN,trials_3.thisTrialN,trials_3.thisN,trials_3.thisIndex,trials_3.ran
subject chose white,subject chose black,0.0005,68.0755,space,52.9917,0.0011,5f0a7dec44c42c19a6c9f6d9,68317a73fb675d778214e76b,2025-05-24_03h11.29.617,cuing_paradigm_dot,2024.1.5,Win32,8.576329331,682d573fa47f1360d1451895,,,,,,,,,,,,,,,,,,,,,,,,,,,,,,,,,,,,,,,,,,,,,,,,,,,,,,,,,,,,,,,,,,,,,,,,,,,,,,,,,,,,,,,,,,,,,,,,,,,,,,,,,,,,,,,,,
,,,,,,,5f0a7dec44c42c19a6c9f6d9,68317a73fb675d778214e76b,2025-05-24_03h11.29.617,cuing_paradigm_dot,2024.1.5,Win32,8.576329331,682d573fa47f1360d1451895,68.0758,101.1417,space,2.9525,0.0028,,,,,,,,,,,,,,,,,,,,,,,,,,,,,,,,,,,,,,,,,,,,,,,,,,,,,,,,,,,,,,,,,,,,,,,,,,,,,,,,,,,,,,,,,,,,,,,,,,,,,,,,,,,,
,,,,,,,5f0a7dec44c42c19a6c9f6d9,68317a73fb675d778214e76b,2025-05-24_03h11.29.617,cuing_paradigm_dot,2024.1.5,Win32,8.576329331,682d573fa47f1360d1451895,,,,,,101.1418,110.8745,space,6.628,,,,,,,,,,,,,,,,,,,,,,,,,,,,,,,,,,,,,,,,,,,,,,,,,,,,,,,,,,,,,,,,,,,,,,,,,,,,,,,,,,,,,,,,,,,,,,,,,,,,,,,,
,,,,,,,5f0a7dec44c42c19a6c9f6d9,68317a73fb675d778214e76b,2025-05-24_03h11.29.617,cuing_paradigm_dot,2024.1.5,Win32,8.576329331,682d573fa47f1360d1451895,,,,,,,,,,,110.9021,111.3423,111.3426,111.4982,111.4984,112.454,left,0.7933,0.0002,112.4543,113.4849,0,0,0,1,1,0.2,,,,,,,,,,,,,,,,,,,,,,,,,,,,,,,,,,,,,,,,,,,,,,,,,,,,,,,,,,,,,,,,,,,,,,,,,,,,,,,,,,,,,,
,,,,,,,5f0a7dec44c42c19a6c9f6d9,68317a73fb675d778214e76b,2025-05-24_03h11.29.617,cuing_paradigm_dot,2024.1.5,Win32,8.576329331,682d573fa47f1360d1451895,,,,,,,,,,,113.4857,113.926,113.926,114.078,114.078,115.014,right,0.7855,0.0002,115.0141,116.065,0,1,1,0,1,0.8,,,,,,,,,,,,,,,,,,,,,,,,,,,,,,,,,,,,,,,,,,,,,,,,,,,,,,,,,,,,,,,,,,,,,,,,,,,,,,,,,,,,,,
,,,,,,,5f0a7dec44c42c19a6c9f6d9,68317a73fb675d778214e76b,2025-05-24_03h11.29.617,cuing_paradigm_dot,2024.1.5,Win32,8.576329331,682d573fa47f1360d1451895,,,,,,,,,,,,,,,,,,,,,,,,,,,,116.0653,120.0296,space,0.9123,,,,,,,,,,,,,,,,,,,,,,,,,,,,,,,,,,,,,,,,,,,,,,,,,,,,,,,,,,,,,,,,,,,,,,,,,,,,,,,,,,
,,,,,,,5f0a7dec44c42c19a6c9f6d9,68317a73fb675d778214e76b,2025-05-24_03h11.29.617,cuing_paradigm_dot,2024.1.5,Win32,8.576329331,682d573fa47f1360d1451895,,,,,,,,,,,120.0441,120.4891,,,120.6378,121.7445,left,0.9622,,,,,,,,,0.4,,,,,,120.4894,120.6378,121.7448,"[0.07614091609193603,-0.1145958064715438]","[-1,-1,-1]","[0.05535693751457572,-0.05146893269886005]","[1,1,1]","[0.12463998977828794,0.05184826889841416]","[1,1,1]","[-0.0480516530406823,-0.07447785921895957]","[-1,-1,-1]","[0.03680312714163171,0.14913337337695384]","[-1,-1,-1]","[-0.14673617228820401,0.02658461277827132]","[-1,-1,-1]","[-0.08107998112171176,-0.022158913518190517]","[1,1,1]","[-0.06482696787066541,0.14838642302332047]","[-1,-1,-1]","[0.10965780686402885,-0.00677713742348186]","[1,1,1]","[0.026213322118219334,-0.009893298963703986]","[1,1,1]","[0.020436832993470204,0.03518067800762136]","[-1,-1,-1]","[0.08608810490660497,0.10290927968217525]","[1,1,1]","[0.15409293429954807,-0.06556214668241556]","[-1,-1,-1]","[-0.1733544412779814,-0.06613120282682924]","[-1,-1,-1]","[0.1848476805394352,-0.02514132923386335]","[1,1,1]","[-0.0024943513576031165,0.12053706372240444]","[-1,-1,-1]","[0.09200864022584053,-0.16209453901137372]","[-1,-1,-1]","[0.044359813732420525,-0.19263769457772406]","[1,1,1]","[-0.03908334630819715,0.030270661946010257]","[-1,-1,-1]","[0.13815134842741011,0.09561785046926295]","[1,1,1]","[-0.002889603812624869,-0.17390637429264474]","[-1,-1,-1]","[-0.043187886219976816,-0.14764225778231052]","[-1,-1,-1]","[-0.12986287478936337,-0.11218728327604532]","[1,1,1]","[-0.03500917734785905,0.07591133832248256]","[-1,-1,-1]","[0.012113148764408811,-0.1230911109884274]","[-1,-1,-1]","[-0.13410904988251765,0.12154739362056433]","[1,1,1]","[0.10833745577658452,-0.06120358499954953]","[1,1,1]","[0.06552200537681346,0.05242915986119479]","[-1,-1,-1]","[-0.03819176689392308,0.18208440780288157]","[-1,-1,-1]","[0.1296445615312361,-0.12595096034512981]","[-1,-1,-1]","[-0.1435158442149494,0.07849325257335706]","[1,1,1]","[-0.1343967571751604,-0.04050024154898896]","[-1,-1,-1]","[0.02,0.02]",122.776,0,0,0,37,1,,,,,,,
,,,,,,,5f0a7dec44c42c19a6c9f6d9,68317a73fb675d778214e76b,2025-05-24_03h11.29.617,cuing_paradigm_dot,2024.1.5,Win32,8.576329331,682d573fa47f1360d1451895,,,,,,,,,,,122.7765,123.2261,,,123.3716,124.4445,left,0.9343,,,,,,,,,0.4,,,,,,123.2261,123.3715,124.4446,"[0.005970126636951549,-0.18315749725082298]","[1,1,1]","[0.08348603066848159,0.06406111232184768]","[1,1,1]","[0.029933548769804873,0.09471135740686892]","[-1,-1,-1]","[0.06099374184305108,-0.0291683311979574]","[1,1,1]","[-0.009119178602582443,0.08344568194839393]","[-1,-1,-1]","[-0.06482109036504188,-0.1001148130689373]","[-1,-1,-1]","[-0.118296004906211,0.13513055130315513]","[-1,-1,-1]","[-0.020661112715200103,-0.018414747424299414]","[-1,-1,-1]","[-0.1290054448637893,0.06495435947981443]","[1,1,1]","[0.11016674320204672,0.15078628539799]","[-1,-1,-1]","[-0.04398356350530223,0.14869208784100138]","[-1,-1,-1]","[-0.12187921140050996,-0.03341174281033104]","[1,1,1]","[-0.07627991756262462,-0.14699440805299954]","[-1,-1,-1]","[0.09959705662951925,-0.0870178026503809]","[-1,-1,-1]","[-0.031860026478716906,0.04971508028610011]","[1,1,1]","[0.1396259272825223,-0.0555294511921825]","[-1,-1,-1]","[-0.15098476543282394,-0.07924584743333765]","[-1,-1,-1]","[0.0253114976456029,0.14746609348238884]","[-1,-1,-1]","[0.1513012547446848,-0.010142901191083041]","[1,1,1]","[-0.11987782745904105,-0.14121834671820233]","[1,1,1]","[-0.08035987776582305,0.16952445729959795]","[1,1,1]","[-0.1914477475084483,0.00018519843255125593]","[-1,-1,-1]","[-0.08578356102821325,0.06222495484904384]","[1,1,1]","[0.006018349904485138,-0.13570256323141994]","[1,1,1]","[0.18088487325307773,0.08416382269657871]","[-1,-1,-1]","[0.0464907577095112,-0.09411482591197899]","[1,1,1]","[0.09159943727442267,-0.13008611363319209]","[-1,-1,-1]","[0.15914517297525074,-0.11631275843108364]","[-1,-1,-1]","[-0.07243872829644589,-0.04496041016596524]","[-1,-1,-1]","[0.17807700513370311,0.03517727399243851]","[1,1,1]","[0.12277396417700437,0.09096633518949387]","[-1,-1,-1]","[-0.15000942160924588,0.0011905510779251771]","[-1,-1,-1]","[0.02,0.02]",125.4594,0,1,1,52,1,,,,,,,
,,,,,,,5f0a7dec44c42c19a6c9f6d9,68317a73fb675d778214e76b,2025-05-24_03h11.29.617,cuing_paradigm_dot,2024.1.5,Win32,8.576329331,682d573fa47f1360d1451895,,,,,,,,,,,125.4598,125.9234,,,126.0932,126.8761,right,0.6512,,,,,,,,,0.9,,,,,,125.9234,126.0932,126.8762,"[-0.08629422997814835,0.1300561611169095]","[-1,-1,-1]","[-0.030573901071279257,-0.08378675470196274]","[1,1,1]","[-0.13307551504133563,0.10019274923201037]","[1,1,1]","[-0.010084561117548184,-0.025415132539429217]","[1,1,1]","[0.01681766082321395,-0.06040558696385235]","[1,1,1]","[0.18562350464269115,0.043249447748770174]","[1,1,1]","[0.1375517604922656,-0.14177939432119216]","[1,1,1]","[-0.13025398021906065,-0.14981802549134068]","[1,1,1]","[0.014206260121271857,-0.12012453528025617]","[1,1,1]","[-0.12054661487037716,-0.039299359912496244]","[1,1,1]","[0.09130009353490988,-0.14235127646898163]","[1,1,1]","[-0.16724824381867956,-0.016287726344326663]","[1,1,1]","[0.16548627498095644,-0.06934707456539861]","[1,1,1]","[0.1263832825376239,0.13348453537285554]","[1,1,1]","[0.05811367695282284,0.10109447032557643]","[1,1,1]","[0.10401715123780757,-0.09618563636296866]","[1,1,1]","[-0.10081262527628593,-0.08747437281069634]","[1,1,1]","[-0.02369839940334541,0.06794691899200528]","[1,1,1]","[-0.03691509739916908,-0.17413558809186533]","[1,1,1]","[-0.052567319278569405,0.1719392754482074]","[1,1,1]","[0.05121136678876469,0.1861643647127462]","[1,1,1]","[-0.06614734571849179,-0.06469142455059144]","[1,1,1]","[-0.17948262448872668,0.08195007209133551]","[-1,-1,-1]","[-0.13881545821161975,0.017210834784869993]","[1,1,1]","[-0.08016969862280761,0.07220203891984837]","[1,1,1]","[0.17211459990756564,-0.0017004643111597987]","[1,1,1]","[0.127318499046152,0.04914083257286935]","[1,1,1]","[0.01773873996431224,0.11474156791416597]","[1,1,1]","[-0.04466185689583603,0.02566322673050739]","[1,1,1]","[0.005043505890353769,0.17202640578501688]","[1,1,1]","[-0.06538763221522177,-0.014782803577248815]","[-1,-1,-1]","[0.1327932912228372,-0.017051704708149446]","[1,1,1]","[0.02,0.02]",127.8993,0,2,2,189,1,,,,,,,
,,,,,,,5f0a7dec44c42c19a6c9f6d9,68317a73fb675d778214e76b,2025-05-24_03h11.29.617,cuing_paradigm_dot,2024.1.5,Win32,8.576329331,682d573fa47f1360d1451895,,,,,,,,,,,127.8998,128.3437,,,128.5057,129.5835,right,0.9335,,,,,,,,,0.5,,,,,,128.3437,128.5057,129.5836,"[-0.13953285618456673,0.07507074703305977]","[-1,-1,-1]","[0.052596641675088644,-0.04786523145699832]","[-1,-1,-1]","[-0.19782032677598013,0.017931178053374682]","[-1,-1,-1]","[0.11061114069298518,-0.09139042530430354]","[1,1,1]","[0.10646789760188483,-0.007160843475758783]","[-1,-1,-1]","[0.09336027457924888,-0.15761741685344144]","[1,1,1]","[-0.009275030977333709,0.030684894480336348]","[1,1,1]","[-0.09018198380698264,0.12628633467052297]","[1,1,1]","[-0.1631199000165686,-0.09745224675871975]","[1,1,1]","[0.024610855232854976,0.1682009391185229]","[1,1,1]","[0.1267925415415379,0.05656730654958597]","[-1,-1,-1]","[0.18480580347463546,0.0725226230623521]","[-1,-1,-1]","[0.0677657054236808,-0.09460870841168578]","[1,1,1]","[0.04175277903251926,-0.1879422759656241]","[1,1,1]","[0.14121161261158707,0.10251599250782219]","[-1,-1,-1]","[-0.10366734588077761,0.05121776470467823]","[1,1,1]","[0.0506145127457462,0.08189219152019103]","[-1,-1,-1]","[0.15196347628839457,-0.08777881748110593]","[1,1,1]","[0.04306532416999607,0.011747337412620545]","[-1,-1,-1]","[-0.01431243576572387,0.1513592535756679]","[1,1,1]","[-0.05087418209255951,0.05021866426114309]","[-1,-1,-1]","[-0.06883521415755983,-0.050097064437904314]","[1,1,1]","[-0.03066907599702521,-0.10300303951653972]","[-1,-1,-1]","[-0.04833658587750707,-0.18437322216427976]","[1,1,1]","[0.1376346068793473,-0.03664206916602283]","[-1,-1,-1]","[0.004539256535090315,0.0732986886428297]","[1,1,1]","[-0.10532115733198281,-0.14785573277924383]","[-1,-1,-1]","[0.10740755677486966,0.1555089101699144]","[-1,-1,-1]","[0.1650903208671337,0.004729739638859285]","[1,1,1]","[-0.01550812980801963,-0.011102088791392848]","[-1,-1,-1]","[-0.07125032982147206,0.01536251203592079]","[-1,-1,-1]","[-0.0033698484347882782,-0.1909191543954739]","[1,1,1]","[0.02,0.02]",130.6556,0,3,3,114,1,,,,,,,
,,,,,,,5f0a7dec44c42c19a6c9f6d9,68317a73fb675d778214e76b,2025-05-24_03h11.29.617,cuing_paradigm_dot,2024.1.5,Win32,8.576329331,682d573fa47f1360d1451895,,,,,,,,,,,130.6559,131.116,,,131.2666,132.3426,right,0.9289,,,,,,,,,0.6,,,,,,131.1161,131.2666,132.3428,"[0.08242795482397898,-0.17571105035641726]","[1,1,1]","[0.041678988648153004,-0.12423185917106477]","[1,1,1]","[0.15789564724786104,-0.04926092283714954]","[1,1,1]","[-0.01859095437598535,-0.05820713004782481]","[-1,-1,-1]","[0.10607903131266769,-0.11477638859207649]","[1,1,1]","[0.10373322701800088,0.11202938726998132]","[1,1,1]","[-0.193486238251983,0.006112794042176551]","[1,1,1]","[-0.0417976886052418,0.15011336137101294]","[-1,-1,-1]","[0.1096184857051999,0.042942595928214956]","[1,1,1]","[-0.04710898528515809,-0.1666685084103347]","[-1,-1,-1]","[-0.16312587358626696,0.07012899466273642]","[-1,-1,-1]","[-0.14705487565169761,-0.05490478572913042]","[1,1,1]","[-0.0027011247595408903,-0.11650268195907648]","[-1,-1,-1]","[0.16897456923992765,0.10058062277545207]","[1,1,1]","[-0.007558208051002065,0.02953556729603171]","[-1,-1,-1]","[-0.13009558750918804,0.0158035587372299]","[-1,-1,-1]","[-0.09936418737064573,0.0561087653359012]","[-1,-1,-1]","[0.03717544444644866,0.16978174082627134]","[1,1,1]","[-0.01484132991018741,0.07453468582436236]","[-1,-1,-1]","[0.004226532091605081,-0.19420434221952318]","[1,1,1]","[-0.07346436739219078,-0.07359435960550109]","[1,1,1]","[0.08595998818469197,-0.056671259048099935]","[1,1,1]","[-0.1266943993065898,0.08863475680673838]","[1,1,1]","[0.004451131919689228,0.13406367185094334]","[1,1,1]","[-0.12372434623182949,-0.15114147191702168]","[1,1,1]","[-0.11140845301740679,-0.030878449698892]","[-1,-1,-1]","[-0.00042505014347622103,0.19390568178899956]","[-1,-1,-1]","[0.03656631224862408,0.019979820825334657]","[1,1,1]","[-0.07307510857045557,0.09760193217117422]","[-1,-1,-1]","[-0.03871989774824123,-0.019217404980039994]","[-1,-1,-1]","[0.10265307012164697,-0.018965814575769444]","[1,1,1]","[0.15759995197602789,0.03123395401326146]","[1,1,1]","[0.02,0.02]",133.4094,0,4,4,153,1,,,,,,,
,,,,,,,5f0a7dec44c42c19a6c9f6d9,68317a73fb675d778214e76b,2025-05-24_03h11.29.617,cuing_paradigm_dot,2024.1.5,Win32,8.576329331,682d573fa47f1360d1451895,,,,,,,,,,,133.4097,133.8662,,,134.0246,135.1796,right,1.0102,0.0002,,,,,,,,0.45,,,,,,133.8662,134.0245,135.1796,"[-0.027152187623606668,-0.15437382275699318]","[1,1,1]","[-0.13675748945686766,-0.05453814772298171]","[1,1,1]","[-0.10394106356508995,0.0527113504645061]","[1,1,1]","[0.03235083530651826,-0.16658883263274096]","[1,1,1]","[-0.0477803260459652,0.09841562371281193]","[-1,-1,-1]","[0.17277095481629942,-0.04042900565087028]","[1,1,1]","[0.10892975737804168,-0.019706424431743887]","[1,1,1]","[-0.017172498776478872,0.14473093581405]","[1,1,1]","[-0.09164144189344366,0.09469726495281837]","[-1,-1,-1]","[-0.005195372269111545,-0.0684601366315658]","[-1,-1,-1]","[-0.1251179941890722,-0.0161730792693169]","[-1,-1,-1]","[-0.05396369340005703,-0.04667216485899922]","[1,1,1]","[0.1308252417581014,-0.08683569184029069]","[1,1,1]","[0.10179385803242863,-0.15749201003710683]","[-1,-1,-1]","[-0.18342095075657766,0.04988841173958078]","[-1,-1,-1]","[0.09402776089049467,0.09660147457483674]","[1,1,1]","[0.09339112642552476,0.1464217649236106]","[-1,-1,-1]","[-0.027115285532867437,0.018254562934426937]","[1,1,1]","[-0.06576159701009109,-0.09425402756023074]","[1,1,1]","[0.13221503173465524,-0.13125168471786225]","[-1,-1,-1]","[0.048579603099249205,0.11652336874529125]","[-1,-1,-1]","[0.03505563653245689,-0.016402239063792273]","[-1,-1,-1]","[0.024600135866082853,0.16405984824420858]","[-1,-1,-1]","[-0.10236214952081225,-0.12208846803072573]","[-1,-1,-1]","[0.12864092149064987,0.06971963254575966]","[-1,-1,-1]","[0.15874476334020501,0.11304790584344807]","[-1,-1,-1]","[0.061486224410704046,0.1873629517785956]","[-1,-1,-1]","[0.06683728809666462,-0.0752363952517922]","[1,1,1]","[-0.008943764972294835,0.06582165714869027]","[-1,-1,-1]","[0.16723857123345376,0.013383732316780535]","[-1,-1,-1]","[0.028822986048655904,0.0274050711801476]","[-1,-1,-1]","[-0.0663167498738206,0.1806513927548765]","[1,1,1]","[0.02,0.02]",136.2556,0,5,5,85,1,,,,,,,
,,,,,,,5f0a7dec44c42c19a6c9f6d9,68317a73fb675d778214e76b,2025-05-24_03h11.29.617,cuing_paradigm_dot,2024.1.5,Win32,8.576329331,682d573fa47f1360d1451895,,,,,,,,,,,136.2559,136.697,,,136.8496,137.9577,right,0.9693,,,,,,,,,0.6,,,,,,136.6971,136.8496,137.9577,"[0.07726543465275218,-0.14221284884130211]","[1,1,1]","[0.02571608164358382,0.18426683110380856]","[1,1,1]","[-0.07171741026677564,-0.06738339391922502]","[-1,-1,-1]","[-0.1711482566809742,0.06676096985592542]","[1,1,1]","[0.1519899833747091,-0.04044247141423985]","[1,1,1]","[-0.02620295121347609,-0.13718339289918374]","[-1,-1,-1]","[-0.06667933375737395,-0.15969631782207025]","[1,1,1]","[0.018153870542497605,0.04254539664992664]","[-1,-1,-1]","[-0.018100267307868075,0.08931490989341904]","[-1,-1,-1]","[-0.1239697821855888,0.10221163187548817]","[-1,-1,-1]","[-0.16777525387134426,-0.07044943349756179]","[-1,-1,-1]","[-0.1204945364940018,0.04160414911841901]","[1,1,1]","[0.12660618321356276,-0.10181994051238757]","[-1,-1,-1]","[0.10383338265200186,-0.019422850360826936]","[1,1,1]","[-0.06401161717536108,0.06985559798634125]","[1,1,1]","[-0.0017319847880042547,-0.10491826636715262]","[1,1,1]","[0.048946642880906104,-0.07235028551112409]","[-1,-1,-1]","[-0.01117999650487255,-0.02102889985680945]","[-1,-1,-1]","[-0.154432228220548,-0.03142741766994995]","[1,1,1]","[-0.11334117716213764,0.16343983246862914]","[1,1,1]","[0.07592479959014518,0.057717460861601795]","[1,1,1]","[0.16676578439572487,-0.10350453608881535]","[1,1,1]","[0.030547210618652416,-0.1775191322185644]","[-1,-1,-1]","[-0.07891323334963292,0.11499147473068352]","[-1,-1,-1]","[-0.12324115661321958,-0.061907544945208455]","[1,1,1]","[-0.022868738761813848,0.028851221145448126]","[-1,-1,-1]","[0.08409049255380606,0.16265375382485456]","[1,1,1]","[0.12644849915345668,0.13394617751256313]","[1,1,1]","[0.1699153402516456,0.05699267972533567]","[1,1,1]","[-0.00369498209525164,-0.1991813677358385]","[1,1,1]","[0.04886828342385725,0.11982420717363541]","[1,1,1]","[-0.05361016278563168,-0.0072425373171379915]","[-1,-1,-1]","[0.02,0.02]",139.0194,0,6,6,158,1,,,,,,,
,,,,,,,5f0a7dec44c42c19a6c9f6d9,68317a73fb675d778214e76b,2025-05-24_03h11.29.617,cuing_paradigm_dot,2024.1.5,Win32,8.576329331,682d573fa47f1360d1451895,,,,,,,,,,,139.0198,139.4872,,,139.6319,140.7665,left,0.9898,,,,,,,,,0.5,,,,,,139.4872,139.6319,140.7666,"[-0.08715578003639529,0.0433314452176186]","[1,1,1]","[-0.11700076337083318,-0.1156471881264759]","[1,1,1]","[-0.1222903708268185,-0.04618000981440725]","[1,1,1]","[0.009185428279381305,-0.1670076753154391]","[1,1,1]","[-0.13307450158906658,0.09768492061930482]","[-1,-1,-1]","[0.07699245574541128,-0.16199302183938388]","[1,1,1]","[0.11816831240200604,0.0005812135723993078]","[1,1,1]","[0.15438791460287332,-0.07970820334248724]","[-1,-1,-1]","[-0.03632353213982162,0.058197233362385074]","[-1,-1,-1]","[-0.07565725050525919,-0.15891583668120388]","[1,1,1]","[-0.18046280657650335,-0.0513957965941744]","[-1,-1,-1]","[0.018923563009133924,0.1812398246282088]","[-1,-1,-1]","[-0.017253255598704265,0.09996350924013697]","[1,1,1]","[0.05969451766951808,0.07031591167746026]","[1,1,1]","[-0.08196971447538419,-0.061176311964669994]","[-1,-1,-1]","[0.13333278273806662,0.10900040844917223]","[-1,-1,-1]","[0.15816822103092495,0.004521193195025737]","[-1,-1,-1]","[0.01104830254502861,0.017389822463220374]","[-1,-1,-1]","[-0.12728494625010425,0.007653207122196458]","[-1,-1,-1]","[0.13575485443146662,0.03945349863366068]","[-1,-1,-1]","[-0.026139767975564117,-0.07470923658041222]","[1,1,1]","[-0.16268341569167272,0.0621256914310797]","[-1,-1,-1]","[-0.07247048758335226,-0.108749013406133]","[-1,-1,-1]","[-0.04374972655939264,0.1759550461259219]","[1,1,1]","[0.15625146402059364,-0.12365074232592688]","[1,1,1]","[0.08710351289873186,0.03034152094461673]","[-1,-1,-1]","[0.10342846075905472,-0.11242040355728244]","[1,1,1]","[-0.07659051659879554,0.11062511087882462]","[1,1,1]","[0.06645653064315114,-0.03512773259773271]","[-1,-1,-1]","[0.05652927874237764,-0.1088276823752782]","[1,1,1]","[0.11911677937625406,-0.05106592392059368]","[-1,-1,-1]","[0.1064736252388108,0.1569016350897291]","[1,1,1]","[0.02,0.02]",141.8143,0,7,7,92,1,,,,,,,
,,,,,,,5f0a7dec44c42c19a6c9f6d9,68317a73fb675d778214e76b,2025-05-24_03h11.29.617,cuing_paradigm_dot,2024.1.5,Win32,8.576329331,682d573fa47f1360d1451895,,,,,,,,,,,141.8147,142.2587,,,142.5642,143.5017,right,0.7892,,,,,,,,,0.6,,,,,,142.2587,142.5642,143.5018,"[-0.050330159782112596,0.03768565560120696]","[-1,-1,-1]","[0.06596753039759574,0.09265163121796817]","[1,1,1]","[-0.06271214398223984,-0.051277561765423155]","[-1,-1,-1]","[0.08698946298167501,-0.00037593290680590374]","[1,1,1]","[-0.024719922000925317,-0.18647578639505166]","[1,1,1]","[0.10458341955889469,-0.03869590549814078]","[-1,-1,-1]","[-0.026875201844229705,0.10719406292581757]","[1,1,1]","[-0.17560758527737538,0.023536313876629453]","[1,1,1]","[0.14065964322719426,0.13512267052216895]","[-1,-1,-1]","[0.025458103093263313,-0.010406708294651276]","[1,1,1]","[-0.09360090062042323,0.12333316675753382]","[-1,-1,-1]","[0.12475036401470431,-0.1460393178757699]","[-1,-1,-1]","[0.018363788516489742,0.1926593783144369]","[1,1,1]","[-0.0576636306755192,0.16258203361644705]","[-1,-1,-1]","[0.07759521718905946,0.1356545403726454]","[-1,-1,-1]","[0.005151890605962109,0.05258994840739318]","[-1,-1,-1]","[0.04763381212278866,-0.16798822026878524]","[-1,-1,-1]","[0.008150993165466561,-0.09873977497763858]","[-1,-1,-1]","[-0.1320372011870761,-0.10111435191696272]","[1,1,1]","[-0.1458249075606341,-0.008288043204133675]","[-1,-1,-1]","[-0.020471808185312093,-0.023282617475980462]","[-1,-1,-1]","[-0.08173855734509271,-0.09294230151956545]","[1,1,1]","[0.05978525505002664,-0.06532903107550475]","[1,1,1]","[0.16232622402531993,-0.020584060184782683]","[1,1,1]","[-0.04331788768929605,-0.12335950826201025]","[1,1,1]","[0.03073425812427112,0.13911767107886752]","[1,1,1]","[-0.12820522026842765,0.0694902006955518]","[1,1,1]","[-0.10656957811779838,-0.02223655147960691]","[1,1,1]","[0.06356896585584214,-0.12618768100894232]","[1,1,1]","[0.053581878176378835,0.05433743528939981]","[1,1,1]","[-0.07774332325055468,0.06860305789839403]","[1,1,1]","[-0.07035475449834454,-0.18002163549677766]","[1,1,1]","[0.02,0.02]",144.5533,0,8,8,172,1,,,,,,,
,,,,,,,5f0a7dec44c42c19a6c9f6d9,68317a73fb675d778214e76b,2025-05-24_03h11.29.617,cuing_paradigm_dot,2024.1.5,Win32,8.576329331,682d573fa47f1360d1451895,,,,,,,,,,,144.5536,144.997,,,145.1592,146.2837,left,0.9864,,,,,,,,,0.55,,,,,,144.997,145.1592,146.2837,"[0.18743927354345746,0.004539075700234558]","[-1,-1,-1]","[0.009130567404560266,-0.16314114356433332]","[-1,-1,-1]","[0.01000559219374416,0.050456324539537155]","[1,1,1]","[-0.13552961116986834,0.08944203482901177]","[-1,-1,-1]","[0.09188911274946794,0.08064628093793022]","[1,1,1]","[0.055274469565051075,-0.0364035494227286]","[1,1,1]","[0.053432305565788936,0.16932570101332284]","[1,1,1]","[0.09941550529215808,-0.16905172553436393]","[-1,-1,-1]","[0.007339403625782093,0.13417648229779955]","[-1,-1,-1]","[-0.04405561962515999,-0.016521315406337604]","[1,1,1]","[-0.16365940453073635,-0.07489773835815003]","[1,1,1]","[-0.17646677714882728,0.04044472798269077]","[1,1,1]","[-0.10324688973169369,-0.08311185987915512]","[-1,-1,-1]","[0.06367432862436594,0.023137848481818015]","[1,1,1]","[0.050091333585645485,0.07595818395739022]","[-1,-1,-1]","[-0.02593081427481145,0.10425643621353252]","[-1,-1,-1]","[0.1429381355586022,0.0028271124260861296]","[-1,-1,-1]","[-0.1287792364011493,-0.01181797928643466]","[-1,-1,-1]","[0.1240761718448889,-0.09544045468736674]","[-1,-1,-1]","[0.09780796846676275,0.13238923996902358]","[1,1,1]","[-0.06883934273658977,-0.05498770069273644]","[1,1,1]","[-0.06953942598213547,0.09054586295581664]","[1,1,1]","[-0.03239600150106469,-0.13486446844234268]","[1,1,1]","[0.1671756472585143,-0.09449429864984779]","[1,1,1]","[-0.11251707126328793,0.038535977157093074]","[-1,-1,-1]","[-0.07623778812351042,-0.18040352979621194]","[-1,-1,-1]","[-0.19728131133238763,0.004421609920692279]","[-1,-1,-1]","[-0.1784896859110891,-0.0340574482139331]","[1,1,1]","[-0.17683048618328265,0.08549999886896452]","[1,1,1]","[0.005892600183657138,-0.09873149087969287]","[1,1,1]","[-0.07023805377053403,0.03983189686190012]","[1,1,1]","[0.01086051990768668,-0.019552937148610654]","[1,1,1]","[0.02,0.02]",147.3155,0,9,9,124,1,,,,,,,
,,,,,,,5f0a7dec44c42c19a6c9f6d9,68317a73fb675d778214e76b,2025-05-24_03h11.29.617,cuing_paradigm_dot,2024.1.5,Win32,8.576329331,682d573fa47f1360d1451895,,,,,,,,,,,147.3158,147.7597,,,147.8998,148.6767,right,0.6399,,,,,,,,,0.9,,,,,,147.7597,147.8998,148.6767,"[-0.019788672500334427,-0.1895573932907452]","[1,1,1]","[0.18172881907753521,-0.04775095782903753]","[1,1,1]","[-0.09167440330971832,-0.019271154110519655]","[1,1,1]","[-0.1694759753712083,-0.043844132772193296]","[1,1,1]","[0.10202609338473155,0.09601357178909807]","[1,1,1]","[-0.11092495745800676,0.04377320813619422]","[1,1,1]","[0.0940276251945156,-0.10965225323209409]","[1,1,1]","[0.043315863389577006,-0.005856236637218003]","[1,1,1]","[-0.07194679230205364,-0.14994365575567425]","[1,1,1]","[0.07015641728039848,-0.1595321602540653]","[1,1,1]","[0.02835448614016811,0.049759805349914234]","[1,1,1]","[0.13326721927093815,0.022443152812158945]","[1,1,1]","[-0.0027101678140926686,-0.07617219823140081]","[1,1,1]","[0.004641796414390555,0.18650755071713093]","[1,1,1]","[-0.0315234291702938,0.08048860987132622]","[-1,-1,-1]","[0.15596616785743406,-0.1075751048783056]","[1,1,1]","[-0.002912891682243938,0.12306504762327283]","[1,1,1]","[0.19389451259465526,0.03040380677489388]","[1,1,1]","[-0.04240284277266855,0.021142778513830108]","[1,1,1]","[-0.10242389371551329,0.13648005540429375]","[1,1,1]","[-0.15902701998910854,-0.0857736063023512]","[-1,-1,-1]","[-0.1384886771594751,-0.010767966551316578]","[1,1,1]","[-0.055856041377080376,-0.09781336009660983]","[-1,-1,-1]","[0.072577468126372,-0.06845382566758655]","[1,1,1]","[-0.14805120299593633,0.08647954055156962]","[1,1,1]","[0.06465769635467451,0.12056334930655048]","[1,1,1]","[-0.05507671618183997,0.1639571286839843]","[1,1,1]","[0.0215387977190091,-0.15167242598539546]","[1,1,1]","[0.12152991106818122,-0.07916375288485014]","[1,1,1]","[-0.004551803495172531,0.004453573024369081]","[1,1,1]","[-0.04501983246546067,-0.05740024127913191]","[1,1,1]","[0.11208031674483551,0.13963140473070754]","[1,1,1]","[0.02,0.02]",149.7036,0,10,10,190,1,,,,,,,
,,,,,,,5f0a7dec44c42c19a6c9f6d9,68317a73fb675d778214e76b,2025-05-24_03h11.29.617,cuing_paradigm_dot,2024.1.5,Win32,8.576329331,682d573fa47f1360d1451895,,,,,,,,,,,149.7039,150.1529,,,150.4662,151.1539,left,0.5446,,,,,,,,,0.6,,,,,,150.1529,150.4661,151.154,"[0.017714778675435243,0.08625307341403414]","[-1,-1,-1]","[-0.07927414271255892,0.0227267778577795]","[1,1,1]","[0.09542196052712906,0.1437151405314981]","[-1,-1,-1]","[-0.008329365181023186,-0.0726129551471804]","[1,1,1]","[-0.012979103280784275,-0.13879978138564594]","[-1,-1,-1]","[-0.1152812406832675,-0.08839659234874996]","[1,1,1]","[-0.055343542430156885,0.10715062419524148]","[1,1,1]","[-0.16321384344938616,-0.10191715884265912]","[1,1,1]","[0.15596940563799358,-0.10308222418566827]","[-1,-1,-1]","[0.15056474895389976,0.09932924865902612]","[-1,-1,-1]","[0.1354931150138472,-0.14574591573949913]","[1,1,1]","[-0.1296707260829608,0.06936199783409823]","[1,1,1]","[0.09942088733599748,0.08521782174930215]","[-1,-1,-1]","[0.07353739599971928,-0.06152990320206541]","[-1,-1,-1]","[-0.0715881423551377,0.18150897344324438]","[1,1,1]","[-0.037172007047024766,0.015345306711924035]","[1,1,1]","[-0.02472106662779046,0.17071918265048996]","[1,1,1]","[-0.021182488101522186,-0.1915932169667622]","[-1,-1,-1]","[-0.12327455298515953,-0.01358692020927695]","[1,1,1]","[-0.052730024647966056,-0.028428760707830337]","[1,1,1]","[0.04818484971040332,0.005198950364913872]","[1,1,1]","[-0.06926245038209797,-0.0773279510160781]","[-1,-1,-1]","[0.11684966890742503,-0.06445003958311304]","[-1,-1,-1]","[0.011377987396079925,-0.03204301237556574]","[1,1,1]","[-0.08083688722858248,0.13927777802257701]","[1,1,1]","[-0.05813194336513691,-0.16984683261649564]","[-1,-1,-1]","[0.08237095449844888,-0.12259602578218352]","[1,1,1]","[0.1620851978904505,0.026544004592011786]","[1,1,1]","[0.19151350544341017,-0.04389163213292751]","[1,1,1]","[-0.1800889642495344,-0.050345854321433986]","[-1,-1,-1]","[0.09365484258469504,-0.014608132975203556]","[1,1,1]","[0.06021629130430965,0.06708259623856193]","[-1,-1,-1]","[0.02,0.02]",152.2195,0,11,11,173,1,,,,,,,
,,,,,,,5f0a7dec44c42c19a6c9f6d9,68317a73fb675d778214e76b,2025-05-24_03h11.29.617,cuing_paradigm_dot,2024.1.5,Win32,8.576329331,682d573fa47f1360d1451895,,,,,,,,,,,152.2199,152.655,,,152.9466,153.5527,right,0.4714,,,,,,,,,0.9,,,,,,152.6551,152.9465,153.5527,"[-0.12032280233088916,0.02972564301282042]","[1,1,1]","[0.0011980826179420338,0.012250713796273792]","[1,1,1]","[0.15799337631724164,-0.08859756960102103]","[1,1,1]","[-0.010656206679394634,0.1926026252517477]","[1,1,1]","[0.1696168815038926,-0.04777491659487986]","[1,1,1]","[-0.07332399055459887,0.07554410223368424]","[-1,-1,-1]","[-0.029224943449264768,-0.05069153631567315]","[1,1,1]","[-0.0973731431286764,0.16791799167570695]","[1,1,1]","[0.09160417868573575,0.046328372954051365]","[1,1,1]","[0.015078514753301844,-0.14770290191091665]","[1,1,1]","[0.12858884153054254,0.09975369964569665]","[1,1,1]","[0.06856332492648719,0.17721847551925785]","[1,1,1]","[-0.14344033307041906,-0.06103778810051437]","[1,1,1]","[0.02029094010215702,0.13407701896996488]","[1,1,1]","[0.15187621316812153,0.011141265123521992]","[1,1,1]","[-0.18070286204827626,0.018092454259488095]","[1,1,1]","[-0.07283963466038898,-0.16727557749885624]","[1,1,1]","[0.03615720975708457,0.07956511408929205]","[1,1,1]","[-0.047621269963690094,0.03275624752131311]","[1,1,1]","[-0.1103524676971718,0.10802650978583261]","[1,1,1]","[0.0662216707652326,0.11445384939664908]","[1,1,1]","[0.11141872071364955,0.15944122071629038]","[1,1,1]","[-0.059706861401815026,0.14976329858051463]","[1,1,1]","[0.14453561316401992,0.0538542982248425]","[1,1,1]","[-0.024664059811604695,0.10199799636288491]","[1,1,1]","[0.1861716671672939,0.06979642753648567]","[1,1,1]","[0.05953108108684688,-0.08787867839109414]","[1,1,1]","[-0.11491273630167516,-0.15285644518040958]","[-1,-1,-1]","[-0.07299596707872731,-0.12550929306709427]","[1,1,1]","[-0.15899119525123415,0.07188464086580842]","[-1,-1,-1]","[0.1047754422558627,-0.029645048006495173]","[1,1,1]","[-0.09262463382170616,-0.06309629178368492]","[1,1,1]","[0.02,0.02]",154.5989,0,12,12,204,1,,,,,,,
,,,,,,,5f0a7dec44c42c19a6c9f6d9,68317a73fb675d778214e76b,2025-05-24_03h11.29.617,cuing_paradigm_dot,2024.1.5,Win32,8.576329331,682d573fa47f1360d1451895,,,,,,,,,,,154.5993,155.048,,,155.2084,156.2926,left,0.9376,,,,,,,,,0.55,,,,,,155.048,155.2084,156.2927,"[-0.06557576075071538,-0.062345210870072866]","[-1,-1,-1]","[-0.12063054974680112,-0.062461459377179604]","[1,1,1]","[0.10075850341128086,-0.08013865991152609]","[1,1,1]","[-0.09063049641850948,-0.10485018614822517]","[1,1,1]","[-0.016772748729396273,0.120157739250616]","[1,1,1]","[-0.028766413137240304,0.18666299669947242]","[-1,-1,-1]","[-0.015866736968704113,0.0777916176957027]","[1,1,1]","[-0.10536973479915052,0.020330476642241517]","[-1,-1,-1]","[0.18185925554149238,0.06986409755655766]","[-1,-1,-1]","[0.0692931025999596,0.16434240590225374]","[1,1,1]","[-0.1557088181320315,0.08229694354484651]","[-1,-1,-1]","[0.045468823885205095,-0.024277214525138063]","[-1,-1,-1]","[-0.17389893502757947,0.03154255336879749]","[1,1,1]","[-0.11062839935264669,0.07507290129714134]","[-1,-1,-1]","[-0.16257977847110758,-0.03331528295526532]","[1,1,1]","[-0.01099387786609524,-0.19347586749638174]","[-1,-1,-1]","[0.1516765526307843,-0.027853813409035526]","[1,1,1]","[0.008539445568433902,0.15813176365206835]","[-1,-1,-1]","[0.1333936430781218,0.07839144061923169]","[-1,-1,-1]","[0.10105657583145594,-0.0022521213104486166]","[-1,-1,-1]","[0.03085908761948466,0.02395057689631888]","[-1,-1,-1]","[-0.07470645668733139,-0.17152344581382253]","[-1,-1,-1]","[0.004064362322570809,-0.027081408612821566]","[1,1,1]","[0.06938459670374258,0.08375703059335991]","[1,1,1]","[0.1617910990309246,0.02178426687457502]","[1,1,1]","[0.06108863218997656,-0.13068206313531266]","[1,1,1]","[0.10924212265511964,-0.1320144458524577]","[1,1,1]","[-0.12277131763535508,0.13921371380826622]","[1,1,1]","[0.01804901311514494,-0.11340791277785303]","[1,1,1]","[-0.05205510898726827,0.15068417923423708]","[1,1,1]","[0.06723913801599672,-0.18189979340837045]","[1,1,1]","[-0.0273349618172384,0.023463223566698048]","[-1,-1,-1]","[0.02,0.02]",157.3384,0,13,13,130,1,,,,,,,
,,,,,,,5f0a7dec44c42c19a6c9f6d9,68317a73fb675d778214e76b,2025-05-24_03h11.29.617,cuing_paradigm_dot,2024.1.5,Win32,8.576329331,682d573fa47f1360d1451895,,,,,,,,,,,157.339,157.7705,,,157.9135,159.025,left,0.9669,,,,,,,,,0.45,,,,,,157.7706,157.9135,159.0251,"[-0.007977598801767178,0.024452475231407107]","[1,1,1]","[0.031782963537328186,-0.10704249410486098]","[1,1,1]","[-0.10917753415680724,-0.12771531081272125]","[-1,-1,-1]","[0.06848069561899252,0.14994992591241277]","[-1,-1,-1]","[0.004671581138653972,0.08105671431273354]","[-1,-1,-1]","[0.05163124412183943,0.1887202821335033]","[-1,-1,-1]","[-0.15555767942271634,0.11615667214753189]","[1,1,1]","[0.027754316325913003,0.12866543414767798]","[-1,-1,-1]","[0.1398889821697076,-0.037242224874363586]","[1,1,1]","[0.15894315670748108,0.011819436062433943]","[1,1,1]","[-0.14104388235894746,-0.04191095683844646]","[-1,-1,-1]","[-0.013448304389955949,-0.08326423475013453]","[-1,-1,-1]","[0.09319644097139111,0.0251526226178162]","[-1,-1,-1]","[0.12838873587972807,0.13207837871338507]","[-1,-1,-1]","[-0.08351217721189526,-0.03820526499525036]","[-1,-1,-1]","[0.06298463475392722,0.10933284989344491]","[1,1,1]","[0.06702115268697853,-0.15648939636729425]","[-1,-1,-1]","[-0.06234406671502586,0.031840903179706476]","[1,1,1]","[0.11318779313441392,-0.0677076905844343]","[-1,-1,-1]","[-0.049333011419761943,-0.18518315886328274]","[-1,-1,-1]","[0.12963569138608252,0.08110937121735505]","[1,1,1]","[-0.11851865763572267,0.07257470157761109]","[1,1,1]","[-0.07199698953194468,0.10359725422487058]","[-1,-1,-1]","[-0.01676218003477115,0.18652633358729018]","[1,1,1]","[0.02888027063073217,-0.028602616875865954]","[1,1,1]","[-0.03948699033885131,-0.12261730134905363]","[-1,-1,-1]","[-0.13298638782793198,-0.0946715163527402]","[-1,-1,-1]","[0.1934124035609857,-0.01084831179395404]","[1,1,1]","[-0.01133357684459177,-0.16668393887631894]","[-1,-1,-1]","[0.05771590182385084,-0.0633259751121698]","[1,1,1]","[-0.09436842223358329,0.17484886600462313]","[1,1,1]","[0.12627930589482253,-0.13480172413783995]","[-1,-1,-1]","[0.02,0.02]",160.0672,0,14,14,89,1,,,,,,,
,,,,,,,5f0a7dec44c42c19a6c9f6d9,68317a73fb675d778214e76b,2025-05-24_03h11.29.617,cuing_paradigm_dot,2024.1.5,Win32,8.576329331,682d573fa47f1360d1451895,,,,,,,,,,,160.0676,160.5266,,,160.6959,161.6301,left,0.7882,,,,,,,,,0.1,,,,,,160.5266,160.6958,161.6301,"[0.07204407601772193,0.004743437739777153]","[1,1,1]","[-0.0518486776056871,0.15172939314737502]","[-1,-1,-1]","[0.01579397658240109,0.12367079981401054]","[-1,-1,-1]","[0.16204814075018953,-0.06565345338082614]","[-1,-1,-1]","[0.06935982013820856,-0.1143165912694688]","[-1,-1,-1]","[0.06422391593823676,0.18871853243883308]","[-1,-1,-1]","[0.14569857200034475,0.13568081235295795]","[-1,-1,-1]","[-0.08498037670719237,-0.12000814036592629]","[-1,-1,-1]","[-0.0046864700879980375,-0.13504624263249002]","[-1,-1,-1]","[0.10452768380193773,-0.09286166476879798]","[-1,-1,-1]","[0.15322823094058052,-0.1245330123374875]","[1,1,1]","[0.0658788648804875,-0.0493856813882747]","[-1,-1,-1]","[-0.17945465329956478,-0.011981534441744178]","[-1,-1,-1]","[0.025176673314117375,-0.07210673615092905]","[-1,-1,-1]","[-0.04041193711927641,0.02648817419357366]","[-1,-1,-1]","[-0.1304924789779497,0.11888771110692208]","[-1,-1,-1]","[-0.09008046275571299,-0.17625345369647066]","[-1,-1,-1]","[-0.0388062825775312,-0.10897368281165089]","[-1,-1,-1]","[0.11406782087485057,0.09453162473280052]","[-1,-1,-1]","[0.16117545144251294,0.057513440968865834]","[-1,-1,-1]","[0.07251524465506695,0.1393201525226338]","[-1,-1,-1]","[0.10595775780326586,-0.16891934442537043]","[-1,-1,-1]","[0.1692913454488802,-0.020847893694800862]","[-1,-1,-1]","[-0.10536563269488464,-0.017771186736281093]","[-1,-1,-1]","[-0.12797494779855811,-0.10368729026054424]","[-1,-1,-1]","[-0.08829907688410284,-0.057220715435173854]","[-1,-1,-1]","[0.09596228095003795,0.039144776084223794]","[-1,-1,-1]","[0.022889488456070292,0.07193229277045558]","[-1,-1,-1]","[-0.13500458759525297,0.02657635689320371]","[1,1,1]","[-0.007611975650877486,0.1580851888605981]","[-1,-1,-1]","[0.023483635146581725,-0.17035270548959316]","[-1,-1,-1]","[-0.04096841492466847,-0.04656133393239128]","[-1,-1,-1]","[0.02,0.02]",162.6711,0,15,15,4,1,,,,,,,
,,,,,,,5f0a7dec44c42c19a6c9f6d9,68317a73fb675d778214e76b,2025-05-24_03h11.29.617,cuing_paradigm_dot,2024.1.5,Win32,8.576329331,682d573fa47f1360d1451895,,,,,,,,,,,162.6715,163.0967,,,163.2413,164.1661,right,0.7624,,,,,,,,,0.5,,,,,,163.0967,163.2413,164.1662,"[0.06797953078190423,0.07196614288574052]","[1,1,1]","[0.10144984898683604,0.09960604103369332]","[1,1,1]","[-0.029487883856324056,0.12345573595654719]","[-1,-1,-1]","[0.13954828987852252,0.0663456413642356]","[-1,-1,-1]","[-0.1794902977028427,-0.06334763254215876]","[-1,-1,-1]","[0.09859902954054023,0.04077814925947764]","[-1,-1,-1]","[-0.15777486115550712,-0.1016187710007308]","[1,1,1]","[0.1567924027049046,-0.09905230309934222]","[1,1,1]","[0.0858748998633422,-0.026045638955534453]","[1,1,1]","[-0.15505445623954417,0.09842433462396274]","[1,1,1]","[0.038935351528361514,0.15215456356285237]","[-1,-1,-1]","[-0.12511218524632492,0.00392963029370764]","[-1,-1,-1]","[-0.1020225470601258,0.17069620082449502]","[1,1,1]","[0.09590465415065791,-0.07117644024524082]","[-1,-1,-1]","[0.13432039215414848,-0.010796408860909693]","[1,1,1]","[0.05351007891484688,-0.08115990031759657]","[-1,-1,-1]","[-0.06705986933614691,-0.02966789094358183]","[1,1,1]","[-0.010153035853899851,0.1786372029843419]","[-1,-1,-1]","[0.1854799302735913,-0.011568996582825076]","[1,1,1]","[-0.03043367756578211,-0.11955571389850793]","[1,1,1]","[-0.13905388119686404,0.13938463371282475]","[1,1,1]","[-0.07643593700387868,0.09701951958833994]","[-1,-1,-1]","[0.008852568227535369,-0.1980835055861557]","[-1,-1,-1]","[-0.040254233261997896,-0.06415138919547704]","[-1,-1,-1]","[-0.10540170300209849,-0.1072412836550233]","[1,1,1]","[-0.17637783452378922,-0.006478487051453256]","[-1,-1,-1]","[0.01619280077045097,0.10662979988803511]","[-1,-1,-1]","[0.035512995112714996,-0.04041620245488113]","[1,1,1]","[0.01830303143694066,0.01428441114468496]","[-1,-1,-1]","[-0.05595070897630931,0.1795832768297592]","[1,1,1]","[-0.06315673362634336,0.054262094977965504]","[-1,-1,-1]","[0.10611783373485645,-0.14995706772626985]","[1,1,1]","[0.02,0.02]",165.1824,0,16,16,119,1,,,,,,,
,,,,,,,5f0a7dec44c42c19a6c9f6d9,68317a73fb675d778214e76b,2025-05-24_03h11.29.617,cuing_paradigm_dot,2024.1.5,Win32,8.576329331,682d573fa47f1360d1451895,,,,,,,,,,,165.1827,165.6092,,,165.7491,166.6729,right,0.7868,,,,,,,,,0.6,,,,,,165.6093,165.7491,166.673,"[0.032415856699123044,-0.15850435071876942]","[-1,-1,-1]","[0.03858557509377439,0.11270655521009999]","[1,1,1]","[0.04406224322448432,0.05109686906530991]","[1,1,1]","[-0.19503332111053084,-0.014420059205743907]","[-1,-1,-1]","[-0.07507999693545164,-0.03801341037043161]","[1,1,1]","[0.1336708175628836,0.06319990827135184]","[1,1,1]","[-0.1624270311969536,-0.11282174580511874]","[1,1,1]","[-0.038716858262543306,-0.13195283199101407]","[1,1,1]","[0.09332105348092683,0.0799522625985786]","[-1,-1,-1]","[0.09191282814786467,-0.15928655608044018]","[-1,-1,-1]","[-0.028496279764794265,-0.05726551953316648]","[1,1,1]","[0.11616840350212264,-0.01760641775726489]","[1,1,1]","[0.11846577058719747,0.14002894168402186]","[1,1,1]","[0.05008439614014255,0.16617321765028184]","[1,1,1]","[0.15925305276925827,0.0006835645934946962]","[-1,-1,-1]","[-0.0015055736704099572,-0.0027408439846896056]","[1,1,1]","[-0.07307341991662479,0.16705348799506087]","[-1,-1,-1]","[-0.04556884768815068,0.011462397478139274]","[1,1,1]","[-0.13448277553129168,-0.04303856458012404]","[1,1,1]","[0.17360367373362853,-0.08815855195919432]","[-1,-1,-1]","[-0.07880432578909478,0.0816401685415623]","[-1,-1,-1]","[-0.04545231471189912,0.1038042290193985]","[-1,-1,-1]","[-0.004667755059952014,-0.1778840232750311]","[-1,-1,-1]","[-0.15256220127497963,0.0973973160962645]","[1,1,1]","[0.05375208064590056,-0.12393874567893419]","[1,1,1]","[0.19185854559973883,-0.04053583693914656]","[-1,-1,-1]","[-0.009331756735996212,0.15750489829202727]","[-1,-1,-1]","[0.13860868402509155,-0.12738912638457198]","[1,1,1]","[-0.0006456606194440487,-0.09266841648313325]","[1,1,1]","[-0.008859064415540912,0.06096838081048761]","[-1,-1,-1]","[0.1981487447279792,0.01080524751503258]","[1,1,1]","[-0.09668014756124291,0.12766574045013473]","[1,1,1]","[0.02,0.02]",167.6856,0,17,17,170,1,,,,,,,
,,,,,,,5f0a7dec44c42c19a6c9f6d9,68317a73fb675d778214e76b,2025-05-24_03h11.29.617,cuing_paradigm_dot,2024.1.5,Win32,8.576329331,682d573fa47f1360d1451895,,,,,,,,,,,167.6858,168.1118,,,168.2548,169.192,right,0.7874,,,,,,,,,0.6,,,,,,168.1118,168.2547,169.1921,"[-0.11443890029697949,0.04149227446171641]","[1,1,1]","[0.1681600317331372,0.07416824275703189]","[-1,-1,-1]","[0.06614070285252265,0.01088205105099222]","[1,1,1]","[-0.15191080939039567,-0.013701334410916383]","[1,1,1]","[-0.1210466661571142,-0.14228121381794323]","[-1,-1,-1]","[0.08092461959762362,-0.15212526555380998]","[-1,-1,-1]","[0.12564273899551115,0.06969749570573869]","[1,1,1]","[-0.009724193086715977,-0.06603831061921182]","[1,1,1]","[0.1000851821102847,-0.09715286602805102]","[1,1,1]","[0.0022976566990347263,-0.12225191791782623]","[1,1,1]","[0.011898790163609837,0.06717148626667026]","[-1,-1,-1]","[0.1082987025614763,-0.0179121142265085]","[1,1,1]","[-0.026499919365766532,-0.0282643691262861]","[1,1,1]","[-0.07539659101926598,-0.06057509874428564]","[1,1,1]","[0.1679196998667365,-0.1015137886662749]","[-1,-1,-1]","[-0.10231496772472921,0.16274467044226956]","[-1,-1,-1]","[0.049271670571819484,-0.18544165088581333]","[1,1,1]","[0.17547329807448037,-0.046760589335113636]","[-1,-1,-1]","[-0.0019779781305061038,0.19901354022516834]","[1,1,1]","[0.1320449487700401,0.13024974845807824]","[1,1,1]","[-0.1467760103588464,0.12107142538062896]","[-1,-1,-1]","[-0.197760809741991,0.004894302375664046]","[-1,-1,-1]","[-0.09998806868394484,0.11879604597775456]","[-1,-1,-1]","[-0.15915043041750662,-0.08727221791983931]","[1,1,1]","[0.05887494651969746,0.08703620423368365]","[1,1,1]","[-0.08163926367337485,-0.11920319480571104]","[1,1,1]","[-0.05856046879247197,0.12516005818092857]","[-1,-1,-1]","[-0.1612479536485301,0.08297329519247482]","[1,1,1]","[0.06325008131841316,-0.04896639384964645]","[-1,-1,-1]","[0.19776346215122295,-0.002014920192755487]","[1,1,1]","[0.0020536617902792566,-0.19394175334408745]","[1,1,1]","[0.07985243300902048,0.13921512669191463]","[-1,-1,-1]","[0.02,0.02]",170.2276,0,18,18,166,1,,,,,,,
,,,,,,,5f0a7dec44c42c19a6c9f6d9,68317a73fb675d778214e76b,2025-05-24_03h11.29.617,cuing_paradigm_dot,2024.1.5,Win32,8.576329331,682d573fa47f1360d1451895,,,,,,,,,,,170.228,170.676,,,170.8215,172.0523,left,1.0845,0.0002,,,,,,,,0.45,,,,,,170.6761,170.8215,172.0524,"[-0.07114535575813587,0.06111157677043857]","[-1,-1,-1]","[0.03611933012004352,0.12056534261797311]","[-1,-1,-1]","[-0.02524156544259413,0.18467784932589731]","[1,1,1]","[0.09947324048652652,0.09992459789136186]","[1,1,1]","[0.09200338567419472,-0.03277762480208316]","[1,1,1]","[0.056241764394674966,0.021334832501131044]","[1,1,1]","[-0.005675946438519497,-0.0406118408536364]","[-1,-1,-1]","[-0.07818181097475116,-0.046468302893915035]","[1,1,1]","[-0.009281169382659825,-0.09340560494835952]","[1,1,1]","[0.14829985610480131,-0.05815664427507475]","[-1,-1,-1]","[-0.05785232329041136,0.017764621069193118]","[-1,-1,-1]","[0.06485808028820482,-0.1370407963685984]","[-1,-1,-1]","[-0.1836202120066563,-0.07607647186266875]","[-1,-1,-1]","[-0.11833408286714879,0.002898948402403673]","[1,1,1]","[-0.1507737803546188,0.06112746718992058]","[-1,-1,-1]","[-0.08855499641245075,-0.15756345200095875]","[-1,-1,-1]","[0.17845890460660296,-0.009076833969051217]","[1,1,1]","[0.14153716303901961,-0.12889642480465235]","[1,1,1]","[0.013679246734455716,0.057625704063123326]","[1,1,1]","[0.1677136499585447,0.03075572226320224]","[-1,-1,-1]","[-0.11626774821287418,0.14800041205664263]","[-1,-1,-1]","[0.16769376622145146,0.09034741622670876]","[1,1,1]","[0.04113882315181202,-0.050264627045841045]","[-1,-1,-1]","[-0.005164071732256275,0.009840458837095637]","[-1,-1,-1]","[0.0009167337165622694,0.1529877733851746]","[-1,-1,-1]","[0.11977168640842119,0.027852809682397527]","[-1,-1,-1]","[0.09424566593117985,0.16856668062174818]","[-1,-1,-1]","[0.06015760106615382,-0.17905274805311228]","[1,1,1]","[-0.10933109714109365,-0.07621008197572146]","[-1,-1,-1]","[-0.02550727889533916,0.09842207136702405]","[-1,-1,-1]","[-0.0666707232869998,0.12821106348641478]","[1,1,1]","[0.06751632939201585,0.06656372849277245]","[1,1,1]","[0.02,0.02]",173.0644,0,19,19,84,1,,,,,,,
,,,,,,,5f0a7dec44c42c19a6c9f6d9,68317a73fb675d778214e76b,2025-05-24_03h11.29.617,cuing_paradigm_dot,2024.1.5,Win32,8.576329331,682d573fa47f1360d1451895,,,,,,,,,,,173.0648,173.5164,,,173.6689,174.757,left,0.942,,,,,,,,,0.5,,,,,,173.5165,173.6688,174.757,"[0.1460842103297111,0.07468041158841919]","[1,1,1]","[-0.1769364896843541,0.05084506268448035]","[-1,-1,-1]","[-0.1217045651808609,-0.0005311642829937186]","[1,1,1]","[-0.042722559651200226,-0.10651121852148765]","[-1,-1,-1]","[0.08748793346885368,0.09839773243078156]","[1,1,1]","[-0.059083701675511455,-0.06643683583181163]","[-1,-1,-1]","[0.02567858206059569,0.05299628920876177]","[1,1,1]","[-0.021755132733228773,0.10897743991068395]","[1,1,1]","[-0.014281585344841535,-0.1373252173441803]","[-1,-1,-1]","[-0.18920485072828488,-0.05711478925860517]","[1,1,1]","[-0.04492488120378465,0.15758924963902327]","[1,1,1]","[0.1013620049962862,-0.07951177992195384]","[1,1,1]","[-0.1329194024672659,0.05096101358011145]","[-1,-1,-1]","[0.007526823745862357,-0.07861818908035674]","[-1,-1,-1]","[0.10849040810247076,-0.004043259263556796]","[-1,-1,-1]","[0.15275236669002762,-0.06385029567367555]","[-1,-1,-1]","[0.11604955456750281,-0.12412103618502748]","[1,1,1]","[-0.09475606603882965,0.06553890716782036]","[1,1,1]","[0.0488520297445982,-0.03926813715760706]","[-1,-1,-1]","[0.10686939584545417,0.04688624722096771]","[-1,-1,-1]","[-0.043368413990205155,-0.02890124589433659]","[-1,-1,-1]","[-0.09708141168941661,-0.12772144333915753]","[-1,-1,-1]","[-0.10442887673465368,0.13130414226399026]","[-1,-1,-1]","[0.06886389210689123,-0.10617936604618732]","[1,1,1]","[0.011703093188651974,-0.011663921704112385]","[1,1,1]","[-0.05637930840134374,-0.17534916646617602]","[1,1,1]","[-0.015936911908249814,0.05653406838951939]","[-1,-1,-1]","[-0.15275652670632525,-0.11437163656860662]","[1,1,1]","[0.04050400251843937,-0.1954123880598283]","[-1,-1,-1]","[0.11179735780097347,0.13660527737465034]","[1,1,1]","[0.17550552925527335,0.032618969546704346]","[-1,-1,-1]","[-0.10741375690750753,-0.07892265341865984]","[1,1,1]","[0.02,0.02]",175.7964,0,20,20,97,1,,,,,,,
,,,,,,,5f0a7dec44c42c19a6c9f6d9,68317a73fb675d778214e76b,2025-05-24_03h11.29.617,cuing_paradigm_dot,2024.1.5,Win32,8.576329331,682d573fa47f1360d1451895,,,,,,,,,,,175.797,176.2298,,,176.3796,177.4924,right,0.9664,,,,,,,,,0.45,,,,,,176.2298,176.3796,177.4924,"[0.06399529966694262,0.09223561338554659]","[1,1,1]","[-0.07601237763756787,-0.002764498313968888]","[1,1,1]","[0.1411543704822119,-0.11831664628524222]","[-1,-1,-1]","[0.03212976728061821,0.0450803165629038]","[1,1,1]","[0.002872953796014332,-0.04489221085704898]","[1,1,1]","[-0.03985417100455328,0.1773504575357781]","[-1,-1,-1]","[0.11084945102959366,0.05193444919046474]","[1,1,1]","[0.05660349596085744,0.007536042723560507]","[-1,-1,-1]","[-0.1784178630709571,-0.06994713311597123]","[1,1,1]","[0.13685669169632925,-0.07753201651010164]","[1,1,1]","[-0.008991913645813353,0.07567114623087481]","[1,1,1]","[-0.11904965891763745,-0.02879207387646181]","[1,1,1]","[-0.15102007418842103,-0.12419111556613058]","[-1,-1,-1]","[0.10354617940622168,-0.1656047790835055]","[-1,-1,-1]","[-0.08715433804856204,-0.17378317002316768]","[1,1,1]","[-0.02763796563662301,-0.17203531471257585]","[1,1,1]","[-0.049439714799771474,0.0821968051775094]","[-1,-1,-1]","[-0.07488233921356056,-0.1146433298577518]","[-1,-1,-1]","[0.04437741828971258,-0.05389488676283581]","[-1,-1,-1]","[0.1623451425844234,0.10148222626796662]","[-1,-1,-1]","[-0.09374687647692095,0.059174551423038825]","[-1,-1,-1]","[-0.007666927549318204,0.013106643893754157]","[-1,-1,-1]","[0.18795789666979973,0.02017638848450666]","[-1,-1,-1]","[0.15915453165733082,-0.011503186500354987]","[1,1,1]","[-0.06056011021312343,-0.04682538528532297]","[1,1,1]","[0.039023462089925375,-0.18763394750244097]","[-1,-1,-1]","[0.054504886798908615,-0.1232299809622346]","[-1,-1,-1]","[-0.13081630580985606,0.09564162290414199]","[-1,-1,-1]","[0.10603316043735538,-0.014750298390678889]","[-1,-1,-1]","[0.015394626764960036,0.12581309697301532]","[1,1,1]","[0.14771871150435176,0.034912104575619794]","[-1,-1,-1]","[0.09830575916976918,0.1308507069134683]","[-1,-1,-1]","[0.02,0.02]",178.5129,0,21,21,71,1,,,,,,,
,,,,,,,5f0a7dec44c42c19a6c9f6d9,68317a73fb675d778214e76b,2025-05-24_03h11.29.617,cuing_paradigm_dot,2024.1.5,Win32,8.576329331,682d573fa47f1360d1451895,,,,,,,,,,,178.5132,178.9579,,,179.1076,180.0455,right,0.7858,0.0002,,,,,,,,0.6,,,,,,178.958,179.1075,180.0455,"[0.06884571566801298,-0.008458615667537535]","[1,1,1]","[0.11626779099724645,0.05239572707190903]","[-1,-1,-1]","[-0.08509327510190068,0.11928544822281527]","[1,1,1]","[-0.13529680769668076,-0.01561561058012593]","[-1,-1,-1]","[0.020103639067131418,0.15800705191278164]","[1,1,1]","[0.18329716097573634,0.06431480574290803]","[1,1,1]","[-0.03622310495137951,0.03285184709736675]","[1,1,1]","[-0.10618344758946303,-0.07604399944506175]","[-1,-1,-1]","[-0.17908572743713305,0.05403337421852815]","[1,1,1]","[0.16872648562649625,-0.04617626043626772]","[1,1,1]","[0.028183848070809876,0.044734984751580206]","[-1,-1,-1]","[-0.06406246721913157,-0.17316656834112534]","[1,1,1]","[0.07776903616100661,0.12071214280245492]","[1,1,1]","[-0.0652183368670598,-0.06210228709238286]","[1,1,1]","[-0.05724516303783922,0.0729402002146719]","[-1,-1,-1]","[0.11697642075708005,-0.12812197235806894]","[1,1,1]","[-0.18033630590143296,-0.04236424955031656]","[-1,-1,-1]","[0.038662437114431375,-0.047162930776711715]","[1,1,1]","[0.0176331138697657,0.0010761279749223404]","[-1,-1,-1]","[-0.10954698857216086,0.04641909512371205]","[1,1,1]","[-0.12753706652827415,-0.11857133247179426]","[-1,-1,-1]","[0.1602857401961538,0.11616443627710159]","[-1,-1,-1]","[-0.15014145306027157,-0.08493999976374987]","[1,1,1]","[-0.055308527419772255,0.1843654697238795]","[1,1,1]","[-0.08883275533035662,-0.13615844811967914]","[1,1,1]","[-0.12220174482947992,0.14883156527334168]","[1,1,1]","[0.08329203719998156,-0.06364086914347672]","[1,1,1]","[0.03269906376383639,-0.15887124059572355]","[-1,-1,-1]","[0.1023722584086264,0.01460166141805409]","[1,1,1]","[0.008632385252864114,-0.10605670798580688]","[-1,-1,-1]","[0.14141095700257408,-0.09157438514502592]","[-1,-1,-1]","[0.15892234722323156,0.00046733587312048394]","[-1,-1,-1]","[0.02,0.02]",181.0931,0,22,22,151,1,,,,,,,
,,,,,,,5f0a7dec44c42c19a6c9f6d9,68317a73fb675d778214e76b,2025-05-24_03h11.29.617,cuing_paradigm_dot,2024.1.5,Win32,8.576329331,682d573fa47f1360d1451895,,,,,,,,,,,181.0934,181.5413,,,181.8391,182.7544,left,0.7756,,,,,,,,,0.4,,,,,,181.5413,181.839,182.7544,"[-0.0450737797563508,-0.17518096661305624]","[-1,-1,-1]","[0.06153042702469587,-0.12727267349835347]","[-1,-1,-1]","[-0.11879217845372571,-0.10687366523633011]","[-1,-1,-1]","[0.08316782539140172,0.18079129264658228]","[1,1,1]","[-0.047820717863646,0.17265764446353615]","[-1,-1,-1]","[-0.02948721087819358,0.0779771311684495]","[1,1,1]","[0.045161156806416324,-0.058386138987831515]","[-1,-1,-1]","[0.0915519711870281,-0.03847195105694023]","[-1,-1,-1]","[0.12644413240445357,-0.010015278235169437]","[1,1,1]","[0.05082995465559556,0.1317986606169309]","[1,1,1]","[0.036747201453909535,0.08588832835343321]","[1,1,1]","[0.008912923660228928,0.016006286019929865]","[1,1,1]","[0.025219347148334417,-0.10242856582491279]","[1,1,1]","[0.16388523074379768,0.09714939768197524]","[1,1,1]","[0.13684762395374078,0.128085577669658]","[1,1,1]","[0.052128554366447456,-0.1665843322371793]","[-1,-1,-1]","[0.11308070551802456,0.062481478747042817]","[-1,-1,-1]","[-0.16226666231419168,0.028121943950786515]","[1,1,1]","[-0.10435507914217862,0.16239208949095946]","[-1,-1,-1]","[0.07925965934071252,-0.08371186960165548]","[-1,-1,-1]","[-0.10522064169174872,0.09481240820960246]","[-1,-1,-1]","[-0.08433147201273142,-0.031553159980863145]","[-1,-1,-1]","[-0.06237777080326277,0.024335598933557176]","[-1,-1,-1]","[0.06435679162902094,-0.0030113586772474795]","[1,1,1]","[-0.16761824848068824,0.09021681583582412]","[-1,-1,-1]","[-0.1487042427391878,-0.06535632814195945]","[-1,-1,-1]","[0.0006624297663400697,-0.13540852556061064]","[1,1,1]","[0.15241430352072496,0.03623733674349075]","[-1,-1,-1]","[0.17088804913282102,-0.09147906377145022]","[-1,-1,-1]","[-0.08088438602654369,-0.07902221960102435]","[-1,-1,-1]","[0.18250135298220177,-0.000958689695640223]","[-1,-1,-1]","[0.0949378037342607,-0.16944636577662758]","[1,1,1]","[0.02,0.02]",183.756,0,23,23,44,1,,,,,,,
,,,,,,,5f0a7dec44c42c19a6c9f6d9,68317a73fb675d778214e76b,2025-05-24_03h11.29.617,cuing_paradigm_dot,2024.1.5,Win32,8.576329331,682d573fa47f1360d1451895,,,,,,,,,,,183.7575,184.2041,,,184.3618,185.1569,right,0.6486,,,,,,,,,0.9,,,,,,184.2041,184.3618,185.1569,"[-0.06577629931947296,0.04183336912350533]","[1,1,1]","[0.00424005755237241,0.014780335926090305]","[1,1,1]","[0.022169156000212253,0.1053814439310667]","[1,1,1]","[-0.023945845931046105,-0.1299531312380547]","[1,1,1]","[0.09254629218339439,0.06571860203322201]","[1,1,1]","[-0.07942025880581947,-0.1758429978029907]","[1,1,1]","[-0.09961930420903932,-0.09242480131824747]","[1,1,1]","[-0.13910897050183885,0.05731325970398155]","[1,1,1]","[0.10671347373876232,-0.1376247121584547]","[1,1,1]","[-0.030251576570460213,0.09244925944631541]","[1,1,1]","[0.15146198588986962,0.010082136955738164]","[1,1,1]","[-0.1955329576486531,0.028464520695760834]","[1,1,1]","[-0.06093621506479901,-0.06812566614889426]","[1,1,1]","[-0.11782345501501935,0.09976531507697989]","[1,1,1]","[0.10167738105072968,-0.04394103666531743]","[1,1,1]","[-0.029587784053090926,-0.19129754998890366]","[-1,-1,-1]","[-0.17367566204909718,-0.05316500784681327]","[1,1,1]","[0.036921584072106266,0.1725818015906248]","[1,1,1]","[0.1782536942709482,-0.0713519591171961]","[-1,-1,-1]","[-0.09661795421908886,0.15185656827756305]","[-1,-1,-1]","[0.18939715530055581,-0.029452242251931167]","[1,1,1]","[0.09059039788478264,0.0022133189855462754]","[1,1,1]","[-0.12693111673757196,-0.03895496163922922]","[1,1,1]","[0.1152190995145946,0.10809614192399007]","[1,1,1]","[0.004494745187057418,-0.07229061264898877]","[1,1,1]","[-0.15136813679374453,0.00696942461584955]","[1,1,1]","[0.15165618888566262,0.0806090614778868]","[1,1,1]","[0.050456279007062003,-0.1345719337264893]","[1,1,1]","[-0.0049212978819720265,0.055454104461558386]","[1,1,1]","[-0.046373221978951176,0.14070756300730122]","[1,1,1]","[-0.030172632986465147,0.1930770197903536]","[1,1,1]","[0.06604655048569594,-0.09631508421405091]","[1,1,1]","[0.02,0.02]",186.2326,0,24,24,207,1,,,,,,,
,,,,,,,5f0a7dec44c42c19a6c9f6d9,68317a73fb675d778214e76b,2025-05-24_03h11.29.617,cuing_paradigm_dot,2024.1.5,Win32,8.576329331,682d573fa47f1360d1451895,,,,,,,,,,,186.233,186.6892,,,186.8424,187.6243,right,0.6427,,,,,,,,,0.55,,,,,,186.6893,186.8422,187.6244,"[-0.02168481479183137,0.17638898365014236]","[-1,-1,-1]","[-0.13444873918330572,0.023941901373609145]","[1,1,1]","[0.14886370674785762,0.07806992400488362]","[1,1,1]","[0.01520286227614449,-0.13116335359296533]","[1,1,1]","[0.013262245583487601,-0.07268224526754043]","[1,1,1]","[-0.12648786259215214,-0.1018888938669928]","[-1,-1,-1]","[0.04704344178020848,0.08434898212601143]","[-1,-1,-1]","[-0.032447004108155236,0.10956759359150267]","[1,1,1]","[0.08904831975266025,0.066932370183784]","[1,1,1]","[0.14541951839603484,-0.09844831028774989]","[-1,-1,-1]","[0.06154193061401201,0.18686232596991653]","[1,1,1]","[0.08501600416419189,0.15362754284968524]","[1,1,1]","[-0.002554763493102229,-0.024869592243054607]","[1,1,1]","[0.08222907776095337,-0.08340018586764134]","[1,1,1]","[-0.00530528076212247,-0.1675570044815819]","[-1,-1,-1]","[0.056532027945228984,-0.031792212077977326]","[1,1,1]","[0.1296198845637543,-0.005297155401324995]","[-1,-1,-1]","[-0.17577151344459938,0.0033754439209068743]","[-1,-1,-1]","[-0.14784912935194436,0.10507232032407954]","[-1,-1,-1]","[-0.04374296560256209,-0.03379183034471015]","[-1,-1,-1]","[-0.059305625281313605,-0.1497669612929854]","[1,1,1]","[0.09385402068290552,-0.1282718131131192]","[-1,-1,-1]","[-0.027437793894501517,-0.09770706815833484]","[1,1,1]","[-0.08485879158060868,0.08473533575187302]","[1,1,1]","[-0.027662341263604454,0.014666831226313804]","[1,1,1]","[-0.08394268911272834,0.14901530456979042]","[1,1,1]","[0.04798283891213846,0.03626556511386661]","[-1,-1,-1]","[-0.12012774665898093,-0.02157831013352136]","[1,1,1]","[0.08175781066688127,-0.17362754752215565]","[1,1,1]","[-0.18453451092471126,0.07447028549561907]","[-1,-1,-1]","[-0.08097461487930817,0.03418851752632708]","[-1,-1,-1]","[-0.0751349065932172,-0.09884861658349298]","[-1,-1,-1]","[0.02,0.02]",188.6681,0,25,25,145,1,,,,,,,
,,,,,,,5f0a7dec44c42c19a6c9f6d9,68317a73fb675d778214e76b,2025-05-24_03h11.29.617,cuing_paradigm_dot,2024.1.5,Win32,8.576329331,682d573fa47f1360d1451895,,,,,,,,,,,188.6685,189.1196,,,189.2639,190.1873,right,0.7701,0.0002,,,,,,,,0.5,,,,,,189.1197,189.2639,190.1873,"[-0.13433250227084823,-0.017379211187124582]","[-1,-1,-1]","[-0.004158795761497427,-0.15916029249881544]","[-1,-1,-1]","[0.011862273166541933,-0.08259387899647497]","[1,1,1]","[-0.04160882374514935,0.004625635671494046]","[1,1,1]","[0.13305187517038655,0.14101395030604105]","[-1,-1,-1]","[-0.06294036982563012,0.08715159384934953]","[1,1,1]","[0.1949788695855302,0.03837402502787101]","[-1,-1,-1]","[-0.0641377585523986,-0.05536775296537262]","[-1,-1,-1]","[-0.14984995440236798,0.1245701953060481]","[-1,-1,-1]","[0.007575047808453084,0.13701639230811952]","[1,1,1]","[-0.14999564129069284,0.04902562061960994]","[-1,-1,-1]","[0.1222233690466645,0.00028783951553420985]","[1,1,1]","[0.013235199957342892,0.03196171702226489]","[-1,-1,-1]","[-0.016610169654846525,0.0805981875165695]","[1,1,1]","[0.1618038005192683,-0.1118314823971737]","[1,1,1]","[-0.04598628887477086,-0.16979601144134845]","[-1,-1,-1]","[-0.18260268477177088,-0.07178158383230403]","[1,1,1]","[-0.19389793438987538,0.0018342266702699585]","[-1,-1,-1]","[0.19094097863599888,-0.05342920547114249]","[1,1,1]","[-0.09011672911054963,-0.10833106193695266]","[-1,-1,-1]","[0.14637241640645274,-0.039138933972908206]","[1,1,1]","[0.0733014299361199,0.04632924835868074]","[1,1,1]","[0.09650806371289274,-0.16779658104155662]","[-1,-1,-1]","[-0.09767127327544763,0.12026432085992661]","[1,1,1]","[-0.10248267203734837,0.015451474983265162]","[-1,-1,-1]","[0.07459317815144412,-0.027797820721233713]","[1,1,1]","[-0.1717473644835142,-0.0330256940688205]","[-1,-1,-1]","[0.07864294354353736,0.13090461729802705]","[-1,-1,-1]","[-0.0377652139999987,0.12648895286032724]","[1,1,1]","[0.010032149907907816,-0.029753255146522797]","[1,1,1]","[0.09107702760775482,-0.11108321650308829]","[-1,-1,-1]","[-0.05060484084441099,0.16619005609729526]","[1,1,1]","[0.02,0.02]",191.2286,0,26,26,103,1,,,,,,,
,,,,,,,5f0a7dec44c42c19a6c9f6d9,68317a73fb675d778214e76b,2025-05-24_03h11.29.617,cuing_paradigm_dot,2024.1.5,Win32,8.576329331,682d573fa47f1360d1451895,,,,,,,,,,,191.2289,191.682,,,191.828,192.6136,left,0.6401,,,,,,,,,0.1,,,,,,191.682,191.828,192.6137,"[-0.05329075869265347,-0.06734698482795722]","[1,1,1]","[0.0009041202007217042,0.1570276008929653]","[1,1,1]","[0.15239341149650223,-0.07557648476689763]","[-1,-1,-1]","[-0.01993875325735354,-0.04157474757231625]","[-1,-1,-1]","[0.06377203805214196,-0.11154576407172218]","[-1,-1,-1]","[0.14619007969667933,0.021777733074000726]","[-1,-1,-1]","[0.05411911559341377,-0.059971086542822856]","[-1,-1,-1]","[0.005959416051958437,-0.10832435153414188]","[-1,-1,-1]","[0.12538183864967953,0.06925818568933208]","[-1,-1,-1]","[-0.05460249098683566,0.08059544623618575]","[-1,-1,-1]","[-0.0832558776034875,-0.10571437981525562]","[-1,-1,-1]","[-0.1257009494394487,0.0018029659176125499]","[-1,-1,-1]","[0.1807354078293378,-0.03206520872395968]","[-1,-1,-1]","[-0.03083084528483207,-0.18873043528480765]","[-1,-1,-1]","[0.05220807596502123,0.04638435960654562]","[-1,-1,-1]","[-0.07181216167572894,-0.17990036083262673]","[-1,-1,-1]","[-0.17221447515092508,0.010742675032219628]","[-1,-1,-1]","[-0.1520257277117765,-0.09896213582520434]","[-1,-1,-1]","[-0.08669342502081523,0.15516640731551123]","[-1,-1,-1]","[0.03465664779761576,0.08844211733715879]","[-1,-1,-1]","[-0.027153730977797805,0.03823509948846173]","[-1,-1,-1]","[0.12378478111097983,-0.12382742968519261]","[1,1,1]","[-0.08044113955253691,-0.007021721570354509]","[-1,-1,-1]","[-0.09634970825207544,0.06423832856976182]","[-1,-1,-1]","[-0.031326238095074434,0.13048208607261008]","[-1,-1,-1]","[-0.04176531948803966,-0.13914375151246772]","[-1,-1,-1]","[0.0866787192432756,0.11873112164989355]","[-1,-1,-1]","[0.08418183474816536,-0.02570620447474424]","[-1,-1,-1]","[0.006465473697854476,0.008802606247668494]","[-1,-1,-1]","[-0.030549661652369747,0.19120718844871873]","[-1,-1,-1]","[0.1854711669906855,0.03674314758611101]","[-1,-1,-1]","[0.046367076301291735,-0.18934345832873825]","[-1,-1,-1]","[0.02,0.02]",193.6255,0,27,27,29,1,,,,,,,
,,,,,,,5f0a7dec44c42c19a6c9f6d9,68317a73fb675d778214e76b,2025-05-24_03h11.29.617,cuing_paradigm_dot,2024.1.5,Win32,8.576329331,682d573fa47f1360d1451895,,,,,,,,,,,193.6258,194.0637,,,194.2292,195.1572,right,0.7791,,,,,,,,,0.55,,,,,,194.0637,194.2292,195.1575,"[0.040381328745937715,-0.12477655963102881]","[1,1,1]","[0.08829399189821806,0.16404272993522692]","[-1,-1,-1]","[-0.0024043370467630464,-0.06340157054151344]","[-1,-1,-1]","[0.19191449552686962,0.05122339906989749]","[1,1,1]","[0.06297683549508634,-0.08761213738397229]","[1,1,1]","[-0.14906926173439988,-0.026563157285031613]","[-1,-1,-1]","[0.14995631753923572,-0.056923356295094575]","[1,1,1]","[-0.029019461603895288,0.1011805890443569]","[-1,-1,-1]","[-0.10955974671535157,0.07373651325591753]","[-1,-1,-1]","[-0.05992771228216898,-0.118191799135161]","[-1,-1,-1]","[0.09167510730419876,-0.05493153085828265]","[-1,-1,-1]","[-0.05889620757168249,-0.00715138769553544]","[-1,-1,-1]","[0.02088855087838541,0.07870128514266857]","[1,1,1]","[-0.13063149265930935,-0.08085062069114096]","[1,1,1]","[-0.058360194263866634,0.07170657922501897]","[-1,-1,-1]","[-0.12935882433170187,-0.1394403559479906]","[1,1,1]","[-0.10617670171878643,-0.021932626803515026]","[1,1,1]","[0.06279348759162294,0.011368051733477366]","[1,1,1]","[-0.04451048084947473,0.18974397227389309]","[1,1,1]","[0.12358483617792534,-0.11129717682999879]","[-1,-1,-1]","[0.15317666772357777,0.02002247154145278]","[1,1,1]","[-0.004651243257483815,0.1392624159919738]","[1,1,1]","[0.11759738591107483,0.03892985449351857]","[1,1,1]","[-0.06333713294870066,-0.06915981543615593]","[1,1,1]","[0.021591157461210764,-0.17828460027903065]","[-1,-1,-1]","[0.028206912395382113,-0.011335567832209311]","[1,1,1]","[-0.0636315407139226,0.1465696303020785]","[1,1,1]","[-0.086019383775265,-0.14896879849140632]","[-1,-1,-1]","[0.11575198497966695,-0.021530563178912204]","[1,1,1]","[0.0883580174220026,0.08493779893763846]","[-1,-1,-1]","[0.0538232409434444,0.13530308518701545]","[1,1,1]","[-0.055888148450344496,-0.19134559639401932]","[-1,-1,-1]","[0.02,0.02]",196.1997,0,28,28,148,1,,,,,,,
,,,,,,,5f0a7dec44c42c19a6c9f6d9,68317a73fb675d778214e76b,2025-05-24_03h11.29.617,cuing_paradigm_dot,2024.1.5,Win32,8.576329331,682d573fa47f1360d1451895,,,,,,,,,,,196.2001,196.6554,,,196.8118,197.7443,right,0.7948,,,,,,,,,0.5,,,,,,196.6555,196.8118,197.7443,"[0.04086292719195835,-0.11156198787488539]","[1,1,1]","[-0.10769291482618575,-0.13166961441279698]","[1,1,1]","[-0.007416293306691156,-0.10276564761101518]","[1,1,1]","[0.013671749708546874,-0.1427962667087826]","[-1,-1,-1]","[0.014930415188823098,0.016137103176225416]","[-1,-1,-1]","[-0.09057522409519018,0.05116542621526303]","[-1,-1,-1]","[0.06635175022035625,-0.14514755486753314]","[-1,-1,-1]","[-0.16881477633411085,-0.05132066050587809]","[1,1,1]","[0.15454901951915542,0.021703043834868856]","[1,1,1]","[0.11910247181041331,0.06978351088204944]","[-1,-1,-1]","[0.07039977493739362,-0.05659535272686907]","[-1,-1,-1]","[0.08063371877526795,-0.10080687077196933]","[1,1,1]","[0.05827267609575414,0.018238561835987554]","[-1,-1,-1]","[0.19919070244187279,-0.006710652388840077]","[1,1,1]","[-0.011536841815001978,0.11747883049477495]","[-1,-1,-1]","[-0.07193908293380741,0.12318524104361817]","[1,1,1]","[-0.08146739859204111,-0.05483885954403207]","[-1,-1,-1]","[0.17510847901283516,0.07677142963038407]","[1,1,1]","[0.13943890898118222,-0.05693467715159532]","[1,1,1]","[0.19038393798367367,-0.04706391502614539]","[1,1,1]","[-0.02472443462707732,-0.035958500246528996]","[-1,-1,-1]","[-0.14011072638123634,0.03473384527230525]","[-1,-1,-1]","[0.09928328380091213,-0.0017851637847938605]","[1,1,1]","[-0.17454153788725327,0.08696118932203266]","[-1,-1,-1]","[0.10761597934900767,-0.163743631201732]","[1,1,1]","[0.0753741020788082,0.15941333145396824]","[1,1,1]","[-0.05097790647594491,-0.005509240967301295]","[1,1,1]","[-0.04565086990883524,-0.11959748886687657]","[-1,-1,-1]","[-0.09236548216844467,0.0008709556892932014]","[-1,-1,-1]","[0.0712161228733942,0.11752756508528153]","[-1,-1,-1]","[-0.031788985625173204,0.061264446227251676]","[1,1,1]","[0.0700300503206245,0.05647725894527129]","[-1,-1,-1]","[0.02,0.02]",198.7565,0,29,29,91,1,,,,,,,
,,,,,,,5f0a7dec44c42c19a6c9f6d9,68317a73fb675d778214e76b,2025-05-24_03h11.29.617,cuing_paradigm_dot,2024.1.5,Win32,8.576329331,682d573fa47f1360d1451895,,,,,,,,,,,198.7568,199.2042,,,199.3534,200.6031,right,1.0987,,,,,,,,,0.5,,,,,,199.2043,199.3534,200.6032,"[-0.061580814230655326,-0.047811294807086055]","[-1,-1,-1]","[0.10049582209766147,0.11924594539039464]","[1,1,1]","[-0.12989462407769867,-0.04202387548560418]","[1,1,1]","[0.1542948799273499,-0.09331286650883441]","[-1,-1,-1]","[-0.16837676339428478,0.09397291723171601]","[-1,-1,-1]","[0.04311899949391433,-0.15611723087555632]","[-1,-1,-1]","[-0.03382579208819135,0.11972015482187427]","[1,1,1]","[0.19381081439689485,0.013961029422462199]","[1,1,1]","[0.18099596052043043,0.06463309818899872]","[-1,-1,-1]","[0.010541857902802583,0.0769146962931943]","[-1,-1,-1]","[-0.11601268580160491,0.0555635090145711]","[1,1,1]","[0.022150113749738715,0.18535024793867208]","[-1,-1,-1]","[-0.05620563703398525,0.1790485345610169]","[1,1,1]","[0.08515861180621784,0.07546429421907822]","[-1,-1,-1]","[-0.15744270350143882,-0.09853646554171629]","[1,1,1]","[-0.10766587043933201,-0.08123795250935535]","[1,1,1]","[0.01804248070163035,0.016491782531309385]","[-1,-1,-1]","[-0.0955456226106087,-0.1404041287732084]","[-1,-1,-1]","[-0.01563557372445999,-0.12014400626604942]","[-1,-1,-1]","[0.17917991945742032,-0.04501974021857159]","[-1,-1,-1]","[-0.008248587031800559,-0.06446343358115042]","[-1,-1,-1]","[0.03578338778785627,-0.053891562960332165]","[1,1,1]","[-0.06154196452760905,-0.10003824040081594]","[1,1,1]","[-0.04963768850767507,0.02645124602325752]","[-1,-1,-1]","[0.12026913778473429,-0.016881972016623507]","[-1,-1,-1]","[-0.06453163577592853,0.0769969583215847]","[1,1,1]","[0.10993113896332915,0.16683172612714903]","[1,1,1]","[-0.14886924647264546,-0.0015108643536787887]","[1,1,1]","[0.0847571327938541,-0.11753992532388327]","[1,1,1]","[-0.018567192756455422,-0.1940666799985106]","[1,1,1]","[-0.017567284077488803,0.19195145838387911]","[1,1,1]","[0.08494164544391002,0.030825414119879355]","[-1,-1,-1]","[0.02,0.02]",201.6428,0,30,30,118,1,,,,,,,
,,,,,,,5f0a7dec44c42c19a6c9f6d9,68317a73fb675d778214e76b,2025-05-24_03h11.29.617,cuing_paradigm_dot,2024.1.5,Win32,8.576329331,682d573fa47f1360d1451895,,,,,,,,,,,201.6433,202.1039,,,202.2494,203.0031,left,0.6132,,,,,,,,,0.1,,,,,,202.1039,202.2494,203.0032,"[0.0837996809654751,0.1419153262694086]","[-1,-1,-1]","[-0.07422468655117131,-0.08013009181563512]","[-1,-1,-1]","[0.05229659797237766,-0.05343887687555697]","[-1,-1,-1]","[0.14793108248427633,-0.07094743965906941]","[-1,-1,-1]","[0.03151772614339238,0.09058266828204918]","[-1,-1,-1]","[0.015291641011681357,-0.1456956124660493]","[-1,-1,-1]","[0.07760064203752169,-0.17446669225852499]","[-1,-1,-1]","[-0.15175399440798631,0.09501120010559962]","[-1,-1,-1]","[-0.09762856852304563,0.10791990216026724]","[-1,-1,-1]","[0.16030348011023463,0.0550838294545207]","[-1,-1,-1]","[-0.13024702066996946,-0.028203227694009705]","[-1,-1,-1]","[0.03931542176253978,0.028872373799892184]","[-1,-1,-1]","[-0.030932742667585136,0.15495503026268836]","[-1,-1,-1]","[-0.10561149821796045,0.038501249335798474]","[1,1,1]","[0.17159130683887522,0.01023943547286489]","[1,1,1]","[-0.04421127116391988,0.10833348820083051]","[-1,-1,-1]","[0.09532181033082632,-0.08688073307952848]","[-1,-1,-1]","[0.07729022975069508,0.04896645393476367]","[-1,-1,-1]","[-0.01528731639830513,-0.0991267080340699]","[-1,-1,-1]","[-0.0005027919788660775,0.0009764629118756306]","[-1,-1,-1]","[-0.13793572460635065,-0.08833370223880577]","[-1,-1,-1]","[-0.10665626693379972,-0.13172432441977044]","[-1,-1,-1]","[0.024928536641190872,0.16775253143191643]","[-1,-1,-1]","[0.08554956266872585,-0.0288601602994293]","[-1,-1,-1]","[-0.0540552503975621,-0.12601643355192896]","[-1,-1,-1]","[-0.024283840034006857,0.04499733341065467]","[-1,-1,-1]","[0.005979043654859693,0.12705151357847103]","[1,1,1]","[-0.15034270069764175,0.037317420064421826]","[-1,-1,-1]","[-0.1881399717452491,-0.024052187894075296]","[-1,-1,-1]","[-0.020873984338154593,-0.04390440315299896]","[-1,-1,-1]","[0.033492494265119035,-0.10694800091296336]","[-1,-1,-1]","[-0.012260125248180988,-0.17729373151220587]","[-1,-1,-1]","[0.02,0.02]",204.0545,0,31,31,19,1,,,,,,,
,,,,,,,5f0a7dec44c42c19a6c9f6d9,68317a73fb675d778214e76b,2025-05-24_03h11.29.617,cuing_paradigm_dot,2024.1.5,Win32,8.576329331,682d573fa47f1360d1451895,,,,,,,,,,,204.055,204.5051,,,204.6606,205.5853,left,0.7878,,,,,,,,,0.45,,,,,,204.5052,204.6606,205.5853,"[0.05647280578725889,-0.05426632729292073]","[1,1,1]","[0.0755584849198958,0.0872646913145472]","[1,1,1]","[0.09709843743131338,-0.08922572243522299]","[1,1,1]","[0.005058877293275652,0.013261035532543947]","[-1,-1,-1]","[0.00992850091936648,0.14337191411514247]","[-1,-1,-1]","[0.196167336728115,-0.02269355375803537]","[1,1,1]","[0.17019461928010313,0.044644052946713905]","[-1,-1,-1]","[-0.1709815313197532,-0.01730691241255601]","[1,1,1]","[-0.06262839596875265,0.03970509186687385]","[1,1,1]","[0.025714653835638226,-0.15268507102820397]","[1,1,1]","[0.05610688465848311,0.029361457474343974]","[1,1,1]","[-0.16096163900294708,-0.08052825848418099]","[1,1,1]","[-0.0800195587121794,-0.1704694267195687]","[1,1,1]","[0.022726395215421455,-0.03146385781325539]","[-1,-1,-1]","[-0.13747392731808145,-0.1171299791593592]","[-1,-1,-1]","[-0.10663314420666513,0.12967094615518493]","[-1,-1,-1]","[-0.08333946255885179,-0.08873610024131649]","[-1,-1,-1]","[0.15783976974025846,-0.04597064366145197]","[-1,-1,-1]","[0.10313443812009442,0.13154617067918598]","[1,1,1]","[-0.05517330991313573,0.18475898811322014]","[-1,-1,-1]","[-0.09337367466929233,-0.0338043370592551]","[-1,-1,-1]","[0.15869481245253048,0.08965511819940016]","[1,1,1]","[0.09297993847213532,-0.009653323568361868]","[-1,-1,-1]","[-0.11988815966863403,0.039423369764762524]","[-1,-1,-1]","[0.08819530212856802,-0.16413863014498983]","[-1,-1,-1]","[-0.035520313597335755,-0.08124375211266258]","[-1,-1,-1]","[0.08385763891279484,0.17778160874651905]","[-1,-1,-1]","[-0.04627438973253727,-0.12301267901853617]","[-1,-1,-1]","[-0.07260912500188108,0.08173019104558896]","[1,1,1]","[-0.1733479843442147,0.056877923275148]","[1,1,1]","[0.1352257902920052,-0.10186602287627594]","[-1,-1,-1]","[-0.024639583853775866,0.09412189284682583]","[-1,-1,-1]","[0.02,0.02]",206.6139,0,32,32,63,1,,,,,,,
,,,,,,,5f0a7dec44c42c19a6c9f6d9,68317a73fb675d778214e76b,2025-05-24_03h11.29.617,cuing_paradigm_dot,2024.1.5,Win32,8.576329331,682d573fa47f1360d1451895,,,,,,,,,,,206.6143,207.0535,,,207.2035,207.9938,left,0.6303,,,,,,,,,0.45,,,,,,207.0535,207.2035,207.9938,"[-0.125177018503972,0.08434161324578376]","[1,1,1]","[0.05385958623878177,0.09015965650462045]","[1,1,1]","[-0.058742608327657764,-0.10060514072414573]","[-1,-1,-1]","[0.05305551781963331,0.14035750707222597]","[1,1,1]","[0.04825710739503011,-0.05833194085562459]","[-1,-1,-1]","[0.03618997255647263,-0.14553033247084424]","[-1,-1,-1]","[-0.021889144157490832,0.17988934352188943]","[1,1,1]","[0.09156282978589277,-0.1127732642321178]","[1,1,1]","[-0.159771559996673,-0.0636589758704288]","[-1,-1,-1]","[-0.00361371080890013,-0.1073629950705179]","[-1,-1,-1]","[0.15478319256851777,-0.09580637933807536]","[1,1,1]","[-0.0860864514630007,0.17264892074862037]","[-1,-1,-1]","[-0.0369861790811371,-0.03231271319471931]","[1,1,1]","[-0.003949710661479063,0.12345869836220161]","[1,1,1]","[0.07794549813774772,0.012129052029159211]","[1,1,1]","[-0.11055910669116735,0.12393333050136963]","[1,1,1]","[-0.13179530040476903,-0.1263451099606608]","[-1,-1,-1]","[0.1645061484083503,0.08119021890891162]","[-1,-1,-1]","[0.12057928923437827,0.05702626940473377]","[-1,-1,-1]","[0.009231868211269183,0.018568547838105562]","[-1,-1,-1]","[-0.05482454445186855,0.08518676271598587]","[-1,-1,-1]","[-0.17093160612838015,0.06090189243461509]","[-1,-1,-1]","[0.12524301754621012,0.11577048398950462]","[1,1,1]","[-0.0275447554175722,-0.1764463119659289]","[-1,-1,-1]","[-0.08329059126169637,0.013294504390151951]","[-1,-1,-1]","[-0.10080022547918585,-0.034659475450980096]","[-1,-1,-1]","[0.062066291477068006,-0.18166897685297312]","[1,1,1]","[-0.038261829187735026,0.03768360082288192]","[-1,-1,-1]","[0.00400403210875206,-0.05131925717234052]","[1,1,1]","[0.1723488547287804,-0.0115057619495615]","[-1,-1,-1]","[-0.14027787179506224,-0.003790410292181264]","[1,1,1]","[0.08713808977855506,0.17560840729012986]","[-1,-1,-1]","[0.02,0.02]",209.0538,0,33,33,74,1,,,,,,,
,,,,,,,5f0a7dec44c42c19a6c9f6d9,68317a73fb675d778214e76b,2025-05-24_03h11.29.617,cuing_paradigm_dot,2024.1.5,Win32,8.576329331,682d573fa47f1360d1451895,,,,,,,,,,,209.0541,209.5092,,,209.662,210.4471,left,0.6381,,,,,,,,,0.1,,,,,,209.5092,209.662,210.4471,"[-0.019379103534257876,0.12612113461506336]","[-1,-1,-1]","[-0.09641017925797395,-0.12779653311435607]","[-1,-1,-1]","[0.0489034100108827,0.1568326181614728]","[-1,-1,-1]","[0.024543386215671405,-0.023090057031299623]","[-1,-1,-1]","[-0.07428911325901413,0.09151886941607491]","[-1,-1,-1]","[0.09729259581478167,-0.06135727353161364]","[-1,-1,-1]","[0.06502255189312997,0.03383785300585168]","[-1,-1,-1]","[-0.042592617802886555,-0.08330719703476472]","[1,1,1]","[-0.12086589964689615,-0.052932302675608]","[-1,-1,-1]","[-0.18602577379609353,-0.05732353707000402]","[-1,-1,-1]","[0.13940447951174983,0.033133314458567376]","[-1,-1,-1]","[-0.10709496205217293,0.026773111896808793]","[1,1,1]","[-0.1845981774243314,0.02561976784738385]","[-1,-1,-1]","[-0.021307257428918158,0.018269948999541114]","[-1,-1,-1]","[0.18574415187165297,-0.0476556086256922]","[-1,-1,-1]","[-0.15542431902414086,-0.01953044057529185]","[-1,-1,-1]","[-0.05725002913827417,-0.154848792751176]","[-1,-1,-1]","[0.017883765225900464,0.04655628177394265]","[-1,-1,-1]","[0.06525493041517638,-0.10764407608752276]","[-1,-1,-1]","[0.036231580512725965,-0.1949232496877907]","[-1,-1,-1]","[-0.14016569495023906,-0.08921009831036834]","[-1,-1,-1]","[0.0888203986257175,0.1680112603339935]","[-1,-1,-1]","[0.17658148325250841,0.07355163804750495]","[-1,-1,-1]","[0.06151686764037691,0.09430977765789494]","[-1,-1,-1]","[0.1506332298734082,-0.10505755194414597]","[-1,-1,-1]","[-0.11610126343344987,0.07085372795351098]","[1,1,1]","[-0.0075405353195511495,-0.1998243540448182]","[-1,-1,-1]","[-0.04624173203216323,-0.042827496952667465]","[-1,-1,-1]","[-0.0656712869083376,0.04563448103153066]","[-1,-1,-1]","[-0.0021073633828214704,-0.14156814844254598]","[-1,-1,-1]","[-0.09303298784560324,0.14570259408340028]","[-1,-1,-1]","[-0.05693125662182377,0.18498671972520614]","[-1,-1,-1]","[0.02,0.02]",211.4956,0,34,34,11,1,,,,,,,
,,,,,,,5f0a7dec44c42c19a6c9f6d9,68317a73fb675d778214e76b,2025-05-24_03h11.29.617,cuing_paradigm_dot,2024.1.5,Win32,8.576329331,682d573fa47f1360d1451895,,,,,,,,,,,211.496,211.9434,,,212.0932,212.8827,left,0.6503,,,,,,,,,0.45,,,,,,211.9434,212.0931,212.8827,"[0.03794472218221723,-0.12789568171797253]","[1,1,1]","[-0.03551988161164728,0.0011880387495326256]","[1,1,1]","[0.05065596719313232,0.14855599021482296]","[-1,-1,-1]","[-0.05401691879277721,0.08398436889475794]","[-1,-1,-1]","[0.04117508263792096,0.053796759650179715]","[-1,-1,-1]","[-0.17256237214417053,0.0727183538282849]","[1,1,1]","[-0.0492597644128263,-0.13328445071475845]","[-1,-1,-1]","[0.13265135677159892,-0.11514717749091824]","[-1,-1,-1]","[-0.09405847050335406,0.04823422001285847]","[-1,-1,-1]","[-0.11567262986530916,-0.10960630044121374]","[-1,-1,-1]","[-0.13014243877844014,0.1376807525334038]","[1,1,1]","[0.09262293511210827,0.043138815262080285]","[1,1,1]","[-0.08542315062568669,-0.07989702264044912]","[1,1,1]","[0.06834838393954447,-0.1804579415495496]","[-1,-1,-1]","[0.1689973708363124,-0.06255420372718763]","[-1,-1,-1]","[-0.036836226287107456,0.12533948798266187]","[1,1,1]","[-0.004811724915683158,-0.12190793028202015]","[1,1,1]","[0.13237924076322366,0.09152552638540903]","[1,1,1]","[-0.049125803555662956,0.19285376857568595]","[-1,-1,-1]","[-0.17033791733191095,-0.10316052014433243]","[-1,-1,-1]","[0.07390235269378063,-0.06601431256803234]","[1,1,1]","[-0.11417832684498998,-0.029292375322302704]","[-1,-1,-1]","[-0.14434261989773875,0.003071524454205456]","[-1,-1,-1]","[0.04252025074318416,-0.03233931049682013]","[1,1,1]","[-0.12369289974606908,0.09230251048445247]","[-1,-1,-1]","[-0.18462074900962352,0.016032551802325174]","[-1,-1,-1]","[0.13684375205089433,-0.0016273312687335865]","[1,1,1]","[0.01677036308516237,-0.19313163652462656]","[-1,-1,-1]","[-0.13708248971495368,-0.14461047662157536]","[-1,-1,-1]","[-0.08611922459608332,0.16989914265189993]","[1,1,1]","[0.004434906063625508,0.12083954031233061]","[-1,-1,-1]","[-0.08621611423517046,-0.1650613062851377]","[1,1,1]","[0.02,0.02]",213.9317,0,35,35,60,1,,,,,,,
,,,,,,,5f0a7dec44c42c19a6c9f6d9,68317a73fb675d778214e76b,2025-05-24_03h11.29.617,cuing_paradigm_dot,2024.1.5,Win32,8.576329331,682d573fa47f1360d1451895,,,,,,,,,,,213.932,214.3753,,,214.5319,215.6222,left,0.9454,,,,,,,,,0.45,,,,,,214.3753,214.5319,215.6222,"[0.13547031702252388,-0.1257637093691]","[-1,-1,-1]","[-0.14553239911168833,-0.11393118260488991]","[1,1,1]","[-0.16325992448166032,0.08668759425138946]","[-1,-1,-1]","[-0.15381902348084697,-0.018267373442959145]","[-1,-1,-1]","[0.12980385400634747,0.11329483952788788]","[-1,-1,-1]","[0.03970705518246465,0.16465402067714568]","[-1,-1,-1]","[-0.007651318051098485,-0.0024513656358280903]","[-1,-1,-1]","[-0.003860625424466594,-0.08531985146605267]","[-1,-1,-1]","[-0.08866912915901631,-0.14046191182742127]","[1,1,1]","[-0.07582730956600778,-0.04900732410686781]","[1,1,1]","[-0.05483194456157269,-0.16997324688394805]","[-1,-1,-1]","[-0.10740384096954719,0.03554189404124066]","[-1,-1,-1]","[-0.0025301089316475665,-0.1891553829346955]","[1,1,1]","[-0.055335933884123514,-0.08996447693712865]","[-1,-1,-1]","[0.0002657975211769261,-0.1478666161889478]","[1,1,1]","[-0.006815654179426815,0.06687163166147737]","[-1,-1,-1]","[0.19098955345739538,-0.0268727036702968]","[-1,-1,-1]","[0.1537693126784442,0.006106168091114695]","[1,1,1]","[0.04393551221061413,-0.1790043048777172]","[-1,-1,-1]","[-0.004641310714840497,0.16572454907602518]","[-1,-1,-1]","[0.04826018722810275,0.023988569325518058]","[-1,-1,-1]","[0.11492546641927631,-0.010748341871751598]","[1,1,1]","[0.014528909701199204,-0.04637350925660754]","[1,1,1]","[0.0806042283617262,0.07153262487499303]","[1,1,1]","[0.053643594078692916,-0.10928598753748643]","[1,1,1]","[0.10455383358645522,-0.09314441789802047]","[1,1,1]","[-0.1151302742507534,0.09472328893810439]","[1,1,1]","[0.12947992883404075,-0.057104967708741294]","[-1,-1,-1]","[0.17356505693936658,-0.0763014097693099]","[-1,-1,-1]","[-0.17955627399083324,-0.0656578816972509]","[1,1,1]","[0.07324231276617695,-0.05233786537535644]","[-1,-1,-1]","[-0.0472573298872445,0.06422568865095254]","[1,1,1]","[0.02,0.02]",216.6495,0,36,36,70,1,,,,,,,
,,,,,,,5f0a7dec44c42c19a6c9f6d9,68317a73fb675d778214e76b,2025-05-24_03h11.29.617,cuing_paradigm_dot,2024.1.5,Win32,8.576329331,682d573fa47f1360d1451895,,,,,,,,,,,216.65,217.0886,,,217.2403,218.182,right,0.7981,0.0007,,,,,,,,0.9,,,,,,217.0886,217.2403,218.182,"[-0.02580057917856191,-0.05358764159581547]","[1,1,1]","[0.09267504413012521,0.05278474360616865]","[-1,-1,-1]","[0.029830389342824327,-0.006684934965902735]","[1,1,1]","[0.11777620015523886,0.15979301515956412]","[1,1,1]","[-0.15706051617647165,-0.03690706891915577]","[1,1,1]","[-0.08955033155325492,-0.04186526734806489]","[1,1,1]","[0.033182246180169205,0.05544507817521116]","[1,1,1]","[0.11380476125320464,-0.045374699252726435]","[1,1,1]","[0.15510217110441704,-0.049525971997822923]","[1,1,1]","[-0.13506474033782107,-0.10481929588749268]","[1,1,1]","[0.018163456358612006,-0.1276885236066077]","[1,1,1]","[0.09551005615913745,-0.08612115813888438]","[1,1,1]","[-0.13403416346037786,0.0013080463987992104]","[1,1,1]","[0.047709612863433185,0.16871807430422364]","[-1,-1,-1]","[-0.1736362157688526,0.05358234817303806]","[1,1,1]","[-0.06711833510917117,0.1465127318229508]","[1,1,1]","[-0.08011717001480063,0.045625221743772]","[1,1,1]","[-0.17270885683506576,-0.08813625842280332]","[1,1,1]","[-0.14301110756804752,0.13236551765497115]","[1,1,1]","[-0.03445554694484145,-0.1861053963850615]","[1,1,1]","[-0.06627471679080618,-0.1394507214421108]","[1,1,1]","[0.11574051318957639,-0.13573458547926862]","[-1,-1,-1]","[-0.018259240243490148,0.1575829490839765]","[1,1,1]","[-0.05343024566305425,-0.08883843685921736]","[1,1,1]","[0.007850977645509238,0.1988366108264253]","[1,1,1]","[0.1395124604222039,-0.01145983179431542]","[1,1,1]","[0.1497356789399426,-0.10688106635740419]","[1,1,1]","[-0.13452392173532618,0.09199235778307407]","[1,1,1]","[0.03251941045599553,-0.19223929434110332]","[1,1,1]","[0.09684627283220652,0.12543054783134316]","[1,1,1]","[-0.1932726626967779,-0.005409536123905428]","[1,1,1]","[-0.015980365901089377,0.009084921935522459]","[1,1,1]","[0.02,0.02]",219.2169,0,37,37,185,1,,,,,,,
,,,,,,,5f0a7dec44c42c19a6c9f6d9,68317a73fb675d778214e76b,2025-05-24_03h11.29.617,cuing_paradigm_dot,2024.1.5,Win32,8.576329331,682d573fa47f1360d1451895,,,,,,,,,,,219.2174,219.6566,,,219.8073,220.7147,right,0.7635,,,,,,,,,0.5,,,,,,219.6566,219.8072,220.7147,"[0.00691872404774426,0.11545057537842499]","[1,1,1]","[0.014204394548092667,-0.13261657535336208]","[1,1,1]","[-0.06045207672266666,0.0801003781687563]","[-1,-1,-1]","[-0.04954890299797051,-0.18097855199236051]","[1,1,1]","[-0.007981354163692878,-0.07777926950066084]","[1,1,1]","[-0.07332983416316852,0.16450455640485084]","[-1,-1,-1]","[0.13741657013027075,-0.043696488663738535]","[-1,-1,-1]","[0.1808562535704348,0.0261092548184189]","[1,1,1]","[-0.14440435918343983,-0.07876393802133926]","[1,1,1]","[0.08065921063206266,0.033293538662665705]","[-1,-1,-1]","[0.1731340747772605,-0.06881299092821823]","[-1,-1,-1]","[0.10440544991163878,-0.1008614283742222]","[1,1,1]","[0.13973186070631535,0.035865120211296966]","[1,1,1]","[0.056834972933782944,0.18916523101139252]","[1,1,1]","[-0.12629009857034096,0.1297609190520846]","[-1,-1,-1]","[0.08240156387904325,0.09490441670344042]","[-1,-1,-1]","[-0.08248118505934549,-0.11018382373279965]","[1,1,1]","[-0.10256576994222537,-0.15448213282366696]","[-1,-1,-1]","[-0.04186475402683136,0.04011689960761002]","[1,1,1]","[-0.12165144605554118,0.020193894106625733]","[-1,-1,-1]","[-0.05328157292507175,-0.021542270769301337]","[1,1,1]","[0.13354646250220598,0.1321397712894174]","[-1,-1,-1]","[-0.11188200209994692,0.07707201256282005]","[1,1,1]","[0.04732643715055387,-0.0570978833157447]","[-1,-1,-1]","[0.03735638819539381,-0.16736759583156055]","[-1,-1,-1]","[0.0230104564359765,0.057007089571639684]","[1,1,1]","[0.08529817467186611,0.13774736178276029]","[-1,-1,-1]","[0.16787846209339047,0.07591252320080352]","[1,1,1]","[0.03842582535785244,0.011977596199311248]","[-1,-1,-1]","[0.09896378383629371,-0.14497418624382105]","[-1,-1,-1]","[-0.04585965390340214,0.12115954363903456]","[1,1,1]","[0.015966946760348363,0.15629245956752075]","[-1,-1,-1]","[0.02,0.02]",221.7515,0,38,38,117,1,,,,,,,
,,,,,,,5f0a7dec44c42c19a6c9f6d9,68317a73fb675d778214e76b,2025-05-24_03h11.29.617,cuing_paradigm_dot,2024.1.5,Win32,8.576329331,682d573fa47f1360d1451895,,,,,,,,,,,221.7518,222.1934,,,222.3504,223.2826,right,0.7866,,,,,,,,,0.55,,,,,,222.1934,222.3504,223.2826,"[-0.0006551600235420763,0.012275710464097943]","[1,1,1]","[-0.07140829452102034,-0.09415052669468213]","[1,1,1]","[0.14887505542665647,0.07097198863165784]","[-1,-1,-1]","[-0.07871233544468284,0.09643179432413143]","[-1,-1,-1]","[0.1261403945982018,-0.1227945263095361]","[1,1,1]","[-0.11912374515831971,0.07375629474291608]","[1,1,1]","[-0.01759657713274893,-0.17721186707924041]","[1,1,1]","[-0.12472469507954871,-0.1263001108903397]","[-1,-1,-1]","[0.03016998207506753,-0.1780184065796928]","[1,1,1]","[-0.019322354904027707,-0.051153940474536475]","[-1,-1,-1]","[-0.17371473523777628,-0.07075607013376767]","[1,1,1]","[-0.17994169383668224,-0.014804590611885526]","[-1,-1,-1]","[-0.12912504092566715,-0.07167378258767006]","[-1,-1,-1]","[0.04128826402415129,-0.03708185729555886]","[1,1,1]","[-0.13151543413809333,-0.020191708628107482]","[1,1,1]","[-0.10886028291392313,0.15414399577665427]","[1,1,1]","[0.014806738898993298,0.06473098666819231]","[-1,-1,-1]","[0.15830583068954274,0.02244471945108572]","[-1,-1,-1]","[0.1594469041371764,-0.07467290866024846]","[1,1,1]","[0.07467110365256939,-0.09114821835265076]","[-1,-1,-1]","[0.10311708485764459,0.043418818352467796]","[1,1,1]","[-0.19212945919992114,0.03651512189006002]","[1,1,1]","[0.07772766577434147,-0.1687078077444632]","[-1,-1,-1]","[-0.05577028153646543,0.1329175691438132]","[1,1,1]","[-0.022966784043702903,0.19017826974954818]","[-1,-1,-1]","[0.025865097277106824,0.1116340913830454]","[1,1,1]","[-0.07535314602165095,0.012570097520854466]","[1,1,1]","[-0.06315216109002113,-0.18447607807711142]","[-1,-1,-1]","[-0.14819993252467772,0.11928239714534099]","[-1,-1,-1]","[-0.024897627389775745,-0.10643420318091784]","[1,1,1]","[-0.05118420361134281,-0.02461197705392949]","[-1,-1,-1]","[0.10362637427541563,-0.044123027641850825]","[1,1,1]","[0.02,0.02]",224.3127,0,39,39,127,1,,,,,,,
,,,,,,,5f0a7dec44c42c19a6c9f6d9,68317a73fb675d778214e76b,2025-05-24_03h11.29.617,cuing_paradigm_dot,2024.1.5,Win32,8.576329331,682d573fa47f1360d1451895,,,,,,,,,,,224.3133,224.7496,,,224.8933,225.835,right,0.8013,,,,,,,,,0.55,,,,,,224.7497,224.8932,225.8351,"[-0.07706506496081342,0.023984917658576445]","[-1,-1,-1]","[-0.034621983779127306,0.16619580496138825]","[1,1,1]","[0.12547341947583018,-0.12118684955349744]","[-1,-1,-1]","[0.020765967740858097,-0.10285722742691406]","[-1,-1,-1]","[0.0276747558111336,-0.15089657177953264]","[-1,-1,-1]","[-0.00991294324310082,-0.0008716907228763172]","[1,1,1]","[-0.04259560422027216,-0.14538791876367615]","[1,1,1]","[0.023336502392397398,0.11570891776294905]","[-1,-1,-1]","[0.10656239529208383,0.16727338488067803]","[-1,-1,-1]","[-0.04566341494481129,-0.1856144782165183]","[-1,-1,-1]","[-0.09242496015932136,-0.036294826660017994]","[1,1,1]","[-0.10999362688249228,-0.0818228522926666]","[1,1,1]","[0.1432753536167021,0.06129853867160728]","[1,1,1]","[-0.15447709655873895,-0.04691646958331351]","[1,1,1]","[0.059167140954468844,0.1827290559885949]","[1,1,1]","[0.058549602630299714,-0.06238982989877333]","[-1,-1,-1]","[-0.1370140704126142,-0.13266433563070518]","[-1,-1,-1]","[-0.1186764879866877,-0.0036929797862361156]","[1,1,1]","[-0.1040396030387292,0.1604487543376661]","[1,1,1]","[0.03418455272108479,-0.02253342404468543]","[1,1,1]","[-0.1831103308641696,-0.007059941766425071]","[1,1,1]","[0.1301306642877135,-0.013303881083256678]","[1,1,1]","[0.12846186933652823,-0.055738194339980084]","[1,1,1]","[0.0801164305785317,0.005658341423832574]","[1,1,1]","[0.024654177777064135,0.1560323623446688]","[1,1,1]","[-0.06678213573107304,0.1301594046403516]","[-1,-1,-1]","[0.1680546001858615,-0.10711929623709505]","[1,1,1]","[-0.16922744907979548,0.0328570218193253]","[1,1,1]","[0.18170639618982287,0.04895705574123076]","[-1,-1,-1]","[0.012070958334297553,0.05718770344943662]","[-1,-1,-1]","[0.07519978468656185,0.10874553692674574]","[-1,-1,-1]","[-0.07736801834985717,-0.11267543405396278]","[-1,-1,-1]","[0.02,0.02]",226.887,0,40,40,147,1,,,,,,,
,,,,,,,5f0a7dec44c42c19a6c9f6d9,68317a73fb675d778214e76b,2025-05-24_03h11.29.617,cuing_paradigm_dot,2024.1.5,Win32,8.576329331,682d573fa47f1360d1451895,,,,,,,,,,,226.8873,227.3273,,,227.4915,228.5705,right,0.9315,,,,,,,,,0.45,,,,,,227.3273,227.4915,228.5705,"[-0.11939245177771923,0.15852298133556966]","[1,1,1]","[-0.060430272624676075,0.05108205330051126]","[1,1,1]","[-0.0749879748601132,-0.00250377691599284]","[-1,-1,-1]","[-0.1772839823324038,0.08978549088578483]","[-1,-1,-1]","[-0.09683900790326266,-0.1058063951329118]","[-1,-1,-1]","[-0.00505784038582788,-0.09033599559237712]","[-1,-1,-1]","[-0.027450958355411306,-0.05698299278526142]","[1,1,1]","[0.11389324599997229,0.028488793911609918]","[-1,-1,-1]","[0.14740765102124015,-0.006401144023326587]","[-1,-1,-1]","[0.034149912511256604,0.004602413835715851]","[-1,-1,-1]","[-0.0024799820216072975,-0.19917464640949206]","[-1,-1,-1]","[0.19462975182530132,0.005177927605779537]","[1,1,1]","[0.05519071549776982,-0.14754530786452957]","[1,1,1]","[-0.00911172728400158,0.09194205071163088]","[-1,-1,-1]","[-0.07268675140378006,0.14942464244411127]","[1,1,1]","[0.04172160058054816,-0.04609925297479459]","[-1,-1,-1]","[-0.03583197273545647,0.12314795766176663]","[1,1,1]","[-0.11044957553694952,-0.14592100965696522]","[1,1,1]","[-0.10503910840303499,0.10745515839065417]","[-1,-1,-1]","[0.09706183328404754,-0.05081486645545502]","[-1,-1,-1]","[-0.16118095147328335,-0.009466642576862534]","[1,1,1]","[0.1442157075742077,0.10717409525729306]","[-1,-1,-1]","[-0.19196346286685484,0.02444979584812039]","[1,1,1]","[0.09659813544560504,0.11177446507232756]","[-1,-1,-1]","[0.0032968912031768292,0.05322324555385996]","[-1,-1,-1]","[0.07133795327167511,0.1778109708589312]","[-1,-1,-1]","[-0.06484058054043594,-0.17584511408862086]","[1,1,1]","[0.07364597581759344,-0.014368394538120697]","[-1,-1,-1]","[0.13562940124695555,-0.06226855207614936]","[-1,-1,-1]","[0.1767282340420079,-0.06743343349088486]","[1,1,1]","[0.056587246135370174,0.09236743294630088]","[1,1,1]","[0.08638617535782957,-0.10739860551623204]","[1,1,1]","[0.02,0.02]",229.5781,0,41,41,68,1,,,,,,,
,,,,,,,5f0a7dec44c42c19a6c9f6d9,68317a73fb675d778214e76b,2025-05-24_03h11.29.617,cuing_paradigm_dot,2024.1.5,Win32,8.576329331,682d573fa47f1360d1451895,,,,,,,,,,,229.5784,230.0102,,,230.1558,231.407,left,1.1022,,,,,,,,,0.45,,,,,,230.0102,230.1558,231.407,"[0.18994379522735283,0.004984942752749962]","[-1,-1,-1]","[-0.1395070277253596,0.08744548372561702]","[1,1,1]","[0.09456980374772721,0.1649711253816339]","[-1,-1,-1]","[0.07373996549808193,0.0885977923402185]","[-1,-1,-1]","[0.14497608838825723,-0.0494925458826951]","[-1,-1,-1]","[-0.012188301944511771,-0.05608425154626393]","[-1,-1,-1]","[-0.11475994455183035,-0.14621982696284894]","[1,1,1]","[0.0811609977261753,0.009721027929867789]","[1,1,1]","[0.0006893172554300232,0.10193085468713427]","[-1,-1,-1]","[-0.07941629995012288,0.10687551132026155]","[-1,-1,-1]","[-0.0025346756842956363,0.004753160217226331]","[1,1,1]","[0.04329185751303521,-0.1285651099644452]","[1,1,1]","[0.00755883735778848,0.055828085867773346]","[1,1,1]","[-0.10828760009585632,-0.030509116959436786]","[-1,-1,-1]","[-0.04372587261573981,-0.028994477355441008]","[-1,-1,-1]","[-0.19229749441763183,-0.022245174606492994]","[-1,-1,-1]","[0.12004078084224043,0.10062638914146467]","[-1,-1,-1]","[0.09420025031735835,-0.044583132716354244]","[-1,-1,-1]","[-0.0409986772345308,0.020027287558132656]","[1,1,1]","[0.18866626644363557,0.0470990322640582]","[1,1,1]","[-0.10777102365393251,-0.08619626051768513]","[-1,-1,-1]","[-0.08741223755418143,0.021800333234486723]","[1,1,1]","[0.03766909542595745,0.15419484776416706]","[1,1,1]","[-0.06500315780649076,-0.15974716935471273]","[-1,-1,-1]","[0.15554819119494648,-0.1188336015092829]","[1,1,1]","[0.02651716948053137,-0.0734972262808427]","[1,1,1]","[-0.027227002195519,-0.13948060847508947]","[-1,-1,-1]","[0.0409034939053253,-0.01197641955943906]","[-1,-1,-1]","[0.10988353292343417,-0.08445282756031143]","[1,1,1]","[0.07363318514337623,-0.1593297498236853]","[-1,-1,-1]","[0.16056160484420087,0.11239423527236012]","[1,1,1]","[-0.02262575572271511,0.1703054267887395]","[-1,-1,-1]","[0.02,0.02]",232.4057,0,42,42,75,1,,,,,,,
,,,,,,,5f0a7dec44c42c19a6c9f6d9,68317a73fb675d778214e76b,2025-05-24_03h11.29.617,cuing_paradigm_dot,2024.1.5,Win32,8.576329331,682d573fa47f1360d1451895,,,,,,,,,,,232.406,232.8317,,,232.9824,233.8884,right,0.766,,,,,,,,,0.9,,,,,,232.8317,232.9824,233.8885,"[-0.02172278825456507,-0.11889670238241891]","[-1,-1,-1]","[0.010982082953495974,0.16526941020041172]","[1,1,1]","[-0.0347907980602507,-0.15977883171736756]","[-1,-1,-1]","[0.15305500901105623,-0.1170037847976171]","[1,1,1]","[0.12955096028525767,0.07454069243337534]","[1,1,1]","[0.05844848694151645,0.15268929833115868]","[1,1,1]","[-0.09337229221534288,-0.015618865267023682]","[1,1,1]","[0.07364760160641035,-0.03273942059167352]","[1,1,1]","[-0.10603450982129185,0.16532722408690187]","[1,1,1]","[-0.17284889710782397,0.054153436259818034]","[1,1,1]","[-0.19536436705674065,-0.030383245917934898]","[1,1,1]","[0.08167346322960511,0.01014207280870828]","[1,1,1]","[-0.017994524523754045,-0.06268218442085124]","[1,1,1]","[0.11527480694608881,-0.06944689241990389]","[1,1,1]","[-0.14787823186954016,0.0015003218335695977]","[1,1,1]","[-0.08074567548773266,-0.1547408134594947]","[1,1,1]","[-0.1297699404927544,-0.11637314517940034]","[-1,-1,-1]","[-0.09624701316446721,0.07720523499729495]","[1,1,1]","[0.036701610412709015,-0.13014393105251057]","[1,1,1]","[0.17724554928400124,-0.030159099037699953]","[1,1,1]","[-0.050793788623587396,0.10608439457603125]","[1,1,1]","[0.0668307555844518,-0.07248849135363455]","[1,1,1]","[-0.04174401131783673,0.02059297900339726]","[1,1,1]","[0.007640328019663501,0.031989980900390486]","[1,1,1]","[-0.08133217705015867,-0.1119546682132118]","[1,1,1]","[0.12787084908905902,-0.030388372734748995]","[1,1,1]","[0.041761443176949596,0.05821640290224906]","[1,1,1]","[-0.11931547537665811,-0.06061469809123004]","[1,1,1]","[0.040799040199197854,-0.18154651138943764]","[1,1,1]","[-0.19693739683680525,0.011205653100146666]","[1,1,1]","[0.12096464403695664,0.12272066134258384]","[1,1,1]","[-0.012132186468849443,0.1994487247365211]","[1,1,1]","[0.02,0.02]",234.9164,0,43,43,188,1,,,,,,,
,,,,,,,5f0a7dec44c42c19a6c9f6d9,68317a73fb675d778214e76b,2025-05-24_03h11.29.617,cuing_paradigm_dot,2024.1.5,Win32,8.576329331,682d573fa47f1360d1451895,,,,,,,,,,,234.9168,235.339,,,235.6345,236.6955,left,0.9221,,,,,,,,,0.4,,,,,,235.339,235.6345,236.6956,"[-0.09514231404152279,0.06386257852664674]","[-1,-1,-1]","[0.16887423653863107,-0.09556259617499016]","[-1,-1,-1]","[0.1550159948294854,0.10118031512646396]","[-1,-1,-1]","[0.055996043137779256,-0.010086267839717748]","[-1,-1,-1]","[-0.06331060276120945,-0.016173493998708967]","[-1,-1,-1]","[-0.05091958648735852,-0.16443293873875953]","[-1,-1,-1]","[0.14047476549238633,-0.1278356376670572]","[-1,-1,-1]","[-0.1956008982151115,0.003168887532805582]","[1,1,1]","[-0.10592982290190368,-0.026269150658910966]","[-1,-1,-1]","[-0.021231317702531335,0.08032592595170174]","[1,1,1]","[0.1106077404195452,0.15110747660056223]","[1,1,1]","[-0.053143796128498295,0.11491612798126918]","[-1,-1,-1]","[0.07265215484374152,-0.1358325320043401]","[-1,-1,-1]","[0.13864583326511928,-0.05507201300986579]","[1,1,1]","[0.09153024606299806,-0.08998889740732643]","[1,1,1]","[0.052789057340352656,0.037310689428766905]","[-1,-1,-1]","[-0.007696665615450001,-0.11497168147677625]","[1,1,1]","[-0.17823097786522415,0.08200962479713006]","[1,1,1]","[-0.0036663779510062175,-0.050954424314799775]","[-1,-1,-1]","[-0.13069357630759504,-0.10914227316407346]","[1,1,1]","[-0.052214908275725724,-0.07976234123709765]","[-1,-1,-1]","[-0.15627091454679648,0.03760300323779809]","[1,1,1]","[0.10091518739104685,0.09769994836436699]","[1,1,1]","[0.07204041215304281,0.17576004196338132]","[1,1,1]","[0.16847451079837902,0.05759971152025561]","[-1,-1,-1]","[-0.02884207707130727,0.009989717087476303]","[1,1,1]","[-0.12418336555366578,0.09470294542137046]","[-1,-1,-1]","[0.16734010493660598,0.005953512298127883]","[-1,-1,-1]","[0.031768253273466204,0.11177942856900464]","[-1,-1,-1]","[0.0929302686229142,0.04814383617079105]","[1,1,1]","[0.041051412609347304,-0.05039046178999819]","[-1,-1,-1]","[-0.10421250578385739,-0.16482081058805473]","[-1,-1,-1]","[0.02,0.02]",237.7472,0,44,44,51,1,,,,,,,
