right,left,explain.started,explain.stopped,key_resp_3.keys,key_resp_3.rt,key_resp_3.duration,participant,session,date,expName,psychopyVersion,OS,frameRate,study_id,explain_2.started,explain_2.stopped,key_resp_4.keys,key_resp_4.rt,key_resp_4.duration,explain_3.started,explain_3.stopped,key_resp_5.keys,key_resp_5.rt,key_resp_5.duration,fixation.started,fixation.stopped,practice.started,practice.stopped,response.started,response.stopped,key_resp.keys,key_resp.rt,key_resp.duration,feedback.started,feedback.stopped,trials_2.thisRepN,trials_2.thisTrialN,trials_2.thisN,trials_2.thisIndex,trials_2.ran,white_ratio,explain_4.started,explain_4.stopped,key_resp_6.keys,key_resp_6.rt,key_resp_6.duration,dotDisplay.started,dotDisplay.stopped,ITI.started,ITI.stopped,trials.thisRepN,trials.thisTrialN,trials.thisN,trials.thisIndex,trials.ran,break_2.started,break_2.stopped,trials_3.thisRepN,trials_3.thisTrialN,trials_3.thisN,trials_3.thisIndex,trials_3.ran
subject chose white,subject chose black,0,24.786,space,9.776,,5b09da13641b1200010eab05,682530beee0475fe95259f82,2025-05-14_20h10.39.203,cuing_paradigm_dot,2024.1.5,Win32,144.092219,68242c07d0c0e200c6451fdd,,,,,,,,,,,,,,,,,,,,,,,,,,,,,,,,,,,,,,,,,,,,,,,,
,,,,,,,5b09da13641b1200010eab05,682530beee0475fe95259f82,2025-05-14_20h10.39.203,cuing_paradigm_dot,2024.1.5,Win32,144.092219,68242c07d0c0e200c6451fdd,24.786,55.709,space,0.913,,,,,,,,,,,,,,,,,,,,,,,,,,,,,,,,,,,,,,,,,,,,
,,,,,,,5b09da13641b1200010eab05,682530beee0475fe95259f82,2025-05-14_20h10.39.203,cuing_paradigm_dot,2024.1.5,Win32,144.092219,68242c07d0c0e200c6451fdd,,,,,,55.709,62,space,3.288,,,,,,,,,,,,,,,,,,,,,,,,,,,,,,,,,,,,,,,
,,,,,,,5b09da13641b1200010eab05,682530beee0475fe95259f82,2025-05-14_20h10.39.203,cuing_paradigm_dot,2024.1.5,Win32,144.092219,68242c07d0c0e200c6451fdd,,,,,,,,,,,62.007,62.501,62.501,62.752,62.752,63.542,left,0.76,,63.542,64.64,0,0,0,1,1,0.2,,,,,,,,,,,,,,,,,,,,,
,,,,,,,5b09da13641b1200010eab05,682530beee0475fe95259f82,2025-05-14_20h10.39.203,cuing_paradigm_dot,2024.1.5,Win32,144.092219,68242c07d0c0e200c6451fdd,,,,,,,,,,,64.64,65.139,65.139,65.39,65.39,66.077,right,0.681,,66.077,67.174,0,1,1,0,1,0.8,,,,,,,,,,,,,,,,,,,,,
,,,,,,,5b09da13641b1200010eab05,682530beee0475fe95259f82,2025-05-14_20h10.39.203,cuing_paradigm_dot,2024.1.5,Win32,144.092219,68242c07d0c0e200c6451fdd,,,,,,,,,,,,,,,,,,,,,,,,,,,,67.175,72.112,space,1.926,,,,,,,,,,,,,,,,,
,,,,,,,5b09da13641b1200010eab05,682530beee0475fe95259f82,2025-05-14_20h10.39.203,cuing_paradigm_dot,2024.1.5,Win32,144.092219,68242c07d0c0e200c6451fdd,,,,,,,,,,,72.119,72.612,,,72.863,73.438,right,0.572,,,,,,,,,0.6,,,,,,72.612,72.863,73.439,74.536,0,0,0,155,1,,,,,,,
,,,,,,,5b09da13641b1200010eab05,682530beee0475fe95259f82,2025-05-14_20h10.39.203,cuing_paradigm_dot,2024.1.5,Win32,144.092219,68242c07d0c0e200c6451fdd,,,,,,,,,,,74.537,75.036,,,75.286,75.953,right,0.659,,,,,,,,,0.5,,,,,,75.036,75.286,75.953,77.05,0,1,1,108,1,,,,,,,
,,,,,,,5b09da13641b1200010eab05,682530beee0475fe95259f82,2025-05-14_20h10.39.203,cuing_paradigm_dot,2024.1.5,Win32,144.092219,68242c07d0c0e200c6451fdd,,,,,,,,,,,77.05,77.549,,,77.8,78.946,left,1.139,,,,,,,,,0.5,,,,,,77.549,77.8,78.946,80.043,0,2,2,105,1,,,,,,,
,,,,,,,5b09da13641b1200010eab05,682530beee0475fe95259f82,2025-05-14_20h10.39.203,cuing_paradigm_dot,2024.1.5,Win32,144.092219,68242c07d0c0e200c6451fdd,,,,,,,,,,,80.044,80.543,,,80.794,81.356,right,0.557,,,,,,,,,0.6,,,,,,80.543,80.794,81.356,82.453,0,3,3,168,1,,,,,,,
,,,,,,,5b09da13641b1200010eab05,682530beee0475fe95259f82,2025-05-14_20h10.39.203,cuing_paradigm_dot,2024.1.5,Win32,144.092219,68242c07d0c0e200c6451fdd,,,,,,,,,,,82.453,82.953,,,83.203,83.773,right,0.565,,,,,,,,,0.45,,,,,,82.953,83.203,83.773,84.87,0,4,4,89,1,,,,,,,
,,,,,,,5b09da13641b1200010eab05,682530beee0475fe95259f82,2025-05-14_20h10.39.203,cuing_paradigm_dot,2024.1.5,Win32,144.092219,68242c07d0c0e200c6451fdd,,,,,,,,,,,84.87,85.37,,,85.62,86.918,left,1.291,,,,,,,,,0.45,,,,,,85.37,85.62,86.919,88.017,0,5,5,75,1,,,,,,,
,,,,,,,5b09da13641b1200010eab05,682530beee0475fe95259f82,2025-05-14_20h10.39.203,cuing_paradigm_dot,2024.1.5,Win32,144.092219,68242c07d0c0e200c6451fdd,,,,,,,,,,,88.018,88.516,,,88.766,89.363,left,0.591,,,,,,,,,0.45,,,,,,88.516,88.766,89.363,90.46,0,6,6,68,1,,,,,,,
,,,,,,,5b09da13641b1200010eab05,682530beee0475fe95259f82,2025-05-14_20h10.39.203,cuing_paradigm_dot,2024.1.5,Win32,144.092219,68242c07d0c0e200c6451fdd,,,,,,,,,,,90.461,90.96,,,91.21,91.537,left,0.319,,,,,,,,,0.1,,,,,,90.96,91.21,91.537,92.634,0,7,7,16,1,,,,,,,
,,,,,,,5b09da13641b1200010eab05,682530beee0475fe95259f82,2025-05-14_20h10.39.203,cuing_paradigm_dot,2024.1.5,Win32,144.092219,68242c07d0c0e200c6451fdd,,,,,,,,,,,92.635,93.134,,,93.385,93.655,right,0.264,,,,,,,,,0.9,,,,,,93.134,93.385,93.655,94.752,0,8,8,197,1,,,,,,,
,,,,,,,5b09da13641b1200010eab05,682530beee0475fe95259f82,2025-05-14_20h10.39.203,cuing_paradigm_dot,2024.1.5,Win32,144.092219,68242c07d0c0e200c6451fdd,,,,,,,,,,,94.752,95.252,,,95.502,96.225,right,0.715,,,,,,,,,0.6,,,,,,95.252,95.502,96.225,97.322,0,9,9,174,1,,,,,,,
,,,,,,,5b09da13641b1200010eab05,682530beee0475fe95259f82,2025-05-14_20h10.39.203,cuing_paradigm_dot,2024.1.5,Win32,144.092219,68242c07d0c0e200c6451fdd,,,,,,,,,,,97.322,97.821,,,98.072,98.557,right,0.482,,,,,,,,,0.6,,,,,,97.821,98.072,98.557,99.655,0,10,10,175,1,,,,,,,
,,,,,,,5b09da13641b1200010eab05,682530beee0475fe95259f82,2025-05-14_20h10.39.203,cuing_paradigm_dot,2024.1.5,Win32,144.092219,68242c07d0c0e200c6451fdd,,,,,,,,,,,99.655,100.155,,,100.405,101.21,right,0.801,,,,,,,,,0.5,,,,,,100.155,100.405,101.21,102.308,0,11,11,111,1,,,,,,,
,,,,,,,5b09da13641b1200010eab05,682530beee0475fe95259f82,2025-05-14_20h10.39.203,cuing_paradigm_dot,2024.1.5,Win32,144.092219,68242c07d0c0e200c6451fdd,,,,,,,,,,,102.309,102.808,,,103.059,103.509,right,0.446,,,,,,,,,0.6,,,,,,102.808,103.059,103.509,104.607,0,12,12,173,1,,,,,,,
,,,,,,,5b09da13641b1200010eab05,682530beee0475fe95259f82,2025-05-14_20h10.39.203,cuing_paradigm_dot,2024.1.5,Win32,144.092219,68242c07d0c0e200c6451fdd,,,,,,,,,,,104.607,105.106,,,105.358,105.822,right,0.463,,,,,,,,,0.6,,,,,,105.106,105.358,105.822,106.919,0,13,13,169,1,,,,,,,
,,,,,,,5b09da13641b1200010eab05,682530beee0475fe95259f82,2025-05-14_20h10.39.203,cuing_paradigm_dot,2024.1.5,Win32,144.092219,68242c07d0c0e200c6451fdd,,,,,,,,,,,106.92,107.42,,,107.669,108.211,left,0.535,,,,,,,,,0.5,,,,,,107.42,107.669,108.211,109.308,0,14,14,95,1,,,,,,,
,,,,,,,5b09da13641b1200010eab05,682530beee0475fe95259f82,2025-05-14_20h10.39.203,cuing_paradigm_dot,2024.1.5,Win32,144.092219,68242c07d0c0e200c6451fdd,,,,,,,,,,,109.309,109.809,,,110.059,110.926,right,0.862,,,,,,,,,0.6,,,,,,109.809,110.059,110.926,112.023,0,15,15,166,1,,,,,,,
,,,,,,,5b09da13641b1200010eab05,682530beee0475fe95259f82,2025-05-14_20h10.39.203,cuing_paradigm_dot,2024.1.5,Win32,144.092219,68242c07d0c0e200c6451fdd,,,,,,,,,,,112.024,112.523,,,112.774,113.489,right,0.708,,,,,,,,,0.4,,,,,,112.523,112.774,113.489,114.586,0,16,16,50,1,,,,,,,
,,,,,,,5b09da13641b1200010eab05,682530beee0475fe95259f82,2025-05-14_20h10.39.203,cuing_paradigm_dot,2024.1.5,Win32,144.092219,68242c07d0c0e200c6451fdd,,,,,,,,,,,114.587,115.086,,,115.337,115.969,right,0.624,,,,,,,,,0.45,,,,,,115.086,115.337,115.969,117.065,0,17,17,60,1,,,,,,,
,,,,,,,5b09da13641b1200010eab05,682530beee0475fe95259f82,2025-05-14_20h10.39.203,cuing_paradigm_dot,2024.1.5,Win32,144.092219,68242c07d0c0e200c6451fdd,,,,,,,,,,,117.066,117.566,,,117.816,118.44,right,0.618,,,,,,,,,0.55,,,,,,117.566,117.816,118.44,119.538,0,18,18,134,1,,,,,,,
,,,,,,,5b09da13641b1200010eab05,682530beee0475fe95259f82,2025-05-14_20h10.39.203,cuing_paradigm_dot,2024.1.5,Win32,144.092219,68242c07d0c0e200c6451fdd,,,,,,,,,,,119.538,120.038,,,120.288,120.58,right,0.285,,,,,,,,,0.9,,,,,,120.038,120.288,120.58,121.677,0,19,19,202,1,,,,,,,
,,,,,,,5b09da13641b1200010eab05,682530beee0475fe95259f82,2025-05-14_20h10.39.203,cuing_paradigm_dot,2024.1.5,Win32,144.092219,68242c07d0c0e200c6451fdd,,,,,,,,,,,121.679,122.177,,,122.428,123.171,left,0.736,,,,,,,,,0.55,,,,,,122.177,122.428,123.171,124.267,0,20,20,149,1,,,,,,,
,,,,,,,5b09da13641b1200010eab05,682530beee0475fe95259f82,2025-05-14_20h10.39.203,cuing_paradigm_dot,2024.1.5,Win32,144.092219,68242c07d0c0e200c6451fdd,,,,,,,,,,,124.268,124.767,,,125.018,125.301,right,0.28,,,,,,,,,0.9,,,,,,124.767,125.017,125.302,126.399,0,21,21,203,1,,,,,,,
,,,,,,,5b09da13641b1200010eab05,682530beee0475fe95259f82,2025-05-14_20h10.39.203,cuing_paradigm_dot,2024.1.5,Win32,144.092219,68242c07d0c0e200c6451fdd,,,,,,,,,,,126.4,126.899,,,127.149,127.455,right,0.299,,,,,,,,,0.9,,,,,,126.899,127.149,127.455,128.552,0,22,22,184,1,,,,,,,
,,,,,,,5b09da13641b1200010eab05,682530beee0475fe95259f82,2025-05-14_20h10.39.203,cuing_paradigm_dot,2024.1.5,Win32,144.092219,68242c07d0c0e200c6451fdd,,,,,,,,,,,128.552,129.052,,,129.303,129.955,left,0.646,,,,,,,,,0.6,,,,,,129.053,129.303,129.955,131.052,0,23,23,164,1,,,,,,,
,,,,,,,5b09da13641b1200010eab05,682530beee0475fe95259f82,2025-05-14_20h10.39.203,cuing_paradigm_dot,2024.1.5,Win32,144.092219,68242c07d0c0e200c6451fdd,,,,,,,,,,,131.053,131.552,,,131.803,132.413,right,0.606,,,,,,,,,0.55,,,,,,131.552,131.803,132.413,133.511,0,24,24,142,1,,,,,,,
,,,,,,,5b09da13641b1200010eab05,682530beee0475fe95259f82,2025-05-14_20h10.39.203,cuing_paradigm_dot,2024.1.5,Win32,144.092219,68242c07d0c0e200c6451fdd,,,,,,,,,,,133.511,134.01,,,134.261,134.58,left,0.313,,,,,,,,,0.1,,,,,,134.01,134.261,134.58,135.677,0,25,25,11,1,,,,,,,
,,,,,,,5b09da13641b1200010eab05,682530beee0475fe95259f82,2025-05-14_20h10.39.203,cuing_paradigm_dot,2024.1.5,Win32,144.092219,68242c07d0c0e200c6451fdd,,,,,,,,,,,135.678,136.177,,,136.428,137.003,left,0.571,,,,,,,,,0.5,,,,,,136.177,136.428,137.003,138.101,0,26,26,101,1,,,,,,,
,,,,,,,5b09da13641b1200010eab05,682530beee0475fe95259f82,2025-05-14_20h10.39.203,cuing_paradigm_dot,2024.1.5,Win32,144.092219,68242c07d0c0e200c6451fdd,,,,,,,,,,,138.102,138.601,,,138.852,139.643,right,0.785,,,,,,,,,0.5,,,,,,138.601,138.852,139.643,140.74,0,27,27,103,1,,,,,,,
,,,,,,,5b09da13641b1200010eab05,682530beee0475fe95259f82,2025-05-14_20h10.39.203,cuing_paradigm_dot,2024.1.5,Win32,144.092219,68242c07d0c0e200c6451fdd,,,,,,,,,,,140.74,141.24,,,141.49,142.254,left,0.758,,,,,,,,,0.55,,,,,,141.24,141.49,142.254,143.351,0,28,28,133,1,,,,,,,
,,,,,,,5b09da13641b1200010eab05,682530beee0475fe95259f82,2025-05-14_20h10.39.203,cuing_paradigm_dot,2024.1.5,Win32,144.092219,68242c07d0c0e200c6451fdd,,,,,,,,,,,143.351,143.852,,,144.102,144.664,left,0.56,,,,,,,,,0.5,,,,,,143.852,144.102,144.664,145.761,0,29,29,118,1,,,,,,,
,,,,,,,5b09da13641b1200010eab05,682530beee0475fe95259f82,2025-05-14_20h10.39.203,cuing_paradigm_dot,2024.1.5,Win32,144.092219,68242c07d0c0e200c6451fdd,,,,,,,,,,,145.761,146.261,,,146.511,147.094,right,0.578,,,,,,,,,0.6,,,,,,146.261,146.511,147.094,148.191,0,30,30,158,1,,,,,,,
,,,,,,,5b09da13641b1200010eab05,682530beee0475fe95259f82,2025-05-14_20h10.39.203,cuing_paradigm_dot,2024.1.5,Win32,144.092219,68242c07d0c0e200c6451fdd,,,,,,,,,,,148.192,148.692,,,148.942,149.762,left,0.812,,,,,,,,,0.4,,,,,,148.692,148.942,149.762,150.859,0,31,31,47,1,,,,,,,
,,,,,,,5b09da13641b1200010eab05,682530beee0475fe95259f82,2025-05-14_20h10.39.203,cuing_paradigm_dot,2024.1.5,Win32,144.092219,68242c07d0c0e200c6451fdd,,,,,,,,,,,150.859,151.358,,,151.609,152.463,right,0.85,,,,,,,,,0.6,,,,,,151.358,151.609,152.463,153.56,0,32,32,177,1,,,,,,,
,,,,,,,5b09da13641b1200010eab05,682530beee0475fe95259f82,2025-05-14_20h10.39.203,cuing_paradigm_dot,2024.1.5,Win32,144.092219,68242c07d0c0e200c6451fdd,,,,,,,,,,,153.561,154.06,,,154.311,154.846,left,0.531,,,,,,,,,0.4,,,,,,154.06,154.311,154.846,155.942,0,33,33,53,1,,,,,,,
,,,,,,,5b09da13641b1200010eab05,682530beee0475fe95259f82,2025-05-14_20h10.39.203,cuing_paradigm_dot,2024.1.5,Win32,144.092219,68242c07d0c0e200c6451fdd,,,,,,,,,,,155.943,156.442,,,156.693,157.011,left,0.315,,,,,,,,,0.1,,,,,,156.442,156.693,157.011,158.109,0,34,34,13,1,,,,,,,
,,,,,,,5b09da13641b1200010eab05,682530beee0475fe95259f82,2025-05-14_20h10.39.203,cuing_paradigm_dot,2024.1.5,Win32,144.092219,68242c07d0c0e200c6451fdd,,,,,,,,,,,158.11,158.609,,,158.859,159.289,left,0.425,,,,,,,,,0.45,,,,,,158.609,158.859,159.29,160.387,0,35,35,86,1,,,,,,,
,,,,,,,5b09da13641b1200010eab05,682530beee0475fe95259f82,2025-05-14_20h10.39.203,cuing_paradigm_dot,2024.1.5,Win32,144.092219,68242c07d0c0e200c6451fdd,,,,,,,,,,,160.388,160.887,,,161.137,161.616,right,0.476,,,,,,,,,0.6,,,,,,160.887,161.137,161.616,162.713,0,36,36,163,1,,,,,,,
,,,,,,,5b09da13641b1200010eab05,682530beee0475fe95259f82,2025-05-14_20h10.39.203,cuing_paradigm_dot,2024.1.5,Win32,144.092219,68242c07d0c0e200c6451fdd,,,,,,,,,,,162.714,163.213,,,163.463,163.734,right,0.264,,,,,,,,,0.9,,,,,,163.213,163.463,163.734,164.832,0,37,37,209,1,,,,,,,
,,,,,,,5b09da13641b1200010eab05,682530beee0475fe95259f82,2025-05-14_20h10.39.203,cuing_paradigm_dot,2024.1.5,Win32,144.092219,68242c07d0c0e200c6451fdd,,,,,,,,,,,164.832,165.331,,,165.581,165.894,right,0.305,,,,,,,,,0.9,,,,,,165.331,165.581,165.894,166.991,0,38,38,188,1,,,,,,,
,,,,,,,5b09da13641b1200010eab05,682530beee0475fe95259f82,2025-05-14_20h10.39.203,cuing_paradigm_dot,2024.1.5,Win32,144.092219,68242c07d0c0e200c6451fdd,,,,,,,,,,,166.992,167.491,,,167.741,168.025,left,0.28,,,,,,,,,0.4,,,,,,167.491,167.741,168.025,169.124,0,39,39,40,1,,,,,,,
,,,,,,,5b09da13641b1200010eab05,682530beee0475fe95259f82,2025-05-14_20h10.39.203,cuing_paradigm_dot,2024.1.5,Win32,144.092219,68242c07d0c0e200c6451fdd,,,,,,,,,,,169.124,169.623,,,169.873,170.47,left,0.59,,,,,,,,,0.55,,,,,,169.623,169.873,170.471,171.567,0,40,40,139,1,,,,,,,
,,,,,,,5b09da13641b1200010eab05,682530beee0475fe95259f82,2025-05-14_20h10.39.203,cuing_paradigm_dot,2024.1.5,Win32,144.092219,68242c07d0c0e200c6451fdd,,,,,,,,,,,171.568,172.068,,,172.318,173.026,right,0.706,,,,,,,,,0.55,,,,,,172.068,172.318,173.027,174.123,0,41,41,131,1,,,,,,,
,,,,,,,5b09da13641b1200010eab05,682530beee0475fe95259f82,2025-05-14_20h10.39.203,cuing_paradigm_dot,2024.1.5,Win32,144.092219,68242c07d0c0e200c6451fdd,,,,,,,,,,,174.124,174.623,,,174.874,175.13,left,0.251,,,,,,,,,0.1,,,,,,174.623,174.874,175.13,176.228,0,42,42,12,1,,,,,,,
,,,,,,,5b09da13641b1200010eab05,682530beee0475fe95259f82,2025-05-14_20h10.39.203,cuing_paradigm_dot,2024.1.5,Win32,144.092219,68242c07d0c0e200c6451fdd,,,,,,,,,,,176.229,176.728,,,176.978,177.499,left,0.519,,,,,,,,,0.5,,,,,,176.728,176.978,177.499,178.596,0,43,43,96,1,,,,,,,
,,,,,,,5b09da13641b1200010eab05,682530beee0475fe95259f82,2025-05-14_20h10.39.203,cuing_paradigm_dot,2024.1.5,Win32,144.092219,68242c07d0c0e200c6451fdd,,,,,,,,,,,178.596,179.095,,,179.346,179.582,right,0.229,,,,,,,,,0.9,,,,,,179.095,179.346,179.582,180.679,0,44,44,201,1,,,,,,,
,,,,,,,5b09da13641b1200010eab05,682530beee0475fe95259f82,2025-05-14_20h10.39.203,cuing_paradigm_dot,2024.1.5,Win32,144.092219,68242c07d0c0e200c6451fdd,,,,,,,,,,,180.68,181.179,,,181.429,181.971,right,0.535,,,,,,,,,0.55,,,,,,181.179,181.429,181.971,183.068,0,45,45,136,1,,,,,,,
,,,,,,,5b09da13641b1200010eab05,682530beee0475fe95259f82,2025-05-14_20h10.39.203,cuing_paradigm_dot,2024.1.5,Win32,144.092219,68242c07d0c0e200c6451fdd,,,,,,,,,,,183.069,183.569,,,183.818,184.477,right,0.656,,,,,,,,,0.55,,,,,,183.569,183.818,184.477,185.576,0,46,46,144,1,,,,,,,
,,,,,,,5b09da13641b1200010eab05,682530beee0475fe95259f82,2025-05-14_20h10.39.203,cuing_paradigm_dot,2024.1.5,Win32,144.092219,68242c07d0c0e200c6451fdd,,,,,,,,,,,185.576,186.075,,,186.326,186.888,left,0.555,,,,,,,,,0.55,,,,,,186.075,186.325,186.888,187.985,0,47,47,130,1,,,,,,,
,,,,,,,5b09da13641b1200010eab05,682530beee0475fe95259f82,2025-05-14_20h10.39.203,cuing_paradigm_dot,2024.1.5,Win32,144.092219,68242c07d0c0e200c6451fdd,,,,,,,,,,,187.985,188.485,,,188.735,189.298,right,0.558,,,,,,,,,0.55,,,,,,188.485,188.735,189.298,190.395,0,48,48,128,1,,,,,,,
,,,,,,,5b09da13641b1200010eab05,682530beee0475fe95259f82,2025-05-14_20h10.39.203,cuing_paradigm_dot,2024.1.5,Win32,144.092219,68242c07d0c0e200c6451fdd,,,,,,,,,,,190.396,190.895,,,191.145,191.346,left,0.197,,,,,,,,,0.1,,,,,,190.895,191.145,191.346,192.443,0,49,49,2,1,,,,,,,
,,,,,,,5b09da13641b1200010eab05,682530beee0475fe95259f82,2025-05-14_20h10.39.203,cuing_paradigm_dot,2024.1.5,Win32,144.092219,68242c07d0c0e200c6451fdd,,,,,,,,,,,192.444,192.944,,,193.194,193.381,right,0.181,,,,,,,,,0.9,,,,,,192.944,193.194,193.381,194.478,0,50,50,200,1,,,,,,,
,,,,,,,5b09da13641b1200010eab05,682530beee0475fe95259f82,2025-05-14_20h10.39.203,cuing_paradigm_dot,2024.1.5,Win32,144.092219,68242c07d0c0e200c6451fdd,,,,,,,,,,,194.479,194.979,,,195.228,195.52,left,0.289,,,,,,,,,0.1,,,,,,194.979,195.228,195.52,196.617,0,51,51,15,1,,,,,,,
,,,,,,,5b09da13641b1200010eab05,682530beee0475fe95259f82,2025-05-14_20h10.39.203,cuing_paradigm_dot,2024.1.5,Win32,144.092219,68242c07d0c0e200c6451fdd,,,,,,,,,,,196.618,197.117,,,197.368,197.569,left,0.195,,,,,,,,,0.1,,,,,,197.117,197.368,197.569,198.666,0,52,52,26,1,,,,,,,
,,,,,,,5b09da13641b1200010eab05,682530beee0475fe95259f82,2025-05-14_20h10.39.203,cuing_paradigm_dot,2024.1.5,Win32,144.092219,68242c07d0c0e200c6451fdd,,,,,,,,,,,198.667,199.166,,,199.417,199.562,left,0.139,,,,,,,,,0.1,,,,,,199.166,199.417,199.562,200.659,0,53,53,7,1,,,,,,,
,,,,,,,5b09da13641b1200010eab05,682530beee0475fe95259f82,2025-05-14_20h10.39.203,cuing_paradigm_dot,2024.1.5,Win32,144.092219,68242c07d0c0e200c6451fdd,,,,,,,,,,,200.66,201.159,,,201.41,201.992,left,0.576,,,,,,,,,0.55,,,,,,201.159,201.41,201.992,203.089,0,54,54,148,1,,,,,,,
,,,,,,,5b09da13641b1200010eab05,682530beee0475fe95259f82,2025-05-14_20h10.39.203,cuing_paradigm_dot,2024.1.5,Win32,144.092219,68242c07d0c0e200c6451fdd,,,,,,,,,,,203.09,203.59,,,203.841,204.208,left,0.365,,,,,,,,,0.45,,,,,,203.59,203.841,204.208,205.305,0,55,55,85,1,,,,,,,
,,,,,,,5b09da13641b1200010eab05,682530beee0475fe95259f82,2025-05-14_20h10.39.203,cuing_paradigm_dot,2024.1.5,Win32,144.092219,68242c07d0c0e200c6451fdd,,,,,,,,,,,205.306,205.805,,,206.056,206.757,left,0.696,,,,,,,,,0.5,,,,,,205.805,206.056,206.757,207.854,0,56,56,116,1,,,,,,,
,,,,,,,5b09da13641b1200010eab05,682530beee0475fe95259f82,2025-05-14_20h10.39.203,cuing_paradigm_dot,2024.1.5,Win32,144.092219,68242c07d0c0e200c6451fdd,,,,,,,,,,,207.854,208.354,,,208.604,209.028,right,0.419,,,,,,,,,0.55,,,,,,208.354,208.604,209.028,210.125,0,57,57,132,1,,,,,,,
,,,,,,,5b09da13641b1200010eab05,682530beee0475fe95259f82,2025-05-14_20h10.39.203,cuing_paradigm_dot,2024.1.5,Win32,144.092219,68242c07d0c0e200c6451fdd,,,,,,,,,,,210.126,210.625,,,210.875,211.131,left,0.253,,,,,,,,,0.45,,,,,,210.625,210.875,211.132,212.229,0,58,58,81,1,,,,,,,
,,,,,,,5b09da13641b1200010eab05,682530beee0475fe95259f82,2025-05-14_20h10.39.203,cuing_paradigm_dot,2024.1.5,Win32,144.092219,68242c07d0c0e200c6451fdd,,,,,,,,,,,212.229,212.729,,,212.98,213.187,left,0.205,,,,,,,,,0.4,,,,,,212.729,212.98,213.188,214.285,0,59,59,39,1,,,,,,,
,,,,,,,5b09da13641b1200010eab05,682530beee0475fe95259f82,2025-05-14_20h10.39.203,cuing_paradigm_dot,2024.1.5,Win32,144.092219,68242c07d0c0e200c6451fdd,,,,,,,,,,,214.286,214.785,,,215.035,215.326,right,0.286,,,,,,,,,0.6,,,,,,214.785,215.035,215.326,216.423,0,60,60,161,1,,,,,,,
,,,,,,,5b09da13641b1200010eab05,682530beee0475fe95259f82,2025-05-14_20h10.39.203,cuing_paradigm_dot,2024.1.5,Win32,144.092219,68242c07d0c0e200c6451fdd,,,,,,,,,,,216.424,216.924,,,217.174,217.486,right,0.308,,,,,,,,,0.9,,,,,,216.924,217.174,217.486,218.583,0,61,61,196,1,,,,,,,
,,,,,,,5b09da13641b1200010eab05,682530beee0475fe95259f82,2025-05-14_20h10.39.203,cuing_paradigm_dot,2024.1.5,Win32,144.092219,68242c07d0c0e200c6451fdd,,,,,,,,,,,218.585,219.084,,,219.334,219.5,left,0.159,,,,,,,,,0.45,,,,,,219.084,219.334,219.5,220.598,0,62,62,66,1,,,,,,,
,,,,,,,5b09da13641b1200010eab05,682530beee0475fe95259f82,2025-05-14_20h10.39.203,cuing_paradigm_dot,2024.1.5,Win32,144.092219,68242c07d0c0e200c6451fdd,,,,,,,,,,,220.598,221.097,,,221.348,221.674,left,0.323,,,,,,,,,0.4,,,,,,221.097,221.348,221.674,222.771,0,63,63,48,1,,,,,,,
,,,,,,,5b09da13641b1200010eab05,682530beee0475fe95259f82,2025-05-14_20h10.39.203,cuing_paradigm_dot,2024.1.5,Win32,144.092219,68242c07d0c0e200c6451fdd,,,,,,,,,,,222.773,223.271,,,223.522,223.723,left,0.195,,,,,,,,,0.45,,,,,,223.271,223.522,223.723,224.82,0,64,64,88,1,,,,,,,
,,,,,,,5b09da13641b1200010eab05,682530beee0475fe95259f82,2025-05-14_20h10.39.203,cuing_paradigm_dot,2024.1.5,Win32,144.092219,68242c07d0c0e200c6451fdd,,,,,,,,,,,224.821,225.32,,,225.57,226.195,right,0.618,,,,,,,,,0.6,,,,,,225.32,225.57,226.195,227.292,0,65,65,150,1,,,,,,,
,,,,,,,5b09da13641b1200010eab05,682530beee0475fe95259f82,2025-05-14_20h10.39.203,cuing_paradigm_dot,2024.1.5,Win32,144.092219,68242c07d0c0e200c6451fdd,,,,,,,,,,,227.293,227.793,,,228.042,228.431,left,0.385,,,,,,,,,0.45,,,,,,227.793,228.042,228.431,229.528,0,66,66,84,1,,,,,,,
,,,,,,,5b09da13641b1200010eab05,682530beee0475fe95259f82,2025-05-14_20h10.39.203,cuing_paradigm_dot,2024.1.5,Win32,144.092219,68242c07d0c0e200c6451fdd,,,,,,,,,,,229.529,230.028,,,230.278,230.75,left,0.467,,,,,,,,,0.55,,,,,,230.028,230.278,230.75,231.848,0,67,67,146,1,,,,,,,
,,,,,,,5b09da13641b1200010eab05,682530beee0475fe95259f82,2025-05-14_20h10.39.203,cuing_paradigm_dot,2024.1.5,Win32,144.092219,68242c07d0c0e200c6451fdd,,,,,,,,,,,231.849,232.348,,,232.598,232.82,left,0.216,,,,,,,,,0.4,,,,,,232.348,232.598,232.82,233.918,0,68,68,58,1,,,,,,,
,,,,,,,5b09da13641b1200010eab05,682530beee0475fe95259f82,2025-05-14_20h10.39.203,cuing_paradigm_dot,2024.1.5,Win32,144.092219,68242c07d0c0e200c6451fdd,,,,,,,,,,,233.919,234.418,,,234.668,235.049,right,0.375,,,,,,,,,0.6,,,,,,234.418,234.668,235.049,236.147,0,69,69,160,1,,,,,,,
,,,,,,,5b09da13641b1200010eab05,682530beee0475fe95259f82,2025-05-14_20h10.39.203,cuing_paradigm_dot,2024.1.5,Win32,144.092219,68242c07d0c0e200c6451fdd,,,,,,,,,,,236.147,236.647,,,236.897,237.098,right,0.197,,,,,,,,,0.9,,,,,,236.647,236.897,237.098,238.195,0,70,70,191,1,,,,,,,
,,,,,,,5b09da13641b1200010eab05,682530beee0475fe95259f82,2025-05-14_20h10.39.203,cuing_paradigm_dot,2024.1.5,Win32,144.092219,68242c07d0c0e200c6451fdd,,,,,,,,,,,238.195,238.696,,,238.946,239.07,left,0.118,,,,,,,,,0.55,,,,,,238.696,238.946,239.07,240.167,0,71,71,140,1,,,,,,,
,,,,,,,5b09da13641b1200010eab05,682530beee0475fe95259f82,2025-05-14_20h10.39.203,cuing_paradigm_dot,2024.1.5,Win32,144.092219,68242c07d0c0e200c6451fdd,,,,,,,,,,,240.168,240.668,,,240.918,241.543,right,0.622,,,,,,,,,0.55,,,,,,240.668,240.918,241.543,242.64,0,72,72,141,1,,,,,,,
,,,,,,,5b09da13641b1200010eab05,682530beee0475fe95259f82,2025-05-14_20h10.39.203,cuing_paradigm_dot,2024.1.5,Win32,144.092219,68242c07d0c0e200c6451fdd,,,,,,,,,,,242.64,243.14,,,243.39,243.953,left,0.559,,,,,,,,,0.5,,,,,,243.14,243.39,243.953,245.05,0,73,73,117,1,,,,,,,
,,,,,,,5b09da13641b1200010eab05,682530beee0475fe95259f82,2025-05-14_20h10.39.203,cuing_paradigm_dot,2024.1.5,Win32,144.092219,68242c07d0c0e200c6451fdd,,,,,,,,,,,245.051,245.55,,,245.8,246.39,right,0.587,,,,,,,,,0.55,,,,,,245.55,245.8,246.39,247.487,0,74,74,129,1,,,,,,,
,,,,,,,5b09da13641b1200010eab05,682530beee0475fe95259f82,2025-05-14_20h10.39.203,cuing_paradigm_dot,2024.1.5,Win32,144.092219,68242c07d0c0e200c6451fdd,,,,,,,,,,,247.488,247.988,,,248.238,248.558,left,0.317,,,,,,,,,0.45,,,,,,247.988,248.238,248.558,249.654,0,75,75,73,1,,,,,,,
,,,,,,,5b09da13641b1200010eab05,682530beee0475fe95259f82,2025-05-14_20h10.39.203,cuing_paradigm_dot,2024.1.5,Win32,144.092219,68242c07d0c0e200c6451fdd,,,,,,,,,,,249.654,250.154,,,250.405,251.265,left,0.855,,,,,,,,,0.5,,,,,,250.154,250.405,251.265,252.363,0,76,76,109,1,,,,,,,
,,,,,,,5b09da13641b1200010eab05,682530beee0475fe95259f82,2025-05-14_20h10.39.203,cuing_paradigm_dot,2024.1.5,Win32,144.092219,68242c07d0c0e200c6451fdd,,,,,,,,,,,252.363,252.863,,,253.113,253.544,left,0.423,,,,,,,,,0.5,,,,,,252.863,253.113,253.544,254.64,0,77,77,113,1,,,,,,,
,,,,,,,5b09da13641b1200010eab05,682530beee0475fe95259f82,2025-05-14_20h10.39.203,cuing_paradigm_dot,2024.1.5,Win32,144.092219,68242c07d0c0e200c6451fdd,,,,,,,,,,,254.641,255.141,,,255.391,255.808,left,0.413,,,,,,,,,0.4,,,,,,255.141,255.391,255.808,256.905,0,78,78,32,1,,,,,,,
,,,,,,,5b09da13641b1200010eab05,682530beee0475fe95259f82,2025-05-14_20h10.39.203,cuing_paradigm_dot,2024.1.5,Win32,144.092219,68242c07d0c0e200c6451fdd,,,,,,,,,,,256.906,257.405,,,257.656,258.189,right,0.527,,,,,,,,,0.5,,,,,,257.405,257.656,258.189,259.287,0,79,79,115,1,,,,,,,
,,,,,,,5b09da13641b1200010eab05,682530beee0475fe95259f82,2025-05-14_20h10.39.203,cuing_paradigm_dot,2024.1.5,Win32,144.092219,68242c07d0c0e200c6451fdd,,,,,,,,,,,259.287,259.786,,,260.037,260.432,left,0.389,,,,,,,,,0.45,,,,,,259.787,260.037,260.432,261.529,0,80,80,62,1,,,,,,,
,,,,,,,5b09da13641b1200010eab05,682530beee0475fe95259f82,2025-05-14_20h10.39.203,cuing_paradigm_dot,2024.1.5,Win32,144.092219,68242c07d0c0e200c6451fdd,,,,,,,,,,,261.53,262.03,,,262.28,262.578,right,0.292,,,,,,,,,0.9,,,,,,262.03,262.28,262.579,263.676,0,81,81,183,1,,,,,,,
,,,,,,,5b09da13641b1200010eab05,682530beee0475fe95259f82,2025-05-14_20h10.39.203,cuing_paradigm_dot,2024.1.5,Win32,144.092219,68242c07d0c0e200c6451fdd,,,,,,,,,,,263.676,264.175,,,264.426,264.773,left,0.342,,,,,,,,,0.45,,,,,,264.175,264.426,264.773,265.871,0,82,82,61,1,,,,,,,
,,,,,,,5b09da13641b1200010eab05,682530beee0475fe95259f82,2025-05-14_20h10.39.203,cuing_paradigm_dot,2024.1.5,Win32,144.092219,68242c07d0c0e200c6451fdd,,,,,,,,,,,265.871,266.37,,,266.621,266.794,left,0.168,,,,,,,,,0.1,,,,,,266.37,266.621,266.794,267.891,0,83,83,10,1,,,,,,,
,,,,,,,5b09da13641b1200010eab05,682530beee0475fe95259f82,2025-05-14_20h10.39.203,cuing_paradigm_dot,2024.1.5,Win32,144.092219,68242c07d0c0e200c6451fdd,,,,,,,,,,,267.892,268.391,,,268.642,268.829,left,0.183,,,,,,,,,0.1,,,,,,268.391,268.642,268.829,269.926,0,84,84,17,1,,,,,,,
,,,,,,,5b09da13641b1200010eab05,682530beee0475fe95259f82,2025-05-14_20h10.39.203,cuing_paradigm_dot,2024.1.5,Win32,144.092219,68242c07d0c0e200c6451fdd,,,,,,,,,,,269.927,270.426,,,270.676,270.988,right,0.306,,,,,,,,,0.5,,,,,,270.426,270.676,270.988,272.086,0,85,85,90,1,,,,,,,
,,,,,,,5b09da13641b1200010eab05,682530beee0475fe95259f82,2025-05-14_20h10.39.203,cuing_paradigm_dot,2024.1.5,Win32,144.092219,68242c07d0c0e200c6451fdd,,,,,,,,,,,272.086,272.586,,,272.836,273.002,left,0.163,,,,,,,,,0.55,,,,,,272.586,272.836,273.002,274.099,0,86,86,145,1,,,,,,,
,,,,,,,5b09da13641b1200010eab05,682530beee0475fe95259f82,2025-05-14_20h10.39.203,cuing_paradigm_dot,2024.1.5,Win32,144.092219,68242c07d0c0e200c6451fdd,,,,,,,,,,,274.1,274.6,,,274.85,275.28,left,0.427,,,,,,,,,0.5,,,,,,274.6,274.85,275.28,276.378,0,87,87,107,1,,,,,,,
,,,,,,,5b09da13641b1200010eab05,682530beee0475fe95259f82,2025-05-14_20h10.39.203,cuing_paradigm_dot,2024.1.5,Win32,144.092219,68242c07d0c0e200c6451fdd,,,,,,,,,,,276.378,276.878,,,277.128,277.94,left,0.805,,,,,,,,,0.55,,,,,,276.878,277.127,277.941,279.038,0,88,88,137,1,,,,,,,
,,,,,,,5b09da13641b1200010eab05,682530beee0475fe95259f82,2025-05-14_20h10.39.203,cuing_paradigm_dot,2024.1.5,Win32,144.092219,68242c07d0c0e200c6451fdd,,,,,,,,,,,279.038,279.538,,,279.788,280.106,right,0.315,,,,,,,,,0.9,,,,,,279.538,279.788,280.106,281.204,0,89,89,187,1,,,,,,,
,,,,,,,5b09da13641b1200010eab05,682530beee0475fe95259f82,2025-05-14_20h10.39.203,cuing_paradigm_dot,2024.1.5,Win32,144.092219,68242c07d0c0e200c6451fdd,,,,,,,,,,,281.204,281.704,,,281.954,282.378,left,0.419,,,,,,,,,0.4,,,,,,281.704,281.954,282.378,283.475,0,90,90,45,1,,,,,,,
,,,,,,,5b09da13641b1200010eab05,682530beee0475fe95259f82,2025-05-14_20h10.39.203,cuing_paradigm_dot,2024.1.5,Win32,144.092219,68242c07d0c0e200c6451fdd,,,,,,,,,,,283.476,283.975,,,284.226,284.662,left,0.431,,,,,,,,,0.5,,,,,,283.975,284.226,284.662,285.76,0,91,91,114,1,,,,,,,
,,,,,,,5b09da13641b1200010eab05,682530beee0475fe95259f82,2025-05-14_20h10.39.203,cuing_paradigm_dot,2024.1.5,Win32,144.092219,68242c07d0c0e200c6451fdd,,,,,,,,,,,285.76,286.26,,,286.51,287.009,left,0.492,,,,,,,,,0.55,,,,,,286.26,286.51,287.009,288.107,0,92,92,135,1,,,,,,,
,,,,,,,5b09da13641b1200010eab05,682530beee0475fe95259f82,2025-05-14_20h10.39.203,cuing_paradigm_dot,2024.1.5,Win32,144.092219,68242c07d0c0e200c6451fdd,,,,,,,,,,,288.108,288.607,,,288.858,289.156,left,0.292,,,,,,,,,0.4,,,,,,288.607,288.858,289.157,290.253,0,93,93,41,1,,,,,,,
,,,,,,,5b09da13641b1200010eab05,682530beee0475fe95259f82,2025-05-14_20h10.39.203,cuing_paradigm_dot,2024.1.5,Win32,144.092219,68242c07d0c0e200c6451fdd,,,,,,,,,,,290.255,290.753,,,291.004,291.427,right,0.416,,,,,,,,,0.55,,,,,,290.753,291.004,291.427,292.524,0,94,94,122,1,,,,,,,
,,,,,,,5b09da13641b1200010eab05,682530beee0475fe95259f82,2025-05-14_20h10.39.203,cuing_paradigm_dot,2024.1.5,Win32,144.092219,68242c07d0c0e200c6451fdd,,,,,,,,,,,292.524,293.024,,,293.274,293.649,left,0.369,,,,,,,,,0.5,,,,,,293.024,293.274,293.649,294.747,0,95,95,110,1,,,,,,,
,,,,,,,5b09da13641b1200010eab05,682530beee0475fe95259f82,2025-05-14_20h10.39.203,cuing_paradigm_dot,2024.1.5,Win32,144.092219,68242c07d0c0e200c6451fdd,,,,,,,,,,,294.748,295.246,,,295.496,295.823,left,0.319,,,,,,,,,0.45,,,,,,295.246,295.496,295.823,296.92,0,96,96,72,1,,,,,,,
,,,,,,,5b09da13641b1200010eab05,682530beee0475fe95259f82,2025-05-14_20h10.39.203,cuing_paradigm_dot,2024.1.5,Win32,144.092219,68242c07d0c0e200c6451fdd,,,,,,,,,,,296.921,297.42,,,297.671,297.955,left,0.278,,,,,,,,,0.45,,,,,,297.42,297.671,297.955,299.053,0,97,97,79,1,,,,,,,
,,,,,,,5b09da13641b1200010eab05,682530beee0475fe95259f82,2025-05-14_20h10.39.203,cuing_paradigm_dot,2024.1.5,Win32,144.092219,68242c07d0c0e200c6451fdd,,,,,,,,,,,299.053,299.552,,,299.802,300.08,right,0.271,,,,,,,,,0.6,,,,,,299.552,299.802,300.08,301.177,0,98,98,178,1,,,,,,,
,,,,,,,5b09da13641b1200010eab05,682530beee0475fe95259f82,2025-05-14_20h10.39.203,cuing_paradigm_dot,2024.1.5,Win32,144.092219,68242c07d0c0e200c6451fdd,,,,,,,,,,,301.178,301.677,,,301.928,302.621,right,0.687,,,,,,,,,0.6,,,,,,301.678,301.928,302.621,303.719,0,99,99,171,1,,,,,,,
,,,,,,,5b09da13641b1200010eab05,682530beee0475fe95259f82,2025-05-14_20h10.39.203,cuing_paradigm_dot,2024.1.5,Win32,144.092219,68242c07d0c0e200c6451fdd,,,,,,,,,,,303.719,304.219,,,304.469,304.719,left,0.244,,,,,,,,,0.4,,,,,,304.219,304.469,304.719,305.816,0,100,100,51,1,,,,,,,
,,,,,,,5b09da13641b1200010eab05,682530beee0475fe95259f82,2025-05-14_20h10.39.203,cuing_paradigm_dot,2024.1.5,Win32,144.092219,68242c07d0c0e200c6451fdd,,,,,,,,,,,305.817,306.316,,,306.566,307.24,right,0.67,,,,,,,,,0.6,,,,,,306.317,306.566,307.24,308.338,0,101,101,172,1,,,,,,,
,,,,,,,5b09da13641b1200010eab05,682530beee0475fe95259f82,2025-05-14_20h10.39.203,cuing_paradigm_dot,2024.1.5,Win32,144.092219,68242c07d0c0e200c6451fdd,,,,,,,,,,,308.338,308.838,,,309.088,309.504,left,0.41,,,,,,,,,0.45,,,,,,308.838,309.088,309.504,310.601,0,102,102,70,1,,,,,,,
,,,,,,,5b09da13641b1200010eab05,682530beee0475fe95259f82,2025-05-14_20h10.39.203,cuing_paradigm_dot,2024.1.5,Win32,144.092219,68242c07d0c0e200c6451fdd,,,,,,,,,,,310.602,311.101,,,311.352,311.616,left,0.257,,,,,,,,,0.1,,,,,,311.101,311.352,311.616,312.713,0,103,103,0,1,,,,,,,
,,,,,,,5b09da13641b1200010eab05,682530beee0475fe95259f82,2025-05-14_20h10.39.203,cuing_paradigm_dot,2024.1.5,Win32,144.092219,68242c07d0c0e200c6451fdd,,,,,,,,,,,312.713,313.213,,,313.463,313.803,right,0.336,,,,,,,,,0.5,,,,,,313.213,313.463,313.803,314.9,0,104,104,104,1,,,,,,,
,,,,,,,5b09da13641b1200010eab05,682530beee0475fe95259f82,2025-05-14_20h10.39.203,cuing_paradigm_dot,2024.1.5,Win32,144.092219,68242c07d0c0e200c6451fdd,,,,,,,,,,,314.9,315.4,,,315.65,316.011,right,0.355,,,,,,,,,0.55,,,,,,315.4,315.65,316.011,317.108,0,105,105,120,1,,,,,,,
,,,,,,,5b09da13641b1200010eab05,682530beee0475fe95259f82,2025-05-14_20h10.39.203,cuing_paradigm_dot,2024.1.5,Win32,144.092219,68242c07d0c0e200c6451fdd,,,,,,,,,,,317.109,317.608,,,317.859,318.344,right,0.478,,,,,,,,,0.55,,,,,,317.608,317.859,318.344,319.442,0,106,106,126,1,,,,,,,
,,,,,,,5b09da13641b1200010eab05,682530beee0475fe95259f82,2025-05-14_20h10.39.203,cuing_paradigm_dot,2024.1.5,Win32,144.092219,68242c07d0c0e200c6451fdd,,,,,,,,,,,319.442,319.942,,,320.192,320.351,right,0.154,,,,,,,,,0.9,,,,,,319.942,320.192,320.351,321.448,0,107,107,181,1,,,,,,,
,,,,,,,5b09da13641b1200010eab05,682530beee0475fe95259f82,2025-05-14_20h10.39.203,cuing_paradigm_dot,2024.1.5,Win32,144.092219,68242c07d0c0e200c6451fdd,,,,,,,,,,,321.449,321.95,,,322.199,322.56,left,0.355,,,,,,,,,0.45,,,,,,321.95,322.199,322.56,323.657,0,108,108,74,1,,,,,,,
,,,,,,,5b09da13641b1200010eab05,682530beee0475fe95259f82,2025-05-14_20h10.39.203,cuing_paradigm_dot,2024.1.5,Win32,144.092219,68242c07d0c0e200c6451fdd,,,,,,,,,,,323.658,324.157,,,324.408,324.671,left,0.261,,,,,,,,,0.45,,,,,,324.157,324.408,324.671,325.769,0,109,109,80,1,,,,,,,
,,,,,,,5b09da13641b1200010eab05,682530beee0475fe95259f82,2025-05-14_20h10.39.203,cuing_paradigm_dot,2024.1.5,Win32,144.092219,68242c07d0c0e200c6451fdd,,,,,,,,,,,325.769,326.269,,,326.519,327.039,right,0.516,,,,,,,,,0.4,,,,,,326.269,326.519,327.04,328.137,0,110,110,42,1,,,,,,,
,,,,,,,5b09da13641b1200010eab05,682530beee0475fe95259f82,2025-05-14_20h10.39.203,cuing_paradigm_dot,2024.1.5,Win32,144.092219,68242c07d0c0e200c6451fdd,,,,,,,,,,,328.137,328.637,,,328.888,329.241,left,0.347,,,,,,,,,0.4,,,,,,328.637,328.887,329.241,330.338,0,111,111,35,1,,,,,,,
,,,,,,,5b09da13641b1200010eab05,682530beee0475fe95259f82,2025-05-14_20h10.39.203,cuing_paradigm_dot,2024.1.5,Win32,144.092219,68242c07d0c0e200c6451fdd,,,,,,,,,,,330.339,330.838,,,331.088,331.262,right,0.168,,,,,,,,,0.9,,,,,,330.838,331.088,331.262,332.359,0,112,112,186,1,,,,,,,
,,,,,,,5b09da13641b1200010eab05,682530beee0475fe95259f82,2025-05-14_20h10.39.203,cuing_paradigm_dot,2024.1.5,Win32,144.092219,68242c07d0c0e200c6451fdd,,,,,,,,,,,332.36,332.859,,,333.11,333.311,right,0.195,,,,,,,,,0.9,,,,,,332.859,333.109,333.311,334.408,0,113,113,195,1,,,,,,,
,,,,,,,5b09da13641b1200010eab05,682530beee0475fe95259f82,2025-05-14_20h10.39.203,cuing_paradigm_dot,2024.1.5,Win32,144.092219,68242c07d0c0e200c6451fdd,,,,,,,,,,,334.408,334.908,,,335.158,335.374,left,0.21,,,,,,,,,0.5,,,,,,334.908,335.158,335.374,336.471,0,114,114,92,1,,,,,,,
,,,,,,,5b09da13641b1200010eab05,682530beee0475fe95259f82,2025-05-14_20h10.39.203,cuing_paradigm_dot,2024.1.5,Win32,144.092219,68242c07d0c0e200c6451fdd,,,,,,,,,,,336.471,336.97,,,337.221,337.429,right,0.202,,,,,,,,,0.6,,,,,,336.97,337.221,337.429,338.526,0,115,115,179,1,,,,,,,
,,,,,,,5b09da13641b1200010eab05,682530beee0475fe95259f82,2025-05-14_20h10.39.203,cuing_paradigm_dot,2024.1.5,Win32,144.092219,68242c07d0c0e200c6451fdd,,,,,,,,,,,338.527,339.026,,,339.277,339.45,left,0.167,,,,,,,,,0.4,,,,,,339.026,339.277,339.45,340.547,0,116,116,43,1,,,,,,,
,,,,,,,5b09da13641b1200010eab05,682530beee0475fe95259f82,2025-05-14_20h10.39.203,cuing_paradigm_dot,2024.1.5,Win32,144.092219,68242c07d0c0e200c6451fdd,,,,,,,,,,,340.547,341.047,,,341.297,341.443,left,0.138,,,,,,,,,0.1,,,,,,341.047,341.297,341.443,342.54,0,117,117,18,1,,,,,,,
,,,,,,,5b09da13641b1200010eab05,682530beee0475fe95259f82,2025-05-14_20h10.39.203,cuing_paradigm_dot,2024.1.5,Win32,144.092219,68242c07d0c0e200c6451fdd,,,,,,,,,,,342.54,343.04,,,343.291,343.436,left,0.139,,,,,,,,,0.1,,,,,,343.04,343.29,343.436,344.533,0,118,118,23,1,,,,,,,
,,,,,,,5b09da13641b1200010eab05,682530beee0475fe95259f82,2025-05-14_20h10.39.203,cuing_paradigm_dot,2024.1.5,Win32,144.092219,68242c07d0c0e200c6451fdd,,,,,,,,,,,344.533,345.033,,,345.283,345.401,left,0.111,,,,,,,,,0.1,,,,,,345.033,345.283,345.401,346.499,0,119,119,8,1,,,,,,,
,,,,,,,5b09da13641b1200010eab05,682530beee0475fe95259f82,2025-05-14_20h10.39.203,cuing_paradigm_dot,2024.1.5,Win32,144.092219,68242c07d0c0e200c6451fdd,,,,,,,,,,,346.499,346.999,,,347.249,347.423,left,0.166,,,,,,,,,0.4,,,,,,346.999,347.249,347.423,348.519,0,120,120,37,1,,,,,,,
,,,,,,,5b09da13641b1200010eab05,682530beee0475fe95259f82,2025-05-14_20h10.39.203,cuing_paradigm_dot,2024.1.5,Win32,144.092219,68242c07d0c0e200c6451fdd,,,,,,,,,,,348.52,349.019,,,349.27,349.415,right,0.138,,,,,,,,,0.9,,,,,,349.019,349.27,349.415,350.512,0,121,121,185,1,,,,,,,
,,,,,,,5b09da13641b1200010eab05,682530beee0475fe95259f82,2025-05-14_20h10.39.203,cuing_paradigm_dot,2024.1.5,Win32,144.092219,68242c07d0c0e200c6451fdd,,,,,,,,,,,350.513,351.012,,,351.263,351.527,right,0.261,,,,,,,,,0.9,,,,,,351.012,351.263,351.527,352.623,0,122,122,204,1,,,,,,,
,,,,,,,5b09da13641b1200010eab05,682530beee0475fe95259f82,2025-05-14_20h10.39.203,cuing_paradigm_dot,2024.1.5,Win32,144.092219,68242c07d0c0e200c6451fdd,,,,,,,,,,,352.624,353.124,,,353.374,353.923,right,0.541,,,,,,,,,0.6,,,,,,353.124,353.374,353.923,355.02,0,123,123,152,1,,,,,,,
,,,,,,,5b09da13641b1200010eab05,682530beee0475fe95259f82,2025-05-14_20h10.39.203,cuing_paradigm_dot,2024.1.5,Win32,144.092219,68242c07d0c0e200c6451fdd,,,,,,,,,,,355.02,355.52,,,355.771,356.381,right,0.604,,,,,,,,,0.5,,,,,,355.521,355.771,356.381,357.478,0,124,124,98,1,,,,,,,
,,,,,,,5b09da13641b1200010eab05,682530beee0475fe95259f82,2025-05-14_20h10.39.203,cuing_paradigm_dot,2024.1.5,Win32,144.092219,68242c07d0c0e200c6451fdd,,,,,,,,,,,357.479,357.978,,,358.229,358.694,right,0.462,,,,,,,,,0.5,,,,,,357.978,358.229,358.694,359.791,0,125,125,106,1,,,,,,,
,,,,,,,5b09da13641b1200010eab05,682530beee0475fe95259f82,2025-05-14_20h10.39.203,cuing_paradigm_dot,2024.1.5,Win32,144.092219,68242c07d0c0e200c6451fdd,,,,,,,,,,,359.791,360.291,,,360.541,360.742,left,0.198,,,,,,,,,0.4,,,,,,360.291,360.541,360.742,361.84,0,126,126,56,1,,,,,,,
,,,,,,,5b09da13641b1200010eab05,682530beee0475fe95259f82,2025-05-14_20h10.39.203,cuing_paradigm_dot,2024.1.5,Win32,144.092219,68242c07d0c0e200c6451fdd,,,,,,,,,,,361.84,362.34,,,362.59,362.936,right,0.343,,,,,,,,,0.55,,,,,,362.34,362.59,362.936,364.034,0,127,127,121,1,,,,,,,
,,,,,,,5b09da13641b1200010eab05,682530beee0475fe95259f82,2025-05-14_20h10.39.203,cuing_paradigm_dot,2024.1.5,Win32,144.092219,68242c07d0c0e200c6451fdd,,,,,,,,,,,364.035,364.534,,,364.785,365.097,right,0.308,,,,,,,,,0.5,,,,,,364.534,364.785,365.097,366.194,0,128,128,94,1,,,,,,,
,,,,,,,5b09da13641b1200010eab05,682530beee0475fe95259f82,2025-05-14_20h10.39.203,cuing_paradigm_dot,2024.1.5,Win32,144.092219,68242c07d0c0e200c6451fdd,,,,,,,,,,,366.194,366.694,,,366.944,367.339,right,0.39,,,,,,,,,0.6,,,,,,366.694,366.944,367.339,368.437,0,129,129,154,1,,,,,,,
,,,,,,,5b09da13641b1200010eab05,682530beee0475fe95259f82,2025-05-14_20h10.39.203,cuing_paradigm_dot,2024.1.5,Win32,144.092219,68242c07d0c0e200c6451fdd,,,,,,,,,,,368.437,368.937,,,369.187,369.326,right,0.135,,,,,,,,,0.9,,,,,,368.937,369.187,369.326,370.423,0,130,130,198,1,,,,,,,
,,,,,,,5b09da13641b1200010eab05,682530beee0475fe95259f82,2025-05-14_20h10.39.203,cuing_paradigm_dot,2024.1.5,Win32,144.092219,68242c07d0c0e200c6451fdd,,,,,,,,,,,370.424,370.923,,,371.173,371.576,right,0.396,,,,,,,,,0.45,,,,,,370.923,371.173,371.576,372.674,0,131,131,65,1,,,,,,,
,,,,,,,5b09da13641b1200010eab05,682530beee0475fe95259f82,2025-05-14_20h10.39.203,cuing_paradigm_dot,2024.1.5,Win32,144.092219,68242c07d0c0e200c6451fdd,,,,,,,,,,,372.674,373.173,,,373.424,373.618,right,0.19,,,,,,,,,0.9,,,,,,373.173,373.424,373.618,374.715,0,132,132,182,1,,,,,,,
,,,,,,,5b09da13641b1200010eab05,682530beee0475fe95259f82,2025-05-14_20h10.39.203,cuing_paradigm_dot,2024.1.5,Win32,144.092219,68242c07d0c0e200c6451fdd,,,,,,,,,,,374.715,375.215,,,375.465,375.619,left,0.149,,,,,,,,,0.4,,,,,,375.215,375.465,375.619,376.715,0,133,133,33,1,,,,,,,
,,,,,,,5b09da13641b1200010eab05,682530beee0475fe95259f82,2025-05-14_20h10.39.203,cuing_paradigm_dot,2024.1.5,Win32,144.092219,68242c07d0c0e200c6451fdd,,,,,,,,,,,376.717,377.215,,,377.465,377.888,right,0.418,,,,,,,,,0.6,,,,,,377.216,377.465,377.888,378.987,0,134,134,151,1,,,,,,,
,,,,,,,5b09da13641b1200010eab05,682530beee0475fe95259f82,2025-05-14_20h10.39.203,cuing_paradigm_dot,2024.1.5,Win32,144.092219,68242c07d0c0e200c6451fdd,,,,,,,,,,,378.987,379.486,,,379.736,379.931,left,0.189,,,,,,,,,0.1,,,,,,379.486,379.736,379.931,381.028,0,135,135,28,1,,,,,,,
,,,,,,,5b09da13641b1200010eab05,682530beee0475fe95259f82,2025-05-14_20h10.39.203,cuing_paradigm_dot,2024.1.5,Win32,144.092219,68242c07d0c0e200c6451fdd,,,,,,,,,,,381.028,381.528,,,381.778,381.945,left,0.16,,,,,,,,,0.1,,,,,,381.528,381.778,381.945,383.042,0,136,136,25,1,,,,,,,
,,,,,,,5b09da13641b1200010eab05,682530beee0475fe95259f82,2025-05-14_20h10.39.203,cuing_paradigm_dot,2024.1.5,Win32,144.092219,68242c07d0c0e200c6451fdd,,,,,,,,,,,383.042,383.542,,,383.792,383.945,left,0.145,,,,,,,,,0.1,,,,,,383.542,383.792,383.945,385.043,0,137,137,6,1,,,,,,,
,,,,,,,5b09da13641b1200010eab05,682530beee0475fe95259f82,2025-05-14_20h10.39.203,cuing_paradigm_dot,2024.1.5,Win32,144.092219,68242c07d0c0e200c6451fdd,,,,,,,,,,,385.043,385.542,,,385.792,385.882,left,0.084,,,,,,,,,0.1,,,,,,385.542,385.792,385.882,386.979,0,138,138,9,1,,,,,,,
,,,,,,,5b09da13641b1200010eab05,682530beee0475fe95259f82,2025-05-14_20h10.39.203,cuing_paradigm_dot,2024.1.5,Win32,144.092219,68242c07d0c0e200c6451fdd,,,,,,,,,,,386.98,387.48,,,387.73,387.868,right,0.131,,,,,,,,,0.9,,,,,,387.48,387.73,387.868,388.966,0,139,139,180,1,,,,,,,
,,,,,,,5b09da13641b1200010eab05,682530beee0475fe95259f82,2025-05-14_20h10.39.203,cuing_paradigm_dot,2024.1.5,Win32,144.092219,68242c07d0c0e200c6451fdd,,,,,,,,,,,388.968,389.466,,,389.716,389.904,left,0.18,,,,,,,,,0.4,,,,,,389.466,389.716,389.904,391,0,140,140,49,1,,,,,,,
,,,,,,,5b09da13641b1200010eab05,682530beee0475fe95259f82,2025-05-14_20h10.39.203,cuing_paradigm_dot,2024.1.5,Win32,144.092219,68242c07d0c0e200c6451fdd,,,,,,,,,,,391.002,391.5,,,391.751,392.035,right,0.278,,,,,,,,,0.45,,,,,,391.5,391.751,392.035,393.132,0,141,141,64,1,,,,,,,
,,,,,,,5b09da13641b1200010eab05,682530beee0475fe95259f82,2025-05-14_20h10.39.203,cuing_paradigm_dot,2024.1.5,Win32,144.092219,68242c07d0c0e200c6451fdd,,,,,,,,,,,393.133,393.632,,,393.883,394.209,left,0.321,,,,,,,,,0.45,,,,,,393.633,393.883,394.209,395.306,0,142,142,82,1,,,,,,,
,,,,,,,5b09da13641b1200010eab05,682530beee0475fe95259f82,2025-05-14_20h10.39.203,cuing_paradigm_dot,2024.1.5,Win32,144.092219,68242c07d0c0e200c6451fdd,,,,,,,,,,,395.307,395.807,,,396.057,396.785,right,0.724,,,,,,,,,0.45,,,,,,395.807,396.057,396.785,397.883,0,143,143,78,1,,,,,,,
,,,,,,,5b09da13641b1200010eab05,682530beee0475fe95259f82,2025-05-14_20h10.39.203,cuing_paradigm_dot,2024.1.5,Win32,144.092219,68242c07d0c0e200c6451fdd,,,,,,,,,,,397.884,398.383,,,398.634,399.043,right,0.406,,,,,,,,,0.6,,,,,,398.383,398.634,399.043,400.14,0,144,144,153,1,,,,,,,
,,,,,,,5b09da13641b1200010eab05,682530beee0475fe95259f82,2025-05-14_20h10.39.203,cuing_paradigm_dot,2024.1.5,Win32,144.092219,68242c07d0c0e200c6451fdd,,,,,,,,,,,400.14,400.64,,,400.89,401.167,left,0.274,,,,,,,,,0.4,,,,,,400.64,400.89,401.167,402.264,0,145,145,52,1,,,,,,,
,,,,,,,5b09da13641b1200010eab05,682530beee0475fe95259f82,2025-05-14_20h10.39.203,cuing_paradigm_dot,2024.1.5,Win32,144.092219,68242c07d0c0e200c6451fdd,,,,,,,,,,,402.265,402.765,,,403.015,403.279,left,0.26,,,,,,,,,0.45,,,,,,402.765,403.015,403.279,404.376,0,146,146,77,1,,,,,,,
,,,,,,,5b09da13641b1200010eab05,682530beee0475fe95259f82,2025-05-14_20h10.39.203,cuing_paradigm_dot,2024.1.5,Win32,144.092219,68242c07d0c0e200c6451fdd,,,,,,,,,,,404.377,404.876,,,405.127,405.356,left,0.223,,,,,,,,,0.4,,,,,,404.876,405.127,405.356,406.453,0,147,147,44,1,,,,,,,
,,,,,,,5b09da13641b1200010eab05,682530beee0475fe95259f82,2025-05-14_20h10.39.203,cuing_paradigm_dot,2024.1.5,Win32,144.092219,68242c07d0c0e200c6451fdd,,,,,,,,,,,406.453,406.952,,,407.203,407.751,right,0.542,,,,,,,,,0.6,,,,,,406.953,407.203,407.751,408.849,0,148,148,176,1,,,,,,,
,,,,,,,5b09da13641b1200010eab05,682530beee0475fe95259f82,2025-05-14_20h10.39.203,cuing_paradigm_dot,2024.1.5,Win32,144.092219,68242c07d0c0e200c6451fdd,,,,,,,,,,,408.849,409.349,,,409.599,409.842,left,0.236,,,,,,,,,0.4,,,,,,409.349,409.599,409.842,410.939,0,149,149,34,1,,,,,,,
,,,,,,,5b09da13641b1200010eab05,682530beee0475fe95259f82,2025-05-14_20h10.39.203,cuing_paradigm_dot,2024.1.5,Win32,144.092219,68242c07d0c0e200c6451fdd,,,,,,,,,,,410.94,411.439,,,411.689,411.98,right,0.287,,,,,,,,,0.6,,,,,,411.439,411.689,411.98,413.078,0,150,150,159,1,,,,,,,
,,,,,,,5b09da13641b1200010eab05,682530beee0475fe95259f82,2025-05-14_20h10.39.203,cuing_paradigm_dot,2024.1.5,Win32,144.092219,68242c07d0c0e200c6451fdd,,,,,,,,,,,413.078,413.578,,,413.828,414.044,left,0.209,,,,,,,,,0.55,,,,,,413.578,413.828,414.044,415.14,0,151,151,124,1,,,,,,,
,,,,,,,5b09da13641b1200010eab05,682530beee0475fe95259f82,2025-05-14_20h10.39.203,cuing_paradigm_dot,2024.1.5,Win32,144.092219,68242c07d0c0e200c6451fdd,,,,,,,,,,,415.14,415.64,,,415.89,416.376,right,0.478,,,,,,,,,0.55,,,,,,415.64,415.89,416.376,417.474,0,152,152,125,1,,,,,,,
,,,,,,,5b09da13641b1200010eab05,682530beee0475fe95259f82,2025-05-14_20h10.39.203,cuing_paradigm_dot,2024.1.5,Win32,144.092219,68242c07d0c0e200c6451fdd,,,,,,,,,,,417.474,417.974,,,418.224,418.426,left,0.195,,,,,,,,,0.1,,,,,,417.974,418.224,418.426,419.522,0,153,153,5,1,,,,,,,
,,,,,,,5b09da13641b1200010eab05,682530beee0475fe95259f82,2025-05-14_20h10.39.203,cuing_paradigm_dot,2024.1.5,Win32,144.092219,68242c07d0c0e200c6451fdd,,,,,,,,,,,419.523,420.022,,,420.273,420.572,left,0.292,,,,,,,,,0.45,,,,,,420.022,420.273,420.572,421.668,0,154,154,76,1,,,,,,,
,,,,,,,5b09da13641b1200010eab05,682530beee0475fe95259f82,2025-05-14_20h10.39.203,cuing_paradigm_dot,2024.1.5,Win32,144.092219,68242c07d0c0e200c6451fdd,,,,,,,,,,,421.669,422.169,,,422.419,422.565,left,0.139,,,,,,,,,0.55,,,,,,422.169,422.419,422.565,423.662,0,155,155,143,1,,,,,,,
,,,,,,,5b09da13641b1200010eab05,682530beee0475fe95259f82,2025-05-14_20h10.39.203,cuing_paradigm_dot,2024.1.5,Win32,144.092219,68242c07d0c0e200c6451fdd,,,,,,,,,,,423.664,424.162,,,424.412,424.592,left,0.173,,,,,,,,,0.1,,,,,,424.162,424.412,424.592,425.689,0,156,156,22,1,,,,,,,
,,,,,,,5b09da13641b1200010eab05,682530beee0475fe95259f82,2025-05-14_20h10.39.203,cuing_paradigm_dot,2024.1.5,Win32,144.092219,68242c07d0c0e200c6451fdd,,,,,,,,,,,425.69,426.19,,,426.439,426.579,left,0.131,,,,,,,,,0.1,,,,,,426.191,426.439,426.579,427.676,0,157,157,27,1,,,,,,,
,,,,,,,5b09da13641b1200010eab05,682530beee0475fe95259f82,2025-05-14_20h10.39.203,cuing_paradigm_dot,2024.1.5,Win32,144.092219,68242c07d0c0e200c6451fdd,,,,,,,,,,,427.676,428.171,,,428.419,428.627,right,0.202,,,,,,,,,0.9,,,,,,428.171,428.419,428.627,429.724,0,158,158,194,1,,,,,,,
,,,,,,,5b09da13641b1200010eab05,682530beee0475fe95259f82,2025-05-14_20h10.39.203,cuing_paradigm_dot,2024.1.5,Win32,144.092219,68242c07d0c0e200c6451fdd,,,,,,,,,,,429.725,430.224,,,430.475,430.69,right,0.209,,,,,,,,,0.6,,,,,,430.224,430.475,430.69,431.787,0,159,159,157,1,,,,,,,
,,,,,,,5b09da13641b1200010eab05,682530beee0475fe95259f82,2025-05-14_20h10.39.203,cuing_paradigm_dot,2024.1.5,Win32,144.092219,68242c07d0c0e200c6451fdd,,,,,,,,,,,431.788,432.287,,,432.537,432.69,left,0.149,,,,,,,,,0.1,,,,,,432.287,432.537,432.69,433.787,0,160,160,20,1,,,,,,,
,,,,,,,5b09da13641b1200010eab05,682530beee0475fe95259f82,2025-05-14_20h10.39.203,cuing_paradigm_dot,2024.1.5,Win32,144.092219,68242c07d0c0e200c6451fdd,,,,,,,,,,,433.788,434.287,,,434.537,434.676,right,0.132,,,,,,,,,0.9,,,,,,434.287,434.537,434.676,435.773,0,161,161,207,1,,,,,,,
,,,,,,,5b09da13641b1200010eab05,682530beee0475fe95259f82,2025-05-14_20h10.39.203,cuing_paradigm_dot,2024.1.5,Win32,144.092219,68242c07d0c0e200c6451fdd,,,,,,,,,,,435.774,436.273,,,436.524,436.822,right,0.292,,,,,,,,,0.6,,,,,,436.273,436.524,436.822,437.919,0,162,162,167,1,,,,,,,
,,,,,,,5b09da13641b1200010eab05,682530beee0475fe95259f82,2025-05-14_20h10.39.203,cuing_paradigm_dot,2024.1.5,Win32,144.092219,68242c07d0c0e200c6451fdd,,,,,,,,,,,437.919,438.419,,,438.669,439.051,left,0.377,,,,,,,,,0.5,,,,,,438.419,438.669,439.051,440.148,0,163,163,99,1,,,,,,,
,,,,,,,5b09da13641b1200010eab05,682530beee0475fe95259f82,2025-05-14_20h10.39.203,cuing_paradigm_dot,2024.1.5,Win32,144.092219,68242c07d0c0e200c6451fdd,,,,,,,,,,,440.149,440.649,,,440.899,441.065,left,0.164,,,,,,,,,0.1,,,,,,440.649,440.899,441.066,442.162,0,164,164,3,1,,,,,,,
,,,,,,,5b09da13641b1200010eab05,682530beee0475fe95259f82,2025-05-14_20h10.39.203,cuing_paradigm_dot,2024.1.5,Win32,144.092219,68242c07d0c0e200c6451fdd,,,,,,,,,,,442.162,442.663,,,442.912,443.086,right,0.168,,,,,,,,,0.55,,,,,,442.663,442.912,443.086,444.183,0,165,165,127,1,,,,,,,
,,,,,,,5b09da13641b1200010eab05,682530beee0475fe95259f82,2025-05-14_20h10.39.203,cuing_paradigm_dot,2024.1.5,Win32,144.092219,68242c07d0c0e200c6451fdd,,,,,,,,,,,444.184,444.683,,,444.934,445.135,left,0.197,,,,,,,,,0.5,,,,,,444.683,444.934,445.135,446.232,0,166,166,119,1,,,,,,,
,,,,,,,5b09da13641b1200010eab05,682530beee0475fe95259f82,2025-05-14_20h10.39.203,cuing_paradigm_dot,2024.1.5,Win32,144.092219,68242c07d0c0e200c6451fdd,,,,,,,,,,,446.232,446.732,,,446.982,447.142,left,0.155,,,,,,,,,0.4,,,,,,446.732,446.982,447.142,448.239,0,167,167,30,1,,,,,,,
,,,,,,,5b09da13641b1200010eab05,682530beee0475fe95259f82,2025-05-14_20h10.39.203,cuing_paradigm_dot,2024.1.5,Win32,144.092219,68242c07d0c0e200c6451fdd,,,,,,,,,,,448.24,448.738,,,448.99,449.163,left,0.166,,,,,,,,,0.5,,,,,,448.738,448.99,449.163,450.26,0,168,168,91,1,,,,,,,
,,,,,,,5b09da13641b1200010eab05,682530beee0475fe95259f82,2025-05-14_20h10.39.203,cuing_paradigm_dot,2024.1.5,Win32,144.092219,68242c07d0c0e200c6451fdd,,,,,,,,,,,450.26,450.76,,,451.011,451.232,left,0.217,,,,,,,,,0.55,,,,,,450.76,451.011,451.232,452.33,0,169,169,147,1,,,,,,,
,,,,,,,5b09da13641b1200010eab05,682530beee0475fe95259f82,2025-05-14_20h10.39.203,cuing_paradigm_dot,2024.1.5,Win32,144.092219,68242c07d0c0e200c6451fdd,,,,,,,,,,,452.33,452.83,,,453.08,453.163,right,0.078,,,,,,,,,0.9,,,,,,452.83,453.079,453.163,454.26,0,170,170,192,1,,,,,,,
,,,,,,,5b09da13641b1200010eab05,682530beee0475fe95259f82,2025-05-14_20h10.39.203,cuing_paradigm_dot,2024.1.5,Win32,144.092219,68242c07d0c0e200c6451fdd,,,,,,,,,,,454.261,454.76,,,455.01,455.156,left,0.138,,,,,,,,,0.45,,,,,,454.76,455.01,455.156,456.254,0,171,171,67,1,,,,,,,
,,,,,,,5b09da13641b1200010eab05,682530beee0475fe95259f82,2025-05-14_20h10.39.203,cuing_paradigm_dot,2024.1.5,Win32,144.092219,68242c07d0c0e200c6451fdd,,,,,,,,,,,456.255,456.753,,,457.004,457.198,left,0.188,,,,,,,,,0.4,,,,,,456.753,457.004,457.198,458.295,0,172,172,54,1,,,,,,,
,,,,,,,5b09da13641b1200010eab05,682530beee0475fe95259f82,2025-05-14_20h10.39.203,cuing_paradigm_dot,2024.1.5,Win32,144.092219,68242c07d0c0e200c6451fdd,,,,,,,,,,,458.295,458.796,,,459.045,459.24,right,0.19,,,,,,,,,0.6,,,,,,458.796,459.045,459.24,460.337,0,173,173,165,1,,,,,,,
,,,,,,,5b09da13641b1200010eab05,682530beee0475fe95259f82,2025-05-14_20h10.39.203,cuing_paradigm_dot,2024.1.5,Win32,144.092219,68242c07d0c0e200c6451fdd,,,,,,,,,,,460.337,460.837,,,461.087,461.184,right,0.091,,,,,,,,,0.9,,,,,,460.837,461.087,461.184,462.282,0,174,174,190,1,,,,,,,
,,,,,,,5b09da13641b1200010eab05,682530beee0475fe95259f82,2025-05-14_20h10.39.203,cuing_paradigm_dot,2024.1.5,Win32,144.092219,68242c07d0c0e200c6451fdd,,,,,,,,,,,462.282,462.781,,,463.031,463.17,left,0.132,,,,,,,,,0.4,,,,,,462.782,463.031,463.17,464.267,0,175,175,46,1,,,,,,,
,,,,,,,5b09da13641b1200010eab05,682530beee0475fe95259f82,2025-05-14_20h10.39.203,cuing_paradigm_dot,2024.1.5,Win32,144.092219,68242c07d0c0e200c6451fdd,,,,,,,,,,,464.268,464.767,,,465.018,465.15,left,0.126,,,,,,,,,0.5,,,,,,464.768,465.018,465.15,466.246,0,176,176,112,1,,,,,,,
,,,,,,,5b09da13641b1200010eab05,682530beee0475fe95259f82,2025-05-14_20h10.39.203,cuing_paradigm_dot,2024.1.5,Win32,144.092219,68242c07d0c0e200c6451fdd,,,,,,,,,,,466.247,466.747,,,466.997,467.253,left,0.25,,,,,,,,,0.45,,,,,,466.747,466.997,467.253,468.351,0,177,177,87,1,,,,,,,
,,,,,,,5b09da13641b1200010eab05,682530beee0475fe95259f82,2025-05-14_20h10.39.203,cuing_paradigm_dot,2024.1.5,Win32,144.092219,68242c07d0c0e200c6451fdd,,,,,,,,,,,468.351,468.851,,,469.101,469.254,left,0.145,,,,,,,,,0.4,,,,,,468.851,469.101,469.254,470.351,0,178,178,38,1,,,,,,,
,,,,,,,5b09da13641b1200010eab05,682530beee0475fe95259f82,2025-05-14_20h10.39.203,cuing_paradigm_dot,2024.1.5,Win32,144.092219,68242c07d0c0e200c6451fdd,,,,,,,,,,,470.352,470.851,,,471.101,471.24,left,0.132,,,,,,,,,0.4,,,,,,470.851,471.101,471.24,472.337,0,179,179,36,1,,,,,,,
,,,,,,,5b09da13641b1200010eab05,682530beee0475fe95259f82,2025-05-14_20h10.39.203,cuing_paradigm_dot,2024.1.5,Win32,144.092219,68242c07d0c0e200c6451fdd,,,,,,,,,,,472.338,472.837,,,473.088,473.192,right,0.097,,,,,,,,,0.9,,,,,,472.837,473.088,473.192,474.289,0,180,180,208,1,,,,,,,
,,,,,,,5b09da13641b1200010eab05,682530beee0475fe95259f82,2025-05-14_20h10.39.203,cuing_paradigm_dot,2024.1.5,Win32,144.092219,68242c07d0c0e200c6451fdd,,,,,,,,,,,474.289,474.789,,,475.039,475.212,left,0.17,,,,,,,,,0.4,,,,,,474.789,475.039,475.212,476.309,0,181,181,57,1,,,,,,,
,,,,,,,5b09da13641b1200010eab05,682530beee0475fe95259f82,2025-05-14_20h10.39.203,cuing_paradigm_dot,2024.1.5,Win32,144.092219,68242c07d0c0e200c6451fdd,,,,,,,,,,,476.31,476.81,,,477.06,477.497,left,0.433,,,,,,,,,0.5,,,,,,476.81,477.059,477.497,478.595,0,182,182,97,1,,,,,,,
,,,,,,,5b09da13641b1200010eab05,682530beee0475fe95259f82,2025-05-14_20h10.39.203,cuing_paradigm_dot,2024.1.5,Win32,144.092219,68242c07d0c0e200c6451fdd,,,,,,,,,,,478.595,479.095,,,479.344,479.56,right,0.21,,,,,,,,,0.55,,,,,,479.095,479.344,479.56,480.657,0,183,183,123,1,,,,,,,
,,,,,,,5b09da13641b1200010eab05,682530beee0475fe95259f82,2025-05-14_20h10.39.203,cuing_paradigm_dot,2024.1.5,Win32,144.092219,68242c07d0c0e200c6451fdd,,,,,,,,,,,480.658,481.157,,,481.407,481.594,right,0.184,,,,,,,,,0.6,,,,,,481.157,481.407,481.594,482.692,0,184,184,162,1,,,,,,,
,,,,,,,5b09da13641b1200010eab05,682530beee0475fe95259f82,2025-05-14_20h10.39.203,cuing_paradigm_dot,2024.1.5,Win32,144.092219,68242c07d0c0e200c6451fdd,,,,,,,,,,,482.692,483.192,,,483.442,483.623,left,0.175,,,,,,,,,0.45,,,,,,483.192,483.442,483.623,484.72,0,185,185,71,1,,,,,,,
,,,,,,,5b09da13641b1200010eab05,682530beee0475fe95259f82,2025-05-14_20h10.39.203,cuing_paradigm_dot,2024.1.5,Win32,144.092219,68242c07d0c0e200c6451fdd,,,,,,,,,,,484.72,485.22,,,485.47,485.769,right,0.293,,,,,,,,,0.6,,,,,,485.22,485.47,485.769,486.866,0,186,186,156,1,,,,,,,
,,,,,,,5b09da13641b1200010eab05,682530beee0475fe95259f82,2025-05-14_20h10.39.203,cuing_paradigm_dot,2024.1.5,Win32,144.092219,68242c07d0c0e200c6451fdd,,,,,,,,,,,486.866,487.366,,,487.616,487.747,right,0.124,,,,,,,,,0.9,,,,,,487.366,487.616,487.747,488.845,0,187,187,193,1,,,,,,,
,,,,,,,5b09da13641b1200010eab05,682530beee0475fe95259f82,2025-05-14_20h10.39.203,cuing_paradigm_dot,2024.1.5,Win32,144.092219,68242c07d0c0e200c6451fdd,,,,,,,,,,,488.846,489.345,,,489.596,489.776,right,0.176,,,,,,,,,0.9,,,,,,489.346,489.595,489.776,490.873,0,188,188,205,1,,,,,,,
,,,,,,,5b09da13641b1200010eab05,682530beee0475fe95259f82,2025-05-14_20h10.39.203,cuing_paradigm_dot,2024.1.5,Win32,144.092219,68242c07d0c0e200c6451fdd,,,,,,,,,,,490.874,491.373,,,491.623,491.74,left,0.11,,,,,,,,,0.1,,,,,,491.373,491.623,491.741,492.838,0,189,189,14,1,,,,,,,
,,,,,,,5b09da13641b1200010eab05,682530beee0475fe95259f82,2025-05-14_20h10.39.203,cuing_paradigm_dot,2024.1.5,Win32,144.092219,68242c07d0c0e200c6451fdd,,,,,,,,,,,492.839,493.338,,,493.588,493.72,right,0.128,,,,,,,,,0.9,,,,,,493.339,493.588,493.72,494.818,0,190,190,206,1,,,,,,,
,,,,,,,5b09da13641b1200010eab05,682530beee0475fe95259f82,2025-05-14_20h10.39.203,cuing_paradigm_dot,2024.1.5,Win32,144.092219,68242c07d0c0e200c6451fdd,,,,,,,,,,,494.818,495.318,,,495.568,495.678,left,0.104,,,,,,,,,0.1,,,,,,495.318,495.568,495.678,496.776,0,191,191,24,1,,,,,,,
,,,,,,,5b09da13641b1200010eab05,682530beee0475fe95259f82,2025-05-14_20h10.39.203,cuing_paradigm_dot,2024.1.5,Win32,144.092219,68242c07d0c0e200c6451fdd,,,,,,,,,,,496.776,497.276,,,497.526,497.63,left,0.101,,,,,,,,,0.1,,,,,,497.276,497.526,497.631,498.727,0,192,192,21,1,,,,,,,
,,,,,,,5b09da13641b1200010eab05,682530beee0475fe95259f82,2025-05-14_20h10.39.203,cuing_paradigm_dot,2024.1.5,Win32,144.092219,68242c07d0c0e200c6451fdd,,,,,,,,,,,498.728,499.227,,,499.478,499.72,left,0.239,,,,,,,,,0.5,,,,,,499.227,499.478,499.72,500.818,0,193,193,100,1,,,,,,,
,,,,,,,5b09da13641b1200010eab05,682530beee0475fe95259f82,2025-05-14_20h10.39.203,cuing_paradigm_dot,2024.1.5,Win32,144.092219,68242c07d0c0e200c6451fdd,,,,,,,,,,,500.818,501.317,,,501.568,501.7,right,0.125,,,,,,,,,0.55,,,,,,501.317,501.568,501.7,502.797,0,194,194,138,1,,,,,,,
,,,,,,,5b09da13641b1200010eab05,682530beee0475fe95259f82,2025-05-14_20h10.39.203,cuing_paradigm_dot,2024.1.5,Win32,144.092219,68242c07d0c0e200c6451fdd,,,,,,,,,,,502.798,503.297,,,503.547,503.762,left,0.212,,,,,,,,,0.4,,,,,,503.297,503.547,503.762,504.86,0,195,195,59,1,,,,,,,
,,,,,,,5b09da13641b1200010eab05,682530beee0475fe95259f82,2025-05-14_20h10.39.203,cuing_paradigm_dot,2024.1.5,Win32,144.092219,68242c07d0c0e200c6451fdd,,,,,,,,,,,504.86,505.359,,,505.609,505.825,left,0.209,,,,,,,,,0.45,,,,,,505.36,505.609,505.825,506.921,0,196,196,63,1,,,,,,,
,,,,,,,5b09da13641b1200010eab05,682530beee0475fe95259f82,2025-05-14_20h10.39.203,cuing_paradigm_dot,2024.1.5,Win32,144.092219,68242c07d0c0e200c6451fdd,,,,,,,,,,,506.923,507.422,,,507.672,507.79,right,0.112,,,,,,,,,0.5,,,,,,507.422,507.672,507.79,508.887,0,197,197,93,1,,,,,,,
,,,,,,,5b09da13641b1200010eab05,682530beee0475fe95259f82,2025-05-14_20h10.39.203,cuing_paradigm_dot,2024.1.5,Win32,144.092219,68242c07d0c0e200c6451fdd,,,,,,,,,,,508.888,509.387,,,509.637,509.86,left,0.217,,,,,,,,,0.45,,,,,,509.387,509.637,509.86,510.957,0,198,198,83,1,,,,,,,
,,,,,,,5b09da13641b1200010eab05,682530beee0475fe95259f82,2025-05-14_20h10.39.203,cuing_paradigm_dot,2024.1.5,Win32,144.092219,68242c07d0c0e200c6451fdd,,,,,,,,,,,510.958,511.457,,,511.707,511.825,left,0.112,,,,,,,,,0.1,,,,,,511.457,511.707,511.825,512.923,0,199,199,4,1,,,,,,,
,,,,,,,5b09da13641b1200010eab05,682530beee0475fe95259f82,2025-05-14_20h10.39.203,cuing_paradigm_dot,2024.1.5,Win32,144.092219,68242c07d0c0e200c6451fdd,,,,,,,,,,,512.923,513.422,,,513.673,513.818,right,0.139,,,,,,,,,0.6,,,,,,513.422,513.673,513.818,514.916,0,200,200,170,1,,,,,,,
,,,,,,,5b09da13641b1200010eab05,682530beee0475fe95259f82,2025-05-14_20h10.39.203,cuing_paradigm_dot,2024.1.5,Win32,144.092219,68242c07d0c0e200c6451fdd,,,,,,,,,,,514.916,515.415,,,515.666,515.79,left,0.121,,,,,,,,,0.1,,,,,,515.415,515.666,515.79,516.887,0,201,201,29,1,,,,,,,
,,,,,,,5b09da13641b1200010eab05,682530beee0475fe95259f82,2025-05-14_20h10.39.203,cuing_paradigm_dot,2024.1.5,Win32,144.092219,68242c07d0c0e200c6451fdd,,,,,,,,,,,516.888,517.388,,,517.638,518.04,right,0.396,,,,,,,,,0.45,,,,,,517.388,517.638,518.041,519.138,0,202,202,69,1,,,,,,,
,,,,,,,5b09da13641b1200010eab05,682530beee0475fe95259f82,2025-05-14_20h10.39.203,cuing_paradigm_dot,2024.1.5,Win32,144.092219,68242c07d0c0e200c6451fdd,,,,,,,,,,,519.138,519.638,,,519.888,520.242,left,0.35,,,,,,,,,0.5,,,,,,519.638,519.888,520.242,521.339,0,203,203,102,1,,,,,,,
,,,,,,,5b09da13641b1200010eab05,682530beee0475fe95259f82,2025-05-14_20h10.39.203,cuing_paradigm_dot,2024.1.5,Win32,144.092219,68242c07d0c0e200c6451fdd,,,,,,,,,,,521.339,521.84,,,522.089,522.312,left,0.22,,,,,,,,,0.4,,,,,,521.84,522.089,522.313,523.409,0,204,204,55,1,,,,,,,
,,,,,,,5b09da13641b1200010eab05,682530beee0475fe95259f82,2025-05-14_20h10.39.203,cuing_paradigm_dot,2024.1.5,Win32,144.092219,68242c07d0c0e200c6451fdd,,,,,,,,,,,523.41,523.908,,,524.159,524.561,right,0.4,,,,,,,,,0.4,,,,,,523.909,524.159,524.562,525.659,0,205,205,31,1,,,,,,,
,,,,,,,5b09da13641b1200010eab05,682530beee0475fe95259f82,2025-05-14_20h10.39.203,cuing_paradigm_dot,2024.1.5,Win32,144.092219,68242c07d0c0e200c6451fdd,,,,,,,,,,,525.659,526.159,,,526.409,526.513,right,0.101,,,,,,,,,0.9,,,,,,526.159,526.409,526.513,527.61,0,206,206,199,1,,,,,,,
,,,,,,,5b09da13641b1200010eab05,682530beee0475fe95259f82,2025-05-14_20h10.39.203,cuing_paradigm_dot,2024.1.5,Win32,144.092219,68242c07d0c0e200c6451fdd,,,,,,,,,,,527.611,528.111,,,528.361,528.596,left,0.229,,,,,,,,,0.1,,,,,,528.111,528.361,528.596,529.693,0,207,207,1,1,,,,,,,
,,,,,,,5b09da13641b1200010eab05,682530beee0475fe95259f82,2025-05-14_20h10.39.203,cuing_paradigm_dot,2024.1.5,Win32,144.092219,68242c07d0c0e200c6451fdd,,,,,,,,,,,529.694,530.194,,,530.444,530.61,right,0.16,,,,,,,,,0.9,,,,,,530.194,530.444,530.61,531.707,0,208,208,189,1,,,,,,,
,,,,,,,5b09da13641b1200010eab05,682530beee0475fe95259f82,2025-05-14_20h10.39.203,cuing_paradigm_dot,2024.1.5,Win32,144.092219,68242c07d0c0e200c6451fdd,,,,,,,,,,,531.709,532.207,,,532.458,532.59,left,0.129,,,,,,,,,0.1,,,,,,532.207,532.458,532.59,533.687,0,209,209,19,1,,,,,,,
,,,,,,,5b09da13641b1200010eab05,682530beee0475fe95259f82,2025-05-14_20h10.39.203,cuing_paradigm_dot,2024.1.5,Win32,144.092219,68242c07d0c0e200c6451fdd,,,,,,,,,,,,,,,,,,,,,,,,,,,,,,,,,,,,,,,,,,533.688,593.69,,,,,
,,,,,,,5b09da13641b1200010eab05,682530beee0475fe95259f82,2025-05-14_20h10.39.203,cuing_paradigm_dot,2024.1.5,Win32,144.092219,68242c07d0c0e200c6451fdd,,,,,,,,,,,593.698,594.197,,,594.448,594.891,right,0.439,,,,,,,,,0.5,,,,,,594.197,594.448,594.891,595.988,,,,,,,,0,0,0,102,1
,,,,,,,5b09da13641b1200010eab05,682530beee0475fe95259f82,2025-05-14_20h10.39.203,cuing_paradigm_dot,2024.1.5,Win32,144.092219,68242c07d0c0e200c6451fdd,,,,,,,,,,,595.989,596.488,,,596.739,597.197,right,0.45,,,,,,,,,0.55,,,,,,596.488,596.739,597.197,598.294,,,,,,,,0,1,1,141,1
,,,,,,,5b09da13641b1200010eab05,682530beee0475fe95259f82,2025-05-14_20h10.39.203,cuing_paradigm_dot,2024.1.5,Win32,144.092219,68242c07d0c0e200c6451fdd,,,,,,,,,,,598.295,598.794,,,599.045,599.266,right,0.218,,,,,,,,,0.9,,,,,,598.794,599.045,599.266,600.363,,,,,,,,0,2,2,205,1
,,,,,,,5b09da13641b1200010eab05,682530beee0475fe95259f82,2025-05-14_20h10.39.203,cuing_paradigm_dot,2024.1.5,Win32,144.092219,68242c07d0c0e200c6451fdd,,,,,,,,,,,600.364,600.864,,,601.114,601.238,left,0.121,,,,,,,,,0.45,,,,,,600.864,601.113,601.238,602.336,,,,,,,,0,3,3,85,1
,,,,,,,5b09da13641b1200010eab05,682530beee0475fe95259f82,2025-05-14_20h10.39.203,cuing_paradigm_dot,2024.1.5,Win32,144.092219,68242c07d0c0e200c6451fdd,,,,,,,,,,,602.336,602.836,,,603.086,603.301,left,0.21,,,,,,,,,0.45,,,,,,602.836,603.086,603.301,604.398,,,,,,,,0,4,4,80,1
,,,,,,,5b09da13641b1200010eab05,682530beee0475fe95259f82,2025-05-14_20h10.39.203,cuing_paradigm_dot,2024.1.5,Win32,144.092219,68242c07d0c0e200c6451fdd,,,,,,,,,,,604.399,604.898,,,605.149,605.677,right,0.522,,,,,,,,,0.6,,,,,,604.898,605.149,605.677,606.773,,,,,,,,0,5,5,153,1
,,,,,,,5b09da13641b1200010eab05,682530beee0475fe95259f82,2025-05-14_20h10.39.203,cuing_paradigm_dot,2024.1.5,Win32,144.092219,68242c07d0c0e200c6451fdd,,,,,,,,,,,606.774,607.274,,,607.524,607.718,right,0.191,,,,,,,,,0.9,,,,,,607.274,607.524,607.718,608.815,,,,,,,,0,6,6,202,1
,,,,,,,5b09da13641b1200010eab05,682530beee0475fe95259f82,2025-05-14_20h10.39.203,cuing_paradigm_dot,2024.1.5,Win32,144.092219,68242c07d0c0e200c6451fdd,,,,,,,,,,,608.816,609.316,,,609.566,609.745,right,0.174,,,,,,,,,0.9,,,,,,609.316,609.565,609.745,610.843,,,,,,,,0,7,7,189,1
,,,,,,,5b09da13641b1200010eab05,682530beee0475fe95259f82,2025-05-14_20h10.39.203,cuing_paradigm_dot,2024.1.5,Win32,144.092219,68242c07d0c0e200c6451fdd,,,,,,,,,,,610.844,611.343,,,611.594,611.85,right,0.252,,,,,,,,,0.5,,,,,,611.343,611.593,611.85,612.947,,,,,,,,0,8,8,91,1
,,,,,,,5b09da13641b1200010eab05,682530beee0475fe95259f82,2025-05-14_20h10.39.203,cuing_paradigm_dot,2024.1.5,Win32,144.092219,68242c07d0c0e200c6451fdd,,,,,,,,,,,612.947,613.448,,,613.698,613.836,left,0.133,,,,,,,,,0.45,,,,,,613.448,613.698,613.837,614.933,,,,,,,,0,9,9,79,1
,,,,,,,5b09da13641b1200010eab05,682530beee0475fe95259f82,2025-05-14_20h10.39.203,cuing_paradigm_dot,2024.1.5,Win32,144.092219,68242c07d0c0e200c6451fdd,,,,,,,,,,,614.934,615.433,,,615.684,615.829,right,0.141,,,,,,,,,0.9,,,,,,615.434,615.684,615.83,616.927,,,,,,,,0,10,10,187,1
,,,,,,,5b09da13641b1200010eab05,682530beee0475fe95259f82,2025-05-14_20h10.39.203,cuing_paradigm_dot,2024.1.5,Win32,144.092219,68242c07d0c0e200c6451fdd,,,,,,,,,,,616.927,617.426,,,617.677,617.878,right,0.196,,,,,,,,,0.6,,,,,,617.426,617.677,617.878,618.975,,,,,,,,0,11,11,166,1
,,,,,,,5b09da13641b1200010eab05,682530beee0475fe95259f82,2025-05-14_20h10.39.203,cuing_paradigm_dot,2024.1.5,Win32,144.092219,68242c07d0c0e200c6451fdd,,,,,,,,,,,618.976,619.475,,,619.726,619.85,left,0.121,,,,,,,,,0.1,,,,,,619.475,619.725,619.851,620.948,,,,,,,,0,12,12,29,1
,,,,,,,5b09da13641b1200010eab05,682530beee0475fe95259f82,2025-05-14_20h10.39.203,cuing_paradigm_dot,2024.1.5,Win32,144.092219,68242c07d0c0e200c6451fdd,,,,,,,,,,,620.948,621.448,,,621.698,621.754,left,0.048,,,,,,,,,0.1,,,,,,621.448,621.698,621.754,622.851,,,,,,,,0,13,13,2,1
,,,,,,,5b09da13641b1200010eab05,682530beee0475fe95259f82,2025-05-14_20h10.39.203,cuing_paradigm_dot,2024.1.5,Win32,144.092219,68242c07d0c0e200c6451fdd,,,,,,,,,,,622.852,623.351,,,623.601,623.739,right,0.134,,,,,,,,,0.9,,,,,,623.351,623.601,623.739,624.836,,,,,,,,0,14,14,180,1
,,,,,,,5b09da13641b1200010eab05,682530beee0475fe95259f82,2025-05-14_20h10.39.203,cuing_paradigm_dot,2024.1.5,Win32,144.092219,68242c07d0c0e200c6451fdd,,,,,,,,,,,624.838,625.337,,,625.587,625.885,left,0.294,,,,,,,,,0.5,,,,,,625.337,625.587,625.885,626.983,,,,,,,,0,15,15,103,1
,,,,,,,5b09da13641b1200010eab05,682530beee0475fe95259f82,2025-05-14_20h10.39.203,cuing_paradigm_dot,2024.1.5,Win32,144.092219,68242c07d0c0e200c6451fdd,,,,,,,,,,,626.984,627.483,,,627.733,627.851,right,0.112,,,,,,,,,0.9,,,,,,627.483,627.733,627.851,628.949,,,,,,,,0,16,16,186,1
,,,,,,,5b09da13641b1200010eab05,682530beee0475fe95259f82,2025-05-14_20h10.39.203,cuing_paradigm_dot,2024.1.5,Win32,144.092219,68242c07d0c0e200c6451fdd,,,,,,,,,,,628.949,629.447,,,629.699,629.955,right,0.251,,,,,,,,,0.55,,,,,,629.448,629.699,629.955,631.052,,,,,,,,0,17,17,137,1
,,,,,,,5b09da13641b1200010eab05,682530beee0475fe95259f82,2025-05-14_20h10.39.203,cuing_paradigm_dot,2024.1.5,Win32,144.092219,68242c07d0c0e200c6451fdd,,,,,,,,,,,631.053,631.552,,,631.803,632.039,right,0.23,,,,,,,,,0.1,,,,,,631.552,631.803,632.039,633.136,,,,,,,,0,18,18,11,1
,,,,,,,5b09da13641b1200010eab05,682530beee0475fe95259f82,2025-05-14_20h10.39.203,cuing_paradigm_dot,2024.1.5,Win32,144.092219,68242c07d0c0e200c6451fdd,,,,,,,,,,,633.136,633.635,,,633.886,634.205,right,0.316,,,,,,,,,0.5,,,,,,633.635,633.886,634.205,635.302,,,,,,,,0,19,19,100,1
,,,,,,,5b09da13641b1200010eab05,682530beee0475fe95259f82,2025-05-14_20h10.39.203,cuing_paradigm_dot,2024.1.5,Win32,144.092219,68242c07d0c0e200c6451fdd,,,,,,,,,,,635.303,635.803,,,636.053,636.219,left,0.162,,,,,,,,,0.1,,,,,,635.803,636.053,636.219,637.316,,,,,,,,0,20,20,9,1
,,,,,,,5b09da13641b1200010eab05,682530beee0475fe95259f82,2025-05-14_20h10.39.203,cuing_paradigm_dot,2024.1.5,Win32,144.092219,68242c07d0c0e200c6451fdd,,,,,,,,,,,637.316,637.817,,,638.066,638.233,right,0.16,,,,,,,,,0.9,,,,,,637.817,638.066,638.233,639.33,,,,,,,,0,21,21,191,1
,,,,,,,5b09da13641b1200010eab05,682530beee0475fe95259f82,2025-05-14_20h10.39.203,cuing_paradigm_dot,2024.1.5,Win32,144.092219,68242c07d0c0e200c6451fdd,,,,,,,,,,,639.331,639.831,,,640.081,640.407,right,0.323,,,,,,,,,0.5,,,,,,639.831,640.081,640.407,641.504,,,,,,,,0,22,22,110,1
,,,,,,,5b09da13641b1200010eab05,682530beee0475fe95259f82,2025-05-14_20h10.39.203,cuing_paradigm_dot,2024.1.5,Win32,144.092219,68242c07d0c0e200c6451fdd,,,,,,,,,,,641.504,642.003,,,642.254,642.393,right,0.133,,,,,,,,,0.6,,,,,,642.003,642.254,642.393,643.49,,,,,,,,0,23,23,177,1
,,,,,,,5b09da13641b1200010eab05,682530beee0475fe95259f82,2025-05-14_20h10.39.203,cuing_paradigm_dot,2024.1.5,Win32,144.092219,68242c07d0c0e200c6451fdd,,,,,,,,,,,643.491,643.991,,,644.241,644.365,left,0.119,,,,,,,,,0.45,,,,,,643.991,644.241,644.365,645.462,,,,,,,,0,24,24,72,1
,,,,,,,5b09da13641b1200010eab05,682530beee0475fe95259f82,2025-05-14_20h10.39.203,cuing_paradigm_dot,2024.1.5,Win32,144.092219,68242c07d0c0e200c6451fdd,,,,,,,,,,,645.463,645.963,,,646.213,646.365,left,0.148,,,,,,,,,0.5,,,,,,645.963,646.213,646.365,647.463,,,,,,,,0,25,25,107,1
,,,,,,,5b09da13641b1200010eab05,682530beee0475fe95259f82,2025-05-14_20h10.39.203,cuing_paradigm_dot,2024.1.5,Win32,144.092219,68242c07d0c0e200c6451fdd,,,,,,,,,,,647.464,647.963,,,648.213,648.469,left,0.252,,,,,,,,,0.45,,,,,,647.963,648.213,648.469,649.567,,,,,,,,0,26,26,74,1
,,,,,,,5b09da13641b1200010eab05,682530beee0475fe95259f82,2025-05-14_20h10.39.203,cuing_paradigm_dot,2024.1.5,Win32,144.092219,68242c07d0c0e200c6451fdd,,,,,,,,,,,649.567,650.067,,,650.317,650.914,left,0.591,,,,,,,,,0.55,,,,,,650.067,650.317,650.914,652.011,,,,,,,,0,27,27,142,1
,,,,,,,5b09da13641b1200010eab05,682530beee0475fe95259f82,2025-05-14_20h10.39.203,cuing_paradigm_dot,2024.1.5,Win32,144.092219,68242c07d0c0e200c6451fdd,,,,,,,,,,,652.012,652.512,,,652.762,653.06,left,0.293,,,,,,,,,0.4,,,,,,652.512,652.762,653.06,654.157,,,,,,,,0,28,28,49,1
,,,,,,,5b09da13641b1200010eab05,682530beee0475fe95259f82,2025-05-14_20h10.39.203,cuing_paradigm_dot,2024.1.5,Win32,144.092219,68242c07d0c0e200c6451fdd,,,,,,,,,,,654.158,654.657,,,654.907,655.011,left,0.1,,,,,,,,,0.1,,,,,,654.657,654.907,655.011,656.109,,,,,,,,0,29,29,1,1
,,,,,,,5b09da13641b1200010eab05,682530beee0475fe95259f82,2025-05-14_20h10.39.203,cuing_paradigm_dot,2024.1.5,Win32,144.092219,68242c07d0c0e200c6451fdd,,,,,,,,,,,656.11,656.609,,,656.86,657.075,right,0.208,,,,,,,,,0.6,,,,,,656.609,656.86,657.075,658.172,,,,,,,,0,30,30,170,1
,,,,,,,5b09da13641b1200010eab05,682530beee0475fe95259f82,2025-05-14_20h10.39.203,cuing_paradigm_dot,2024.1.5,Win32,144.092219,68242c07d0c0e200c6451fdd,,,,,,,,,,,658.172,658.672,,,658.922,659.283,left,0.356,,,,,,,,,0.4,,,,,,658.672,658.922,659.283,660.38,,,,,,,,0,31,31,35,1
,,,,,,,5b09da13641b1200010eab05,682530beee0475fe95259f82,2025-05-14_20h10.39.203,cuing_paradigm_dot,2024.1.5,Win32,144.092219,68242c07d0c0e200c6451fdd,,,,,,,,,,,660.381,660.88,,,661.131,661.575,left,0.437,,,,,,,,,0.4,,,,,,660.88,661.131,661.575,662.672,,,,,,,,0,32,32,56,1
,,,,,,,5b09da13641b1200010eab05,682530beee0475fe95259f82,2025-05-14_20h10.39.203,cuing_paradigm_dot,2024.1.5,Win32,144.092219,68242c07d0c0e200c6451fdd,,,,,,,,,,,662.672,663.171,,,663.423,663.706,left,0.278,,,,,,,,,0.45,,,,,,663.171,663.422,663.706,664.804,,,,,,,,0,33,33,68,1
,,,,,,,5b09da13641b1200010eab05,682530beee0475fe95259f82,2025-05-14_20h10.39.203,cuing_paradigm_dot,2024.1.5,Win32,144.092219,68242c07d0c0e200c6451fdd,,,,,,,,,,,664.804,665.304,,,665.554,666.289,right,0.73,,,,,,,,,0.5,,,,,,665.304,665.554,666.29,667.387,,,,,,,,0,34,34,105,1
,,,,,,,5b09da13641b1200010eab05,682530beee0475fe95259f82,2025-05-14_20h10.39.203,cuing_paradigm_dot,2024.1.5,Win32,144.092219,68242c07d0c0e200c6451fdd,,,,,,,,,,,667.388,667.887,,,668.137,668.269,left,0.125,,,,,,,,,0.1,,,,,,667.887,668.137,668.269,669.366,,,,,,,,0,35,35,28,1
,,,,,,,5b09da13641b1200010eab05,682530beee0475fe95259f82,2025-05-14_20h10.39.203,cuing_paradigm_dot,2024.1.5,Win32,144.092219,68242c07d0c0e200c6451fdd,,,,,,,,,,,669.367,669.867,,,670.116,670.429,right,0.309,,,,,,,,,0.55,,,,,,669.867,670.116,670.429,671.526,,,,,,,,0,36,36,149,1
,,,,,,,5b09da13641b1200010eab05,682530beee0475fe95259f82,2025-05-14_20h10.39.203,cuing_paradigm_dot,2024.1.5,Win32,144.092219,68242c07d0c0e200c6451fdd,,,,,,,,,,,671.527,672.026,,,672.277,672.54,left,0.257,,,,,,,,,0.45,,,,,,672.026,672.277,672.54,673.637,,,,,,,,0,37,37,70,1
,,,,,,,5b09da13641b1200010eab05,682530beee0475fe95259f82,2025-05-14_20h10.39.203,cuing_paradigm_dot,2024.1.5,Win32,144.092219,68242c07d0c0e200c6451fdd,,,,,,,,,,,673.638,674.137,,,674.387,674.533,right,0.139,,,,,,,,,0.55,,,,,,674.138,674.387,674.533,675.63,,,,,,,,0,38,38,133,1
,,,,,,,5b09da13641b1200010eab05,682530beee0475fe95259f82,2025-05-14_20h10.39.203,cuing_paradigm_dot,2024.1.5,Win32,144.092219,68242c07d0c0e200c6451fdd,,,,,,,,,,,675.631,676.13,,,676.381,676.866,right,0.483,,,,,,,,,0.5,,,,,,676.13,676.381,676.866,677.964,,,,,,,,0,39,39,116,1
,,,,,,,5b09da13641b1200010eab05,682530beee0475fe95259f82,2025-05-14_20h10.39.203,cuing_paradigm_dot,2024.1.5,Win32,144.092219,68242c07d0c0e200c6451fdd,,,,,,,,,,,677.964,678.464,,,678.715,679.256,right,0.535,,,,,,,,,0.6,,,,,,678.464,678.714,679.256,680.353,,,,,,,,0,40,40,159,1
,,,,,,,5b09da13641b1200010eab05,682530beee0475fe95259f82,2025-05-14_20h10.39.203,cuing_paradigm_dot,2024.1.5,Win32,144.092219,68242c07d0c0e200c6451fdd,,,,,,,,,,,680.353,680.853,,,681.104,681.401,right,0.292,,,,,,,,,0.6,,,,,,680.853,681.104,681.401,682.499,,,,,,,,0,41,41,150,1
,,,,,,,5b09da13641b1200010eab05,682530beee0475fe95259f82,2025-05-14_20h10.39.203,cuing_paradigm_dot,2024.1.5,Win32,144.092219,68242c07d0c0e200c6451fdd,,,,,,,,,,,682.499,682.999,,,683.249,683.443,left,0.19,,,,,,,,,0.4,,,,,,682.999,683.249,683.443,684.541,,,,,,,,0,42,42,37,1
,,,,,,,5b09da13641b1200010eab05,682530beee0475fe95259f82,2025-05-14_20h10.39.203,cuing_paradigm_dot,2024.1.5,Win32,144.092219,68242c07d0c0e200c6451fdd,,,,,,,,,,,684.541,685.041,,,685.291,685.437,left,0.139,,,,,,,,,0.1,,,,,,685.041,685.291,685.437,686.534,,,,,,,,0,43,43,18,1
,,,,,,,5b09da13641b1200010eab05,682530beee0475fe95259f82,2025-05-14_20h10.39.203,cuing_paradigm_dot,2024.1.5,Win32,144.092219,68242c07d0c0e200c6451fdd,,,,,,,,,,,686.534,687.034,,,687.284,687.408,left,0.12,,,,,,,,,0.1,,,,,,687.034,687.284,687.408,688.506,,,,,,,,0,44,44,8,1
,,,,,,,5b09da13641b1200010eab05,682530beee0475fe95259f82,2025-05-14_20h10.39.203,cuing_paradigm_dot,2024.1.5,Win32,144.092219,68242c07d0c0e200c6451fdd,,,,,,,,,,,688.506,689.007,,,689.256,689.562,right,0.299,,,,,,,,,0.6,,,,,,689.007,689.256,689.562,690.659,,,,,,,,0,45,45,172,1
,,,,,,,5b09da13641b1200010eab05,682530beee0475fe95259f82,2025-05-14_20h10.39.203,cuing_paradigm_dot,2024.1.5,Win32,144.092219,68242c07d0c0e200c6451fdd,,,,,,,,,,,690.661,691.159,,,691.41,691.561,left,0.147,,,,,,,,,0.1,,,,,,691.159,691.41,691.561,692.659,,,,,,,,0,46,46,0,1
,,,,,,,5b09da13641b1200010eab05,682530beee0475fe95259f82,2025-05-14_20h10.39.203,cuing_paradigm_dot,2024.1.5,Win32,144.092219,68242c07d0c0e200c6451fdd,,,,,,,,,,,692.659,693.159,,,693.409,693.729,right,0.316,,,,,,,,,0.55,,,,,,693.159,693.409,693.729,694.826,,,,,,,,0,47,47,139,1
,,,,,,,5b09da13641b1200010eab05,682530beee0475fe95259f82,2025-05-14_20h10.39.203,cuing_paradigm_dot,2024.1.5,Win32,144.092219,68242c07d0c0e200c6451fdd,,,,,,,,,,,694.826,695.326,,,695.576,695.75,right,0.168,,,,,,,,,0.9,,,,,,695.326,695.576,695.75,696.846,,,,,,,,0,48,48,195,1
,,,,,,,5b09da13641b1200010eab05,682530beee0475fe95259f82,2025-05-14_20h10.39.203,cuing_paradigm_dot,2024.1.5,Win32,144.092219,68242c07d0c0e200c6451fdd,,,,,,,,,,,696.848,697.347,,,697.597,697.798,left,0.196,,,,,,,,,0.1,,,,,,697.347,697.597,697.798,698.895,,,,,,,,0,49,49,19,1
,,,,,,,5b09da13641b1200010eab05,682530beee0475fe95259f82,2025-05-14_20h10.39.203,cuing_paradigm_dot,2024.1.5,Win32,144.092219,68242c07d0c0e200c6451fdd,,,,,,,,,,,698.896,699.396,,,699.646,699.764,left,0.112,,,,,,,,,0.4,,,,,,699.396,699.646,699.764,700.86,,,,,,,,0,50,50,45,1
,,,,,,,5b09da13641b1200010eab05,682530beee0475fe95259f82,2025-05-14_20h10.39.203,cuing_paradigm_dot,2024.1.5,Win32,144.092219,68242c07d0c0e200c6451fdd,,,,,,,,,,,700.861,701.361,,,701.611,701.819,left,0.203,,,,,,,,,0.4,,,,,,701.361,701.611,701.819,702.916,,,,,,,,0,51,51,51,1
,,,,,,,5b09da13641b1200010eab05,682530beee0475fe95259f82,2025-05-14_20h10.39.203,cuing_paradigm_dot,2024.1.5,Win32,144.092219,68242c07d0c0e200c6451fdd,,,,,,,,,,,702.917,703.416,,,703.667,704.048,left,0.376,,,,,,,,,0.45,,,,,,703.416,703.667,704.048,705.146,,,,,,,,0,52,52,77,1
,,,,,,,5b09da13641b1200010eab05,682530beee0475fe95259f82,2025-05-14_20h10.39.203,cuing_paradigm_dot,2024.1.5,Win32,144.092219,68242c07d0c0e200c6451fdd,,,,,,,,,,,705.146,705.646,,,705.896,706.166,right,0.265,,,,,,,,,0.6,,,,,,705.646,705.896,706.166,707.264,,,,,,,,0,53,53,175,1
,,,,,,,5b09da13641b1200010eab05,682530beee0475fe95259f82,2025-05-14_20h10.39.203,cuing_paradigm_dot,2024.1.5,Win32,144.092219,68242c07d0c0e200c6451fdd,,,,,,,,,,,707.264,707.764,,,708.014,708.285,left,0.266,,,,,,,,,0.6,,,,,,707.764,708.014,708.285,709.382,,,,,,,,0,54,54,165,1
,,,,,,,5b09da13641b1200010eab05,682530beee0475fe95259f82,2025-05-14_20h10.39.203,cuing_paradigm_dot,2024.1.5,Win32,144.092219,68242c07d0c0e200c6451fdd,,,,,,,,,,,709.382,709.882,,,710.132,710.396,right,0.257,,,,,,,,,0.6,,,,,,709.882,710.132,710.396,711.493,,,,,,,,0,55,55,169,1
,,,,,,,5b09da13641b1200010eab05,682530beee0475fe95259f82,2025-05-14_20h10.39.203,cuing_paradigm_dot,2024.1.5,Win32,144.092219,68242c07d0c0e200c6451fdd,,,,,,,,,,,711.494,711.993,,,712.243,712.708,left,0.46,,,,,,,,,0.4,,,,,,711.993,712.243,712.708,713.805,,,,,,,,0,56,56,39,1
,,,,,,,5b09da13641b1200010eab05,682530beee0475fe95259f82,2025-05-14_20h10.39.203,cuing_paradigm_dot,2024.1.5,Win32,144.092219,68242c07d0c0e200c6451fdd,,,,,,,,,,,713.806,714.306,,,714.556,714.84,right,0.279,,,,,,,,,0.55,,,,,,714.306,714.556,714.84,715.938,,,,,,,,0,57,57,131,1
,,,,,,,5b09da13641b1200010eab05,682530beee0475fe95259f82,2025-05-14_20h10.39.203,cuing_paradigm_dot,2024.1.5,Win32,144.092219,68242c07d0c0e200c6451fdd,,,,,,,,,,,715.938,716.437,,,716.688,716.945,right,0.251,,,,,,,,,0.9,,,,,,716.437,716.688,716.945,718.042,,,,,,,,0,58,58,204,1
,,,,,,,5b09da13641b1200010eab05,682530beee0475fe95259f82,2025-05-14_20h10.39.203,cuing_paradigm_dot,2024.1.5,Win32,144.092219,68242c07d0c0e200c6451fdd,,,,,,,,,,,718.042,718.542,,,718.793,719.154,right,0.354,,,,,,,,,0.6,,,,,,718.542,718.793,719.154,720.25,,,,,,,,0,59,59,156,1
,,,,,,,5b09da13641b1200010eab05,682530beee0475fe95259f82,2025-05-14_20h10.39.203,cuing_paradigm_dot,2024.1.5,Win32,144.092219,68242c07d0c0e200c6451fdd,,,,,,,,,,,720.251,720.75,,,721,721.32,right,0.313,,,,,,,,,0.55,,,,,,720.75,721,721.32,722.417,,,,,,,,0,60,60,126,1
,,,,,,,5b09da13641b1200010eab05,682530beee0475fe95259f82,2025-05-14_20h10.39.203,cuing_paradigm_dot,2024.1.5,Win32,144.092219,68242c07d0c0e200c6451fdd,,,,,,,,,,,722.419,722.917,,,723.167,723.258,left,0.087,,,,,,,,,0.1,,,,,,722.917,723.167,723.258,724.355,,,,,,,,0,61,61,4,1
,,,,,,,5b09da13641b1200010eab05,682530beee0475fe95259f82,2025-05-14_20h10.39.203,cuing_paradigm_dot,2024.1.5,Win32,144.092219,68242c07d0c0e200c6451fdd,,,,,,,,,,,724.355,724.854,,,725.105,725.514,right,0.402,,,,,,,,,0.4,,,,,,724.854,725.105,725.514,726.611,,,,,,,,0,62,62,54,1
,,,,,,,5b09da13641b1200010eab05,682530beee0475fe95259f82,2025-05-14_20h10.39.203,cuing_paradigm_dot,2024.1.5,Win32,144.092219,68242c07d0c0e200c6451fdd,,,,,,,,,,,726.613,727.112,,,727.362,727.459,left,0.091,,,,,,,,,0.1,,,,,,727.112,727.362,727.459,728.556,,,,,,,,0,63,63,20,1
,,,,,,,5b09da13641b1200010eab05,682530beee0475fe95259f82,2025-05-14_20h10.39.203,cuing_paradigm_dot,2024.1.5,Win32,144.092219,68242c07d0c0e200c6451fdd,,,,,,,,,,,728.557,729.057,,,729.307,729.869,left,0.556,,,,,,,,,0.5,,,,,,729.057,729.307,729.869,730.966,,,,,,,,0,64,64,119,1
,,,,,,,5b09da13641b1200010eab05,682530beee0475fe95259f82,2025-05-14_20h10.39.203,cuing_paradigm_dot,2024.1.5,Win32,144.092219,68242c07d0c0e200c6451fdd,,,,,,,,,,,730.966,731.466,,,731.717,731.966,right,0.247,,,,,,,,,0.6,,,,,,731.466,731.717,731.966,733.064,,,,,,,,0,65,65,158,1
,,,,,,,5b09da13641b1200010eab05,682530beee0475fe95259f82,2025-05-14_20h10.39.203,cuing_paradigm_dot,2024.1.5,Win32,144.092219,68242c07d0c0e200c6451fdd,,,,,,,,,,,733.064,733.563,,,733.814,734.098,right,0.282,,,,,,,,,0.55,,,,,,733.563,733.814,734.098,735.195,,,,,,,,0,66,66,146,1
,,,,,,,5b09da13641b1200010eab05,682530beee0475fe95259f82,2025-05-14_20h10.39.203,cuing_paradigm_dot,2024.1.5,Win32,144.092219,68242c07d0c0e200c6451fdd,,,,,,,,,,,735.196,735.696,,,735.946,736.21,right,0.257,,,,,,,,,0.5,,,,,,735.696,735.945,736.21,737.307,,,,,,,,0,67,67,92,1
,,,,,,,5b09da13641b1200010eab05,682530beee0475fe95259f82,2025-05-14_20h10.39.203,cuing_paradigm_dot,2024.1.5,Win32,144.092219,68242c07d0c0e200c6451fdd,,,,,,,,,,,737.307,737.807,,,738.057,738.202,left,0.14,,,,,,,,,0.4,,,,,,737.807,738.057,738.202,739.299,,,,,,,,0,68,68,59,1
,,,,,,,5b09da13641b1200010eab05,682530beee0475fe95259f82,2025-05-14_20h10.39.203,cuing_paradigm_dot,2024.1.5,Win32,144.092219,68242c07d0c0e200c6451fdd,,,,,,,,,,,739.3,739.8,,,740.05,740.3,right,0.244,,,,,,,,,0.5,,,,,,739.8,740.05,740.3,741.397,,,,,,,,0,69,69,93,1
,,,,,,,5b09da13641b1200010eab05,682530beee0475fe95259f82,2025-05-14_20h10.39.203,cuing_paradigm_dot,2024.1.5,Win32,144.092219,68242c07d0c0e200c6451fdd,,,,,,,,,,,741.397,741.897,,,742.148,742.432,right,0.28,,,,,,,,,0.55,,,,,,741.897,742.148,742.432,743.529,,,,,,,,0,70,70,135,1
,,,,,,,5b09da13641b1200010eab05,682530beee0475fe95259f82,2025-05-14_20h10.39.203,cuing_paradigm_dot,2024.1.5,Win32,144.092219,68242c07d0c0e200c6451fdd,,,,,,,,,,,743.53,744.03,,,744.279,744.599,left,0.312,,,,,,,,,0.45,,,,,,744.03,744.279,744.599,745.696,,,,,,,,0,71,71,75,1
,,,,,,,5b09da13641b1200010eab05,682530beee0475fe95259f82,2025-05-14_20h10.39.203,cuing_paradigm_dot,2024.1.5,Win32,144.092219,68242c07d0c0e200c6451fdd,,,,,,,,,,,745.696,746.196,,,746.446,746.821,left,0.368,,,,,,,,,0.4,,,,,,746.196,746.446,746.821,747.918,,,,,,,,0,72,72,36,1
,,,,,,,5b09da13641b1200010eab05,682530beee0475fe95259f82,2025-05-14_20h10.39.203,cuing_paradigm_dot,2024.1.5,Win32,144.092219,68242c07d0c0e200c6451fdd,,,,,,,,,,,747.918,748.419,,,748.668,748.904,right,0.23,,,,,,,,,0.5,,,,,,748.419,748.668,748.904,750.002,,,,,,,,0,73,73,106,1
,,,,,,,5b09da13641b1200010eab05,682530beee0475fe95259f82,2025-05-14_20h10.39.203,cuing_paradigm_dot,2024.1.5,Win32,144.092219,68242c07d0c0e200c6451fdd,,,,,,,,,,,750.002,750.501,,,750.752,751.216,left,0.461,,,,,,,,,0.45,,,,,,750.501,750.752,751.217,752.314,,,,,,,,0,74,74,78,1
,,,,,,,5b09da13641b1200010eab05,682530beee0475fe95259f82,2025-05-14_20h10.39.203,cuing_paradigm_dot,2024.1.5,Win32,144.092219,68242c07d0c0e200c6451fdd,,,,,,,,,,,752.315,752.814,,,753.065,753.682,left,0.611,,,,,,,,,0.4,,,,,,752.814,753.065,753.682,754.779,,,,,,,,0,75,75,53,1
,,,,,,,5b09da13641b1200010eab05,682530beee0475fe95259f82,2025-05-14_20h10.39.203,cuing_paradigm_dot,2024.1.5,Win32,144.092219,68242c07d0c0e200c6451fdd,,,,,,,,,,,754.78,755.279,,,755.531,755.696,left,0.159,,,,,,,,,0.1,,,,,,755.279,755.531,755.696,756.794,,,,,,,,0,76,76,15,1
,,,,,,,5b09da13641b1200010eab05,682530beee0475fe95259f82,2025-05-14_20h10.39.203,cuing_paradigm_dot,2024.1.5,Win32,144.092219,68242c07d0c0e200c6451fdd,,,,,,,,,,,756.795,757.294,,,757.544,757.842,right,0.294,,,,,,,,,0.6,,,,,,757.294,757.544,757.842,758.94,,,,,,,,0,77,77,154,1
,,,,,,,5b09da13641b1200010eab05,682530beee0475fe95259f82,2025-05-14_20h10.39.203,cuing_paradigm_dot,2024.1.5,Win32,144.092219,68242c07d0c0e200c6451fdd,,,,,,,,,,,758.94,759.439,,,759.689,759.933,right,0.237,,,,,,,,,0.6,,,,,,759.439,759.689,759.933,761.03,,,,,,,,0,78,78,178,1
,,,,,,,5b09da13641b1200010eab05,682530beee0475fe95259f82,2025-05-14_20h10.39.203,cuing_paradigm_dot,2024.1.5,Win32,144.092219,68242c07d0c0e200c6451fdd,,,,,,,,,,,761.031,761.53,,,761.78,762.002,right,0.218,,,,,,,,,0.9,,,,,,761.53,761.78,762.002,763.1,,,,,,,,0,79,79,185,1
,,,,,,,5b09da13641b1200010eab05,682530beee0475fe95259f82,2025-05-14_20h10.39.203,cuing_paradigm_dot,2024.1.5,Win32,144.092219,68242c07d0c0e200c6451fdd,,,,,,,,,,,763.1,763.599,,,763.849,763.995,left,0.14,,,,,,,,,0.45,,,,,,763.6,763.849,763.996,765.093,,,,,,,,0,80,80,64,1
,,,,,,,5b09da13641b1200010eab05,682530beee0475fe95259f82,2025-05-14_20h10.39.203,cuing_paradigm_dot,2024.1.5,Win32,144.092219,68242c07d0c0e200c6451fdd,,,,,,,,,,,765.093,765.593,,,765.843,765.961,left,0.112,,,,,,,,,0.1,,,,,,765.593,765.843,765.961,767.058,,,,,,,,0,81,81,13,1
,,,,,,,5b09da13641b1200010eab05,682530beee0475fe95259f82,2025-05-14_20h10.39.203,cuing_paradigm_dot,2024.1.5,Win32,144.092219,68242c07d0c0e200c6451fdd,,,,,,,,,,,767.058,767.558,,,767.808,768.149,right,0.333,,,,,,,,,0.55,,,,,,767.558,767.808,768.149,769.246,,,,,,,,0,82,82,140,1
,,,,,,,5b09da13641b1200010eab05,682530beee0475fe95259f82,2025-05-14_20h10.39.203,cuing_paradigm_dot,2024.1.5,Win32,144.092219,68242c07d0c0e200c6451fdd,,,,,,,,,,,769.246,769.746,,,769.996,770.121,left,0.118,,,,,,,,,0.1,,,,,,769.746,769.996,770.121,771.217,,,,,,,,0,83,83,25,1
,,,,,,,5b09da13641b1200010eab05,682530beee0475fe95259f82,2025-05-14_20h10.39.203,cuing_paradigm_dot,2024.1.5,Win32,144.092219,68242c07d0c0e200c6451fdd,,,,,,,,,,,771.218,771.718,,,771.968,772.142,left,0.166,,,,,,,,,0.4,,,,,,771.718,771.968,772.142,773.239,,,,,,,,0,84,84,57,1
,,,,,,,5b09da13641b1200010eab05,682530beee0475fe95259f82,2025-05-14_20h10.39.203,cuing_paradigm_dot,2024.1.5,Win32,144.092219,68242c07d0c0e200c6451fdd,,,,,,,,,,,773.239,773.739,,,773.989,774.127,right,0.132,,,,,,,,,0.9,,,,,,773.739,773.989,774.127,775.225,,,,,,,,0,85,85,207,1
,,,,,,,5b09da13641b1200010eab05,682530beee0475fe95259f82,2025-05-14_20h10.39.203,cuing_paradigm_dot,2024.1.5,Win32,144.092219,68242c07d0c0e200c6451fdd,,,,,,,,,,,775.226,775.725,,,775.975,776.343,right,0.361,,,,,,,,,0.55,,,,,,775.725,775.975,776.343,777.44,,,,,,,,0,86,86,132,1
,,,,,,,5b09da13641b1200010eab05,682530beee0475fe95259f82,2025-05-14_20h10.39.203,cuing_paradigm_dot,2024.1.5,Win32,144.092219,68242c07d0c0e200c6451fdd,,,,,,,,,,,777.441,777.94,,,778.191,778.288,left,0.091,,,,,,,,,0.5,,,,,,777.94,778.191,778.288,779.385,,,,,,,,0,87,87,117,1
,,,,,,,5b09da13641b1200010eab05,682530beee0475fe95259f82,2025-05-14_20h10.39.203,cuing_paradigm_dot,2024.1.5,Win32,144.092219,68242c07d0c0e200c6451fdd,,,,,,,,,,,779.385,779.885,,,780.135,780.274,right,0.135,,,,,,,,,0.9,,,,,,779.885,780.135,780.274,781.371,,,,,,,,0,88,88,200,1
,,,,,,,5b09da13641b1200010eab05,682530beee0475fe95259f82,2025-05-14_20h10.39.203,cuing_paradigm_dot,2024.1.5,Win32,144.092219,68242c07d0c0e200c6451fdd,,,,,,,,,,,781.372,781.871,,,782.121,782.433,right,0.305,,,,,,,,,0.5,,,,,,781.871,782.121,782.433,783.531,,,,,,,,0,89,89,96,1
,,,,,,,5b09da13641b1200010eab05,682530beee0475fe95259f82,2025-05-14_20h10.39.203,cuing_paradigm_dot,2024.1.5,Win32,144.092219,68242c07d0c0e200c6451fdd,,,,,,,,,,,783.532,784.031,,,784.281,784.399,left,0.111,,,,,,,,,0.1,,,,,,784.031,784.281,784.399,785.496,,,,,,,,0,90,90,7,1
,,,,,,,5b09da13641b1200010eab05,682530beee0475fe95259f82,2025-05-14_20h10.39.203,cuing_paradigm_dot,2024.1.5,Win32,144.092219,68242c07d0c0e200c6451fdd,,,,,,,,,,,785.496,785.996,,,786.247,786.524,right,0.271,,,,,,,,,0.5,,,,,,785.996,786.246,786.524,787.621,,,,,,,,0,91,91,98,1
,,,,,,,5b09da13641b1200010eab05,682530beee0475fe95259f82,2025-05-14_20h10.39.203,cuing_paradigm_dot,2024.1.5,Win32,144.092219,68242c07d0c0e200c6451fdd,,,,,,,,,,,787.621,788.121,,,788.371,788.483,left,0.107,,,,,,,,,0.1,,,,,,788.121,788.371,788.483,789.58,,,,,,,,0,92,92,3,1
,,,,,,,5b09da13641b1200010eab05,682530beee0475fe95259f82,2025-05-14_20h10.39.203,cuing_paradigm_dot,2024.1.5,Win32,144.092219,68242c07d0c0e200c6451fdd,,,,,,,,,,,789.582,790.08,,,790.33,790.538,right,0.203,,,,,,,,,0.5,,,,,,790.08,790.33,790.538,791.635,,,,,,,,0,93,93,90,1
,,,,,,,5b09da13641b1200010eab05,682530beee0475fe95259f82,2025-05-14_20h10.39.203,cuing_paradigm_dot,2024.1.5,Win32,144.092219,68242c07d0c0e200c6451fdd,,,,,,,,,,,791.636,792.135,,,792.385,792.725,right,0.335,,,,,,,,,0.55,,,,,,792.135,792.385,792.725,793.823,,,,,,,,0,94,94,144,1
,,,,,,,5b09da13641b1200010eab05,682530beee0475fe95259f82,2025-05-14_20h10.39.203,cuing_paradigm_dot,2024.1.5,Win32,144.092219,68242c07d0c0e200c6451fdd,,,,,,,,,,,793.823,794.323,,,794.574,795.121,right,0.543,,,,,,,,,0.5,,,,,,794.323,794.574,795.121,796.218,,,,,,,,0,95,95,113,1
,,,,,,,5b09da13641b1200010eab05,682530beee0475fe95259f82,2025-05-14_20h10.39.203,cuing_paradigm_dot,2024.1.5,Win32,144.092219,68242c07d0c0e200c6451fdd,,,,,,,,,,,796.219,796.719,,,796.969,797.156,left,0.184,,,,,,,,,0.6,,,,,,796.719,796.969,797.156,798.253,,,,,,,,0,96,96,179,1
,,,,,,,5b09da13641b1200010eab05,682530beee0475fe95259f82,2025-05-14_20h10.39.203,cuing_paradigm_dot,2024.1.5,Win32,144.092219,68242c07d0c0e200c6451fdd,,,,,,,,,,,798.254,798.753,,,799.005,799.428,left,0.419,,,,,,,,,0.45,,,,,,798.753,799.005,799.428,800.525,,,,,,,,0,97,97,87,1
,,,,,,,5b09da13641b1200010eab05,682530beee0475fe95259f82,2025-05-14_20h10.39.203,cuing_paradigm_dot,2024.1.5,Win32,144.092219,68242c07d0c0e200c6451fdd,,,,,,,,,,,800.525,801.025,,,801.274,801.483,left,0.203,,,,,,,,,0.4,,,,,,801.025,801.274,801.483,802.58,,,,,,,,0,98,98,32,1
,,,,,,,5b09da13641b1200010eab05,682530beee0475fe95259f82,2025-05-14_20h10.39.203,cuing_paradigm_dot,2024.1.5,Win32,144.092219,68242c07d0c0e200c6451fdd,,,,,,,,,,,802.58,803.081,,,803.331,803.573,right,0.237,,,,,,,,,0.6,,,,,,803.081,803.331,803.573,804.67,,,,,,,,0,99,99,160,1
,,,,,,,5b09da13641b1200010eab05,682530beee0475fe95259f82,2025-05-14_20h10.39.203,cuing_paradigm_dot,2024.1.5,Win32,144.092219,68242c07d0c0e200c6451fdd,,,,,,,,,,,804.671,805.171,,,805.421,805.615,right,0.19,,,,,,,,,0.6,,,,,,805.171,805.421,805.615,806.712,,,,,,,,0,100,100,171,1
,,,,,,,5b09da13641b1200010eab05,682530beee0475fe95259f82,2025-05-14_20h10.39.203,cuing_paradigm_dot,2024.1.5,Win32,144.092219,68242c07d0c0e200c6451fdd,,,,,,,,,,,806.712,807.213,,,807.463,807.636,right,0.169,,,,,,,,,0.9,,,,,,807.213,807.462,807.636,808.733,,,,,,,,0,101,101,184,1
,,,,,,,5b09da13641b1200010eab05,682530beee0475fe95259f82,2025-05-14_20h10.39.203,cuing_paradigm_dot,2024.1.5,Win32,144.092219,68242c07d0c0e200c6451fdd,,,,,,,,,,,808.733,809.233,,,809.484,809.727,right,0.241,,,,,,,,,0.45,,,,,,809.233,809.484,809.727,810.824,,,,,,,,0,102,102,62,1
,,,,,,,5b09da13641b1200010eab05,682530beee0475fe95259f82,2025-05-14_20h10.39.203,cuing_paradigm_dot,2024.1.5,Win32,144.092219,68242c07d0c0e200c6451fdd,,,,,,,,,,,810.824,811.323,,,811.574,811.977,right,0.397,,,,,,,,,0.5,,,,,,811.323,811.574,811.977,813.074,,,,,,,,0,103,103,114,1
,,,,,,,5b09da13641b1200010eab05,682530beee0475fe95259f82,2025-05-14_20h10.39.203,cuing_paradigm_dot,2024.1.5,Win32,144.092219,68242c07d0c0e200c6451fdd,,,,,,,,,,,813.074,813.574,,,813.824,813.942,left,0.112,,,,,,,,,0.1,,,,,,813.574,813.824,813.942,815.039,,,,,,,,0,104,104,21,1
,,,,,,,5b09da13641b1200010eab05,682530beee0475fe95259f82,2025-05-14_20h10.39.203,cuing_paradigm_dot,2024.1.5,Win32,144.092219,68242c07d0c0e200c6451fdd,,,,,,,,,,,815.04,815.539,,,815.789,816.095,right,0.299,,,,,,,,,0.4,,,,,,815.539,815.789,816.095,817.191,,,,,,,,0,105,105,46,1
,,,,,,,5b09da13641b1200010eab05,682530beee0475fe95259f82,2025-05-14_20h10.39.203,cuing_paradigm_dot,2024.1.5,Win32,144.092219,68242c07d0c0e200c6451fdd,,,,,,,,,,,817.193,817.692,,,817.943,818.129,right,0.18,,,,,,,,,0.55,,,,,,817.692,817.943,818.129,819.227,,,,,,,,0,106,106,136,1
,,,,,,,5b09da13641b1200010eab05,682530beee0475fe95259f82,2025-05-14_20h10.39.203,cuing_paradigm_dot,2024.1.5,Win32,144.092219,68242c07d0c0e200c6451fdd,,,,,,,,,,,819.227,819.727,,,819.977,820.122,right,0.139,,,,,,,,,0.5,,,,,,819.727,819.977,820.122,821.221,,,,,,,,0,107,107,97,1
,,,,,,,5b09da13641b1200010eab05,682530beee0475fe95259f82,2025-05-14_20h10.39.203,cuing_paradigm_dot,2024.1.5,Win32,144.092219,68242c07d0c0e200c6451fdd,,,,,,,,,,,821.222,821.72,,,821.971,822.116,right,0.14,,,,,,,,,0.6,,,,,,821.72,821.97,822.116,823.212,,,,,,,,0,108,108,151,1
,,,,,,,5b09da13641b1200010eab05,682530beee0475fe95259f82,2025-05-14_20h10.39.203,cuing_paradigm_dot,2024.1.5,Win32,144.092219,68242c07d0c0e200c6451fdd,,,,,,,,,,,823.213,823.713,,,823.964,824.185,right,0.219,,,,,,,,,0.6,,,,,,823.714,823.964,824.185,825.282,,,,,,,,0,109,109,163,1
,,,,,,,5b09da13641b1200010eab05,682530beee0475fe95259f82,2025-05-14_20h10.39.203,cuing_paradigm_dot,2024.1.5,Win32,144.092219,68242c07d0c0e200c6451fdd,,,,,,,,,,,825.283,825.782,,,826.033,826.303,right,0.264,,,,,,,,,0.6,,,,,,825.782,826.033,826.303,827.401,,,,,,,,0,110,110,161,1
,,,,,,,5b09da13641b1200010eab05,682530beee0475fe95259f82,2025-05-14_20h10.39.203,cuing_paradigm_dot,2024.1.5,Win32,144.092219,68242c07d0c0e200c6451fdd,,,,,,,,,,,827.401,827.901,,,828.151,828.415,right,0.26,,,,,,,,,0.45,,,,,,827.901,828.151,828.415,829.512,,,,,,,,0,111,111,60,1
,,,,,,,5b09da13641b1200010eab05,682530beee0475fe95259f82,2025-05-14_20h10.39.203,cuing_paradigm_dot,2024.1.5,Win32,144.092219,68242c07d0c0e200c6451fdd,,,,,,,,,,,829.513,830.012,,,830.263,830.394,left,0.125,,,,,,,,,0.1,,,,,,830.012,830.263,830.394,831.491,,,,,,,,0,112,112,27,1
,,,,,,,5b09da13641b1200010eab05,682530beee0475fe95259f82,2025-05-14_20h10.39.203,cuing_paradigm_dot,2024.1.5,Win32,144.092219,68242c07d0c0e200c6451fdd,,,,,,,,,,,831.491,831.991,,,832.241,832.449,right,0.202,,,,,,,,,0.9,,,,,,831.991,832.241,832.449,833.547,,,,,,,,0,113,113,181,1
,,,,,,,5b09da13641b1200010eab05,682530beee0475fe95259f82,2025-05-14_20h10.39.203,cuing_paradigm_dot,2024.1.5,Win32,144.092219,68242c07d0c0e200c6451fdd,,,,,,,,,,,833.547,834.047,,,834.297,834.658,right,0.357,,,,,,,,,0.6,,,,,,834.047,834.297,834.658,835.756,,,,,,,,0,114,114,155,1
,,,,,,,5b09da13641b1200010eab05,682530beee0475fe95259f82,2025-05-14_20h10.39.203,cuing_paradigm_dot,2024.1.5,Win32,144.092219,68242c07d0c0e200c6451fdd,,,,,,,,,,,835.756,836.255,,,836.506,836.713,right,0.203,,,,,,,,,0.6,,,,,,836.255,836.506,836.714,837.81,,,,,,,,0,115,115,152,1
,,,,,,,5b09da13641b1200010eab05,682530beee0475fe95259f82,2025-05-14_20h10.39.203,cuing_paradigm_dot,2024.1.5,Win32,144.092219,68242c07d0c0e200c6451fdd,,,,,,,,,,,837.812,838.311,,,838.561,838.727,right,0.161,,,,,,,,,0.55,,,,,,838.311,838.561,838.727,839.824,,,,,,,,0,116,116,122,1
,,,,,,,5b09da13641b1200010eab05,682530beee0475fe95259f82,2025-05-14_20h10.39.203,cuing_paradigm_dot,2024.1.5,Win32,144.092219,68242c07d0c0e200c6451fdd,,,,,,,,,,,839.825,840.325,,,840.575,840.721,left,0.139,,,,,,,,,0.1,,,,,,840.325,840.575,840.721,841.818,,,,,,,,0,117,117,23,1
,,,,,,,5b09da13641b1200010eab05,682530beee0475fe95259f82,2025-05-14_20h10.39.203,cuing_paradigm_dot,2024.1.5,Win32,144.092219,68242c07d0c0e200c6451fdd,,,,,,,,,,,841.818,842.318,,,842.569,842.79,right,0.216,,,,,,,,,0.6,,,,,,842.318,842.569,842.79,843.887,,,,,,,,0,118,118,173,1
,,,,,,,5b09da13641b1200010eab05,682530beee0475fe95259f82,2025-05-14_20h10.39.203,cuing_paradigm_dot,2024.1.5,Win32,144.092219,68242c07d0c0e200c6451fdd,,,,,,,,,,,843.888,844.387,,,844.637,844.791,left,0.146,,,,,,,,,0.45,,,,,,844.387,844.637,844.791,845.887,,,,,,,,0,119,119,76,1
,,,,,,,5b09da13641b1200010eab05,682530beee0475fe95259f82,2025-05-14_20h10.39.203,cuing_paradigm_dot,2024.1.5,Win32,144.092219,68242c07d0c0e200c6451fdd,,,,,,,,,,,845.888,846.388,,,846.638,846.895,left,0.251,,,,,,,,,0.45,,,,,,846.388,846.638,846.895,847.992,,,,,,,,0,120,120,67,1
,,,,,,,5b09da13641b1200010eab05,682530beee0475fe95259f82,2025-05-14_20h10.39.203,cuing_paradigm_dot,2024.1.5,Win32,144.092219,68242c07d0c0e200c6451fdd,,,,,,,,,,,847.992,848.492,,,848.742,848.874,left,0.128,,,,,,,,,0.55,,,,,,848.492,848.742,848.874,849.971,,,,,,,,0,121,121,121,1
,,,,,,,5b09da13641b1200010eab05,682530beee0475fe95259f82,2025-05-14_20h10.39.203,cuing_paradigm_dot,2024.1.5,Win32,144.092219,68242c07d0c0e200c6451fdd,,,,,,,,,,,849.972,850.471,,,850.722,850.985,right,0.259,,,,,,,,,0.6,,,,,,850.471,850.722,850.985,852.082,,,,,,,,0,122,122,164,1
,,,,,,,5b09da13641b1200010eab05,682530beee0475fe95259f82,2025-05-14_20h10.39.203,cuing_paradigm_dot,2024.1.5,Win32,144.092219,68242c07d0c0e200c6451fdd,,,,,,,,,,,852.083,852.582,,,852.832,853.249,right,0.409,,,,,,,,,0.45,,,,,,852.582,852.832,853.249,854.347,,,,,,,,0,123,123,82,1
,,,,,,,5b09da13641b1200010eab05,682530beee0475fe95259f82,2025-05-14_20h10.39.203,cuing_paradigm_dot,2024.1.5,Win32,144.092219,68242c07d0c0e200c6451fdd,,,,,,,,,,,854.348,854.847,,,855.097,855.354,right,0.252,,,,,,,,,0.55,,,,,,854.847,855.097,855.354,856.451,,,,,,,,0,124,124,148,1
,,,,,,,5b09da13641b1200010eab05,682530beee0475fe95259f82,2025-05-14_20h10.39.203,cuing_paradigm_dot,2024.1.5,Win32,144.092219,68242c07d0c0e200c6451fdd,,,,,,,,,,,856.451,856.951,,,857.201,857.631,left,0.424,,,,,,,,,0.4,,,,,,856.951,857.201,857.631,858.728,,,,,,,,0,125,125,47,1
,,,,,,,5b09da13641b1200010eab05,682530beee0475fe95259f82,2025-05-14_20h10.39.203,cuing_paradigm_dot,2024.1.5,Win32,144.092219,68242c07d0c0e200c6451fdd,,,,,,,,,,,858.729,859.229,,,859.478,860.242,right,0.758,,,,,,,,,0.45,,,,,,859.229,859.478,860.242,861.34,,,,,,,,0,126,126,89,1
,,,,,,,5b09da13641b1200010eab05,682530beee0475fe95259f82,2025-05-14_20h10.39.203,cuing_paradigm_dot,2024.1.5,Win32,144.092219,68242c07d0c0e200c6451fdd,,,,,,,,,,,861.34,861.84,,,862.09,862.618,right,0.524,,,,,,,,,0.5,,,,,,861.84,862.09,862.618,863.715,,,,,,,,0,127,127,101,1
,,,,,,,5b09da13641b1200010eab05,682530beee0475fe95259f82,2025-05-14_20h10.39.203,cuing_paradigm_dot,2024.1.5,Win32,144.092219,68242c07d0c0e200c6451fdd,,,,,,,,,,,863.716,864.215,,,864.465,865.041,right,0.573,,,,,,,,,0.45,,,,,,864.215,864.465,865.041,866.138,,,,,,,,0,128,128,83,1
,,,,,,,5b09da13641b1200010eab05,682530beee0475fe95259f82,2025-05-14_20h10.39.203,cuing_paradigm_dot,2024.1.5,Win32,144.092219,68242c07d0c0e200c6451fdd,,,,,,,,,,,866.139,866.638,,,866.889,867.339,left,0.444,,,,,,,,,0.5,,,,,,866.638,866.889,867.34,868.438,,,,,,,,0,129,129,108,1
,,,,,,,5b09da13641b1200010eab05,682530beee0475fe95259f82,2025-05-14_20h10.39.203,cuing_paradigm_dot,2024.1.5,Win32,144.092219,68242c07d0c0e200c6451fdd,,,,,,,,,,,868.438,868.937,,,869.187,869.625,left,0.431,,,,,,,,,0.4,,,,,,868.937,869.187,869.625,870.722,,,,,,,,0,130,130,55,1
,,,,,,,5b09da13641b1200010eab05,682530beee0475fe95259f82,2025-05-14_20h10.39.203,cuing_paradigm_dot,2024.1.5,Win32,144.092219,68242c07d0c0e200c6451fdd,,,,,,,,,,,870.722,871.222,,,871.473,871.659,left,0.182,,,,,,,,,0.45,,,,,,871.222,871.473,871.659,872.757,,,,,,,,0,131,131,86,1
,,,,,,,5b09da13641b1200010eab05,682530beee0475fe95259f82,2025-05-14_20h10.39.203,cuing_paradigm_dot,2024.1.5,Win32,144.092219,68242c07d0c0e200c6451fdd,,,,,,,,,,,872.758,873.257,,,873.508,873.916,left,0.405,,,,,,,,,0.4,,,,,,873.257,873.508,873.916,875.014,,,,,,,,0,132,132,42,1
,,,,,,,5b09da13641b1200010eab05,682530beee0475fe95259f82,2025-05-14_20h10.39.203,cuing_paradigm_dot,2024.1.5,Win32,144.092219,68242c07d0c0e200c6451fdd,,,,,,,,,,,875.014,875.514,,,875.764,875.945,right,0.175,,,,,,,,,0.9,,,,,,875.514,875.764,875.945,877.042,,,,,,,,0,133,133,208,1
,,,,,,,5b09da13641b1200010eab05,682530beee0475fe95259f82,2025-05-14_20h10.39.203,cuing_paradigm_dot,2024.1.5,Win32,144.092219,68242c07d0c0e200c6451fdd,,,,,,,,,,,877.042,877.541,,,877.792,878.069,left,0.273,,,,,,,,,0.1,,,,,,877.542,877.792,878.069,879.167,,,,,,,,0,134,134,6,1
,,,,,,,5b09da13641b1200010eab05,682530beee0475fe95259f82,2025-05-14_20h10.39.203,cuing_paradigm_dot,2024.1.5,Win32,144.092219,68242c07d0c0e200c6451fdd,,,,,,,,,,,879.168,879.667,,,879.917,880.25,left,0.329,,,,,,,,,0.4,,,,,,879.667,879.917,880.25,881.347,,,,,,,,0,135,135,41,1
,,,,,,,5b09da13641b1200010eab05,682530beee0475fe95259f82,2025-05-14_20h10.39.203,cuing_paradigm_dot,2024.1.5,Win32,144.092219,68242c07d0c0e200c6451fdd,,,,,,,,,,,881.347,881.848,,,882.098,882.84,left,0.737,,,,,,,,,0.6,,,,,,881.848,882.098,882.84,883.938,,,,,,,,0,136,136,176,1
,,,,,,,5b09da13641b1200010eab05,682530beee0475fe95259f82,2025-05-14_20h10.39.203,cuing_paradigm_dot,2024.1.5,Win32,144.092219,68242c07d0c0e200c6451fdd,,,,,,,,,,,883.938,884.438,,,884.688,885.41,left,0.716,,,,,,,,,0.4,,,,,,884.438,884.688,885.41,886.507,,,,,,,,0,137,137,38,1
,,,,,,,5b09da13641b1200010eab05,682530beee0475fe95259f82,2025-05-14_20h10.39.203,cuing_paradigm_dot,2024.1.5,Win32,144.092219,68242c07d0c0e200c6451fdd,,,,,,,,,,,886.508,887.008,,,887.258,887.647,right,0.385,,,,,,,,,0.55,,,,,,887.008,887.257,887.647,888.743,,,,,,,,0,138,138,138,1
,,,,,,,5b09da13641b1200010eab05,682530beee0475fe95259f82,2025-05-14_20h10.39.203,cuing_paradigm_dot,2024.1.5,Win32,144.092219,68242c07d0c0e200c6451fdd,,,,,,,,,,,888.745,889.243,,,889.494,889.771,right,0.271,,,,,,,,,0.6,,,,,,889.243,889.494,889.771,890.869,,,,,,,,0,139,139,168,1
,,,,,,,5b09da13641b1200010eab05,682530beee0475fe95259f82,2025-05-14_20h10.39.203,cuing_paradigm_dot,2024.1.5,Win32,144.092219,68242c07d0c0e200c6451fdd,,,,,,,,,,,890.87,891.369,,,891.619,891.806,left,0.182,,,,,,,,,0.1,,,,,,891.369,891.619,891.806,892.904,,,,,,,,0,140,140,17,1
,,,,,,,5b09da13641b1200010eab05,682530beee0475fe95259f82,2025-05-14_20h10.39.203,cuing_paradigm_dot,2024.1.5,Win32,144.092219,68242c07d0c0e200c6451fdd,,,,,,,,,,,892.904,893.403,,,893.654,893.841,left,0.183,,,,,,,,,0.4,,,,,,893.403,893.654,893.841,894.938,,,,,,,,0,141,141,33,1
