right,left,explain.started,explain.stopped,key_resp_3.keys,key_resp_3.rt,key_resp_3.duration,participant,session,date,expName,psychopyVersion,OS,frameRate,study_id,explain_2.started,explain_2.stopped,key_resp_4.keys,key_resp_4.rt,key_resp_4.duration,explain_3.started,explain_3.stopped,key_resp_5.keys,key_resp_5.rt,key_resp_5.duration,fixation.started,fixation.stopped,practice.started,practice.stopped,response.started,response.stopped,key_resp.keys,key_resp.rt,key_resp.duration,feedback.started,feedback.stopped,trials_2.thisRepN,trials_2.thisTrialN,trials_2.thisN,trials_2.thisIndex,trials_2.ran,white_ratio,explain_4.started,explain_4.stopped,key_resp_6.keys,key_resp_6.rt,key_resp_6.duration,dotDisplay.started,dotDisplay.stopped,ITI.started,ITI.stopped,trials.thisRepN,trials.thisTrialN,trials.thisN,trials.thisIndex,trials.ran,break_2.started,break_2.stopped,trials_3.thisRepN,trials_3.thisTrialN,trials_3.thisN,trials_3.thisIndex,trials_3.ran
subject chose white,subject chose black,0.0007,70.7665,space,55.7348,,65fb11fa63f6a4a129409026,6825337ab3c15539f08dd1b7,2025-05-15_03h25.04.608,cuing_paradigm_dot,2024.1.5,Win32,60.24096386,68242c07d0c0e200c6451fdd,,,,,,,,,,,,,,,,,,,,,,,,,,,,,,,,,,,,,,,,,,,,,,,,
,,,,,,,65fb11fa63f6a4a129409026,6825337ab3c15539f08dd1b7,2025-05-15_03h25.04.608,cuing_paradigm_dot,2024.1.5,Win32,60.24096386,68242c07d0c0e200c6451fdd,70.7676,169.8739,space,69.0897,,,,,,,,,,,,,,,,,,,,,,,,,,,,,,,,,,,,,,,,,,,,
,,,,,,,65fb11fa63f6a4a129409026,6825337ab3c15539f08dd1b7,2025-05-15_03h25.04.608,cuing_paradigm_dot,2024.1.5,Win32,60.24096386,68242c07d0c0e200c6451fdd,,,,,,169.8747,175.1639,space,2.2703,,,,,,,,,,,,,,,,,,,,,,,,,,,,,,,,,,,,,,,
,,,,,,,65fb11fa63f6a4a129409026,6825337ab3c15539f08dd1b7,2025-05-15_03h25.04.608,cuing_paradigm_dot,2024.1.5,Win32,60.24096386,68242c07d0c0e200c6451fdd,,,,,,,,,,,175.2456,175.676,175.6772,175.9226,175.9231,177.2789,right,1.2656,,177.2797,178.379,0,0,0,0,1,0.8,,,,,,,,,,,,,,,,,,,,,
,,,,,,,65fb11fa63f6a4a129409026,6825337ab3c15539f08dd1b7,2025-05-15_03h25.04.608,cuing_paradigm_dot,2024.1.5,Win32,60.24096386,68242c07d0c0e200c6451fdd,,,,,,,,,,,178.3816,178.8788,178.879,179.1296,179.1297,179.9128,left,0.7699,,179.9132,181.0134,0,1,1,1,1,0.2,,,,,,,,,,,,,,,,,,,,,
,,,,,,,65fb11fa63f6a4a129409026,6825337ab3c15539f08dd1b7,2025-05-15_03h25.04.608,cuing_paradigm_dot,2024.1.5,Win32,60.24096386,68242c07d0c0e200c6451fdd,,,,,,,,,,,,,,,,,,,,,,,,,,,,181.0147,187.7881,space,3.7569,,,,,,,,,,,,,,,,,
,,,,,,,65fb11fa63f6a4a129409026,6825337ab3c15539f08dd1b7,2025-05-15_03h25.04.608,cuing_paradigm_dot,2024.1.5,Win32,60.24096386,68242c07d0c0e200c6451fdd,,,,,,,,,,,187.8708,188.3028,,,188.548,189.4059,left,0.837,,,,,,,,,0.1,,,,,,188.3041,188.5479,189.4071,190.5053,0,0,0,3,1,,,,,,,
,,,,,,,65fb11fa63f6a4a129409026,6825337ab3c15539f08dd1b7,2025-05-15_03h25.04.608,cuing_paradigm_dot,2024.1.5,Win32,60.24096386,68242c07d0c0e200c6451fdd,,,,,,,,,,,190.508,191.0052,,,191.2507,192.5153,right,1.2481,,,,,,,,,0.6,,,,,,191.0054,191.2505,192.5155,193.6075,0,1,1,156,1,,,,,,,
,,,,,,,65fb11fa63f6a4a129409026,6825337ab3c15539f08dd1b7,2025-05-15_03h25.04.608,cuing_paradigm_dot,2024.1.5,Win32,60.24096386,68242c07d0c0e200c6451fdd,,,,,,,,,,,193.6093,194.1012,,,194.3401,195.5278,left,1.171,,,,,,,,,0.4,,,,,,194.1013,194.3399,195.528,196.6267,0,2,2,42,1,,,,,,,
,,,,,,,65fb11fa63f6a4a129409026,6825337ab3c15539f08dd1b7,2025-05-15_03h25.04.608,cuing_paradigm_dot,2024.1.5,Win32,60.24096386,68242c07d0c0e200c6451fdd,,,,,,,,,,,196.6287,197.1209,,,197.3611,198.612,right,1.2343,,,,,,,,,0.5,,,,,,197.1211,197.3609,198.6122,199.7023,0,3,3,100,1,,,,,,,
,,,,,,,65fb11fa63f6a4a129409026,6825337ab3c15539f08dd1b7,2025-05-15_03h25.04.608,cuing_paradigm_dot,2024.1.5,Win32,60.24096386,68242c07d0c0e200c6451fdd,,,,,,,,,,,199.7052,200.2024,,,200.4471,201.3973,right,0.9366,,,,,,,,,0.9,,,,,,200.2027,200.4469,201.3975,202.4979,0,4,4,194,1,,,,,,,
,,,,,,,65fb11fa63f6a4a129409026,6825337ab3c15539f08dd1b7,2025-05-15_03h25.04.608,cuing_paradigm_dot,2024.1.5,Win32,60.24096386,68242c07d0c0e200c6451fdd,,,,,,,,,,,202.499,202.9986,,,203.245,204.2178,right,0.9531,,,,,,,,,0.55,,,,,,202.9986,203.245,204.2181,205.3171,0,5,5,129,1,,,,,,,
,,,,,,,65fb11fa63f6a4a129409026,6825337ab3c15539f08dd1b7,2025-05-15_03h25.04.608,cuing_paradigm_dot,2024.1.5,Win32,60.24096386,68242c07d0c0e200c6451fdd,,,,,,,,,,,205.3189,205.8174,,,206.0736,207.3527,right,1.2633,,,,,,,,,0.45,,,,,,205.8177,206.0736,207.3527,208.4528,0,6,6,70,1,,,,,,,
,,,,,,,65fb11fa63f6a4a129409026,6825337ab3c15539f08dd1b7,2025-05-15_03h25.04.608,cuing_paradigm_dot,2024.1.5,Win32,60.24096386,68242c07d0c0e200c6451fdd,,,,,,,,,,,208.4539,208.9533,,,209.1989,209.9212,left,0.7027,,,,,,,,,0.1,,,,,,208.9534,209.1987,209.9219,211.0228,0,7,7,27,1,,,,,,,
,,,,,,,65fb11fa63f6a4a129409026,6825337ab3c15539f08dd1b7,2025-05-15_03h25.04.608,cuing_paradigm_dot,2024.1.5,Win32,60.24096386,68242c07d0c0e200c6451fdd,,,,,,,,,,,211.0246,211.5223,,,211.774,213.2742,,,,,,,,,,,0.4,,,,,,211.5225,211.7738,213.2743,214.3743,0,8,8,44,1,,,,,,,
,,,,,,,65fb11fa63f6a4a129409026,6825337ab3c15539f08dd1b7,2025-05-15_03h25.04.608,cuing_paradigm_dot,2024.1.5,Win32,60.24096386,68242c07d0c0e200c6451fdd,,,,,,,,,,,214.3755,214.8745,,,215.1257,215.9423,right,0.7997,,,,,,,,,0.9,,,,,,214.8746,215.1257,215.9427,217.043,0,9,9,204,1,,,,,,,
,,,,,,,65fb11fa63f6a4a129409026,6825337ab3c15539f08dd1b7,2025-05-15_03h25.04.608,cuing_paradigm_dot,2024.1.5,Win32,60.24096386,68242c07d0c0e200c6451fdd,,,,,,,,,,,217.0442,217.5435,,,217.8055,218.6953,right,0.8723,,,,,,,,,0.9,,,,,,217.5435,217.8054,218.6956,219.7955,0,10,10,185,1,,,,,,,
,,,,,,,65fb11fa63f6a4a129409026,6825337ab3c15539f08dd1b7,2025-05-15_03h25.04.608,cuing_paradigm_dot,2024.1.5,Win32,60.24096386,68242c07d0c0e200c6451fdd,,,,,,,,,,,219.7974,220.2966,,,220.5587,221.1862,left,0.6121,,,,,,,,,0.1,,,,,,220.2966,220.5586,221.1862,222.2925,0,11,11,25,1,,,,,,,
,,,,,,,65fb11fa63f6a4a129409026,6825337ab3c15539f08dd1b7,2025-05-15_03h25.04.608,cuing_paradigm_dot,2024.1.5,Win32,60.24096386,68242c07d0c0e200c6451fdd,,,,,,,,,,,222.2935,222.7859,,,223.0325,224.5288,,,,,,,,,,,0.5,,,,,,222.786,223.0324,224.5288,225.6274,0,12,12,97,1,,,,,,,
,,,,,,,65fb11fa63f6a4a129409026,6825337ab3c15539f08dd1b7,2025-05-15_03h25.04.608,cuing_paradigm_dot,2024.1.5,Win32,60.24096386,68242c07d0c0e200c6451fdd,,,,,,,,,,,225.6292,226.1178,,,226.3637,226.8815,right,0.502,,,,,,,,,0.9,,,,,,226.1179,226.3636,226.8816,227.97,0,13,13,199,1,,,,,,,
,,,,,,,65fb11fa63f6a4a129409026,6825337ab3c15539f08dd1b7,2025-05-15_03h25.04.608,cuing_paradigm_dot,2024.1.5,Win32,60.24096386,68242c07d0c0e200c6451fdd,,,,,,,,,,,227.9722,228.47,,,228.7205,229.5215,right,0.7872,,,,,,,,,0.55,,,,,,228.4701,228.7203,229.5219,230.6228,0,14,14,146,1,,,,,,,
,,,,,,,65fb11fa63f6a4a129409026,6825337ab3c15539f08dd1b7,2025-05-15_03h25.04.608,cuing_paradigm_dot,2024.1.5,Win32,60.24096386,68242c07d0c0e200c6451fdd,,,,,,,,,,,230.6247,231.1231,,,231.3637,232.3452,left,0.962,,,,,,,,,0.45,,,,,,231.1234,231.3634,232.3453,233.4446,0,15,15,87,1,,,,,,,
,,,,,,,65fb11fa63f6a4a129409026,6825337ab3c15539f08dd1b7,2025-05-15_03h25.04.608,cuing_paradigm_dot,2024.1.5,Win32,60.24096386,68242c07d0c0e200c6451fdd,,,,,,,,,,,233.4456,233.9405,,,234.1915,235.0175,right,0.8116,,,,,,,,,0.55,,,,,,233.9408,234.1914,235.0176,236.112,0,16,16,136,1,,,,,,,
,,,,,,,65fb11fa63f6a4a129409026,6825337ab3c15539f08dd1b7,2025-05-15_03h25.04.608,cuing_paradigm_dot,2024.1.5,Win32,60.24096386,68242c07d0c0e200c6451fdd,,,,,,,,,,,236.1144,236.6095,,,236.8557,237.5961,right,0.7239,,,,,,,,,0.55,,,,,,236.6099,236.8556,237.5963,238.6965,0,17,17,144,1,,,,,,,
,,,,,,,65fb11fa63f6a4a129409026,6825337ab3c15539f08dd1b7,2025-05-15_03h25.04.608,cuing_paradigm_dot,2024.1.5,Win32,60.24096386,68242c07d0c0e200c6451fdd,,,,,,,,,,,238.6981,239.195,,,239.4463,240.6298,right,1.1685,,,,,,,,,0.4,,,,,,239.1951,239.4461,240.63,241.7301,0,18,18,45,1,,,,,,,
,,,,,,,65fb11fa63f6a4a129409026,6825337ab3c15539f08dd1b7,2025-05-15_03h25.04.608,cuing_paradigm_dot,2024.1.5,Win32,60.24096386,68242c07d0c0e200c6451fdd,,,,,,,,,,,241.731,242.2307,,,242.4763,243.4658,right,0.9704,,,,,,,,,0.55,,,,,,242.2307,242.4762,243.4662,244.554,0,19,19,148,1,,,,,,,
,,,,,,,65fb11fa63f6a4a129409026,6825337ab3c15539f08dd1b7,2025-05-15_03h25.04.608,cuing_paradigm_dot,2024.1.5,Win32,60.24096386,68242c07d0c0e200c6451fdd,,,,,,,,,,,244.5555,245.0498,,,245.2947,246.3345,right,1.0191,,,,,,,,,0.5,,,,,,245.0499,245.2945,246.3346,247.435,0,20,20,106,1,,,,,,,
,,,,,,,65fb11fa63f6a4a129409026,6825337ab3c15539f08dd1b7,2025-05-15_03h25.04.608,cuing_paradigm_dot,2024.1.5,Win32,60.24096386,68242c07d0c0e200c6451fdd,,,,,,,,,,,247.4368,247.9354,,,248.1803,248.8538,right,0.6529,,,,,,,,,0.9,,,,,,247.9355,248.1801,248.8541,249.9537,0,21,21,201,1,,,,,,,
,,,,,,,65fb11fa63f6a4a129409026,6825337ab3c15539f08dd1b7,2025-05-15_03h25.04.608,cuing_paradigm_dot,2024.1.5,Win32,60.24096386,68242c07d0c0e200c6451fdd,,,,,,,,,,,249.9553,250.4543,,,250.6974,251.2011,left,0.4849,,,,,,,,,0.1,,,,,,250.4545,250.6973,251.2013,252.2891,0,22,22,18,1,,,,,,,
,,,,,,,65fb11fa63f6a4a129409026,6825337ab3c15539f08dd1b7,2025-05-15_03h25.04.608,cuing_paradigm_dot,2024.1.5,Win32,60.24096386,68242c07d0c0e200c6451fdd,,,,,,,,,,,252.2916,252.7895,,,253.0406,253.9575,right,0.9016,,,,,,,,,0.6,,,,,,252.7898,253.0404,253.9577,255.0583,0,23,23,178,1,,,,,,,
,,,,,,,65fb11fa63f6a4a129409026,6825337ab3c15539f08dd1b7,2025-05-15_03h25.04.608,cuing_paradigm_dot,2024.1.5,Win32,60.24096386,68242c07d0c0e200c6451fdd,,,,,,,,,,,255.0599,255.5584,,,255.8044,257.2125,left,1.3861,,,,,,,,,0.6,,,,,,255.5586,255.8043,257.2127,258.3205,0,24,24,164,1,,,,,,,
,,,,,,,65fb11fa63f6a4a129409026,6825337ab3c15539f08dd1b7,2025-05-15_03h25.04.608,cuing_paradigm_dot,2024.1.5,Win32,60.24096386,68242c07d0c0e200c6451fdd,,,,,,,,,,,258.3215,258.811,,,259.0549,260.1651,left,1.0921,,,,,,,,,0.45,,,,,,258.8112,259.0548,260.1654,261.2633,0,25,25,61,1,,,,,,,
,,,,,,,65fb11fa63f6a4a129409026,6825337ab3c15539f08dd1b7,2025-05-15_03h25.04.608,cuing_paradigm_dot,2024.1.5,Win32,60.24096386,68242c07d0c0e200c6451fdd,,,,,,,,,,,261.2647,261.7636,,,262.0084,262.9151,right,0.8867,,,,,,,,,0.5,,,,,,261.7637,262.0084,262.9153,264.0153,0,26,26,92,1,,,,,,,
,,,,,,,65fb11fa63f6a4a129409026,6825337ab3c15539f08dd1b7,2025-05-15_03h25.04.608,cuing_paradigm_dot,2024.1.5,Win32,60.24096386,68242c07d0c0e200c6451fdd,,,,,,,,,,,264.0168,264.5157,,,264.7595,265.367,left,0.5855,,,,,,,,,0.1,,,,,,264.5159,264.7594,265.367,266.4676,0,27,27,16,1,,,,,,,
,,,,,,,65fb11fa63f6a4a129409026,6825337ab3c15539f08dd1b7,2025-05-15_03h25.04.608,cuing_paradigm_dot,2024.1.5,Win32,60.24096386,68242c07d0c0e200c6451fdd,,,,,,,,,,,266.4692,266.968,,,267.2146,268.0525,left,0.8206,,,,,,,,,0.55,,,,,,266.9681,267.2144,268.0528,269.1532,0,28,28,137,1,,,,,,,
,,,,,,,65fb11fa63f6a4a129409026,6825337ab3c15539f08dd1b7,2025-05-15_03h25.04.608,cuing_paradigm_dot,2024.1.5,Win32,60.24096386,68242c07d0c0e200c6451fdd,,,,,,,,,,,269.1552,269.6533,,,269.9042,270.7211,left,0.7993,,,,,,,,,0.45,,,,,,269.6534,269.9042,270.7216,271.8215,0,29,29,88,1,,,,,,,
,,,,,,,65fb11fa63f6a4a129409026,6825337ab3c15539f08dd1b7,2025-05-15_03h25.04.608,cuing_paradigm_dot,2024.1.5,Win32,60.24096386,68242c07d0c0e200c6451fdd,,,,,,,,,,,271.8223,272.3222,,,272.573,273.2562,right,0.6684,,,,,,,,,0.55,,,,,,272.3223,272.5729,273.2563,274.3569,0,30,30,128,1,,,,,,,
,,,,,,,65fb11fa63f6a4a129409026,6825337ab3c15539f08dd1b7,2025-05-15_03h25.04.608,cuing_paradigm_dot,2024.1.5,Win32,60.24096386,68242c07d0c0e200c6451fdd,,,,,,,,,,,274.3579,274.8574,,,275.0974,276.0431,left,0.9197,,,,,,,,,0.4,,,,,,274.8575,275.0973,276.0434,277.1428,0,31,31,57,1,,,,,,,
,,,,,,,65fb11fa63f6a4a129409026,6825337ab3c15539f08dd1b7,2025-05-15_03h25.04.608,cuing_paradigm_dot,2024.1.5,Win32,60.24096386,68242c07d0c0e200c6451fdd,,,,,,,,,,,277.1441,277.6433,,,277.8883,278.7113,left,0.8023,,,,,,,,,0.55,,,,,,277.6434,277.8882,278.7118,279.8118,0,32,32,120,1,,,,,,,
,,,,,,,65fb11fa63f6a4a129409026,6825337ab3c15539f08dd1b7,2025-05-15_03h25.04.608,cuing_paradigm_dot,2024.1.5,Win32,60.24096386,68242c07d0c0e200c6451fdd,,,,,,,,,,,279.8138,280.3122,,,280.558,281.4427,left,0.8688,,,,,,,,,0.5,,,,,,280.3124,280.5579,281.4428,282.5309,0,33,33,111,1,,,,,,,
,,,,,,,65fb11fa63f6a4a129409026,6825337ab3c15539f08dd1b7,2025-05-15_03h25.04.608,cuing_paradigm_dot,2024.1.5,Win32,60.24096386,68242c07d0c0e200c6451fdd,,,,,,,,,,,282.5321,283.031,,,283.2737,284.2117,left,0.9188,,,,,,,,,0.5,,,,,,283.0312,283.2735,284.2118,285.2998,0,34,34,114,1,,,,,,,
,,,,,,,65fb11fa63f6a4a129409026,6825337ab3c15539f08dd1b7,2025-05-15_03h25.04.608,cuing_paradigm_dot,2024.1.5,Win32,60.24096386,68242c07d0c0e200c6451fdd,,,,,,,,,,,285.3013,285.8001,,,286.0524,286.6845,right,0.6142,,,,,,,,,0.9,,,,,,285.8002,286.0523,286.6847,287.7849,0,35,35,189,1,,,,,,,
,,,,,,,65fb11fa63f6a4a129409026,6825337ab3c15539f08dd1b7,2025-05-15_03h25.04.608,cuing_paradigm_dot,2024.1.5,Win32,60.24096386,68242c07d0c0e200c6451fdd,,,,,,,,,,,287.786,288.2854,,,288.536,289.0861,left,0.5312,,,,,,,,,0.1,,,,,,288.2855,288.5359,289.0863,290.1867,0,36,36,17,1,,,,,,,
,,,,,,,65fb11fa63f6a4a129409026,6825337ab3c15539f08dd1b7,2025-05-15_03h25.04.608,cuing_paradigm_dot,2024.1.5,Win32,60.24096386,68242c07d0c0e200c6451fdd,,,,,,,,,,,290.1876,290.6871,,,290.9271,291.5552,left,0.6019,,,,,,,,,0.1,,,,,,290.6872,290.927,291.5555,292.6557,0,37,37,9,1,,,,,,,
,,,,,,,65fb11fa63f6a4a129409026,6825337ab3c15539f08dd1b7,2025-05-15_03h25.04.608,cuing_paradigm_dot,2024.1.5,Win32,60.24096386,68242c07d0c0e200c6451fdd,,,,,,,,,,,292.6571,293.1559,,,293.4013,294.1083,right,0.6858,,,,,,,,,0.55,,,,,,293.156,293.4013,294.1087,295.2079,0,38,38,134,1,,,,,,,
,,,,,,,65fb11fa63f6a4a129409026,6825337ab3c15539f08dd1b7,2025-05-15_03h25.04.608,cuing_paradigm_dot,2024.1.5,Win32,60.24096386,68242c07d0c0e200c6451fdd,,,,,,,,,,,295.21,295.7082,,,295.9501,296.8935,right,0.9199,,,,,,,,,0.55,,,,,,295.7083,295.9499,296.8938,297.9933,0,39,39,124,1,,,,,,,
,,,,,,,65fb11fa63f6a4a129409026,6825337ab3c15539f08dd1b7,2025-05-15_03h25.04.608,cuing_paradigm_dot,2024.1.5,Win32,60.24096386,68242c07d0c0e200c6451fdd,,,,,,,,,,,297.9947,298.4939,,,298.745,299.6458,left,0.8823,,,,,,,,,0.4,,,,,,298.494,298.7448,299.6459,300.7455,0,40,40,59,1,,,,,,,
,,,,,,,65fb11fa63f6a4a129409026,6825337ab3c15539f08dd1b7,2025-05-15_03h25.04.608,cuing_paradigm_dot,2024.1.5,Win32,60.24096386,68242c07d0c0e200c6451fdd,,,,,,,,,,,300.7466,301.2458,,,301.4968,302.1137,left,0.6017,,,,,,,,,0.1,,,,,,301.2459,301.4968,302.1138,303.2142,0,41,41,26,1,,,,,,,
,,,,,,,65fb11fa63f6a4a129409026,6825337ab3c15539f08dd1b7,2025-05-15_03h25.04.608,cuing_paradigm_dot,2024.1.5,Win32,60.24096386,68242c07d0c0e200c6451fdd,,,,,,,,,,,303.2152,303.7147,,,303.9659,304.5492,left,0.5704,,,,,,,,,0.4,,,,,,303.7147,303.9658,304.5493,305.6495,0,42,42,58,1,,,,,,,
,,,,,,,65fb11fa63f6a4a129409026,6825337ab3c15539f08dd1b7,2025-05-15_03h25.04.608,cuing_paradigm_dot,2024.1.5,Win32,60.24096386,68242c07d0c0e200c6451fdd,,,,,,,,,,,305.6507,306.1499,,,306.3955,307.0846,right,0.6693,,,,,,,,,0.9,,,,,,306.1499,306.3954,307.0847,308.1851,0,43,43,191,1,,,,,,,
,,,,,,,65fb11fa63f6a4a129409026,6825337ab3c15539f08dd1b7,2025-05-15_03h25.04.608,cuing_paradigm_dot,2024.1.5,Win32,60.24096386,68242c07d0c0e200c6451fdd,,,,,,,,,,,308.1863,308.6969,,,308.9363,309.97,right,1.0152,,,,,,,,,0.4,,,,,,308.697,308.9362,309.9701,311.0707,0,44,44,56,1,,,,,,,
,,,,,,,65fb11fa63f6a4a129409026,6825337ab3c15539f08dd1b7,2025-05-15_03h25.04.608,cuing_paradigm_dot,2024.1.5,Win32,60.24096386,68242c07d0c0e200c6451fdd,,,,,,,,,,,311.0718,311.5713,,,311.8101,313.1397,left,1.304,,,,,,,,,0.6,,,,,,311.5713,311.81,313.1398,314.2405,0,45,45,173,1,,,,,,,
,,,,,,,65fb11fa63f6a4a129409026,6825337ab3c15539f08dd1b7,2025-05-15_03h25.04.608,cuing_paradigm_dot,2024.1.5,Win32,60.24096386,68242c07d0c0e200c6451fdd,,,,,,,,,,,314.2418,314.7412,,,314.9848,315.625,right,0.6195,,,,,,,,,0.9,,,,,,314.7414,314.9848,315.6253,316.7254,0,46,46,192,1,,,,,,,
,,,,,,,65fb11fa63f6a4a129409026,6825337ab3c15539f08dd1b7,2025-05-15_03h25.04.608,cuing_paradigm_dot,2024.1.5,Win32,60.24096386,68242c07d0c0e200c6451fdd,,,,,,,,,,,316.7269,317.2263,,,317.4653,318.0064,left,0.5189,,,,,,,,,0.1,,,,,,317.2264,317.4652,318.0065,319.111,0,47,47,6,1,,,,,,,
,,,,,,,65fb11fa63f6a4a129409026,6825337ab3c15539f08dd1b7,2025-05-15_03h25.04.608,cuing_paradigm_dot,2024.1.5,Win32,60.24096386,68242c07d0c0e200c6451fdd,,,,,,,,,,,319.1124,319.6057,,,319.8547,321.1462,left,1.2699,,,,,,,,,0.55,,,,,,319.6057,319.8546,321.1463,322.2468,0,48,48,133,1,,,,,,,
,,,,,,,65fb11fa63f6a4a129409026,6825337ab3c15539f08dd1b7,2025-05-15_03h25.04.608,cuing_paradigm_dot,2024.1.5,Win32,60.24096386,68242c07d0c0e200c6451fdd,,,,,,,,,,,322.2486,322.7473,,,322.9978,324.0155,right,1.0039,,,,,,,,,0.4,,,,,,322.7474,322.9978,324.0156,325.1156,0,49,49,36,1,,,,,,,
,,,,,,,65fb11fa63f6a4a129409026,6825337ab3c15539f08dd1b7,2025-05-15_03h25.04.608,cuing_paradigm_dot,2024.1.5,Win32,60.24096386,68242c07d0c0e200c6451fdd,,,,,,,,,,,325.1165,325.6159,,,325.858,326.8508,left,0.9715,,,,,,,,,0.45,,,,,,325.616,325.8578,326.8509,327.9515,0,50,50,66,1,,,,,,,
,,,,,,,65fb11fa63f6a4a129409026,6825337ab3c15539f08dd1b7,2025-05-15_03h25.04.608,cuing_paradigm_dot,2024.1.5,Win32,60.24096386,68242c07d0c0e200c6451fdd,,,,,,,,,,,327.9529,328.4517,,,328.6976,329.5698,left,0.8525,,,,,,,,,0.5,,,,,,328.4519,328.6976,329.57,330.6704,0,51,51,108,1,,,,,,,
,,,,,,,65fb11fa63f6a4a129409026,6825337ab3c15539f08dd1b7,2025-05-15_03h25.04.608,cuing_paradigm_dot,2024.1.5,Win32,60.24096386,68242c07d0c0e200c6451fdd,,,,,,,,,,,330.6718,331.1707,,,331.4133,332.5562,left,1.1271,,,,,,,,,0.6,,,,,,331.1708,331.4131,332.5566,333.6561,0,52,52,153,1,,,,,,,
,,,,,,,65fb11fa63f6a4a129409026,6825337ab3c15539f08dd1b7,2025-05-15_03h25.04.608,cuing_paradigm_dot,2024.1.5,Win32,60.24096386,68242c07d0c0e200c6451fdd,,,,,,,,,,,333.6576,334.1567,,,334.4018,335.0912,right,0.6697,,,,,,,,,0.9,,,,,,334.1568,334.4016,335.0914,336.1916,0,53,53,207,1,,,,,,,
,,,,,,,65fb11fa63f6a4a129409026,6825337ab3c15539f08dd1b7,2025-05-15_03h25.04.608,cuing_paradigm_dot,2024.1.5,Win32,60.24096386,68242c07d0c0e200c6451fdd,,,,,,,,,,,336.1933,336.6922,,,336.9368,337.8101,right,0.8532,,,,,,,,,0.5,,,,,,336.6924,336.9368,337.8104,338.9107,0,54,54,109,1,,,,,,,
,,,,,,,65fb11fa63f6a4a129409026,6825337ab3c15539f08dd1b7,2025-05-15_03h25.04.608,cuing_paradigm_dot,2024.1.5,Win32,60.24096386,68242c07d0c0e200c6451fdd,,,,,,,,,,,338.9126,339.4109,,,339.657,340.5456,right,0.8693,,,,,,,,,0.5,,,,,,339.4112,339.6569,340.5458,341.6461,0,55,55,115,1,,,,,,,
,,,,,,,65fb11fa63f6a4a129409026,6825337ab3c15539f08dd1b7,2025-05-15_03h25.04.608,cuing_paradigm_dot,2024.1.5,Win32,60.24096386,68242c07d0c0e200c6451fdd,,,,,,,,,,,341.6476,342.1463,,,342.3926,343.1343,left,0.7246,,,,,,,,,0.1,,,,,,342.1463,342.3925,343.1345,344.2315,0,56,56,5,1,,,,,,,
,,,,,,,65fb11fa63f6a4a129409026,6825337ab3c15539f08dd1b7,2025-05-15_03h25.04.608,cuing_paradigm_dot,2024.1.5,Win32,60.24096386,68242c07d0c0e200c6451fdd,,,,,,,,,,,344.233,344.732,,,344.9776,346.1167,left,1.1203,,,,,,,,,0.5,,,,,,344.7321,344.9775,346.1168,347.2172,0,57,57,90,1,,,,,,,
,,,,,,,65fb11fa63f6a4a129409026,6825337ab3c15539f08dd1b7,2025-05-15_03h25.04.608,cuing_paradigm_dot,2024.1.5,Win32,60.24096386,68242c07d0c0e200c6451fdd,,,,,,,,,,,347.2186,347.7179,,,347.9639,348.5521,right,0.5709,,,,,,,,,0.9,,,,,,347.7181,347.9638,348.5522,349.6527,0,58,58,188,1,,,,,,,
,,,,,,,65fb11fa63f6a4a129409026,6825337ab3c15539f08dd1b7,2025-05-15_03h25.04.608,cuing_paradigm_dot,2024.1.5,Win32,60.24096386,68242c07d0c0e200c6451fdd,,,,,,,,,,,349.6547,350.1531,,,350.4039,351.0541,left,0.6327,,,,,,,,,0.1,,,,,,350.1532,350.4038,351.0543,352.1545,0,59,59,15,1,,,,,,,
,,,,,,,65fb11fa63f6a4a129409026,6825337ab3c15539f08dd1b7,2025-05-15_03h25.04.608,cuing_paradigm_dot,2024.1.5,Win32,60.24096386,68242c07d0c0e200c6451fdd,,,,,,,,,,,352.1555,352.6548,,,352.9012,354.2242,right,1.3027,,,,,,,,,0.4,,,,,,352.655,352.901,354.2244,355.3124,0,60,60,53,1,,,,,,,
,,,,,,,65fb11fa63f6a4a129409026,6825337ab3c15539f08dd1b7,2025-05-15_03h25.04.608,cuing_paradigm_dot,2024.1.5,Win32,60.24096386,68242c07d0c0e200c6451fdd,,,,,,,,,,,355.3141,355.8124,,,356.0528,356.8786,right,0.8081,,,,,,,,,0.6,,,,,,355.8125,356.0527,356.8787,357.9765,0,61,61,160,1,,,,,,,
,,,,,,,65fb11fa63f6a4a129409026,6825337ab3c15539f08dd1b7,2025-05-15_03h25.04.608,cuing_paradigm_dot,2024.1.5,Win32,60.24096386,68242c07d0c0e200c6451fdd,,,,,,,,,,,357.9778,358.4765,,,358.7275,359.6945,left,0.9493,,,,,,,,,0.45,,,,,,358.4767,358.7274,359.6945,360.7949,0,62,62,62,1,,,,,,,
,,,,,,,65fb11fa63f6a4a129409026,6825337ab3c15539f08dd1b7,2025-05-15_03h25.04.608,cuing_paradigm_dot,2024.1.5,Win32,60.24096386,68242c07d0c0e200c6451fdd,,,,,,,,,,,360.7959,361.2955,,,361.5353,362.1974,left,0.637,,,,,,,,,0.1,,,,,,361.2956,361.5352,362.1975,363.2972,0,63,63,12,1,,,,,,,
,,,,,,,65fb11fa63f6a4a129409026,6825337ab3c15539f08dd1b7,2025-05-15_03h25.04.608,cuing_paradigm_dot,2024.1.5,Win32,60.24096386,68242c07d0c0e200c6451fdd,,,,,,,,,,,363.2984,363.7977,,,364.0379,365.333,right,1.2789,,,,,,,,,0.5,,,,,,363.7979,364.0379,365.3331,366.433,0,64,64,107,1,,,,,,,
,,,,,,,65fb11fa63f6a4a129409026,6825337ab3c15539f08dd1b7,2025-05-15_03h25.04.608,cuing_paradigm_dot,2024.1.5,Win32,60.24096386,68242c07d0c0e200c6451fdd,,,,,,,,,,,366.4341,366.9337,,,367.1785,368.0015,right,0.8034,,,,,,,,,0.5,,,,,,366.9339,367.1784,368.0018,369.102,0,65,65,95,1,,,,,,,
,,,,,,,65fb11fa63f6a4a129409026,6825337ab3c15539f08dd1b7,2025-05-15_03h25.04.608,cuing_paradigm_dot,2024.1.5,Win32,60.24096386,68242c07d0c0e200c6451fdd,,,,,,,,,,,369.1035,369.6025,,,369.8478,371.0378,left,1.1703,,,,,,,,,0.5,,,,,,369.6026,369.8478,371.0379,372.1379,0,66,66,119,1,,,,,,,
,,,,,,,65fb11fa63f6a4a129409026,6825337ab3c15539f08dd1b7,2025-05-15_03h25.04.608,cuing_paradigm_dot,2024.1.5,Win32,60.24096386,68242c07d0c0e200c6451fdd,,,,,,,,,,,372.1393,372.6383,,,372.8839,373.6063,left,0.7053,,,,,,,,,0.1,,,,,,372.6385,372.8838,373.6067,374.7069,0,67,67,21,1,,,,,,,
,,,,,,,65fb11fa63f6a4a129409026,6825337ab3c15539f08dd1b7,2025-05-15_03h25.04.608,cuing_paradigm_dot,2024.1.5,Win32,60.24096386,68242c07d0c0e200c6451fdd,,,,,,,,,,,374.7081,375.2072,,,375.4536,376.4754,left,1.003,,,,,,,,,0.4,,,,,,375.2073,375.4534,376.4756,377.5758,0,68,68,41,1,,,,,,,
,,,,,,,65fb11fa63f6a4a129409026,6825337ab3c15539f08dd1b7,2025-05-15_03h25.04.608,cuing_paradigm_dot,2024.1.5,Win32,60.24096386,68242c07d0c0e200c6451fdd,,,,,,,,,,,377.5776,378.0875,,,378.3331,379.0774,right,0.7197,,,,,,,,,0.6,,,,,,378.0875,378.3329,379.0776,380.1778,0,69,69,175,1,,,,,,,
,,,,,,,65fb11fa63f6a4a129409026,6825337ab3c15539f08dd1b7,2025-05-15_03h25.04.608,cuing_paradigm_dot,2024.1.5,Win32,60.24096386,68242c07d0c0e200c6451fdd,,,,,,,,,,,380.1801,380.6783,,,380.9332,381.7637,left,0.8149,,,,,,,,,0.45,,,,,,380.6784,380.9331,381.7638,382.8632,0,70,70,83,1,,,,,,,
,,,,,,,65fb11fa63f6a4a129409026,6825337ab3c15539f08dd1b7,2025-05-15_03h25.04.608,cuing_paradigm_dot,2024.1.5,Win32,60.24096386,68242c07d0c0e200c6451fdd,,,,,,,,,,,382.8645,383.3636,,,383.6097,384.5985,right,0.9697,,,,,,,,,0.5,,,,,,383.3638,383.6095,384.5987,385.6993,0,71,71,98,1,,,,,,,
,,,,,,,65fb11fa63f6a4a129409026,6825337ab3c15539f08dd1b7,2025-05-15_03h25.04.608,cuing_paradigm_dot,2024.1.5,Win32,60.24096386,68242c07d0c0e200c6451fdd,,,,,,,,,,,385.7007,386.1994,,,386.4446,387.3007,left,0.8361,,,,,,,,,0.4,,,,,,386.1996,386.4442,387.3009,388.4012,0,72,72,52,1,,,,,,,
,,,,,,,65fb11fa63f6a4a129409026,6825337ab3c15539f08dd1b7,2025-05-15_03h25.04.608,cuing_paradigm_dot,2024.1.5,Win32,60.24096386,68242c07d0c0e200c6451fdd,,,,,,,,,,,388.4025,388.9017,,,389.1413,390.1988,right,1.0352,,,,,,,,,0.5,,,,,,388.9018,389.1411,390.199,391.2871,0,73,73,116,1,,,,,,,
,,,,,,,65fb11fa63f6a4a129409026,6825337ab3c15539f08dd1b7,2025-05-15_03h25.04.608,cuing_paradigm_dot,2024.1.5,Win32,60.24096386,68242c07d0c0e200c6451fdd,,,,,,,,,,,391.2884,391.7875,,,392.0322,392.7221,left,0.6694,,,,,,,,,0.1,,,,,,391.7876,392.0321,392.7223,393.8225,0,74,74,28,1,,,,,,,
,,,,,,,65fb11fa63f6a4a129409026,6825337ab3c15539f08dd1b7,2025-05-15_03h25.04.608,cuing_paradigm_dot,2024.1.5,Win32,60.24096386,68242c07d0c0e200c6451fdd,,,,,,,,,,,393.8248,394.3228,,,394.5681,395.1405,right,0.5518,,,,,,,,,0.9,,,,,,394.323,394.568,395.1406,396.2412,0,75,75,198,1,,,,,,,
,,,,,,,65fb11fa63f6a4a129409026,6825337ab3c15539f08dd1b7,2025-05-15_03h25.04.608,cuing_paradigm_dot,2024.1.5,Win32,60.24096386,68242c07d0c0e200c6451fdd,,,,,,,,,,,396.2425,396.7417,,,396.9869,397.7099,right,0.7023,,,,,,,,,0.6,,,,,,396.7418,396.9868,397.7101,398.8101,0,76,76,151,1,,,,,,,
,,,,,,,65fb11fa63f6a4a129409026,6825337ab3c15539f08dd1b7,2025-05-15_03h25.04.608,cuing_paradigm_dot,2024.1.5,Win32,60.24096386,68242c07d0c0e200c6451fdd,,,,,,,,,,,398.812,399.3103,,,399.5541,400.4118,left,0.8388,,,,,,,,,0.5,,,,,,399.3105,399.554,400.412,401.5122,0,77,77,96,1,,,,,,,
,,,,,,,65fb11fa63f6a4a129409026,6825337ab3c15539f08dd1b7,2025-05-15_03h25.04.608,cuing_paradigm_dot,2024.1.5,Win32,60.24096386,68242c07d0c0e200c6451fdd,,,,,,,,,,,401.5136,402.0125,,,402.2577,402.8137,right,0.536,,,,,,,,,0.9,,,,,,402.0126,402.2576,402.8138,403.9141,0,78,78,200,1,,,,,,,
,,,,,,,65fb11fa63f6a4a129409026,6825337ab3c15539f08dd1b7,2025-05-15_03h25.04.608,cuing_paradigm_dot,2024.1.5,Win32,60.24096386,68242c07d0c0e200c6451fdd,,,,,,,,,,,403.9156,404.4144,,,404.6652,405.549,right,0.8649,,,,,,,,,0.45,,,,,,404.4145,404.6651,405.5492,406.6494,0,79,79,69,1,,,,,,,
,,,,,,,65fb11fa63f6a4a129409026,6825337ab3c15539f08dd1b7,2025-05-15_03h25.04.608,cuing_paradigm_dot,2024.1.5,Win32,60.24096386,68242c07d0c0e200c6451fdd,,,,,,,,,,,406.6503,407.1499,,,407.4007,408.2683,right,0.8527,,,,,,,,,0.55,,,,,,407.1501,407.4007,408.2683,409.3683,0,80,80,122,1,,,,,,,
,,,,,,,65fb11fa63f6a4a129409026,6825337ab3c15539f08dd1b7,2025-05-15_03h25.04.608,cuing_paradigm_dot,2024.1.5,Win32,60.24096386,68242c07d0c0e200c6451fdd,,,,,,,,,,,409.3693,409.8688,,,410.114,410.7206,left,0.5884,,,,,,,,,0.1,,,,,,409.8689,410.1138,410.7209,411.8207,0,81,81,14,1,,,,,,,
,,,,,,,65fb11fa63f6a4a129409026,6825337ab3c15539f08dd1b7,2025-05-15_03h25.04.608,cuing_paradigm_dot,2024.1.5,Win32,60.24096386,68242c07d0c0e200c6451fdd,,,,,,,,,,,411.8218,412.321,,,412.5609,413.1553,right,0.5775,,,,,,,,,0.55,,,,,,412.3212,412.5607,413.1554,414.256,0,82,82,135,1,,,,,,,
,,,,,,,65fb11fa63f6a4a129409026,6825337ab3c15539f08dd1b7,2025-05-15_03h25.04.608,cuing_paradigm_dot,2024.1.5,Win32,60.24096386,68242c07d0c0e200c6451fdd,,,,,,,,,,,414.2568,414.7562,,,415.0025,415.7425,right,0.7187,,,,,,,,,0.55,,,,,,414.7563,415.0024,415.7427,416.8414,0,83,83,131,1,,,,,,,
,,,,,,,65fb11fa63f6a4a129409026,6825337ab3c15539f08dd1b7,2025-05-15_03h25.04.608,cuing_paradigm_dot,2024.1.5,Win32,60.24096386,68242c07d0c0e200c6451fdd,,,,,,,,,,,416.843,417.3421,,,417.5838,418.4437,left,0.836,,,,,,,,,0.4,,,,,,417.3421,417.5836,418.4439,419.554,0,84,84,32,1,,,,,,,
,,,,,,,65fb11fa63f6a4a129409026,6825337ab3c15539f08dd1b7,2025-05-15_03h25.04.608,cuing_paradigm_dot,2024.1.5,Win32,60.24096386,68242c07d0c0e200c6451fdd,,,,,,,,,,,419.5551,420.0441,,,420.2898,420.9118,right,0.6038,,,,,,,,,0.9,,,,,,420.0443,420.2898,420.912,422.0124,0,85,85,209,1,,,,,,,
,,,,,,,65fb11fa63f6a4a129409026,6825337ab3c15539f08dd1b7,2025-05-15_03h25.04.608,cuing_paradigm_dot,2024.1.5,Win32,60.24096386,68242c07d0c0e200c6451fdd,,,,,,,,,,,422.0141,422.5174,,,422.7706,423.7481,right,0.9527,,,,,,,,,0.55,,,,,,422.5174,422.7705,423.7483,424.8479,0,86,86,149,1,,,,,,,
,,,,,,,65fb11fa63f6a4a129409026,6825337ab3c15539f08dd1b7,2025-05-15_03h25.04.608,cuing_paradigm_dot,2024.1.5,Win32,60.24096386,68242c07d0c0e200c6451fdd,,,,,,,,,,,424.8494,425.3485,,,425.5925,426.3665,right,0.7528,,,,,,,,,0.6,,,,,,425.3487,425.5924,426.3667,427.4669,0,87,87,179,1,,,,,,,
,,,,,,,65fb11fa63f6a4a129409026,6825337ab3c15539f08dd1b7,2025-05-15_03h25.04.608,cuing_paradigm_dot,2024.1.5,Win32,60.24096386,68242c07d0c0e200c6451fdd,,,,,,,,,,,427.4689,427.9674,,,428.2123,428.9689,right,0.7369,,,,,,,,,0.6,,,,,,427.9675,428.2123,428.9691,430.0689,0,88,88,167,1,,,,,,,
,,,,,,,65fb11fa63f6a4a129409026,6825337ab3c15539f08dd1b7,2025-05-15_03h25.04.608,cuing_paradigm_dot,2024.1.5,Win32,60.24096386,68242c07d0c0e200c6451fdd,,,,,,,,,,,430.0707,430.5694,,,430.8105,431.7547,left,0.9309,,,,,,,,,0.4,,,,,,430.5695,430.8104,431.7548,432.8544,0,89,89,48,1,,,,,,,
,,,,,,,65fb11fa63f6a4a129409026,6825337ab3c15539f08dd1b7,2025-05-15_03h25.04.608,cuing_paradigm_dot,2024.1.5,Win32,60.24096386,68242c07d0c0e200c6451fdd,,,,,,,,,,,432.8553,433.3548,,,433.6062,434.3059,right,0.6814,,,,,,,,,0.9,,,,,,433.355,433.6061,434.306,435.4064,0,90,90,197,1,,,,,,,
,,,,,,,65fb11fa63f6a4a129409026,6825337ab3c15539f08dd1b7,2025-05-15_03h25.04.608,cuing_paradigm_dot,2024.1.5,Win32,60.24096386,68242c07d0c0e200c6451fdd,,,,,,,,,,,435.4073,435.907,,,436.1499,436.7084,right,0.5346,,,,,,,,,0.9,,,,,,435.907,436.1498,436.7085,437.8087,0,91,91,203,1,,,,,,,
,,,,,,,65fb11fa63f6a4a129409026,6825337ab3c15539f08dd1b7,2025-05-15_03h25.04.608,cuing_paradigm_dot,2024.1.5,Win32,60.24096386,68242c07d0c0e200c6451fdd,,,,,,,,,,,437.8102,438.3093,,,438.5598,439.2611,right,0.6869,,,,,,,,,0.6,,,,,,438.3094,438.5597,439.2612,440.3606,0,92,92,162,1,,,,,,,
,,,,,,,65fb11fa63f6a4a129409026,6825337ab3c15539f08dd1b7,2025-05-15_03h25.04.608,cuing_paradigm_dot,2024.1.5,Win32,60.24096386,68242c07d0c0e200c6451fdd,,,,,,,,,,,440.3616,440.8611,,,441.1102,442.0312,left,0.9072,,,,,,,,,0.55,,,,,,440.8611,441.1101,442.0313,443.13,0,93,93,132,1,,,,,,,
,,,,,,,65fb11fa63f6a4a129409026,6825337ab3c15539f08dd1b7,2025-05-15_03h25.04.608,cuing_paradigm_dot,2024.1.5,Win32,60.24096386,68242c07d0c0e200c6451fdd,,,,,,,,,,,443.1313,443.6304,,,443.8765,444.6984,right,0.8046,,,,,,,,,0.55,,,,,,443.6305,443.8763,444.6986,445.7987,0,94,94,126,1,,,,,,,
,,,,,,,65fb11fa63f6a4a129409026,6825337ab3c15539f08dd1b7,2025-05-15_03h25.04.608,cuing_paradigm_dot,2024.1.5,Win32,60.24096386,68242c07d0c0e200c6451fdd,,,,,,,,,,,445.8,446.2991,,,446.5394,447.2001,left,0.6359,,,,,,,,,0.45,,,,,,446.2992,446.5394,447.2004,448.3009,0,95,95,63,1,,,,,,,
,,,,,,,65fb11fa63f6a4a129409026,6825337ab3c15539f08dd1b7,2025-05-15_03h25.04.608,cuing_paradigm_dot,2024.1.5,Win32,60.24096386,68242c07d0c0e200c6451fdd,,,,,,,,,,,448.3027,448.8012,,,449.0472,449.8696,left,0.8026,,,,,,,,,0.4,,,,,,448.8014,449.0471,449.8699,450.9695,0,96,96,34,1,,,,,,,
,,,,,,,65fb11fa63f6a4a129409026,6825337ab3c15539f08dd1b7,2025-05-15_03h25.04.608,cuing_paradigm_dot,2024.1.5,Win32,60.24096386,68242c07d0c0e200c6451fdd,,,,,,,,,,,450.9715,451.4699,,,451.7154,452.6379,left,0.9025,,,,,,,,,0.45,,,,,,451.4701,451.7153,452.638,453.7387,0,97,97,65,1,,,,,,,
,,,,,,,65fb11fa63f6a4a129409026,6825337ab3c15539f08dd1b7,2025-05-15_03h25.04.608,cuing_paradigm_dot,2024.1.5,Win32,60.24096386,68242c07d0c0e200c6451fdd,,,,,,,,,,,453.7403,454.2391,,,454.4833,455.1401,left,0.6372,,,,,,,,,0.1,,,,,,454.2392,454.4833,455.1402,456.2407,0,98,98,13,1,,,,,,,
,,,,,,,65fb11fa63f6a4a129409026,6825337ab3c15539f08dd1b7,2025-05-15_03h25.04.608,cuing_paradigm_dot,2024.1.5,Win32,60.24096386,68242c07d0c0e200c6451fdd,,,,,,,,,,,456.2421,456.7412,,,456.9853,457.5919,right,0.5903,,,,,,,,,0.9,,,,,,456.7413,456.9849,457.5921,458.6926,0,99,99,208,1,,,,,,,
,,,,,,,65fb11fa63f6a4a129409026,6825337ab3c15539f08dd1b7,2025-05-15_03h25.04.608,cuing_paradigm_dot,2024.1.5,Win32,60.24096386,68242c07d0c0e200c6451fdd,,,,,,,,,,,458.6939,459.1929,,,459.4437,460.0937,left,0.6321,,,,,,,,,0.1,,,,,,459.1929,459.4436,460.0937,461.1945,0,100,100,22,1,,,,,,,
,,,,,,,65fb11fa63f6a4a129409026,6825337ab3c15539f08dd1b7,2025-05-15_03h25.04.608,cuing_paradigm_dot,2024.1.5,Win32,60.24096386,68242c07d0c0e200c6451fdd,,,,,,,,,,,461.1954,461.6951,,,461.9457,462.6129,right,0.6493,,,,,,,,,0.55,,,,,,461.6951,461.9457,462.6131,463.7134,0,101,101,147,1,,,,,,,
,,,,,,,65fb11fa63f6a4a129409026,6825337ab3c15539f08dd1b7,2025-05-15_03h25.04.608,cuing_paradigm_dot,2024.1.5,Win32,60.24096386,68242c07d0c0e200c6451fdd,,,,,,,,,,,463.7147,464.2138,,,464.4625,465.5661,right,1.0856,,,,,,,,,0.55,,,,,,464.214,464.4624,465.5663,466.6659,0,102,102,143,1,,,,,,,
,,,,,,,65fb11fa63f6a4a129409026,6825337ab3c15539f08dd1b7,2025-05-15_03h25.04.608,cuing_paradigm_dot,2024.1.5,Win32,60.24096386,68242c07d0c0e200c6451fdd,,,,,,,,,,,466.667,467.1663,,,467.4105,468.6345,left,1.2044,,,,,,,,,0.4,,,,,,467.1664,467.4105,468.6346,469.7351,0,103,103,54,1,,,,,,,
,,,,,,,65fb11fa63f6a4a129409026,6825337ab3c15539f08dd1b7,2025-05-15_03h25.04.608,cuing_paradigm_dot,2024.1.5,Win32,60.24096386,68242c07d0c0e200c6451fdd,,,,,,,,,,,469.7371,470.2356,,,470.4801,471.0868,left,0.5864,,,,,,,,,0.1,,,,,,470.2357,470.48,471.0869,472.1873,0,104,104,20,1,,,,,,,
,,,,,,,65fb11fa63f6a4a129409026,6825337ab3c15539f08dd1b7,2025-05-15_03h25.04.608,cuing_paradigm_dot,2024.1.5,Win32,60.24096386,68242c07d0c0e200c6451fdd,,,,,,,,,,,472.1887,472.6874,,,472.9319,473.7387,left,0.7864,,,,,,,,,0.45,,,,,,472.6875,472.9318,473.7389,474.8394,0,105,105,86,1,,,,,,,
,,,,,,,65fb11fa63f6a4a129409026,6825337ab3c15539f08dd1b7,2025-05-15_03h25.04.608,cuing_paradigm_dot,2024.1.5,Win32,60.24096386,68242c07d0c0e200c6451fdd,,,,,,,,,,,474.8411,475.3398,,,475.5846,476.2625,left,0.6616,,,,,,,,,0.4,,,,,,475.3399,475.5845,476.2626,477.3581,0,106,106,43,1,,,,,,,
,,,,,,,65fb11fa63f6a4a129409026,6825337ab3c15539f08dd1b7,2025-05-15_03h25.04.608,cuing_paradigm_dot,2024.1.5,Win32,60.24096386,68242c07d0c0e200c6451fdd,,,,,,,,,,,477.3599,477.8529,,,478.1031,478.6102,left,0.4862,,,,,,,,,0.1,,,,,,477.853,478.1031,478.6103,479.7101,0,107,107,1,1,,,,,,,
,,,,,,,65fb11fa63f6a4a129409026,6825337ab3c15539f08dd1b7,2025-05-15_03h25.04.608,cuing_paradigm_dot,2024.1.5,Win32,60.24096386,68242c07d0c0e200c6451fdd,,,,,,,,,,,479.7118,480.2107,,,480.4517,481.2614,right,0.786,,,,,,,,,0.5,,,,,,480.2109,480.4516,481.2615,482.3622,0,108,108,110,1,,,,,,,
,,,,,,,65fb11fa63f6a4a129409026,6825337ab3c15539f08dd1b7,2025-05-15_03h25.04.608,cuing_paradigm_dot,2024.1.5,Win32,60.24096386,68242c07d0c0e200c6451fdd,,,,,,,,,,,482.3638,482.8625,,,483.1141,483.7641,left,0.6314,,,,,,,,,0.1,,,,,,482.8627,483.114,483.7642,484.864,0,109,109,0,1,,,,,,,
,,,,,,,65fb11fa63f6a4a129409026,6825337ab3c15539f08dd1b7,2025-05-15_03h25.04.608,cuing_paradigm_dot,2024.1.5,Win32,60.24096386,68242c07d0c0e200c6451fdd,,,,,,,,,,,484.8649,485.3643,,,485.61,486.6448,right,1.0183,,,,,,,,,0.4,,,,,,485.3644,485.6099,486.6449,487.7333,0,110,110,49,1,,,,,,,
,,,,,,,65fb11fa63f6a4a129409026,6825337ab3c15539f08dd1b7,2025-05-15_03h25.04.608,cuing_paradigm_dot,2024.1.5,Win32,60.24096386,68242c07d0c0e200c6451fdd,,,,,,,,,,,487.7345,488.2337,,,488.4848,489.2017,left,0.6992,,,,,,,,,0.4,,,,,,488.2338,488.4847,489.2018,490.3017,0,111,111,55,1,,,,,,,
,,,,,,,65fb11fa63f6a4a129409026,6825337ab3c15539f08dd1b7,2025-05-15_03h25.04.608,cuing_paradigm_dot,2024.1.5,Win32,60.24096386,68242c07d0c0e200c6451fdd,,,,,,,,,,,490.3027,490.8022,,,491.0577,491.8706,right,0.7864,,,,,,,,,0.5,,,,,,490.8023,491.0577,491.8708,492.9711,0,112,112,99,1,,,,,,,
,,,,,,,65fb11fa63f6a4a129409026,6825337ab3c15539f08dd1b7,2025-05-15_03h25.04.608,cuing_paradigm_dot,2024.1.5,Win32,60.24096386,68242c07d0c0e200c6451fdd,,,,,,,,,,,492.9723,493.4713,,,493.7158,494.7728,left,1.0379,,,,,,,,,0.4,,,,,,493.4715,493.7157,494.773,495.8734,0,113,113,47,1,,,,,,,
,,,,,,,65fb11fa63f6a4a129409026,6825337ab3c15539f08dd1b7,2025-05-15_03h25.04.608,cuing_paradigm_dot,2024.1.5,Win32,60.24096386,68242c07d0c0e200c6451fdd,,,,,,,,,,,495.8751,496.3738,,,496.6187,497.4375,right,0.8022,,,,,,,,,0.45,,,,,,496.3738,496.6186,497.4376,498.5257,0,114,114,74,1,,,,,,,
,,,,,,,65fb11fa63f6a4a129409026,6825337ab3c15539f08dd1b7,2025-05-15_03h25.04.608,cuing_paradigm_dot,2024.1.5,Win32,60.24096386,68242c07d0c0e200c6451fdd,,,,,,,,,,,498.5275,499.0263,,,499.271,500.1945,right,0.9059,,,,,,,,,0.5,,,,,,499.0263,499.2709,500.1948,501.2944,0,115,115,102,1,,,,,,,
,,,,,,,65fb11fa63f6a4a129409026,6825337ab3c15539f08dd1b7,2025-05-15_03h25.04.608,cuing_paradigm_dot,2024.1.5,Win32,60.24096386,68242c07d0c0e200c6451fdd,,,,,,,,,,,501.2959,501.7807,,,502.0236,502.9466,right,0.9026,,,,,,,,,0.55,,,,,,501.7807,502.0235,502.947,504.0469,0,116,116,127,1,,,,,,,
,,,,,,,65fb11fa63f6a4a129409026,6825337ab3c15539f08dd1b7,2025-05-15_03h25.04.608,cuing_paradigm_dot,2024.1.5,Win32,60.24096386,68242c07d0c0e200c6451fdd,,,,,,,,,,,504.0487,504.5472,,,504.7977,505.965,left,1.1488,,,,,,,,,0.4,,,,,,504.5473,504.7976,505.9651,507.0656,0,117,117,38,1,,,,,,,
,,,,,,,65fb11fa63f6a4a129409026,6825337ab3c15539f08dd1b7,2025-05-15_03h25.04.608,cuing_paradigm_dot,2024.1.5,Win32,60.24096386,68242c07d0c0e200c6451fdd,,,,,,,,,,,507.0665,507.5661,,,507.8111,508.6183,right,0.7865,,,,,,,,,0.9,,,,,,507.5662,507.8111,508.6185,509.7181,0,118,118,202,1,,,,,,,
,,,,,,,65fb11fa63f6a4a129409026,6825337ab3c15539f08dd1b7,2025-05-15_03h25.04.608,cuing_paradigm_dot,2024.1.5,Win32,60.24096386,68242c07d0c0e200c6451fdd,,,,,,,,,,,509.7199,510.2186,,,510.4639,511.5199,left,1.0382,,,,,,,,,0.4,,,,,,510.2187,510.4638,511.52,512.6206,0,119,119,50,1,,,,,,,
,,,,,,,65fb11fa63f6a4a129409026,6825337ab3c15539f08dd1b7,2025-05-15_03h25.04.608,cuing_paradigm_dot,2024.1.5,Win32,60.24096386,68242c07d0c0e200c6451fdd,,,,,,,,,,,512.6219,513.1211,,,513.3655,514.0073,right,0.6242,,,,,,,,,0.9,,,,,,513.1212,513.3655,514.0074,515.1061,0,120,120,186,1,,,,,,,
,,,,,,,65fb11fa63f6a4a129409026,6825337ab3c15539f08dd1b7,2025-05-15_03h25.04.608,cuing_paradigm_dot,2024.1.5,Win32,60.24096386,68242c07d0c0e200c6451fdd,,,,,,,,,,,515.1075,515.6173,,,515.8687,516.6275,right,0.7427,,,,,,,,,0.4,,,,,,515.6174,515.8687,516.6277,517.7248,0,121,121,30,1,,,,,,,
,,,,,,,65fb11fa63f6a4a129409026,6825337ab3c15539f08dd1b7,2025-05-15_03h25.04.608,cuing_paradigm_dot,2024.1.5,Win32,60.24096386,68242c07d0c0e200c6451fdd,,,,,,,,,,,517.7262,518.225,,,518.4703,519.2934,right,0.803,,,,,,,,,0.45,,,,,,518.2252,518.4702,519.2936,520.3828,0,122,122,76,1,,,,,,,
,,,,,,,65fb11fa63f6a4a129409026,6825337ab3c15539f08dd1b7,2025-05-15_03h25.04.608,cuing_paradigm_dot,2024.1.5,Win32,60.24096386,68242c07d0c0e200c6451fdd,,,,,,,,,,,520.3842,520.8775,,,521.1238,521.599,left,0.4589,,,,,,,,,0.1,,,,,,520.8776,521.1237,521.5991,522.6953,0,123,123,24,1,,,,,,,
,,,,,,,65fb11fa63f6a4a129409026,6825337ab3c15539f08dd1b7,2025-05-15_03h25.04.608,cuing_paradigm_dot,2024.1.5,Win32,60.24096386,68242c07d0c0e200c6451fdd,,,,,,,,,,,522.697,523.1962,,,523.4424,524.0517,right,0.5946,,,,,,,,,0.55,,,,,,523.1963,523.4423,524.0518,525.1474,0,124,124,142,1,,,,,,,
,,,,,,,65fb11fa63f6a4a129409026,6825337ab3c15539f08dd1b7,2025-05-15_03h25.04.608,cuing_paradigm_dot,2024.1.5,Win32,60.24096386,68242c07d0c0e200c6451fdd,,,,,,,,,,,525.1487,525.648,,,525.8985,526.8655,left,0.9496,,,,,,,,,0.45,,,,,,525.6481,525.8984,526.8656,527.9664,0,125,125,79,1,,,,,,,
,,,,,,,65fb11fa63f6a4a129409026,6825337ab3c15539f08dd1b7,2025-05-15_03h25.04.608,cuing_paradigm_dot,2024.1.5,Win32,60.24096386,68242c07d0c0e200c6451fdd,,,,,,,,,,,527.9671,528.4668,,,528.7118,529.8185,left,1.0868,,,,,,,,,0.45,,,,,,528.4668,528.7117,529.8187,530.919,0,126,126,73,1,,,,,,,
,,,,,,,65fb11fa63f6a4a129409026,6825337ab3c15539f08dd1b7,2025-05-15_03h25.04.608,cuing_paradigm_dot,2024.1.5,Win32,60.24096386,68242c07d0c0e200c6451fdd,,,,,,,,,,,530.9205,531.4193,,,531.6645,532.4873,left,0.8032,,,,,,,,,0.4,,,,,,531.4195,531.6644,532.4875,533.5878,0,127,127,39,1,,,,,,,
,,,,,,,65fb11fa63f6a4a129409026,6825337ab3c15539f08dd1b7,2025-05-15_03h25.04.608,cuing_paradigm_dot,2024.1.5,Win32,60.24096386,68242c07d0c0e200c6451fdd,,,,,,,,,,,533.5893,534.0882,,,534.3288,535.4734,left,1.1194,,,,,,,,,0.45,,,,,,534.0883,534.3287,535.4736,536.5735,0,128,128,77,1,,,,,,,
,,,,,,,65fb11fa63f6a4a129409026,6825337ab3c15539f08dd1b7,2025-05-15_03h25.04.608,cuing_paradigm_dot,2024.1.5,Win32,60.24096386,68242c07d0c0e200c6451fdd,,,,,,,,,,,536.5749,537.0749,,,537.3189,537.8756,right,0.5362,,,,,,,,,0.9,,,,,,537.075,537.3188,537.8759,538.9758,0,129,129,187,1,,,,,,,
,,,,,,,65fb11fa63f6a4a129409026,6825337ab3c15539f08dd1b7,2025-05-15_03h25.04.608,cuing_paradigm_dot,2024.1.5,Win32,60.24096386,68242c07d0c0e200c6451fdd,,,,,,,,,,,538.9789,539.4761,,,539.7214,540.3397,right,0.6024,,,,,,,,,0.9,,,,,,539.4761,539.7213,540.3398,541.4278,0,130,130,180,1,,,,,,,
,,,,,,,65fb11fa63f6a4a129409026,6825337ab3c15539f08dd1b7,2025-05-15_03h25.04.608,cuing_paradigm_dot,2024.1.5,Win32,60.24096386,68242c07d0c0e200c6451fdd,,,,,,,,,,,541.4294,541.9281,,,542.1684,542.8461,left,0.6522,,,,,,,,,0.45,,,,,,541.9281,542.1683,542.8462,543.9464,0,131,131,82,1,,,,,,,
,,,,,,,65fb11fa63f6a4a129409026,6825337ab3c15539f08dd1b7,2025-05-15_03h25.04.608,cuing_paradigm_dot,2024.1.5,Win32,60.24096386,68242c07d0c0e200c6451fdd,,,,,,,,,,,543.9482,544.4469,,,544.6939,545.566,right,0.8526,,,,,,,,,0.45,,,,,,544.447,544.6938,545.5661,546.6653,0,132,132,85,1,,,,,,,
,,,,,,,65fb11fa63f6a4a129409026,6825337ab3c15539f08dd1b7,2025-05-15_03h25.04.608,cuing_paradigm_dot,2024.1.5,Win32,60.24096386,68242c07d0c0e200c6451fdd,,,,,,,,,,,546.6672,547.1701,,,547.4163,548.1338,left,0.7034,,,,,,,,,0.1,,,,,,547.1702,547.4162,548.1339,549.2339,0,133,133,29,1,,,,,,,
,,,,,,,65fb11fa63f6a4a129409026,6825337ab3c15539f08dd1b7,2025-05-15_03h25.04.608,cuing_paradigm_dot,2024.1.5,Win32,60.24096386,68242c07d0c0e200c6451fdd,,,,,,,,,,,549.2348,549.7342,,,549.9851,550.8523,right,0.8368,,,,,,,,,0.55,,,,,,549.7342,549.9849,550.8524,551.953,0,134,134,125,1,,,,,,,
,,,,,,,65fb11fa63f6a4a129409026,6825337ab3c15539f08dd1b7,2025-05-15_03h25.04.608,cuing_paradigm_dot,2024.1.5,Win32,60.24096386,68242c07d0c0e200c6451fdd,,,,,,,,,,,551.9546,552.4534,,,552.704,553.5878,right,0.8654,,,,,,,,,0.6,,,,,,552.4535,552.7039,553.5879,554.6882,0,135,135,163,1,,,,,,,
,,,,,,,65fb11fa63f6a4a129409026,6825337ab3c15539f08dd1b7,2025-05-15_03h25.04.608,cuing_paradigm_dot,2024.1.5,Win32,60.24096386,68242c07d0c0e200c6451fdd,,,,,,,,,,,554.6893,555.1886,,,555.433,556.6576,right,1.2059,,,,,,,,,0.5,,,,,,555.1886,555.4328,556.6579,557.7579,0,136,136,93,1,,,,,,,
,,,,,,,65fb11fa63f6a4a129409026,6825337ab3c15539f08dd1b7,2025-05-15_03h25.04.608,cuing_paradigm_dot,2024.1.5,Win32,60.24096386,68242c07d0c0e200c6451fdd,,,,,,,,,,,557.7594,558.2581,,,558.5021,559.2934,right,0.7714,,,,,,,,,0.6,,,,,,558.2583,558.5021,559.2936,560.3866,0,137,137,171,1,,,,,,,
,,,,,,,65fb11fa63f6a4a129409026,6825337ab3c15539f08dd1b7,2025-05-15_03h25.04.608,cuing_paradigm_dot,2024.1.5,Win32,60.24096386,68242c07d0c0e200c6451fdd,,,,,,,,,,,560.3876,560.8773,,,561.1206,561.807,right,0.6685,,,,,,,,,0.6,,,,,,560.8774,561.1206,561.8071,562.8953,0,138,138,152,1,,,,,,,
,,,,,,,65fb11fa63f6a4a129409026,6825337ab3c15539f08dd1b7,2025-05-15_03h25.04.608,cuing_paradigm_dot,2024.1.5,Win32,60.24096386,68242c07d0c0e200c6451fdd,,,,,,,,,,,562.8966,563.3956,,,563.6387,564.2802,right,0.6194,,,,,,,,,0.9,,,,,,563.3957,563.6385,564.2803,565.3807,0,139,139,195,1,,,,,,,
,,,,,,,65fb11fa63f6a4a129409026,6825337ab3c15539f08dd1b7,2025-05-15_03h25.04.608,cuing_paradigm_dot,2024.1.5,Win32,60.24096386,68242c07d0c0e200c6451fdd,,,,,,,,,,,565.3823,565.8811,,,566.1278,566.7992,left,0.6528,,,,,,,,,0.45,,,,,,565.8811,566.1277,566.7993,567.9037,0,140,140,64,1,,,,,,,
,,,,,,,65fb11fa63f6a4a129409026,6825337ab3c15539f08dd1b7,2025-05-15_03h25.04.608,cuing_paradigm_dot,2024.1.5,Win32,60.24096386,68242c07d0c0e200c6451fdd,,,,,,,,,,,567.905,568.3998,,,568.6446,569.3844,right,0.7209,,,,,,,,,0.55,,,,,,568.3999,568.6445,569.3846,570.485,0,141,141,139,1,,,,,,,
,,,,,,,65fb11fa63f6a4a129409026,6825337ab3c15539f08dd1b7,2025-05-15_03h25.04.608,cuing_paradigm_dot,2024.1.5,Win32,60.24096386,68242c07d0c0e200c6451fdd,,,,,,,,,,,570.486,570.9853,,,571.2307,571.7532,right,0.5027,,,,,,,,,0.9,,,,,,570.9853,571.2306,571.7534,572.8539,0,142,142,183,1,,,,,,,
,,,,,,,65fb11fa63f6a4a129409026,6825337ab3c15539f08dd1b7,2025-05-15_03h25.04.608,cuing_paradigm_dot,2024.1.5,Win32,60.24096386,68242c07d0c0e200c6451fdd,,,,,,,,,,,572.856,573.3541,,,573.5995,574.3631,left,0.7468,,,,,,,,,0.5,,,,,,573.3542,573.5994,574.3633,575.4557,0,143,143,101,1,,,,,,,
,,,,,,,65fb11fa63f6a4a129409026,6825337ab3c15539f08dd1b7,2025-05-15_03h25.04.608,cuing_paradigm_dot,2024.1.5,Win32,60.24096386,68242c07d0c0e200c6451fdd,,,,,,,,,,,575.4571,575.956,,,576.195,576.7906,right,0.5806,,,,,,,,,0.6,,,,,,575.9562,576.1949,576.7907,577.8909,0,144,144,169,1,,,,,,,
,,,,,,,65fb11fa63f6a4a129409026,6825337ab3c15539f08dd1b7,2025-05-15_03h25.04.608,cuing_paradigm_dot,2024.1.5,Win32,60.24096386,68242c07d0c0e200c6451fdd,,,,,,,,,,,577.8919,578.3913,,,578.6473,579.7433,right,1.0807,,,,,,,,,0.6,,,,,,578.3913,578.6472,579.7434,580.8432,0,145,145,176,1,,,,,,,
,,,,,,,65fb11fa63f6a4a129409026,6825337ab3c15539f08dd1b7,2025-05-15_03h25.04.608,cuing_paradigm_dot,2024.1.5,Win32,60.24096386,68242c07d0c0e200c6451fdd,,,,,,,,,,,580.8441,581.344,,,581.5889,582.1954,right,0.5898,,,,,,,,,0.9,,,,,,581.3441,581.5888,582.1957,583.2954,0,146,146,205,1,,,,,,,
,,,,,,,65fb11fa63f6a4a129409026,6825337ab3c15539f08dd1b7,2025-05-15_03h25.04.608,cuing_paradigm_dot,2024.1.5,Win32,60.24096386,68242c07d0c0e200c6451fdd,,,,,,,,,,,583.2979,583.7904,,,584.0395,584.7471,right,0.6867,,,,,,,,,0.6,,,,,,583.7904,584.0394,584.7473,585.8475,0,147,147,158,1,,,,,,,
,,,,,,,65fb11fa63f6a4a129409026,6825337ab3c15539f08dd1b7,2025-05-15_03h25.04.608,cuing_paradigm_dot,2024.1.5,Win32,60.24096386,68242c07d0c0e200c6451fdd,,,,,,,,,,,585.8491,586.348,,,586.5936,587.2076,left,0.5971,,,,,,,,,0.45,,,,,,586.348,586.5936,587.2077,588.2999,0,148,148,84,1,,,,,,,
,,,,,,,65fb11fa63f6a4a129409026,6825337ab3c15539f08dd1b7,2025-05-15_03h25.04.608,cuing_paradigm_dot,2024.1.5,Win32,60.24096386,68242c07d0c0e200c6451fdd,,,,,,,,,,,588.3019,588.8001,,,589.0507,590.0539,right,0.988,,,,,,,,,0.6,,,,,,588.8001,589.0506,590.054,591.1519,0,149,149,165,1,,,,,,,
,,,,,,,65fb11fa63f6a4a129409026,6825337ab3c15539f08dd1b7,2025-05-15_03h25.04.608,cuing_paradigm_dot,2024.1.5,Win32,60.24096386,68242c07d0c0e200c6451fdd,,,,,,,,,,,591.1541,591.6523,,,591.903,592.7032,left,0.7817,,,,,,,,,0.1,,,,,,591.6524,591.903,592.7034,593.8039,0,150,150,23,1,,,,,,,
,,,,,,,65fb11fa63f6a4a129409026,6825337ab3c15539f08dd1b7,2025-05-15_03h25.04.608,cuing_paradigm_dot,2024.1.5,Win32,60.24096386,68242c07d0c0e200c6451fdd,,,,,,,,,,,593.8048,594.3043,,,594.5468,595.5847,left,1.018,,,,,,,,,0.5,,,,,,594.3044,594.5467,595.5848,596.6731,0,151,151,113,1,,,,,,,
,,,,,,,65fb11fa63f6a4a129409026,6825337ab3c15539f08dd1b7,2025-05-15_03h25.04.608,cuing_paradigm_dot,2024.1.5,Win32,60.24096386,68242c07d0c0e200c6451fdd,,,,,,,,,,,596.6747,597.1682,,,597.4186,598.4084,left,0.9704,,,,,,,,,0.5,,,,,,597.1683,597.4186,598.4085,599.5088,0,152,152,112,1,,,,,,,
,,,,,,,65fb11fa63f6a4a129409026,6825337ab3c15539f08dd1b7,2025-05-15_03h25.04.608,cuing_paradigm_dot,2024.1.5,Win32,60.24096386,68242c07d0c0e200c6451fdd,,,,,,,,,,,599.5104,600.0037,,,600.2468,601.3727,left,1.1022,,,,,,,,,0.5,,,,,,600.0038,600.2467,601.3728,602.4612,0,153,153,118,1,,,,,,,
,,,,,,,65fb11fa63f6a4a129409026,6825337ab3c15539f08dd1b7,2025-05-15_03h25.04.608,cuing_paradigm_dot,2024.1.5,Win32,60.24096386,68242c07d0c0e200c6451fdd,,,,,,,,,,,602.4629,602.9616,,,603.2068,603.7462,left,0.5217,,,,,,,,,0.1,,,,,,602.9617,603.2068,603.7464,604.841,0,154,154,19,1,,,,,,,
,,,,,,,65fb11fa63f6a4a129409026,6825337ab3c15539f08dd1b7,2025-05-15_03h25.04.608,cuing_paradigm_dot,2024.1.5,Win32,60.24096386,68242c07d0c0e200c6451fdd,,,,,,,,,,,604.8419,605.3302,,,605.5737,606.4485,left,0.8606,,,,,,,,,0.6,,,,,,605.3303,605.5735,606.4486,607.5489,0,155,155,166,1,,,,,,,
,,,,,,,65fb11fa63f6a4a129409026,6825337ab3c15539f08dd1b7,2025-05-15_03h25.04.608,cuing_paradigm_dot,2024.1.5,Win32,60.24096386,68242c07d0c0e200c6451fdd,,,,,,,,,,,607.5498,608.0493,,,608.3,609.5173,right,1.2006,,,,,,,,,0.5,,,,,,608.0493,608.2999,609.5175,610.6179,0,156,156,104,1,,,,,,,
,,,,,,,65fb11fa63f6a4a129409026,6825337ab3c15539f08dd1b7,2025-05-15_03h25.04.608,cuing_paradigm_dot,2024.1.5,Win32,60.24096386,68242c07d0c0e200c6451fdd,,,,,,,,,,,610.6199,611.1184,,,611.3691,611.8859,right,0.4978,,,,,,,,,0.9,,,,,,611.1185,611.3691,611.8861,612.9864,0,157,157,196,1,,,,,,,
,,,,,,,65fb11fa63f6a4a129409026,6825337ab3c15539f08dd1b7,2025-05-15_03h25.04.608,cuing_paradigm_dot,2024.1.5,Win32,60.24096386,68242c07d0c0e200c6451fdd,,,,,,,,,,,612.9875,613.4867,,,613.7331,614.6883,left,0.9366,,,,,,,,,0.6,,,,,,613.4868,613.733,614.6885,615.789,0,158,158,177,1,,,,,,,
,,,,,,,65fb11fa63f6a4a129409026,6825337ab3c15539f08dd1b7,2025-05-15_03h25.04.608,cuing_paradigm_dot,2024.1.5,Win32,60.24096386,68242c07d0c0e200c6451fdd,,,,,,,,,,,615.7914,616.2894,,,616.5299,617.1069,left,0.5657,,,,,,,,,0.1,,,,,,616.2895,616.5299,617.107,618.2072,0,159,159,8,1,,,,,,,
,,,,,,,65fb11fa63f6a4a129409026,6825337ab3c15539f08dd1b7,2025-05-15_03h25.04.608,cuing_paradigm_dot,2024.1.5,Win32,60.24096386,68242c07d0c0e200c6451fdd,,,,,,,,,,,618.2085,618.7079,,,618.9533,619.5925,right,0.6195,,,,,,,,,0.6,,,,,,618.7081,618.9532,619.5926,620.6929,0,160,160,155,1,,,,,,,
,,,,,,,65fb11fa63f6a4a129409026,6825337ab3c15539f08dd1b7,2025-05-15_03h25.04.608,cuing_paradigm_dot,2024.1.5,Win32,60.24096386,68242c07d0c0e200c6451fdd,,,,,,,,,,,620.6943,621.1932,,,621.4386,621.9276,right,0.4699,,,,,,,,,0.9,,,,,,621.1934,621.4385,621.9278,623.0284,0,161,161,193,1,,,,,,,
,,,,,,,65fb11fa63f6a4a129409026,6825337ab3c15539f08dd1b7,2025-05-15_03h25.04.608,cuing_paradigm_dot,2024.1.5,Win32,60.24096386,68242c07d0c0e200c6451fdd,,,,,,,,,,,623.0315,623.5286,,,623.7793,624.4145,right,0.6215,,,,,,,,,0.5,,,,,,623.5286,623.7792,624.4146,625.5134,0,162,162,117,1,,,,,,,
,,,,,,,65fb11fa63f6a4a129409026,6825337ab3c15539f08dd1b7,2025-05-15_03h25.04.608,cuing_paradigm_dot,2024.1.5,Win32,60.24096386,68242c07d0c0e200c6451fdd,,,,,,,,,,,625.5142,626.0138,,,626.261,626.7149,left,0.4354,,,,,,,,,0.45,,,,,,626.0139,626.261,626.715,627.8156,0,163,163,89,1,,,,,,,
,,,,,,,65fb11fa63f6a4a129409026,6825337ab3c15539f08dd1b7,2025-05-15_03h25.04.608,cuing_paradigm_dot,2024.1.5,Win32,60.24096386,68242c07d0c0e200c6451fdd,,,,,,,,,,,627.8169,628.3159,,,628.5614,629.1169,right,0.5363,,,,,,,,,0.6,,,,,,628.3159,628.5614,629.1172,630.2172,0,164,164,161,1,,,,,,,
,,,,,,,65fb11fa63f6a4a129409026,6825337ab3c15539f08dd1b7,2025-05-15_03h25.04.608,cuing_paradigm_dot,2024.1.5,Win32,60.24096386,68242c07d0c0e200c6451fdd,,,,,,,,,,,630.2184,630.7177,,,630.9688,631.502,left,0.5151,,,,,,,,,0.45,,,,,,630.7177,630.9687,631.5021,632.603,0,165,165,71,1,,,,,,,
,,,,,,,65fb11fa63f6a4a129409026,6825337ab3c15539f08dd1b7,2025-05-15_03h25.04.608,cuing_paradigm_dot,2024.1.5,Win32,60.24096386,68242c07d0c0e200c6451fdd,,,,,,,,,,,632.6044,633.1031,,,633.3547,633.9209,right,0.5485,,,,,,,,,0.6,,,,,,633.1032,633.3547,633.921,635.0214,0,166,166,174,1,,,,,,,
,,,,,,,65fb11fa63f6a4a129409026,6825337ab3c15539f08dd1b7,2025-05-15_03h25.04.608,cuing_paradigm_dot,2024.1.5,Win32,60.24096386,68242c07d0c0e200c6451fdd,,,,,,,,,,,635.0224,635.5217,,,635.7654,636.6909,right,0.9037,,,,,,,,,0.55,,,,,,635.5218,635.7654,636.6913,637.7903,0,167,167,121,1,,,,,,,
,,,,,,,65fb11fa63f6a4a129409026,6825337ab3c15539f08dd1b7,2025-05-15_03h25.04.608,cuing_paradigm_dot,2024.1.5,Win32,60.24096386,68242c07d0c0e200c6451fdd,,,,,,,,,,,637.792,638.2908,,,638.5361,639.1708,left,0.6182,,,,,,,,,0.4,,,,,,638.2909,638.5361,639.1711,640.2589,0,168,168,46,1,,,,,,,
,,,,,,,65fb11fa63f6a4a129409026,6825337ab3c15539f08dd1b7,2025-05-15_03h25.04.608,cuing_paradigm_dot,2024.1.5,Win32,60.24096386,68242c07d0c0e200c6451fdd,,,,,,,,,,,640.2604,640.7595,,,641.005,641.644,right,0.6221,,,,,,,,,0.55,,,,,,640.7595,641.0048,641.6442,642.7443,0,169,169,140,1,,,,,,,
,,,,,,,65fb11fa63f6a4a129409026,6825337ab3c15539f08dd1b7,2025-05-15_03h25.04.608,cuing_paradigm_dot,2024.1.5,Win32,60.24096386,68242c07d0c0e200c6451fdd,,,,,,,,,,,642.7457,643.245,,,643.4892,644.1137,left,0.6063,,,,,,,,,0.1,,,,,,643.245,643.4891,644.1139,645.2065,0,170,170,11,1,,,,,,,
,,,,,,,65fb11fa63f6a4a129409026,6825337ab3c15539f08dd1b7,2025-05-15_03h25.04.608,cuing_paradigm_dot,2024.1.5,Win32,60.24096386,68242c07d0c0e200c6451fdd,,,,,,,,,,,645.2075,645.6971,,,645.9423,646.9486,right,0.9855,,,,,,,,,0.45,,,,,,645.6972,645.9423,646.9489,648.0489,0,171,171,60,1,,,,,,,
,,,,,,,65fb11fa63f6a4a129409026,6825337ab3c15539f08dd1b7,2025-05-15_03h25.04.608,cuing_paradigm_dot,2024.1.5,Win32,60.24096386,68242c07d0c0e200c6451fdd,,,,,,,,,,,648.0511,648.5492,,,648.8001,649.3999,right,0.5815,,,,,,,,,0.9,,,,,,648.5493,648.8,649.4,650.5006,0,172,172,206,1,,,,,,,
,,,,,,,65fb11fa63f6a4a129409026,6825337ab3c15539f08dd1b7,2025-05-15_03h25.04.608,cuing_paradigm_dot,2024.1.5,Win32,60.24096386,68242c07d0c0e200c6451fdd,,,,,,,,,,,650.5018,651.0009,,,651.2465,652.1359,right,0.8703,,,,,,,,,0.55,,,,,,651.001,651.2464,652.1361,653.2365,0,173,173,145,1,,,,,,,
,,,,,,,65fb11fa63f6a4a129409026,6825337ab3c15539f08dd1b7,2025-05-15_03h25.04.608,cuing_paradigm_dot,2024.1.5,Win32,60.24096386,68242c07d0c0e200c6451fdd,,,,,,,,,,,653.2379,653.7369,,,653.9878,654.7041,left,0.7028,,,,,,,,,0.45,,,,,,653.7369,653.9877,654.7043,655.8052,0,174,174,78,1,,,,,,,
,,,,,,,65fb11fa63f6a4a129409026,6825337ab3c15539f08dd1b7,2025-05-15_03h25.04.608,cuing_paradigm_dot,2024.1.5,Win32,60.24096386,68242c07d0c0e200c6451fdd,,,,,,,,,,,655.8062,656.306,,,656.5463,657.3402,right,0.7789,,,,,,,,,0.6,,,,,,656.3061,656.5462,657.3406,658.4407,0,175,175,154,1,,,,,,,
,,,,,,,65fb11fa63f6a4a129409026,6825337ab3c15539f08dd1b7,2025-05-15_03h25.04.608,cuing_paradigm_dot,2024.1.5,Win32,60.24096386,68242c07d0c0e200c6451fdd,,,,,,,,,,,658.4423,658.9413,,,659.1918,659.976,left,0.7695,,,,,,,,,0.4,,,,,,658.9415,659.1918,659.9761,661.0759,0,176,176,33,1,,,,,,,
,,,,,,,65fb11fa63f6a4a129409026,6825337ab3c15539f08dd1b7,2025-05-15_03h25.04.608,cuing_paradigm_dot,2024.1.5,Win32,60.24096386,68242c07d0c0e200c6451fdd,,,,,,,,,,,661.0768,661.5764,,,661.8175,662.3611,right,0.5193,,,,,,,,,0.9,,,,,,661.5764,661.8173,662.3613,663.4615,0,177,177,181,1,,,,,,,
,,,,,,,65fb11fa63f6a4a129409026,6825337ab3c15539f08dd1b7,2025-05-15_03h25.04.608,cuing_paradigm_dot,2024.1.5,Win32,60.24096386,68242c07d0c0e200c6451fdd,,,,,,,,,,,663.4631,663.9622,,,664.2083,665.3655,right,1.141,,,,,,,,,0.45,,,,,,663.9622,664.2083,665.3659,666.4642,0,178,178,80,1,,,,,,,
,,,,,,,65fb11fa63f6a4a129409026,6825337ab3c15539f08dd1b7,2025-05-15_03h25.04.608,cuing_paradigm_dot,2024.1.5,Win32,60.24096386,68242c07d0c0e200c6451fdd,,,,,,,,,,,666.4658,666.9646,,,667.2092,667.8,left,0.5692,,,,,,,,,0.1,,,,,,666.9647,667.2091,667.8002,668.8994,0,179,179,7,1,,,,,,,
,,,,,,,65fb11fa63f6a4a129409026,6825337ab3c15539f08dd1b7,2025-05-15_03h25.04.608,cuing_paradigm_dot,2024.1.5,Win32,60.24096386,68242c07d0c0e200c6451fdd,,,,,,,,,,,668.9012,669.3999,,,669.6543,670.768,left,1.0999,,,,,,,,,0.5,,,,,,669.3999,669.6541,670.7682,671.8686,0,180,180,103,1,,,,,,,
,,,,,,,65fb11fa63f6a4a129409026,6825337ab3c15539f08dd1b7,2025-05-15_03h25.04.608,cuing_paradigm_dot,2024.1.5,Win32,60.24096386,68242c07d0c0e200c6451fdd,,,,,,,,,,,671.8697,672.369,,,672.6148,673.2531,right,0.6193,,,,,,,,,0.6,,,,,,672.3691,672.6147,673.2532,674.3539,0,181,181,159,1,,,,,,,
,,,,,,,65fb11fa63f6a4a129409026,6825337ab3c15539f08dd1b7,2025-05-15_03h25.04.608,cuing_paradigm_dot,2024.1.5,Win32,60.24096386,68242c07d0c0e200c6451fdd,,,,,,,,,,,674.3556,674.8544,,,675.1053,675.9568,right,0.8382,,,,,,,,,0.45,,,,,,674.8545,675.1053,675.9568,677.0559,0,182,182,75,1,,,,,,,
,,,,,,,65fb11fa63f6a4a129409026,6825337ab3c15539f08dd1b7,2025-05-15_03h25.04.608,cuing_paradigm_dot,2024.1.5,Win32,60.24096386,68242c07d0c0e200c6451fdd,,,,,,,,,,,677.0567,677.5563,,,677.8073,678.3739,right,0.5493,,,,,,,,,0.9,,,,,,677.5564,677.8072,678.374,679.4745,0,183,183,190,1,,,,,,,
,,,,,,,65fb11fa63f6a4a129409026,6825337ab3c15539f08dd1b7,2025-05-15_03h25.04.608,cuing_paradigm_dot,2024.1.5,Win32,60.24096386,68242c07d0c0e200c6451fdd,,,,,,,,,,,679.4757,679.9754,,,680.2263,680.7766,left,0.5342,,,,,,,,,0.1,,,,,,679.9755,680.2262,680.7768,681.8767,0,184,184,10,1,,,,,,,
,,,,,,,65fb11fa63f6a4a129409026,6825337ab3c15539f08dd1b7,2025-05-15_03h25.04.608,cuing_paradigm_dot,2024.1.5,Win32,60.24096386,68242c07d0c0e200c6451fdd,,,,,,,,,,,681.8788,682.3717,,,682.622,683.2617,right,0.6205,,,,,,,,,0.9,,,,,,682.3717,682.622,683.2619,684.3622,0,185,185,184,1,,,,,,,
,,,,,,,65fb11fa63f6a4a129409026,6825337ab3c15539f08dd1b7,2025-05-15_03h25.04.608,cuing_paradigm_dot,2024.1.5,Win32,60.24096386,68242c07d0c0e200c6451fdd,,,,,,,,,,,684.3636,684.8626,,,685.108,685.8641,left,0.7384,,,,,,,,,0.45,,,,,,684.8627,685.108,685.8642,686.9644,0,186,186,68,1,,,,,,,
,,,,,,,65fb11fa63f6a4a129409026,6825337ab3c15539f08dd1b7,2025-05-15_03h25.04.608,cuing_paradigm_dot,2024.1.5,Win32,60.24096386,68242c07d0c0e200c6451fdd,,,,,,,,,,,686.9663,687.4646,,,687.71,688.5952,right,0.869,,,,,,,,,0.6,,,,,,687.4647,687.71,688.5953,689.6833,0,187,187,172,1,,,,,,,
,,,,,,,65fb11fa63f6a4a129409026,6825337ab3c15539f08dd1b7,2025-05-15_03h25.04.608,cuing_paradigm_dot,2024.1.5,Win32,60.24096386,68242c07d0c0e200c6451fdd,,,,,,,,,,,689.6853,690.1835,,,690.4293,691.2684,right,0.8193,,,,,,,,,0.5,,,,,,690.1836,690.4291,691.2688,692.3688,0,188,188,94,1,,,,,,,
,,,,,,,65fb11fa63f6a4a129409026,6825337ab3c15539f08dd1b7,2025-05-15_03h25.04.608,cuing_paradigm_dot,2024.1.5,Win32,60.24096386,68242c07d0c0e200c6451fdd,,,,,,,,,,,692.3704,692.8691,,,693.1142,693.7037,left,0.57,,,,,,,,,0.1,,,,,,692.8692,693.1141,693.7039,694.804,0,189,189,4,1,,,,,,,
,,,,,,,65fb11fa63f6a4a129409026,6825337ab3c15539f08dd1b7,2025-05-15_03h25.04.608,cuing_paradigm_dot,2024.1.5,Win32,60.24096386,68242c07d0c0e200c6451fdd,,,,,,,,,,,694.8055,695.3044,,,695.5501,696.1561,left,0.5859,,,,,,,,,0.1,,,,,,695.3045,695.5501,696.1564,697.2561,0,190,190,2,1,,,,,,,
,,,,,,,65fb11fa63f6a4a129409026,6825337ab3c15539f08dd1b7,2025-05-15_03h25.04.608,cuing_paradigm_dot,2024.1.5,Win32,60.24096386,68242c07d0c0e200c6451fdd,,,,,,,,,,,697.2575,697.7608,,,698.0018,698.4908,right,0.4709,,,,,,,,,0.9,,,,,,697.7608,698.0017,698.491,699.5913,0,191,191,182,1,,,,,,,
,,,,,,,65fb11fa63f6a4a129409026,6825337ab3c15539f08dd1b7,2025-05-15_03h25.04.608,cuing_paradigm_dot,2024.1.5,Win32,60.24096386,68242c07d0c0e200c6451fdd,,,,,,,,,,,699.5928,700.0918,,,700.3425,701.1594,right,0.8027,,,,,,,,,0.4,,,,,,700.0919,700.3425,701.1596,702.2599,0,192,192,40,1,,,,,,,
,,,,,,,65fb11fa63f6a4a129409026,6825337ab3c15539f08dd1b7,2025-05-15_03h25.04.608,cuing_paradigm_dot,2024.1.5,Win32,60.24096386,68242c07d0c0e200c6451fdd,,,,,,,,,,,702.2608,702.7603,,,703.0115,703.7949,left,0.768,,,,,,,,,0.5,,,,,,702.7604,703.0115,703.7949,704.8955,0,193,193,105,1,,,,,,,
,,,,,,,65fb11fa63f6a4a129409026,6825337ab3c15539f08dd1b7,2025-05-15_03h25.04.608,cuing_paradigm_dot,2024.1.5,Win32,60.24096386,68242c07d0c0e200c6451fdd,,,,,,,,,,,704.8964,705.3959,,,705.6398,706.3974,left,0.7382,,,,,,,,,0.4,,,,,,705.396,705.6398,706.3977,707.498,0,194,194,51,1,,,,,,,
,,,,,,,65fb11fa63f6a4a129409026,6825337ab3c15539f08dd1b7,2025-05-15_03h25.04.608,cuing_paradigm_dot,2024.1.5,Win32,60.24096386,68242c07d0c0e200c6451fdd,,,,,,,,,,,707.4997,707.9985,,,708.2379,709.0335,right,0.7691,,,,,,,,,0.45,,,,,,707.9987,708.2379,709.0336,710.1332,0,195,195,81,1,,,,,,,
,,,,,,,65fb11fa63f6a4a129409026,6825337ab3c15539f08dd1b7,2025-05-15_03h25.04.608,cuing_paradigm_dot,2024.1.5,Win32,60.24096386,68242c07d0c0e200c6451fdd,,,,,,,,,,,710.1352,710.6339,,,710.8846,711.9014,left,0.999,,,,,,,,,0.4,,,,,,710.6339,710.8845,711.9014,713.0022,0,196,196,35,1,,,,,,,
,,,,,,,65fb11fa63f6a4a129409026,6825337ab3c15539f08dd1b7,2025-05-15_03h25.04.608,cuing_paradigm_dot,2024.1.5,Win32,60.24096386,68242c07d0c0e200c6451fdd,,,,,,,,,,,713.003,713.5025,,,713.7471,714.7378,right,0.9701,,,,,,,,,0.55,,,,,,713.5027,713.747,714.7379,715.8381,0,197,197,130,1,,,,,,,
,,,,,,,65fb11fa63f6a4a129409026,6825337ab3c15539f08dd1b7,2025-05-15_03h25.04.608,cuing_paradigm_dot,2024.1.5,Win32,60.24096386,68242c07d0c0e200c6451fdd,,,,,,,,,,,715.8399,716.3384,,,716.5892,717.2562,right,0.6486,,,,,,,,,0.55,,,,,,716.3385,716.5891,717.2563,718.3568,0,198,198,123,1,,,,,,,
,,,,,,,65fb11fa63f6a4a129409026,6825337ab3c15539f08dd1b7,2025-05-15_03h25.04.608,cuing_paradigm_dot,2024.1.5,Win32,60.24096386,68242c07d0c0e200c6451fdd,,,,,,,,,,,718.3582,718.8573,,,719.1015,720.0085,left,0.8887,,,,,,,,,0.45,,,,,,718.8574,719.1014,720.0087,721.1094,0,199,199,72,1,,,,,,,
,,,,,,,65fb11fa63f6a4a129409026,6825337ab3c15539f08dd1b7,2025-05-15_03h25.04.608,cuing_paradigm_dot,2024.1.5,Win32,60.24096386,68242c07d0c0e200c6451fdd,,,,,,,,,,,721.1115,721.6097,,,721.8604,722.5937,right,0.715,,,,,,,,,0.6,,,,,,721.6098,721.8603,722.5938,723.6944,0,200,200,157,1,,,,,,,
,,,,,,,65fb11fa63f6a4a129409026,6825337ab3c15539f08dd1b7,2025-05-15_03h25.04.608,cuing_paradigm_dot,2024.1.5,Win32,60.24096386,68242c07d0c0e200c6451fdd,,,,,,,,,,,723.6955,724.1948,,,724.4458,725.6629,right,1.1995,,,,,,,,,0.6,,,,,,724.1948,724.4457,725.663,726.7635,0,201,201,150,1,,,,,,,
,,,,,,,65fb11fa63f6a4a129409026,6825337ab3c15539f08dd1b7,2025-05-15_03h25.04.608,cuing_paradigm_dot,2024.1.5,Win32,60.24096386,68242c07d0c0e200c6451fdd,,,,,,,,,,,726.7643,727.264,,,727.5118,728.4018,left,0.8743,,,,,,,,,0.4,,,,,,727.264,727.5117,728.4018,729.4994,0,202,202,37,1,,,,,,,
,,,,,,,65fb11fa63f6a4a129409026,6825337ab3c15539f08dd1b7,2025-05-15_03h25.04.608,cuing_paradigm_dot,2024.1.5,Win32,60.24096386,68242c07d0c0e200c6451fdd,,,,,,,,,,,729.5013,729.9997,,,730.251,730.9341,right,0.6691,,,,,,,,,0.55,,,,,,729.9998,730.2508,730.9342,732.0345,0,203,203,141,1,,,,,,,
,,,,,,,65fb11fa63f6a4a129409026,6825337ab3c15539f08dd1b7,2025-05-15_03h25.04.608,cuing_paradigm_dot,2024.1.5,Win32,60.24096386,68242c07d0c0e200c6451fdd,,,,,,,,,,,732.0357,732.535,,,732.7841,733.6087,right,0.8114,,,,,,,,,0.55,,,,,,732.535,732.7841,733.6087,734.7037,0,204,204,138,1,,,,,,,
,,,,,,,65fb11fa63f6a4a129409026,6825337ab3c15539f08dd1b7,2025-05-15_03h25.04.608,cuing_paradigm_dot,2024.1.5,Win32,60.24096386,68242c07d0c0e200c6451fdd,,,,,,,,,,,734.7053,735.2041,,,735.4548,736.2051,right,0.7313,,,,,,,,,0.6,,,,,,735.2043,735.4548,736.2051,737.3057,0,205,205,168,1,,,,,,,
,,,,,,,65fb11fa63f6a4a129409026,6825337ab3c15539f08dd1b7,2025-05-15_03h25.04.608,cuing_paradigm_dot,2024.1.5,Win32,60.24096386,68242c07d0c0e200c6451fdd,,,,,,,,,,,737.3067,737.806,,,738.0516,738.8074,left,0.7364,,,,,,,,,0.5,,,,,,737.806,738.0516,738.8076,739.908,0,206,206,91,1,,,,,,,
,,,,,,,65fb11fa63f6a4a129409026,6825337ab3c15539f08dd1b7,2025-05-15_03h25.04.608,cuing_paradigm_dot,2024.1.5,Win32,60.24096386,68242c07d0c0e200c6451fdd,,,,,,,,,,,739.91,740.4082,,,740.6534,741.5774,left,0.9029,,,,,,,,,0.4,,,,,,740.4084,740.6534,741.5776,742.6769,0,207,207,31,1,,,,,,,
,,,,,,,65fb11fa63f6a4a129409026,6825337ab3c15539f08dd1b7,2025-05-15_03h25.04.608,cuing_paradigm_dot,2024.1.5,Win32,60.24096386,68242c07d0c0e200c6451fdd,,,,,,,,,,,742.6787,743.1774,,,743.4226,744.7293,left,1.2861,,,,,,,,,0.45,,,,,,743.1775,743.4226,744.7298,745.8295,0,208,208,67,1,,,,,,,
,,,,,,,65fb11fa63f6a4a129409026,6825337ab3c15539f08dd1b7,2025-05-15_03h25.04.608,cuing_paradigm_dot,2024.1.5,Win32,60.24096386,68242c07d0c0e200c6451fdd,,,,,,,,,,,745.8309,746.3299,,,746.5774,747.5314,right,0.9374,,,,,,,,,0.6,,,,,,746.33,746.5773,747.5316,748.6319,0,209,209,170,1,,,,,,,
,,,,,,,65fb11fa63f6a4a129409026,6825337ab3c15539f08dd1b7,2025-05-15_03h25.04.608,cuing_paradigm_dot,2024.1.5,Win32,60.24096386,68242c07d0c0e200c6451fdd,,,,,,,,,,,,,,,,,,,,,,,,,,,,,,,,,,,,,,,,,,748.6339,808.6317,,,,,
,,,,,,,65fb11fa63f6a4a129409026,6825337ab3c15539f08dd1b7,2025-05-15_03h25.04.608,cuing_paradigm_dot,2024.1.5,Win32,60.24096386,68242c07d0c0e200c6451fdd,,,,,,,,,,,808.6897,809.148,,,809.3929,810.0831,right,0.6702,,,,,,,,,0.9,,,,,,809.1481,809.3928,810.0833,811.1833,,,,,,,,0,0,0,200,1
,,,,,,,65fb11fa63f6a4a129409026,6825337ab3c15539f08dd1b7,2025-05-15_03h25.04.608,cuing_paradigm_dot,2024.1.5,Win32,60.24096386,68242c07d0c0e200c6451fdd,,,,,,,,,,,811.1854,811.6837,,,811.9289,812.8181,left,0.8702,,,,,,,,,0.45,,,,,,811.6838,811.9289,812.8182,813.9296,,,,,,,,0,1,1,66,1
,,,,,,,65fb11fa63f6a4a129409026,6825337ab3c15539f08dd1b7,2025-05-15_03h25.04.608,cuing_paradigm_dot,2024.1.5,Win32,60.24096386,68242c07d0c0e200c6451fdd,,,,,,,,,,,813.9304,814.4298,,,814.6786,815.3376,right,0.6352,,,,,,,,,0.5,,,,,,814.4298,814.6786,815.3379,816.4376,,,,,,,,0,2,2,112,1
,,,,,,,65fb11fa63f6a4a129409026,6825337ab3c15539f08dd1b7,2025-05-15_03h25.04.608,cuing_paradigm_dot,2024.1.5,Win32,60.24096386,68242c07d0c0e200c6451fdd,,,,,,,,,,,816.4389,816.9381,,,817.1891,818.0389,left,0.8323,,,,,,,,,0.4,,,,,,816.9382,817.189,818.039,819.1396,,,,,,,,0,3,3,34,1
,,,,,,,65fb11fa63f6a4a129409026,6825337ab3c15539f08dd1b7,2025-05-15_03h25.04.608,cuing_paradigm_dot,2024.1.5,Win32,60.24096386,68242c07d0c0e200c6451fdd,,,,,,,,,,,819.1406,819.64,,,819.8912,820.758,right,0.8487,,,,,,,,,0.5,,,,,,819.6401,819.8912,820.758,821.8585,,,,,,,,0,4,4,117,1
,,,,,,,65fb11fa63f6a4a129409026,6825337ab3c15539f08dd1b7,2025-05-15_03h25.04.608,cuing_paradigm_dot,2024.1.5,Win32,60.24096386,68242c07d0c0e200c6451fdd,,,,,,,,,,,821.8596,822.3589,,,822.6101,823.3269,right,0.6985,,,,,,,,,0.55,,,,,,822.3589,822.61,823.3269,824.4274,,,,,,,,0,5,5,122,1
,,,,,,,65fb11fa63f6a4a129409026,6825337ab3c15539f08dd1b7,2025-05-15_03h25.04.608,cuing_paradigm_dot,2024.1.5,Win32,60.24096386,68242c07d0c0e200c6451fdd,,,,,,,,,,,824.4284,824.9277,,,825.1788,825.7618,right,0.5647,,,,,,,,,0.9,,,,,,824.9277,825.1787,825.7619,826.8627,,,,,,,,0,6,6,206,1
,,,,,,,65fb11fa63f6a4a129409026,6825337ab3c15539f08dd1b7,2025-05-15_03h25.04.608,cuing_paradigm_dot,2024.1.5,Win32,60.24096386,68242c07d0c0e200c6451fdd,,,,,,,,,,,826.8636,827.363,,,827.614,828.3642,right,0.733,,,,,,,,,0.5,,,,,,827.363,827.614,828.3644,829.4648,,,,,,,,0,7,7,109,1
,,,,,,,65fb11fa63f6a4a129409026,6825337ab3c15539f08dd1b7,2025-05-15_03h25.04.608,cuing_paradigm_dot,2024.1.5,Win32,60.24096386,68242c07d0c0e200c6451fdd,,,,,,,,,,,829.4658,829.9652,,,830.2097,831.0498,left,0.8218,,,,,,,,,0.4,,,,,,829.9653,830.2097,831.0499,832.1504,,,,,,,,0,8,8,39,1
,,,,,,,65fb11fa63f6a4a129409026,6825337ab3c15539f08dd1b7,2025-05-15_03h25.04.608,cuing_paradigm_dot,2024.1.5,Win32,60.24096386,68242c07d0c0e200c6451fdd,,,,,,,,,,,832.1515,832.6507,,,832.896,833.3852,right,0.4693,,,,,,,,,0.9,,,,,,832.6507,832.896,833.3853,834.4857,,,,,,,,0,9,9,181,1
,,,,,,,65fb11fa63f6a4a129409026,6825337ab3c15539f08dd1b7,2025-05-15_03h25.04.608,cuing_paradigm_dot,2024.1.5,Win32,60.24096386,68242c07d0c0e200c6451fdd,,,,,,,,,,,834.4868,834.9863,,,835.2314,835.9594,left,0.7118,,,,,,,,,0.4,,,,,,834.9864,835.2314,835.9595,837.059,,,,,,,,0,10,10,30,1
,,,,,,,65fb11fa63f6a4a129409026,6825337ab3c15539f08dd1b7,2025-05-15_03h25.04.608,cuing_paradigm_dot,2024.1.5,Win32,60.24096386,68242c07d0c0e200c6451fdd,,,,,,,,,,,837.0598,837.5553,,,837.7997,838.4756,left,0.6576,,,,,,,,,0.1,,,,,,837.5554,837.7997,838.4759,839.5735,,,,,,,,0,11,11,29,1
,,,,,,,65fb11fa63f6a4a129409026,6825337ab3c15539f08dd1b7,2025-05-15_03h25.04.608,cuing_paradigm_dot,2024.1.5,Win32,60.24096386,68242c07d0c0e200c6451fdd,,,,,,,,,,,839.5748,840.0844,,,840.3247,841.0419,left,0.6989,,,,,,,,,0.1,,,,,,840.0844,840.3246,841.042,842.1419,,,,,,,,0,12,12,24,1
,,,,,,,65fb11fa63f6a4a129409026,6825337ab3c15539f08dd1b7,2025-05-15_03h25.04.608,cuing_paradigm_dot,2024.1.5,Win32,60.24096386,68242c07d0c0e200c6451fdd,,,,,,,,,,,842.143,842.6426,,,842.8858,843.5453,left,0.6403,,,,,,,,,0.5,,,,,,842.6427,842.8858,843.5455,844.6442,,,,,,,,0,13,13,95,1
,,,,,,,65fb11fa63f6a4a129409026,6825337ab3c15539f08dd1b7,2025-05-15_03h25.04.608,cuing_paradigm_dot,2024.1.5,Win32,60.24096386,68242c07d0c0e200c6451fdd,,,,,,,,,,,844.6459,845.1448,,,845.3898,846.1795,left,0.7693,,,,,,,,,0.4,,,,,,845.1449,845.3898,846.1797,847.2798,,,,,,,,0,14,14,55,1
,,,,,,,65fb11fa63f6a4a129409026,6825337ab3c15539f08dd1b7,2025-05-15_03h25.04.608,cuing_paradigm_dot,2024.1.5,Win32,60.24096386,68242c07d0c0e200c6451fdd,,,,,,,,,,,847.2815,847.7804,,,848.0253,848.7819,left,0.7406,,,,,,,,,0.55,,,,,,847.7804,848.0252,848.7824,849.882,,,,,,,,0,15,15,120,1
,,,,,,,65fb11fa63f6a4a129409026,6825337ab3c15539f08dd1b7,2025-05-15_03h25.04.608,cuing_paradigm_dot,2024.1.5,Win32,60.24096386,68242c07d0c0e200c6451fdd,,,,,,,,,,,849.8833,850.3823,,,850.6255,851.1899,right,0.5466,,,,,,,,,0.9,,,,,,850.3824,850.6255,851.19,852.284,,,,,,,,0,16,16,180,1
,,,,,,,65fb11fa63f6a4a129409026,6825337ab3c15539f08dd1b7,2025-05-15_03h25.04.608,cuing_paradigm_dot,2024.1.5,Win32,60.24096386,68242c07d0c0e200c6451fdd,,,,,,,,,,,852.2859,852.7955,,,853.0469,853.6854,right,0.6205,,,,,,,,,0.55,,,,,,852.7955,853.0469,853.6856,854.7861,,,,,,,,0,17,17,135,1
,,,,,,,65fb11fa63f6a4a129409026,6825337ab3c15539f08dd1b7,2025-05-15_03h25.04.608,cuing_paradigm_dot,2024.1.5,Win32,60.24096386,68242c07d0c0e200c6451fdd,,,,,,,,,,,854.7876,855.2864,,,855.5319,856.071,left,0.5188,,,,,,,,,0.1,,,,,,855.2865,855.5319,856.0713,857.1712,,,,,,,,0,18,18,2,1
,,,,,,,65fb11fa63f6a4a129409026,6825337ab3c15539f08dd1b7,2025-05-15_03h25.04.608,cuing_paradigm_dot,2024.1.5,Win32,60.24096386,68242c07d0c0e200c6451fdd,,,,,,,,,,,857.1725,857.6715,,,857.9242,858.6396,right,0.6969,,,,,,,,,0.6,,,,,,857.6716,857.9241,858.6396,859.7401,,,,,,,,0,19,19,171,1
,,,,,,,65fb11fa63f6a4a129409026,6825337ab3c15539f08dd1b7,2025-05-15_03h25.04.608,cuing_paradigm_dot,2024.1.5,Win32,60.24096386,68242c07d0c0e200c6451fdd,,,,,,,,,,,859.7408,860.2406,,,860.484,861.3416,right,0.8355,,,,,,,,,0.5,,,,,,860.2406,860.4839,861.3417,862.4426,,,,,,,,0,20,20,91,1
,,,,,,,65fb11fa63f6a4a129409026,6825337ab3c15539f08dd1b7,2025-05-15_03h25.04.608,cuing_paradigm_dot,2024.1.5,Win32,60.24096386,68242c07d0c0e200c6451fdd,,,,,,,,,,,862.4443,862.9428,,,863.1935,863.9438,right,0.7314,,,,,,,,,0.9,,,,,,862.9429,863.1934,863.944,865.0443,,,,,,,,0,21,21,205,1
,,,,,,,65fb11fa63f6a4a129409026,6825337ab3c15539f08dd1b7,2025-05-15_03h25.04.608,cuing_paradigm_dot,2024.1.5,Win32,60.24096386,68242c07d0c0e200c6451fdd,,,,,,,,,,,865.0451,865.5445,,,865.7909,866.4962,right,0.686,,,,,,,,,0.4,,,,,,865.5445,865.7908,866.4964,867.5966,,,,,,,,0,22,22,40,1
,,,,,,,65fb11fa63f6a4a129409026,6825337ab3c15539f08dd1b7,2025-05-15_03h25.04.608,cuing_paradigm_dot,2024.1.5,Win32,60.24096386,68242c07d0c0e200c6451fdd,,,,,,,,,,,867.5979,868.097,,,868.3477,868.8814,left,0.5166,,,,,,,,,0.1,,,,,,868.097,868.3476,868.8818,869.982,,,,,,,,0,23,23,13,1
,,,,,,,65fb11fa63f6a4a129409026,6825337ab3c15539f08dd1b7,2025-05-15_03h25.04.608,cuing_paradigm_dot,2024.1.5,Win32,60.24096386,68242c07d0c0e200c6451fdd,,,,,,,,,,,869.9839,870.4823,,,870.7269,871.6517,right,0.9079,,,,,,,,,0.6,,,,,,870.4823,870.7268,871.652,872.7508,,,,,,,,0,24,24,158,1
,,,,,,,65fb11fa63f6a4a129409026,6825337ab3c15539f08dd1b7,2025-05-15_03h25.04.608,cuing_paradigm_dot,2024.1.5,Win32,60.24096386,68242c07d0c0e200c6451fdd,,,,,,,,,,,872.7524,873.2511,,,873.4969,874.4023,right,0.8861,,,,,,,,,0.4,,,,,,873.2512,873.4969,874.4025,875.4969,,,,,,,,0,25,25,43,1
,,,,,,,65fb11fa63f6a4a129409026,6825337ab3c15539f08dd1b7,2025-05-15_03h25.04.608,cuing_paradigm_dot,2024.1.5,Win32,60.24096386,68242c07d0c0e200c6451fdd,,,,,,,,,,,875.4977,875.9972,,,876.2485,877.3883,left,1.1196,,,,,,,,,0.6,,,,,,875.9972,876.2484,877.3884,878.4893,,,,,,,,0,26,26,160,1
,,,,,,,65fb11fa63f6a4a129409026,6825337ab3c15539f08dd1b7,2025-05-15_03h25.04.608,cuing_paradigm_dot,2024.1.5,Win32,60.24096386,68242c07d0c0e200c6451fdd,,,,,,,,,,,878.4911,878.9991,,,879.2469,880.0121,right,0.7452,,,,,,,,,0.45,,,,,,878.9991,879.2468,880.0123,881.1076,,,,,,,,0,27,27,60,1
,,,,,,,65fb11fa63f6a4a129409026,6825337ab3c15539f08dd1b7,2025-05-15_03h25.04.608,cuing_paradigm_dot,2024.1.5,Win32,60.24096386,68242c07d0c0e200c6451fdd,,,,,,,,,,,881.109,881.6079,,,881.8536,882.7259,left,0.8522,,,,,,,,,0.45,,,,,,881.608,881.8536,882.7259,883.8268,,,,,,,,0,28,28,69,1
,,,,,,,65fb11fa63f6a4a129409026,6825337ab3c15539f08dd1b7,2025-05-15_03h25.04.608,cuing_paradigm_dot,2024.1.5,Win32,60.24096386,68242c07d0c0e200c6451fdd,,,,,,,,,,,883.8282,884.327,,,884.5715,885.1171,right,0.529,,,,,,,,,0.9,,,,,,884.3271,884.5714,885.1171,886.2119,,,,,,,,0,29,29,189,1
,,,,,,,65fb11fa63f6a4a129409026,6825337ab3c15539f08dd1b7,2025-05-15_03h25.04.608,cuing_paradigm_dot,2024.1.5,Win32,60.24096386,68242c07d0c0e200c6451fdd,,,,,,,,,,,886.2133,886.7123,,,886.9632,887.613,left,0.6353,,,,,,,,,0.1,,,,,,886.7124,886.9631,887.6131,888.7136,,,,,,,,0,30,30,28,1
,,,,,,,65fb11fa63f6a4a129409026,6825337ab3c15539f08dd1b7,2025-05-15_03h25.04.608,cuing_paradigm_dot,2024.1.5,Win32,60.24096386,68242c07d0c0e200c6451fdd,,,,,,,,,,,888.7147,889.214,,,889.4651,890.1485,right,0.6648,,,,,,,,,0.5,,,,,,889.2141,889.465,890.1486,891.2491,,,,,,,,0,31,31,104,1
,,,,,,,65fb11fa63f6a4a129409026,6825337ab3c15539f08dd1b7,2025-05-15_03h25.04.608,cuing_paradigm_dot,2024.1.5,Win32,60.24096386,68242c07d0c0e200c6451fdd,,,,,,,,,,,891.2498,891.7495,,,892.0007,892.7508,left,0.7321,,,,,,,,,0.4,,,,,,891.7496,892.0005,892.7509,893.8514,,,,,,,,0,32,32,37,1
,,,,,,,65fb11fa63f6a4a129409026,6825337ab3c15539f08dd1b7,2025-05-15_03h25.04.608,cuing_paradigm_dot,2024.1.5,Win32,60.24096386,68242c07d0c0e200c6451fdd,,,,,,,,,,,893.8522,894.3517,,,894.6028,895.3694,left,0.7524,,,,,,,,,0.55,,,,,,894.3517,894.6026,895.3695,896.47,,,,,,,,0,33,33,133,1
,,,,,,,65fb11fa63f6a4a129409026,6825337ab3c15539f08dd1b7,2025-05-15_03h25.04.608,cuing_paradigm_dot,2024.1.5,Win32,60.24096386,68242c07d0c0e200c6451fdd,,,,,,,,,,,896.4708,896.9706,,,897.2158,898.1339,right,0.9021,,,,,,,,,0.55,,,,,,896.9707,897.2157,898.1339,899.2225,,,,,,,,0,34,34,138,1
,,,,,,,65fb11fa63f6a4a129409026,6825337ab3c15539f08dd1b7,2025-05-15_03h25.04.608,cuing_paradigm_dot,2024.1.5,Win32,60.24096386,68242c07d0c0e200c6451fdd,,,,,,,,,,,899.224,899.7271,,,899.9776,900.459,right,0.4697,,,,,,,,,0.9,,,,,,899.7272,899.9775,900.4591,901.5578,,,,,,,,0,35,35,198,1
,,,,,,,65fb11fa63f6a4a129409026,6825337ab3c15539f08dd1b7,2025-05-15_03h25.04.608,cuing_paradigm_dot,2024.1.5,Win32,60.24096386,68242c07d0c0e200c6451fdd,,,,,,,,,,,901.5587,902.0581,,,902.3043,903.0148,left,0.6957,,,,,,,,,0.4,,,,,,902.0582,902.3042,903.0149,904.11,,,,,,,,0,36,36,50,1
,,,,,,,65fb11fa63f6a4a129409026,6825337ab3c15539f08dd1b7,2025-05-15_03h25.04.608,cuing_paradigm_dot,2024.1.5,Win32,60.24096386,68242c07d0c0e200c6451fdd,,,,,,,,,,,904.1113,904.6042,,,904.845,905.6779,right,0.8184,,,,,,,,,0.45,,,,,,904.6042,904.8449,905.678,906.7786,,,,,,,,0,37,37,81,1
,,,,,,,65fb11fa63f6a4a129409026,6825337ab3c15539f08dd1b7,2025-05-15_03h25.04.608,cuing_paradigm_dot,2024.1.5,Win32,60.24096386,68242c07d0c0e200c6451fdd,,,,,,,,,,,906.7798,907.2789,,,907.5253,908.3979,right,0.8523,,,,,,,,,0.5,,,,,,907.279,907.5253,908.398,909.498,,,,,,,,0,38,38,105,1
,,,,,,,65fb11fa63f6a4a129409026,6825337ab3c15539f08dd1b7,2025-05-15_03h25.04.608,cuing_paradigm_dot,2024.1.5,Win32,60.24096386,68242c07d0c0e200c6451fdd,,,,,,,,,,,909.4994,909.9981,,,910.2489,910.8832,right,0.6198,,,,,,,,,0.45,,,,,,909.9982,910.2489,910.8833,911.9828,,,,,,,,0,39,39,82,1
,,,,,,,65fb11fa63f6a4a129409026,6825337ab3c15539f08dd1b7,2025-05-15_03h25.04.608,cuing_paradigm_dot,2024.1.5,Win32,60.24096386,68242c07d0c0e200c6451fdd,,,,,,,,,,,911.9837,912.4832,,,912.7283,913.9684,left,1.2193,,,,,,,,,0.5,,,,,,912.4833,912.7282,913.9685,915.0569,,,,,,,,0,40,40,101,1
,,,,,,,65fb11fa63f6a4a129409026,6825337ab3c15539f08dd1b7,2025-05-15_03h25.04.608,cuing_paradigm_dot,2024.1.5,Win32,60.24096386,68242c07d0c0e200c6451fdd,,,,,,,,,,,915.0587,915.5529,,,915.7974,916.8878,left,1.0694,,,,,,,,,0.4,,,,,,915.5529,915.7973,916.888,917.9881,,,,,,,,0,41,41,56,1
,,,,,,,65fb11fa63f6a4a129409026,6825337ab3c15539f08dd1b7,2025-05-15_03h25.04.608,cuing_paradigm_dot,2024.1.5,Win32,60.24096386,68242c07d0c0e200c6451fdd,,,,,,,,,,,917.9893,918.4886,,,918.7418,919.4404,right,0.6827,,,,,,,,,0.9,,,,,,918.4886,918.7416,919.4406,920.5401,,,,,,,,0,42,42,209,1
,,,,,,,65fb11fa63f6a4a129409026,6825337ab3c15539f08dd1b7,2025-05-15_03h25.04.608,cuing_paradigm_dot,2024.1.5,Win32,60.24096386,68242c07d0c0e200c6451fdd,,,,,,,,,,,920.5414,921.0405,,,921.2847,922.1418,left,0.8361,,,,,,,,,0.4,,,,,,921.0405,921.2847,922.142,923.2424,,,,,,,,0,43,43,35,1
,,,,,,,65fb11fa63f6a4a129409026,6825337ab3c15539f08dd1b7,2025-05-15_03h25.04.608,cuing_paradigm_dot,2024.1.5,Win32,60.24096386,68242c07d0c0e200c6451fdd,,,,,,,,,,,923.2435,923.7429,,,923.9939,924.8603,left,0.8528,,,,,,,,,0.5,,,,,,923.743,923.9938,924.8604,925.961,,,,,,,,0,44,44,103,1
,,,,,,,65fb11fa63f6a4a129409026,6825337ab3c15539f08dd1b7,2025-05-15_03h25.04.608,cuing_paradigm_dot,2024.1.5,Win32,60.24096386,68242c07d0c0e200c6451fdd,,,,,,,,,,,925.9619,926.4615,,,926.7126,927.3961,left,0.6661,,,,,,,,,0.1,,,,,,926.4616,926.7125,927.3962,928.4966,,,,,,,,0,45,45,9,1
,,,,,,,65fb11fa63f6a4a129409026,6825337ab3c15539f08dd1b7,2025-05-15_03h25.04.608,cuing_paradigm_dot,2024.1.5,Win32,60.24096386,68242c07d0c0e200c6451fdd,,,,,,,,,,,928.4978,928.9971,,,929.2415,929.7815,right,0.5218,,,,,,,,,0.6,,,,,,928.9973,929.2414,929.7816,930.8821,,,,,,,,0,46,46,156,1
,,,,,,,65fb11fa63f6a4a129409026,6825337ab3c15539f08dd1b7,2025-05-15_03h25.04.608,cuing_paradigm_dot,2024.1.5,Win32,60.24096386,68242c07d0c0e200c6451fdd,,,,,,,,,,,930.8837,931.3866,,,931.6257,932.5674,left,0.9198,,,,,,,,,0.4,,,,,,931.3867,931.6256,932.5675,933.6676,,,,,,,,0,47,47,41,1
,,,,,,,65fb11fa63f6a4a129409026,6825337ab3c15539f08dd1b7,2025-05-15_03h25.04.608,cuing_paradigm_dot,2024.1.5,Win32,60.24096386,68242c07d0c0e200c6451fdd,,,,,,,,,,,933.6692,934.1682,,,934.4189,935.0022,left,0.5686,,,,,,,,,0.1,,,,,,934.1682,934.4188,935.0024,936.1027,,,,,,,,0,48,48,14,1
,,,,,,,65fb11fa63f6a4a129409026,6825337ab3c15539f08dd1b7,2025-05-15_03h25.04.608,cuing_paradigm_dot,2024.1.5,Win32,60.24096386,68242c07d0c0e200c6451fdd,,,,,,,,,,,936.1036,936.6032,,,936.8482,937.3876,right,0.5211,,,,,,,,,0.9,,,,,,936.6032,936.8481,937.3878,938.4885,,,,,,,,0,49,49,183,1
,,,,,,,65fb11fa63f6a4a129409026,6825337ab3c15539f08dd1b7,2025-05-15_03h25.04.608,cuing_paradigm_dot,2024.1.5,Win32,60.24096386,68242c07d0c0e200c6451fdd,,,,,,,,,,,938.4903,938.9888,,,939.2394,939.7561,left,0.498,,,,,,,,,0.1,,,,,,938.9888,939.2394,939.7563,940.8568,,,,,,,,0,50,50,16,1
,,,,,,,65fb11fa63f6a4a129409026,6825337ab3c15539f08dd1b7,2025-05-15_03h25.04.608,cuing_paradigm_dot,2024.1.5,Win32,60.24096386,68242c07d0c0e200c6451fdd,,,,,,,,,,,940.8579,941.3571,,,941.6083,942.2081,right,0.5811,,,,,,,,,0.55,,,,,,941.3571,941.6083,942.2082,943.3087,,,,,,,,0,51,51,128,1
,,,,,,,65fb11fa63f6a4a129409026,6825337ab3c15539f08dd1b7,2025-05-15_03h25.04.608,cuing_paradigm_dot,2024.1.5,Win32,60.24096386,68242c07d0c0e200c6451fdd,,,,,,,,,,,943.3097,943.8093,,,944.0604,944.9272,left,0.8486,,,,,,,,,0.4,,,,,,943.8093,944.0604,944.9272,946.0276,,,,,,,,0,52,52,54,1
,,,,,,,65fb11fa63f6a4a129409026,6825337ab3c15539f08dd1b7,2025-05-15_03h25.04.608,cuing_paradigm_dot,2024.1.5,Win32,60.24096386,68242c07d0c0e200c6451fdd,,,,,,,,,,,946.0285,946.528,,,946.7732,947.6132,left,0.8193,,,,,,,,,0.4,,,,,,946.5281,946.7731,947.6133,948.7135,,,,,,,,0,53,53,51,1
,,,,,,,65fb11fa63f6a4a129409026,6825337ab3c15539f08dd1b7,2025-05-15_03h25.04.608,cuing_paradigm_dot,2024.1.5,Win32,60.24096386,68242c07d0c0e200c6451fdd,,,,,,,,,,,948.7149,949.2138,,,949.4645,950.4814,right,1.0023,,,,,,,,,0.55,,,,,,949.214,949.4643,950.4815,951.5822,,,,,,,,0,54,54,139,1
,,,,,,,65fb11fa63f6a4a129409026,6825337ab3c15539f08dd1b7,2025-05-15_03h25.04.608,cuing_paradigm_dot,2024.1.5,Win32,60.24096386,68242c07d0c0e200c6451fdd,,,,,,,,,,,951.5829,952.0827,,,952.3337,953.0669,left,0.7152,,,,,,,,,0.4,,,,,,952.0827,952.3337,953.067,954.1677,,,,,,,,0,55,55,57,1
,,,,,,,65fb11fa63f6a4a129409026,6825337ab3c15539f08dd1b7,2025-05-15_03h25.04.608,cuing_paradigm_dot,2024.1.5,Win32,60.24096386,68242c07d0c0e200c6451fdd,,,,,,,,,,,954.1684,954.668,,,954.9133,955.4365,left,0.5063,,,,,,,,,0.1,,,,,,954.6681,954.9132,955.4366,956.5368,,,,,,,,0,56,56,21,1
,,,,,,,65fb11fa63f6a4a129409026,6825337ab3c15539f08dd1b7,2025-05-15_03h25.04.608,cuing_paradigm_dot,2024.1.5,Win32,60.24096386,68242c07d0c0e200c6451fdd,,,,,,,,,,,956.5382,957.037,,,957.2877,957.8711,right,0.5695,,,,,,,,,0.5,,,,,,957.037,957.2876,957.8713,958.9717,,,,,,,,0,57,57,111,1
,,,,,,,65fb11fa63f6a4a129409026,6825337ab3c15539f08dd1b7,2025-05-15_03h25.04.608,cuing_paradigm_dot,2024.1.5,Win32,60.24096386,68242c07d0c0e200c6451fdd,,,,,,,,,,,958.9725,959.472,,,959.7151,960.2567,left,0.5199,,,,,,,,,0.1,,,,,,959.472,959.715,960.257,961.3571,,,,,,,,0,58,58,20,1
,,,,,,,65fb11fa63f6a4a129409026,6825337ab3c15539f08dd1b7,2025-05-15_03h25.04.608,cuing_paradigm_dot,2024.1.5,Win32,60.24096386,68242c07d0c0e200c6451fdd,,,,,,,,,,,961.3583,961.8575,,,962.1084,962.7917,right,0.6648,,,,,,,,,0.9,,,,,,961.8576,962.1083,962.7919,963.8924,,,,,,,,0,59,59,207,1
,,,,,,,65fb11fa63f6a4a129409026,6825337ab3c15539f08dd1b7,2025-05-15_03h25.04.608,cuing_paradigm_dot,2024.1.5,Win32,60.24096386,68242c07d0c0e200c6451fdd,,,,,,,,,,,963.8933,964.3929,,,964.6436,965.127,left,0.467,,,,,,,,,0.1,,,,,,964.3929,964.6436,965.127,966.2277,,,,,,,,0,60,60,0,1
,,,,,,,65fb11fa63f6a4a129409026,6825337ab3c15539f08dd1b7,2025-05-15_03h25.04.608,cuing_paradigm_dot,2024.1.5,Win32,60.24096386,68242c07d0c0e200c6451fdd,,,,,,,,,,,966.2287,966.7279,,,966.9738,968.0566,left,1.0728,,,,,,,,,0.6,,,,,,966.728,966.9738,968.0566,969.1469,,,,,,,,0,61,61,155,1
,,,,,,,65fb11fa63f6a4a129409026,6825337ab3c15539f08dd1b7,2025-05-15_03h25.04.608,cuing_paradigm_dot,2024.1.5,Win32,60.24096386,68242c07d0c0e200c6451fdd,,,,,,,,,,,969.148,969.6472,,,969.8981,970.5814,left,0.6682,,,,,,,,,0.1,,,,,,969.6473,969.898,970.5815,971.6821,,,,,,,,0,62,62,8,1
,,,,,,,65fb11fa63f6a4a129409026,6825337ab3c15539f08dd1b7,2025-05-15_03h25.04.608,cuing_paradigm_dot,2024.1.5,Win32,60.24096386,68242c07d0c0e200c6451fdd,,,,,,,,,,,971.6828,972.1826,,,972.429,972.8337,right,0.3865,,,,,,,,,0.9,,,,,,972.1826,972.4289,972.8339,973.9343,,,,,,,,0,63,63,196,1
,,,,,,,65fb11fa63f6a4a129409026,6825337ab3c15539f08dd1b7,2025-05-15_03h25.04.608,cuing_paradigm_dot,2024.1.5,Win32,60.24096386,68242c07d0c0e200c6451fdd,,,,,,,,,,,973.9361,974.4347,,,974.6795,975.5197,left,0.8196,,,,,,,,,0.45,,,,,,974.4348,974.6795,975.5199,976.6198,,,,,,,,0,64,64,79,1
,,,,,,,65fb11fa63f6a4a129409026,6825337ab3c15539f08dd1b7,2025-05-15_03h25.04.608,cuing_paradigm_dot,2024.1.5,Win32,60.24096386,68242c07d0c0e200c6451fdd,,,,,,,,,,,976.6209,977.1202,,,977.3648,978.3717,right,0.9859,,,,,,,,,0.55,,,,,,977.1202,977.3648,978.3718,979.4723,,,,,,,,0,65,65,124,1
,,,,,,,65fb11fa63f6a4a129409026,6825337ab3c15539f08dd1b7,2025-05-15_03h25.04.608,cuing_paradigm_dot,2024.1.5,Win32,60.24096386,68242c07d0c0e200c6451fdd,,,,,,,,,,,979.4739,979.9726,,,980.2167,980.9086,left,0.6697,,,,,,,,,0.45,,,,,,979.9729,980.2166,980.9089,982.0019,,,,,,,,0,66,66,76,1
,,,,,,,65fb11fa63f6a4a129409026,6825337ab3c15539f08dd1b7,2025-05-15_03h25.04.608,cuing_paradigm_dot,2024.1.5,Win32,60.24096386,68242c07d0c0e200c6451fdd,,,,,,,,,,,982.0027,982.4912,,,982.7421,983.8261,right,1.0651,,,,,,,,,0.4,,,,,,982.4913,982.742,983.8262,984.9264,,,,,,,,0,67,67,32,1
,,,,,,,65fb11fa63f6a4a129409026,6825337ab3c15539f08dd1b7,2025-05-15_03h25.04.608,cuing_paradigm_dot,2024.1.5,Win32,60.24096386,68242c07d0c0e200c6451fdd,,,,,,,,,,,984.9272,985.4268,,,985.6754,986.4621,left,0.7691,,,,,,,,,0.5,,,,,,985.4268,985.6754,986.4623,987.5621,,,,,,,,0,68,68,94,1
,,,,,,,65fb11fa63f6a4a129409026,6825337ab3c15539f08dd1b7,2025-05-15_03h25.04.608,cuing_paradigm_dot,2024.1.5,Win32,60.24096386,68242c07d0c0e200c6451fdd,,,,,,,,,,,987.5638,988.0625,,,988.3136,989.0636,right,0.7318,,,,,,,,,0.55,,,,,,988.0625,988.3135,989.0638,990.1641,,,,,,,,0,69,69,140,1
,,,,,,,65fb11fa63f6a4a129409026,6825337ab3c15539f08dd1b7,2025-05-15_03h25.04.608,cuing_paradigm_dot,2024.1.5,Win32,60.24096386,68242c07d0c0e200c6451fdd,,,,,,,,,,,990.165,990.6646,,,990.907,991.6602,right,0.7347,,,,,,,,,0.6,,,,,,990.6647,990.907,991.6603,992.7498,,,,,,,,0,70,70,167,1
,,,,,,,65fb11fa63f6a4a129409026,6825337ab3c15539f08dd1b7,2025-05-15_03h25.04.608,cuing_paradigm_dot,2024.1.5,Win32,60.24096386,68242c07d0c0e200c6451fdd,,,,,,,,,,,992.751,993.2503,,,993.5009,994.3011,right,0.7811,,,,,,,,,0.55,,,,,,993.2504,993.5009,994.3012,995.4016,,,,,,,,0,71,71,149,1
,,,,,,,65fb11fa63f6a4a129409026,6825337ab3c15539f08dd1b7,2025-05-15_03h25.04.608,cuing_paradigm_dot,2024.1.5,Win32,60.24096386,68242c07d0c0e200c6451fdd,,,,,,,,,,,995.4025,995.9021,,,996.153,997.1206,right,0.9549,,,,,,,,,0.6,,,,,,995.9022,996.1529,997.1207,998.2206,,,,,,,,0,72,72,169,1
,,,,,,,65fb11fa63f6a4a129409026,6825337ab3c15539f08dd1b7,2025-05-15_03h25.04.608,cuing_paradigm_dot,2024.1.5,Win32,60.24096386,68242c07d0c0e200c6451fdd,,,,,,,,,,,998.2214,998.7211,,,998.9725,999.5388,right,0.5519,,,,,,,,,0.9,,,,,,998.7211,998.9722,999.5389,1000.6396,,,,,,,,0,73,73,197,1
,,,,,,,65fb11fa63f6a4a129409026,6825337ab3c15539f08dd1b7,2025-05-15_03h25.04.608,cuing_paradigm_dot,2024.1.5,Win32,60.24096386,68242c07d0c0e200c6451fdd,,,,,,,,,,,1000.6406,1001.1399,,,1001.3907,1002.2414,right,0.8316,,,,,,,,,0.45,,,,,,1001.1399,1001.3906,1002.2415,1003.3415,,,,,,,,0,74,74,64,1
,,,,,,,65fb11fa63f6a4a129409026,6825337ab3c15539f08dd1b7,2025-05-15_03h25.04.608,cuing_paradigm_dot,2024.1.5,Win32,60.24096386,68242c07d0c0e200c6451fdd,,,,,,,,,,,1003.3426,1003.842,,,1004.0876,1004.9154,right,0.8119,,,,,,,,,0.55,,,,,,1003.8421,1004.0876,1004.9154,1006.0108,,,,,,,,0,75,75,130,1
,,,,,,,65fb11fa63f6a4a129409026,6825337ab3c15539f08dd1b7,2025-05-15_03h25.04.608,cuing_paradigm_dot,2024.1.5,Win32,60.24096386,68242c07d0c0e200c6451fdd,,,,,,,,,,,1006.0124,1006.5152,,,1006.7564,1007.2454,left,0.4694,,,,,,,,,0.1,,,,,,1006.5153,1006.7562,1007.2455,1008.3459,,,,,,,,0,76,76,4,1
,,,,,,,65fb11fa63f6a4a129409026,6825337ab3c15539f08dd1b7,2025-05-15_03h25.04.608,cuing_paradigm_dot,2024.1.5,Win32,60.24096386,68242c07d0c0e200c6451fdd,,,,,,,,,,,1008.347,1008.8463,,,1009.0974,1009.5804,right,0.4648,,,,,,,,,0.9,,,,,,1008.8464,1009.0973,1009.5804,1010.681,,,,,,,,0,77,77,192,1
,,,,,,,65fb11fa63f6a4a129409026,6825337ab3c15539f08dd1b7,2025-05-15_03h25.04.608,cuing_paradigm_dot,2024.1.5,Win32,60.24096386,68242c07d0c0e200c6451fdd,,,,,,,,,,,1010.682,1011.1814,,,1011.4341,1012.483,left,1.0336,,,,,,,,,0.4,,,,,,1011.1814,1011.434,1012.4831,1013.5836,,,,,,,,0,78,78,38,1
,,,,,,,65fb11fa63f6a4a129409026,6825337ab3c15539f08dd1b7,2025-05-15_03h25.04.608,cuing_paradigm_dot,2024.1.5,Win32,60.24096386,68242c07d0c0e200c6451fdd,,,,,,,,,,,1013.5846,1014.084,,,1014.3281,1014.8349,right,0.4841,,,,,,,,,0.9,,,,,,1014.084,1014.328,1014.835,1015.9354,,,,,,,,0,79,79,202,1
,,,,,,,65fb11fa63f6a4a129409026,6825337ab3c15539f08dd1b7,2025-05-15_03h25.04.608,cuing_paradigm_dot,2024.1.5,Win32,60.24096386,68242c07d0c0e200c6451fdd,,,,,,,,,,,1015.9365,1016.4358,,,1016.6866,1017.3036,right,0.6041,,,,,,,,,0.6,,,,,,1016.4359,1016.6866,1017.3037,1018.4041,,,,,,,,0,80,80,176,1
,,,,,,,65fb11fa63f6a4a129409026,6825337ab3c15539f08dd1b7,2025-05-15_03h25.04.608,cuing_paradigm_dot,2024.1.5,Win32,60.24096386,68242c07d0c0e200c6451fdd,,,,,,,,,,,1018.405,1018.9045,,,1019.1493,1019.9733,right,0.8024,,,,,,,,,0.6,,,,,,1018.9045,1019.1493,1019.9735,1021.0731,,,,,,,,0,81,81,163,1
,,,,,,,65fb11fa63f6a4a129409026,6825337ab3c15539f08dd1b7,2025-05-15_03h25.04.608,cuing_paradigm_dot,2024.1.5,Win32,60.24096386,68242c07d0c0e200c6451fdd,,,,,,,,,,,1021.0746,1021.5738,,,1021.8245,1022.3912,right,0.5484,,,,,,,,,0.9,,,,,,1021.5739,1021.8243,1022.3915,1023.4915,,,,,,,,0,82,82,201,1
,,,,,,,65fb11fa63f6a4a129409026,6825337ab3c15539f08dd1b7,2025-05-15_03h25.04.608,cuing_paradigm_dot,2024.1.5,Win32,60.24096386,68242c07d0c0e200c6451fdd,,,,,,,,,,,1023.4924,1023.9919,,,1024.2432,1025.1766,left,0.9192,,,,,,,,,0.5,,,,,,1023.992,1024.2431,1025.1766,1026.2771,,,,,,,,0,83,83,92,1
,,,,,,,65fb11fa63f6a4a129409026,6825337ab3c15539f08dd1b7,2025-05-15_03h25.04.608,cuing_paradigm_dot,2024.1.5,Win32,60.24096386,68242c07d0c0e200c6451fdd,,,,,,,,,,,1026.2778,1026.7776,,,1027.0284,1027.7293,right,0.6837,,,,,,,,,0.55,,,,,,1026.7777,1027.0284,1027.7295,1028.8292,,,,,,,,0,84,84,137,1
,,,,,,,65fb11fa63f6a4a129409026,6825337ab3c15539f08dd1b7,2025-05-15_03h25.04.608,cuing_paradigm_dot,2024.1.5,Win32,60.24096386,68242c07d0c0e200c6451fdd,,,,,,,,,,,1028.83,1029.3297,,,1029.5741,1030.2812,right,0.6862,,,,,,,,,0.45,,,,,,1029.3297,1029.5741,1030.2813,1031.3815,,,,,,,,0,85,85,72,1
,,,,,,,65fb11fa63f6a4a129409026,6825337ab3c15539f08dd1b7,2025-05-15_03h25.04.608,cuing_paradigm_dot,2024.1.5,Win32,60.24096386,68242c07d0c0e200c6451fdd,,,,,,,,,,,1031.3834,1031.882,,,1032.1274,1032.9164,right,0.7715,,,,,,,,,0.45,,,,,,1031.8821,1032.1273,1032.9165,1034.0169,,,,,,,,0,86,86,88,1
,,,,,,,65fb11fa63f6a4a129409026,6825337ab3c15539f08dd1b7,2025-05-15_03h25.04.608,cuing_paradigm_dot,2024.1.5,Win32,60.24096386,68242c07d0c0e200c6451fdd,,,,,,,,,,,1034.0179,1034.5175,,,1034.7687,1035.6187,right,0.836,,,,,,,,,0.55,,,,,,1034.5176,1034.7687,1035.6187,1036.7191,,,,,,,,0,87,87,146,1
,,,,,,,65fb11fa63f6a4a129409026,6825337ab3c15539f08dd1b7,2025-05-15_03h25.04.608,cuing_paradigm_dot,2024.1.5,Win32,60.24096386,68242c07d0c0e200c6451fdd,,,,,,,,,,,1036.7202,1037.2195,,,1037.4707,1038.3877,left,0.8994,,,,,,,,,0.5,,,,,,1037.2195,1037.4706,1038.3879,1039.4881,,,,,,,,0,88,88,96,1
,,,,,,,65fb11fa63f6a4a129409026,6825337ab3c15539f08dd1b7,2025-05-15_03h25.04.608,cuing_paradigm_dot,2024.1.5,Win32,60.24096386,68242c07d0c0e200c6451fdd,,,,,,,,,,,1039.4891,1039.9886,,,1040.2394,1040.8561,right,0.6018,,,,,,,,,0.6,,,,,,1039.9887,1040.2394,1040.8563,1041.9567,,,,,,,,0,89,89,166,1
,,,,,,,65fb11fa63f6a4a129409026,6825337ab3c15539f08dd1b7,2025-05-15_03h25.04.608,cuing_paradigm_dot,2024.1.5,Win32,60.24096386,68242c07d0c0e200c6451fdd,,,,,,,,,,,1041.9575,1042.4572,,,1042.7083,1043.559,left,0.832,,,,,,,,,0.45,,,,,,1042.4572,1042.7082,1043.5591,1044.6591,,,,,,,,0,90,90,75,1
,,,,,,,65fb11fa63f6a4a129409026,6825337ab3c15539f08dd1b7,2025-05-15_03h25.04.608,cuing_paradigm_dot,2024.1.5,Win32,60.24096386,68242c07d0c0e200c6451fdd,,,,,,,,,,,1044.66,1045.1595,,,1045.4062,1046.6785,right,1.2538,,,,,,,,,0.5,,,,,,1045.1595,1045.4061,1046.6786,1047.7784,,,,,,,,0,91,91,114,1
,,,,,,,65fb11fa63f6a4a129409026,6825337ab3c15539f08dd1b7,2025-05-15_03h25.04.608,cuing_paradigm_dot,2024.1.5,Win32,60.24096386,68242c07d0c0e200c6451fdd,,,,,,,,,,,1047.7796,1048.2727,,,1048.5245,1049.2799,right,0.7361,,,,,,,,,0.6,,,,,,1048.2728,1048.5244,1049.28,1050.391,,,,,,,,0,92,92,178,1
,,,,,,,65fb11fa63f6a4a129409026,6825337ab3c15539f08dd1b7,2025-05-15_03h25.04.608,cuing_paradigm_dot,2024.1.5,Win32,60.24096386,68242c07d0c0e200c6451fdd,,,,,,,,,,,1050.3918,1050.885,,,1051.1322,1052.0154,left,0.8687,,,,,,,,,0.5,,,,,,1050.885,1051.1321,1052.0155,1053.1159,,,,,,,,0,93,93,116,1
,,,,,,,65fb11fa63f6a4a129409026,6825337ab3c15539f08dd1b7,2025-05-15_03h25.04.608,cuing_paradigm_dot,2024.1.5,Win32,60.24096386,68242c07d0c0e200c6451fdd,,,,,,,,,,,1053.117,1053.6164,,,1053.8675,1054.4185,left,0.5378,,,,,,,,,0.1,,,,,,1053.6164,1053.8675,1054.4186,1055.5179,,,,,,,,0,94,94,12,1
,,,,,,,65fb11fa63f6a4a129409026,6825337ab3c15539f08dd1b7,2025-05-15_03h25.04.608,cuing_paradigm_dot,2024.1.5,Win32,60.24096386,68242c07d0c0e200c6451fdd,,,,,,,,,,,1055.5188,1056.0182,,,1056.2693,1056.8862,right,0.6017,,,,,,,,,0.9,,,,,,1056.0183,1056.2692,1056.8864,1057.9867,,,,,,,,0,95,95,194,1
,,,,,,,65fb11fa63f6a4a129409026,6825337ab3c15539f08dd1b7,2025-05-15_03h25.04.608,cuing_paradigm_dot,2024.1.5,Win32,60.24096386,68242c07d0c0e200c6451fdd,,,,,,,,,,,1057.9875,1058.4871,,,1058.738,1059.5549,right,0.7981,,,,,,,,,0.55,,,,,,1058.4871,1058.738,1059.5549,1060.6555,,,,,,,,0,96,96,142,1
,,,,,,,65fb11fa63f6a4a129409026,6825337ab3c15539f08dd1b7,2025-05-15_03h25.04.608,cuing_paradigm_dot,2024.1.5,Win32,60.24096386,68242c07d0c0e200c6451fdd,,,,,,,,,,,1060.6565,1061.1559,,,1061.4069,1061.6566,left,0.2355,,,,,,,,,0.6,,,,,,1061.156,1061.4068,1061.6567,1062.7573,,,,,,,,0,97,97,165,1
,,,,,,,65fb11fa63f6a4a129409026,6825337ab3c15539f08dd1b7,2025-05-15_03h25.04.608,cuing_paradigm_dot,2024.1.5,Win32,60.24096386,68242c07d0c0e200c6451fdd,,,,,,,,,,,1062.7583,1063.2578,,,1063.5086,1064.3426,right,0.8155,,,,,,,,,0.9,,,,,,1063.2578,1063.5085,1064.3426,1065.4428,,,,,,,,0,98,98,185,1
,,,,,,,65fb11fa63f6a4a129409026,6825337ab3c15539f08dd1b7,2025-05-15_03h25.04.608,cuing_paradigm_dot,2024.1.5,Win32,60.24096386,68242c07d0c0e200c6451fdd,,,,,,,,,,,1065.4436,1065.9432,,,1066.1941,1066.8443,right,0.6327,,,,,,,,,0.55,,,,,,1065.9434,1066.194,1066.8444,1067.9448,,,,,,,,0,99,99,125,1
,,,,,,,65fb11fa63f6a4a129409026,6825337ab3c15539f08dd1b7,2025-05-15_03h25.04.608,cuing_paradigm_dot,2024.1.5,Win32,60.24096386,68242c07d0c0e200c6451fdd,,,,,,,,,,,1067.9456,1068.4452,,,1068.6902,1069.4301,left,0.7193,,,,,,,,,0.5,,,,,,1068.4453,1068.6901,1069.4303,1070.5306,,,,,,,,0,100,100,115,1
,,,,,,,65fb11fa63f6a4a129409026,6825337ab3c15539f08dd1b7,2025-05-15_03h25.04.608,cuing_paradigm_dot,2024.1.5,Win32,60.24096386,68242c07d0c0e200c6451fdd,,,,,,,,,,,1070.5321,1071.031,,,1071.2757,1072.2156,right,0.9197,,,,,,,,,0.4,,,,,,1071.0311,1071.2757,1072.2156,1073.3162,,,,,,,,0,101,101,52,1
,,,,,,,65fb11fa63f6a4a129409026,6825337ab3c15539f08dd1b7,2025-05-15_03h25.04.608,cuing_paradigm_dot,2024.1.5,Win32,60.24096386,68242c07d0c0e200c6451fdd,,,,,,,,,,,1073.3178,1073.8167,,,1074.0675,1074.6848,right,0.6038,,,,,,,,,0.55,,,,,,1073.8168,1074.0674,1074.6849,1075.7846,,,,,,,,0,102,102,123,1
,,,,,,,65fb11fa63f6a4a129409026,6825337ab3c15539f08dd1b7,2025-05-15_03h25.04.608,cuing_paradigm_dot,2024.1.5,Win32,60.24096386,68242c07d0c0e200c6451fdd,,,,,,,,,,,1075.7855,1076.2851,,,1076.5295,1077.4369,right,0.8869,,,,,,,,,0.55,,,,,,1076.2851,1076.5294,1077.437,1078.5373,,,,,,,,0,103,103,121,1
,,,,,,,65fb11fa63f6a4a129409026,6825337ab3c15539f08dd1b7,2025-05-15_03h25.04.608,cuing_paradigm_dot,2024.1.5,Win32,60.24096386,68242c07d0c0e200c6451fdd,,,,,,,,,,,1078.5388,1079.0377,,,1079.2839,1080.4228,right,1.1218,,,,,,,,,0.4,,,,,,1079.0378,1079.2839,1080.423,1081.5228,,,,,,,,0,104,104,48,1
,,,,,,,65fb11fa63f6a4a129409026,6825337ab3c15539f08dd1b7,2025-05-15_03h25.04.608,cuing_paradigm_dot,2024.1.5,Win32,60.24096386,68242c07d0c0e200c6451fdd,,,,,,,,,,,1081.5239,1082.0234,,,1082.2649,1083.4536,right,1.169,,,,,,,,,0.5,,,,,,1082.0234,1082.2648,1083.4536,1084.5422,,,,,,,,0,105,105,106,1
,,,,,,,65fb11fa63f6a4a129409026,6825337ab3c15539f08dd1b7,2025-05-15_03h25.04.608,cuing_paradigm_dot,2024.1.5,Win32,60.24096386,68242c07d0c0e200c6451fdd,,,,,,,,,,,1084.5436,1085.0425,,,1085.2932,1086.0434,right,0.7312,,,,,,,,,0.6,,,,,,1085.0426,1085.2932,1086.0436,1087.144,,,,,,,,0,106,106,151,1
,,,,,,,65fb11fa63f6a4a129409026,6825337ab3c15539f08dd1b7,2025-05-15_03h25.04.608,cuing_paradigm_dot,2024.1.5,Win32,60.24096386,68242c07d0c0e200c6451fdd,,,,,,,,,,,1087.145,1087.6445,,,1087.8896,1088.4124,right,0.5059,,,,,,,,,0.55,,,,,,1087.6445,1087.8895,1088.4125,1089.513,,,,,,,,0,107,107,129,1
,,,,,,,65fb11fa63f6a4a129409026,6825337ab3c15539f08dd1b7,2025-05-15_03h25.04.608,cuing_paradigm_dot,2024.1.5,Win32,60.24096386,68242c07d0c0e200c6451fdd,,,,,,,,,,,1089.5146,1090.0134,,,1090.2595,1090.848,left,0.5691,,,,,,,,,0.4,,,,,,1090.0136,1090.2595,1090.8482,1091.9526,,,,,,,,0,108,108,58,1
,,,,,,,65fb11fa63f6a4a129409026,6825337ab3c15539f08dd1b7,2025-05-15_03h25.04.608,cuing_paradigm_dot,2024.1.5,Win32,60.24096386,68242c07d0c0e200c6451fdd,,,,,,,,,,,1091.9537,1092.4488,,,1092.6996,1093.1335,left,0.4209,,,,,,,,,0.1,,,,,,1092.4489,1092.6996,1093.1336,1094.2331,,,,,,,,0,109,109,17,1
,,,,,,,65fb11fa63f6a4a129409026,6825337ab3c15539f08dd1b7,2025-05-15_03h25.04.608,cuing_paradigm_dot,2024.1.5,Win32,60.24096386,68242c07d0c0e200c6451fdd,,,,,,,,,,,1094.2343,1094.7337,,,1094.9847,1095.768,right,0.7688,,,,,,,,,0.5,,,,,,1094.7337,1094.9846,1095.7682,1096.8687,,,,,,,,0,110,110,108,1
,,,,,,,65fb11fa63f6a4a129409026,6825337ab3c15539f08dd1b7,2025-05-15_03h25.04.608,cuing_paradigm_dot,2024.1.5,Win32,60.24096386,68242c07d0c0e200c6451fdd,,,,,,,,,,,1096.8698,1097.3692,,,1097.6117,1098.7541,right,1.1195,,,,,,,,,0.45,,,,,,1097.3692,1097.6116,1098.7542,1099.8588,,,,,,,,0,111,111,70,1
,,,,,,,65fb11fa63f6a4a129409026,6825337ab3c15539f08dd1b7,2025-05-15_03h25.04.608,cuing_paradigm_dot,2024.1.5,Win32,60.24096386,68242c07d0c0e200c6451fdd,,,,,,,,,,,1099.8596,1100.3552,,,1100.6063,1101.2232,right,0.5967,,,,,,,,,0.45,,,,,,1100.3552,1100.6061,1101.2233,1102.3233,,,,,,,,0,112,112,61,1
,,,,,,,65fb11fa63f6a4a129409026,6825337ab3c15539f08dd1b7,2025-05-15_03h25.04.608,cuing_paradigm_dot,2024.1.5,Win32,60.24096386,68242c07d0c0e200c6451fdd,,,,,,,,,,,1102.3242,1102.8237,,,1103.0753,1103.7255,right,0.631,,,,,,,,,0.5,,,,,,1102.8238,1103.0752,1103.7256,1104.8256,,,,,,,,0,113,113,90,1
,,,,,,,65fb11fa63f6a4a129409026,6825337ab3c15539f08dd1b7,2025-05-15_03h25.04.608,cuing_paradigm_dot,2024.1.5,Win32,60.24096386,68242c07d0c0e200c6451fdd,,,,,,,,,,,1104.8265,1105.326,,,1105.5766,1106.4769,left,0.8825,,,,,,,,,0.4,,,,,,1105.3261,1105.5766,1106.477,1107.5776,,,,,,,,0,114,114,53,1
,,,,,,,65fb11fa63f6a4a129409026,6825337ab3c15539f08dd1b7,2025-05-15_03h25.04.608,cuing_paradigm_dot,2024.1.5,Win32,60.24096386,68242c07d0c0e200c6451fdd,,,,,,,,,,,1107.5785,1108.078,,,1108.3244,1109.0732,right,0.7341,,,,,,,,,0.45,,,,,,1108.078,1108.3243,1109.0732,1110.1634,,,,,,,,0,115,115,87,1
,,,,,,,65fb11fa63f6a4a129409026,6825337ab3c15539f08dd1b7,2025-05-15_03h25.04.608,cuing_paradigm_dot,2024.1.5,Win32,60.24096386,68242c07d0c0e200c6451fdd,,,,,,,,,,,1110.1649,1110.6637,,,1110.9143,1111.982,left,1.0537,,,,,,,,,0.45,,,,,,1110.6638,1110.9143,1111.9821,1113.0821,,,,,,,,0,116,116,85,1
,,,,,,,65fb11fa63f6a4a129409026,6825337ab3c15539f08dd1b7,2025-05-15_03h25.04.608,cuing_paradigm_dot,2024.1.5,Win32,60.24096386,68242c07d0c0e200c6451fdd,,,,,,,,,,,1113.083,1113.5826,,,1113.8241,1114.4005,right,0.5513,,,,,,,,,0.5,,,,,,1113.5828,1113.824,1114.4006,1115.5011,,,,,,,,0,117,117,97,1
,,,,,,,65fb11fa63f6a4a129409026,6825337ab3c15539f08dd1b7,2025-05-15_03h25.04.608,cuing_paradigm_dot,2024.1.5,Win32,60.24096386,68242c07d0c0e200c6451fdd,,,,,,,,,,,1115.5026,1116.0016,,,1116.2466,1116.8691,right,0.6023,,,,,,,,,0.6,,,,,,1116.0017,1116.2466,1116.8693,1117.9634,,,,,,,,0,118,118,177,1
,,,,,,,65fb11fa63f6a4a129409026,6825337ab3c15539f08dd1b7,2025-05-15_03h25.04.608,cuing_paradigm_dot,2024.1.5,Win32,60.24096386,68242c07d0c0e200c6451fdd,,,,,,,,,,,1117.9641,1118.4534,,,1118.7044,1119.2375,right,0.5144,,,,,,,,,0.9,,,,,,1118.4534,1118.7042,1119.2376,1120.3381,,,,,,,,0,119,119,187,1
,,,,,,,65fb11fa63f6a4a129409026,6825337ab3c15539f08dd1b7,2025-05-15_03h25.04.608,cuing_paradigm_dot,2024.1.5,Win32,60.24096386,68242c07d0c0e200c6451fdd,,,,,,,,,,,1120.339,1120.8385,,,1121.0894,1121.923,right,0.8178,,,,,,,,,0.45,,,,,,1120.8386,1121.0893,1121.9231,1123.0236,,,,,,,,0,120,120,78,1
,,,,,,,65fb11fa63f6a4a129409026,6825337ab3c15539f08dd1b7,2025-05-15_03h25.04.608,cuing_paradigm_dot,2024.1.5,Win32,60.24096386,68242c07d0c0e200c6451fdd,,,,,,,,,,,1123.0247,1123.524,,,1123.7691,1124.3703,right,0.5851,,,,,,,,,0.9,,,,,,1123.5241,1123.7689,1124.3703,1125.4593,,,,,,,,0,121,121,182,1
,,,,,,,65fb11fa63f6a4a129409026,6825337ab3c15539f08dd1b7,2025-05-15_03h25.04.608,cuing_paradigm_dot,2024.1.5,Win32,60.24096386,68242c07d0c0e200c6451fdd,,,,,,,,,,,1125.4608,1125.9597,,,1126.2104,1126.7936,right,0.5648,,,,,,,,,0.6,,,,,,1125.9597,1126.2103,1126.7937,1127.8943,,,,,,,,0,122,122,168,1
,,,,,,,65fb11fa63f6a4a129409026,6825337ab3c15539f08dd1b7,2025-05-15_03h25.04.608,cuing_paradigm_dot,2024.1.5,Win32,60.24096386,68242c07d0c0e200c6451fdd,,,,,,,,,,,1127.8952,1128.3947,,,1128.6367,1129.4794,right,0.8257,,,,,,,,,0.55,,,,,,1128.3948,1128.6366,1129.4795,1130.58,,,,,,,,0,123,123,145,1
,,,,,,,65fb11fa63f6a4a129409026,6825337ab3c15539f08dd1b7,2025-05-15_03h25.04.608,cuing_paradigm_dot,2024.1.5,Win32,60.24096386,68242c07d0c0e200c6451fdd,,,,,,,,,,,1130.5817,1131.0807,,,1131.3312,1132.332,left,0.9812,,,,,,,,,0.55,,,,,,1131.0808,1131.3312,1132.332,1133.4322,,,,,,,,0,124,124,127,1
,,,,,,,65fb11fa63f6a4a129409026,6825337ab3c15539f08dd1b7,2025-05-15_03h25.04.608,cuing_paradigm_dot,2024.1.5,Win32,60.24096386,68242c07d0c0e200c6451fdd,,,,,,,,,,,1133.4333,1133.9326,,,1134.1741,1134.9343,right,0.7396,,,,,,,,,0.6,,,,,,1133.9326,1134.174,1134.9344,1136.0451,,,,,,,,0,125,125,161,1
,,,,,,,65fb11fa63f6a4a129409026,6825337ab3c15539f08dd1b7,2025-05-15_03h25.04.608,cuing_paradigm_dot,2024.1.5,Win32,60.24096386,68242c07d0c0e200c6451fdd,,,,,,,,,,,1136.0461,1136.5351,,,1136.7858,1137.3523,right,0.5529,,,,,,,,,0.6,,,,,,1136.5352,1136.7858,1137.3525,1138.453,,,,,,,,0,126,126,174,1
