right,left,explain.started,explain.stopped,key_resp_3.keys,key_resp_3.rt,key_resp_3.duration,participant,session,date,expName,psychopyVersion,OS,frameRate,study_id,explain_2.started,explain_2.stopped,key_resp_4.keys,key_resp_4.rt,key_resp_4.duration,explain_3.started,explain_3.stopped,key_resp_5.keys,key_resp_5.rt,key_resp_5.duration,fixation.started,fixation.stopped,practice.started,practice.stopped,response.started,response.stopped,key_resp.keys,key_resp.rt,key_resp.duration,feedback.started,feedback.stopped,trials_2.thisRepN,trials_2.thisTrialN,trials_2.thisN,trials_2.thisIndex,trials_2.ran,white_ratio,explain_4.started,explain_4.stopped,key_resp_6.keys,key_resp_6.rt,key_resp_6.duration,dotDisplay.started,dotDisplay.stopped,ITI.started,polygon_1.pos,polygon_1.color,polygon_2.pos,polygon_2.color,polygon_3.pos,polygon_3.color,polygon_4.pos,polygon_4.color,polygon_5.pos,polygon_5.color,polygon_6.pos,polygon_6.color,polygon_7.pos,polygon_7.color,polygon_8.pos,polygon_8.color,polygon_9.pos,polygon_9.color,polygon_10.pos,polygon_10.color,polygon_11.pos,polygon_11.color,polygon_12.pos,polygon_12.color,polygon_13.pos,polygon_13.color,polygon_14.pos,polygon_14.color,polygon_15.pos,polygon_15.color,polygon_16.pos,polygon_16.color,polygon_17.pos,polygon_17.color,polygon_18.pos,polygon_18.color,polygon_19.pos,polygon_19.color,polygon_20.pos,polygon_20.color,polygon_21.pos,polygon_21.color,polygon_22.pos,polygon_22.color,polygon_23.pos,polygon_23.color,polygon_24.pos,polygon_24.color,polygon_25.pos,polygon_25.color,polygon_26.pos,polygon_26.color,polygon_27.pos,polygon_27.color,polygon_28.pos,polygon_28.color,polygon_29.pos,polygon_29.color,polygon_30.pos,polygon_30.color,polygon_31.pos,polygon_31.color,polygon_32.pos,polygon_32.color,dot_size,ITI.stopped,trials.thisRepN,trials.thisTrialN,trials.thisN,trials.thisIndex,trials.ran,break_2.started,break_2.stopped,trials_3.thisRepN,trials_3.thisTrialN,trials_3.thisN,trials_3.thisIndex,trials_3.ran
subject chose white,subject chose black,0.0002,62.0978,space,47.0766,,66539487195bfe168f78bcc1,6831aab46af1965efc99b252,2025-05-24_14h25.40.413,cuing_paradigm_dot,2024.1.5,Win32,60.24096386,682d573fa47f1360d1451895,,,,,,,,,,,,,,,,,,,,,,,,,,,,,,,,,,,,,,,,,,,,,,,,,,,,,,,,,,,,,,,,,,,,,,,,,,,,,,,,,,,,,,,,,,,,,,,,,,,,,,,,,,,,,,,,,
,,,,,,,66539487195bfe168f78bcc1,6831aab46af1965efc99b252,2025-05-24_14h25.40.413,cuing_paradigm_dot,2024.1.5,Win32,60.24096386,682d573fa47f1360d1451895,62.0985,187.4502,space,95.3323,,,,,,,,,,,,,,,,,,,,,,,,,,,,,,,,,,,,,,,,,,,,,,,,,,,,,,,,,,,,,,,,,,,,,,,,,,,,,,,,,,,,,,,,,,,,,,,,,,,,,,,,,,,,,
,,,,,,,66539487195bfe168f78bcc1,6831aab46af1965efc99b252,2025-05-24_14h25.40.413,cuing_paradigm_dot,2024.1.5,Win32,60.24096386,682d573fa47f1360d1451895,,,,,,187.4517,221.5679,space,31.1027,,,,,,,,,,,,,,,,,,,,,,,,,,,,,,,,,,,,,,,,,,,,,,,,,,,,,,,,,,,,,,,,,,,,,,,,,,,,,,,,,,,,,,,,,,,,,,,,,,,,,,,,
,,,,,,,66539487195bfe168f78bcc1,6831aab46af1965efc99b252,2025-05-24_14h25.40.413,cuing_paradigm_dot,2024.1.5,Win32,60.24096386,682d573fa47f1360d1451895,,,,,,,,,,,221.6205,222.0704,222.0718,222.3194,222.3201,223.1696,right,0.7881,,223.1707,224.2657,0,0,0,0,1,0.8,,,,,,,,,,,,,,,,,,,,,,,,,,,,,,,,,,,,,,,,,,,,,,,,,,,,,,,,,,,,,,,,,,,,,,,,,,,,,,,,,,,,,,
,,,,,,,66539487195bfe168f78bcc1,6831aab46af1965efc99b252,2025-05-24_14h25.40.413,cuing_paradigm_dot,2024.1.5,Win32,60.24096386,682d573fa47f1360d1451895,,,,,,,,,,,224.2679,224.7643,224.7644,225.0152,225.0153,225.6519,left,0.6274,,225.6523,226.7481,0,1,1,1,1,0.2,,,,,,,,,,,,,,,,,,,,,,,,,,,,,,,,,,,,,,,,,,,,,,,,,,,,,,,,,,,,,,,,,,,,,,,,,,,,,,,,,,,,,,
,,,,,,,66539487195bfe168f78bcc1,6831aab46af1965efc99b252,2025-05-24_14h25.40.413,cuing_paradigm_dot,2024.1.5,Win32,60.24096386,682d573fa47f1360d1451895,,,,,,,,,,,,,,,,,,,,,,,,,,,,226.7506,233.6212,space,3.8605,,,,,,,,,,,,,,,,,,,,,,,,,,,,,,,,,,,,,,,,,,,,,,,,,,,,,,,,,,,,,,,,,,,,,,,,,,,,,,,,,,
,,,,,,,66539487195bfe168f78bcc1,6831aab46af1965efc99b252,2025-05-24_14h25.40.413,cuing_paradigm_dot,2024.1.5,Win32,60.24096386,682d573fa47f1360d1451895,,,,,,,,,,,233.6498,234.13,,,234.3831,235.2124,left,0.8117,,,,,,,,,0.55,,,,,,234.1326,234.3829,235.2129,"[-0.007021955517361315,0.1507426987694137]","[-1,-1,-1]","[-0.12258964224284105,0.09019645187088089]","[1,1,1]","[0.03423180710465665,0.1782348210174807]","[1,1,1]","[-0.10444616431310329,-0.07119663627233698]","[1,1,1]","[0.028233305572523067,0.13159399719933365]","[1,1,1]","[0.06707818652441341,-0.18724852833800076]","[1,1,1]","[-0.01748785542241089,0.09417847610326038]","[-1,-1,-1]","[-0.023736170186428256,-0.0535454505071538]","[1,1,1]","[-0.05733665313742132,0.03434409787374724]","[1,1,1]","[-0.08834158247833368,0.1562078797005432]","[1,1,1]","[-0.08277337895993804,-0.025446642290686872]","[1,1,1]","[-0.15540246219389378,-0.07672988298651945]","[-1,-1,-1]","[0.13795547254012813,-0.07347737093296416]","[1,1,1]","[0.1749218787928431,0.09277594013096367]","[1,1,1]","[-0.045502548318660206,-0.17262089030530522]","[-1,-1,-1]","[0.01190468998674595,-0.12140373037709705]","[-1,-1,-1]","[-0.17812241218429875,0.06932850265407872]","[-1,-1,-1]","[-0.14243646362938234,-0.002980888135619237]","[-1,-1,-1]","[0.09973110076805276,-0.1292011651879723]","[-1,-1,-1]","[0.09777381159139825,0.10284513252157605]","[-1,-1,-1]","[0.05779589224051024,-0.05880342459767128]","[1,1,1]","[0.04148716907355897,0.0714012950399484]","[-1,-1,-1]","[0.08587649307982304,-0.011724179892341738]","[-1,-1,-1]","[0.17790137108477488,-0.090246550153907]","[-1,-1,-1]","[-0.0633738185159064,-0.10692034085459548]","[1,1,1]","[0.09664299373272726,-0.07380566778174202]","[-1,-1,-1]","[0.03444382533920398,0.015305327665520261]","[1,1,1]","[0.07392257716819559,0.17204616965044175]","[1,1,1]","[-0.1045627340936312,-0.16938732842105939]","[-1,-1,-1]","[-0.09409696621185294,0.05316857900076185]","[1,1,1]","[-0.013411958270884974,0.052076128104639206]","[1,1,1]","[-0.02332856879539384,0.009411730024927298]","[1,1,1]","[0.02,0.02]",236.3138,0,0,0,134,1,,,,,,,
,,,,,,,66539487195bfe168f78bcc1,6831aab46af1965efc99b252,2025-05-24_14h25.40.413,cuing_paradigm_dot,2024.1.5,Win32,60.24096386,682d573fa47f1360d1451895,,,,,,,,,,,236.316,236.8129,,,237.0632,238.0787,right,0.9998,,,,,,,,,0.6,,,,,,236.8135,237.0632,238.0788,"[0.08457783666304271,0.16863485036012454]","[-1,-1,-1]","[-0.006984863676721479,-0.004366312854437511]","[1,1,1]","[0.04765576326234895,-0.05959837712535609]","[1,1,1]","[0.11207710990497562,-0.1062450858446744]","[-1,-1,-1]","[-0.12309543689385277,-0.0428801759153787]","[1,1,1]","[-0.04970052263314105,-0.07366102617518383]","[-1,-1,-1]","[0.10633186150627945,-0.01279955312960242]","[1,1,1]","[-0.0030050762127587635,-0.13454378048892238]","[-1,-1,-1]","[0.15655981984530998,0.03565208412414008]","[1,1,1]","[0.005014829183455585,-0.055360739812168845]","[1,1,1]","[0.07445760930016673,0.11425524783738063]","[-1,-1,-1]","[0.11779968915233162,0.045763927028463804]","[1,1,1]","[-0.11553438738057616,0.056773853429703126]","[-1,-1,-1]","[0.1843254552191307,-0.027505360737452047]","[1,1,1]","[0.07370696941454535,0.020382776835883427]","[1,1,1]","[-0.1286538667340957,0.01769925156182447]","[-1,-1,-1]","[-0.18074331600790164,0.015089380804557833]","[1,1,1]","[0.1655496081593607,-0.10720151341978097]","[-1,-1,-1]","[-0.03381027435696624,0.11902615874262479]","[1,1,1]","[0.026920496408995125,-0.09839703623802938]","[1,1,1]","[-0.11267144021486261,0.14646984030350127]","[1,1,1]","[0.018775371677624126,0.19492493774071923]","[-1,-1,-1]","[0.007433612838313967,-0.17801342117361516]","[1,1,1]","[-0.1080757930515866,-0.10904890089411115]","[-1,-1,-1]","[0.07208263895363934,-0.15309167010225674]","[-1,-1,-1]","[0.12279315279114941,0.15611059831621418]","[-1,-1,-1]","[-0.15685161718454388,0.06677596257810148]","[1,1,1]","[0.01408459713309313,0.12059629728021158]","[1,1,1]","[-0.18200146502837172,-0.07955985271718506]","[-1,-1,-1]","[0.0037229340580350444,0.04093031981323125]","[1,1,1]","[0.12889641371062446,-0.051386497155180406]","[1,1,1]","[-0.05377306923970397,-0.14748302115139467]","[1,1,1]","[0.02,0.02]",239.1791,0,1,1,164,1,,,,,,,
,,,,,,,66539487195bfe168f78bcc1,6831aab46af1965efc99b252,2025-05-24_14h25.40.413,cuing_paradigm_dot,2024.1.5,Win32,60.24096386,682d573fa47f1360d1451895,,,,,,,,,,,239.1812,239.6782,,,239.9302,240.5973,right,0.6617,,,,,,,,,0.9,,,,,,239.6782,239.9301,240.5974,"[-0.026331525187602296,0.09747433841876914]","[1,1,1]","[-0.018366874435447388,-0.04167126559340413]","[-1,-1,-1]","[-0.06855726915035477,-0.14978421630175281]","[1,1,1]","[-0.13354925920054592,-0.14545855869643884]","[1,1,1]","[-0.031401837315840474,0.15338147186413956]","[1,1,1]","[-0.08072669351707272,0.06486492920323059]","[1,1,1]","[0.18667123960104556,0.0379925356536036]","[1,1,1]","[0.06364037984874422,-0.006256434592644243]","[1,1,1]","[0.07938936919616128,0.03418887169244993]","[-1,-1,-1]","[-0.15352319832988606,-0.08844827203160423]","[1,1,1]","[0.062319128471121414,-0.05123585299965832]","[1,1,1]","[0.09684510781280681,0.13213954809243286]","[1,1,1]","[0.005857949049321992,-0.0011052982099266746]","[1,1,1]","[0.16538413911109867,0.07744952321838358]","[1,1,1]","[0.14484284130710862,-0.12036191242683056]","[1,1,1]","[-0.014661078959462845,-0.08365629031832411]","[1,1,1]","[0.10975916160241181,-0.05518659107312551]","[1,1,1]","[0.009888114385740276,-0.1613369958614993]","[1,1,1]","[-0.15932485537627733,0.09951468946667927]","[1,1,1]","[-0.0684874699090377,-0.0366763905213476]","[1,1,1]","[-0.10416547973950227,0.012972619758647637]","[1,1,1]","[0.09111459623297714,0.07463615344981529]","[1,1,1]","[0.10848168423942339,-0.15060776061505377]","[1,1,1]","[0.0318546704545214,0.16923664013354048]","[1,1,1]","[0.05271569454989561,0.1315991236764892]","[-1,-1,-1]","[0.03885371989759992,0.07119797387599981]","[1,1,1]","[-0.002741376954622222,0.06376430458357425]","[1,1,1]","[-0.07957152292307991,-0.08245321347882979]","[1,1,1]","[0.13576754668526317,-0.02251544054090527]","[1,1,1]","[-0.13872509851924014,-0.040084033230017496]","[1,1,1]","[-0.11669123462670548,0.1283886595390776]","[1,1,1]","[-0.010770751824607827,0.18785905885139123]","[1,1,1]","[0.02,0.02]",241.6955,0,2,2,192,1,,,,,,,
,,,,,,,66539487195bfe168f78bcc1,6831aab46af1965efc99b252,2025-05-24_14h25.40.413,cuing_paradigm_dot,2024.1.5,Win32,60.24096386,682d573fa47f1360d1451895,,,,,,,,,,,241.6975,242.1952,,,242.4466,243.071,left,0.6167,,,,,,,,,0.6,,,,,,242.1954,242.4464,243.0711,"[-0.06652865549349313,-0.08901550644800114]","[-1,-1,-1]","[-0.13476152741829506,0.14676260511252737]","[1,1,1]","[-0.11855123810503954,-0.04095694798406375]","[1,1,1]","[0.12118723741142619,-0.08387959500915085]","[1,1,1]","[0.036270859211453836,-0.1340174681256469]","[1,1,1]","[-0.1812029862640045,-0.06681746584453749]","[1,1,1]","[-0.03807139881157494,0.1935891105318014]","[-1,-1,-1]","[0.16445076639667028,0.05222572289913378]","[-1,-1,-1]","[0.1583006514397067,0.09358291096844094]","[-1,-1,-1]","[-0.055437846402461306,-0.1394529052389457]","[-1,-1,-1]","[0.013194857957526182,0.19418378090264288]","[-1,-1,-1]","[-0.01824368933958624,0.023577748247515427]","[1,1,1]","[-0.1709599947005088,0.07584189241769805]","[1,1,1]","[-0.0006839357860924974,-0.07724289893052015]","[1,1,1]","[-0.003382025039560076,-0.14916814374266132]","[1,1,1]","[-0.12782021673709773,-0.15227712211664438]","[1,1,1]","[0.16867118462382485,-0.07355249019646504]","[-1,-1,-1]","[0.10411619273505866,0.0436526980130645]","[1,1,1]","[0.02140742923298441,-0.026818369823415403]","[-1,-1,-1]","[-0.19174617539750316,-0.004153106780471318]","[-1,-1,-1]","[0.05521597878895653,0.05825424634101403]","[1,1,1]","[-0.07419257952674044,0.022088912231528153]","[1,1,1]","[-0.042032964335946575,0.10613666458215919]","[-1,-1,-1]","[-0.12647781498353552,0.08755274355890988]","[1,1,1]","[0.03844597742694256,-0.08969406777033366]","[1,1,1]","[-0.057926212878041755,-0.035035835175113675]","[-1,-1,-1]","[0.10175085345063725,-0.1322605788547189]","[1,1,1]","[0.001729727801036272,-0.1924147525018934]","[-1,-1,-1]","[0.11522991758388107,0.1597797007763136]","[1,1,1]","[-0.1631684761789422,-0.10646324116763282]","[-1,-1,-1]","[0.07635439609565567,-0.003669737782456874]","[1,1,1]","[0.1476354074063306,-0.022065264493050768]","[1,1,1]","[0.02,0.02]",244.1608,0,3,3,153,1,,,,,,,
,,,,,,,66539487195bfe168f78bcc1,6831aab46af1965efc99b252,2025-05-24_14h25.40.413,cuing_paradigm_dot,2024.1.5,Win32,60.24096386,682d573fa47f1360d1451895,,,,,,,,,,,244.1621,244.6607,,,244.9129,245.7163,right,0.7836,,,,,,,,,0.45,,,,,,244.6609,244.9127,245.7164,"[-0.11745162824979627,0.15783703459008624]","[1,1,1]","[-0.01834180944784869,0.10079842662607501]","[1,1,1]","[0.1625665171429502,0.0371429062600793]","[-1,-1,-1]","[0.1590895360844403,0.11955882252154042]","[-1,-1,-1]","[-0.1369360325823063,-0.1363461944898282]","[-1,-1,-1]","[-0.06658268906069645,-0.10095274354997315]","[1,1,1]","[-0.1316946449055974,0.09837356373910815]","[-1,-1,-1]","[0.12441015482112262,-0.13524877616848277]","[-1,-1,-1]","[-0.04329687174411115,0.1515216965275315]","[1,1,1]","[-0.18014491270991034,-0.03339365917485045]","[-1,-1,-1]","[-0.167800862161294,0.009116064115835478]","[-1,-1,-1]","[-0.08996830948905232,0.09086956247817314]","[-1,-1,-1]","[0.1256470289759829,-0.02164221711733735]","[1,1,1]","[0.0017604614191270612,-0.0084184835685829]","[-1,-1,-1]","[0.060845814375120495,0.005398973154950389]","[-1,-1,-1]","[0.001463323992290023,-0.1444566831175787]","[1,1,1]","[-0.010373235332067871,0.04983784617796901]","[-1,-1,-1]","[0.05471557829193277,0.11403365917068424]","[-1,-1,-1]","[-0.125748970728191,-0.04470309913211089]","[-1,-1,-1]","[0.11532191460966364,0.143107518938545]","[1,1,1]","[0.11957105956731487,0.054567812928824476]","[1,1,1]","[-0.06593195637656492,-0.05388388737342823]","[-1,-1,-1]","[0.0065333190920885565,-0.09682507614123109]","[1,1,1]","[0.030586225367295907,-0.04050480477639548]","[-1,-1,-1]","[0.18229571680346482,-0.05422355368512421]","[1,1,1]","[0.08480690005612634,-0.10669118328056046]","[-1,-1,-1]","[0.05846864312300253,-0.1657845179133631]","[-1,-1,-1]","[-0.025346577866348155,-0.048266980552461244]","[1,1,1]","[-0.03624627652693886,-0.1941172310091821]","[1,1,1]","[0.008801298260673898,-0.18575574883969834]","[-1,-1,-1]","[0.1891086342337242,-0.014273548248524106]","[1,1,1]","[0.024520424361242788,0.08046097798237194]","[1,1,1]","[0.02,0.02]",246.8109,0,4,4,86,1,,,,,,,
,,,,,,,66539487195bfe168f78bcc1,6831aab46af1965efc99b252,2025-05-24_14h25.40.413,cuing_paradigm_dot,2024.1.5,Win32,60.24096386,682d573fa47f1360d1451895,,,,,,,,,,,246.8133,247.3108,,,247.5512,248.2817,left,0.706,,,,,,,,,0.55,,,,,,247.3109,247.551,248.2824,"[-0.05569359630911757,-0.09242296652855503]","[-1,-1,-1]","[0.11846692399558209,-0.03928817545927831]","[-1,-1,-1]","[0.07545669184545077,-0.06154640012085989]","[1,1,1]","[-0.015767752810549766,-0.06744759186447254]","[-1,-1,-1]","[-0.05998316830482046,0.0445910323675724]","[1,1,1]","[0.13224646074547589,0.0957665876855097]","[1,1,1]","[-0.03619221128160763,-0.16034686672067297]","[1,1,1]","[-0.10363699137495966,0.012561996794688599]","[1,1,1]","[0.04240123723669348,0.015572195006460801]","[1,1,1]","[-0.0314867396784221,0.1026569157029711]","[1,1,1]","[0.06864529462552407,-0.13683532683093239]","[-1,-1,-1]","[0.17668300255702937,0.051013389127333]","[1,1,1]","[0.022315476100529846,0.18248912183117422]","[-1,-1,-1]","[-0.11631945145805316,-0.1326966690012068]","[1,1,1]","[-0.07551584552741311,0.17290729644457825]","[-1,-1,-1]","[-0.08516583004358975,0.10548944067571354]","[1,1,1]","[0.08847510515230222,0.10577515131385758]","[-1,-1,-1]","[0.010913484093312619,0.1175439010905528]","[-1,-1,-1]","[0.10920204147907098,-0.13427127272581713]","[1,1,1]","[0.14311343193373746,-0.08414539666868276]","[1,1,1]","[-0.008175240481205054,0.03943482176959164]","[-1,-1,-1]","[0.14621279007080784,0.014507457338806767]","[1,1,1]","[0.09298290757063113,0.0500096261766836]","[-1,-1,-1]","[0.059619577339434786,0.14021057206778745]","[-1,-1,-1]","[-0.17641204522752432,0.04097483909600381]","[1,1,1]","[-0.059769802814403236,-0.02886185547702566]","[1,1,1]","[-0.026179443002106798,0.0028692091837687565]","[1,1,1]","[-0.19497151731001944,-0.032511796326488276]","[-1,-1,-1]","[-0.005509002769962697,-0.117894917417626]","[1,1,1]","[0.0037730181983909386,-0.19032468085488038]","[1,1,1]","[-0.13159373493976867,-0.05365334772032144]","[-1,-1,-1]","[-0.15078793746765548,0.10535645567005153]","[-1,-1,-1]","[0.02,0.02]",249.378,0,5,5,124,1,,,,,,,
,,,,,,,66539487195bfe168f78bcc1,6831aab46af1965efc99b252,2025-05-24_14h25.40.413,cuing_paradigm_dot,2024.1.5,Win32,60.24096386,682d573fa47f1360d1451895,,,,,,,,,,,249.3802,249.8774,,,250.1331,250.7975,left,0.6436,,,,,,,,,0.5,,,,,,249.8777,250.1329,250.7978,"[0.02139946561561029,0.1491280909439552]","[-1,-1,-1]","[0.025249854941979056,-0.043971222810508165]","[1,1,1]","[-0.14281814884438793,0.0868519511009254]","[1,1,1]","[-0.02682275877600014,0.05586633113514258]","[1,1,1]","[0.060936574694457665,-0.08342584044025055]","[1,1,1]","[-0.042674520369131635,-0.03899555435416268]","[-1,-1,-1]","[0.05000506109040612,0.09519925642929214]","[-1,-1,-1]","[0.14414983524328745,0.008989561225817169]","[1,1,1]","[-0.1324103967105612,0.032692858921438285]","[1,1,1]","[-0.13355897445279294,-0.06136038224986537]","[1,1,1]","[0.048376827911015635,-0.12591044338007407]","[-1,-1,-1]","[0.045436998515512396,-0.0014572034999343329]","[1,1,1]","[0.19643393686847893,-0.03752283026796014]","[1,1,1]","[-0.16039333358262076,-0.011124447589615435]","[-1,-1,-1]","[0.15548434011864148,0.08115831429102015]","[1,1,1]","[-0.09010822861474001,-0.06363406443871582]","[1,1,1]","[-0.03483683235638151,0.0094009094162224]","[-1,-1,-1]","[0.11297240238113568,0.053979370116407084]","[-1,-1,-1]","[-0.05243375470205911,0.1761413656714017]","[-1,-1,-1]","[-0.11443134645859004,-0.14280617487947783]","[1,1,1]","[0.09204846479885785,-0.04407517184722302]","[1,1,1]","[-0.17548067742986675,-0.0949938127894823]","[-1,-1,-1]","[0.11832008285242271,0.10185024091290548]","[1,1,1]","[0.16984246641803016,0.04223869442909875]","[-1,-1,-1]","[0.07962355408977763,0.17665306631999997]","[1,1,1]","[-0.08210123385409733,0.08156925925996382]","[-1,-1,-1]","[0.1252300660265209,-0.12666791337122962]","[-1,-1,-1]","[-0.18091256683147025,0.033187552573035094]","[-1,-1,-1]","[-0.0454455566189996,-0.08271527858221582]","[-1,-1,-1]","[0.1479246432204204,0.13080776399934577]","[-1,-1,-1]","[0.06480498620526909,0.04828399056995382]","[-1,-1,-1]","[0.006732712746517858,-0.08863774390769807]","[1,1,1]","[0.02,0.02]",251.894,0,6,6,101,1,,,,,,,
,,,,,,,66539487195bfe168f78bcc1,6831aab46af1965efc99b252,2025-05-24_14h25.40.413,cuing_paradigm_dot,2024.1.5,Win32,60.24096386,682d573fa47f1360d1451895,,,,,,,,,,,251.8958,252.3924,,,252.6454,253.2095,left,0.5352,,,,,,,,,0.1,,,,,,252.3925,252.6453,253.2097,"[0.07377835576212464,0.15477278140863296]","[-1,-1,-1]","[-0.03546896633485414,-0.13122418842019815]","[-1,-1,-1]","[0.11018298985994188,-0.1342379274746267]","[-1,-1,-1]","[-0.009817516834435967,0.050793499395601543]","[-1,-1,-1]","[0.11973713564230024,0.008086051802749935]","[-1,-1,-1]","[-0.10987106148232217,-0.08085432208866218]","[-1,-1,-1]","[0.025100572096341613,-0.1428631174952853]","[-1,-1,-1]","[-0.1280888963047726,-0.031610670735806555]","[-1,-1,-1]","[0.11173893916193581,0.11921457874987124]","[-1,-1,-1]","[-0.05179120415036675,0.16029175199926568]","[-1,-1,-1]","[0.15081821447188942,-0.05304763329432434]","[-1,-1,-1]","[-0.0256081349906364,0.09575640055469913]","[-1,-1,-1]","[0.03579997519775166,-0.042643166274465814]","[-1,-1,-1]","[0.003724906363545312,0.14147975174993585]","[-1,-1,-1]","[-0.11866211497201785,0.03511480598158654]","[-1,-1,-1]","[-0.0028353600181618703,-0.19311832366990808]","[-1,-1,-1]","[0.15550754535218525,0.11103186288152922]","[1,1,1]","[0.07498948679628241,0.010594254177857155]","[-1,-1,-1]","[-0.06479626445980853,-0.07439047300653068]","[-1,-1,-1]","[-0.01854220618862017,-0.010760485873635355]","[-1,-1,-1]","[0.1966613276504276,-0.026033569517420047]","[1,1,1]","[-0.11823723208126598,0.129178405998029]","[-1,-1,-1]","[0.08922434611375984,-0.0775248070396702]","[-1,-1,-1]","[0.01675395749979269,0.1017531725901808]","[-1,-1,-1]","[-0.11006840279796927,0.08026108025343628]","[1,1,1]","[-0.16522272607589916,0.008889746851679156]","[-1,-1,-1]","[0.040848846270311365,-0.1930573599139017]","[-1,-1,-1]","[-0.0835884192065365,-0.16137823422957165]","[-1,-1,-1]","[0.07669732298236938,0.06740681761012365]","[-1,-1,-1]","[-0.06149951757034176,-0.021479438752113778]","[-1,-1,-1]","[0.011067281374461113,-0.10447136904233513]","[-1,-1,-1]","[-0.02907127695260163,-0.05550627255496746]","[-1,-1,-1]","[0.02,0.02]",254.3107,0,7,7,21,1,,,,,,,
,,,,,,,66539487195bfe168f78bcc1,6831aab46af1965efc99b252,2025-05-24_14h25.40.413,cuing_paradigm_dot,2024.1.5,Win32,60.24096386,682d573fa47f1360d1451895,,,,,,,,,,,254.3131,254.8101,,,255.0605,255.5458,left,0.4688,,,,,,,,,0.4,,,,,,254.8103,255.0605,255.5461,"[0.01534029895866883,-0.11467723663035137]","[-1,-1,-1]","[-0.13390068609877703,0.0479891633919469]","[-1,-1,-1]","[-0.028174321679656878,-0.08472501230439951]","[-1,-1,-1]","[0.11454128520070822,-0.09640161552379146]","[1,1,1]","[-0.09541057504933638,-0.10775530083708765]","[-1,-1,-1]","[0.0012575625660294723,-0.026432252958414573]","[-1,-1,-1]","[-0.15990544487688246,-0.10057699218302595]","[-1,-1,-1]","[0.05959324190331016,0.05415483050736582]","[-1,-1,-1]","[0.11185978571749236,0.1113709869723976]","[-1,-1,-1]","[-0.19370847675995861,0.01912585356862259]","[-1,-1,-1]","[0.07288077395321947,-0.04687077597365882]","[1,1,1]","[0.011980870540428613,-0.17447196208579077]","[-1,-1,-1]","[0.01353455938911682,0.07908135428754039]","[1,1,1]","[-0.08086201387833751,0.08105409232316563]","[1,1,1]","[0.10585120151883944,-0.16203867327923793]","[1,1,1]","[-0.0587677476418612,-0.1388621583825188]","[-1,-1,-1]","[0.17071711718663163,0.012971016348734694]","[-1,-1,-1]","[-0.02212667030902518,0.04046454443868561]","[1,1,1]","[0.006189696933694335,0.14240829886398595]","[1,1,1]","[-0.06601654050205617,-0.055187807855150345]","[1,1,1]","[-0.07917964763205612,0.02252581005000449]","[-1,-1,-1]","[-0.1703800571990646,-0.01576449393312972]","[-1,-1,-1]","[-0.12680649666798802,-0.043568241098880064]","[1,1,1]","[0.05529986877059747,0.13566584657095937]","[-1,-1,-1]","[0.1254918500006215,0.06890794787413936]","[1,1,1]","[-0.06976414711198409,0.14695646206198093]","[-1,-1,-1]","[0.04078747171009846,0.17838735468954217]","[-1,-1,-1]","[-0.05064447612576783,-0.17816314933293234]","[1,1,1]","[-0.04125677301516725,-0.007988065696720682]","[1,1,1]","[0.1873919388365037,-0.0648599886610728]","[-1,-1,-1]","[0.14683466817189672,-0.029944643744264164]","[1,1,1]","[0.07627042619154395,-0.11010040440049189]","[-1,-1,-1]","[0.02,0.02]",256.6425,0,8,8,45,1,,,,,,,
,,,,,,,66539487195bfe168f78bcc1,6831aab46af1965efc99b252,2025-05-24_14h25.40.413,cuing_paradigm_dot,2024.1.5,Win32,60.24096386,682d573fa47f1360d1451895,,,,,,,,,,,256.6441,257.1422,,,257.3969,257.8958,left,0.4758,,,,,,,,,0.1,,,,,,257.1423,257.3969,257.896,"[0.08783288156588939,-0.10645819663932328]","[-1,-1,-1]","[0.003670577894896866,0.18147155036968854]","[-1,-1,-1]","[0.1171341196405062,0.07965992714450189]","[1,1,1]","[0.0621862092988314,0.06634058177926701]","[-1,-1,-1]","[0.03312936007763756,-0.007525620352089797]","[-1,-1,-1]","[0.10989913883867088,0.008065409477786948]","[-1,-1,-1]","[-0.17052813246695908,0.10113381899356128]","[-1,-1,-1]","[-0.05657629997107699,0.13315896775808617]","[-1,-1,-1]","[0.015256233841447026,-0.08240724265075354]","[-1,-1,-1]","[-0.10597745827806948,-0.019412375400783458]","[-1,-1,-1]","[0.12640313486759588,-0.15072113050937164]","[-1,-1,-1]","[-0.10938379787154924,0.15910482288381733]","[-1,-1,-1]","[-0.0841503106601828,-0.17855267433077063]","[-1,-1,-1]","[-0.06669634363430939,-0.04443101410021218]","[-1,-1,-1]","[0.05155154351842448,0.11660754867615743]","[-1,-1,-1]","[-0.14244112949219787,-0.07901626463324347]","[-1,-1,-1]","[-0.1443814739595192,0.04373288645951696]","[-1,-1,-1]","[-0.05315961271071172,0.0794541888925834]","[1,1,1]","[-0.10083351282025915,0.06016930645159363]","[1,1,1]","[-0.024822738317084425,-0.028756404690690827]","[-1,-1,-1]","[0.0012270181496667198,0.1037421425289024]","[-1,-1,-1]","[0.05932837806635399,-0.0377590758028919]","[-1,-1,-1]","[-0.05443729928310806,-0.13837593400424347]","[-1,-1,-1]","[0.12834159051990476,0.15278493744857147]","[-1,-1,-1]","[-0.17339102640862128,0.0013378918592210696]","[-1,-1,-1]","[-0.056584378988618005,0.17517304672098286]","[-1,-1,-1]","[0.17027343750002294,-0.09513572140296235]","[-1,-1,-1]","[-0.10761854631233023,-0.14312924713810396]","[-1,-1,-1]","[0.1526080603933419,0.060329541269107355]","[-1,-1,-1]","[0.15302264360099077,-0.018797864469874012]","[-1,-1,-1]","[0.074109262682386,-0.1796203467464483]","[-1,-1,-1]","[0.19182378488360757,0.05163732974445255]","[-1,-1,-1]","[0.02,0.02]",259.0001,0,9,9,13,1,,,,,,,
,,,,,,,66539487195bfe168f78bcc1,6831aab46af1965efc99b252,2025-05-24_14h25.40.413,cuing_paradigm_dot,2024.1.5,Win32,60.24096386,682d573fa47f1360d1451895,,,,,,,,,,,259.0015,259.4909,,,259.7448,260.2143,right,0.4512,,,,,,,,,0.6,,,,,,259.4911,259.7446,260.2145,"[0.041781955461613625,-0.05601014567418955]","[1,1,1]","[-0.03916859401891799,0.10299822626853654]","[1,1,1]","[-0.09188244901256738,0.07656246907376643]","[-1,-1,-1]","[0.19070225792321405,0.01906792976769454]","[-1,-1,-1]","[0.09666460271492847,-0.15007217245418172]","[-1,-1,-1]","[0.05991002319674846,-0.0024793424002662635]","[-1,-1,-1]","[0.07998527418479671,0.04491750426497038]","[-1,-1,-1]","[0.037867491716158094,-0.15925433619764892]","[1,1,1]","[-0.045220194570236696,-0.03190348840018627]","[-1,-1,-1]","[-0.15818492225834146,-0.015166020816410377]","[1,1,1]","[0.0073994365290630925,-0.07706806906726786]","[-1,-1,-1]","[0.017105083911159023,0.17702512366518508]","[1,1,1]","[-0.13337480556713788,-0.08158618731977173]","[-1,-1,-1]","[-0.04724811718705002,-0.13825911922216635]","[1,1,1]","[-0.0380327794732909,0.1788928704545842]","[1,1,1]","[-0.13814292434863812,0.0767230407312689]","[-1,-1,-1]","[-0.0014134380627502526,0.028069823383763893]","[1,1,1]","[0.15166239469145373,-0.01514103967776306]","[1,1,1]","[-0.0724153382761194,-0.0936356150289611]","[1,1,1]","[0.07148329537661473,0.14066115413492727]","[1,1,1]","[0.1098585516735508,-0.08821663236756]","[1,1,1]","[-0.08714238422556717,0.017565425057433005]","[1,1,1]","[0.05305260514502264,0.08247200384020487]","[-1,-1,-1]","[0.13483842229538634,0.032755047398740765]","[1,1,1]","[0.003253945064734466,-0.1991261086979403]","[1,1,1]","[-0.18254232233913847,0.05445920391475637]","[-1,-1,-1]","[-0.17378172660653135,0.09542419403899369]","[1,1,1]","[-0.08578421306092941,0.131196866884186]","[1,1,1]","[0.0057217779397372905,0.09722006300712888]","[1,1,1]","[-0.09715746017656716,-0.022325241937015763]","[-1,-1,-1]","[0.06721547441785014,-0.12000717588911451]","[-1,-1,-1]","[0.07245669505914178,-0.18298240936087362]","[1,1,1]","[0.02,0.02]",261.3091,0,10,10,171,1,,,,,,,
,,,,,,,66539487195bfe168f78bcc1,6831aab46af1965efc99b252,2025-05-24_14h25.40.413,cuing_paradigm_dot,2024.1.5,Win32,60.24096386,682d573fa47f1360d1451895,,,,,,,,,,,261.311,261.8086,,,262.06,262.71,right,0.6284,,,,,,,,,0.6,,,,,,261.8089,262.0598,262.7103,"[0.05574068049861194,0.011884978329684373]","[-1,-1,-1]","[0.03892407192196682,0.14230315967927756]","[1,1,1]","[-0.03703359186642511,-0.001850396905334935]","[1,1,1]","[-0.1207162757060112,-0.04296448169562339]","[1,1,1]","[0.1693658593041871,-0.04348751237841902]","[1,1,1]","[0.16717767568370506,0.04613897951398578]","[-1,-1,-1]","[-0.14488490214453453,-0.12270880415459336]","[1,1,1]","[0.12311309878154415,0.05236785474804036]","[-1,-1,-1]","[0.06914544840180888,-0.11131203913650292]","[-1,-1,-1]","[-0.01308760701223439,-0.10138350482785184]","[1,1,1]","[0.10190871789883268,0.09766731049289139]","[1,1,1]","[-0.178015816072542,0.029786248219393113]","[1,1,1]","[-0.03980592270423433,0.12845455571588218]","[1,1,1]","[-0.05392135144820017,-0.14358341075737352]","[1,1,1]","[0.0860838740463261,-0.02179502506628313]","[-1,-1,-1]","[0.10363944192121939,-0.1522781051906015]","[-1,-1,-1]","[0.017501120028055227,0.07025176506348156]","[1,1,1]","[-0.0635533993298401,0.04066431701001858]","[1,1,1]","[-0.1925624130591981,-0.008270636939501298]","[-1,-1,-1]","[0.028157321032192522,-0.044530232610751154]","[1,1,1]","[-0.0682264501196266,-0.04964396650705405]","[1,1,1]","[-0.06014511899733218,0.08717853854716512]","[1,1,1]","[0.009786336861426173,0.17261992351385338]","[-1,-1,-1]","[-0.13107817325069387,0.14425101572653423]","[-1,-1,-1]","[-0.0010502842678429144,-0.1926652619624448]","[1,1,1]","[-0.12550126621133625,0.0033749617605327584]","[-1,-1,-1]","[-0.08468547583900501,-0.09191239099428222]","[-1,-1,-1]","[0.08456022286629622,0.14886163400048902]","[1,1,1]","[0.04283408004155,-0.19208532027388586]","[1,1,1]","[-0.09501676507693074,-0.14107170349603956]","[1,1,1]","[-0.11098117574379764,0.10648057302470494]","[-1,-1,-1]","[0.004419022731781475,-0.005690880436215314]","[-1,-1,-1]","[0.02,0.02]",263.8081,0,11,11,165,1,,,,,,,
,,,,,,,66539487195bfe168f78bcc1,6831aab46af1965efc99b252,2025-05-24_14h25.40.413,cuing_paradigm_dot,2024.1.5,Win32,60.24096386,682d573fa47f1360d1451895,,,,,,,,,,,263.8105,264.3115,,,264.5578,265.1298,right,0.5556,,,,,,,,,0.9,,,,,,264.3116,264.5576,265.1302,"[-0.059280746909247804,-0.0366198638333436]","[1,1,1]","[-0.1575648397117859,0.11777581817619297]","[1,1,1]","[0.19745413947312532,-0.003823234131417458]","[1,1,1]","[-0.08451240831914013,-0.09720914890503593]","[1,1,1]","[0.16063766911388244,0.0977865225410416]","[1,1,1]","[-0.0671979882462915,0.06083467720264833]","[1,1,1]","[0.041603970057437004,-0.07282712706512831]","[-1,-1,-1]","[0.02742458235427372,0.16280565004863407]","[1,1,1]","[-0.0882188995103655,-0.17271058338107864]","[1,1,1]","[0.033129418152684914,0.001370129897812853]","[1,1,1]","[0.15559058571299364,-0.06210434199552077]","[-1,-1,-1]","[0.16837867562212158,0.05115178376125545]","[1,1,1]","[-0.0213998139648196,-0.1374848130498779]","[-1,-1,-1]","[-0.03667776698320174,0.19358836960937215]","[1,1,1]","[0.006503255663662051,-0.04048724065872027]","[1,1,1]","[0.08646023713429693,0.1610320935163645]","[1,1,1]","[-0.16401997774653282,-0.0019701449718041034]","[1,1,1]","[0.06774615003428933,0.06702868770423118]","[1,1,1]","[-0.1154163032381314,-0.018364095947318554]","[1,1,1]","[-0.15842780448290777,-0.08826711361328386]","[1,1,1]","[-0.004322924992187522,0.10411008013700866]","[1,1,1]","[0.07812127651058891,0.1186281388299703]","[1,1,1]","[0.08724062494821075,-0.03295769635888545]","[1,1,1]","[-0.12216924438619232,0.1425693425767703]","[1,1,1]","[-0.02174056864655456,0.05373440115528469]","[1,1,1]","[-0.10084831570873298,0.08532440749734914]","[1,1,1]","[0.11335116348929565,-0.07062830800617181]","[1,1,1]","[0.09524869998870562,-0.15027057171705513]","[1,1,1]","[-0.04866068529807102,0.14481195980348485]","[1,1,1]","[0.10218563316552523,0.042461551144170266]","[1,1,1]","[0.04529206332192102,-0.11646718469217857]","[1,1,1]","[0.01442681985159605,-0.1608201180934658]","[1,1,1]","[0.02,0.02]",266.2255,0,12,12,209,1,,,,,,,
,,,,,,,66539487195bfe168f78bcc1,6831aab46af1965efc99b252,2025-05-24_14h25.40.413,cuing_paradigm_dot,2024.1.5,Win32,60.24096386,682d573fa47f1360d1451895,,,,,,,,,,,266.2272,266.7247,,,266.9778,267.69,left,0.6893,,,,,,,,,0.55,,,,,,266.7249,266.9778,267.6902,"[0.17471920968182295,0.08951991301441213]","[1,1,1]","[-0.02318273074296389,0.15519924620298745]","[1,1,1]","[0.08021898751125468,-0.17587852488889533]","[-1,-1,-1]","[-0.03963125300000583,0.06954941426447994]","[1,1,1]","[0.10804436220385706,0.13040731204050843]","[-1,-1,-1]","[0.17466095662820666,-0.0799021580114478]","[1,1,1]","[-0.08175260316036202,0.16400091241636236]","[1,1,1]","[0.03711329898163582,0.09034120635971021]","[1,1,1]","[-0.16762607248446496,0.062183270781124074]","[-1,-1,-1]","[-0.1135838164875223,-0.08334726480091485]","[-1,-1,-1]","[-0.12479998513866013,0.01073496014999443]","[1,1,1]","[0.04979591742712155,0.03654172317850963]","[1,1,1]","[0.02407635216826894,-0.11462170314098062]","[-1,-1,-1]","[-0.026621291523593337,0.03053483589850163]","[1,1,1]","[0.0348984498808238,0.18946094245919815]","[-1,-1,-1]","[-0.030412545609504602,-0.08589294605868104]","[-1,-1,-1]","[-0.11494840805207124,0.13729782366516033]","[1,1,1]","[-0.05006977285623302,-0.14846537869861523]","[-1,-1,-1]","[-0.07608469642310091,-0.10564423105810426]","[-1,-1,-1]","[0.03973908660147968,-0.03367467755627633]","[-1,-1,-1]","[0.1824403385671882,-0.023429235714917132]","[-1,-1,-1]","[-0.020851094593960572,-0.016686063060745188]","[-1,-1,-1]","[0.15877231879488024,0.03550556791552629]","[-1,-1,-1]","[0.08958383467261703,0.04408987141200303]","[1,1,1]","[0.026950898753181504,0.13820975646943995]","[1,1,1]","[0.11643015673221933,-0.14110590135984874]","[1,1,1]","[0.007040356759335793,-0.1662442626220274]","[1,1,1]","[-0.19100121453537844,-0.00738812058869776]","[1,1,1]","[0.05503044286628769,-0.1433451168207437]","[1,1,1]","[-0.13912053601940477,0.09155627026454204]","[-1,-1,-1]","[-0.09082127828858992,0.07774874261357026]","[1,1,1]","[-0.08771569822253641,-0.1637998541906352]","[1,1,1]","[0.02,0.02]",268.7939,0,13,13,120,1,,,,,,,
,,,,,,,66539487195bfe168f78bcc1,6831aab46af1965efc99b252,2025-05-24_14h25.40.413,cuing_paradigm_dot,2024.1.5,Win32,60.24096386,682d573fa47f1360d1451895,,,,,,,,,,,268.795,269.2903,,,269.5405,270.1395,left,0.5841,,,,,,,,,0.1,,,,,,269.2905,269.5404,270.1397,"[-0.1048217546006223,0.14309053026109328]","[-1,-1,-1]","[0.1513258592631311,0.05206876530356002]","[-1,-1,-1]","[-0.018862940308812907,0.03610467724805261]","[1,1,1]","[0.05139812540229465,-0.15028128022385517]","[-1,-1,-1]","[-0.06555194871142703,-0.07657622552929774]","[-1,-1,-1]","[-0.18868338782865932,0.008996556015442969]","[1,1,1]","[-0.12977086790880873,0.09931702909209353]","[-1,-1,-1]","[-0.06860706926700957,-0.16905775401219525]","[-1,-1,-1]","[0.14437763665011022,0.12127936611308938]","[-1,-1,-1]","[-0.03163291098742713,-0.11704764589606523]","[-1,-1,-1]","[0.03416374763223181,-0.19578023313501158]","[-1,-1,-1]","[-0.1276645273957569,-0.06937732064952125]","[-1,-1,-1]","[0.09426166756803712,0.0351248650059806]","[-1,-1,-1]","[-0.056275750334019985,0.0069465414777478435]","[-1,-1,-1]","[-0.13094303666385979,0.045788219963479204]","[-1,-1,-1]","[0.08760649878776218,-0.019332771928621786]","[-1,-1,-1]","[0.04476069392734569,0.05230659695274668]","[-1,-1,-1]","[0.11595340438257042,0.15632605573009298]","[-1,-1,-1]","[-0.007175946986400582,0.09724485611351483]","[-1,-1,-1]","[-0.0016875771499616143,-0.06246737939975183]","[-1,-1,-1]","[-0.10501268545125554,0.002209809574197558]","[-1,-1,-1]","[0.016873757579161104,-0.021284356811486254]","[-1,-1,-1]","[0.11268149730236025,-0.10478103334135708]","[-1,-1,-1]","[-0.051949247158057425,0.12671454730323345]","[-1,-1,-1]","[-0.1606833637553289,-0.1100960637962394]","[-1,-1,-1]","[-0.02353166307887779,-0.17945697374074596]","[-1,-1,-1]","[0.14700397695972023,-0.12695550559434973]","[-1,-1,-1]","[0.051061376608911635,0.11663457131238977]","[1,1,1]","[0.023272939058701578,0.1581559734941635]","[-1,-1,-1]","[0.16807227090875018,-0.08774774050505076]","[-1,-1,-1]","[-0.08309825480560785,0.042524429829697785]","[-1,-1,-1]","[0.10834536031286637,0.0771108204096107]","[-1,-1,-1]","[0.02,0.02]",271.2393,0,14,14,14,1,,,,,,,
,,,,,,,66539487195bfe168f78bcc1,6831aab46af1965efc99b252,2025-05-24_14h25.40.413,cuing_paradigm_dot,2024.1.5,Win32,60.24096386,682d573fa47f1360d1451895,,,,,,,,,,,271.2413,271.7393,,,271.9909,272.4583,left,0.4519,,,,,,,,,0.1,,,,,,271.7395,271.9908,272.4585,"[0.029196417316185296,-0.0781974895881917]","[-1,-1,-1]","[-0.010466064295832217,-0.1446399425016867]","[-1,-1,-1]","[0.0017353664550288214,-0.022099676954537344]","[-1,-1,-1]","[-0.12046121399665487,-0.07418131956139917]","[-1,-1,-1]","[0.026760099389746994,-0.17785180785213822]","[-1,-1,-1]","[0.13628666891418767,0.047724473171168236]","[-1,-1,-1]","[0.14348638693297852,-0.08915335654226406]","[1,1,1]","[-0.10705320548951897,0.08433643589836307]","[-1,-1,-1]","[0.09551152142754608,0.011282695880818542]","[-1,-1,-1]","[-0.1484368183412924,0.1119023730850674]","[-1,-1,-1]","[0.08343651311582027,-0.0611486210340177]","[1,1,1]","[-0.06665678248364006,0.10470278538515165]","[-1,-1,-1]","[0.14992885755165605,-0.020808858936853733]","[-1,-1,-1]","[0.01734515364467387,0.1757858215930073]","[-1,-1,-1]","[0.07436890939481668,-0.12900779423131767]","[-1,-1,-1]","[-0.08378942838259665,-0.013958287046421696]","[-1,-1,-1]","[0.0446896345960393,0.013600384327581167]","[-1,-1,-1]","[-0.12691764011532722,0.00887666095434498]","[-1,-1,-1]","[-0.06417180871525234,0.1733974678699198]","[-1,-1,-1]","[-0.11523894235066469,-0.13306990090685258]","[1,1,1]","[-0.03284798225581055,-0.19674000446636553]","[-1,-1,-1]","[-0.010026994761283431,0.10607387886959688]","[-1,-1,-1]","[-0.16912929684050276,-0.08123857908495376]","[-1,-1,-1]","[-0.055851443838218474,0.016525193605911002]","[-1,-1,-1]","[0.027762709091533905,0.06495578221104412]","[-1,-1,-1]","[-0.15776402617314358,-0.04251938922587863]","[-1,-1,-1]","[0.10253667105066204,0.09988195329872522]","[-1,-1,-1]","[-0.14388397747655432,0.06252864995961341]","[-1,-1,-1]","[-0.09929780171286356,0.13548203597505015]","[-1,-1,-1]","[0.112290064357437,-0.16474421883897084]","[-1,-1,-1]","[-0.07247571079483006,-0.17915356224876935]","[-1,-1,-1]","[0.07983698479283816,0.17318049430067572]","[-1,-1,-1]","[0.02,0.02]",273.5557,0,15,15,1,1,,,,,,,
,,,,,,,66539487195bfe168f78bcc1,6831aab46af1965efc99b252,2025-05-24_14h25.40.413,cuing_paradigm_dot,2024.1.5,Win32,60.24096386,682d573fa47f1360d1451895,,,,,,,,,,,273.5574,274.0551,,,274.3063,274.7751,left,0.4535,,,,,,,,,0.1,,,,,,274.0551,274.3063,274.7753,"[0.07933991733776921,0.04353080348768933]","[-1,-1,-1]","[0.06290815498010861,0.1284324151623103]","[-1,-1,-1]","[0.025058866708150787,-0.0026526582471960826]","[-1,-1,-1]","[-0.13537254854169328,0.013308160158695098]","[-1,-1,-1]","[-0.06833011611291616,0.036875930195573246]","[1,1,1]","[-0.059805593622741855,0.18317928693363617]","[-1,-1,-1]","[0.1536087466177757,0.01096870899453946]","[-1,-1,-1]","[-0.0890303257061473,-0.09440949639784474]","[-1,-1,-1]","[0.011772287739745656,-0.0478682519116918]","[-1,-1,-1]","[-0.13688737295049225,-0.06787944838201838]","[-1,-1,-1]","[-0.059534457114868225,-0.13167528744047546]","[-1,-1,-1]","[-0.1783577624456779,-0.048544717457748195]","[-1,-1,-1]","[0.06933506203822773,-0.07860636020099128]","[-1,-1,-1]","[0.16756548177611907,-0.0688173109174136]","[-1,-1,-1]","[0.14293174585062773,0.07216992470609822]","[-1,-1,-1]","[0.0666451742407246,-0.16109320918909834]","[-1,-1,-1]","[0.022552367504094027,-0.11940437585612881]","[-1,-1,-1]","[0.03765074126614085,0.17782194317285785]","[-1,-1,-1]","[-0.05906347153827734,0.08675035615908096]","[-1,-1,-1]","[0.09761787233969528,-0.04550828236973197]","[-1,-1,-1]","[-0.14030070778274345,0.09213515375361703]","[-1,-1,-1]","[0.007329100308440145,0.0451307982362468]","[-1,-1,-1]","[-0.07701608845175478,-0.043937787783507744]","[-1,-1,-1]","[-0.18044760559437117,-0.0021561103796847833]","[-1,-1,-1]","[-0.10202851522916098,0.10946690076412204]","[-1,-1,-1]","[0.1365118371321448,-0.14017895026958208]","[-1,-1,-1]","[-0.0364521311146673,-0.188645290397603]","[-1,-1,-1]","[0.10935538105375008,0.09418563415053308]","[-1,-1,-1]","[-0.013146876194642759,0.12043154566785379]","[1,1,1]","[-0.05696393462472424,-0.009020479456535774]","[-1,-1,-1]","[0.1072991558107519,0.15941313347315886]","[1,1,1]","[0.0185859103066879,-0.1861964668187851]","[-1,-1,-1]","[0.02,0.02]",275.8715,0,16,16,2,1,,,,,,,
,,,,,,,66539487195bfe168f78bcc1,6831aab46af1965efc99b252,2025-05-24_14h25.40.413,cuing_paradigm_dot,2024.1.5,Win32,60.24096386,682d573fa47f1360d1451895,,,,,,,,,,,275.8724,276.3723,,,276.6244,277.2767,left,0.643,,,,,,,,,0.55,,,,,,276.3724,276.6243,277.2771,"[-0.194193118064831,-0.03932646463902562]","[1,1,1]","[0.03880444759475618,0.16673076309641652]","[-1,-1,-1]","[-0.09947138124193476,-0.0752864519681618]","[1,1,1]","[-0.19042505304255522,0.0285587550911236]","[-1,-1,-1]","[0.10495124340927772,-0.0021333945121402857]","[1,1,1]","[0.009240686538161572,-0.07352312534123864]","[1,1,1]","[-0.136573309913246,-0.11271381959393109]","[1,1,1]","[0.05472048245772528,-0.1334815025918964]","[-1,-1,-1]","[0.16352364638018674,-0.04442321288935319]","[1,1,1]","[-0.036880059352424756,0.046041869627515844]","[-1,-1,-1]","[0.05107703115083975,0.007834780706401251]","[1,1,1]","[-0.08760446320532736,-0.12703705261276915]","[-1,-1,-1]","[-0.012481589311328338,-0.19531682421473656]","[1,1,1]","[0.07709145554186175,0.06593359918833393]","[-1,-1,-1]","[-0.06931905742297764,-0.00346858790243586]","[-1,-1,-1]","[0.05064285406361535,-0.08064257464712554]","[-1,-1,-1]","[0.18701485508681687,0.013732261107933052]","[-1,-1,-1]","[0.08783092504427324,0.13514829939004686]","[1,1,1]","[-0.09352507108441942,0.17600979874309425]","[-1,-1,-1]","[-0.02591268091245259,0.11930107154753368]","[1,1,1]","[0.09527482530688082,-0.08966397551707707]","[-1,-1,-1]","[-0.14654543447468105,0.004432208301954862]","[1,1,1]","[0.026754938372948178,0.04142163415113996]","[1,1,1]","[0.17117727486628825,0.06979336664991867]","[1,1,1]","[-0.11647444726393845,0.11182320341726926]","[-1,-1,-1]","[0.06797444205246239,-0.037956774090954416]","[1,1,1]","[0.04040750295017041,-0.17345167199178999]","[1,1,1]","[-0.03980921673295798,-0.08846636419965091]","[-1,-1,-1]","[-0.018687563197088336,-0.017495164824131305]","[1,1,1]","[-0.0031276406156296654,0.17908306519000086]","[-1,-1,-1]","[0.1148785342078231,0.10146830617521839]","[1,1,1]","[-0.1516607306424462,0.06606385396906755]","[1,1,1]","[0.02,0.02]",278.3713,0,17,17,126,1,,,,,,,
,,,,,,,66539487195bfe168f78bcc1,6831aab46af1965efc99b252,2025-05-24_14h25.40.413,cuing_paradigm_dot,2024.1.5,Win32,60.24096386,682d573fa47f1360d1451895,,,,,,,,,,,278.3735,278.8713,,,279.1264,279.5071,left,0.3582,,,,,,,,,0.1,,,,,,278.8714,279.1262,279.5073,"[-0.002018959236747057,0.0822024430576545]","[-1,-1,-1]","[-0.15091512909163676,0.038427478176344454]","[-1,-1,-1]","[0.014557739126378451,0.16851572625969222]","[-1,-1,-1]","[-0.07245730708046536,0.037751938825528374]","[-1,-1,-1]","[-0.13957739549843332,-0.11634026151537379]","[1,1,1]","[0.015392399829399548,-0.10014954542388968]","[-1,-1,-1]","[0.06523448151127624,-0.1351626743718432]","[-1,-1,-1]","[0.04124557052063897,-0.17580370524369274]","[-1,-1,-1]","[-0.14771441285562775,0.12763007104963528]","[1,1,1]","[-0.05605078611765809,0.09259142590044556]","[-1,-1,-1]","[0.11426944591043249,0.05133747046956761]","[-1,-1,-1]","[0.1738494798975416,0.02121190839112398]","[-1,-1,-1]","[0.12696009846305292,-0.02940145226101101]","[1,1,1]","[0.1151606360965919,0.10557075422553636]","[-1,-1,-1]","[-0.07512993718084912,-0.03716193546268111]","[-1,-1,-1]","[0.1381246154083994,-0.10184155364578255]","[-1,-1,-1]","[-0.09421040225123337,-0.09608531409400747]","[-1,-1,-1]","[0.1667859094526856,-0.04528046038522663]","[-1,-1,-1]","[-0.12759318010629522,-0.0008280003659356836]","[-1,-1,-1]","[0.05789301695472629,0.1019332454229495]","[-1,-1,-1]","[0.059918038369322434,-0.0929885106301595]","[-1,-1,-1]","[0.05747282096181703,0.14593946872761224]","[-1,-1,-1]","[-0.19352650306582458,-0.04250603040152273]","[-1,-1,-1]","[-0.05380175200722874,-0.14003067914537676]","[-1,-1,-1]","[-0.009438333752793975,-0.011692592192495382]","[-1,-1,-1]","[-0.03958925780284703,0.13326001836051446]","[-1,-1,-1]","[-0.10082790615420907,0.08275866549609937]","[-1,-1,-1]","[0.10617364951044618,-0.16705288691612752]","[-1,-1,-1]","[0.016624451824892004,-0.051808171011328674]","[-1,-1,-1]","[-0.046046331043403575,-0.08409320759424986]","[-1,-1,-1]","[-0.10737999073297776,0.1459652480914499]","[-1,-1,-1]","[0.07108647781044615,0.025066608515229596]","[-1,-1,-1]","[0.02,0.02]",280.605,0,18,18,23,1,,,,,,,
,,,,,,,66539487195bfe168f78bcc1,6831aab46af1965efc99b252,2025-05-24_14h25.40.413,cuing_paradigm_dot,2024.1.5,Win32,60.24096386,682d573fa47f1360d1451895,,,,,,,,,,,280.6076,281.1048,,,281.3549,281.922,right,0.5531,,,,,,,,,0.45,,,,,,281.1051,281.3547,281.9239,"[-0.05675987228667009,0.16206076078863266]","[-1,-1,-1]","[0.16088989882121044,0.017785377895203475]","[-1,-1,-1]","[-0.12811415803597728,-0.033742067595763175]","[-1,-1,-1]","[-0.013602723218658005,-0.028376201537152826]","[1,1,1]","[-0.14757867277977293,0.030648075941012078]","[-1,-1,-1]","[0.11137050059303447,-0.080443547948398]","[-1,-1,-1]","[0.1824293725418476,0.07932130675426378]","[1,1,1]","[-0.08177823478877927,-0.04652983426021255]","[1,1,1]","[-0.06904597122171602,0.05494362487439482]","[-1,-1,-1]","[0.09120717988982015,-0.12189402319161362]","[1,1,1]","[0.093367313643568,0.1552027510694218]","[1,1,1]","[0.007746351635651078,0.12562688897170493]","[-1,-1,-1]","[-0.027398712671572796,0.04764245529374135]","[-1,-1,-1]","[0.04064944132679602,0.07271254056244258]","[1,1,1]","[-0.1830249838461473,0.00836250619845768]","[-1,-1,-1]","[-0.02853713848760661,-0.12260683651792041]","[1,1,1]","[-0.014141383145391255,0.17269649711340304]","[-1,-1,-1]","[0.03146386605637498,-0.02474958212006636]","[1,1,1]","[-0.09231932208616947,0.1021546505975896]","[1,1,1]","[0.18105380868949042,-0.08067372165667819]","[-1,-1,-1]","[0.10253914288419526,0.08480314030282467]","[1,1,1]","[-0.12120787695171073,0.15431027620637716]","[-1,-1,-1]","[0.04169917381948221,-0.08451504903584801]","[1,1,1]","[0.09973931115075739,0.010404715610148604]","[1,1,1]","[0.04779616457341648,0.024694792869575537]","[-1,-1,-1]","[-0.11918959535394565,-0.09864257532587507]","[-1,-1,-1]","[-0.052019917275761114,-0.1572263758612486]","[-1,-1,-1]","[-0.14581739256728893,0.0917930503335951]","[1,1,1]","[-0.06080234299512806,-0.09157012217754583]","[-1,-1,-1]","[0.03896721164020251,-0.17501146071504922]","[-1,-1,-1]","[-0.04658620470840779,0.08905481827342213]","[1,1,1]","[-0.11412635815407007,0.05943783528291378]","[-1,-1,-1]","[0.02,0.02]",283.0202,0,19,19,76,1,,,,,,,
,,,,,,,66539487195bfe168f78bcc1,6831aab46af1965efc99b252,2025-05-24_14h25.40.413,cuing_paradigm_dot,2024.1.5,Win32,60.24096386,682d573fa47f1360d1451895,,,,,,,,,,,283.0218,283.5205,,,283.7719,284.4076,left,0.6217,,,,,,,,,0.55,,,,,,283.5207,283.7718,284.4078,"[-0.028545130971355318,-0.13933617341773155]","[-1,-1,-1]","[0.17423395746530268,0.012592292111156375]","[1,1,1]","[-0.08738160010316738,-0.16721479944866985]","[1,1,1]","[-0.016655179490566323,0.13837923798411086]","[1,1,1]","[-0.07331538976340372,-0.028245981434521648]","[1,1,1]","[0.0966996673477047,-0.13028337776450283]","[-1,-1,-1]","[0.03276426740140338,-0.01303900819309052]","[-1,-1,-1]","[-0.13133850154682966,-0.05806092294963893]","[1,1,1]","[0.03303689951428393,-0.05525385814900675]","[-1,-1,-1]","[-0.15525101461318902,0.10282148532321254]","[-1,-1,-1]","[-0.03993125682747603,0.020024262343185002]","[1,1,1]","[0.07341842702217632,-0.042176122506298826]","[1,1,1]","[0.018976738198024482,0.19102991907936268]","[1,1,1]","[0.08767938902193802,0.061438830901258054]","[-1,-1,-1]","[0.1641923289644057,0.10562364756907357]","[-1,-1,-1]","[-0.016006486271236943,-0.10115518972408065]","[-1,-1,-1]","[-0.018930905451374606,0.08892126830515144]","[-1,-1,-1]","[0.11791543827731123,0.14153424613737065]","[1,1,1]","[0.014129499110344192,-0.18399772297426314]","[1,1,1]","[0.03299552551159919,0.04876768424912662]","[1,1,1]","[-0.06056289322559306,0.08466968710158361]","[1,1,1]","[-0.12691576818678357,0.1444446217155077]","[1,1,1]","[-0.08642478035656286,0.1152238304071216]","[1,1,1]","[0.14208497881018067,-0.037556622103490325]","[-1,-1,-1]","[0.029374774640175048,0.09611481737484688]","[1,1,1]","[-0.039900103572559374,-0.06786964858364844]","[1,1,1]","[0.08735077132414466,0.10589633590213436]","[-1,-1,-1]","[-0.19324639382314404,0.005872512553017942]","[-1,-1,-1]","[-0.10715361260545565,0.02332223849482443]","[1,1,1]","[-0.1791737176471355,-0.08018424531189086]","[-1,-1,-1]","[-0.12221777412318571,-0.12787021171682533]","[-1,-1,-1]","[0.004588228122648036,0.020526876589839333]","[1,1,1]","[0.02,0.02]",285.5034,0,20,20,143,1,,,,,,,
,,,,,,,66539487195bfe168f78bcc1,6831aab46af1965efc99b252,2025-05-24_14h25.40.413,cuing_paradigm_dot,2024.1.5,Win32,60.24096386,682d573fa47f1360d1451895,,,,,,,,,,,285.506,286.0032,,,286.2546,287.0209,right,0.7528,,,,,,,,,0.45,,,,,,286.0032,286.2545,287.021,"[0.17866728212001196,-0.041218162873152074]","[-1,-1,-1]","[-0.026306990417110824,-0.05690993665179641]","[1,1,1]","[0.10466174182944088,-0.12491933124619554]","[-1,-1,-1]","[-0.17853096622782988,-0.02925696518374965]","[1,1,1]","[0.00974403048304783,-0.18772268503861073]","[1,1,1]","[0.012345038103625798,-0.035556167996617385]","[-1,-1,-1]","[0.06242916055379253,-0.12279986001482804]","[-1,-1,-1]","[0.016495142739809957,0.16081259166089448]","[1,1,1]","[-0.05651659945526224,0.009279593608226113]","[-1,-1,-1]","[0.06531672064860258,0.08395190726614134]","[-1,-1,-1]","[-0.15028844420528045,-0.09175509752924675]","[-1,-1,-1]","[0.09098697279633026,0.02305142894100093]","[1,1,1]","[-0.12163595872986194,-0.05440757444763071]","[-1,-1,-1]","[-0.0488829431099045,-0.1613475744744124]","[-1,-1,-1]","[0.031534745406592936,-0.0781312239739541]","[1,1,1]","[-0.09109210405222547,0.10625717655600346]","[-1,-1,-1]","[0.0858931753969784,0.12553161887062056]","[1,1,1]","[0.13760960681245815,-0.0530582657166419]","[-1,-1,-1]","[0.1285900101565592,-0.01305586708626323]","[-1,-1,-1]","[-0.05387482220376428,-0.09675612675466443]","[1,1,1]","[-0.06541919390557659,-0.03093620910482211]","[1,1,1]","[-0.1544455993476718,0.09056546468200175]","[1,1,1]","[-0.007914387187993444,0.012267546856848026]","[1,1,1]","[-0.02219767538720989,0.12499832159206897]","[1,1,1]","[0.12936859238483175,0.09303848063645252]","[-1,-1,-1]","[0.06678398449400326,-0.17554461972554466]","[-1,-1,-1]","[0.01119925737417298,0.10088731390107872]","[1,1,1]","[-0.10231432346423576,0.06045963476215709]","[-1,-1,-1]","[0.07202367729034106,0.17965052004452722]","[-1,-1,-1]","[-0.014631267934704005,-0.13555171203233585]","[-1,-1,-1]","[-0.03391319333976757,0.07146860956005027]","[-1,-1,-1]","[-0.17217496035095237,0.04276177567511565]","[1,1,1]","[0.02,0.02]",288.1201,0,21,21,88,1,,,,,,,
,,,,,,,66539487195bfe168f78bcc1,6831aab46af1965efc99b252,2025-05-24_14h25.40.413,cuing_paradigm_dot,2024.1.5,Win32,60.24096386,682d573fa47f1360d1451895,,,,,,,,,,,288.122,288.6195,,,288.8702,289.3537,right,0.4761,,,,,,,,,0.9,,,,,,288.6196,288.8701,289.3538,"[0.15563226071040606,-0.005591405122762133]","[1,1,1]","[-0.006191023493964496,0.029977864200335883]","[1,1,1]","[0.11330540885561023,0.04776065488319583]","[1,1,1]","[0.00872630590971538,0.17605906908897295]","[1,1,1]","[0.1803011027642261,-0.05238750910559691]","[1,1,1]","[0.184250449905334,0.06641136210079651]","[1,1,1]","[0.03441912617369687,-0.15330468024662328]","[1,1,1]","[-0.16684302365502227,-0.042291184166642785]","[1,1,1]","[-0.1452584409156197,-0.09481949601349082]","[1,1,1]","[0.12817036253257957,-0.05513921190699475]","[1,1,1]","[-0.07818017723157915,0.0013072281079400212]","[1,1,1]","[-0.006057819019289228,-0.13945868454274138]","[1,1,1]","[0.010788415346638072,0.09857865399866075]","[1,1,1]","[-0.03289767680114963,0.09372551149573351]","[-1,-1,-1]","[-0.15336853655976937,0.006010934456307038]","[1,1,1]","[0.06725831420468355,0.060415888702534414]","[1,1,1]","[0.055760174149688396,0.15263246137709835]","[1,1,1]","[-0.02380748130838281,-0.0652526269511461]","[1,1,1]","[0.04751359127275952,-0.0060008385858692495]","[1,1,1]","[0.08218725454937549,-0.04346987297832057]","[1,1,1]","[-0.08596294457747707,-0.1009732424923226]","[1,1,1]","[-0.13269511461019945,0.11983525447717074]","[-1,-1,-1]","[-0.05259090855434354,-0.1537502590915063]","[1,1,1]","[0.09393135216460273,0.010096065520726847]","[1,1,1]","[0.10005621901053167,0.09825729671440722]","[1,1,1]","[0.0791808709743473,-0.13363287824217934]","[1,1,1]","[-0.08133575449351903,-0.06039488820436097]","[1,1,1]","[0.05504809221183084,0.10865958504238415]","[1,1,1]","[0.101898823830256,0.16175203676530753]","[1,1,1]","[-0.15136260830635967,0.07578698163576172]","[1,1,1]","[0.0009177805262231383,-0.012360280333616223]","[1,1,1]","[-0.029314553426079526,0.13521758855934093]","[-1,-1,-1]","[0.02,0.02]",290.4525,0,22,22,201,1,,,,,,,
,,,,,,,66539487195bfe168f78bcc1,6831aab46af1965efc99b252,2025-05-24_14h25.40.413,cuing_paradigm_dot,2024.1.5,Win32,60.24096386,682d573fa47f1360d1451895,,,,,,,,,,,290.4547,290.9519,,,291.1917,291.7925,left,0.5853,,,,,,,,,0.1,,,,,,290.952,291.1916,291.7928,"[0.014455981321181614,0.0727446537567443]","[-1,-1,-1]","[-0.11250092079855435,0.05969209980082784]","[-1,-1,-1]","[-0.15121787414951657,-0.10055570605266868]","[-1,-1,-1]","[0.004604253087715391,-0.1580635837056176]","[-1,-1,-1]","[0.13360391852069603,-0.09385299108061643]","[-1,-1,-1]","[0.04604273918946246,-0.07770725039547417]","[-1,-1,-1]","[0.01507669414004967,-0.040294964149680285]","[-1,-1,-1]","[-0.07005782596277282,0.11406345229047038]","[1,1,1]","[0.06991390377433089,0.15886994859900608]","[-1,-1,-1]","[-0.05352991271322532,-0.1838331539747858]","[-1,-1,-1]","[-0.030717885437696015,0.15327347665080795]","[-1,-1,-1]","[-0.018816955701344493,-0.07620283851097877]","[-1,-1,-1]","[-0.06755967711392656,0.07353488259115228]","[1,1,1]","[0.1510641281144097,0.03517491796492719]","[-1,-1,-1]","[0.10308802791460941,0.11471816333521914]","[-1,-1,-1]","[-0.10195830540939178,-0.1320218789884605]","[1,1,1]","[-0.15151797487850768,0.11196914235633303]","[-1,-1,-1]","[0.06299429893640456,-0.004664362473095501]","[-1,-1,-1]","[-0.11122457517262911,-0.020984014239696237]","[-1,-1,-1]","[-0.08865120511901155,0.013368822695669922]","[-1,-1,-1]","[0.18485189092885823,-0.028194065537405073]","[-1,-1,-1]","[-0.08380891989676283,-0.058334813946588855]","[-1,-1,-1]","[-0.11750465900795078,0.14126269249123388]","[-1,-1,-1]","[-0.16555491415362703,0.02574894802084733]","[-1,-1,-1]","[0.011987757184007687,0.1174612301946824]","[-1,-1,-1]","[-0.19563364934171482,-0.009425456996114558]","[-1,-1,-1]","[0.0007840426219486395,0.033795035505463256]","[-1,-1,-1]","[0.11796921618114178,0.06230215871502824]","[-1,-1,-1]","[0.04521866166973535,-0.16602554925845356]","[-1,-1,-1]","[0.10268486031003791,-0.13563394866005682]","[-1,-1,-1]","[-0.18461736944059073,0.06556044034871401]","[-1,-1,-1]","[0.11051711789281805,0.0020462015792427368]","[-1,-1,-1]","[0.02,0.02]",292.8848,0,23,23,27,1,,,,,,,
,,,,,,,66539487195bfe168f78bcc1,6831aab46af1965efc99b252,2025-05-24_14h25.40.413,cuing_paradigm_dot,2024.1.5,Win32,60.24096386,682d573fa47f1360d1451895,,,,,,,,,,,292.8868,293.3844,,,293.6389,294.4844,right,0.823,,,,,,,,,0.6,,,,,,293.3845,293.6389,294.4844,"[-0.19288041098941922,-0.042620916031508804]","[1,1,1]","[-0.09671097123756063,0.059643364467984156]","[1,1,1]","[-0.15285970261561438,0.02348208186308458]","[1,1,1]","[-0.026324438380453886,-0.07898205993751568]","[-1,-1,-1]","[0.02205759535924697,0.17261108469957742]","[1,1,1]","[0.06818873156903145,0.004414280736797045]","[-1,-1,-1]","[0.12070793817031229,-0.11013168235056217]","[1,1,1]","[0.02827407562078962,-0.02301582302142302]","[1,1,1]","[-0.06228446986221914,0.1401372535314997]","[1,1,1]","[-0.06438248645345797,-0.1054374858137723]","[1,1,1]","[0.08087143973446437,-0.07377094256496186]","[-1,-1,-1]","[0.1510156382062383,-0.022267601967883865]","[-1,-1,-1]","[-0.01295418142306269,-0.011638000484095239]","[-1,-1,-1]","[-0.009110340868522488,0.03679221575192116]","[1,1,1]","[-0.03647927028938695,-0.14284412369795135]","[-1,-1,-1]","[0.07140302737608124,0.14167246776333958]","[1,1,1]","[0.061791281538462306,0.05374636188552276]","[1,1,1]","[-0.07012124417938477,-0.022816308120702948]","[1,1,1]","[-0.09114791020411574,-0.17483103392863067]","[-1,-1,-1]","[0.12899822653873377,0.051058233467657775]","[-1,-1,-1]","[-0.13543007908066032,0.0966221314434737]","[-1,-1,-1]","[0.05010701607829896,-0.1108022537465126]","[-1,-1,-1]","[0.024179571808414672,-0.0692553700672843]","[1,1,1]","[0.19262929651252747,0.02711462159959889]","[1,1,1]","[-0.12897755865272487,-0.07609135544772197]","[1,1,1]","[-0.06705790521298265,0.09405184152541812]","[1,1,1]","[0.11531309698556216,0.13679983804645676]","[-1,-1,-1]","[-0.12500393642840546,-0.03065015240351609]","[-1,-1,-1]","[0.1807374814506697,-0.06167057656550157]","[-1,-1,-1]","[-0.02719874610190514,0.119927244631276]","[1,1,1]","[0.03221292838364045,0.12914964232210682]","[1,1,1]","[0.13116396827040983,-0.06669288913864285]","[1,1,1]","[0.02,0.02]",295.585,0,24,24,161,1,,,,,,,
,,,,,,,66539487195bfe168f78bcc1,6831aab46af1965efc99b252,2025-05-24_14h25.40.413,cuing_paradigm_dot,2024.1.5,Win32,60.24096386,682d573fa47f1360d1451895,,,,,,,,,,,295.5865,296.084,,,296.34,296.8213,right,0.4647,,,,,,,,,0.9,,,,,,296.084,296.3397,296.8215,"[0.044038493359748666,-0.08029788886299237]","[1,1,1]","[0.08561933669653415,0.014470719208104827]","[1,1,1]","[0.18175288905194198,0.07750308684579851]","[1,1,1]","[-0.09632272430332038,0.06726421050271575]","[1,1,1]","[0.011958056169971035,-0.016733305658631844]","[1,1,1]","[-0.0006414111928539645,0.09277622957359642]","[1,1,1]","[-0.05132065806928334,-0.02615848704579886]","[1,1,1]","[0.14319774211317368,-0.051584997213176095]","[1,1,1]","[0.04195641376322345,0.174522916728323]","[1,1,1]","[-0.08774645275906771,-0.1069624083782599]","[1,1,1]","[0.12785900290842553,0.12153476495093027]","[1,1,1]","[0.1315739973982182,-0.11945685460594917]","[1,1,1]","[-0.016324792040235295,0.05279661176893997]","[-1,-1,-1]","[0.18267270769975544,-0.030845834991317374]","[1,1,1]","[0.08251146102975579,0.07038355744684285]","[1,1,1]","[-0.10968444295760493,0.14137221790574517]","[1,1,1]","[-0.07778173481938218,0.017207483913371138]","[1,1,1]","[0.04341630656309878,0.11318304513375824]","[1,1,1]","[-0.12024109096178752,-0.13267957535624236]","[1,1,1]","[-0.13919739438268164,0.08674450629321469]","[1,1,1]","[-0.136503282230111,-0.015897682666230522]","[1,1,1]","[-0.03442368253340373,0.13654256647348406]","[1,1,1]","[0.12757018362497594,0.04631705159301225]","[1,1,1]","[0.0861949245952072,0.14631402623530654]","[1,1,1]","[-0.034472078152964346,-0.13199048683883458]","[1,1,1]","[-0.005887345960683926,-0.18351746489941476]","[-1,-1,-1]","[0.04464022829574753,-0.13574996745667606]","[1,1,1]","[-0.059123554775113524,0.09278754183386927]","[1,1,1]","[-0.18120326380374482,-0.0006146613793336989]","[-1,-1,-1]","[-0.0044616563629513595,0.19219061468087612]","[1,1,1]","[0.12876989721396567,-0.013990841513770981]","[1,1,1]","[-0.010978989924331089,-0.06850306749624172]","[1,1,1]","[0.02,0.02]",297.9187,0,25,25,196,1,,,,,,,
,,,,,,,66539487195bfe168f78bcc1,6831aab46af1965efc99b252,2025-05-24_14h25.40.413,cuing_paradigm_dot,2024.1.5,Win32,60.24096386,682d573fa47f1360d1451895,,,,,,,,,,,297.9207,298.417,,,298.668,299.1878,right,0.4945,,,,,,,,,0.6,,,,,,298.4173,298.6678,299.1878,"[0.14628369879703088,0.014718500795174679]","[1,1,1]","[-0.009463072977096101,-0.18253461031373083]","[1,1,1]","[0.12512728142910445,-0.023735738021529906]","[-1,-1,-1]","[-0.06652460846874925,-0.13685420697694844]","[-1,-1,-1]","[0.14068288719523694,-0.09999989268909559]","[1,1,1]","[0.020444573626353275,0.06686328060775451]","[-1,-1,-1]","[-0.1573275927680228,-0.0007783644050627663]","[-1,-1,-1]","[-0.08626626650856817,0.009289250015929416]","[-1,-1,-1]","[-0.07680938133979391,0.11787177780971868]","[1,1,1]","[-0.03748415836855923,0.1821996483808714]","[1,1,1]","[0.05207792918143874,-0.18253631089939995]","[-1,-1,-1]","[0.12699262870088923,0.13638161437365962]","[1,1,1]","[0.06588441180483613,-0.128196603812957]","[1,1,1]","[0.04117708964467228,0.1170381541763163]","[-1,-1,-1]","[0.13087089404599297,-0.14372492635596348]","[-1,-1,-1]","[0.07019430536016426,-0.018892157056883]","[-1,-1,-1]","[-0.1518828295564285,0.054851528688177505]","[1,1,1]","[-0.007902314273235726,0.013478530448036518]","[-1,-1,-1]","[0.02977133112795461,-0.03688014028615647]","[1,1,1]","[-0.05252242479085806,0.08439045603512833]","[1,1,1]","[-0.11293314756794898,-0.1053062780019182]","[1,1,1]","[-0.07186033613729291,-0.07891015761078345]","[-1,-1,-1]","[0.10460906410248856,0.09316889532425497]","[1,1,1]","[-0.02834151559604483,-0.043805563788620765]","[1,1,1]","[-0.04694415678341117,0.028421341966214146]","[-1,-1,-1]","[-0.02192967545938087,0.13951535575584872]","[1,1,1]","[-0.07030961468474939,-0.033911349765779426]","[-1,-1,-1]","[0.010027594412715727,0.16509565730300096]","[1,1,1]","[-0.16154979553735904,-0.09462428541842458]","[1,1,1]","[0.08605251376650916,0.04616154495439787]","[1,1,1]","[-0.1242560039434836,-0.04768394139627061]","[1,1,1]","[-0.12917204942780863,0.14007768298782053]","[1,1,1]","[0.02,0.02]",300.2836,0,26,26,163,1,,,,,,,
,,,,,,,66539487195bfe168f78bcc1,6831aab46af1965efc99b252,2025-05-24_14h25.40.413,cuing_paradigm_dot,2024.1.5,Win32,60.24096386,682d573fa47f1360d1451895,,,,,,,,,,,300.2855,300.783,,,301.0389,301.7998,right,0.7353,,,,,,,,,0.6,,,,,,300.7831,301.0389,301.8,"[-0.00020606420899666673,0.08119805386710299]","[1,1,1]","[0.04899210358887749,0.19022524698209967]","[1,1,1]","[0.11322250669199584,0.044455105082025125]","[1,1,1]","[-0.07282619272064114,-0.06459946154261514]","[1,1,1]","[-0.1159570938688503,0.010497797745233647]","[-1,-1,-1]","[0.16904794762033645,0.08004852322382401]","[-1,-1,-1]","[-0.01671550446446865,0.015591040394060679]","[1,1,1]","[-0.09621050987394611,-0.025053971330474784]","[-1,-1,-1]","[0.0396507063840961,-0.11658727094796943]","[1,1,1]","[-0.04651943638819474,0.0871985527462655]","[-1,-1,-1]","[0.04378038822993596,-0.042235603306495215]","[1,1,1]","[-0.01947386181891141,0.1672412492574287]","[1,1,1]","[-0.1524646947256124,-0.06172265609718674]","[-1,-1,-1]","[0.08995131171836228,0.12393372182532472]","[1,1,1]","[-0.014437364709274269,-0.15342332455848368]","[1,1,1]","[0.06327703255837316,0.027974053822979534]","[-1,-1,-1]","[0.08838433074291006,0.1758646585780965]","[1,1,1]","[-0.16862498886397892,0.10314089755321112]","[1,1,1]","[-0.013142712590794532,-0.0980154619650429]","[1,1,1]","[-0.05192727367651352,0.12996990674975048]","[-1,-1,-1]","[-0.10122386732384688,-0.10579617895026552]","[-1,-1,-1]","[0.19462877821531674,0.04502715546438617]","[1,1,1]","[-0.06342375220036411,-0.15587127102625956]","[-1,-1,-1]","[0.09846751635737645,-0.007075092390911045]","[1,1,1]","[-0.1297718762154433,0.13253809188726265]","[1,1,1]","[0.12221861047288465,-0.14047363089188405]","[1,1,1]","[0.16937352500202393,-0.006748858933766452]","[-1,-1,-1]","[0.19162702093404677,-0.041315488625214884]","[1,1,1]","[0.06200675373142791,-0.16654473285186433]","[1,1,1]","[-0.0884283609064485,0.07267739113828497]","[-1,-1,-1]","[-0.06096295696081779,0.0032378497638170197]","[-1,-1,-1]","[-0.14100256545688453,-0.12910239652803354]","[-1,-1,-1]","[0.02,0.02]",302.9008,0,27,27,150,1,,,,,,,
,,,,,,,66539487195bfe168f78bcc1,6831aab46af1965efc99b252,2025-05-24_14h25.40.413,cuing_paradigm_dot,2024.1.5,Win32,60.24096386,682d573fa47f1360d1451895,,,,,,,,,,,302.9033,303.4002,,,303.6507,304.1829,right,0.5189,,,,,,,,,0.55,,,,,,303.4004,303.6506,304.1831,"[-0.11560320051062872,-0.1343925459449618]","[-1,-1,-1]","[-0.05776578551584023,0.1568279736476314]","[1,1,1]","[0.10157595653977654,-0.06591576427277561]","[1,1,1]","[0.11750357337646704,0.1354783449441782]","[1,1,1]","[0.03782256634965523,0.05823627912526008]","[1,1,1]","[-0.06947974683768053,-0.1436629971893394]","[-1,-1,-1]","[-0.13443967717927435,0.13888730329361682]","[1,1,1]","[-0.056627314577567464,-0.009818902938038323]","[1,1,1]","[-0.08528688989462106,0.10267023841302605]","[-1,-1,-1]","[-0.009354061951212026,-0.03707018860562055]","[-1,-1,-1]","[0.006082565226701593,-0.15949174928072202]","[1,1,1]","[0.10221639348857967,0.0890165673486954]","[-1,-1,-1]","[-0.006264957121129294,0.0921633960297091]","[1,1,1]","[-0.0672486340053133,0.03815072060371458]","[1,1,1]","[-0.15963691856938583,0.09498110975017643]","[1,1,1]","[0.05835280072800014,0.13827571756865054]","[-1,-1,-1]","[0.1505608637838548,-0.09369016835107953]","[-1,-1,-1]","[0.15788190080685907,0.11213061397930335]","[1,1,1]","[-0.010745783553683226,-0.1157177650253638]","[1,1,1]","[0.10348879227034874,-0.02066684487196986]","[1,1,1]","[-0.07924702092770483,-0.1829713251004333]","[-1,-1,-1]","[0.0732703735947905,-0.156674002598539]","[1,1,1]","[-0.11365283470841465,-0.03319371216388718]","[1,1,1]","[-0.15323990853754968,-0.0026085597294588044]","[1,1,1]","[0.184533101351723,0.06516726504462801]","[-1,-1,-1]","[0.05632765771693893,-0.06206918585354552]","[-1,-1,-1]","[-0.12792795230105455,0.03045106101767178]","[-1,-1,-1]","[-0.1861187116593901,-0.055636836352578545]","[1,1,1]","[-0.05985960131040296,-0.09549619444054458]","[-1,-1,-1]","[-0.1566293948552577,-0.10609346376273415]","[-1,-1,-1]","[-0.0075227851283345346,0.1854499594301611]","[-1,-1,-1]","[0.17359519079968,-0.006049782344050158]","[1,1,1]","[0.02,0.02]",305.2844,0,28,28,137,1,,,,,,,
,,,,,,,66539487195bfe168f78bcc1,6831aab46af1965efc99b252,2025-05-24_14h25.40.413,cuing_paradigm_dot,2024.1.5,Win32,60.24096386,682d573fa47f1360d1451895,,,,,,,,,,,305.2854,305.7826,,,306.0346,306.4543,left,0.3997,,,,,,,,,0.1,,,,,,305.7827,306.0345,306.4544,"[0.07644501500336263,0.01872988672208083]","[-1,-1,-1]","[-0.05517099593168655,-0.04926696311851233]","[-1,-1,-1]","[0.02504453125511548,0.18729027771543535]","[-1,-1,-1]","[-0.14155790460931741,0.07199564313014199]","[-1,-1,-1]","[0.04772827561233885,0.1306440615491602]","[-1,-1,-1]","[0.17350936214088838,-0.011509536903562502]","[-1,-1,-1]","[-0.09008898298651685,0.08927390661244301]","[-1,-1,-1]","[-0.0925609123561735,-0.06401952461977303]","[-1,-1,-1]","[0.1902594083570304,-0.05292474770430223]","[-1,-1,-1]","[0.0629087893564637,-0.1770616441801981]","[-1,-1,-1]","[-0.021365019453812382,0.16690314733996509]","[-1,-1,-1]","[0.07031450370026393,-0.09350382111592201]","[-1,-1,-1]","[0.09423222453724153,0.07062044353525102]","[-1,-1,-1]","[0.14066800191762602,-0.14159184692094604]","[-1,-1,-1]","[0.001168644943526538,0.10898700039559177]","[-1,-1,-1]","[0.13998205243991618,0.03591000633500693]","[-1,-1,-1]","[0.02464365853106914,-0.01334374670013751]","[-1,-1,-1]","[0.1282329876180955,-0.026540128853068782]","[-1,-1,-1]","[0.04174941250205874,-0.1296350122211634]","[-1,-1,-1]","[-0.048966675089072556,0.02102373278936767]","[-1,-1,-1]","[0.010650637278953958,0.03293616914358082]","[1,1,1]","[-0.012693072751365646,-0.12194047827619268]","[-1,-1,-1]","[0.16470578065751357,0.09663268300473343]","[-1,-1,-1]","[-0.1552454236489088,-0.08453352040600051]","[-1,-1,-1]","[-0.10429600486211703,-0.021415648646755398]","[-1,-1,-1]","[0.10062184232071307,-0.1542674971914015]","[-1,-1,-1]","[-0.11460815293803123,0.16145827760774722]","[1,1,1]","[0.08692691355033422,-0.051849646386187595]","[-1,-1,-1]","[0.13435306606234895,0.1334791486920655]","[-1,-1,-1]","[-0.06625757320358339,-0.15160804535108238]","[-1,-1,-1]","[-0.1944277577375118,0.00259138514344644]","[1,1,1]","[0.09124374959073703,0.1269009462115247]","[-1,-1,-1]","[0.02,0.02]",307.5498,0,29,29,29,1,,,,,,,
,,,,,,,66539487195bfe168f78bcc1,6831aab46af1965efc99b252,2025-05-24_14h25.40.413,cuing_paradigm_dot,2024.1.5,Win32,60.24096386,682d573fa47f1360d1451895,,,,,,,,,,,307.5518,308.0486,,,308.3016,308.7701,left,0.4483,,,,,,,,,0.1,,,,,,308.0489,308.3015,308.7701,"[0.02732090080335623,-0.060378738345003964]","[-1,-1,-1]","[-0.1497880525776079,0.0600276048906209]","[-1,-1,-1]","[0.04276395766745672,0.08388316556465976]","[-1,-1,-1]","[-0.13422726205635993,-0.03405372351075349]","[-1,-1,-1]","[0.025499856200507758,0.04386244941395326]","[-1,-1,-1]","[-0.01263176364135939,0.1238165891816181]","[1,1,1]","[-0.15844207084987277,-0.09213686497926309]","[-1,-1,-1]","[0.1533727167009036,-0.11995602892445856]","[-1,-1,-1]","[-0.022240851501722267,-0.06589735867762961]","[-1,-1,-1]","[0.08117609606262277,0.04869571835117243]","[-1,-1,-1]","[-0.13786348956108735,0.1107816464683293]","[-1,-1,-1]","[-0.012264725290598773,-0.11871590010949122]","[-1,-1,-1]","[0.1355336539372468,0.022898277850410903]","[-1,-1,-1]","[0.01569241456927325,-0.1961291128879697]","[-1,-1,-1]","[-0.02568781749137473,0.19510013032599166]","[-1,-1,-1]","[-0.11023628624345468,-0.08363197473895931]","[-1,-1,-1]","[0.060811585722582266,-0.09583254712910227]","[-1,-1,-1]","[0.06412981291475232,-0.04009452144104274]","[-1,-1,-1]","[0.1811015319244603,0.06889102671320528]","[-1,-1,-1]","[-0.1930626846050413,0.04975323074222331]","[-1,-1,-1]","[0.10227542466886337,0.1449653041382001]","[-1,-1,-1]","[0.15912061348886927,-0.010545209862448293]","[-1,-1,-1]","[0.16081471748853865,-0.07344732954559993]","[-1,-1,-1]","[0.052546772804155525,0.009459013275838627]","[1,1,1]","[-0.07641875797021241,0.06586890733858218]","[-1,-1,-1]","[-0.08003493749305121,-0.14216710367426977]","[-1,-1,-1]","[-0.12863851238358867,-0.13406847717669576]","[-1,-1,-1]","[0.056811921731410274,0.15761184699849926]","[1,1,1]","[-0.07106217434103704,-0.044991920374917595]","[-1,-1,-1]","[-0.020331741166133555,0.03823900714962678]","[-1,-1,-1]","[-0.09470106062418865,0.022183346015042526]","[-1,-1,-1]","[0.06691381394369811,-0.17054696364984587]","[-1,-1,-1]","[0.02,0.02]",309.8685,0,30,30,19,1,,,,,,,
,,,,,,,66539487195bfe168f78bcc1,6831aab46af1965efc99b252,2025-05-24_14h25.40.413,cuing_paradigm_dot,2024.1.5,Win32,60.24096386,682d573fa47f1360d1451895,,,,,,,,,,,309.8698,310.3687,,,310.6158,311.1687,right,0.5423,,,,,,,,,0.45,,,,,,310.3687,310.6157,311.1694,"[0.10286922789878451,-0.09333005317802712]","[-1,-1,-1]","[0.195364493468835,-0.03725758930801486]","[1,1,1]","[0.08569157195703334,0.01300909120066046]","[1,1,1]","[0.14370987104761349,-0.09966721290237297]","[-1,-1,-1]","[0.09042624787558046,0.15292562452658368]","[1,1,1]","[-0.17454584309788337,-0.05616583376523553]","[1,1,1]","[-0.09781669940627281,0.12362983034589443]","[-1,-1,-1]","[-0.1080420338406736,-0.16574372714928595]","[-1,-1,-1]","[0.010697190147700169,0.06466169802042558]","[1,1,1]","[-0.024208881125790404,-0.06162614160939874]","[1,1,1]","[0.049174004423647534,-0.10960556050664173]","[-1,-1,-1]","[-0.0374318002094906,-0.13879355720315517]","[-1,-1,-1]","[-0.0916641300725177,-0.013907763420419553]","[1,1,1]","[-0.1229697579943749,-0.0644451907387678]","[-1,-1,-1]","[-0.1377162838973936,-0.1312161319121234]","[-1,-1,-1]","[0.012876821553795818,-0.134294525405685]","[-1,-1,-1]","[-0.1966107213506721,0.011257473038015438]","[-1,-1,-1]","[0.1303376257541128,0.14560961619648444]","[1,1,1]","[0.12128795684369609,0.05021960173282016]","[-1,-1,-1]","[0.06589032725937397,-0.05465159033197798]","[-1,-1,-1]","[-0.14896470323118555,0.07922389811241191]","[-1,-1,-1]","[-0.03599652648628856,-0.021658374284492285]","[-1,-1,-1]","[0.1646612122842434,0.0014953660152768938]","[1,1,1]","[-0.18627656853978142,0.05041890758014369]","[-1,-1,-1]","[0.1761264463521897,0.08096338607497577]","[1,1,1]","[0.07820786714539991,0.056559201243568315]","[1,1,1]","[0.11840626902412515,-0.13653956885686666]","[1,1,1]","[-0.044573472083741725,0.1061844612536934]","[-1,-1,-1]","[0.02715331377597783,0.12915711607205224]","[1,1,1]","[-0.00038783854312843426,0.020043550764666813]","[-1,-1,-1]","[-0.02705310551687598,-0.17938494116529835]","[1,1,1]","[0.03346978128352399,-0.17639020174971176]","[-1,-1,-1]","[0.02,0.02]",312.2642,0,31,31,65,1,,,,,,,
,,,,,,,66539487195bfe168f78bcc1,6831aab46af1965efc99b252,2025-05-24_14h25.40.413,cuing_paradigm_dot,2024.1.5,Win32,60.24096386,682d573fa47f1360d1451895,,,,,,,,,,,312.2646,312.7649,,,313.0154,313.5841,right,0.5568,,,,,,,,,0.45,,,,,,312.7653,313.0154,313.5842,"[0.12098975454172627,-0.011478747807671644]","[-1,-1,-1]","[-0.09914800119474632,0.1607068894784378]","[1,1,1]","[0.07918213836224854,0.012902074574990574]","[-1,-1,-1]","[-0.11746903210549048,0.03397019713361216]","[-1,-1,-1]","[-0.0428723055386382,-0.1919377519746068]","[1,1,1]","[-0.08157534206373765,-0.02630843757887836]","[-1,-1,-1]","[0.047964944796224734,-0.11040490777719672]","[-1,-1,-1]","[0.03870253120159502,0.08080000762471537]","[1,1,1]","[0.13551026715969616,-0.13900676684641466]","[1,1,1]","[-0.1665218308992897,0.0460408932436523]","[1,1,1]","[0.1934519527977932,0.0077364463191907686]","[-1,-1,-1]","[-0.10925733676915894,-0.11270667408283674]","[1,1,1]","[-0.15878724534812502,-0.10185876667348719]","[1,1,1]","[-0.1721386616349491,-0.020722907621090008]","[-1,-1,-1]","[-0.04411301059481259,0.030772833046499144]","[-1,-1,-1]","[0.06359912583996655,-0.024847340016546367]","[-1,-1,-1]","[-0.029037950213093418,0.17137959148161827]","[1,1,1]","[-0.0185387841110712,-0.00011265499524829855]","[1,1,1]","[-0.07057872578648329,0.0798493662862318]","[-1,-1,-1]","[0.11460568761587347,0.14778308063439194]","[-1,-1,-1]","[0.119414059667442,-0.07554871961153012]","[1,1,1]","[-0.16431869842337116,0.09724408205496608]","[1,1,1]","[-0.04805292672597872,-0.13355401006134898]","[1,1,1]","[0.07201805356851165,0.15622215453238245]","[1,1,1]","[0.13946618178088213,0.04898754312487132]","[-1,-1,-1]","[0.002779085738867246,-0.18138498341408948]","[-1,-1,-1]","[-0.12732513810665716,-0.15381071643231994]","[-1,-1,-1]","[0.03412954695679564,0.18890905553703238]","[-1,-1,-1]","[-0.01497970959440881,-0.05552146723157126]","[-1,-1,-1]","[0.03972951374409758,0.034171504992149916]","[-1,-1,-1]","[0.030527280441938347,0.14481027022123097]","[-1,-1,-1]","[0.1620549524151469,-0.04928316940567141]","[1,1,1]","[0.02,0.02]",314.6811,0,32,32,78,1,,,,,,,
,,,,,,,66539487195bfe168f78bcc1,6831aab46af1965efc99b252,2025-05-24_14h25.40.413,cuing_paradigm_dot,2024.1.5,Win32,60.24096386,682d573fa47f1360d1451895,,,,,,,,,,,314.6834,315.1811,,,315.4315,316.1302,left,0.6828,,,,,,,,,0.55,,,,,,315.1813,315.4314,316.1303,"[-0.12994964313600388,-0.042591730965263745]","[1,1,1]","[0.08786371954471657,-0.07072134402347224]","[1,1,1]","[-0.1797543394878556,-0.06581654468520484]","[1,1,1]","[0.1531696002349241,-0.10717874463729357]","[1,1,1]","[-0.01030887689496597,0.17179156229156364]","[1,1,1]","[-0.10724283063126223,-0.1390708754381348]","[-1,-1,-1]","[0.0742344817552332,-0.1571524059325173]","[-1,-1,-1]","[0.13323186150643576,0.11638040307518474]","[-1,-1,-1]","[0.02677447458766201,0.15586859937533842]","[-1,-1,-1]","[-0.06673039043784602,0.04387547960796083]","[1,1,1]","[-0.00802967859378317,0.0010094827708068607]","[-1,-1,-1]","[-0.030485478063569143,-0.15996936998310107]","[-1,-1,-1]","[0.1029030661091282,-0.031414552809164074]","[1,1,1]","[-0.1565130911950043,0.09547479265351586]","[1,1,1]","[-0.14147902795879352,0.04281359749875747]","[-1,-1,-1]","[-0.02561824865009904,-0.07863844529243388]","[1,1,1]","[-0.10549133860770663,-0.08884735503297625]","[1,1,1]","[0.18955187149441802,0.043222043025693165]","[1,1,1]","[0.024912663843805836,0.08668179073195721]","[1,1,1]","[-0.11018891715335874,-0.004871730700213053]","[-1,-1,-1]","[-0.10316063325696316,0.06313882619176381]","[1,1,1]","[0.12061088205656666,0.02374430441465811]","[-1,-1,-1]","[-0.0630935205891694,0.09786297822687814]","[-1,-1,-1]","[-0.004861719165840877,0.05746106476877052]","[1,1,1]","[0.026975425660165354,-0.0640159878199288]","[1,1,1]","[-0.0312598846672993,-0.035480445227962294]","[-1,-1,-1]","[-0.17320438939113927,0.0008747645763709853]","[-1,-1,-1]","[-0.04457759003699845,0.1429808619919281]","[1,1,1]","[-0.06532353924801174,-0.11143406273952669]","[1,1,1]","[0.02368811496786609,-0.1386469387938705]","[1,1,1]","[0.07494484370995254,0.06864203225001858]","[-1,-1,-1]","[0.1557360140018006,0.07039856541698236]","[-1,-1,-1]","[0.02,0.02]",317.2299,0,33,33,147,1,,,,,,,
,,,,,,,66539487195bfe168f78bcc1,6831aab46af1965efc99b252,2025-05-24_14h25.40.413,cuing_paradigm_dot,2024.1.5,Win32,60.24096386,682d573fa47f1360d1451895,,,,,,,,,,,317.2303,317.7299,,,317.9803,318.6798,left,0.6865,,,,,,,,,0.5,,,,,,317.7299,317.9802,318.6798,"[0.10925661270085758,0.038115619244126896]","[-1,-1,-1]","[0.13103637727632497,-0.009281871976792594]","[-1,-1,-1]","[-0.07166287362155623,0.17350575099451812]","[1,1,1]","[0.061488295304160036,-0.07600358743548637]","[1,1,1]","[0.011839430747422209,-0.1511682197165102]","[-1,-1,-1]","[0.14865994445704742,-0.06731089016984931]","[-1,-1,-1]","[-0.050325577708627584,-0.04760375406152579]","[1,1,1]","[0.09183027607358127,0.12216659926932945]","[1,1,1]","[0.11910585196031084,-0.09521971486534364]","[1,1,1]","[-0.13670473872911773,-0.04942705850965814]","[-1,-1,-1]","[0.00000898214477155601,0.1540364074784636]","[1,1,1]","[0.034488655601489594,0.07093717250481844]","[-1,-1,-1]","[0.17059813194856246,0.028135314431068825]","[1,1,1]","[0.04932541007328165,0.19132612759307924]","[-1,-1,-1]","[-0.17956120640131285,-0.04084477953611728]","[1,1,1]","[-0.06580976118015122,-0.13557364378830403]","[1,1,1]","[-0.12386312225618258,0.09714241564532797]","[-1,-1,-1]","[-0.08129684752302888,0.07316124338231333]","[-1,-1,-1]","[-0.16156979993083762,-0.10047055057534086]","[-1,-1,-1]","[-0.15215122039349746,0.05467918781440226]","[-1,-1,-1]","[-0.03663238793051563,0.09144243103576158]","[1,1,1]","[-0.009031880972959736,0.016406088330875826]","[-1,-1,-1]","[-0.11796698886776935,-0.000687805108944666]","[-1,-1,-1]","[0.047875418009706946,0.0016955854226007028]","[1,1,1]","[0.07313139366645197,-0.03571340981018337]","[1,1,1]","[-0.08119081022650973,-0.17312975557581214]","[1,1,1]","[0.08674540440090799,0.08143815187881498]","[-1,-1,-1]","[0.14274806760925018,0.0895900989666378]","[-1,-1,-1]","[-0.021214540068448848,-0.10889378487424795]","[1,1,1]","[-0.08495538854815918,0.028783325706395628]","[1,1,1]","[-0.07245979490173522,-0.08140132544736228]","[1,1,1]","[0.08986828696075792,-0.1775138950517607]","[-1,-1,-1]","[0.02,0.02]",319.7795,0,34,34,104,1,,,,,,,
,,,,,,,66539487195bfe168f78bcc1,6831aab46af1965efc99b252,2025-05-24_14h25.40.413,cuing_paradigm_dot,2024.1.5,Win32,60.24096386,682d573fa47f1360d1451895,,,,,,,,,,,319.78,320.2794,,,320.5296,321.0795,right,0.5419,,,,,,,,,0.55,,,,,,320.2794,320.5296,321.0795,"[-0.04478434781450899,0.04214733579730926]","[-1,-1,-1]","[-0.0341928503791425,0.12766187884211308]","[1,1,1]","[0.15524863566700112,-0.051545018578836296]","[1,1,1]","[-0.058780337501021594,-0.1145009500376135]","[-1,-1,-1]","[0.05134321243277366,0.15406835475262487]","[1,1,1]","[0.15507218796482475,0.033160846896422826]","[1,1,1]","[0.13245703360888644,0.13424055850720795]","[1,1,1]","[0.020531048277471292,0.045129595540087705]","[-1,-1,-1]","[0.10968663271675806,0.07763763214824061]","[1,1,1]","[0.11944148108560623,-0.0037358718207801643]","[-1,-1,-1]","[0.003967713394439514,-0.0966107887457621]","[1,1,1]","[-0.14937948498641032,-0.09088250523221594]","[1,1,1]","[0.07262616573275968,-0.14835986204234586]","[1,1,1]","[0.16341452955930355,0.07231121534162296]","[1,1,1]","[0.11391174231846506,-0.07364173798542198]","[1,1,1]","[-0.0006284461778690698,-0.029474863869831266]","[1,1,1]","[0.00928984089984868,0.13809051443890843]","[1,1,1]","[-0.142822396790137,-0.005101739463921621]","[-1,-1,-1]","[-0.10433150648286998,-0.050538221113788286]","[-1,-1,-1]","[0.0709310943951141,0.08985675889482354]","[1,1,1]","[-0.0828473275037657,-0.013444667034512123]","[-1,-1,-1]","[-0.10437403055632448,-0.1234314660541329]","[1,1,1]","[-0.10646290356827587,0.13998236465341207]","[1,1,1]","[-0.17188084938984738,0.04455017505988612]","[-1,-1,-1]","[-0.028728770956123036,-0.1547549235605756]","[-1,-1,-1]","[0.138569325520517,-0.12183000374989644]","[-1,-1,-1]","[-0.0555610337867004,-0.07388643511113979]","[-1,-1,-1]","[-0.04275403670964825,0.16851537694353985]","[-1,-1,-1]","[0.060923841377791284,0.030077149835167752]","[-1,-1,-1]","[-0.10390411671320536,0.06500418151818342]","[1,1,1]","[0.055677275792807804,-0.06519769711579909]","[1,1,1]","[-0.13278749543932775,0.10784585635280224]","[-1,-1,-1]","[0.02,0.02]",322.1793,0,35,35,144,1,,,,,,,
,,,,,,,66539487195bfe168f78bcc1,6831aab46af1965efc99b252,2025-05-24_14h25.40.413,cuing_paradigm_dot,2024.1.5,Win32,60.24096386,682d573fa47f1360d1451895,,,,,,,,,,,322.1807,322.679,,,322.9305,323.4791,left,0.5357,,,,,,,,,0.1,,,,,,322.679,322.9303,323.4792,"[-0.09674809201840576,-0.019088827370997815]","[-1,-1,-1]","[0.11421970141898365,-0.007690395464359968]","[-1,-1,-1]","[0.10769299677227671,-0.08134756169101749]","[-1,-1,-1]","[-0.19413179270162523,-0.0020985411141300316]","[-1,-1,-1]","[0.08015875740436004,0.1521116586855559]","[-1,-1,-1]","[-0.06202782657127281,0.08587460597018572]","[-1,-1,-1]","[-0.029774678054902404,0.056736638138525454]","[-1,-1,-1]","[-0.12425170382182021,-0.09899504062493865]","[1,1,1]","[-0.04266747117423178,-0.1247901885029995]","[-1,-1,-1]","[-0.14660116447997207,-0.021979645463866656]","[-1,-1,-1]","[0.14990602041858267,0.09421200628215085]","[-1,-1,-1]","[0.033920225279811686,0.06125667950456536]","[-1,-1,-1]","[0.035289508536174304,-0.015983368864181304]","[-1,-1,-1]","[-0.051812831821895514,0.1341891462797306]","[-1,-1,-1]","[-0.11295168883074794,0.045609197231377956]","[-1,-1,-1]","[0.009806972869927887,-0.05520140827094968]","[-1,-1,-1]","[-0.11669570550289103,0.1599525896684702]","[-1,-1,-1]","[0.013904574877381365,0.1900938241504533]","[-1,-1,-1]","[-0.04349459635049133,-0.07590378421475658]","[-1,-1,-1]","[0.13848108971684325,-0.04825333810117763]","[-1,-1,-1]","[-0.004759015948393305,-0.1946925125980434]","[-1,-1,-1]","[-0.01976954898114441,0.09648723501631365]","[1,1,1]","[0.1254073570937518,-0.1498793878369108]","[-1,-1,-1]","[-0.17198505581225929,-0.0647657736707662]","[-1,-1,-1]","[0.0924622571890566,0.09358751074313035]","[-1,-1,-1]","[-0.09545725708096857,-0.06093386128241591]","[1,1,1]","[-0.1518607241503303,0.11744093798676118]","[-1,-1,-1]","[0.1929000521726772,0.044457928458322436]","[-1,-1,-1]","[0.17332814052935103,0.0010390847341487186]","[-1,-1,-1]","[0.06004534067127074,-0.18456372935436705]","[-1,-1,-1]","[0.07215828248796198,0.02880058855359708]","[-1,-1,-1]","[0.052576200910592896,-0.13750084892864264]","[-1,-1,-1]","[0.02,0.02]",324.5791,0,36,36,9,1,,,,,,,
,,,,,,,66539487195bfe168f78bcc1,6831aab46af1965efc99b252,2025-05-24_14h25.40.413,cuing_paradigm_dot,2024.1.5,Win32,60.24096386,682d573fa47f1360d1451895,,,,,,,,,,,324.5806,325.0787,,,325.3304,326.0807,right,0.7407,,,,,,,,,0.5,,,,,,325.0788,325.3303,326.0809,"[-0.11890466207404539,-0.15115720084085946]","[-1,-1,-1]","[0.041849090369753456,-0.13911249967215047]","[-1,-1,-1]","[-0.12678951082427495,0.1094411053296216]","[1,1,1]","[-0.10505470502353316,0.009422603465160124]","[1,1,1]","[0.08308781894005426,-0.024751997804883897]","[-1,-1,-1]","[0.03598356249201866,0.1839749341813464]","[1,1,1]","[0.11818670910375695,-0.07021179163160152]","[-1,-1,-1]","[0.14698781602793645,-0.04051413177718128]","[1,1,1]","[-0.010082217586232133,0.018249566121637795]","[-1,-1,-1]","[0.07925142590545307,0.17236866013569624]","[1,1,1]","[-0.045958369159522096,0.10525185445156807]","[1,1,1]","[-0.0067285137044001695,-0.02800351912762675]","[-1,-1,-1]","[-0.06769220702584254,-0.12480988138237092]","[1,1,1]","[0.10027466530759326,0.018088996899300235]","[1,1,1]","[0.16658669088169747,0.04210163135222102]","[1,1,1]","[-0.1069076498168249,-0.03780523420435289]","[-1,-1,-1]","[-0.005755537389721821,-0.10587631983187512]","[-1,-1,-1]","[-0.07189086670783194,0.16496526223300662]","[1,1,1]","[0.03367721085079039,-0.18459779347883457]","[1,1,1]","[0.07524747377278417,0.06767512793812343]","[1,1,1]","[0.03127051159562998,0.12214125831196128]","[-1,-1,-1]","[0.12559788188177326,-0.1156386851484012]","[1,1,1]","[0.1316381149450499,0.08886738546702397]","[1,1,1]","[-0.13367052590838965,-0.07442886290286375]","[-1,-1,-1]","[0.14274025087295292,0.008851281183780643]","[-1,-1,-1]","[0.041487033089436146,-0.09625205300381443]","[-1,-1,-1]","[-0.05667366480511957,0.05437280510198852]","[-1,-1,-1]","[0.1179791957420386,0.1435201555874085]","[-1,-1,-1]","[-0.05210116078092957,0.012487417220219251]","[-1,-1,-1]","[-0.011388104427478778,-0.1605038422086877]","[1,1,1]","[-0.04480651086421248,-0.18936265043945913]","[1,1,1]","[0.08223059446872423,-0.12663354107866961]","[-1,-1,-1]","[0.02,0.02]",327.1788,0,37,37,98,1,,,,,,,
,,,,,,,66539487195bfe168f78bcc1,6831aab46af1965efc99b252,2025-05-24_14h25.40.413,cuing_paradigm_dot,2024.1.5,Win32,60.24096386,682d573fa47f1360d1451895,,,,,,,,,,,327.1812,327.6794,,,327.9303,328.6446,right,0.6977,,,,,,,,,0.45,,,,,,327.6795,327.9303,328.6447,"[0.0962533865506614,-0.15837725382693005]","[1,1,1]","[0.017163620731271693,0.008772251133638932]","[-1,-1,-1]","[-0.09894302682139637,0.12988211696318405]","[1,1,1]","[0.11810388002672186,-0.09895000884777246]","[1,1,1]","[0.13128002336956787,0.1377717816390386]","[1,1,1]","[-0.014207930877586596,0.12365378498408564]","[-1,-1,-1]","[-0.08326556086585081,-0.10288417654512036]","[-1,-1,-1]","[0.07030791038938944,-0.12545159658836944]","[1,1,1]","[0.024683434965070767,0.079579924632896]","[-1,-1,-1]","[-0.06696208107762615,0.16162493825018145]","[-1,-1,-1]","[-0.15884251372674288,-0.028616172980128918]","[1,1,1]","[0.03446319488400735,-0.05948312460595552]","[-1,-1,-1]","[0.018557737906129964,-0.17999971888154345]","[-1,-1,-1]","[0.13664836442586523,0.08564082462416919]","[-1,-1,-1]","[0.10612421282503014,0.047139660423377215]","[1,1,1]","[-0.05464881279386787,-0.13336672480108072]","[1,1,1]","[-0.04490173431570388,0.00045079321410953057]","[-1,-1,-1]","[0.04092312669269862,0.1936196536143161]","[-1,-1,-1]","[0.06524450634710467,0.10499864593985092]","[1,1,1]","[-0.010206201541671176,-0.1207472197821143]","[1,1,1]","[-0.10158640186767622,-0.16494902859472788]","[-1,-1,-1]","[-0.12262538015452767,-0.1186597999980517]","[1,1,1]","[-0.09457864457724266,-0.012985250359902419]","[1,1,1]","[0.19116614032798385,-0.004739176661898175]","[-1,-1,-1]","[-0.13442883367881053,0.05313383328961587]","[-1,-1,-1]","[-0.039808599120701796,0.06924753246740195]","[-1,-1,-1]","[-0.13689569527725945,0.0077873621653692035]","[1,1,1]","[0.07435662832152486,-0.019420835602430606]","[-1,-1,-1]","[-0.16638398061158327,0.09990982523242725]","[-1,-1,-1]","[-0.01428603373725128,-0.06395330539445222]","[-1,-1,-1]","[0.1469424380006358,0.03177784613043686]","[1,1,1]","[0.03808023283433117,0.14461580204721333]","[-1,-1,-1]","[0.02,0.02]",329.745,0,38,38,66,1,,,,,,,
,,,,,,,66539487195bfe168f78bcc1,6831aab46af1965efc99b252,2025-05-24_14h25.40.413,cuing_paradigm_dot,2024.1.5,Win32,60.24096386,682d573fa47f1360d1451895,,,,,,,,,,,329.7467,330.2447,,,330.4962,331.2174,left,0.7005,,,,,,,,,0.45,,,,,,330.2449,330.4961,331.2175,"[0.006650585000041841,-0.047422622933215884]","[1,1,1]","[0.0357154007455324,-0.12590244818696375]","[-1,-1,-1]","[-0.13509571295913822,0.032024688734834966]","[-1,-1,-1]","[-0.06094208930671624,0.05996776964077037]","[-1,-1,-1]","[0.1433595293850796,-0.09491450701178605]","[1,1,1]","[0.04936832331326912,0.11241811843896148]","[-1,-1,-1]","[-0.13922082118416215,0.12663238887989442]","[-1,-1,-1]","[-0.14987919377884237,-0.03368204346603554]","[1,1,1]","[-0.06993142989721432,0.1502091611293202]","[-1,-1,-1]","[0.12499095985017435,0.15069090340210076]","[-1,-1,-1]","[0.005947969024806776,0.19116730700285875]","[-1,-1,-1]","[0.005951570558547578,0.01984519099473645]","[1,1,1]","[-0.06490399457280867,-0.13706057065115002]","[1,1,1]","[0.0039437395755327525,-0.1667161924767128]","[1,1,1]","[-0.1105366839350159,0.07917799871296087]","[-1,-1,-1]","[0.13331412993674302,0.06287837755683821]","[1,1,1]","[-0.19028839329848826,0.011102513024770055]","[-1,-1,-1]","[-0.02221016214495224,0.12446789938077657]","[-1,-1,-1]","[-0.05790648364036835,-0.02671835108971849]","[1,1,1]","[-0.1530588575561114,-0.11464376138615971]","[1,1,1]","[0.04053711285404719,-0.0834887986818457]","[-1,-1,-1]","[0.06085745888455855,-0.0015454856270485553]","[-1,-1,-1]","[0.07786011099654556,0.15191079559187756]","[-1,-1,-1]","[-0.04686048485486881,-0.09337038518900112]","[-1,-1,-1]","[-0.09210054055245272,-0.05577313666190328]","[-1,-1,-1]","[-0.08133852147915759,0.02345332082805548]","[1,1,1]","[0.16611826478809416,-0.05973050070786087]","[-1,-1,-1]","[0.12382092253293625,-0.05727371319085738]","[1,1,1]","[0.05878182994832679,0.055422255591829374]","[1,1,1]","[0.10182559449998274,0.11799987365820361]","[1,1,1]","[0.11883689138341032,0.005058683431972598]","[1,1,1]","[-0.10862047174430857,-0.16552269671018385]","[-1,-1,-1]","[0.02,0.02]",332.312,0,39,39,85,1,,,,,,,
,,,,,,,66539487195bfe168f78bcc1,6831aab46af1965efc99b252,2025-05-24_14h25.40.413,cuing_paradigm_dot,2024.1.5,Win32,60.24096386,682d573fa47f1360d1451895,,,,,,,,,,,332.314,332.8147,,,333.0633,333.7801,left,0.7036,,,,,,,,,0.5,,,,,,332.8148,333.063,333.7806,"[-0.029454424604447166,-0.04067683785329546]","[-1,-1,-1]","[0.019093581286016098,-0.07534832420135579]","[1,1,1]","[0.08109219818976288,0.12989964317206606]","[1,1,1]","[0.14540370241671327,-0.08078583465856683]","[-1,-1,-1]","[0.15419307661083587,-0.125402544175122]","[-1,-1,-1]","[0.08912295651707158,-0.09324439580394561]","[1,1,1]","[-0.10944259736556466,-0.16445331780592493]","[1,1,1]","[0.0932252308374252,-0.012967047854208385]","[-1,-1,-1]","[0.16761635196975555,0.0824938400954221]","[1,1,1]","[-0.0778207286346879,-0.11093106415316702]","[-1,-1,-1]","[-0.1488673937757502,0.03938360883278393]","[1,1,1]","[-0.13260255022171108,-0.08531433621112387]","[1,1,1]","[0.09044719547834341,0.07099159670106203]","[1,1,1]","[0.1563564165456916,0.002739590897115123]","[1,1,1]","[0.05191209237658651,-0.04356269427254233]","[1,1,1]","[0.09967269114223255,-0.144263240093743]","[1,1,1]","[-0.004878631921623541,-0.18099833625872375]","[1,1,1]","[0.04090901027152087,0.13724375800380173]","[-1,-1,-1]","[-0.0214861895891849,0.07871294465455572]","[1,1,1]","[-0.0006995702598586312,0.19324731663597988]","[-1,-1,-1]","[-0.10810814869514966,0.1300969249293907]","[1,1,1]","[0.19841820033629937,0.023851606919191217]","[-1,-1,-1]","[-0.07356970291201115,0.1766915901461372]","[-1,-1,-1]","[-0.1153458235235996,0.08423932257378249]","[1,1,1]","[-0.16577527397129152,-0.022807058556213147]","[-1,-1,-1]","[-0.1543875413348188,0.09685996653151073]","[-1,-1,-1]","[-0.0512986253293962,0.025575527598214368]","[1,1,1]","[0.02342792615238317,-0.13921254026197988]","[-1,-1,-1]","[-0.14074331156389486,-0.12816435296540574]","[-1,-1,-1]","[0.05560781441213835,-0.17896329819493378]","[-1,-1,-1]","[-0.04707489201544083,-0.14307096069207878]","[-1,-1,-1]","[-0.009664879746485144,0.02182793649675011]","[-1,-1,-1]","[0.02,0.02]",334.8777,0,40,40,95,1,,,,,,,
,,,,,,,66539487195bfe168f78bcc1,6831aab46af1965efc99b252,2025-05-24_14h25.40.413,cuing_paradigm_dot,2024.1.5,Win32,60.24096386,682d573fa47f1360d1451895,,,,,,,,,,,334.8799,335.3764,,,335.627,336.1628,right,0.5254,,,,,,,,,0.9,,,,,,335.3764,335.6269,336.1629,"[-0.18368082187619286,-0.07416724707462857]","[1,1,1]","[-0.03294396411701045,-0.06968238487111611]","[1,1,1]","[0.016532347431815392,-0.06357213846640061]","[1,1,1]","[-0.03561303554718241,-0.024132607842881657]","[1,1,1]","[0.1416713325900064,-0.004797232549814581]","[1,1,1]","[0.09070116020798392,-0.010887283955468738]","[1,1,1]","[0.13648786015814618,0.0750758200858626]","[1,1,1]","[0.03780626381078703,-0.15704441875890954]","[1,1,1]","[-0.13779407050683662,0.10907914593795708]","[1,1,1]","[0.12680181419771913,-0.11054785143562211]","[1,1,1]","[-0.13826375437616184,-0.09281374270546143]","[1,1,1]","[-0.1337577053922577,-0.02778700200265766]","[1,1,1]","[0.04779757075983303,0.1768620164198563]","[1,1,1]","[-0.12594786505840896,0.06871952409263474]","[1,1,1]","[0.08847643293708442,0.11389210625270862]","[1,1,1]","[0.08033446435202715,-0.12059950594483944]","[-1,-1,-1]","[0.035781993035058995,0.01729829431927831]","[1,1,1]","[-0.07101882275949072,-0.0007821282917561833]","[1,1,1]","[0.0969433252112775,-0.08309168747909781]","[1,1,1]","[-0.055467571893132096,0.12014717747753342]","[1,1,1]","[-0.12111270276122742,0.025115226737791926]","[-1,-1,-1]","[-0.19434380170514504,-0.0014843645702246906]","[1,1,1]","[-0.01478128674358079,0.037545720254881974]","[-1,-1,-1]","[-0.024958140560386623,0.15260460721888947]","[1,1,1]","[0.10321655036769285,0.1597897119329882]","[1,1,1]","[0.019504240176643158,0.10877430847932092]","[1,1,1]","[0.05166352801571063,-0.021149098853782956]","[1,1,1]","[0.173155042920637,0.03689098344813946]","[1,1,1]","[-0.11241203942660083,0.1549997840130192]","[1,1,1]","[0.14376956122713883,-0.05108489864197817]","[1,1,1]","[-0.048024044183133115,-0.18078014624801156]","[1,1,1]","[-0.11428296002804486,-0.14322567246188442]","[1,1,1]","[0.02,0.02]",337.26,0,41,41,188,1,,,,,,,
,,,,,,,66539487195bfe168f78bcc1,6831aab46af1965efc99b252,2025-05-24_14h25.40.413,cuing_paradigm_dot,2024.1.5,Win32,60.24096386,682d573fa47f1360d1451895,,,,,,,,,,,337.2615,337.7601,,,338.0141,338.5279,left,0.4889,,,,,,,,,0.1,,,,,,337.7603,338.014,338.5281,"[-0.061364075325397074,0.09933201708897273]","[-1,-1,-1]","[0.06582781941626649,0.028728443211046575]","[-1,-1,-1]","[0.051186848418374044,0.10153782388629674]","[-1,-1,-1]","[0.028272911692648693,0.1756091860604841]","[-1,-1,-1]","[-0.011745825722395896,-0.1584547376758129]","[-1,-1,-1]","[0.0070563354387351606,0.09926572906073858]","[-1,-1,-1]","[0.05260869157552179,-0.13182751191282685]","[-1,-1,-1]","[0.02625660563073886,0.045625136091313925]","[-1,-1,-1]","[0.05312091323179345,-0.028097455512233888]","[-1,-1,-1]","[0.15991758938702114,-0.08205543231587076]","[-1,-1,-1]","[-0.19636071713483122,-0.01434375173507339]","[-1,-1,-1]","[-0.10901786012779915,-0.034243054832967454]","[-1,-1,-1]","[0.060975557242963656,-0.09106609265132133]","[-1,-1,-1]","[0.16129083433401425,0.11017679646549991]","[-1,-1,-1]","[-0.06481748162682628,-0.046681835461137834]","[-1,-1,-1]","[0.10371672627288706,-0.00422420705888533]","[-1,-1,-1]","[-0.046620958698792216,-0.09599568825352776]","[-1,-1,-1]","[-0.02039627778164343,0.18504138456552838]","[-1,-1,-1]","[0.19168653917555015,0.047424572400884796]","[1,1,1]","[-0.11738510779617652,0.056923023272207364]","[-1,-1,-1]","[-0.15920531966967635,0.11041014728726757]","[-1,-1,-1]","[-0.06370253147629854,0.14593453612660662]","[-1,-1,-1]","[0.13807413848649952,-0.1403615460980801]","[-1,-1,-1]","[0.07893860795523185,0.18203376122895165]","[-1,-1,-1]","[-0.14085363839475776,-0.11128998958310281]","[-1,-1,-1]","[0.1704857234773958,-0.029686677471386726]","[-1,-1,-1]","[-0.18263305253936232,-0.06674250118370961]","[-1,-1,-1]","[-0.060423182269720085,-0.1434761699814142]","[1,1,1]","[-0.05799990893051875,0.005833147761623355]","[-1,-1,-1]","[-0.007441934510984655,-0.03622677498848616]","[1,1,1]","[-0.1050108161976517,0.0951527203029369]","[-1,-1,-1]","[0.11795283359790117,-0.09809403994357059]","[-1,-1,-1]","[0.02,0.02]",339.6273,0,42,42,20,1,,,,,,,
,,,,,,,66539487195bfe168f78bcc1,6831aab46af1965efc99b252,2025-05-24_14h25.40.413,cuing_paradigm_dot,2024.1.5,Win32,60.24096386,682d573fa47f1360d1451895,,,,,,,,,,,339.6287,340.1257,,,340.3819,341.2816,right,0.884,,,,,,,,,0.55,,,,,,340.126,340.3818,341.2817,"[-0.18918264372547533,-0.014190510244236634]","[-1,-1,-1]","[0.01262967296052346,0.11732476598963144]","[1,1,1]","[0.08095098408237834,-0.15343963003613148]","[-1,-1,-1]","[-0.1336259579407428,-0.08782538152567684]","[-1,-1,-1]","[0.05396419219664224,0.16434700807636526]","[-1,-1,-1]","[-0.056550508436430766,-0.047717039466416804]","[-1,-1,-1]","[-0.09145825418947484,-0.07253047174820901]","[1,1,1]","[-0.01646603962656147,0.041382726030496204]","[1,1,1]","[-0.08866489045693673,-0.1662584733623721]","[1,1,1]","[-0.07766974340561686,0.10686235393878979]","[1,1,1]","[0.023769634292992455,-0.09527276628858086]","[-1,-1,-1]","[-0.019369620669198704,-0.14962144071483896]","[-1,-1,-1]","[0.042393491971963994,0.06406108187040001]","[-1,-1,-1]","[-0.06354558188385065,-0.12076443906235432]","[-1,-1,-1]","[0.17650068903998584,-0.09015996007334491]","[1,1,1]","[-0.005947465231492877,-0.019673428349342503]","[1,1,1]","[0.1289393352029612,0.04877960260884452]","[-1,-1,-1]","[0.10204895938948488,-0.02400474684461736]","[1,1,1]","[0.02386257804040451,-0.15153980783665402]","[1,1,1]","[0.07193968111645621,-0.0641893053121135]","[1,1,1]","[-0.027148725599587007,-0.19610126204317702]","[1,1,1]","[-0.15550318736702456,-0.051129073338230066]","[1,1,1]","[0.08566375558328101,0.013838681228542045]","[1,1,1]","[0.1196367605972571,-0.07226892073972724]","[1,1,1]","[-0.032159829063891504,0.13305980230365888]","[1,1,1]","[-0.14481124938426196,0.13514122927278238]","[-1,-1,-1]","[-0.14132803541400965,0.08632328737809514]","[1,1,1]","[-0.10868819992093982,-0.02444094302980163]","[-1,-1,-1]","[0.05693319550194164,0.1073142642489332]","[1,1,1]","[0.1724204584139279,0.04872596878963994]","[-1,-1,-1]","[-0.10131591438662577,0.16236347064162057]","[1,1,1]","[-0.1763090740999692,0.049437610820509556]","[-1,-1,-1]","[0.02,0.02]",342.3769,0,43,43,148,1,,,,,,,
,,,,,,,66539487195bfe168f78bcc1,6831aab46af1965efc99b252,2025-05-24_14h25.40.413,cuing_paradigm_dot,2024.1.5,Win32,60.24096386,682d573fa47f1360d1451895,,,,,,,,,,,342.3789,342.8766,,,343.1258,343.8272,right,0.6899,,,,,,,,,0.9,,,,,,342.8769,343.1258,343.8274,"[-0.12563108112913765,0.08808759007412308]","[1,1,1]","[-0.017487181690628895,-0.12330791279861905]","[1,1,1]","[0.10849880677051658,-0.16610792291036006]","[1,1,1]","[0.009023601240102161,-0.04048808660514082]","[1,1,1]","[-0.15938638584520437,0.027727605178074283]","[1,1,1]","[-0.14681822438396905,-0.035634385877190124]","[1,1,1]","[0.13531649617647204,0.10591062605974255]","[1,1,1]","[0.1329837039438904,-0.10928846888058186]","[1,1,1]","[0.04789054426433046,-0.14062699256196992]","[1,1,1]","[-0.05512238628738344,0.10494778718926634]","[1,1,1]","[0.03743438039419783,0.034691573477399325]","[1,1,1]","[0.043848097778094626,-0.09944310452453964]","[-1,-1,-1]","[-0.005265434206953614,0.04424608947814045]","[1,1,1]","[-0.09106788897305276,-0.005139147632979329]","[1,1,1]","[-0.1288987109901794,-0.1345345700810201]","[1,1,1]","[-0.03978695180737058,-0.04883373607051505]","[1,1,1]","[0.05433112342783662,0.1621249375893908]","[1,1,1]","[0.03374692534528476,0.09407241093858239]","[1,1,1]","[0.09306223748618862,0.02619144754823241]","[1,1,1]","[-0.019014080534145477,0.12350686333261786]","[-1,-1,-1]","[0.15018535575667752,-0.042050789596013195]","[1,1,1]","[-0.11581699256257204,0.15431845580130943]","[1,1,1]","[-0.04209525788358838,0.17844637310547365]","[1,1,1]","[0.15438369295812707,0.04524943912726243]","[1,1,1]","[0.10439267053348779,-0.07413739272984907]","[1,1,1]","[0.07311127863236232,-0.012012285115864637]","[-1,-1,-1]","[-0.16254536608413972,-0.09519060537964157]","[1,1,1]","[-0.16921968194129852,0.06757882395513987]","[1,1,1]","[-0.194918078368109,-0.04011061156967935]","[1,1,1]","[0.09191713424033011,0.09429741105479414]","[1,1,1]","[-0.08397916910436631,-0.08457814294180681]","[1,1,1]","[0.002088929463069805,-0.08595942868681786]","[1,1,1]","[0.02,0.02]",344.9269,0,44,44,197,1,,,,,,,
