right,left,explain.started,explain.stopped,key_resp_3.keys,key_resp_3.rt,key_resp_3.duration,participant,session,date,expName,psychopyVersion,OS,frameRate,study_id,explain_2.started,explain_2.stopped,key_resp_4.keys,key_resp_4.rt,key_resp_4.duration,explain_3.started,explain_3.stopped,key_resp_5.keys,key_resp_5.rt,key_resp_5.duration,fixation.started,fixation.stopped,practice.started,practice.stopped,response.started,response.stopped,key_resp.keys,key_resp.rt,key_resp.duration,feedback.started,feedback.stopped,trials_2.thisRepN,trials_2.thisTrialN,trials_2.thisN,trials_2.thisIndex,trials_2.ran,white_ratio,explain_4.started,explain_4.stopped,key_resp_6.keys,key_resp_6.rt,key_resp_6.duration,dotDisplay.started,dotDisplay.stopped,ITI.started,ITI.stopped,trials.thisRepN,trials.thisTrialN,trials.thisN,trials.thisIndex,trials.ran,break_2.started,break_2.stopped,trials_3.thisRepN,trials_3.thisTrialN,trials_3.thisN,trials_3.thisIndex,trials_3.ran
subject chose white,subject chose black,0.0002,98.2212,space,83.2164,,676c294b3882bfc79db02234,68253102053033c43a34c5d1,2025-05-15_01h33.01.071,cuing_paradigm_dot,2024.1.5,Win32,178.5714286,68242c07d0c0e200c6451fdd,,,,,,,,,,,,,,,,,,,,,,,,,,,,,,,,,,,,,,,,,,,,,,,,
,,,,,,,676c294b3882bfc79db02234,68253102053033c43a34c5d1,2025-05-15_01h33.01.071,cuing_paradigm_dot,2024.1.5,Win32,178.5714286,68242c07d0c0e200c6451fdd,98.2214,147.7755,space,19.545,,,,,,,,,,,,,,,,,,,,,,,,,,,,,,,,,,,,,,,,,,,,
,,,,,,,676c294b3882bfc79db02234,68253102053033c43a34c5d1,2025-05-15_01h33.01.071,cuing_paradigm_dot,2024.1.5,Win32,178.5714286,68242c07d0c0e200c6451fdd,,,,,,147.7756,152.17,space,1.3868,,,,,,,,,,,,,,,,,,,,,,,,,,,,,,,,,,,,,,,
,,,,,,,676c294b3882bfc79db02234,68253102053033c43a34c5d1,2025-05-15_01h33.01.071,cuing_paradigm_dot,2024.1.5,Win32,178.5714286,68242c07d0c0e200c6451fdd,,,,,,,,,,,152.1813,152.6751,152.6753,152.9253,152.9254,153.9699,right,1.0248,,153.97,155.0699,0,0,0,0,1,0.8,,,,,,,,,,,,,,,,,,,,,
,,,,,,,676c294b3882bfc79db02234,68253102053033c43a34c5d1,2025-05-15_01h33.01.071,cuing_paradigm_dot,2024.1.5,Win32,178.5714286,68242c07d0c0e200c6451fdd,,,,,,,,,,,155.0702,155.5695,155.5696,155.8203,155.8203,156.1029,left,0.2759,,156.1029,157.2029,0,1,1,1,1,0.2,,,,,,,,,,,,,,,,,,,,,
,,,,,,,676c294b3882bfc79db02234,68253102053033c43a34c5d1,2025-05-15_01h33.01.071,cuing_paradigm_dot,2024.1.5,Win32,178.5714286,68242c07d0c0e200c6451fdd,,,,,,,,,,,,,,,,,,,,,,,,,,,,157.2032,167.3361,space,7.1269,,,,,,,,,,,,,,,,,
,,,,,,,676c294b3882bfc79db02234,68253102053033c43a34c5d1,2025-05-15_01h33.01.071,cuing_paradigm_dot,2024.1.5,Win32,178.5714286,68242c07d0c0e200c6451fdd,,,,,,,,,,,167.3439,167.8414,,,168.0918,168.6026,right,0.5075,,,,,,,,,0.5,,,,,,167.8416,168.0917,168.6028,169.7026,0,0,0,96,1,,,,,,,
,,,,,,,676c294b3882bfc79db02234,68253102053033c43a34c5d1,2025-05-15_01h33.01.071,cuing_paradigm_dot,2024.1.5,Win32,178.5714286,68242c07d0c0e200c6451fdd,,,,,,,,,,,169.7029,170.2026,,,170.4526,170.7859,left,0.3313,,,,,,,,,0.45,,,,,,170.2026,170.4526,170.786,171.8858,0,1,1,76,1,,,,,,,
,,,,,,,676c294b3882bfc79db02234,68253102053033c43a34c5d1,2025-05-15_01h33.01.071,cuing_paradigm_dot,2024.1.5,Win32,178.5714286,68242c07d0c0e200c6451fdd,,,,,,,,,,,171.8859,172.3857,,,172.6362,173.2808,right,0.639,,,,,,,,,0.55,,,,,,172.3857,172.6362,173.2809,174.3803,0,2,2,133,1,,,,,,,
,,,,,,,676c294b3882bfc79db02234,68253102053033c43a34c5d1,2025-05-15_01h33.01.071,cuing_paradigm_dot,2024.1.5,Win32,178.5714286,68242c07d0c0e200c6451fdd,,,,,,,,,,,174.3804,174.8804,,,175.1307,175.4971,right,0.3572,,,,,,,,,0.9,,,,,,174.8804,175.1307,175.4973,176.597,0,3,3,194,1,,,,,,,
,,,,,,,676c294b3882bfc79db02234,68253102053033c43a34c5d1,2025-05-15_01h33.01.071,cuing_paradigm_dot,2024.1.5,Win32,178.5714286,68242c07d0c0e200c6451fdd,,,,,,,,,,,176.5973,177.0969,,,177.3471,177.6358,left,0.2793,,,,,,,,,0.1,,,,,,177.0969,177.3471,177.6359,178.7356,0,4,4,29,1,,,,,,,
,,,,,,,676c294b3882bfc79db02234,68253102053033c43a34c5d1,2025-05-15_01h33.01.071,cuing_paradigm_dot,2024.1.5,Win32,178.5714286,68242c07d0c0e200c6451fdd,,,,,,,,,,,178.7359,179.2356,,,179.4863,180.7529,right,1.2615,,,,,,,,,0.6,,,,,,179.2356,179.4862,180.753,181.8523,0,5,5,171,1,,,,,,,
,,,,,,,676c294b3882bfc79db02234,68253102053033c43a34c5d1,2025-05-15_01h33.01.071,cuing_paradigm_dot,2024.1.5,Win32,178.5714286,68242c07d0c0e200c6451fdd,,,,,,,,,,,181.8524,182.3524,,,182.6027,183.0855,left,0.4742,,,,,,,,,0.45,,,,,,182.3524,182.6027,183.0856,184.1858,0,6,6,88,1,,,,,,,
,,,,,,,676c294b3882bfc79db02234,68253102053033c43a34c5d1,2025-05-15_01h33.01.071,cuing_paradigm_dot,2024.1.5,Win32,178.5714286,68242c07d0c0e200c6451fdd,,,,,,,,,,,184.186,184.6857,,,184.9359,185.5579,left,0.6147,,,,,,,,,0.45,,,,,,184.6857,184.9359,185.5579,186.6578,0,7,7,60,1,,,,,,,
,,,,,,,676c294b3882bfc79db02234,68253102053033c43a34c5d1,2025-05-15_01h33.01.071,cuing_paradigm_dot,2024.1.5,Win32,178.5714286,68242c07d0c0e200c6451fdd,,,,,,,,,,,186.658,187.1577,,,187.4077,187.7243,left,0.3088,,,,,,,,,0.1,,,,,,187.1577,187.4077,187.7243,188.8243,0,8,8,26,1,,,,,,,
,,,,,,,676c294b3882bfc79db02234,68253102053033c43a34c5d1,2025-05-15_01h33.01.071,cuing_paradigm_dot,2024.1.5,Win32,178.5714286,68242c07d0c0e200c6451fdd,,,,,,,,,,,188.8245,189.3244,,,189.5744,189.8689,left,0.2871,,,,,,,,,0.1,,,,,,189.3244,189.5744,189.8689,190.9686,0,9,9,2,1,,,,,,,
,,,,,,,676c294b3882bfc79db02234,68253102053033c43a34c5d1,2025-05-15_01h33.01.071,cuing_paradigm_dot,2024.1.5,Win32,178.5714286,68242c07d0c0e200c6451fdd,,,,,,,,,,,190.969,191.4686,,,191.7194,192.3187,left,0.5899,,,,,,,,,0.4,,,,,,191.4686,191.7194,192.3188,193.4187,0,10,10,39,1,,,,,,,
,,,,,,,676c294b3882bfc79db02234,68253102053033c43a34c5d1,2025-05-15_01h33.01.071,cuing_paradigm_dot,2024.1.5,Win32,178.5714286,68242c07d0c0e200c6451fdd,,,,,,,,,,,193.4189,193.9188,,,194.1688,194.6353,left,0.4601,,,,,,,,,0.45,,,,,,193.9188,194.1688,194.6353,195.7352,0,11,11,72,1,,,,,,,
,,,,,,,676c294b3882bfc79db02234,68253102053033c43a34c5d1,2025-05-15_01h33.01.071,cuing_paradigm_dot,2024.1.5,Win32,178.5714286,68242c07d0c0e200c6451fdd,,,,,,,,,,,195.7354,196.2352,,,196.4853,196.8136,left,0.3223,,,,,,,,,0.1,,,,,,196.2352,196.4853,196.8136,197.9135,0,12,12,22,1,,,,,,,
,,,,,,,676c294b3882bfc79db02234,68253102053033c43a34c5d1,2025-05-15_01h33.01.071,cuing_paradigm_dot,2024.1.5,Win32,178.5714286,68242c07d0c0e200c6451fdd,,,,,,,,,,,197.9138,198.4134,,,198.6633,199.2076,left,0.5365,,,,,,,,,0.55,,,,,,198.4134,198.6633,199.2076,200.3075,0,13,13,145,1,,,,,,,
,,,,,,,676c294b3882bfc79db02234,68253102053033c43a34c5d1,2025-05-15_01h33.01.071,cuing_paradigm_dot,2024.1.5,Win32,178.5714286,68242c07d0c0e200c6451fdd,,,,,,,,,,,200.3078,200.8075,,,201.0578,201.43,left,0.3655,,,,,,,,,0.4,,,,,,200.8075,201.0578,201.43,202.5295,0,14,14,34,1,,,,,,,
,,,,,,,676c294b3882bfc79db02234,68253102053033c43a34c5d1,2025-05-15_01h33.01.071,cuing_paradigm_dot,2024.1.5,Win32,178.5714286,68242c07d0c0e200c6451fdd,,,,,,,,,,,202.5298,203.0297,,,203.2802,203.7909,left,0.5019,,,,,,,,,0.5,,,,,,203.0297,203.2802,203.7909,204.8905,0,15,15,102,1,,,,,,,
,,,,,,,676c294b3882bfc79db02234,68253102053033c43a34c5d1,2025-05-15_01h33.01.071,cuing_paradigm_dot,2024.1.5,Win32,178.5714286,68242c07d0c0e200c6451fdd,,,,,,,,,,,204.891,205.3906,,,205.6406,206.4688,left,0.8223,,,,,,,,,0.55,,,,,,205.3906,205.6406,206.4689,207.5682,0,16,16,132,1,,,,,,,
,,,,,,,676c294b3882bfc79db02234,68253102053033c43a34c5d1,2025-05-15_01h33.01.071,cuing_paradigm_dot,2024.1.5,Win32,178.5714286,68242c07d0c0e200c6451fdd,,,,,,,,,,,207.5684,208.0686,,,208.3187,209.174,left,0.8468,,,,,,,,,0.5,,,,,,208.0686,208.3187,209.174,210.2739,0,17,17,116,1,,,,,,,
,,,,,,,676c294b3882bfc79db02234,68253102053033c43a34c5d1,2025-05-15_01h33.01.071,cuing_paradigm_dot,2024.1.5,Win32,178.5714286,68242c07d0c0e200c6451fdd,,,,,,,,,,,210.274,210.774,,,211.0243,211.3295,right,0.2985,,,,,,,,,0.9,,,,,,210.774,211.0242,211.3295,212.4293,0,18,18,203,1,,,,,,,
,,,,,,,676c294b3882bfc79db02234,68253102053033c43a34c5d1,2025-05-15_01h33.01.071,cuing_paradigm_dot,2024.1.5,Win32,178.5714286,68242c07d0c0e200c6451fdd,,,,,,,,,,,212.4296,212.9292,,,213.1796,213.8737,left,0.6855,,,,,,,,,0.5,,,,,,212.9293,213.1796,213.8737,214.9739,0,19,19,106,1,,,,,,,
,,,,,,,676c294b3882bfc79db02234,68253102053033c43a34c5d1,2025-05-15_01h33.01.071,cuing_paradigm_dot,2024.1.5,Win32,178.5714286,68242c07d0c0e200c6451fdd,,,,,,,,,,,214.9741,215.4736,,,215.7239,216.4459,left,0.7176,,,,,,,,,0.45,,,,,,215.4737,215.7239,216.446,217.5462,0,20,20,81,1,,,,,,,
,,,,,,,676c294b3882bfc79db02234,68253102053033c43a34c5d1,2025-05-15_01h33.01.071,cuing_paradigm_dot,2024.1.5,Win32,178.5714286,68242c07d0c0e200c6451fdd,,,,,,,,,,,217.5464,218.0458,,,218.2961,218.5406,left,0.2363,,,,,,,,,0.1,,,,,,218.0458,218.2961,218.5406,219.6405,0,21,21,25,1,,,,,,,
,,,,,,,676c294b3882bfc79db02234,68253102053033c43a34c5d1,2025-05-15_01h33.01.071,cuing_paradigm_dot,2024.1.5,Win32,178.5714286,68242c07d0c0e200c6451fdd,,,,,,,,,,,219.6408,220.1403,,,220.3905,220.8013,left,0.4047,,,,,,,,,0.4,,,,,,220.1403,220.3905,220.8013,221.9012,0,22,22,30,1,,,,,,,
,,,,,,,676c294b3882bfc79db02234,68253102053033c43a34c5d1,2025-05-15_01h33.01.071,cuing_paradigm_dot,2024.1.5,Win32,178.5714286,68242c07d0c0e200c6451fdd,,,,,,,,,,,221.9014,222.4012,,,222.6516,222.918,right,0.2602,,,,,,,,,0.9,,,,,,222.4012,222.6516,222.918,224.0179,0,23,23,195,1,,,,,,,
,,,,,,,676c294b3882bfc79db02234,68253102053033c43a34c5d1,2025-05-15_01h33.01.071,cuing_paradigm_dot,2024.1.5,Win32,178.5714286,68242c07d0c0e200c6451fdd,,,,,,,,,,,224.0181,224.5179,,,224.7684,224.9623,right,0.1848,,,,,,,,,0.9,,,,,,224.518,224.7683,224.9624,226.0625,0,24,24,188,1,,,,,,,
,,,,,,,676c294b3882bfc79db02234,68253102053033c43a34c5d1,2025-05-15_01h33.01.071,cuing_paradigm_dot,2024.1.5,Win32,178.5714286,68242c07d0c0e200c6451fdd,,,,,,,,,,,226.0629,226.5622,,,226.8124,227.7345,left,0.9132,,,,,,,,,0.55,,,,,,226.5622,226.8124,227.7345,228.8344,0,25,25,148,1,,,,,,,
,,,,,,,676c294b3882bfc79db02234,68253102053033c43a34c5d1,2025-05-15_01h33.01.071,cuing_paradigm_dot,2024.1.5,Win32,178.5714286,68242c07d0c0e200c6451fdd,,,,,,,,,,,228.8345,229.3344,,,229.5845,230.3849,right,0.7946,,,,,,,,,0.55,,,,,,229.3344,229.5845,230.385,231.4843,0,26,26,121,1,,,,,,,
,,,,,,,676c294b3882bfc79db02234,68253102053033c43a34c5d1,2025-05-15_01h33.01.071,cuing_paradigm_dot,2024.1.5,Win32,178.5714286,68242c07d0c0e200c6451fdd,,,,,,,,,,,231.4845,231.9843,,,232.2348,232.9621,right,0.7255,,,,,,,,,0.6,,,,,,231.9844,232.2348,232.9621,234.0624,0,27,27,174,1,,,,,,,
,,,,,,,676c294b3882bfc79db02234,68253102053033c43a34c5d1,2025-05-15_01h33.01.071,cuing_paradigm_dot,2024.1.5,Win32,178.5714286,68242c07d0c0e200c6451fdd,,,,,,,,,,,234.0626,234.5621,,,234.8122,235.1788,right,0.3596,,,,,,,,,0.5,,,,,,234.5621,234.8122,235.1788,236.2787,0,28,28,105,1,,,,,,,
,,,,,,,676c294b3882bfc79db02234,68253102053033c43a34c5d1,2025-05-15_01h33.01.071,cuing_paradigm_dot,2024.1.5,Win32,178.5714286,68242c07d0c0e200c6451fdd,,,,,,,,,,,236.279,236.7788,,,237.0298,237.2842,left,0.2473,,,,,,,,,0.1,,,,,,236.7788,237.0298,237.2842,238.3841,0,29,29,20,1,,,,,,,
,,,,,,,676c294b3882bfc79db02234,68253102053033c43a34c5d1,2025-05-15_01h33.01.071,cuing_paradigm_dot,2024.1.5,Win32,178.5714286,68242c07d0c0e200c6451fdd,,,,,,,,,,,238.3844,238.8843,,,239.1345,239.4681,right,0.3278,,,,,,,,,0.6,,,,,,238.8843,239.1345,239.4681,240.5675,0,30,30,159,1,,,,,,,
,,,,,,,676c294b3882bfc79db02234,68253102053033c43a34c5d1,2025-05-15_01h33.01.071,cuing_paradigm_dot,2024.1.5,Win32,178.5714286,68242c07d0c0e200c6451fdd,,,,,,,,,,,240.5676,241.0674,,,241.3178,242.023,right,0.7009,,,,,,,,,0.55,,,,,,241.0674,241.3177,242.0231,243.1234,0,31,31,144,1,,,,,,,
,,,,,,,676c294b3882bfc79db02234,68253102053033c43a34c5d1,2025-05-15_01h33.01.071,cuing_paradigm_dot,2024.1.5,Win32,178.5714286,68242c07d0c0e200c6451fdd,,,,,,,,,,,243.1236,243.6232,,,243.8731,244.1674,right,0.2874,,,,,,,,,0.9,,,,,,243.6233,243.8731,244.1674,245.2673,0,32,32,180,1,,,,,,,
,,,,,,,676c294b3882bfc79db02234,68253102053033c43a34c5d1,2025-05-15_01h33.01.071,cuing_paradigm_dot,2024.1.5,Win32,178.5714286,68242c07d0c0e200c6451fdd,,,,,,,,,,,245.2675,245.7673,,,246.0175,246.2341,left,0.2098,,,,,,,,,0.5,,,,,,245.7673,246.0175,246.2341,247.3344,0,33,33,95,1,,,,,,,
,,,,,,,676c294b3882bfc79db02234,68253102053033c43a34c5d1,2025-05-15_01h33.01.071,cuing_paradigm_dot,2024.1.5,Win32,178.5714286,68242c07d0c0e200c6451fdd,,,,,,,,,,,247.3345,247.8339,,,248.0845,249.14,left,1.0478,,,,,,,,,0.5,,,,,,247.834,248.0845,249.1401,250.2396,0,34,34,112,1,,,,,,,
,,,,,,,676c294b3882bfc79db02234,68253102053033c43a34c5d1,2025-05-15_01h33.01.071,cuing_paradigm_dot,2024.1.5,Win32,178.5714286,68242c07d0c0e200c6451fdd,,,,,,,,,,,250.2398,250.7396,,,250.9896,251.8506,left,0.8597,,,,,,,,,0.5,,,,,,250.7397,250.9896,251.8507,252.9504,0,35,35,107,1,,,,,,,
,,,,,,,676c294b3882bfc79db02234,68253102053033c43a34c5d1,2025-05-15_01h33.01.071,cuing_paradigm_dot,2024.1.5,Win32,178.5714286,68242c07d0c0e200c6451fdd,,,,,,,,,,,252.9507,253.4505,,,253.7007,253.9897,right,0.2808,,,,,,,,,0.9,,,,,,253.4505,253.7007,253.9897,255.0895,0,36,36,201,1,,,,,,,
,,,,,,,676c294b3882bfc79db02234,68253102053033c43a34c5d1,2025-05-15_01h33.01.071,cuing_paradigm_dot,2024.1.5,Win32,178.5714286,68242c07d0c0e200c6451fdd,,,,,,,,,,,255.0897,255.5894,,,255.8397,257.0338,left,1.186,,,,,,,,,0.4,,,,,,255.5894,255.8397,257.0338,258.1337,0,37,37,35,1,,,,,,,
,,,,,,,676c294b3882bfc79db02234,68253102053033c43a34c5d1,2025-05-15_01h33.01.071,cuing_paradigm_dot,2024.1.5,Win32,178.5714286,68242c07d0c0e200c6451fdd,,,,,,,,,,,258.1339,258.6337,,,258.8837,259.5115,right,0.6228,,,,,,,,,0.6,,,,,,258.6337,258.8837,259.5116,260.6115,0,38,38,175,1,,,,,,,
,,,,,,,676c294b3882bfc79db02234,68253102053033c43a34c5d1,2025-05-15_01h33.01.071,cuing_paradigm_dot,2024.1.5,Win32,178.5714286,68242c07d0c0e200c6451fdd,,,,,,,,,,,260.6117,261.1114,,,261.3619,262.0669,left,0.7042,,,,,,,,,0.45,,,,,,261.1114,261.3618,262.0669,263.167,0,39,39,65,1,,,,,,,
,,,,,,,676c294b3882bfc79db02234,68253102053033c43a34c5d1,2025-05-15_01h33.01.071,cuing_paradigm_dot,2024.1.5,Win32,178.5714286,68242c07d0c0e200c6451fdd,,,,,,,,,,,263.1672,263.6669,,,263.9172,265.1558,left,1.2331,,,,,,,,,0.6,,,,,,263.6669,263.9172,265.1559,266.2558,0,40,40,165,1,,,,,,,
,,,,,,,676c294b3882bfc79db02234,68253102053033c43a34c5d1,2025-05-15_01h33.01.071,cuing_paradigm_dot,2024.1.5,Win32,178.5714286,68242c07d0c0e200c6451fdd,,,,,,,,,,,266.256,266.7557,,,267.006,267.3391,left,0.3291,,,,,,,,,0.4,,,,,,266.7558,267.006,267.3391,268.4392,0,41,41,51,1,,,,,,,
,,,,,,,676c294b3882bfc79db02234,68253102053033c43a34c5d1,2025-05-15_01h33.01.071,cuing_paradigm_dot,2024.1.5,Win32,178.5714286,68242c07d0c0e200c6451fdd,,,,,,,,,,,268.4394,268.9391,,,269.1892,269.9502,left,0.7582,,,,,,,,,0.45,,,,,,268.9391,269.1891,269.9502,271.0501,0,42,42,85,1,,,,,,,
,,,,,,,676c294b3882bfc79db02234,68253102053033c43a34c5d1,2025-05-15_01h33.01.071,cuing_paradigm_dot,2024.1.5,Win32,178.5714286,68242c07d0c0e200c6451fdd,,,,,,,,,,,271.0503,271.5501,,,271.8002,272.1112,left,0.3093,,,,,,,,,0.5,,,,,,271.5501,271.8002,272.1112,273.2114,0,43,43,118,1,,,,,,,
,,,,,,,676c294b3882bfc79db02234,68253102053033c43a34c5d1,2025-05-15_01h33.01.071,cuing_paradigm_dot,2024.1.5,Win32,178.5714286,68242c07d0c0e200c6451fdd,,,,,,,,,,,273.2115,273.7112,,,273.9613,275.2278,left,1.2628,,,,,,,,,0.55,,,,,,273.7112,273.9612,275.2278,276.3279,0,44,44,129,1,,,,,,,
,,,,,,,676c294b3882bfc79db02234,68253102053033c43a34c5d1,2025-05-15_01h33.01.071,cuing_paradigm_dot,2024.1.5,Win32,178.5714286,68242c07d0c0e200c6451fdd,,,,,,,,,,,276.3281,276.828,,,277.0784,277.2784,left,0.1949,,,,,,,,,0.1,,,,,,276.828,277.0784,277.2784,278.3779,0,45,45,28,1,,,,,,,
,,,,,,,676c294b3882bfc79db02234,68253102053033c43a34c5d1,2025-05-15_01h33.01.071,cuing_paradigm_dot,2024.1.5,Win32,178.5714286,68242c07d0c0e200c6451fdd,,,,,,,,,,,278.3782,278.8778,,,279.1281,279.3444,left,0.2138,,,,,,,,,0.1,,,,,,278.8778,279.128,279.3444,280.4446,0,46,46,12,1,,,,,,,
,,,,,,,676c294b3882bfc79db02234,68253102053033c43a34c5d1,2025-05-15_01h33.01.071,cuing_paradigm_dot,2024.1.5,Win32,178.5714286,68242c07d0c0e200c6451fdd,,,,,,,,,,,280.4447,280.9446,,,281.1946,281.3943,right,0.1954,,,,,,,,,0.9,,,,,,280.9447,281.1946,281.3943,282.4942,0,47,47,198,1,,,,,,,
,,,,,,,676c294b3882bfc79db02234,68253102053033c43a34c5d1,2025-05-15_01h33.01.071,cuing_paradigm_dot,2024.1.5,Win32,178.5714286,68242c07d0c0e200c6451fdd,,,,,,,,,,,282.4944,282.9942,,,283.2449,283.7164,left,0.4666,,,,,,,,,0.45,,,,,,282.9942,283.2449,283.7164,284.8163,0,48,48,74,1,,,,,,,
,,,,,,,676c294b3882bfc79db02234,68253102053033c43a34c5d1,2025-05-15_01h33.01.071,cuing_paradigm_dot,2024.1.5,Win32,178.5714286,68242c07d0c0e200c6451fdd,,,,,,,,,,,284.8166,285.3165,,,285.5669,285.8888,right,0.3128,,,,,,,,,0.9,,,,,,285.3165,285.5668,285.8889,286.9888,0,49,49,197,1,,,,,,,
,,,,,,,676c294b3882bfc79db02234,68253102053033c43a34c5d1,2025-05-15_01h33.01.071,cuing_paradigm_dot,2024.1.5,Win32,178.5714286,68242c07d0c0e200c6451fdd,,,,,,,,,,,286.989,287.4886,,,287.7389,287.9275,left,0.182,,,,,,,,,0.4,,,,,,287.4886,287.7389,287.9276,289.0274,0,50,50,49,1,,,,,,,
,,,,,,,676c294b3882bfc79db02234,68253102053033c43a34c5d1,2025-05-15_01h33.01.071,cuing_paradigm_dot,2024.1.5,Win32,178.5714286,68242c07d0c0e200c6451fdd,,,,,,,,,,,289.0276,289.5274,,,289.778,290.3162,right,0.5301,,,,,,,,,0.6,,,,,,289.5274,289.778,290.3163,291.4163,0,51,51,170,1,,,,,,,
,,,,,,,676c294b3882bfc79db02234,68253102053033c43a34c5d1,2025-05-15_01h33.01.071,cuing_paradigm_dot,2024.1.5,Win32,178.5714286,68242c07d0c0e200c6451fdd,,,,,,,,,,,291.4165,291.9163,,,292.1664,292.983,left,0.8093,,,,,,,,,0.5,,,,,,291.9163,292.1664,292.983,294.0828,0,52,52,109,1,,,,,,,
,,,,,,,676c294b3882bfc79db02234,68253102053033c43a34c5d1,2025-05-15_01h33.01.071,cuing_paradigm_dot,2024.1.5,Win32,178.5714286,68242c07d0c0e200c6451fdd,,,,,,,,,,,294.083,294.5832,,,294.8329,296.089,right,1.2462,,,,,,,,,0.6,,,,,,294.5832,294.8329,296.089,297.1884,0,53,53,160,1,,,,,,,
,,,,,,,676c294b3882bfc79db02234,68253102053033c43a34c5d1,2025-05-15_01h33.01.071,cuing_paradigm_dot,2024.1.5,Win32,178.5714286,68242c07d0c0e200c6451fdd,,,,,,,,,,,297.1886,297.6887,,,297.9385,299.2178,left,1.2733,,,,,,,,,0.5,,,,,,297.6887,297.9385,299.2179,300.316,0,54,54,115,1,,,,,,,
,,,,,,,676c294b3882bfc79db02234,68253102053033c43a34c5d1,2025-05-15_01h33.01.071,cuing_paradigm_dot,2024.1.5,Win32,178.5714286,68242c07d0c0e200c6451fdd,,,,,,,,,,,300.3163,300.816,,,301.0664,301.444,right,0.3733,,,,,,,,,0.6,,,,,,300.816,301.0664,301.444,302.5437,0,55,55,150,1,,,,,,,
,,,,,,,676c294b3882bfc79db02234,68253102053033c43a34c5d1,2025-05-15_01h33.01.071,cuing_paradigm_dot,2024.1.5,Win32,178.5714286,68242c07d0c0e200c6451fdd,,,,,,,,,,,302.5439,303.0438,,,303.2939,304.266,right,0.9631,,,,,,,,,0.55,,,,,,303.0438,303.2939,304.266,305.366,0,56,56,137,1,,,,,,,
,,,,,,,676c294b3882bfc79db02234,68253102053033c43a34c5d1,2025-05-15_01h33.01.071,cuing_paradigm_dot,2024.1.5,Win32,178.5714286,68242c07d0c0e200c6451fdd,,,,,,,,,,,305.3662,305.8659,,,306.1165,307.0494,left,0.9238,,,,,,,,,0.5,,,,,,305.866,306.1165,307.0494,308.1492,0,57,57,94,1,,,,,,,
,,,,,,,676c294b3882bfc79db02234,68253102053033c43a34c5d1,2025-05-15_01h33.01.071,cuing_paradigm_dot,2024.1.5,Win32,178.5714286,68242c07d0c0e200c6451fdd,,,,,,,,,,,308.1495,308.6492,,,308.8998,309.2326,right,0.3265,,,,,,,,,0.9,,,,,,308.6492,308.8998,309.2326,310.3327,0,58,58,200,1,,,,,,,
,,,,,,,676c294b3882bfc79db02234,68253102053033c43a34c5d1,2025-05-15_01h33.01.071,cuing_paradigm_dot,2024.1.5,Win32,178.5714286,68242c07d0c0e200c6451fdd,,,,,,,,,,,310.333,310.8327,,,311.083,311.5047,left,0.4148,,,,,,,,,0.45,,,,,,310.8328,311.083,311.5047,312.6046,0,59,59,63,1,,,,,,,
,,,,,,,676c294b3882bfc79db02234,68253102053033c43a34c5d1,2025-05-15_01h33.01.071,cuing_paradigm_dot,2024.1.5,Win32,178.5714286,68242c07d0c0e200c6451fdd,,,,,,,,,,,312.6048,313.1046,,,313.3549,314.1548,left,0.7915,,,,,,,,,0.45,,,,,,313.1046,313.3549,314.1548,315.2546,0,60,60,61,1,,,,,,,
,,,,,,,676c294b3882bfc79db02234,68253102053033c43a34c5d1,2025-05-15_01h33.01.071,cuing_paradigm_dot,2024.1.5,Win32,178.5714286,68242c07d0c0e200c6451fdd,,,,,,,,,,,315.2546,315.7549,,,316.0048,316.8994,left,0.8861,,,,,,,,,0.55,,,,,,315.7549,316.0048,316.8994,317.9992,0,61,61,128,1,,,,,,,
,,,,,,,676c294b3882bfc79db02234,68253102053033c43a34c5d1,2025-05-15_01h33.01.071,cuing_paradigm_dot,2024.1.5,Win32,178.5714286,68242c07d0c0e200c6451fdd,,,,,,,,,,,317.9994,318.4997,,,318.7498,319.1601,left,0.4047,,,,,,,,,0.6,,,,,,318.4997,318.7497,319.1601,320.2601,0,62,62,176,1,,,,,,,
,,,,,,,676c294b3882bfc79db02234,68253102053033c43a34c5d1,2025-05-15_01h33.01.071,cuing_paradigm_dot,2024.1.5,Win32,178.5714286,68242c07d0c0e200c6451fdd,,,,,,,,,,,320.2603,320.76,,,321.0109,321.4046,left,0.3847,,,,,,,,,0.4,,,,,,320.7601,321.0109,321.4046,322.5043,0,63,63,58,1,,,,,,,
,,,,,,,676c294b3882bfc79db02234,68253102053033c43a34c5d1,2025-05-15_01h33.01.071,cuing_paradigm_dot,2024.1.5,Win32,178.5714286,68242c07d0c0e200c6451fdd,,,,,,,,,,,322.5045,323.0047,,,323.2545,323.8329,left,0.5723,,,,,,,,,0.6,,,,,,323.0047,323.2544,323.8329,324.9323,0,64,64,169,1,,,,,,,
,,,,,,,676c294b3882bfc79db02234,68253102053033c43a34c5d1,2025-05-15_01h33.01.071,cuing_paradigm_dot,2024.1.5,Win32,178.5714286,68242c07d0c0e200c6451fdd,,,,,,,,,,,324.9325,325.4324,,,325.6822,326.3599,left,0.6718,,,,,,,,,0.4,,,,,,325.4324,325.6822,326.3599,327.4599,0,65,65,54,1,,,,,,,
,,,,,,,676c294b3882bfc79db02234,68253102053033c43a34c5d1,2025-05-15_01h33.01.071,cuing_paradigm_dot,2024.1.5,Win32,178.5714286,68242c07d0c0e200c6451fdd,,,,,,,,,,,327.46,327.9598,,,328.2101,329.3438,left,1.1281,,,,,,,,,0.55,,,,,,327.9598,328.2101,329.3438,330.4431,0,66,66,147,1,,,,,,,
,,,,,,,676c294b3882bfc79db02234,68253102053033c43a34c5d1,2025-05-15_01h33.01.071,cuing_paradigm_dot,2024.1.5,Win32,178.5714286,68242c07d0c0e200c6451fdd,,,,,,,,,,,330.4434,330.9432,,,331.1935,331.46,right,0.2567,,,,,,,,,0.9,,,,,,330.9432,331.1935,331.46,332.5603,0,67,67,192,1,,,,,,,
,,,,,,,676c294b3882bfc79db02234,68253102053033c43a34c5d1,2025-05-15_01h33.01.071,cuing_paradigm_dot,2024.1.5,Win32,178.5714286,68242c07d0c0e200c6451fdd,,,,,,,,,,,332.5604,333.0599,,,333.3104,333.7653,left,0.4492,,,,,,,,,0.4,,,,,,333.0599,333.3104,333.7654,334.8652,0,68,68,48,1,,,,,,,
,,,,,,,676c294b3882bfc79db02234,68253102053033c43a34c5d1,2025-05-15_01h33.01.071,cuing_paradigm_dot,2024.1.5,Win32,178.5714286,68242c07d0c0e200c6451fdd,,,,,,,,,,,334.8655,335.3652,,,335.6153,336.4938,left,0.8726,,,,,,,,,0.55,,,,,,335.3652,335.6153,336.4938,337.5929,0,69,69,127,1,,,,,,,
,,,,,,,676c294b3882bfc79db02234,68253102053033c43a34c5d1,2025-05-15_01h33.01.071,cuing_paradigm_dot,2024.1.5,Win32,178.5714286,68242c07d0c0e200c6451fdd,,,,,,,,,,,337.5931,338.0929,,,338.3433,338.593,left,0.2417,,,,,,,,,0.1,,,,,,338.093,338.3433,338.593,339.693,0,70,70,23,1,,,,,,,
,,,,,,,676c294b3882bfc79db02234,68253102053033c43a34c5d1,2025-05-15_01h33.01.071,cuing_paradigm_dot,2024.1.5,Win32,178.5714286,68242c07d0c0e200c6451fdd,,,,,,,,,,,339.6933,340.1929,,,340.4434,341.0095,left,0.559,,,,,,,,,0.45,,,,,,340.1929,340.4434,341.0095,342.1094,0,71,71,79,1,,,,,,,
,,,,,,,676c294b3882bfc79db02234,68253102053033c43a34c5d1,2025-05-15_01h33.01.071,cuing_paradigm_dot,2024.1.5,Win32,178.5714286,68242c07d0c0e200c6451fdd,,,,,,,,,,,342.1096,342.6094,,,342.8602,343.2596,left,0.3933,,,,,,,,,0.1,,,,,,342.6094,342.8602,343.2596,344.3598,0,72,72,7,1,,,,,,,
,,,,,,,676c294b3882bfc79db02234,68253102053033c43a34c5d1,2025-05-15_01h33.01.071,cuing_paradigm_dot,2024.1.5,Win32,178.5714286,68242c07d0c0e200c6451fdd,,,,,,,,,,,344.36,344.8594,,,345.11,345.2934,left,0.1778,,,,,,,,,0.1,,,,,,344.8594,345.11,345.2935,346.3937,0,73,73,6,1,,,,,,,
,,,,,,,676c294b3882bfc79db02234,68253102053033c43a34c5d1,2025-05-15_01h33.01.071,cuing_paradigm_dot,2024.1.5,Win32,178.5714286,68242c07d0c0e200c6451fdd,,,,,,,,,,,346.3939,346.8934,,,347.1428,347.9377,right,0.794,,,,,,,,,0.6,,,,,,346.8934,347.1427,347.9377,349.0375,0,74,74,151,1,,,,,,,
,,,,,,,676c294b3882bfc79db02234,68253102053033c43a34c5d1,2025-05-15_01h33.01.071,cuing_paradigm_dot,2024.1.5,Win32,178.5714286,68242c07d0c0e200c6451fdd,,,,,,,,,,,349.0376,349.5372,,,349.7875,350.3934,left,0.6005,,,,,,,,,0.45,,,,,,349.5372,349.7875,350.3935,351.4931,0,75,75,71,1,,,,,,,
,,,,,,,676c294b3882bfc79db02234,68253102053033c43a34c5d1,2025-05-15_01h33.01.071,cuing_paradigm_dot,2024.1.5,Win32,178.5714286,68242c07d0c0e200c6451fdd,,,,,,,,,,,351.4932,351.9927,,,352.2431,352.5592,right,0.309,,,,,,,,,0.9,,,,,,351.9927,352.2431,352.5593,353.6593,0,76,76,208,1,,,,,,,
,,,,,,,676c294b3882bfc79db02234,68253102053033c43a34c5d1,2025-05-15_01h33.01.071,cuing_paradigm_dot,2024.1.5,Win32,178.5714286,68242c07d0c0e200c6451fdd,,,,,,,,,,,353.6594,354.1593,,,354.4098,355.0258,left,0.607,,,,,,,,,0.4,,,,,,354.1594,354.4098,355.0259,356.1258,0,77,77,37,1,,,,,,,
,,,,,,,676c294b3882bfc79db02234,68253102053033c43a34c5d1,2025-05-15_01h33.01.071,cuing_paradigm_dot,2024.1.5,Win32,178.5714286,68242c07d0c0e200c6451fdd,,,,,,,,,,,356.1261,356.6257,,,356.8764,357.71,left,0.8276,,,,,,,,,0.5,,,,,,356.6257,356.8764,357.71,358.8091,0,78,78,91,1,,,,,,,
,,,,,,,676c294b3882bfc79db02234,68253102053033c43a34c5d1,2025-05-15_01h33.01.071,cuing_paradigm_dot,2024.1.5,Win32,178.5714286,68242c07d0c0e200c6451fdd,,,,,,,,,,,358.8093,359.3093,,,359.5592,359.8875,left,0.3225,,,,,,,,,0.4,,,,,,359.3093,359.5592,359.8875,360.9871,0,79,79,55,1,,,,,,,
,,,,,,,676c294b3882bfc79db02234,68253102053033c43a34c5d1,2025-05-15_01h33.01.071,cuing_paradigm_dot,2024.1.5,Win32,178.5714286,68242c07d0c0e200c6451fdd,,,,,,,,,,,360.9872,361.4871,,,361.7373,362.3315,left,0.5876,,,,,,,,,0.4,,,,,,361.4871,361.7373,362.3315,363.4312,0,80,80,33,1,,,,,,,
,,,,,,,676c294b3882bfc79db02234,68253102053033c43a34c5d1,2025-05-15_01h33.01.071,cuing_paradigm_dot,2024.1.5,Win32,178.5714286,68242c07d0c0e200c6451fdd,,,,,,,,,,,363.4314,363.9314,,,364.1815,365.659,left,1.4681,,,,,,,,,0.55,,,,,,363.9314,364.1815,365.6591,366.7591,0,81,81,140,1,,,,,,,
,,,,,,,676c294b3882bfc79db02234,68253102053033c43a34c5d1,2025-05-15_01h33.01.071,cuing_paradigm_dot,2024.1.5,Win32,178.5714286,68242c07d0c0e200c6451fdd,,,,,,,,,,,366.7593,367.259,,,367.5096,369.0096,,,,,,,,,,,0.55,,,,,,367.259,367.5095,369.0096,370.1089,0,82,82,122,1,,,,,,,
,,,,,,,676c294b3882bfc79db02234,68253102053033c43a34c5d1,2025-05-15_01h33.01.071,cuing_paradigm_dot,2024.1.5,Win32,178.5714286,68242c07d0c0e200c6451fdd,,,,,,,,,,,370.1092,370.6088,,,370.859,371.8035,left,0.9389,,,,,,,,,0.45,,,,,,370.6088,370.859,371.8036,372.9034,0,83,83,77,1,,,,,,,
,,,,,,,676c294b3882bfc79db02234,68253102053033c43a34c5d1,2025-05-15_01h33.01.071,cuing_paradigm_dot,2024.1.5,Win32,178.5714286,68242c07d0c0e200c6451fdd,,,,,,,,,,,372.9035,373.4031,,,373.6536,373.9147,left,0.2535,,,,,,,,,0.1,,,,,,373.4033,373.6536,373.9147,375.0143,0,84,84,15,1,,,,,,,
,,,,,,,676c294b3882bfc79db02234,68253102053033c43a34c5d1,2025-05-15_01h33.01.071,cuing_paradigm_dot,2024.1.5,Win32,178.5714286,68242c07d0c0e200c6451fdd,,,,,,,,,,,375.0146,375.5143,,,375.7645,376.5314,left,0.7612,,,,,,,,,0.4,,,,,,375.5143,375.7644,376.5314,377.631,0,85,85,53,1,,,,,,,
,,,,,,,676c294b3882bfc79db02234,68253102053033c43a34c5d1,2025-05-15_01h33.01.071,cuing_paradigm_dot,2024.1.5,Win32,178.5714286,68242c07d0c0e200c6451fdd,,,,,,,,,,,377.6311,378.131,,,378.3811,378.6144,left,0.2236,,,,,,,,,0.1,,,,,,378.131,378.381,378.6145,379.7143,0,86,86,18,1,,,,,,,
,,,,,,,676c294b3882bfc79db02234,68253102053033c43a34c5d1,2025-05-15_01h33.01.071,cuing_paradigm_dot,2024.1.5,Win32,178.5714286,68242c07d0c0e200c6451fdd,,,,,,,,,,,379.7145,380.2143,,,380.4647,381.403,left,0.9314,,,,,,,,,0.4,,,,,,380.2143,380.4647,381.4031,382.5032,0,87,87,56,1,,,,,,,
,,,,,,,676c294b3882bfc79db02234,68253102053033c43a34c5d1,2025-05-15_01h33.01.071,cuing_paradigm_dot,2024.1.5,Win32,178.5714286,68242c07d0c0e200c6451fdd,,,,,,,,,,,382.5035,383.003,,,383.2535,383.7647,left,0.506,,,,,,,,,0.55,,,,,,383.003,383.2535,383.7648,384.8644,0,88,88,120,1,,,,,,,
,,,,,,,676c294b3882bfc79db02234,68253102053033c43a34c5d1,2025-05-15_01h33.01.071,cuing_paradigm_dot,2024.1.5,Win32,178.5714286,68242c07d0c0e200c6451fdd,,,,,,,,,,,384.8646,385.3642,,,385.6147,386.414,left,0.7906,,,,,,,,,0.4,,,,,,385.3642,385.6146,386.414,387.5143,0,89,89,57,1,,,,,,,
,,,,,,,676c294b3882bfc79db02234,68253102053033c43a34c5d1,2025-05-15_01h33.01.071,cuing_paradigm_dot,2024.1.5,Win32,178.5714286,68242c07d0c0e200c6451fdd,,,,,,,,,,,387.5144,388.0139,,,388.2645,389.1197,left,0.8464,,,,,,,,,0.5,,,,,,388.0139,388.2645,389.1197,390.2195,0,90,90,119,1,,,,,,,
,,,,,,,676c294b3882bfc79db02234,68253102053033c43a34c5d1,2025-05-15_01h33.01.071,cuing_paradigm_dot,2024.1.5,Win32,178.5714286,68242c07d0c0e200c6451fdd,,,,,,,,,,,390.2197,390.7196,,,390.9701,391.3806,left,0.402,,,,,,,,,0.55,,,,,,390.7196,390.9701,391.3806,392.4808,0,91,91,142,1,,,,,,,
,,,,,,,676c294b3882bfc79db02234,68253102053033c43a34c5d1,2025-05-15_01h33.01.071,cuing_paradigm_dot,2024.1.5,Win32,178.5714286,68242c07d0c0e200c6451fdd,,,,,,,,,,,392.4811,392.9805,,,393.2312,394.0196,left,0.781,,,,,,,,,0.55,,,,,,392.9805,393.2312,394.0196,395.1195,0,92,92,126,1,,,,,,,
,,,,,,,676c294b3882bfc79db02234,68253102053033c43a34c5d1,2025-05-15_01h33.01.071,cuing_paradigm_dot,2024.1.5,Win32,178.5714286,68242c07d0c0e200c6451fdd,,,,,,,,,,,395.12,395.6196,,,395.8699,396.3028,left,0.4245,,,,,,,,,0.5,,,,,,395.6196,395.8699,396.3028,397.4026,0,93,93,103,1,,,,,,,
,,,,,,,676c294b3882bfc79db02234,68253102053033c43a34c5d1,2025-05-15_01h33.01.071,cuing_paradigm_dot,2024.1.5,Win32,178.5714286,68242c07d0c0e200c6451fdd,,,,,,,,,,,397.4028,397.9029,,,398.1527,398.4979,left,0.3394,,,,,,,,,0.4,,,,,,397.9029,398.1527,398.4979,399.597,0,94,94,40,1,,,,,,,
,,,,,,,676c294b3882bfc79db02234,68253102053033c43a34c5d1,2025-05-15_01h33.01.071,cuing_paradigm_dot,2024.1.5,Win32,178.5714286,68242c07d0c0e200c6451fdd,,,,,,,,,,,399.5972,400.0969,,,400.3474,400.5748,left,0.2227,,,,,,,,,0.1,,,,,,400.0969,400.3474,400.5748,401.6753,0,95,95,24,1,,,,,,,
,,,,,,,676c294b3882bfc79db02234,68253102053033c43a34c5d1,2025-05-15_01h33.01.071,cuing_paradigm_dot,2024.1.5,Win32,178.5714286,68242c07d0c0e200c6451fdd,,,,,,,,,,,401.6755,402.1747,,,402.425,402.7803,left,0.3455,,,,,,,,,0.6,,,,,,402.1747,402.425,402.7803,403.8802,0,96,96,173,1,,,,,,,
,,,,,,,676c294b3882bfc79db02234,68253102053033c43a34c5d1,2025-05-15_01h33.01.071,cuing_paradigm_dot,2024.1.5,Win32,178.5714286,68242c07d0c0e200c6451fdd,,,,,,,,,,,403.8805,404.3805,,,404.6305,404.9414,right,0.3047,,,,,,,,,0.9,,,,,,404.3805,404.6305,404.9414,406.0413,0,97,97,204,1,,,,,,,
,,,,,,,676c294b3882bfc79db02234,68253102053033c43a34c5d1,2025-05-15_01h33.01.071,cuing_paradigm_dot,2024.1.5,Win32,178.5714286,68242c07d0c0e200c6451fdd,,,,,,,,,,,406.0415,406.5413,,,406.7917,407.2802,right,0.483,,,,,,,,,0.6,,,,,,406.5413,406.7916,407.2802,408.3805,0,98,98,162,1,,,,,,,
,,,,,,,676c294b3882bfc79db02234,68253102053033c43a34c5d1,2025-05-15_01h33.01.071,cuing_paradigm_dot,2024.1.5,Win32,178.5714286,68242c07d0c0e200c6451fdd,,,,,,,,,,,408.3806,408.8803,,,409.1308,409.5246,left,0.3865,,,,,,,,,0.5,,,,,,408.8803,409.1307,409.5246,410.6245,0,99,99,114,1,,,,,,,
,,,,,,,676c294b3882bfc79db02234,68253102053033c43a34c5d1,2025-05-15_01h33.01.071,cuing_paradigm_dot,2024.1.5,Win32,178.5714286,68242c07d0c0e200c6451fdd,,,,,,,,,,,410.6246,411.1245,,,411.3748,411.9135,left,0.53,,,,,,,,,0.55,,,,,,411.1245,411.3748,411.9135,413.0136,0,100,100,138,1,,,,,,,
,,,,,,,676c294b3882bfc79db02234,68253102053033c43a34c5d1,2025-05-15_01h33.01.071,cuing_paradigm_dot,2024.1.5,Win32,178.5714286,68242c07d0c0e200c6451fdd,,,,,,,,,,,413.0138,413.5132,,,413.764,414.4856,right,0.7118,,,,,,,,,0.45,,,,,,413.5132,413.764,414.4857,415.5854,0,101,101,86,1,,,,,,,
,,,,,,,676c294b3882bfc79db02234,68253102053033c43a34c5d1,2025-05-15_01h33.01.071,cuing_paradigm_dot,2024.1.5,Win32,178.5714286,68242c07d0c0e200c6451fdd,,,,,,,,,,,415.5858,416.0856,,,416.3358,417.0356,left,0.697,,,,,,,,,0.45,,,,,,416.0856,416.3358,417.0356,418.1354,0,102,102,83,1,,,,,,,
,,,,,,,676c294b3882bfc79db02234,68253102053033c43a34c5d1,2025-05-15_01h33.01.071,cuing_paradigm_dot,2024.1.5,Win32,178.5714286,68242c07d0c0e200c6451fdd,,,,,,,,,,,418.1356,418.6356,,,418.8859,419.1744,right,0.2791,,,,,,,,,0.9,,,,,,418.6357,418.8859,419.1744,420.2744,0,103,103,209,1,,,,,,,
,,,,,,,676c294b3882bfc79db02234,68253102053033c43a34c5d1,2025-05-15_01h33.01.071,cuing_paradigm_dot,2024.1.5,Win32,178.5714286,68242c07d0c0e200c6451fdd,,,,,,,,,,,420.2746,420.7746,,,421.0244,421.2204,left,0.1902,,,,,,,,,0.1,,,,,,420.7746,421.0244,421.2204,422.3187,0,104,104,0,1,,,,,,,
,,,,,,,676c294b3882bfc79db02234,68253102053033c43a34c5d1,2025-05-15_01h33.01.071,cuing_paradigm_dot,2024.1.5,Win32,178.5714286,68242c07d0c0e200c6451fdd,,,,,,,,,,,422.3189,422.8188,,,423.069,423.252,left,0.1782,,,,,,,,,0.1,,,,,,422.8188,423.069,423.252,424.3521,0,105,105,14,1,,,,,,,
,,,,,,,676c294b3882bfc79db02234,68253102053033c43a34c5d1,2025-05-15_01h33.01.071,cuing_paradigm_dot,2024.1.5,Win32,178.5714286,68242c07d0c0e200c6451fdd,,,,,,,,,,,424.3523,424.8521,,,425.1021,425.5521,left,0.4424,,,,,,,,,0.4,,,,,,424.8521,425.1021,425.5521,426.6521,0,106,106,43,1,,,,,,,
,,,,,,,676c294b3882bfc79db02234,68253102053033c43a34c5d1,2025-05-15_01h33.01.071,cuing_paradigm_dot,2024.1.5,Win32,178.5714286,68242c07d0c0e200c6451fdd,,,,,,,,,,,426.6522,427.152,,,427.4024,427.9915,left,0.5836,,,,,,,,,0.4,,,,,,427.152,427.4024,427.9915,429.0907,0,107,107,50,1,,,,,,,
,,,,,,,676c294b3882bfc79db02234,68253102053033c43a34c5d1,2025-05-15_01h33.01.071,cuing_paradigm_dot,2024.1.5,Win32,178.5714286,68242c07d0c0e200c6451fdd,,,,,,,,,,,429.0909,429.591,,,429.8413,430.2023,right,0.36,,,,,,,,,0.6,,,,,,429.5911,429.8413,430.2023,431.3021,0,108,108,158,1,,,,,,,
,,,,,,,676c294b3882bfc79db02234,68253102053033c43a34c5d1,2025-05-15_01h33.01.071,cuing_paradigm_dot,2024.1.5,Win32,178.5714286,68242c07d0c0e200c6451fdd,,,,,,,,,,,431.3024,431.8024,,,432.0523,432.9853,left,0.9255,,,,,,,,,0.6,,,,,,431.8024,432.0523,432.9853,434.0852,0,109,109,157,1,,,,,,,
,,,,,,,676c294b3882bfc79db02234,68253102053033c43a34c5d1,2025-05-15_01h33.01.071,cuing_paradigm_dot,2024.1.5,Win32,178.5714286,68242c07d0c0e200c6451fdd,,,,,,,,,,,434.0855,434.5854,,,434.8354,435.0851,right,0.2446,,,,,,,,,0.9,,,,,,434.5854,434.8354,435.0851,436.185,0,110,110,181,1,,,,,,,
,,,,,,,676c294b3882bfc79db02234,68253102053033c43a34c5d1,2025-05-15_01h33.01.071,cuing_paradigm_dot,2024.1.5,Win32,178.5714286,68242c07d0c0e200c6451fdd,,,,,,,,,,,436.1852,436.685,,,436.9351,437.1356,left,0.1947,,,,,,,,,0.45,,,,,,436.685,436.9351,437.1357,438.2351,0,111,111,68,1,,,,,,,
,,,,,,,676c294b3882bfc79db02234,68253102053033c43a34c5d1,2025-05-15_01h33.01.071,cuing_paradigm_dot,2024.1.5,Win32,178.5714286,68242c07d0c0e200c6451fdd,,,,,,,,,,,438.2354,438.7353,,,438.9851,439.6349,right,0.6437,,,,,,,,,0.55,,,,,,438.7353,438.9851,439.6349,440.7349,0,112,112,125,1,,,,,,,
,,,,,,,676c294b3882bfc79db02234,68253102053033c43a34c5d1,2025-05-15_01h33.01.071,cuing_paradigm_dot,2024.1.5,Win32,178.5714286,68242c07d0c0e200c6451fdd,,,,,,,,,,,440.7353,441.2349,,,441.485,442.9848,,,,,,,,,,,0.55,,,,,,441.2349,441.485,442.9848,444.0848,0,113,113,131,1,,,,,,,
,,,,,,,676c294b3882bfc79db02234,68253102053033c43a34c5d1,2025-05-15_01h33.01.071,cuing_paradigm_dot,2024.1.5,Win32,178.5714286,68242c07d0c0e200c6451fdd,,,,,,,,,,,444.085,444.5848,,,444.8351,445.1572,right,0.3133,,,,,,,,,0.9,,,,,,444.5848,444.835,445.1572,446.257,0,114,114,196,1,,,,,,,
,,,,,,,676c294b3882bfc79db02234,68253102053033c43a34c5d1,2025-05-15_01h33.01.071,cuing_paradigm_dot,2024.1.5,Win32,178.5714286,68242c07d0c0e200c6451fdd,,,,,,,,,,,446.2571,446.7574,,,447.0076,448.1459,right,1.1294,,,,,,,,,0.5,,,,,,446.7575,447.0076,448.1459,449.2458,0,115,115,98,1,,,,,,,
,,,,,,,676c294b3882bfc79db02234,68253102053033c43a34c5d1,2025-05-15_01h33.01.071,cuing_paradigm_dot,2024.1.5,Win32,178.5714286,68242c07d0c0e200c6451fdd,,,,,,,,,,,449.246,449.7462,,,449.996,450.318,right,0.3148,,,,,,,,,0.6,,,,,,449.7463,449.996,450.318,451.4184,0,116,116,166,1,,,,,,,
,,,,,,,676c294b3882bfc79db02234,68253102053033c43a34c5d1,2025-05-15_01h33.01.071,cuing_paradigm_dot,2024.1.5,Win32,178.5714286,68242c07d0c0e200c6451fdd,,,,,,,,,,,451.4186,451.918,,,452.1681,452.7464,right,0.5726,,,,,,,,,0.6,,,,,,451.918,452.1681,452.7464,453.8456,0,117,117,153,1,,,,,,,
,,,,,,,676c294b3882bfc79db02234,68253102053033c43a34c5d1,2025-05-15_01h33.01.071,cuing_paradigm_dot,2024.1.5,Win32,178.5714286,68242c07d0c0e200c6451fdd,,,,,,,,,,,453.8459,454.3459,,,454.5962,455.1901,left,0.5864,,,,,,,,,0.4,,,,,,454.3459,454.5962,455.1902,456.2901,0,118,118,59,1,,,,,,,
,,,,,,,676c294b3882bfc79db02234,68253102053033c43a34c5d1,2025-05-15_01h33.01.071,cuing_paradigm_dot,2024.1.5,Win32,178.5714286,68242c07d0c0e200c6451fdd,,,,,,,,,,,456.2903,456.7904,,,457.0402,457.5793,left,0.5295,,,,,,,,,0.45,,,,,,456.7905,457.0402,457.5793,458.679,0,119,119,80,1,,,,,,,
,,,,,,,676c294b3882bfc79db02234,68253102053033c43a34c5d1,2025-05-15_01h33.01.071,cuing_paradigm_dot,2024.1.5,Win32,178.5714286,68242c07d0c0e200c6451fdd,,,,,,,,,,,458.6792,459.1792,,,459.4297,460.0631,left,0.6281,,,,,,,,,0.45,,,,,,459.1792,459.4297,460.0632,461.163,0,120,120,87,1,,,,,,,
,,,,,,,676c294b3882bfc79db02234,68253102053033c43a34c5d1,2025-05-15_01h33.01.071,cuing_paradigm_dot,2024.1.5,Win32,178.5714286,68242c07d0c0e200c6451fdd,,,,,,,,,,,461.1632,461.6627,,,461.9128,462.4232,left,0.5013,,,,,,,,,0.45,,,,,,461.6627,461.9128,462.4232,463.5236,0,121,121,84,1,,,,,,,
,,,,,,,676c294b3882bfc79db02234,68253102053033c43a34c5d1,2025-05-15_01h33.01.071,cuing_paradigm_dot,2024.1.5,Win32,178.5714286,68242c07d0c0e200c6451fdd,,,,,,,,,,,463.5239,464.0237,,,464.2733,464.7294,left,0.4501,,,,,,,,,0.5,,,,,,464.0237,464.2733,464.7294,465.8287,0,122,122,100,1,,,,,,,
,,,,,,,676c294b3882bfc79db02234,68253102053033c43a34c5d1,2025-05-15_01h33.01.071,cuing_paradigm_dot,2024.1.5,Win32,178.5714286,68242c07d0c0e200c6451fdd,,,,,,,,,,,465.829,466.3288,,,466.5793,467.4564,left,0.8697,,,,,,,,,0.5,,,,,,466.3288,466.5793,467.4564,468.5564,0,123,123,90,1,,,,,,,
,,,,,,,676c294b3882bfc79db02234,68253102053033c43a34c5d1,2025-05-15_01h33.01.071,cuing_paradigm_dot,2024.1.5,Win32,178.5714286,68242c07d0c0e200c6451fdd,,,,,,,,,,,468.5567,469.0564,,,469.3068,470.0955,right,0.7854,,,,,,,,,0.6,,,,,,469.0564,469.3067,470.0955,471.1954,0,124,124,155,1,,,,,,,
,,,,,,,676c294b3882bfc79db02234,68253102053033c43a34c5d1,2025-05-15_01h33.01.071,cuing_paradigm_dot,2024.1.5,Win32,178.5714286,68242c07d0c0e200c6451fdd,,,,,,,,,,,471.1955,471.6953,,,471.9459,472.562,right,0.6078,,,,,,,,,0.5,,,,,,471.6953,471.9458,472.562,473.6619,0,125,125,108,1,,,,,,,
,,,,,,,676c294b3882bfc79db02234,68253102053033c43a34c5d1,2025-05-15_01h33.01.071,cuing_paradigm_dot,2024.1.5,Win32,178.5714286,68242c07d0c0e200c6451fdd,,,,,,,,,,,473.6622,474.162,,,474.4125,475.0844,left,0.6645,,,,,,,,,0.45,,,,,,474.162,474.4124,475.0844,476.1844,0,126,126,78,1,,,,,,,
,,,,,,,676c294b3882bfc79db02234,68253102053033c43a34c5d1,2025-05-15_01h33.01.071,cuing_paradigm_dot,2024.1.5,Win32,178.5714286,68242c07d0c0e200c6451fdd,,,,,,,,,,,476.1845,476.6845,,,476.9344,477.5013,left,0.5613,,,,,,,,,0.5,,,,,,476.6845,476.9344,477.5013,478.6007,0,127,127,97,1,,,,,,,
,,,,,,,676c294b3882bfc79db02234,68253102053033c43a34c5d1,2025-05-15_01h33.01.071,cuing_paradigm_dot,2024.1.5,Win32,178.5714286,68242c07d0c0e200c6451fdd,,,,,,,,,,,478.601,479.1008,,,479.3513,479.879,left,0.5203,,,,,,,,,0.55,,,,,,479.1008,479.3512,479.879,480.9786,0,128,128,130,1,,,,,,,
,,,,,,,676c294b3882bfc79db02234,68253102053033c43a34c5d1,2025-05-15_01h33.01.071,cuing_paradigm_dot,2024.1.5,Win32,178.5714286,68242c07d0c0e200c6451fdd,,,,,,,,,,,480.9788,481.4785,,,481.729,483.1951,right,1.4577,,,,,,,,,0.6,,,,,,481.4785,481.729,483.1951,484.2955,0,129,129,168,1,,,,,,,
,,,,,,,676c294b3882bfc79db02234,68253102053033c43a34c5d1,2025-05-15_01h33.01.071,cuing_paradigm_dot,2024.1.5,Win32,178.5714286,68242c07d0c0e200c6451fdd,,,,,,,,,,,484.2956,484.7951,,,485.0453,485.3895,left,0.3362,,,,,,,,,0.4,,,,,,484.7951,485.0453,485.3895,486.4894,0,130,130,41,1,,,,,,,
,,,,,,,676c294b3882bfc79db02234,68253102053033c43a34c5d1,2025-05-15_01h33.01.071,cuing_paradigm_dot,2024.1.5,Win32,178.5714286,68242c07d0c0e200c6451fdd,,,,,,,,,,,486.4897,486.9894,,,487.2395,487.5951,left,0.3455,,,,,,,,,0.55,,,,,,486.9895,487.2395,487.5951,488.695,0,131,131,135,1,,,,,,,
,,,,,,,676c294b3882bfc79db02234,68253102053033c43a34c5d1,2025-05-15_01h33.01.071,cuing_paradigm_dot,2024.1.5,Win32,178.5714286,68242c07d0c0e200c6451fdd,,,,,,,,,,,488.6956,489.195,,,489.4457,489.7118,right,0.2578,,,,,,,,,0.9,,,,,,489.195,489.4457,489.7118,490.8116,0,132,132,190,1,,,,,,,
,,,,,,,676c294b3882bfc79db02234,68253102053033c43a34c5d1,2025-05-15_01h33.01.071,cuing_paradigm_dot,2024.1.5,Win32,178.5714286,68242c07d0c0e200c6451fdd,,,,,,,,,,,490.812,491.3116,,,491.562,492.2241,left,0.6531,,,,,,,,,0.6,,,,,,491.3116,491.562,492.2242,493.3229,0,133,133,152,1,,,,,,,
,,,,,,,676c294b3882bfc79db02234,68253102053033c43a34c5d1,2025-05-15_01h33.01.071,cuing_paradigm_dot,2024.1.5,Win32,178.5714286,68242c07d0c0e200c6451fdd,,,,,,,,,,,493.3231,493.8225,,,494.0726,494.3286,right,0.2503,,,,,,,,,0.9,,,,,,493.8225,494.0726,494.3286,495.4285,0,134,134,191,1,,,,,,,
,,,,,,,676c294b3882bfc79db02234,68253102053033c43a34c5d1,2025-05-15_01h33.01.071,cuing_paradigm_dot,2024.1.5,Win32,178.5714286,68242c07d0c0e200c6451fdd,,,,,,,,,,,495.4287,495.928,,,496.1785,496.467,left,0.2802,,,,,,,,,0.45,,,,,,495.928,496.1785,496.467,497.5671,0,135,135,89,1,,,,,,,
,,,,,,,676c294b3882bfc79db02234,68253102053033c43a34c5d1,2025-05-15_01h33.01.071,cuing_paradigm_dot,2024.1.5,Win32,178.5714286,68242c07d0c0e200c6451fdd,,,,,,,,,,,497.5673,498.067,,,498.3174,498.5724,left,0.249,,,,,,,,,0.1,,,,,,498.067,498.3174,498.5724,499.6723,0,136,136,11,1,,,,,,,
,,,,,,,676c294b3882bfc79db02234,68253102053033c43a34c5d1,2025-05-15_01h33.01.071,cuing_paradigm_dot,2024.1.5,Win32,178.5714286,68242c07d0c0e200c6451fdd,,,,,,,,,,,499.6725,500.1724,,,500.4225,500.7781,left,0.3465,,,,,,,,,0.45,,,,,,500.1724,500.4225,500.7781,501.8782,0,137,137,62,1,,,,,,,
,,,,,,,676c294b3882bfc79db02234,68253102053033c43a34c5d1,2025-05-15_01h33.01.071,cuing_paradigm_dot,2024.1.5,Win32,178.5714286,68242c07d0c0e200c6451fdd,,,,,,,,,,,501.8783,502.3782,,,502.6339,503.6392,left,1.0018,,,,,,,,,0.55,,,,,,502.3783,502.6339,503.6392,504.739,0,138,138,134,1,,,,,,,
,,,,,,,676c294b3882bfc79db02234,68253102053033c43a34c5d1,2025-05-15_01h33.01.071,cuing_paradigm_dot,2024.1.5,Win32,178.5714286,68242c07d0c0e200c6451fdd,,,,,,,,,,,504.7393,505.2389,,,505.489,506.0444,right,0.5535,,,,,,,,,0.55,,,,,,505.2389,505.489,506.0444,507.1444,0,139,139,124,1,,,,,,,
,,,,,,,676c294b3882bfc79db02234,68253102053033c43a34c5d1,2025-05-15_01h33.01.071,cuing_paradigm_dot,2024.1.5,Win32,178.5714286,68242c07d0c0e200c6451fdd,,,,,,,,,,,507.1446,507.6444,,,507.8945,508.7056,right,0.8072,,,,,,,,,0.6,,,,,,507.6444,507.8944,508.7056,509.8054,0,140,140,177,1,,,,,,,
,,,,,,,676c294b3882bfc79db02234,68253102053033c43a34c5d1,2025-05-15_01h33.01.071,cuing_paradigm_dot,2024.1.5,Win32,178.5714286,68242c07d0c0e200c6451fdd,,,,,,,,,,,509.8056,510.3055,,,510.5555,510.8722,right,0.3112,,,,,,,,,0.6,,,,,,510.3055,510.5555,510.8722,511.9721,0,141,141,167,1,,,,,,,
,,,,,,,676c294b3882bfc79db02234,68253102053033c43a34c5d1,2025-05-15_01h33.01.071,cuing_paradigm_dot,2024.1.5,Win32,178.5714286,68242c07d0c0e200c6451fdd,,,,,,,,,,,511.9723,512.472,,,512.7222,513.3332,right,0.6094,,,,,,,,,0.6,,,,,,512.472,512.7222,513.3332,514.4331,0,142,142,161,1,,,,,,,
,,,,,,,676c294b3882bfc79db02234,68253102053033c43a34c5d1,2025-05-15_01h33.01.071,cuing_paradigm_dot,2024.1.5,Win32,178.5714286,68242c07d0c0e200c6451fdd,,,,,,,,,,,514.4333,514.9331,,,515.1833,515.4442,right,0.2556,,,,,,,,,0.9,,,,,,514.9332,515.1833,515.4442,516.5442,0,143,143,207,1,,,,,,,
,,,,,,,676c294b3882bfc79db02234,68253102053033c43a34c5d1,2025-05-15_01h33.01.071,cuing_paradigm_dot,2024.1.5,Win32,178.5714286,68242c07d0c0e200c6451fdd,,,,,,,,,,,516.5444,517.0442,,,517.2946,518.3609,right,1.0604,,,,,,,,,0.6,,,,,,517.0443,517.2946,518.3609,519.4608,0,144,144,156,1,,,,,,,
,,,,,,,676c294b3882bfc79db02234,68253102053033c43a34c5d1,2025-05-15_01h33.01.071,cuing_paradigm_dot,2024.1.5,Win32,178.5714286,68242c07d0c0e200c6451fdd,,,,,,,,,,,519.461,519.9608,,,520.211,520.4615,right,0.2449,,,,,,,,,0.9,,,,,,519.9608,520.211,520.4615,521.5611,0,145,145,205,1,,,,,,,
,,,,,,,676c294b3882bfc79db02234,68253102053033c43a34c5d1,2025-05-15_01h33.01.071,cuing_paradigm_dot,2024.1.5,Win32,178.5714286,68242c07d0c0e200c6451fdd,,,,,,,,,,,521.5612,522.0611,,,522.3109,522.5497,right,0.2285,,,,,,,,,0.9,,,,,,522.0611,522.3109,522.5497,523.6498,0,146,146,183,1,,,,,,,
,,,,,,,676c294b3882bfc79db02234,68253102053033c43a34c5d1,2025-05-15_01h33.01.071,cuing_paradigm_dot,2024.1.5,Win32,178.5714286,68242c07d0c0e200c6451fdd,,,,,,,,,,,523.65,524.1498,,,524.3997,524.7496,left,0.3471,,,,,,,,,0.45,,,,,,524.1498,524.3997,524.7496,525.8496,0,147,147,69,1,,,,,,,
,,,,,,,676c294b3882bfc79db02234,68253102053033c43a34c5d1,2025-05-15_01h33.01.071,cuing_paradigm_dot,2024.1.5,Win32,178.5714286,68242c07d0c0e200c6451fdd,,,,,,,,,,,525.8498,526.3496,,,526.5996,527.0216,left,0.4199,,,,,,,,,0.5,,,,,,526.3497,526.5996,527.0217,528.1217,0,148,148,92,1,,,,,,,
,,,,,,,676c294b3882bfc79db02234,68253102053033c43a34c5d1,2025-05-15_01h33.01.071,cuing_paradigm_dot,2024.1.5,Win32,178.5714286,68242c07d0c0e200c6451fdd,,,,,,,,,,,528.1218,528.6216,,,528.8717,529.605,left,0.7288,,,,,,,,,0.45,,,,,,528.6216,528.8717,529.605,530.7049,0,149,149,82,1,,,,,,,
,,,,,,,676c294b3882bfc79db02234,68253102053033c43a34c5d1,2025-05-15_01h33.01.071,cuing_paradigm_dot,2024.1.5,Win32,178.5714286,68242c07d0c0e200c6451fdd,,,,,,,,,,,530.7051,531.2051,,,531.455,532.4443,right,0.9883,,,,,,,,,0.55,,,,,,531.2051,531.455,532.4443,533.5437,0,150,150,139,1,,,,,,,
,,,,,,,676c294b3882bfc79db02234,68253102053033c43a34c5d1,2025-05-15_01h33.01.071,cuing_paradigm_dot,2024.1.5,Win32,178.5714286,68242c07d0c0e200c6451fdd,,,,,,,,,,,533.5439,534.0438,,,534.2942,534.7442,left,0.4446,,,,,,,,,0.45,,,,,,534.0438,534.2942,534.7442,535.8437,0,151,151,64,1,,,,,,,
,,,,,,,676c294b3882bfc79db02234,68253102053033c43a34c5d1,2025-05-15_01h33.01.071,cuing_paradigm_dot,2024.1.5,Win32,178.5714286,68242c07d0c0e200c6451fdd,,,,,,,,,,,535.844,536.3437,,,536.5942,536.894,left,0.2911,,,,,,,,,0.4,,,,,,536.3437,536.5941,536.894,537.9939,0,152,152,32,1,,,,,,,
,,,,,,,676c294b3882bfc79db02234,68253102053033c43a34c5d1,2025-05-15_01h33.01.071,cuing_paradigm_dot,2024.1.5,Win32,178.5714286,68242c07d0c0e200c6451fdd,,,,,,,,,,,537.9941,538.494,,,538.7442,539.1832,left,0.4335,,,,,,,,,0.5,,,,,,538.494,538.7442,539.1833,540.283,0,153,153,111,1,,,,,,,
,,,,,,,676c294b3882bfc79db02234,68253102053033c43a34c5d1,2025-05-15_01h33.01.071,cuing_paradigm_dot,2024.1.5,Win32,178.5714286,68242c07d0c0e200c6451fdd,,,,,,,,,,,540.2832,540.7827,,,541.0326,541.2216,left,0.1874,,,,,,,,,0.1,,,,,,540.7827,541.0326,541.2216,542.3217,0,154,154,27,1,,,,,,,
,,,,,,,676c294b3882bfc79db02234,68253102053033c43a34c5d1,2025-05-15_01h33.01.071,cuing_paradigm_dot,2024.1.5,Win32,178.5714286,68242c07d0c0e200c6451fdd,,,,,,,,,,,542.3219,542.8214,,,543.072,543.2832,right,0.2061,,,,,,,,,0.9,,,,,,542.8214,543.072,543.2832,544.3825,0,155,155,193,1,,,,,,,
,,,,,,,676c294b3882bfc79db02234,68253102053033c43a34c5d1,2025-05-15_01h33.01.071,cuing_paradigm_dot,2024.1.5,Win32,178.5714286,68242c07d0c0e200c6451fdd,,,,,,,,,,,544.3826,544.8826,,,545.1325,546.0104,right,0.8678,,,,,,,,,0.5,,,,,,544.8827,545.1325,546.0104,547.1103,0,156,156,113,1,,,,,,,
,,,,,,,676c294b3882bfc79db02234,68253102053033c43a34c5d1,2025-05-15_01h33.01.071,cuing_paradigm_dot,2024.1.5,Win32,178.5714286,68242c07d0c0e200c6451fdd,,,,,,,,,,,547.1104,547.6101,,,547.8602,548.1657,left,0.3003,,,,,,,,,0.4,,,,,,547.6102,547.8601,548.1658,549.266,0,157,157,42,1,,,,,,,
,,,,,,,676c294b3882bfc79db02234,68253102053033c43a34c5d1,2025-05-15_01h33.01.071,cuing_paradigm_dot,2024.1.5,Win32,178.5714286,68242c07d0c0e200c6451fdd,,,,,,,,,,,549.2663,549.7657,,,550.0156,550.3601,left,0.3345,,,,,,,,,0.1,,,,,,549.7657,550.0156,550.3602,551.46,0,158,158,4,1,,,,,,,
,,,,,,,676c294b3882bfc79db02234,68253102053033c43a34c5d1,2025-05-15_01h33.01.071,cuing_paradigm_dot,2024.1.5,Win32,178.5714286,68242c07d0c0e200c6451fdd,,,,,,,,,,,551.4601,551.9599,,,552.2101,552.738,left,0.5199,,,,,,,,,0.5,,,,,,551.96,552.2101,552.738,553.8378,0,159,159,110,1,,,,,,,
,,,,,,,676c294b3882bfc79db02234,68253102053033c43a34c5d1,2025-05-15_01h33.01.071,cuing_paradigm_dot,2024.1.5,Win32,178.5714286,68242c07d0c0e200c6451fdd,,,,,,,,,,,553.838,554.3379,,,554.5881,555.21,left,0.615,,,,,,,,,0.5,,,,,,554.3379,554.588,555.21,556.3102,0,160,160,99,1,,,,,,,
,,,,,,,676c294b3882bfc79db02234,68253102053033c43a34c5d1,2025-05-15_01h33.01.071,cuing_paradigm_dot,2024.1.5,Win32,178.5714286,68242c07d0c0e200c6451fdd,,,,,,,,,,,556.3104,556.81,,,557.0603,557.316,right,0.2503,,,,,,,,,0.9,,,,,,556.81,557.0603,557.316,558.4153,0,161,161,182,1,,,,,,,
,,,,,,,676c294b3882bfc79db02234,68253102053033c43a34c5d1,2025-05-15_01h33.01.071,cuing_paradigm_dot,2024.1.5,Win32,178.5714286,68242c07d0c0e200c6451fdd,,,,,,,,,,,558.4155,558.9155,,,559.1659,559.3765,left,0.2038,,,,,,,,,0.1,,,,,,558.9155,559.1659,559.3766,560.4766,0,162,162,19,1,,,,,,,
,,,,,,,676c294b3882bfc79db02234,68253102053033c43a34c5d1,2025-05-15_01h33.01.071,cuing_paradigm_dot,2024.1.5,Win32,178.5714286,68242c07d0c0e200c6451fdd,,,,,,,,,,,560.4768,560.9767,,,561.2268,561.6492,right,0.4167,,,,,,,,,0.6,,,,,,560.9767,561.2268,561.6492,562.7486,0,163,163,164,1,,,,,,,
,,,,,,,676c294b3882bfc79db02234,68253102053033c43a34c5d1,2025-05-15_01h33.01.071,cuing_paradigm_dot,2024.1.5,Win32,178.5714286,68242c07d0c0e200c6451fdd,,,,,,,,,,,562.7489,563.2487,,,563.4989,563.7932,left,0.2931,,,,,,,,,0.4,,,,,,563.2487,563.4989,563.7932,564.893,0,164,164,38,1,,,,,,,
,,,,,,,676c294b3882bfc79db02234,68253102053033c43a34c5d1,2025-05-15_01h33.01.071,cuing_paradigm_dot,2024.1.5,Win32,178.5714286,68242c07d0c0e200c6451fdd,,,,,,,,,,,564.8931,565.393,,,565.6434,566.2877,right,0.6368,,,,,,,,,0.55,,,,,,565.393,565.6434,566.2877,567.388,0,165,165,146,1,,,,,,,
,,,,,,,676c294b3882bfc79db02234,68253102053033c43a34c5d1,2025-05-15_01h33.01.071,cuing_paradigm_dot,2024.1.5,Win32,178.5714286,68242c07d0c0e200c6451fdd,,,,,,,,,,,567.3882,567.8876,,,568.1381,568.3763,left,0.2351,,,,,,,,,0.1,,,,,,567.8876,568.1381,568.3764,569.4762,0,166,166,21,1,,,,,,,
,,,,,,,676c294b3882bfc79db02234,68253102053033c43a34c5d1,2025-05-15_01h33.01.071,cuing_paradigm_dot,2024.1.5,Win32,178.5714286,68242c07d0c0e200c6451fdd,,,,,,,,,,,569.4764,569.9763,,,570.2263,570.4769,left,0.2491,,,,,,,,,0.1,,,,,,569.9763,570.2263,570.4769,571.5761,0,167,167,3,1,,,,,,,
,,,,,,,676c294b3882bfc79db02234,68253102053033c43a34c5d1,2025-05-15_01h33.01.071,cuing_paradigm_dot,2024.1.5,Win32,178.5714286,68242c07d0c0e200c6451fdd,,,,,,,,,,,571.5766,572.0761,,,572.3266,572.4877,right,0.1509,,,,,,,,,0.9,,,,,,572.0762,572.3265,572.4877,573.5875,0,168,168,206,1,,,,,,,
,,,,,,,676c294b3882bfc79db02234,68253102053033c43a34c5d1,2025-05-15_01h33.01.071,cuing_paradigm_dot,2024.1.5,Win32,178.5714286,68242c07d0c0e200c6451fdd,,,,,,,,,,,573.5877,574.0874,,,574.338,575.1712,left,0.8282,,,,,,,,,0.5,,,,,,574.0874,574.338,575.1713,576.2709,0,169,169,93,1,,,,,,,
,,,,,,,676c294b3882bfc79db02234,68253102053033c43a34c5d1,2025-05-15_01h33.01.071,cuing_paradigm_dot,2024.1.5,Win32,178.5714286,68242c07d0c0e200c6451fdd,,,,,,,,,,,576.2711,576.7706,,,577.0208,577.4427,left,0.4197,,,,,,,,,0.4,,,,,,576.7706,577.0207,577.4428,578.543,0,170,170,45,1,,,,,,,
,,,,,,,676c294b3882bfc79db02234,68253102053033c43a34c5d1,2025-05-15_01h33.01.071,cuing_paradigm_dot,2024.1.5,Win32,178.5714286,68242c07d0c0e200c6451fdd,,,,,,,,,,,578.5433,579.0429,,,579.2928,579.5816,left,0.2839,,,,,,,,,0.9,,,,,,579.043,579.2928,579.5816,580.6815,0,171,171,189,1,,,,,,,
,,,,,,,676c294b3882bfc79db02234,68253102053033c43a34c5d1,2025-05-15_01h33.01.071,cuing_paradigm_dot,2024.1.5,Win32,178.5714286,68242c07d0c0e200c6451fdd,,,,,,,,,,,580.6817,581.1815,,,581.4316,582.7815,left,1.3456,,,,,,,,,0.45,,,,,,581.1816,581.4316,582.7815,583.8819,0,172,172,66,1,,,,,,,
,,,,,,,676c294b3882bfc79db02234,68253102053033c43a34c5d1,2025-05-15_01h33.01.071,cuing_paradigm_dot,2024.1.5,Win32,178.5714286,68242c07d0c0e200c6451fdd,,,,,,,,,,,583.882,584.3813,,,584.6318,584.8593,right,0.2191,,,,,,,,,0.9,,,,,,584.3814,584.6318,584.8593,585.9593,0,173,173,185,1,,,,,,,
,,,,,,,676c294b3882bfc79db02234,68253102053033c43a34c5d1,2025-05-15_01h33.01.071,cuing_paradigm_dot,2024.1.5,Win32,178.5714286,68242c07d0c0e200c6451fdd,,,,,,,,,,,585.9594,586.4595,,,586.7097,587.0036,left,0.2878,,,,,,,,,0.1,,,,,,586.4595,586.7097,587.0036,588.1035,0,174,174,17,1,,,,,,,
,,,,,,,676c294b3882bfc79db02234,68253102053033c43a34c5d1,2025-05-15_01h33.01.071,cuing_paradigm_dot,2024.1.5,Win32,178.5714286,68242c07d0c0e200c6451fdd,,,,,,,,,,,588.1038,588.6037,,,588.8541,589.748,right,0.8873,,,,,,,,,0.55,,,,,,588.6037,588.854,589.7482,590.8481,0,175,175,143,1,,,,,,,
,,,,,,,676c294b3882bfc79db02234,68253102053033c43a34c5d1,2025-05-15_01h33.01.071,cuing_paradigm_dot,2024.1.5,Win32,178.5714286,68242c07d0c0e200c6451fdd,,,,,,,,,,,590.8483,591.3479,,,591.598,592.2424,right,0.6376,,,,,,,,,0.6,,,,,,591.3479,591.598,592.2425,593.3423,0,176,176,154,1,,,,,,,
,,,,,,,676c294b3882bfc79db02234,68253102053033c43a34c5d1,2025-05-15_01h33.01.071,cuing_paradigm_dot,2024.1.5,Win32,178.5714286,68242c07d0c0e200c6451fdd,,,,,,,,,,,593.3425,593.8426,,,594.0924,595.2868,left,1.1877,,,,,,,,,0.45,,,,,,593.8426,594.0924,595.2868,596.387,0,177,177,75,1,,,,,,,
,,,,,,,676c294b3882bfc79db02234,68253102053033c43a34c5d1,2025-05-15_01h33.01.071,cuing_paradigm_dot,2024.1.5,Win32,178.5714286,68242c07d0c0e200c6451fdd,,,,,,,,,,,596.3871,596.8869,,,597.1373,598.2174,left,1.0747,,,,,,,,,0.45,,,,,,596.8869,597.1373,598.2174,599.3145,0,178,178,67,1,,,,,,,
,,,,,,,676c294b3882bfc79db02234,68253102053033c43a34c5d1,2025-05-15_01h33.01.071,cuing_paradigm_dot,2024.1.5,Win32,178.5714286,68242c07d0c0e200c6451fdd,,,,,,,,,,,599.3147,599.8147,,,600.0651,600.4422,left,0.3681,,,,,,,,,0.1,,,,,,599.8147,600.065,600.4422,601.5427,0,179,179,1,1,,,,,,,
,,,,,,,676c294b3882bfc79db02234,68253102053033c43a34c5d1,2025-05-15_01h33.01.071,cuing_paradigm_dot,2024.1.5,Win32,178.5714286,68242c07d0c0e200c6451fdd,,,,,,,,,,,601.5427,602.0421,,,602.2927,602.6095,right,0.3116,,,,,,,,,0.9,,,,,,602.0421,602.2927,602.6095,603.7088,0,180,180,184,1,,,,,,,
,,,,,,,676c294b3882bfc79db02234,68253102053033c43a34c5d1,2025-05-15_01h33.01.071,cuing_paradigm_dot,2024.1.5,Win32,178.5714286,68242c07d0c0e200c6451fdd,,,,,,,,,,,603.709,604.2089,,,604.4592,605.0037,left,0.5392,,,,,,,,,0.55,,,,,,604.2089,604.4592,605.0038,606.1035,0,181,181,141,1,,,,,,,
,,,,,,,676c294b3882bfc79db02234,68253102053033c43a34c5d1,2025-05-15_01h33.01.071,cuing_paradigm_dot,2024.1.5,Win32,178.5714286,68242c07d0c0e200c6451fdd,,,,,,,,,,,606.1037,606.6032,,,606.8538,607.4482,left,0.5883,,,,,,,,,0.4,,,,,,606.6033,606.8538,607.4482,608.5481,0,182,182,47,1,,,,,,,
,,,,,,,676c294b3882bfc79db02234,68253102053033c43a34c5d1,2025-05-15_01h33.01.071,cuing_paradigm_dot,2024.1.5,Win32,178.5714286,68242c07d0c0e200c6451fdd,,,,,,,,,,,608.5484,609.0477,,,609.306,610.0316,left,0.7215,,,,,,,,,0.5,,,,,,609.0478,609.306,610.0316,611.1313,0,183,183,101,1,,,,,,,
,,,,,,,676c294b3882bfc79db02234,68253102053033c43a34c5d1,2025-05-15_01h33.01.071,cuing_paradigm_dot,2024.1.5,Win32,178.5714286,68242c07d0c0e200c6451fdd,,,,,,,,,,,611.1315,611.6309,,,611.8812,612.253,left,0.3647,,,,,,,,,0.4,,,,,,611.6309,611.8811,612.253,613.3529,0,184,184,31,1,,,,,,,
,,,,,,,676c294b3882bfc79db02234,68253102053033c43a34c5d1,2025-05-15_01h33.01.071,cuing_paradigm_dot,2024.1.5,Win32,178.5714286,68242c07d0c0e200c6451fdd,,,,,,,,,,,613.3531,613.8528,,,614.1033,614.3419,right,0.2349,,,,,,,,,0.9,,,,,,613.8529,614.1033,614.3419,615.4418,0,185,185,186,1,,,,,,,
,,,,,,,676c294b3882bfc79db02234,68253102053033c43a34c5d1,2025-05-15_01h33.01.071,cuing_paradigm_dot,2024.1.5,Win32,178.5714286,68242c07d0c0e200c6451fdd,,,,,,,,,,,615.4419,615.9418,,,616.1923,616.8529,left,0.6546,,,,,,,,,0.6,,,,,,615.9419,616.1923,616.8529,617.953,0,186,186,163,1,,,,,,,
,,,,,,,676c294b3882bfc79db02234,68253102053033c43a34c5d1,2025-05-15_01h33.01.071,cuing_paradigm_dot,2024.1.5,Win32,178.5714286,68242c07d0c0e200c6451fdd,,,,,,,,,,,617.9534,618.4528,,,618.7033,619.3418,left,0.6334,,,,,,,,,0.6,,,,,,618.4528,618.7033,619.3418,620.4417,0,187,187,172,1,,,,,,,
,,,,,,,676c294b3882bfc79db02234,68253102053033c43a34c5d1,2025-05-15_01h33.01.071,cuing_paradigm_dot,2024.1.5,Win32,178.5714286,68242c07d0c0e200c6451fdd,,,,,,,,,,,620.4418,620.9418,,,621.1918,621.8423,right,0.6446,,,,,,,,,0.55,,,,,,620.9418,621.1918,621.8424,622.9421,0,188,188,123,1,,,,,,,
,,,,,,,676c294b3882bfc79db02234,68253102053033c43a34c5d1,2025-05-15_01h33.01.071,cuing_paradigm_dot,2024.1.5,Win32,178.5714286,68242c07d0c0e200c6451fdd,,,,,,,,,,,622.9423,623.4419,,,623.6922,623.9417,left,0.2407,,,,,,,,,0.1,,,,,,623.442,623.6922,623.9418,625.0419,0,189,189,5,1,,,,,,,
,,,,,,,676c294b3882bfc79db02234,68253102053033c43a34c5d1,2025-05-15_01h33.01.071,cuing_paradigm_dot,2024.1.5,Win32,178.5714286,68242c07d0c0e200c6451fdd,,,,,,,,,,,625.0421,625.5416,,,625.7916,626.7416,left,0.9439,,,,,,,,,0.55,,,,,,625.5416,625.7916,626.7416,627.8415,0,190,190,136,1,,,,,,,
,,,,,,,676c294b3882bfc79db02234,68253102053033c43a34c5d1,2025-05-15_01h33.01.071,cuing_paradigm_dot,2024.1.5,Win32,178.5714286,68242c07d0c0e200c6451fdd,,,,,,,,,,,627.8417,628.3414,,,628.5919,629.0748,left,0.474,,,,,,,,,0.4,,,,,,628.3415,628.5918,629.0749,630.1748,0,191,191,46,1,,,,,,,
,,,,,,,676c294b3882bfc79db02234,68253102053033c43a34c5d1,2025-05-15_01h33.01.071,cuing_paradigm_dot,2024.1.5,Win32,178.5714286,68242c07d0c0e200c6451fdd,,,,,,,,,,,630.1749,630.6747,,,630.9252,631.7031,left,0.7725,,,,,,,,,0.55,,,,,,630.6747,630.9252,631.7031,632.8024,0,192,192,149,1,,,,,,,
,,,,,,,676c294b3882bfc79db02234,68253102053033c43a34c5d1,2025-05-15_01h33.01.071,cuing_paradigm_dot,2024.1.5,Win32,178.5714286,68242c07d0c0e200c6451fdd,,,,,,,,,,,632.8027,633.3024,,,633.5526,634.2638,right,0.7038,,,,,,,,,0.6,,,,,,633.3025,633.5526,634.2638,635.3635,0,193,193,179,1,,,,,,,
,,,,,,,676c294b3882bfc79db02234,68253102053033c43a34c5d1,2025-05-15_01h33.01.071,cuing_paradigm_dot,2024.1.5,Win32,178.5714286,68242c07d0c0e200c6451fdd,,,,,,,,,,,635.3638,635.8638,,,636.1142,636.3801,left,0.2639,,,,,,,,,0.1,,,,,,635.8638,636.1142,636.3802,637.4803,0,194,194,13,1,,,,,,,
,,,,,,,676c294b3882bfc79db02234,68253102053033c43a34c5d1,2025-05-15_01h33.01.071,cuing_paradigm_dot,2024.1.5,Win32,178.5714286,68242c07d0c0e200c6451fdd,,,,,,,,,,,637.4805,637.9803,,,638.2309,638.7691,left,0.5307,,,,,,,,,0.5,,,,,,637.9803,638.2309,638.7691,639.8691,0,195,195,104,1,,,,,,,
,,,,,,,676c294b3882bfc79db02234,68253102053033c43a34c5d1,2025-05-15_01h33.01.071,cuing_paradigm_dot,2024.1.5,Win32,178.5714286,68242c07d0c0e200c6451fdd,,,,,,,,,,,639.8692,640.3694,,,640.6192,641.5358,right,0.9068,,,,,,,,,0.6,,,,,,640.3695,640.6192,641.5358,642.6356,0,196,196,178,1,,,,,,,
,,,,,,,676c294b3882bfc79db02234,68253102053033c43a34c5d1,2025-05-15_01h33.01.071,cuing_paradigm_dot,2024.1.5,Win32,178.5714286,68242c07d0c0e200c6451fdd,,,,,,,,,,,642.6359,643.1361,,,643.3859,644.1522,left,0.7589,,,,,,,,,0.4,,,,,,643.1361,643.3859,644.1522,645.2521,0,197,197,44,1,,,,,,,
,,,,,,,676c294b3882bfc79db02234,68253102053033c43a34c5d1,2025-05-15_01h33.01.071,cuing_paradigm_dot,2024.1.5,Win32,178.5714286,68242c07d0c0e200c6451fdd,,,,,,,,,,,645.2524,645.7521,,,646.0027,646.28,left,0.2705,,,,,,,,,0.1,,,,,,645.7522,646.0027,646.2801,647.3799,0,198,198,16,1,,,,,,,
,,,,,,,676c294b3882bfc79db02234,68253102053033c43a34c5d1,2025-05-15_01h33.01.071,cuing_paradigm_dot,2024.1.5,Win32,178.5714286,68242c07d0c0e200c6451fdd,,,,,,,,,,,647.3802,647.8801,,,648.1307,648.3745,left,0.2386,,,,,,,,,0.1,,,,,,647.8801,648.1307,648.3745,649.4744,0,199,199,8,1,,,,,,,
,,,,,,,676c294b3882bfc79db02234,68253102053033c43a34c5d1,2025-05-15_01h33.01.071,cuing_paradigm_dot,2024.1.5,Win32,178.5714286,68242c07d0c0e200c6451fdd,,,,,,,,,,,649.4746,649.9743,,,650.2248,650.8077,left,0.5733,,,,,,,,,0.5,,,,,,649.9744,650.2248,650.8078,651.9081,0,200,200,117,1,,,,,,,
,,,,,,,676c294b3882bfc79db02234,68253102053033c43a34c5d1,2025-05-15_01h33.01.071,cuing_paradigm_dot,2024.1.5,Win32,178.5714286,68242c07d0c0e200c6451fdd,,,,,,,,,,,651.9084,652.4076,,,652.6591,652.9135,right,0.2459,,,,,,,,,0.9,,,,,,652.4076,652.6591,652.9135,654.0132,0,201,201,199,1,,,,,,,
,,,,,,,676c294b3882bfc79db02234,68253102053033c43a34c5d1,2025-05-15_01h33.01.071,cuing_paradigm_dot,2024.1.5,Win32,178.5714286,68242c07d0c0e200c6451fdd,,,,,,,,,,,654.0134,654.5136,,,654.7638,655.3688,left,0.5959,,,,,,,,,0.45,,,,,,654.5136,654.7637,655.3688,656.4686,0,202,202,70,1,,,,,,,
,,,,,,,676c294b3882bfc79db02234,68253102053033c43a34c5d1,2025-05-15_01h33.01.071,cuing_paradigm_dot,2024.1.5,Win32,178.5714286,68242c07d0c0e200c6451fdd,,,,,,,,,,,656.4689,656.9687,,,657.2192,657.4471,left,0.2252,,,,,,,,,0.1,,,,,,656.9687,657.2192,657.4471,658.5464,0,203,203,10,1,,,,,,,
,,,,,,,676c294b3882bfc79db02234,68253102053033c43a34c5d1,2025-05-15_01h33.01.071,cuing_paradigm_dot,2024.1.5,Win32,178.5714286,68242c07d0c0e200c6451fdd,,,,,,,,,,,658.5466,659.0467,,,659.2968,659.6299,right,0.3249,,,,,,,,,0.9,,,,,,659.0468,659.2968,659.6299,660.7297,0,204,204,202,1,,,,,,,
,,,,,,,676c294b3882bfc79db02234,68253102053033c43a34c5d1,2025-05-15_01h33.01.071,cuing_paradigm_dot,2024.1.5,Win32,178.5714286,68242c07d0c0e200c6451fdd,,,,,,,,,,,660.7298,661.23,,,661.4801,662.3967,right,0.9113,,,,,,,,,0.9,,,,,,661.23,661.4801,662.3967,663.4963,0,205,205,187,1,,,,,,,
,,,,,,,676c294b3882bfc79db02234,68253102053033c43a34c5d1,2025-05-15_01h33.01.071,cuing_paradigm_dot,2024.1.5,Win32,178.5714286,68242c07d0c0e200c6451fdd,,,,,,,,,,,663.4965,663.9963,,,664.2463,664.7907,left,0.5368,,,,,,,,,0.4,,,,,,663.9963,664.2463,664.7907,665.8906,0,206,206,36,1,,,,,,,
,,,,,,,676c294b3882bfc79db02234,68253102053033c43a34c5d1,2025-05-15_01h33.01.071,cuing_paradigm_dot,2024.1.5,Win32,178.5714286,68242c07d0c0e200c6451fdd,,,,,,,,,,,665.8907,666.3906,,,666.6407,666.8906,left,0.2423,,,,,,,,,0.1,,,,,,666.3906,666.6407,666.8906,667.9906,0,207,207,9,1,,,,,,,
,,,,,,,676c294b3882bfc79db02234,68253102053033c43a34c5d1,2025-05-15_01h33.01.071,cuing_paradigm_dot,2024.1.5,Win32,178.5714286,68242c07d0c0e200c6451fdd,,,,,,,,,,,667.9908,668.4906,,,668.7409,669.1463,left,0.3987,,,,,,,,,0.45,,,,,,668.4906,668.7409,669.1463,670.246,0,208,208,73,1,,,,,,,
,,,,,,,676c294b3882bfc79db02234,68253102053033c43a34c5d1,2025-05-15_01h33.01.071,cuing_paradigm_dot,2024.1.5,Win32,178.5714286,68242c07d0c0e200c6451fdd,,,,,,,,,,,670.2462,670.7461,,,670.9966,671.3738,left,0.3695,,,,,,,,,0.4,,,,,,670.7461,670.9966,671.3738,672.4737,0,209,209,52,1,,,,,,,
,,,,,,,676c294b3882bfc79db02234,68253102053033c43a34c5d1,2025-05-15_01h33.01.071,cuing_paradigm_dot,2024.1.5,Win32,178.5714286,68242c07d0c0e200c6451fdd,,,,,,,,,,,,,,,,,,,,,,,,,,,,,,,,,,,,,,,,,,672.4739,732.4725,,,,,
,,,,,,,676c294b3882bfc79db02234,68253102053033c43a34c5d1,2025-05-15_01h33.01.071,cuing_paradigm_dot,2024.1.5,Win32,178.5714286,68242c07d0c0e200c6451fdd,,,,,,,,,,,732.481,732.9783,,,733.2283,733.9004,right,0.6633,,,,,,,,,0.55,,,,,,732.9783,733.2283,733.9004,735.0001,,,,,,,,0,0,0,142,1
,,,,,,,676c294b3882bfc79db02234,68253102053033c43a34c5d1,2025-05-15_01h33.01.071,cuing_paradigm_dot,2024.1.5,Win32,178.5714286,68242c07d0c0e200c6451fdd,,,,,,,,,,,735.0005,735.5003,,,735.7505,736.2006,right,0.4406,,,,,,,,,0.6,,,,,,735.5003,735.7505,736.2006,737.3,,,,,,,,0,1,1,169,1
,,,,,,,676c294b3882bfc79db02234,68253102053033c43a34c5d1,2025-05-15_01h33.01.071,cuing_paradigm_dot,2024.1.5,Win32,178.5714286,68242c07d0c0e200c6451fdd,,,,,,,,,,,737.3004,737.8003,,,738.0502,738.4613,left,0.4031,,,,,,,,,0.4,,,,,,737.8003,738.0502,738.4613,739.5613,,,,,,,,0,2,2,50,1
,,,,,,,676c294b3882bfc79db02234,68253102053033c43a34c5d1,2025-05-15_01h33.01.071,cuing_paradigm_dot,2024.1.5,Win32,178.5714286,68242c07d0c0e200c6451fdd,,,,,,,,,,,739.5615,740.0611,,,740.3113,740.7334,left,0.4133,,,,,,,,,0.4,,,,,,740.0611,740.3113,740.7334,741.8335,,,,,,,,0,3,3,53,1
,,,,,,,676c294b3882bfc79db02234,68253102053033c43a34c5d1,2025-05-15_01h33.01.071,cuing_paradigm_dot,2024.1.5,Win32,178.5714286,68242c07d0c0e200c6451fdd,,,,,,,,,,,741.8337,742.3334,,,742.5836,743.5166,right,0.9257,,,,,,,,,0.5,,,,,,742.3334,742.5836,743.5166,744.6166,,,,,,,,0,4,4,115,1
,,,,,,,676c294b3882bfc79db02234,68253102053033c43a34c5d1,2025-05-15_01h33.01.071,cuing_paradigm_dot,2024.1.5,Win32,178.5714286,68242c07d0c0e200c6451fdd,,,,,,,,,,,744.6167,745.117,,,745.3667,745.6947,left,0.3222,,,,,,,,,0.4,,,,,,745.117,745.3667,745.6947,746.7945,,,,,,,,0,5,5,38,1
,,,,,,,676c294b3882bfc79db02234,68253102053033c43a34c5d1,2025-05-15_01h33.01.071,cuing_paradigm_dot,2024.1.5,Win32,178.5714286,68242c07d0c0e200c6451fdd,,,,,,,,,,,746.7948,747.2944,,,747.5446,748.0113,right,0.46,,,,,,,,,0.6,,,,,,747.2944,747.5445,748.0113,749.1108,,,,,,,,0,6,6,160,1
,,,,,,,676c294b3882bfc79db02234,68253102053033c43a34c5d1,2025-05-15_01h33.01.071,cuing_paradigm_dot,2024.1.5,Win32,178.5714286,68242c07d0c0e200c6451fdd,,,,,,,,,,,749.111,749.6114,,,749.8617,750.8164,right,0.9461,,,,,,,,,0.55,,,,,,749.6114,749.8617,750.8164,751.9163,,,,,,,,0,7,7,146,1
,,,,,,,676c294b3882bfc79db02234,68253102053033c43a34c5d1,2025-05-15_01h33.01.071,cuing_paradigm_dot,2024.1.5,Win32,178.5714286,68242c07d0c0e200c6451fdd,,,,,,,,,,,751.9164,752.4163,,,752.6665,752.9442,left,0.2703,,,,,,,,,0.1,,,,,,752.4163,752.6665,752.9442,754.044,,,,,,,,0,8,8,18,1
,,,,,,,676c294b3882bfc79db02234,68253102053033c43a34c5d1,2025-05-15_01h33.01.071,cuing_paradigm_dot,2024.1.5,Win32,178.5714286,68242c07d0c0e200c6451fdd,,,,,,,,,,,754.0443,754.544,,,754.7942,755.794,left,0.9958,,,,,,,,,0.55,,,,,,754.544,754.7942,755.794,756.8939,,,,,,,,0,9,9,133,1
,,,,,,,676c294b3882bfc79db02234,68253102053033c43a34c5d1,2025-05-15_01h33.01.071,cuing_paradigm_dot,2024.1.5,Win32,178.5714286,68242c07d0c0e200c6451fdd,,,,,,,,,,,756.8941,757.3939,,,757.6441,758.4439,right,0.7948,,,,,,,,,0.6,,,,,,757.3939,757.644,758.444,759.544,,,,,,,,0,10,10,172,1
,,,,,,,676c294b3882bfc79db02234,68253102053033c43a34c5d1,2025-05-15_01h33.01.071,cuing_paradigm_dot,2024.1.5,Win32,178.5714286,68242c07d0c0e200c6451fdd,,,,,,,,,,,759.5443,760.0438,,,760.2942,760.8219,right,0.5231,,,,,,,,,0.6,,,,,,760.0438,760.2942,760.822,761.922,,,,,,,,0,11,11,166,1
,,,,,,,676c294b3882bfc79db02234,68253102053033c43a34c5d1,2025-05-15_01h33.01.071,cuing_paradigm_dot,2024.1.5,Win32,178.5714286,68242c07d0c0e200c6451fdd,,,,,,,,,,,761.9222,762.4216,,,762.6717,762.8994,left,0.219,,,,,,,,,0.1,,,,,,762.4216,762.6717,762.8994,763.9994,,,,,,,,0,12,12,20,1
,,,,,,,676c294b3882bfc79db02234,68253102053033c43a34c5d1,2025-05-15_01h33.01.071,cuing_paradigm_dot,2024.1.5,Win32,178.5714286,68242c07d0c0e200c6451fdd,,,,,,,,,,,763.9996,764.4994,,,764.75,765.3607,left,0.6053,,,,,,,,,0.6,,,,,,764.4994,764.75,765.3608,766.4604,,,,,,,,0,13,13,151,1
,,,,,,,676c294b3882bfc79db02234,68253102053033c43a34c5d1,2025-05-15_01h33.01.071,cuing_paradigm_dot,2024.1.5,Win32,178.5714286,68242c07d0c0e200c6451fdd,,,,,,,,,,,766.4605,766.9603,,,767.2106,768.2055,left,0.9893,,,,,,,,,0.45,,,,,,766.9604,767.2106,768.2055,769.3047,,,,,,,,0,14,14,88,1
,,,,,,,676c294b3882bfc79db02234,68253102053033c43a34c5d1,2025-05-15_01h33.01.071,cuing_paradigm_dot,2024.1.5,Win32,178.5714286,68242c07d0c0e200c6451fdd,,,,,,,,,,,769.3049,769.8047,,,770.0554,770.4003,left,0.3398,,,,,,,,,0.4,,,,,,769.8047,770.0554,770.4003,771.4995,,,,,,,,0,15,15,57,1
,,,,,,,676c294b3882bfc79db02234,68253102053033c43a34c5d1,2025-05-15_01h33.01.071,cuing_paradigm_dot,2024.1.5,Win32,178.5714286,68242c07d0c0e200c6451fdd,,,,,,,,,,,771.4997,771.9994,,,772.2495,772.7214,left,0.4632,,,,,,,,,0.45,,,,,,771.9994,772.2495,772.7214,773.8214,,,,,,,,0,16,16,75,1
,,,,,,,676c294b3882bfc79db02234,68253102053033c43a34c5d1,2025-05-15_01h33.01.071,cuing_paradigm_dot,2024.1.5,Win32,178.5714286,68242c07d0c0e200c6451fdd,,,,,,,,,,,773.8214,774.3214,,,774.5717,774.8774,right,0.3043,,,,,,,,,0.9,,,,,,774.3214,774.5717,774.8774,775.9771,,,,,,,,0,17,17,208,1
,,,,,,,676c294b3882bfc79db02234,68253102053033c43a34c5d1,2025-05-15_01h33.01.071,cuing_paradigm_dot,2024.1.5,Win32,178.5714286,68242c07d0c0e200c6451fdd,,,,,,,,,,,775.9773,776.4769,,,776.7275,776.8942,left,0.1615,,,,,,,,,0.1,,,,,,776.4769,776.7275,776.8942,777.9936,,,,,,,,0,18,18,29,1
,,,,,,,676c294b3882bfc79db02234,68253102053033c43a34c5d1,2025-05-15_01h33.01.071,cuing_paradigm_dot,2024.1.5,Win32,178.5714286,68242c07d0c0e200c6451fdd,,,,,,,,,,,777.9938,778.4934,,,778.7444,779.0213,right,0.2701,,,,,,,,,0.9,,,,,,778.4934,778.7444,779.0213,780.1212,,,,,,,,0,19,19,195,1
,,,,,,,676c294b3882bfc79db02234,68253102053033c43a34c5d1,2025-05-15_01h33.01.071,cuing_paradigm_dot,2024.1.5,Win32,178.5714286,68242c07d0c0e200c6451fdd,,,,,,,,,,,780.1213,780.6212,,,780.8713,781.149,right,0.2697,,,,,,,,,0.9,,,,,,780.6212,780.8713,781.149,782.2497,,,,,,,,0,20,20,197,1
,,,,,,,676c294b3882bfc79db02234,68253102053033c43a34c5d1,2025-05-15_01h33.01.071,cuing_paradigm_dot,2024.1.5,Win32,178.5714286,68242c07d0c0e200c6451fdd,,,,,,,,,,,782.25,782.7492,,,782.9991,783.2828,left,0.278,,,,,,,,,0.1,,,,,,782.7492,782.9991,783.2828,784.3824,,,,,,,,0,21,21,26,1
,,,,,,,676c294b3882bfc79db02234,68253102053033c43a34c5d1,2025-05-15_01h33.01.071,cuing_paradigm_dot,2024.1.5,Win32,178.5714286,68242c07d0c0e200c6451fdd,,,,,,,,,,,784.3826,784.8822,,,785.1324,785.4101,right,0.2716,,,,,,,,,0.9,,,,,,784.8823,785.1323,785.4102,786.51,,,,,,,,0,22,22,198,1
,,,,,,,676c294b3882bfc79db02234,68253102053033c43a34c5d1,2025-05-15_01h33.01.071,cuing_paradigm_dot,2024.1.5,Win32,178.5714286,68242c07d0c0e200c6451fdd,,,,,,,,,,,786.5105,787.0101,,,787.2602,787.6043,left,0.3374,,,,,,,,,0.55,,,,,,787.0101,787.2601,787.6043,788.7045,,,,,,,,0,23,23,120,1
,,,,,,,676c294b3882bfc79db02234,68253102053033c43a34c5d1,2025-05-15_01h33.01.071,cuing_paradigm_dot,2024.1.5,Win32,178.5714286,68242c07d0c0e200c6451fdd,,,,,,,,,,,788.7046,789.2042,,,789.4548,789.7655,left,0.3007,,,,,,,,,0.1,,,,,,789.2042,789.4548,789.7655,790.8655,,,,,,,,0,24,24,12,1
,,,,,,,676c294b3882bfc79db02234,68253102053033c43a34c5d1,2025-05-15_01h33.01.071,cuing_paradigm_dot,2024.1.5,Win32,178.5714286,68242c07d0c0e200c6451fdd,,,,,,,,,,,790.8658,791.3655,,,791.6159,792.2435,left,0.6222,,,,,,,,,0.5,,,,,,791.3655,791.6159,792.2435,793.3436,,,,,,,,0,25,25,106,1
,,,,,,,676c294b3882bfc79db02234,68253102053033c43a34c5d1,2025-05-15_01h33.01.071,cuing_paradigm_dot,2024.1.5,Win32,178.5714286,68242c07d0c0e200c6451fdd,,,,,,,,,,,793.3437,793.8432,,,794.0935,794.3322,left,0.2332,,,,,,,,,0.1,,,,,,793.8432,794.0935,794.3323,795.4322,,,,,,,,0,26,26,4,1
,,,,,,,676c294b3882bfc79db02234,68253102053033c43a34c5d1,2025-05-15_01h33.01.071,cuing_paradigm_dot,2024.1.5,Win32,178.5714286,68242c07d0c0e200c6451fdd,,,,,,,,,,,795.4323,795.9322,,,796.1824,796.3822,left,0.1934,,,,,,,,,0.1,,,,,,795.9322,796.1824,796.3822,797.482,,,,,,,,0,27,27,7,1
,,,,,,,676c294b3882bfc79db02234,68253102053033c43a34c5d1,2025-05-15_01h33.01.071,cuing_paradigm_dot,2024.1.5,Win32,178.5714286,68242c07d0c0e200c6451fdd,,,,,,,,,,,797.4822,797.982,,,798.2325,798.782,left,0.5413,,,,,,,,,0.4,,,,,,797.982,798.2325,798.782,799.8819,,,,,,,,0,28,28,58,1
,,,,,,,676c294b3882bfc79db02234,68253102053033c43a34c5d1,2025-05-15_01h33.01.071,cuing_paradigm_dot,2024.1.5,Win32,178.5714286,68242c07d0c0e200c6451fdd,,,,,,,,,,,799.8821,800.3822,,,800.6323,801.2157,left,0.578,,,,,,,,,0.55,,,,,,800.3822,800.6322,801.2158,802.3151,,,,,,,,0,29,29,132,1
,,,,,,,676c294b3882bfc79db02234,68253102053033c43a34c5d1,2025-05-15_01h33.01.071,cuing_paradigm_dot,2024.1.5,Win32,178.5714286,68242c07d0c0e200c6451fdd,,,,,,,,,,,802.3154,802.8154,,,803.0654,803.3044,left,0.2336,,,,,,,,,0.1,,,,,,802.8154,803.0654,803.3045,804.4039,,,,,,,,0,30,30,1,1
,,,,,,,676c294b3882bfc79db02234,68253102053033c43a34c5d1,2025-05-15_01h33.01.071,cuing_paradigm_dot,2024.1.5,Win32,178.5714286,68242c07d0c0e200c6451fdd,,,,,,,,,,,804.4041,804.9042,,,805.1541,805.7213,left,0.5613,,,,,,,,,0.5,,,,,,804.9043,805.1541,805.7213,806.8205,,,,,,,,0,31,31,92,1
,,,,,,,676c294b3882bfc79db02234,68253102053033c43a34c5d1,2025-05-15_01h33.01.071,cuing_paradigm_dot,2024.1.5,Win32,178.5714286,68242c07d0c0e200c6451fdd,,,,,,,,,,,806.8208,807.3209,,,807.5711,808.2151,right,0.6371,,,,,,,,,0.6,,,,,,807.3209,807.5711,808.2152,809.3153,,,,,,,,0,32,32,161,1
,,,,,,,676c294b3882bfc79db02234,68253102053033c43a34c5d1,2025-05-15_01h33.01.071,cuing_paradigm_dot,2024.1.5,Win32,178.5714286,68242c07d0c0e200c6451fdd,,,,,,,,,,,809.3156,809.815,,,810.0652,810.7877,left,0.7168,,,,,,,,,0.55,,,,,,809.815,810.0652,810.7877,811.8872,,,,,,,,0,33,33,122,1
,,,,,,,676c294b3882bfc79db02234,68253102053033c43a34c5d1,2025-05-15_01h33.01.071,cuing_paradigm_dot,2024.1.5,Win32,178.5714286,68242c07d0c0e200c6451fdd,,,,,,,,,,,811.8875,812.3872,,,812.6375,812.9317,left,0.2927,,,,,,,,,0.1,,,,,,812.3872,812.6375,812.9318,814.0321,,,,,,,,0,34,34,14,1
,,,,,,,676c294b3882bfc79db02234,68253102053033c43a34c5d1,2025-05-15_01h33.01.071,cuing_paradigm_dot,2024.1.5,Win32,178.5714286,68242c07d0c0e200c6451fdd,,,,,,,,,,,814.0323,814.5315,,,814.7818,815.0871,right,0.2984,,,,,,,,,0.9,,,,,,814.5315,814.7818,815.0871,816.1872,,,,,,,,0,35,35,202,1
,,,,,,,676c294b3882bfc79db02234,68253102053033c43a34c5d1,2025-05-15_01h33.01.071,cuing_paradigm_dot,2024.1.5,Win32,178.5714286,68242c07d0c0e200c6451fdd,,,,,,,,,,,816.1874,816.687,,,816.9373,817.2036,right,0.263,,,,,,,,,0.9,,,,,,816.687,816.9372,817.2036,818.3037,,,,,,,,0,36,36,194,1
,,,,,,,676c294b3882bfc79db02234,68253102053033c43a34c5d1,2025-05-15_01h33.01.071,cuing_paradigm_dot,2024.1.5,Win32,178.5714286,68242c07d0c0e200c6451fdd,,,,,,,,,,,818.3039,818.8036,,,819.0537,819.4482,left,0.3853,,,,,,,,,0.5,,,,,,818.8036,819.0537,819.4483,820.548,,,,,,,,0,37,37,119,1
,,,,,,,676c294b3882bfc79db02234,68253102053033c43a34c5d1,2025-05-15_01h33.01.071,cuing_paradigm_dot,2024.1.5,Win32,178.5714286,68242c07d0c0e200c6451fdd,,,,,,,,,,,820.5482,821.0484,,,821.2983,821.6315,right,0.3266,,,,,,,,,0.9,,,,,,821.0484,821.2983,821.6315,822.7314,,,,,,,,0,38,38,209,1
,,,,,,,676c294b3882bfc79db02234,68253102053033c43a34c5d1,2025-05-15_01h33.01.071,cuing_paradigm_dot,2024.1.5,Win32,178.5714286,68242c07d0c0e200c6451fdd,,,,,,,,,,,822.7316,823.2315,,,823.4817,824.2929,left,0.8059,,,,,,,,,0.55,,,,,,823.2315,823.4817,824.293,825.3928,,,,,,,,0,39,39,138,1
,,,,,,,676c294b3882bfc79db02234,68253102053033c43a34c5d1,2025-05-15_01h33.01.071,cuing_paradigm_dot,2024.1.5,Win32,178.5714286,68242c07d0c0e200c6451fdd,,,,,,,,,,,825.393,825.8922,,,826.1424,827.2036,left,1.0564,,,,,,,,,0.45,,,,,,825.8922,826.1423,827.2036,828.3034,,,,,,,,0,40,40,63,1
,,,,,,,676c294b3882bfc79db02234,68253102053033c43a34c5d1,2025-05-15_01h33.01.071,cuing_paradigm_dot,2024.1.5,Win32,178.5714286,68242c07d0c0e200c6451fdd,,,,,,,,,,,828.3036,828.8036,,,829.0539,829.2979,right,0.2411,,,,,,,,,0.9,,,,,,828.8036,829.0538,829.2979,830.3979,,,,,,,,0,41,41,184,1
,,,,,,,676c294b3882bfc79db02234,68253102053033c43a34c5d1,2025-05-15_01h33.01.071,cuing_paradigm_dot,2024.1.5,Win32,178.5714286,68242c07d0c0e200c6451fdd,,,,,,,,,,,830.3981,830.8977,,,831.1481,831.4147,right,0.2646,,,,,,,,,0.9,,,,,,830.8977,831.1481,831.4148,832.5145,,,,,,,,0,42,42,196,1
,,,,,,,676c294b3882bfc79db02234,68253102053033c43a34c5d1,2025-05-15_01h33.01.071,cuing_paradigm_dot,2024.1.5,Win32,178.5714286,68242c07d0c0e200c6451fdd,,,,,,,,,,,832.5149,833.0146,,,833.2652,833.6365,left,0.3656,,,,,,,,,0.4,,,,,,833.0146,833.2652,833.6365,834.7365,,,,,,,,0,43,43,32,1
,,,,,,,676c294b3882bfc79db02234,68253102053033c43a34c5d1,2025-05-15_01h33.01.071,cuing_paradigm_dot,2024.1.5,Win32,178.5714286,68242c07d0c0e200c6451fdd,,,,,,,,,,,834.7367,835.2365,,,835.487,835.9814,left,0.4891,,,,,,,,,0.45,,,,,,835.2365,835.4869,835.9814,837.0809,,,,,,,,0,44,44,76,1
,,,,,,,676c294b3882bfc79db02234,68253102053033c43a34c5d1,2025-05-15_01h33.01.071,cuing_paradigm_dot,2024.1.5,Win32,178.5714286,68242c07d0c0e200c6451fdd,,,,,,,,,,,837.0811,837.5812,,,837.8311,838.5312,left,0.6952,,,,,,,,,0.55,,,,,,837.5812,837.8311,838.5313,839.6311,,,,,,,,0,45,45,127,1
,,,,,,,676c294b3882bfc79db02234,68253102053033c43a34c5d1,2025-05-15_01h33.01.071,cuing_paradigm_dot,2024.1.5,Win32,178.5714286,68242c07d0c0e200c6451fdd,,,,,,,,,,,839.6313,840.131,,,840.3811,841.1869,left,0.8001,,,,,,,,,0.6,,,,,,840.1311,840.381,841.1869,842.2867,,,,,,,,0,46,46,156,1
,,,,,,,676c294b3882bfc79db02234,68253102053033c43a34c5d1,2025-05-15_01h33.01.071,cuing_paradigm_dot,2024.1.5,Win32,178.5714286,68242c07d0c0e200c6451fdd,,,,,,,,,,,842.2868,842.7864,,,843.0369,843.5364,left,0.4927,,,,,,,,,0.5,,,,,,842.7864,843.0369,843.5364,844.6363,,,,,,,,0,47,47,111,1
,,,,,,,676c294b3882bfc79db02234,68253102053033c43a34c5d1,2025-05-15_01h33.01.071,cuing_paradigm_dot,2024.1.5,Win32,178.5714286,68242c07d0c0e200c6451fdd,,,,,,,,,,,844.6365,845.1362,,,845.3864,845.9918,left,0.604,,,,,,,,,0.5,,,,,,845.1363,845.3864,845.9918,847.0918,,,,,,,,0,48,48,105,1
,,,,,,,676c294b3882bfc79db02234,68253102053033c43a34c5d1,2025-05-15_01h33.01.071,cuing_paradigm_dot,2024.1.5,Win32,178.5714286,68242c07d0c0e200c6451fdd,,,,,,,,,,,847.092,847.5922,,,847.8424,848.853,left,1.0033,,,,,,,,,0.55,,,,,,847.5922,847.8423,848.8531,849.9528,,,,,,,,0,49,49,124,1
,,,,,,,676c294b3882bfc79db02234,68253102053033c43a34c5d1,2025-05-15_01h33.01.071,cuing_paradigm_dot,2024.1.5,Win32,178.5714286,68242c07d0c0e200c6451fdd,,,,,,,,,,,849.9531,850.4528,,,850.7033,851.2417,left,0.5308,,,,,,,,,0.45,,,,,,850.4528,850.7033,851.2418,852.3416,,,,,,,,0,50,50,65,1
,,,,,,,676c294b3882bfc79db02234,68253102053033c43a34c5d1,2025-05-15_01h33.01.071,cuing_paradigm_dot,2024.1.5,Win32,178.5714286,68242c07d0c0e200c6451fdd,,,,,,,,,,,852.3418,852.8416,,,853.0922,853.4141,left,0.3162,,,,,,,,,0.1,,,,,,852.8416,853.0922,853.4142,854.5138,,,,,,,,0,51,51,5,1
,,,,,,,676c294b3882bfc79db02234,68253102053033c43a34c5d1,2025-05-15_01h33.01.071,cuing_paradigm_dot,2024.1.5,Win32,178.5714286,68242c07d0c0e200c6451fdd,,,,,,,,,,,854.514,855.0138,,,855.2647,855.7749,left,0.5036,,,,,,,,,0.5,,,,,,855.0138,855.2646,855.775,856.875,,,,,,,,0,52,52,112,1
,,,,,,,676c294b3882bfc79db02234,68253102053033c43a34c5d1,2025-05-15_01h33.01.071,cuing_paradigm_dot,2024.1.5,Win32,178.5714286,68242c07d0c0e200c6451fdd,,,,,,,,,,,856.8752,857.375,,,857.6251,857.836,left,0.2019,,,,,,,,,0.1,,,,,,857.375,857.625,857.836,858.936,,,,,,,,0,53,53,21,1
,,,,,,,676c294b3882bfc79db02234,68253102053033c43a34c5d1,2025-05-15_01h33.01.071,cuing_paradigm_dot,2024.1.5,Win32,178.5714286,68242c07d0c0e200c6451fdd,,,,,,,,,,,858.9363,859.436,,,859.6864,860.3026,right,0.6066,,,,,,,,,0.55,,,,,,859.436,859.6864,860.3026,861.4025,,,,,,,,0,54,54,121,1
,,,,,,,676c294b3882bfc79db02234,68253102053033c43a34c5d1,2025-05-15_01h33.01.071,cuing_paradigm_dot,2024.1.5,Win32,178.5714286,68242c07d0c0e200c6451fdd,,,,,,,,,,,861.4026,861.9029,,,862.1527,862.9973,left,0.8354,,,,,,,,,0.55,,,,,,861.9029,862.1527,862.9973,864.0971,,,,,,,,0,55,55,139,1
,,,,,,,676c294b3882bfc79db02234,68253102053033c43a34c5d1,2025-05-15_01h33.01.071,cuing_paradigm_dot,2024.1.5,Win32,178.5714286,68242c07d0c0e200c6451fdd,,,,,,,,,,,864.0973,864.5971,,,864.8472,865.1137,left,0.2589,,,,,,,,,0.1,,,,,,864.5971,864.8472,865.1137,866.2136,,,,,,,,0,56,56,17,1
,,,,,,,676c294b3882bfc79db02234,68253102053033c43a34c5d1,2025-05-15_01h33.01.071,cuing_paradigm_dot,2024.1.5,Win32,178.5714286,68242c07d0c0e200c6451fdd,,,,,,,,,,,866.2138,866.7137,,,866.9636,867.4532,left,0.4836,,,,,,,,,0.1,,,,,,866.7137,866.9636,867.4532,868.5524,,,,,,,,0,57,57,19,1
,,,,,,,676c294b3882bfc79db02234,68253102053033c43a34c5d1,2025-05-15_01h33.01.071,cuing_paradigm_dot,2024.1.5,Win32,178.5714286,68242c07d0c0e200c6451fdd,,,,,,,,,,,868.5525,869.0524,,,869.3026,870.3081,left,0.9954,,,,,,,,,0.5,,,,,,869.0525,869.3026,870.3081,871.4078,,,,,,,,0,58,58,110,1
,,,,,,,676c294b3882bfc79db02234,68253102053033c43a34c5d1,2025-05-15_01h33.01.071,cuing_paradigm_dot,2024.1.5,Win32,178.5714286,68242c07d0c0e200c6451fdd,,,,,,,,,,,871.408,871.908,,,872.158,872.7195,left,0.5541,,,,,,,,,0.5,,,,,,871.908,872.1579,872.7195,873.8193,,,,,,,,0,59,59,113,1
,,,,,,,676c294b3882bfc79db02234,68253102053033c43a34c5d1,2025-05-15_01h33.01.071,cuing_paradigm_dot,2024.1.5,Win32,178.5714286,68242c07d0c0e200c6451fdd,,,,,,,,,,,873.8195,874.3195,,,874.5694,875.0801,right,0.5026,,,,,,,,,0.6,,,,,,874.3195,874.5694,875.0802,876.1801,,,,,,,,0,60,60,175,1
,,,,,,,676c294b3882bfc79db02234,68253102053033c43a34c5d1,2025-05-15_01h33.01.071,cuing_paradigm_dot,2024.1.5,Win32,178.5714286,68242c07d0c0e200c6451fdd,,,,,,,,,,,876.1804,876.6799,,,876.9301,878.0579,left,1.1181,,,,,,,,,0.55,,,,,,876.6799,876.93,878.0579,879.1579,,,,,,,,0,61,61,123,1
,,,,,,,676c294b3882bfc79db02234,68253102053033c43a34c5d1,2025-05-15_01h33.01.071,cuing_paradigm_dot,2024.1.5,Win32,178.5714286,68242c07d0c0e200c6451fdd,,,,,,,,,,,879.1584,879.6582,,,879.9082,880.241,left,0.3258,,,,,,,,,0.45,,,,,,879.6582,879.9082,880.241,881.3411,,,,,,,,0,62,62,85,1
,,,,,,,676c294b3882bfc79db02234,68253102053033c43a34c5d1,2025-05-15_01h33.01.071,cuing_paradigm_dot,2024.1.5,Win32,178.5714286,68242c07d0c0e200c6451fdd,,,,,,,,,,,881.3413,881.8411,,,882.0914,882.6409,right,0.5446,,,,,,,,,0.6,,,,,,881.8411,882.0914,882.641,883.7409,,,,,,,,0,63,63,165,1
,,,,,,,676c294b3882bfc79db02234,68253102053033c43a34c5d1,2025-05-15_01h33.01.071,cuing_paradigm_dot,2024.1.5,Win32,178.5714286,68242c07d0c0e200c6451fdd,,,,,,,,,,,883.7411,884.2409,,,884.4913,885.5579,left,1.0596,,,,,,,,,0.55,,,,,,884.2409,884.4912,885.5579,886.6577,,,,,,,,0,64,64,141,1
,,,,,,,676c294b3882bfc79db02234,68253102053033c43a34c5d1,2025-05-15_01h33.01.071,cuing_paradigm_dot,2024.1.5,Win32,178.5714286,68242c07d0c0e200c6451fdd,,,,,,,,,,,886.6579,887.1579,,,887.4079,887.664,right,0.2506,,,,,,,,,0.9,,,,,,887.1579,887.4079,887.664,888.7631,,,,,,,,0,65,65,188,1
,,,,,,,676c294b3882bfc79db02234,68253102053033c43a34c5d1,2025-05-15_01h33.01.071,cuing_paradigm_dot,2024.1.5,Win32,178.5714286,68242c07d0c0e200c6451fdd,,,,,,,,,,,888.7633,889.2631,,,889.5131,889.7908,left,0.2714,,,,,,,,,0.1,,,,,,889.2632,889.5131,889.7908,890.8907,,,,,,,,0,66,66,3,1
,,,,,,,676c294b3882bfc79db02234,68253102053033c43a34c5d1,2025-05-15_01h33.01.071,cuing_paradigm_dot,2024.1.5,Win32,178.5714286,68242c07d0c0e200c6451fdd,,,,,,,,,,,890.8909,891.391,,,891.6408,892.1522,right,0.5057,,,,,,,,,0.6,,,,,,891.391,891.6408,892.1522,893.2518,,,,,,,,0,67,67,163,1
,,,,,,,676c294b3882bfc79db02234,68253102053033c43a34c5d1,2025-05-15_01h33.01.071,cuing_paradigm_dot,2024.1.5,Win32,178.5714286,68242c07d0c0e200c6451fdd,,,,,,,,,,,893.2519,893.7517,,,894.0021,894.2296,right,0.2201,,,,,,,,,0.9,,,,,,893.7517,894.0021,894.2296,895.3295,,,,,,,,0,68,68,191,1
,,,,,,,676c294b3882bfc79db02234,68253102053033c43a34c5d1,2025-05-15_01h33.01.071,cuing_paradigm_dot,2024.1.5,Win32,178.5714286,68242c07d0c0e200c6451fdd,,,,,,,,,,,895.3297,895.8295,,,896.0796,897.069,left,0.9837,,,,,,,,,0.6,,,,,,895.8296,896.0796,897.069,898.1685,,,,,,,,0,69,69,159,1
,,,,,,,676c294b3882bfc79db02234,68253102053033c43a34c5d1,2025-05-15_01h33.01.071,cuing_paradigm_dot,2024.1.5,Win32,178.5714286,68242c07d0c0e200c6451fdd,,,,,,,,,,,898.1687,898.6683,,,898.9189,899.1795,right,0.2525,,,,,,,,,0.9,,,,,,898.6683,898.9189,899.1796,900.2797,,,,,,,,0,70,70,181,1
,,,,,,,676c294b3882bfc79db02234,68253102053033c43a34c5d1,2025-05-15_01h33.01.071,cuing_paradigm_dot,2024.1.5,Win32,178.5714286,68242c07d0c0e200c6451fdd,,,,,,,,,,,900.2799,900.7796,,,901.0297,901.2349,right,0.1996,,,,,,,,,0.9,,,,,,900.7796,901.0296,901.2349,902.3349,,,,,,,,0,71,71,205,1
,,,,,,,676c294b3882bfc79db02234,68253102053033c43a34c5d1,2025-05-15_01h33.01.071,cuing_paradigm_dot,2024.1.5,Win32,178.5714286,68242c07d0c0e200c6451fdd,,,,,,,,,,,902.335,902.8348,,,903.085,903.4516,left,0.3582,,,,,,,,,0.55,,,,,,902.8349,903.085,903.4516,904.552,,,,,,,,0,72,72,125,1
,,,,,,,676c294b3882bfc79db02234,68253102053033c43a34c5d1,2025-05-15_01h33.01.071,cuing_paradigm_dot,2024.1.5,Win32,178.5714286,68242c07d0c0e200c6451fdd,,,,,,,,,,,904.5523,905.0516,,,905.302,906.5853,right,1.278,,,,,,,,,0.55,,,,,,905.0516,905.302,906.5853,907.6848,,,,,,,,0,73,73,143,1
,,,,,,,676c294b3882bfc79db02234,68253102053033c43a34c5d1,2025-05-15_01h33.01.071,cuing_paradigm_dot,2024.1.5,Win32,178.5714286,68242c07d0c0e200c6451fdd,,,,,,,,,,,907.685,908.1849,,,908.4355,908.9906,left,0.5474,,,,,,,,,0.5,,,,,,908.185,908.4352,908.9906,910.0904,,,,,,,,0,74,74,107,1
,,,,,,,676c294b3882bfc79db02234,68253102053033c43a34c5d1,2025-05-15_01h33.01.071,cuing_paradigm_dot,2024.1.5,Win32,178.5714286,68242c07d0c0e200c6451fdd,,,,,,,,,,,910.0906,910.5902,,,910.8409,911.6571,left,0.8097,,,,,,,,,0.45,,,,,,910.5903,910.8408,911.6572,912.7572,,,,,,,,0,75,75,60,1
,,,,,,,676c294b3882bfc79db02234,68253102053033c43a34c5d1,2025-05-15_01h33.01.071,cuing_paradigm_dot,2024.1.5,Win32,178.5714286,68242c07d0c0e200c6451fdd,,,,,,,,,,,912.7574,913.2568,,,913.5077,913.7848,left,0.2694,,,,,,,,,0.1,,,,,,913.2568,913.5077,913.7848,914.8846,,,,,,,,0,76,76,11,1
,,,,,,,676c294b3882bfc79db02234,68253102053033c43a34c5d1,2025-05-15_01h33.01.071,cuing_paradigm_dot,2024.1.5,Win32,178.5714286,68242c07d0c0e200c6451fdd,,,,,,,,,,,914.8847,915.3846,,,915.635,916.2124,left,0.5734,,,,,,,,,0.4,,,,,,915.3846,915.635,916.2125,917.3123,,,,,,,,0,77,77,49,1
,,,,,,,676c294b3882bfc79db02234,68253102053033c43a34c5d1,2025-05-15_01h33.01.071,cuing_paradigm_dot,2024.1.5,Win32,178.5714286,68242c07d0c0e200c6451fdd,,,,,,,,,,,917.3125,917.8124,,,918.0624,918.6846,left,0.6154,,,,,,,,,0.4,,,,,,917.8124,918.0624,918.6846,919.7845,,,,,,,,0,78,78,46,1
,,,,,,,676c294b3882bfc79db02234,68253102053033c43a34c5d1,2025-05-15_01h33.01.071,cuing_paradigm_dot,2024.1.5,Win32,178.5714286,68242c07d0c0e200c6451fdd,,,,,,,,,,,919.7847,920.2844,,,920.5351,920.7737,left,0.2309,,,,,,,,,0.1,,,,,,920.2845,920.535,920.7737,921.8733,,,,,,,,0,79,79,23,1
,,,,,,,676c294b3882bfc79db02234,68253102053033c43a34c5d1,2025-05-15_01h33.01.071,cuing_paradigm_dot,2024.1.5,Win32,178.5714286,68242c07d0c0e200c6451fdd,,,,,,,,,,,921.8733,922.3733,,,922.6236,922.9129,left,0.2838,,,,,,,,,0.1,,,,,,922.3733,922.6235,922.9129,924.0121,,,,,,,,0,80,80,6,1
,,,,,,,676c294b3882bfc79db02234,68253102053033c43a34c5d1,2025-05-15_01h33.01.071,cuing_paradigm_dot,2024.1.5,Win32,178.5714286,68242c07d0c0e200c6451fdd,,,,,,,,,,,924.0123,924.5122,,,924.7622,925.5401,left,0.7689,,,,,,,,,0.6,,,,,,924.5122,924.7622,925.5401,926.64,,,,,,,,0,81,81,152,1
,,,,,,,676c294b3882bfc79db02234,68253102053033c43a34c5d1,2025-05-15_01h33.01.071,cuing_paradigm_dot,2024.1.5,Win32,178.5714286,68242c07d0c0e200c6451fdd,,,,,,,,,,,926.6402,927.1399,,,927.3899,927.7621,left,0.3644,,,,,,,,,0.4,,,,,,927.1399,927.3899,927.7621,928.862,,,,,,,,0,82,82,51,1
,,,,,,,676c294b3882bfc79db02234,68253102053033c43a34c5d1,2025-05-15_01h33.01.071,cuing_paradigm_dot,2024.1.5,Win32,178.5714286,68242c07d0c0e200c6451fdd,,,,,,,,,,,928.8622,929.362,,,929.6126,930.1678,right,0.5491,,,,,,,,,0.6,,,,,,929.362,929.6126,930.1678,931.2676,,,,,,,,0,83,83,157,1
,,,,,,,676c294b3882bfc79db02234,68253102053033c43a34c5d1,2025-05-15_01h33.01.071,cuing_paradigm_dot,2024.1.5,Win32,178.5714286,68242c07d0c0e200c6451fdd,,,,,,,,,,,931.2678,931.7676,,,932.0177,932.3454,left,0.3189,,,,,,,,,0.4,,,,,,931.7676,932.0177,932.3454,933.4455,,,,,,,,0,84,84,56,1
,,,,,,,676c294b3882bfc79db02234,68253102053033c43a34c5d1,2025-05-15_01h33.01.071,cuing_paradigm_dot,2024.1.5,Win32,178.5714286,68242c07d0c0e200c6451fdd,,,,,,,,,,,933.4457,933.9453,,,934.1956,934.6732,right,0.4705,,,,,,,,,0.6,,,,,,933.9454,934.1956,934.6732,935.7731,,,,,,,,0,85,85,158,1
,,,,,,,676c294b3882bfc79db02234,68253102053033c43a34c5d1,2025-05-15_01h33.01.071,cuing_paradigm_dot,2024.1.5,Win32,178.5714286,68242c07d0c0e200c6451fdd,,,,,,,,,,,935.7732,936.273,,,936.5233,936.9065,left,0.376,,,,,,,,,0.5,,,,,,936.273,936.5233,936.9065,938.0063,,,,,,,,0,86,86,103,1
,,,,,,,676c294b3882bfc79db02234,68253102053033c43a34c5d1,2025-05-15_01h33.01.071,cuing_paradigm_dot,2024.1.5,Win32,178.5714286,68242c07d0c0e200c6451fdd,,,,,,,,,,,938.0064,938.5064,,,938.7566,938.9007,left,0.1342,,,,,,,,,0.1,,,,,,938.5064,938.7566,938.9007,940.001,,,,,,,,0,87,87,27,1
,,,,,,,676c294b3882bfc79db02234,68253102053033c43a34c5d1,2025-05-15_01h33.01.071,cuing_paradigm_dot,2024.1.5,Win32,178.5714286,68242c07d0c0e200c6451fdd,,,,,,,,,,,940.0012,940.5007,,,940.7512,941.3181,left,0.566,,,,,,,,,0.55,,,,,,940.5007,940.7511,941.3181,942.4174,,,,,,,,0,88,88,134,1
,,,,,,,676c294b3882bfc79db02234,68253102053033c43a34c5d1,2025-05-15_01h33.01.071,cuing_paradigm_dot,2024.1.5,Win32,178.5714286,68242c07d0c0e200c6451fdd,,,,,,,,,,,942.4176,942.9173,,,943.1676,943.9452,left,0.7688,,,,,,,,,0.6,,,,,,942.9173,943.1676,943.9452,945.045,,,,,,,,0,89,89,171,1
,,,,,,,676c294b3882bfc79db02234,68253102053033c43a34c5d1,2025-05-15_01h33.01.071,cuing_paradigm_dot,2024.1.5,Win32,178.5714286,68242c07d0c0e200c6451fdd,,,,,,,,,,,945.0451,945.5449,,,945.7953,946.0061,left,0.2012,,,,,,,,,0.1,,,,,,945.5449,945.7952,946.0061,947.106,,,,,,,,0,90,90,22,1
,,,,,,,676c294b3882bfc79db02234,68253102053033c43a34c5d1,2025-05-15_01h33.01.071,cuing_paradigm_dot,2024.1.5,Win32,178.5714286,68242c07d0c0e200c6451fdd,,,,,,,,,,,947.1062,947.606,,,947.8566,948.3235,right,0.4615,,,,,,,,,0.6,,,,,,947.606,947.8565,948.3235,949.4229,,,,,,,,0,91,91,155,1
,,,,,,,676c294b3882bfc79db02234,68253102053033c43a34c5d1,2025-05-15_01h33.01.071,cuing_paradigm_dot,2024.1.5,Win32,178.5714286,68242c07d0c0e200c6451fdd,,,,,,,,,,,949.4231,949.9226,,,950.1731,950.6562,left,0.4729,,,,,,,,,0.4,,,,,,949.9227,950.1731,950.6562,951.756,,,,,,,,0,92,92,33,1
,,,,,,,676c294b3882bfc79db02234,68253102053033c43a34c5d1,2025-05-15_01h33.01.071,cuing_paradigm_dot,2024.1.5,Win32,178.5714286,68242c07d0c0e200c6451fdd,,,,,,,,,,,951.7562,952.2559,,,952.5061,953.4171,right,0.9042,,,,,,,,,0.6,,,,,,952.256,952.5061,953.4171,954.517,,,,,,,,0,93,93,174,1
,,,,,,,676c294b3882bfc79db02234,68253102053033c43a34c5d1,2025-05-15_01h33.01.071,cuing_paradigm_dot,2024.1.5,Win32,178.5714286,68242c07d0c0e200c6451fdd,,,,,,,,,,,954.5173,955.017,,,955.267,955.8948,right,0.6184,,,,,,,,,0.55,,,,,,955.017,955.267,955.8949,956.995,,,,,,,,0,94,94,147,1
,,,,,,,676c294b3882bfc79db02234,68253102053033c43a34c5d1,2025-05-15_01h33.01.071,cuing_paradigm_dot,2024.1.5,Win32,178.5714286,68242c07d0c0e200c6451fdd,,,,,,,,,,,956.9951,957.4947,,,957.7447,958.8225,right,1.0683,,,,,,,,,0.55,,,,,,957.4948,957.7447,958.8225,959.9225,,,,,,,,0,95,95,149,1
,,,,,,,676c294b3882bfc79db02234,68253102053033c43a34c5d1,2025-05-15_01h33.01.071,cuing_paradigm_dot,2024.1.5,Win32,178.5714286,68242c07d0c0e200c6451fdd,,,,,,,,,,,959.9227,960.4223,,,960.6728,961.1503,left,0.4707,,,,,,,,,0.45,,,,,,960.4223,960.6728,961.1503,962.2501,,,,,,,,0,96,96,71,1
,,,,,,,676c294b3882bfc79db02234,68253102053033c43a34c5d1,2025-05-15_01h33.01.071,cuing_paradigm_dot,2024.1.5,Win32,178.5714286,68242c07d0c0e200c6451fdd,,,,,,,,,,,962.2503,962.7501,,,963.0008,963.328,right,0.3178,,,,,,,,,0.9,,,,,,962.7501,963.0007,963.328,964.4278,,,,,,,,0,97,97,182,1
,,,,,,,676c294b3882bfc79db02234,68253102053033c43a34c5d1,2025-05-15_01h33.01.071,cuing_paradigm_dot,2024.1.5,Win32,178.5714286,68242c07d0c0e200c6451fdd,,,,,,,,,,,964.4282,964.9283,,,965.1785,965.6009,left,0.4173,,,,,,,,,0.4,,,,,,964.9283,965.1785,965.6009,966.7,,,,,,,,0,98,98,55,1
,,,,,,,676c294b3882bfc79db02234,68253102053033c43a34c5d1,2025-05-15_01h33.01.071,cuing_paradigm_dot,2024.1.5,Win32,178.5714286,68242c07d0c0e200c6451fdd,,,,,,,,,,,966.7003,967.2001,,,967.4504,968.189,left,0.7344,,,,,,,,,0.1,,,,,,967.2001,967.4504,968.189,969.2889,,,,,,,,0,99,99,13,1
,,,,,,,676c294b3882bfc79db02234,68253102053033c43a34c5d1,2025-05-15_01h33.01.071,cuing_paradigm_dot,2024.1.5,Win32,178.5714286,68242c07d0c0e200c6451fdd,,,,,,,,,,,969.2891,969.7889,,,970.0389,970.6555,left,0.6067,,,,,,,,,0.45,,,,,,969.7889,970.0389,970.6555,971.7554,,,,,,,,0,100,100,80,1
,,,,,,,676c294b3882bfc79db02234,68253102053033c43a34c5d1,2025-05-15_01h33.01.071,cuing_paradigm_dot,2024.1.5,Win32,178.5714286,68242c07d0c0e200c6451fdd,,,,,,,,,,,971.7555,972.2555,,,972.5055,973.0889,left,0.5796,,,,,,,,,0.6,,,,,,972.2555,972.5055,973.0889,974.1891,,,,,,,,0,101,101,153,1
,,,,,,,676c294b3882bfc79db02234,68253102053033c43a34c5d1,2025-05-15_01h33.01.071,cuing_paradigm_dot,2024.1.5,Win32,178.5714286,68242c07d0c0e200c6451fdd,,,,,,,,,,,974.1893,974.6888,,,974.9391,975.3888,left,0.4482,,,,,,,,,0.55,,,,,,974.6889,974.9391,975.3888,976.4891,,,,,,,,0,102,102,130,1
,,,,,,,676c294b3882bfc79db02234,68253102053033c43a34c5d1,2025-05-15_01h33.01.071,cuing_paradigm_dot,2024.1.5,Win32,178.5714286,68242c07d0c0e200c6451fdd,,,,,,,,,,,976.4893,976.9889,,,977.2394,977.5442,right,0.2992,,,,,,,,,0.9,,,,,,976.9889,977.2393,977.5443,978.6441,,,,,,,,0,103,103,200,1
,,,,,,,676c294b3882bfc79db02234,68253102053033c43a34c5d1,2025-05-15_01h33.01.071,cuing_paradigm_dot,2024.1.5,Win32,178.5714286,68242c07d0c0e200c6451fdd,,,,,,,,,,,978.6444,979.1441,,,979.3949,979.811,left,0.4062,,,,,,,,,0.5,,,,,,979.1441,979.3948,979.811,980.9107,,,,,,,,0,104,104,90,1
,,,,,,,676c294b3882bfc79db02234,68253102053033c43a34c5d1,2025-05-15_01h33.01.071,cuing_paradigm_dot,2024.1.5,Win32,178.5714286,68242c07d0c0e200c6451fdd,,,,,,,,,,,980.911,981.411,,,981.6618,982.2221,right,0.5546,,,,,,,,,0.55,,,,,,981.411,981.6618,982.2221,983.3221,,,,,,,,0,105,105,128,1
,,,,,,,676c294b3882bfc79db02234,68253102053033c43a34c5d1,2025-05-15_01h33.01.071,cuing_paradigm_dot,2024.1.5,Win32,178.5714286,68242c07d0c0e200c6451fdd,,,,,,,,,,,983.3225,983.8219,,,984.0719,984.3613,left,0.2835,,,,,,,,,0.4,,,,,,983.8219,984.0719,984.3613,985.4607,,,,,,,,0,106,106,37,1
,,,,,,,676c294b3882bfc79db02234,68253102053033c43a34c5d1,2025-05-15_01h33.01.071,cuing_paradigm_dot,2024.1.5,Win32,178.5714286,68242c07d0c0e200c6451fdd,,,,,,,,,,,985.461,985.9608,,,986.2111,986.5059,right,0.2892,,,,,,,,,0.9,,,,,,985.9608,986.2111,986.5059,987.605,,,,,,,,0,107,107,201,1
,,,,,,,676c294b3882bfc79db02234,68253102053033c43a34c5d1,2025-05-15_01h33.01.071,cuing_paradigm_dot,2024.1.5,Win32,178.5714286,68242c07d0c0e200c6451fdd,,,,,,,,,,,987.6052,988.105,,,988.3552,988.75,left,0.3892,,,,,,,,,0.4,,,,,,988.105,988.3552,988.7501,989.8494,,,,,,,,0,108,108,39,1
,,,,,,,676c294b3882bfc79db02234,68253102053033c43a34c5d1,2025-05-15_01h33.01.071,cuing_paradigm_dot,2024.1.5,Win32,178.5714286,68242c07d0c0e200c6451fdd,,,,,,,,,,,989.8496,990.3495,,,990.6002,991.2057,left,0.6003,,,,,,,,,0.55,,,,,,990.3496,990.6002,991.2057,992.3049,,,,,,,,0,109,109,148,1
,,,,,,,676c294b3882bfc79db02234,68253102053033c43a34c5d1,2025-05-15_01h33.01.071,cuing_paradigm_dot,2024.1.5,Win32,178.5714286,68242c07d0c0e200c6451fdd,,,,,,,,,,,992.3051,992.8051,,,993.0549,993.7161,left,0.6551,,,,,,,,,0.6,,,,,,992.8051,993.0549,993.7161,994.8161,,,,,,,,0,110,110,178,1
,,,,,,,676c294b3882bfc79db02234,68253102053033c43a34c5d1,2025-05-15_01h33.01.071,cuing_paradigm_dot,2024.1.5,Win32,178.5714286,68242c07d0c0e200c6451fdd,,,,,,,,,,,994.8163,995.316,,,995.5661,995.8832,left,0.3109,,,,,,,,,0.45,,,,,,995.316,995.5661,995.8832,996.9827,,,,,,,,0,111,111,77,1
,,,,,,,676c294b3882bfc79db02234,68253102053033c43a34c5d1,2025-05-15_01h33.01.071,cuing_paradigm_dot,2024.1.5,Win32,178.5714286,68242c07d0c0e200c6451fdd,,,,,,,,,,,996.9828,997.4826,,,997.7328,997.9993,left,0.2641,,,,,,,,,0.1,,,,,,997.4826,997.7328,997.9993,999.0992,,,,,,,,0,112,112,15,1
,,,,,,,676c294b3882bfc79db02234,68253102053033c43a34c5d1,2025-05-15_01h33.01.071,cuing_paradigm_dot,2024.1.5,Win32,178.5714286,68242c07d0c0e200c6451fdd,,,,,,,,,,,999.0995,999.5994,,,999.8495,1001.077,left,1.2218,,,,,,,,,0.55,,,,,,999.5994,999.8495,1001.077,1002.1769,,,,,,,,0,113,113,131,1
,,,,,,,676c294b3882bfc79db02234,68253102053033c43a34c5d1,2025-05-15_01h33.01.071,cuing_paradigm_dot,2024.1.5,Win32,178.5714286,68242c07d0c0e200c6451fdd,,,,,,,,,,,1002.1772,1002.6769,,,1002.927,1003.1937,right,0.2616,,,,,,,,,0.9,,,,,,1002.6769,1002.927,1003.1937,1004.2935,,,,,,,,0,114,114,185,1
,,,,,,,676c294b3882bfc79db02234,68253102053033c43a34c5d1,2025-05-15_01h33.01.071,cuing_paradigm_dot,2024.1.5,Win32,178.5714286,68242c07d0c0e200c6451fdd,,,,,,,,,,,1004.2937,1004.7936,,,1005.0436,1005.4605,left,0.4155,,,,,,,,,0.4,,,,,,1004.7936,1005.0436,1005.4606,1006.5601,,,,,,,,0,115,115,35,1
,,,,,,,676c294b3882bfc79db02234,68253102053033c43a34c5d1,2025-05-15_01h33.01.071,cuing_paradigm_dot,2024.1.5,Win32,178.5714286,68242c07d0c0e200c6451fdd,,,,,,,,,,,1006.5604,1007.0601,,,1007.3103,1007.6603,left,0.3446,,,,,,,,,0.45,,,,,,1007.0601,1007.3103,1007.6603,1008.7601,,,,,,,,0,116,116,81,1
,,,,,,,676c294b3882bfc79db02234,68253102053033c43a34c5d1,2025-05-15_01h33.01.071,cuing_paradigm_dot,2024.1.5,Win32,178.5714286,68242c07d0c0e200c6451fdd,,,,,,,,,,,1008.7602,1009.2601,,,1009.5102,1009.8434,left,0.3282,,,,,,,,,0.4,,,,,,1009.2601,1009.5102,1009.8434,1010.9434,,,,,,,,0,117,117,48,1
,,,,,,,676c294b3882bfc79db02234,68253102053033c43a34c5d1,2025-05-15_01h33.01.071,cuing_paradigm_dot,2024.1.5,Win32,178.5714286,68242c07d0c0e200c6451fdd,,,,,,,,,,,1010.9435,1011.4435,,,1011.6937,1011.9102,left,0.2148,,,,,,,,,0.1,,,,,,1011.4435,1011.6937,1011.9103,1013.0101,,,,,,,,0,118,118,0,1
,,,,,,,676c294b3882bfc79db02234,68253102053033c43a34c5d1,2025-05-15_01h33.01.071,cuing_paradigm_dot,2024.1.5,Win32,178.5714286,68242c07d0c0e200c6451fdd,,,,,,,,,,,1013.0103,1013.5101,,,1013.7602,1014.1822,left,0.4183,,,,,,,,,0.5,,,,,,1013.5101,1013.7602,1014.1823,1015.2821,,,,,,,,0,119,119,99,1
,,,,,,,676c294b3882bfc79db02234,68253102053033c43a34c5d1,2025-05-15_01h33.01.071,cuing_paradigm_dot,2024.1.5,Win32,178.5714286,68242c07d0c0e200c6451fdd,,,,,,,,,,,1015.2823,1015.7822,,,1016.0322,1016.66,left,0.6225,,,,,,,,,0.4,,,,,,1015.7822,1016.0322,1016.66,1017.76,,,,,,,,0,120,120,30,1
,,,,,,,676c294b3882bfc79db02234,68253102053033c43a34c5d1,2025-05-15_01h33.01.071,cuing_paradigm_dot,2024.1.5,Win32,178.5714286,68242c07d0c0e200c6451fdd,,,,,,,,,,,1017.7602,1018.2599,,,1018.51,1018.9766,left,0.463,,,,,,,,,0.5,,,,,,1018.2599,1018.51,1018.9767,1020.0766,,,,,,,,0,121,121,100,1
,,,,,,,676c294b3882bfc79db02234,68253102053033c43a34c5d1,2025-05-15_01h33.01.071,cuing_paradigm_dot,2024.1.5,Win32,178.5714286,68242c07d0c0e200c6451fdd,,,,,,,,,,,1020.0767,1020.5766,,,1020.8266,1020.9987,right,0.1675,,,,,,,,,0.9,,,,,,1020.5766,1020.8266,1020.9987,1022.0991,,,,,,,,0,122,122,183,1
,,,,,,,676c294b3882bfc79db02234,68253102053033c43a34c5d1,2025-05-15_01h33.01.071,cuing_paradigm_dot,2024.1.5,Win32,178.5714286,68242c07d0c0e200c6451fdd,,,,,,,,,,,1022.0992,1022.5989,,,1022.8491,1023.1046,right,0.2502,,,,,,,,,0.9,,,,,,1022.599,1022.8491,1023.1047,1024.2043,,,,,,,,0,123,123,187,1
,,,,,,,676c294b3882bfc79db02234,68253102053033c43a34c5d1,2025-05-15_01h33.01.071,cuing_paradigm_dot,2024.1.5,Win32,178.5714286,68242c07d0c0e200c6451fdd,,,,,,,,,,,1024.2045,1024.7044,,,1024.9546,1025.4154,right,0.4528,,,,,,,,,0.6,,,,,,1024.7044,1024.9546,1025.4154,1026.5154,,,,,,,,0,124,124,176,1
,,,,,,,676c294b3882bfc79db02234,68253102053033c43a34c5d1,2025-05-15_01h33.01.071,cuing_paradigm_dot,2024.1.5,Win32,178.5714286,68242c07d0c0e200c6451fdd,,,,,,,,,,,1026.5155,1027.0153,,,1027.2658,1027.4932,left,0.2192,,,,,,,,,0.4,,,,,,1027.0153,1027.2657,1027.4933,1028.5929,,,,,,,,0,125,125,44,1
,,,,,,,676c294b3882bfc79db02234,68253102053033c43a34c5d1,2025-05-15_01h33.01.071,cuing_paradigm_dot,2024.1.5,Win32,178.5714286,68242c07d0c0e200c6451fdd,,,,,,,,,,,1028.5932,1029.0934,,,1029.3433,1029.6216,left,0.2721,,,,,,,,,0.5,,,,,,1029.0934,1029.3433,1029.6217,1030.721,,,,,,,,0,126,126,114,1
,,,,,,,676c294b3882bfc79db02234,68253102053033c43a34c5d1,2025-05-15_01h33.01.071,cuing_paradigm_dot,2024.1.5,Win32,178.5714286,68242c07d0c0e200c6451fdd,,,,,,,,,,,1030.7212,1031.2207,,,1031.4712,1032.1818,right,0.7072,,,,,,,,,0.45,,,,,,1031.2207,1031.4712,1032.1818,1033.2818,,,,,,,,0,127,127,62,1
,,,,,,,676c294b3882bfc79db02234,68253102053033c43a34c5d1,2025-05-15_01h33.01.071,cuing_paradigm_dot,2024.1.5,Win32,178.5714286,68242c07d0c0e200c6451fdd,,,,,,,,,,,1033.2821,1033.782,,,1034.0318,1034.4041,left,0.3662,,,,,,,,,0.45,,,,,,1033.782,1034.0318,1034.4041,1035.5039,,,,,,,,0,128,128,67,1
