right,left,explain.started,explain.stopped,key_resp_3.keys,key_resp_3.rt,key_resp_3.duration,participant,session,date,expName,psychopyVersion,OS,frameRate,study_id,explain_2.started,explain_2.stopped,key_resp_4.keys,key_resp_4.rt,key_resp_4.duration,explain_3.started,explain_3.stopped,key_resp_5.keys,key_resp_5.rt,key_resp_5.duration,fixation.started,fixation.stopped,practice.started,practice.stopped,response.started,response.stopped,key_resp.keys,key_resp.rt,key_resp.duration,feedback.started,feedback.stopped,trials_2.thisRepN,trials_2.thisTrialN,trials_2.thisN,trials_2.thisIndex,trials_2.ran,white_ratio,explain_4.started,explain_4.stopped,key_resp_6.keys,key_resp_6.rt,key_resp_6.duration,dotDisplay.started,dotDisplay.stopped,ITI.started,ITI.stopped,trials.thisRepN,trials.thisTrialN,trials.thisN,trials.thisIndex,trials.ran,break_2.started,break_2.stopped,trials_3.thisRepN,trials_3.thisTrialN,trials_3.thisN,trials_3.thisIndex,trials_3.ran
subject chose white,subject chose black,0.0001,41.8114,space,26.8067,,607cbf385d3202721e3f719f,68253199341217ed60ade6d0,2025-05-14_19h13.53.893,cuing_paradigm_dot,2024.1.5,MacIntel,30.12048193,68242c07d0c0e200c6451fdd,,,,,,,,,,,,,,,,,,,,,,,,,,,,,,,,,,,,,,,,,,,,,,,,
,,,,,,,607cbf385d3202721e3f719f,68253199341217ed60ade6d0,2025-05-14_19h13.53.893,cuing_paradigm_dot,2024.1.5,MacIntel,30.12048193,68242c07d0c0e200c6451fdd,41.8118,75.8534,space,4.0358,,,,,,,,,,,,,,,,,,,,,,,,,,,,,,,,,,,,,,,,,,,,
,,,,,,,607cbf385d3202721e3f719f,68253199341217ed60ade6d0,2025-05-14_19h13.53.893,cuing_paradigm_dot,2024.1.5,MacIntel,30.12048193,68242c07d0c0e200c6451fdd,,,,,,75.8536,81.2538,space,2.3836,,,,,,,,,,,,,,,,,,,,,,,,,,,,,,,,,,,,,,,
,,,,,,,607cbf385d3202721e3f719f,68253199341217ed60ade6d0,2025-05-14_19h13.53.893,cuing_paradigm_dot,2024.1.5,MacIntel,30.12048193,68242c07d0c0e200c6451fdd,,,,,,,,,,,81.2722,81.7698,81.77,82.0369,82.037,82.7206,left,0.6408,,82.7207,83.8194,0,0,0,1,1,0.2,,,,,,,,,,,,,,,,,,,,,
,,,,,,,607cbf385d3202721e3f719f,68253199341217ed60ade6d0,2025-05-14_19h13.53.893,cuing_paradigm_dot,2024.1.5,MacIntel,30.12048193,68242c07d0c0e200c6451fdd,,,,,,,,,,,83.8198,84.3308,84.3308,84.5609,84.5609,85.004,right,0.401,,85.0041,86.1197,0,1,1,0,1,0.8,,,,,,,,,,,,,,,,,,,,,
,,,,,,,607cbf385d3202721e3f719f,68253199341217ed60ade6d0,2025-05-14_19h13.53.893,cuing_paradigm_dot,2024.1.5,MacIntel,30.12048193,68242c07d0c0e200c6451fdd,,,,,,,,,,,,,,,,,,,,,,,,,,,,86.12,90.9938,space,1.856,,,,,,,,,,,,,,,,,
,,,,,,,607cbf385d3202721e3f719f,68253199341217ed60ade6d0,2025-05-14_19h13.53.893,cuing_paradigm_dot,2024.1.5,MacIntel,30.12048193,68242c07d0c0e200c6451fdd,,,,,,,,,,,91.0059,91.5201,,,91.7485,92.1276,left,0.35,,,,,,,,,0.45,,,,,,91.5203,91.7484,92.1278,93.209,0,0,0,64,1,,,,,,,
,,,,,,,607cbf385d3202721e3f719f,68253199341217ed60ade6d0,2025-05-14_19h13.53.893,cuing_paradigm_dot,2024.1.5,MacIntel,30.12048193,68242c07d0c0e200c6451fdd,,,,,,,,,,,93.2093,93.6974,,,93.953,94.2868,left,0.3051,,,,,,,,,0.45,,,,,,93.6974,93.9529,94.2868,95.3971,0,1,1,69,1,,,,,,,
,,,,,,,607cbf385d3202721e3f719f,68253199341217ed60ade6d0,2025-05-14_19h13.53.893,cuing_paradigm_dot,2024.1.5,MacIntel,30.12048193,68242c07d0c0e200c6451fdd,,,,,,,,,,,95.3974,95.8969,,,96.1366,96.6206,left,0.4556,,,,,,,,,0.1,,,,,,95.897,96.1365,96.6207,97.7311,0,2,2,13,1,,,,,,,
,,,,,,,607cbf385d3202721e3f719f,68253199341217ed60ade6d0,2025-05-14_19h13.53.893,cuing_paradigm_dot,2024.1.5,MacIntel,30.12048193,68242c07d0c0e200c6451fdd,,,,,,,,,,,97.7314,98.2304,,,98.4862,98.9315,left,0.4167,,,,,,,,,0.4,,,,,,98.2304,98.4862,98.9316,100.014,0,3,3,30,1,,,,,,,
,,,,,,,607cbf385d3202721e3f719f,68253199341217ed60ade6d0,2025-05-14_19h13.53.893,cuing_paradigm_dot,2024.1.5,MacIntel,30.12048193,68242c07d0c0e200c6451fdd,,,,,,,,,,,100.0144,100.5141,,,100.77,101.1103,left,0.3117,,,,,,,,,0.1,,,,,,100.5142,100.77,101.1104,102.192,0,4,4,0,1,,,,,,,
,,,,,,,607cbf385d3202721e3f719f,68253199341217ed60ade6d0,2025-05-14_19h13.53.893,cuing_paradigm_dot,2024.1.5,MacIntel,30.12048193,68242c07d0c0e200c6451fdd,,,,,,,,,,,102.1923,102.6807,,,102.9365,103.437,left,0.4726,,,,,,,,,0.4,,,,,,102.6807,102.9365,103.437,104.5362,0,5,5,48,1,,,,,,,
,,,,,,,607cbf385d3202721e3f719f,68253199341217ed60ade6d0,2025-05-14_19h13.53.893,cuing_paradigm_dot,2024.1.5,MacIntel,30.12048193,68242c07d0c0e200c6451fdd,,,,,,,,,,,104.5365,105.0475,,,105.2778,105.7602,right,0.4709,,,,,,,,,0.5,,,,,,105.0476,105.2777,105.7603,106.8422,0,6,6,118,1,,,,,,,
,,,,,,,607cbf385d3202721e3f719f,68253199341217ed60ade6d0,2025-05-14_19h13.53.893,cuing_paradigm_dot,2024.1.5,MacIntel,30.12048193,68242c07d0c0e200c6451fdd,,,,,,,,,,,106.8424,107.3305,,,107.5867,107.9703,right,0.3559,,,,,,,,,0.9,,,,,,107.3306,107.5866,107.9703,109.0805,0,7,7,188,1,,,,,,,
,,,,,,,607cbf385d3202721e3f719f,68253199341217ed60ade6d0,2025-05-14_19h13.53.893,cuing_paradigm_dot,2024.1.5,MacIntel,30.12048193,68242c07d0c0e200c6451fdd,,,,,,,,,,,109.0808,109.5806,,,109.8365,110.4202,left,0.5559,,,,,,,,,0.45,,,,,,109.5806,109.8365,110.4203,111.5063,0,8,8,88,1,,,,,,,
,,,,,,,607cbf385d3202721e3f719f,68253199341217ed60ade6d0,2025-05-14_19h13.53.893,cuing_paradigm_dot,2024.1.5,MacIntel,30.12048193,68242c07d0c0e200c6451fdd,,,,,,,,,,,111.5066,111.9932,,,112.227,112.7154,left,0.4463,,,,,,,,,0.4,,,,,,111.9932,112.227,112.7154,113.7972,0,9,9,54,1,,,,,,,
,,,,,,,607cbf385d3202721e3f719f,68253199341217ed60ade6d0,2025-05-14_19h13.53.893,cuing_paradigm_dot,2024.1.5,MacIntel,30.12048193,68242c07d0c0e200c6451fdd,,,,,,,,,,,113.7975,114.297,,,114.5531,115.0366,right,0.455,,,,,,,,,0.6,,,,,,114.297,114.5531,115.0367,116.147,0,10,10,160,1,,,,,,,
,,,,,,,607cbf385d3202721e3f719f,68253199341217ed60ade6d0,2025-05-14_19h13.53.893,cuing_paradigm_dot,2024.1.5,MacIntel,30.12048193,68242c07d0c0e200c6451fdd,,,,,,,,,,,116.1472,116.6471,,,116.903,117.264,right,0.3333,,,,,,,,,0.6,,,,,,116.6472,116.9029,117.264,118.347,0,11,11,159,1,,,,,,,
,,,,,,,607cbf385d3202721e3f719f,68253199341217ed60ade6d0,2025-05-14_19h13.53.893,cuing_paradigm_dot,2024.1.5,MacIntel,30.12048193,68242c07d0c0e200c6451fdd,,,,,,,,,,,118.3473,118.8474,,,119.1029,119.5196,right,0.3887,,,,,,,,,0.55,,,,,,118.8474,119.1029,119.5196,120.6305,0,12,12,124,1,,,,,,,
,,,,,,,607cbf385d3202721e3f719f,68253199341217ed60ade6d0,2025-05-14_19h13.53.893,cuing_paradigm_dot,2024.1.5,MacIntel,30.12048193,68242c07d0c0e200c6451fdd,,,,,,,,,,,120.6308,121.1136,,,121.3526,121.798,left,0.4176,,,,,,,,,0.4,,,,,,121.1136,121.3526,121.798,122.8804,0,13,13,42,1,,,,,,,
,,,,,,,607cbf385d3202721e3f719f,68253199341217ed60ade6d0,2025-05-14_19h13.53.893,cuing_paradigm_dot,2024.1.5,MacIntel,30.12048193,68242c07d0c0e200c6451fdd,,,,,,,,,,,122.8807,123.3806,,,123.6108,123.9145,left,0.2921,,,,,,,,,0.1,,,,,,123.3806,123.6107,123.9146,125.0066,0,14,14,16,1,,,,,,,
,,,,,,,607cbf385d3202721e3f719f,68253199341217ed60ade6d0,2025-05-14_19h13.53.893,cuing_paradigm_dot,2024.1.5,MacIntel,30.12048193,68242c07d0c0e200c6451fdd,,,,,,,,,,,125.0068,125.492,,,125.7301,126.1473,left,0.4062,,,,,,,,,0.4,,,,,,125.4921,125.7301,126.1474,127.2305,0,15,15,52,1,,,,,,,
,,,,,,,607cbf385d3202721e3f719f,68253199341217ed60ade6d0,2025-05-14_19h13.53.893,cuing_paradigm_dot,2024.1.5,MacIntel,30.12048193,68242c07d0c0e200c6451fdd,,,,,,,,,,,127.2307,127.7472,,,128.0034,128.3357,left,0.3046,,,,,,,,,0.45,,,,,,127.7473,128.0034,128.3357,129.4473,0,16,16,62,1,,,,,,,
,,,,,,,607cbf385d3202721e3f719f,68253199341217ed60ade6d0,2025-05-14_19h13.53.893,cuing_paradigm_dot,2024.1.5,MacIntel,30.12048193,68242c07d0c0e200c6451fdd,,,,,,,,,,,129.4476,129.9471,,,130.1859,130.5468,right,0.3328,,,,,,,,,0.5,,,,,,129.9471,130.1859,130.5468,131.6302,0,17,17,100,1,,,,,,,
,,,,,,,607cbf385d3202721e3f719f,68253199341217ed60ade6d0,2025-05-14_19h13.53.893,cuing_paradigm_dot,2024.1.5,MacIntel,30.12048193,68242c07d0c0e200c6451fdd,,,,,,,,,,,131.6305,132.1299,,,132.3858,132.7192,right,0.3049,,,,,,,,,0.55,,,,,,132.1299,132.3858,132.7193,133.8307,0,18,18,142,1,,,,,,,
,,,,,,,607cbf385d3202721e3f719f,68253199341217ed60ade6d0,2025-05-14_19h13.53.893,cuing_paradigm_dot,2024.1.5,MacIntel,30.12048193,68242c07d0c0e200c6451fdd,,,,,,,,,,,133.831,134.3301,,,134.5861,135.0304,right,0.4167,,,,,,,,,0.6,,,,,,134.3302,134.586,135.0304,136.1136,0,19,19,168,1,,,,,,,
,,,,,,,607cbf385d3202721e3f719f,68253199341217ed60ade6d0,2025-05-14_19h13.53.893,cuing_paradigm_dot,2024.1.5,MacIntel,30.12048193,68242c07d0c0e200c6451fdd,,,,,,,,,,,136.1139,136.5967,,,136.8359,137.2198,right,0.3554,,,,,,,,,0.55,,,,,,136.5968,136.8359,137.2198,138.3303,0,20,20,136,1,,,,,,,
,,,,,,,607cbf385d3202721e3f719f,68253199341217ed60ade6d0,2025-05-14_19h13.53.893,cuing_paradigm_dot,2024.1.5,MacIntel,30.12048193,68242c07d0c0e200c6451fdd,,,,,,,,,,,138.3305,138.83,,,139.0857,139.5136,right,0.3995,,,,,,,,,0.6,,,,,,138.83,139.0857,139.5137,140.5972,0,21,21,171,1,,,,,,,
,,,,,,,607cbf385d3202721e3f719f,68253199341217ed60ade6d0,2025-05-14_19h13.53.893,cuing_paradigm_dot,2024.1.5,MacIntel,30.12048193,68242c07d0c0e200c6451fdd,,,,,,,,,,,140.5976,141.0969,,,141.3528,141.853,left,0.4724,,,,,,,,,0.5,,,,,,141.0969,141.3527,141.853,142.9637,0,22,22,113,1,,,,,,,
,,,,,,,607cbf385d3202721e3f719f,68253199341217ed60ade6d0,2025-05-14_19h13.53.893,cuing_paradigm_dot,2024.1.5,MacIntel,30.12048193,68242c07d0c0e200c6451fdd,,,,,,,,,,,142.964,143.463,,,143.7192,144.2859,left,0.5382,,,,,,,,,0.55,,,,,,143.463,143.7191,144.286,145.3966,0,23,23,123,1,,,,,,,
,,,,,,,607cbf385d3202721e3f719f,68253199341217ed60ade6d0,2025-05-14_19h13.53.893,cuing_paradigm_dot,2024.1.5,MacIntel,30.12048193,68242c07d0c0e200c6451fdd,,,,,,,,,,,145.3969,145.897,,,146.1523,146.569,left,0.3891,,,,,,,,,0.4,,,,,,145.897,146.1523,146.5691,147.6803,0,24,24,39,1,,,,,,,
,,,,,,,607cbf385d3202721e3f719f,68253199341217ed60ade6d0,2025-05-14_19h13.53.893,cuing_paradigm_dot,2024.1.5,MacIntel,30.12048193,68242c07d0c0e200c6451fdd,,,,,,,,,,,147.6804,148.1802,,,148.4359,148.7139,right,0.2501,,,,,,,,,0.9,,,,,,148.1802,148.4359,148.714,149.7966,0,25,25,198,1,,,,,,,
,,,,,,,607cbf385d3202721e3f719f,68253199341217ed60ade6d0,2025-05-14_19h13.53.893,cuing_paradigm_dot,2024.1.5,MacIntel,30.12048193,68242c07d0c0e200c6451fdd,,,,,,,,,,,149.7969,150.2968,,,150.5519,150.8861,left,0.307,,,,,,,,,0.45,,,,,,150.2968,150.5518,150.8861,151.9967,0,26,26,76,1,,,,,,,
,,,,,,,607cbf385d3202721e3f719f,68253199341217ed60ade6d0,2025-05-14_19h13.53.893,cuing_paradigm_dot,2024.1.5,MacIntel,30.12048193,68242c07d0c0e200c6451fdd,,,,,,,,,,,151.9969,152.4964,,,152.7356,153.1526,left,0.3891,,,,,,,,,0.45,,,,,,152.4964,152.7356,153.1526,154.2635,0,27,27,78,1,,,,,,,
,,,,,,,607cbf385d3202721e3f719f,68253199341217ed60ade6d0,2025-05-14_19h13.53.893,cuing_paradigm_dot,2024.1.5,MacIntel,30.12048193,68242c07d0c0e200c6451fdd,,,,,,,,,,,154.2638,154.7633,,,154.9937,155.3264,right,0.3212,,,,,,,,,0.6,,,,,,154.7633,154.9936,155.3264,156.4082,0,28,28,162,1,,,,,,,
,,,,,,,607cbf385d3202721e3f719f,68253199341217ed60ade6d0,2025-05-14_19h13.53.893,cuing_paradigm_dot,2024.1.5,MacIntel,30.12048193,68242c07d0c0e200c6451fdd,,,,,,,,,,,156.4085,156.8966,,,157.1524,157.4433,right,0.2633,,,,,,,,,0.6,,,,,,156.8966,157.1524,157.4433,158.5248,0,29,29,152,1,,,,,,,
,,,,,,,607cbf385d3202721e3f719f,68253199341217ed60ade6d0,2025-05-14_19h13.53.893,cuing_paradigm_dot,2024.1.5,MacIntel,30.12048193,68242c07d0c0e200c6451fdd,,,,,,,,,,,158.525,159.0128,,,159.2689,159.7437,right,0.4468,,,,,,,,,0.5,,,,,,159.0129,159.2689,159.7437,160.8247,0,30,30,102,1,,,,,,,
,,,,,,,607cbf385d3202721e3f719f,68253199341217ed60ade6d0,2025-05-14_19h13.53.893,cuing_paradigm_dot,2024.1.5,MacIntel,30.12048193,68242c07d0c0e200c6451fdd,,,,,,,,,,,160.825,161.3131,,,161.5521,161.8302,left,0.2502,,,,,,,,,0.1,,,,,,161.3131,161.5521,161.8302,162.9058,0,31,31,18,1,,,,,,,
,,,,,,,607cbf385d3202721e3f719f,68253199341217ed60ade6d0,2025-05-14_19h13.53.893,cuing_paradigm_dot,2024.1.5,MacIntel,30.12048193,68242c07d0c0e200c6451fdd,,,,,,,,,,,162.906,163.3909,,,163.6436,164.077,right,0.4203,,,,,,,,,0.9,,,,,,163.3909,163.6435,164.077,165.1581,0,32,32,183,1,,,,,,,
,,,,,,,607cbf385d3202721e3f719f,68253199341217ed60ade6d0,2025-05-14_19h13.53.893,cuing_paradigm_dot,2024.1.5,MacIntel,30.12048193,68242c07d0c0e200c6451fdd,,,,,,,,,,,165.1583,165.6464,,,165.886,166.1761,left,0.2624,,,,,,,,,0.5,,,,,,165.6464,165.886,166.1761,167.2581,0,33,33,107,1,,,,,,,
,,,,,,,607cbf385d3202721e3f719f,68253199341217ed60ade6d0,2025-05-14_19h13.53.893,cuing_paradigm_dot,2024.1.5,MacIntel,30.12048193,68242c07d0c0e200c6451fdd,,,,,,,,,,,167.2587,167.7464,,,168.0026,168.2522,left,0.2218,,,,,,,,,0.1,,,,,,167.7464,168.0025,168.2522,169.363,0,34,34,27,1,,,,,,,
,,,,,,,607cbf385d3202721e3f719f,68253199341217ed60ade6d0,2025-05-14_19h13.53.893,cuing_paradigm_dot,2024.1.5,MacIntel,30.12048193,68242c07d0c0e200c6451fdd,,,,,,,,,,,169.3632,169.8629,,,170.1135,170.5026,left,0.3765,,,,,,,,,0.4,,,,,,169.8629,170.1134,170.5027,171.6185,0,35,35,36,1,,,,,,,
,,,,,,,607cbf385d3202721e3f719f,68253199341217ed60ade6d0,2025-05-14_19h13.53.893,cuing_paradigm_dot,2024.1.5,MacIntel,30.12048193,68242c07d0c0e200c6451fdd,,,,,,,,,,,171.6187,172.1177,,,172.347,172.652,left,0.2924,,,,,,,,,0.5,,,,,,172.1177,172.347,172.652,173.7631,0,36,36,101,1,,,,,,,
,,,,,,,607cbf385d3202721e3f719f,68253199341217ed60ade6d0,2025-05-14_19h13.53.893,cuing_paradigm_dot,2024.1.5,MacIntel,30.12048193,68242c07d0c0e200c6451fdd,,,,,,,,,,,173.7634,174.2632,,,174.5186,174.7693,right,0.2229,,,,,,,,,0.9,,,,,,174.2633,174.5186,174.7693,175.8471,0,37,37,190,1,,,,,,,
,,,,,,,607cbf385d3202721e3f719f,68253199341217ed60ade6d0,2025-05-14_19h13.53.893,cuing_paradigm_dot,2024.1.5,MacIntel,30.12048193,68242c07d0c0e200c6451fdd,,,,,,,,,,,175.8474,176.3463,,,176.5854,176.9464,left,0.3329,,,,,,,,,0.45,,,,,,176.3463,176.5854,176.9464,178.0297,0,38,38,75,1,,,,,,,
,,,,,,,607cbf385d3202721e3f719f,68253199341217ed60ade6d0,2025-05-14_19h13.53.893,cuing_paradigm_dot,2024.1.5,MacIntel,30.12048193,68242c07d0c0e200c6451fdd,,,,,,,,,,,178.0299,178.5294,,,178.7686,179.1418,right,0.3451,,,,,,,,,0.6,,,,,,178.5295,178.7685,179.1419,180.2244,0,39,39,176,1,,,,,,,
,,,,,,,607cbf385d3202721e3f719f,68253199341217ed60ade6d0,2025-05-14_19h13.53.893,cuing_paradigm_dot,2024.1.5,MacIntel,30.12048193,68242c07d0c0e200c6451fdd,,,,,,,,,,,180.2246,180.713,,,180.9686,181.2466,left,0.2499,,,,,,,,,0.1,,,,,,180.713,180.9685,181.2466,182.3294,0,40,40,28,1,,,,,,,
,,,,,,,607cbf385d3202721e3f719f,68253199341217ed60ade6d0,2025-05-14_19h13.53.893,cuing_paradigm_dot,2024.1.5,MacIntel,30.12048193,68242c07d0c0e200c6451fdd,,,,,,,,,,,182.3298,182.8294,,,183.0689,183.3469,left,0.2496,,,,,,,,,0.1,,,,,,182.8294,183.0689,183.347,184.4296,0,41,41,8,1,,,,,,,
,,,,,,,607cbf385d3202721e3f719f,68253199341217ed60ade6d0,2025-05-14_19h13.53.893,cuing_paradigm_dot,2024.1.5,MacIntel,30.12048193,68242c07d0c0e200c6451fdd,,,,,,,,,,,184.4299,184.9297,,,185.1854,185.5021,left,0.2891,,,,,,,,,0.45,,,,,,184.9297,185.1853,185.5022,186.5962,0,42,42,84,1,,,,,,,
,,,,,,,607cbf385d3202721e3f719f,68253199341217ed60ade6d0,2025-05-14_19h13.53.893,cuing_paradigm_dot,2024.1.5,MacIntel,30.12048193,68242c07d0c0e200c6451fdd,,,,,,,,,,,186.5965,187.0961,,,187.3518,187.8262,left,0.4464,,,,,,,,,0.5,,,,,,187.0961,187.3517,187.8262,188.9188,0,43,43,109,1,,,,,,,
,,,,,,,607cbf385d3202721e3f719f,68253199341217ed60ade6d0,2025-05-14_19h13.53.893,cuing_paradigm_dot,2024.1.5,MacIntel,30.12048193,68242c07d0c0e200c6451fdd,,,,,,,,,,,188.919,189.4184,,,189.6852,189.963,left,0.2501,,,,,,,,,0.45,,,,,,189.4184,189.6852,189.9631,191.0462,0,44,44,72,1,,,,,,,
,,,,,,,607cbf385d3202721e3f719f,68253199341217ed60ade6d0,2025-05-14_19h13.53.893,cuing_paradigm_dot,2024.1.5,MacIntel,30.12048193,68242c07d0c0e200c6451fdd,,,,,,,,,,,191.0465,191.5456,,,191.8015,192.051,right,0.2218,,,,,,,,,0.55,,,,,,191.5457,191.8015,192.051,193.1628,0,45,45,128,1,,,,,,,
,,,,,,,607cbf385d3202721e3f719f,68253199341217ed60ade6d0,2025-05-14_19h13.53.893,cuing_paradigm_dot,2024.1.5,MacIntel,30.12048193,68242c07d0c0e200c6451fdd,,,,,,,,,,,193.163,193.6628,,,193.9185,194.1974,right,0.251,,,,,,,,,0.6,,,,,,193.6628,193.9185,194.1974,195.2794,0,46,46,154,1,,,,,,,
,,,,,,,607cbf385d3202721e3f719f,68253199341217ed60ade6d0,2025-05-14_19h13.53.893,cuing_paradigm_dot,2024.1.5,MacIntel,30.12048193,68242c07d0c0e200c6451fdd,,,,,,,,,,,195.2796,195.7791,,,196.0083,196.2593,left,0.2079,,,,,,,,,0.45,,,,,,195.7792,196.0083,196.2593,197.3415,0,47,47,61,1,,,,,,,
,,,,,,,607cbf385d3202721e3f719f,68253199341217ed60ade6d0,2025-05-14_19h13.53.893,cuing_paradigm_dot,2024.1.5,MacIntel,30.12048193,68242c07d0c0e200c6451fdd,,,,,,,,,,,197.3417,197.8291,,,198.0844,198.363,left,0.2504,,,,,,,,,0.1,,,,,,197.8292,198.0844,198.3631,199.4459,0,48,48,17,1,,,,,,,
,,,,,,,607cbf385d3202721e3f719f,68253199341217ed60ade6d0,2025-05-14_19h13.53.893,cuing_paradigm_dot,2024.1.5,MacIntel,30.12048193,68242c07d0c0e200c6451fdd,,,,,,,,,,,199.4463,199.9458,,,200.2014,200.4803,right,0.251,,,,,,,,,0.55,,,,,,199.9459,200.2013,200.4804,201.5683,0,49,49,125,1,,,,,,,
,,,,,,,607cbf385d3202721e3f719f,68253199341217ed60ade6d0,2025-05-14_19h13.53.893,cuing_paradigm_dot,2024.1.5,MacIntel,30.12048193,68242c07d0c0e200c6451fdd,,,,,,,,,,,201.5686,202.0678,,,202.3186,202.6084,right,0.2619,,,,,,,,,0.9,,,,,,202.0678,202.3186,202.6084,203.6912,0,50,50,186,1,,,,,,,
,,,,,,,607cbf385d3202721e3f719f,68253199341217ed60ade6d0,2025-05-14_19h13.53.893,cuing_paradigm_dot,2024.1.5,MacIntel,30.12048193,68242c07d0c0e200c6451fdd,,,,,,,,,,,203.6914,204.1795,,,204.4355,204.7688,left,0.3055,,,,,,,,,0.5,,,,,,204.1795,204.4355,204.7688,205.8792,0,51,51,97,1,,,,,,,
,,,,,,,607cbf385d3202721e3f719f,68253199341217ed60ade6d0,2025-05-14_19h13.53.893,cuing_paradigm_dot,2024.1.5,MacIntel,30.12048193,68242c07d0c0e200c6451fdd,,,,,,,,,,,205.8795,206.3793,,,206.6347,206.8427,left,0.1802,,,,,,,,,0.5,,,,,,206.3793,206.6346,206.8428,207.9349,0,52,52,108,1,,,,,,,
,,,,,,,607cbf385d3202721e3f719f,68253199341217ed60ade6d0,2025-05-14_19h13.53.893,cuing_paradigm_dot,2024.1.5,MacIntel,30.12048193,68242c07d0c0e200c6451fdd,,,,,,,,,,,207.9352,208.4349,,,208.6631,209.0913,left,0.4152,,,,,,,,,0.45,,,,,,208.4349,208.6631,209.0913,210.1742,0,53,53,83,1,,,,,,,
,,,,,,,607cbf385d3202721e3f719f,68253199341217ed60ade6d0,2025-05-14_19h13.53.893,cuing_paradigm_dot,2024.1.5,MacIntel,30.12048193,68242c07d0c0e200c6451fdd,,,,,,,,,,,210.1745,210.6617,,,210.9183,211.0848,right,0.1386,,,,,,,,,0.9,,,,,,210.6617,210.9183,211.0849,212.1959,0,54,54,194,1,,,,,,,
,,,,,,,607cbf385d3202721e3f719f,68253199341217ed60ade6d0,2025-05-14_19h13.53.893,cuing_paradigm_dot,2024.1.5,MacIntel,30.12048193,68242c07d0c0e200c6451fdd,,,,,,,,,,,212.1961,212.6956,,,212.9518,213.2012,left,0.2221,,,,,,,,,0.1,,,,,,212.6956,212.9517,213.2012,214.3122,0,55,55,24,1,,,,,,,
,,,,,,,607cbf385d3202721e3f719f,68253199341217ed60ade6d0,2025-05-14_19h13.53.893,cuing_paradigm_dot,2024.1.5,MacIntel,30.12048193,68242c07d0c0e200c6451fdd,,,,,,,,,,,214.3124,214.812,,,215.0514,215.4132,left,0.3338,,,,,,,,,0.1,,,,,,214.812,215.0514,215.4133,216.4958,0,56,56,10,1,,,,,,,
,,,,,,,607cbf385d3202721e3f719f,68253199341217ed60ade6d0,2025-05-14_19h13.53.893,cuing_paradigm_dot,2024.1.5,MacIntel,30.12048193,68242c07d0c0e200c6451fdd,,,,,,,,,,,216.4962,216.9958,,,217.2516,217.6812,right,0.4023,,,,,,,,,0.55,,,,,,216.9959,217.2516,217.6812,218.7955,0,57,57,145,1,,,,,,,
,,,,,,,607cbf385d3202721e3f719f,68253199341217ed60ade6d0,2025-05-14_19h13.53.893,cuing_paradigm_dot,2024.1.5,MacIntel,30.12048193,68242c07d0c0e200c6451fdd,,,,,,,,,,,218.7957,219.2946,,,219.5454,219.7685,right,0.2113,,,,,,,,,0.9,,,,,,219.2947,219.5454,219.7685,220.8791,0,58,58,192,1,,,,,,,
,,,,,,,607cbf385d3202721e3f719f,68253199341217ed60ade6d0,2025-05-14_19h13.53.893,cuing_paradigm_dot,2024.1.5,MacIntel,30.12048193,68242c07d0c0e200c6451fdd,,,,,,,,,,,220.8793,221.3792,,,221.635,221.913,right,0.2492,,,,,,,,,0.55,,,,,,221.3792,221.635,221.913,222.9956,0,59,59,143,1,,,,,,,
,,,,,,,607cbf385d3202721e3f719f,68253199341217ed60ade6d0,2025-05-14_19h13.53.893,cuing_paradigm_dot,2024.1.5,MacIntel,30.12048193,68242c07d0c0e200c6451fdd,,,,,,,,,,,222.9959,223.4957,,,223.7516,224.1249,right,0.3456,,,,,,,,,0.55,,,,,,223.4958,223.7515,224.125,225.2071,0,60,60,122,1,,,,,,,
,,,,,,,607cbf385d3202721e3f719f,68253199341217ed60ade6d0,2025-05-14_19h13.53.893,cuing_paradigm_dot,2024.1.5,MacIntel,30.12048193,68242c07d0c0e200c6451fdd,,,,,,,,,,,225.2074,225.6953,,,225.9239,226.2184,left,0.2508,,,,,,,,,0.4,,,,,,225.6953,225.9239,226.2184,227.3294,0,61,61,57,1,,,,,,,
,,,,,,,607cbf385d3202721e3f719f,68253199341217ed60ade6d0,2025-05-14_19h13.53.893,cuing_paradigm_dot,2024.1.5,MacIntel,30.12048193,68242c07d0c0e200c6451fdd,,,,,,,,,,,227.3298,227.8294,,,228.0846,228.418,left,0.3054,,,,,,,,,0.45,,,,,,227.8294,228.0846,228.418,229.529,0,62,62,89,1,,,,,,,
,,,,,,,607cbf385d3202721e3f719f,68253199341217ed60ade6d0,2025-05-14_19h13.53.893,cuing_paradigm_dot,2024.1.5,MacIntel,30.12048193,68242c07d0c0e200c6451fdd,,,,,,,,,,,229.5292,230.0289,,,230.2846,230.5743,left,0.2612,,,,,,,,,0.4,,,,,,230.0289,230.2846,230.5743,231.6674,0,63,63,47,1,,,,,,,
,,,,,,,607cbf385d3202721e3f719f,68253199341217ed60ade6d0,2025-05-14_19h13.53.893,cuing_paradigm_dot,2024.1.5,MacIntel,30.12048193,68242c07d0c0e200c6451fdd,,,,,,,,,,,231.6677,232.1676,,,232.4353,232.7963,right,0.3331,,,,,,,,,0.5,,,,,,232.1676,232.4352,232.7963,233.8788,0,64,64,92,1,,,,,,,
,,,,,,,607cbf385d3202721e3f719f,68253199341217ed60ade6d0,2025-05-14_19h13.53.893,cuing_paradigm_dot,2024.1.5,MacIntel,30.12048193,68242c07d0c0e200c6451fdd,,,,,,,,,,,233.879,234.3792,,,234.6351,234.9757,right,0.3128,,,,,,,,,0.5,,,,,,234.3792,234.6351,234.9757,236.0624,0,65,65,105,1,,,,,,,
,,,,,,,607cbf385d3202721e3f719f,68253199341217ed60ade6d0,2025-05-14_19h13.53.893,cuing_paradigm_dot,2024.1.5,MacIntel,30.12048193,68242c07d0c0e200c6451fdd,,,,,,,,,,,236.0627,236.5619,,,236.8178,237.0972,right,0.2516,,,,,,,,,0.55,,,,,,236.5619,236.8178,237.0973,238.1734,0,66,66,141,1,,,,,,,
,,,,,,,607cbf385d3202721e3f719f,68253199341217ed60ade6d0,2025-05-14_19h13.53.893,cuing_paradigm_dot,2024.1.5,MacIntel,30.12048193,68242c07d0c0e200c6451fdd,,,,,,,,,,,238.1737,238.662,,,238.9181,239.1681,left,0.2225,,,,,,,,,0.1,,,,,,238.6621,238.9181,239.1682,240.2786,0,67,67,19,1,,,,,,,
,,,,,,,607cbf385d3202721e3f719f,68253199341217ed60ade6d0,2025-05-14_19h13.53.893,cuing_paradigm_dot,2024.1.5,MacIntel,30.12048193,68242c07d0c0e200c6451fdd,,,,,,,,,,,240.2788,240.778,,,241.0176,241.2681,right,0.2224,,,,,,,,,0.55,,,,,,240.778,241.0176,241.2681,242.3784,0,68,68,133,1,,,,,,,
,,,,,,,607cbf385d3202721e3f719f,68253199341217ed60ade6d0,2025-05-14_19h13.53.893,cuing_paradigm_dot,2024.1.5,MacIntel,30.12048193,68242c07d0c0e200c6451fdd,,,,,,,,,,,242.3787,242.8788,,,243.1347,243.4676,right,0.305,,,,,,,,,0.6,,,,,,242.8789,243.1346,243.4676,244.5786,0,69,69,156,1,,,,,,,
,,,,,,,607cbf385d3202721e3f719f,68253199341217ed60ade6d0,2025-05-14_19h13.53.893,cuing_paradigm_dot,2024.1.5,MacIntel,30.12048193,68242c07d0c0e200c6451fdd,,,,,,,,,,,244.5789,245.0787,,,245.3345,245.624,right,0.2615,,,,,,,,,0.55,,,,,,245.0787,245.3345,245.624,246.7337,0,70,70,127,1,,,,,,,
,,,,,,,607cbf385d3202721e3f719f,68253199341217ed60ade6d0,2025-05-14_19h13.53.893,cuing_paradigm_dot,2024.1.5,MacIntel,30.12048193,68242c07d0c0e200c6451fdd,,,,,,,,,,,246.7339,247.2334,,,247.4844,247.8177,right,0.3056,,,,,,,,,0.45,,,,,,247.2335,247.4844,247.8177,248.9284,0,71,71,73,1,,,,,,,
,,,,,,,607cbf385d3202721e3f719f,68253199341217ed60ade6d0,2025-05-14_19h13.53.893,cuing_paradigm_dot,2024.1.5,MacIntel,30.12048193,68242c07d0c0e200c6451fdd,,,,,,,,,,,248.9289,249.4288,,,249.6592,250.0629,right,0.3924,,,,,,,,,0.55,,,,,,249.4288,249.6591,250.0629,251.145,0,72,72,148,1,,,,,,,
,,,,,,,607cbf385d3202721e3f719f,68253199341217ed60ade6d0,2025-05-14_19h13.53.893,cuing_paradigm_dot,2024.1.5,MacIntel,30.12048193,68242c07d0c0e200c6451fdd,,,,,,,,,,,251.1453,251.6454,,,251.901,252.1521,left,0.2232,,,,,,,,,0.1,,,,,,251.6454,251.901,252.1522,253.2284,0,73,73,6,1,,,,,,,
,,,,,,,607cbf385d3202721e3f719f,68253199341217ed60ade6d0,2025-05-14_19h13.53.893,cuing_paradigm_dot,2024.1.5,MacIntel,30.12048193,68242c07d0c0e200c6451fdd,,,,,,,,,,,253.2286,253.7285,,,253.9842,254.3462,right,0.3344,,,,,,,,,0.5,,,,,,253.7286,253.9842,254.3462,255.449,0,74,74,91,1,,,,,,,
,,,,,,,607cbf385d3202721e3f719f,68253199341217ed60ade6d0,2025-05-14_19h13.53.893,cuing_paradigm_dot,2024.1.5,MacIntel,30.12048193,68242c07d0c0e200c6451fdd,,,,,,,,,,,255.4493,255.9619,,,256.1928,256.6071,left,0.403,,,,,,,,,0.4,,,,,,255.9619,256.1927,256.6071,257.69,0,75,75,51,1,,,,,,,
,,,,,,,607cbf385d3202721e3f719f,68253199341217ed60ade6d0,2025-05-14_19h13.53.893,cuing_paradigm_dot,2024.1.5,MacIntel,30.12048193,68242c07d0c0e200c6451fdd,,,,,,,,,,,257.6901,258.1789,,,258.4344,258.9342,right,0.472,,,,,,,,,0.55,,,,,,258.179,258.4343,258.9342,260.045,0,76,76,134,1,,,,,,,
,,,,,,,607cbf385d3202721e3f719f,68253199341217ed60ade6d0,2025-05-14_19h13.53.893,cuing_paradigm_dot,2024.1.5,MacIntel,30.12048193,68242c07d0c0e200c6451fdd,,,,,,,,,,,260.0452,260.5452,,,260.801,261.0791,right,0.2503,,,,,,,,,0.55,,,,,,260.5453,260.801,261.0791,262.1622,0,77,77,144,1,,,,,,,
,,,,,,,607cbf385d3202721e3f719f,68253199341217ed60ade6d0,2025-05-14_19h13.53.893,cuing_paradigm_dot,2024.1.5,MacIntel,30.12048193,68242c07d0c0e200c6451fdd,,,,,,,,,,,262.1625,262.6618,,,262.9176,263.2788,right,0.3333,,,,,,,,,0.9,,,,,,262.6618,262.9175,263.2788,264.3717,0,78,78,181,1,,,,,,,
,,,,,,,607cbf385d3202721e3f719f,68253199341217ed60ade6d0,2025-05-14_19h13.53.893,cuing_paradigm_dot,2024.1.5,MacIntel,30.12048193,68242c07d0c0e200c6451fdd,,,,,,,,,,,264.372,264.8568,,,265.0953,265.5243,left,0.4171,,,,,,,,,0.4,,,,,,264.8569,265.0953,265.5244,266.607,0,79,79,45,1,,,,,,,
,,,,,,,607cbf385d3202721e3f719f,68253199341217ed60ade6d0,2025-05-14_19h13.53.893,cuing_paradigm_dot,2024.1.5,MacIntel,30.12048193,68242c07d0c0e200c6451fdd,,,,,,,,,,,266.6073,267.0953,,,267.3509,267.7123,left,0.3332,,,,,,,,,0.45,,,,,,267.0953,267.3509,267.7123,268.7945,0,80,80,65,1,,,,,,,
,,,,,,,607cbf385d3202721e3f719f,68253199341217ed60ade6d0,2025-05-14_19h13.53.893,cuing_paradigm_dot,2024.1.5,MacIntel,30.12048193,68242c07d0c0e200c6451fdd,,,,,,,,,,,268.7947,269.2954,,,269.5343,269.9512,right,0.3889,,,,,,,,,0.6,,,,,,269.2954,269.5343,269.9513,271.0612,0,81,81,158,1,,,,,,,
,,,,,,,607cbf385d3202721e3f719f,68253199341217ed60ade6d0,2025-05-14_19h13.53.893,cuing_paradigm_dot,2024.1.5,MacIntel,30.12048193,68242c07d0c0e200c6451fdd,,,,,,,,,,,271.0614,271.5617,,,271.8173,272.025,right,0.1798,,,,,,,,,0.9,,,,,,271.5617,271.8173,272.025,273.1065,0,82,82,206,1,,,,,,,
,,,,,,,607cbf385d3202721e3f719f,68253199341217ed60ade6d0,2025-05-14_19h13.53.893,cuing_paradigm_dot,2024.1.5,MacIntel,30.12048193,68242c07d0c0e200c6451fdd,,,,,,,,,,,273.1067,273.5952,,,273.8252,274.2005,right,0.3638,,,,,,,,,0.55,,,,,,273.5953,273.8252,274.2005,275.3114,0,83,83,129,1,,,,,,,
,,,,,,,607cbf385d3202721e3f719f,68253199341217ed60ade6d0,2025-05-14_19h13.53.893,cuing_paradigm_dot,2024.1.5,MacIntel,30.12048193,68242c07d0c0e200c6451fdd,,,,,,,,,,,275.3117,275.8061,,,276.0453,276.2957,right,0.2375,,,,,,,,,0.9,,,,,,275.8062,276.0453,276.2958,277.3783,0,84,84,208,1,,,,,,,
,,,,,,,607cbf385d3202721e3f719f,68253199341217ed60ade6d0,2025-05-14_19h13.53.893,cuing_paradigm_dot,2024.1.5,MacIntel,30.12048193,68242c07d0c0e200c6451fdd,,,,,,,,,,,277.3787,277.8781,,,278.1344,278.3288,right,0.1665,,,,,,,,,0.9,,,,,,277.8781,278.1344,278.3288,279.4117,0,85,85,199,1,,,,,,,
,,,,,,,607cbf385d3202721e3f719f,68253199341217ed60ade6d0,2025-05-14_19h13.53.893,cuing_paradigm_dot,2024.1.5,MacIntel,30.12048193,68242c07d0c0e200c6451fdd,,,,,,,,,,,279.4119,279.9118,,,280.168,280.4837,left,0.2876,,,,,,,,,0.45,,,,,,279.9118,280.168,280.4838,281.5955,0,86,86,85,1,,,,,,,
,,,,,,,607cbf385d3202721e3f719f,68253199341217ed60ade6d0,2025-05-14_19h13.53.893,cuing_paradigm_dot,2024.1.5,MacIntel,30.12048193,68242c07d0c0e200c6451fdd,,,,,,,,,,,281.5958,282.0946,,,282.3509,282.5433,left,0.1644,,,,,,,,,0.1,,,,,,282.0946,282.3508,282.5433,283.628,0,87,87,2,1,,,,,,,
,,,,,,,607cbf385d3202721e3f719f,68253199341217ed60ade6d0,2025-05-14_19h13.53.893,cuing_paradigm_dot,2024.1.5,MacIntel,30.12048193,68242c07d0c0e200c6451fdd,,,,,,,,,,,283.6283,284.128,,,284.3842,284.757,left,0.3446,,,,,,,,,0.45,,,,,,284.128,284.3841,284.757,285.8395,0,88,88,66,1,,,,,,,
,,,,,,,607cbf385d3202721e3f719f,68253199341217ed60ade6d0,2025-05-14_19h13.53.893,cuing_paradigm_dot,2024.1.5,MacIntel,30.12048193,68242c07d0c0e200c6451fdd,,,,,,,,,,,285.8398,286.3281,,,286.5844,286.8949,left,0.2827,,,,,,,,,0.6,,,,,,286.3282,286.5844,286.8949,287.978,0,89,89,165,1,,,,,,,
,,,,,,,607cbf385d3202721e3f719f,68253199341217ed60ade6d0,2025-05-14_19h13.53.893,cuing_paradigm_dot,2024.1.5,MacIntel,30.12048193,68242c07d0c0e200c6451fdd,,,,,,,,,,,287.9783,288.4774,,,288.734,288.9844,right,0.2226,,,,,,,,,0.6,,,,,,288.4774,288.734,288.9845,290.0946,0,90,90,179,1,,,,,,,
,,,,,,,607cbf385d3202721e3f719f,68253199341217ed60ade6d0,2025-05-14_19h13.53.893,cuing_paradigm_dot,2024.1.5,MacIntel,30.12048193,68242c07d0c0e200c6451fdd,,,,,,,,,,,290.0948,290.5951,,,290.8334,291.1002,left,0.2391,,,,,,,,,0.5,,,,,,290.5952,290.8333,291.1002,292.178,0,91,91,111,1,,,,,,,
,,,,,,,607cbf385d3202721e3f719f,68253199341217ed60ade6d0,2025-05-14_19h13.53.893,cuing_paradigm_dot,2024.1.5,MacIntel,30.12048193,68242c07d0c0e200c6451fdd,,,,,,,,,,,292.1782,292.6796,,,292.9451,293.3626,right,0.4061,,,,,,,,,0.55,,,,,,292.6796,292.9451,293.3626,294.4667,0,92,92,146,1,,,,,,,
,,,,,,,607cbf385d3202721e3f719f,68253199341217ed60ade6d0,2025-05-14_19h13.53.893,cuing_paradigm_dot,2024.1.5,MacIntel,30.12048193,68242c07d0c0e200c6451fdd,,,,,,,,,,,294.4669,294.9665,,,295.234,295.4837,left,0.222,,,,,,,,,0.55,,,,,,294.9665,295.234,295.4838,296.5781,0,93,93,120,1,,,,,,,
,,,,,,,607cbf385d3202721e3f719f,68253199341217ed60ade6d0,2025-05-14_19h13.53.893,cuing_paradigm_dot,2024.1.5,MacIntel,30.12048193,68242c07d0c0e200c6451fdd,,,,,,,,,,,296.5784,297.0777,,,297.3162,297.6507,left,0.3064,,,,,,,,,0.4,,,,,,297.0778,297.3162,297.6507,298.7617,0,94,94,32,1,,,,,,,
,,,,,,,607cbf385d3202721e3f719f,68253199341217ed60ade6d0,2025-05-14_19h13.53.893,cuing_paradigm_dot,2024.1.5,MacIntel,30.12048193,68242c07d0c0e200c6451fdd,,,,,,,,,,,298.7619,299.2614,,,299.517,299.8506,left,0.3058,,,,,,,,,0.45,,,,,,299.2614,299.517,299.8506,300.9612,0,95,95,79,1,,,,,,,
,,,,,,,607cbf385d3202721e3f719f,68253199341217ed60ade6d0,2025-05-14_19h13.53.893,cuing_paradigm_dot,2024.1.5,MacIntel,30.12048193,68242c07d0c0e200c6451fdd,,,,,,,,,,,300.9615,301.4615,,,301.7004,301.908,right,0.1796,,,,,,,,,0.9,,,,,,301.4616,301.7004,301.9082,302.9898,0,96,96,195,1,,,,,,,
,,,,,,,607cbf385d3202721e3f719f,68253199341217ed60ade6d0,2025-05-14_19h13.53.893,cuing_paradigm_dot,2024.1.5,MacIntel,30.12048193,68242c07d0c0e200c6451fdd,,,,,,,,,,,302.9901,303.4777,,,303.7089,303.9576,right,0.2367,,,,,,,,,0.6,,,,,,303.4778,303.7088,303.9576,305.0399,0,97,97,157,1,,,,,,,
,,,,,,,607cbf385d3202721e3f719f,68253199341217ed60ade6d0,2025-05-14_19h13.53.893,cuing_paradigm_dot,2024.1.5,MacIntel,30.12048193,68242c07d0c0e200c6451fdd,,,,,,,,,,,305.0402,305.5274,,,305.7673,306.0162,right,0.2215,,,,,,,,,0.55,,,,,,305.5274,305.7673,306.0162,307.1278,0,98,98,147,1,,,,,,,
,,,,,,,607cbf385d3202721e3f719f,68253199341217ed60ade6d0,2025-05-14_19h13.53.893,cuing_paradigm_dot,2024.1.5,MacIntel,30.12048193,68242c07d0c0e200c6451fdd,,,,,,,,,,,307.1281,307.6278,,,307.8836,308.2004,left,0.2879,,,,,,,,,0.45,,,,,,307.6278,307.8836,308.2004,309.3112,0,99,99,67,1,,,,,,,
,,,,,,,607cbf385d3202721e3f719f,68253199341217ed60ade6d0,2025-05-14_19h13.53.893,cuing_paradigm_dot,2024.1.5,MacIntel,30.12048193,68242c07d0c0e200c6451fdd,,,,,,,,,,,309.3116,309.8113,,,310.0503,310.3117,left,0.2331,,,,,,,,,0.1,,,,,,309.8114,310.0502,310.3117,311.3944,0,100,100,15,1,,,,,,,
,,,,,,,607cbf385d3202721e3f719f,68253199341217ed60ade6d0,2025-05-14_19h13.53.893,cuing_paradigm_dot,2024.1.5,MacIntel,30.12048193,68242c07d0c0e200c6451fdd,,,,,,,,,,,311.3947,311.8944,,,312.1502,312.4835,right,0.3054,,,,,,,,,0.55,,,,,,311.8944,312.1502,312.4836,313.5756,0,101,101,130,1,,,,,,,
,,,,,,,607cbf385d3202721e3f719f,68253199341217ed60ade6d0,2025-05-14_19h13.53.893,cuing_paradigm_dot,2024.1.5,MacIntel,30.12048193,68242c07d0c0e200c6451fdd,,,,,,,,,,,313.576,314.078,,,314.3332,314.6125,right,0.2514,,,,,,,,,0.9,,,,,,314.0781,314.3332,314.6125,315.711,0,102,102,204,1,,,,,,,
,,,,,,,607cbf385d3202721e3f719f,68253199341217ed60ade6d0,2025-05-14_19h13.53.893,cuing_paradigm_dot,2024.1.5,MacIntel,30.12048193,68242c07d0c0e200c6451fdd,,,,,,,,,,,315.7112,316.2113,,,316.4667,316.8279,left,0.333,,,,,,,,,0.45,,,,,,316.2113,316.4667,316.8279,317.911,0,103,103,87,1,,,,,,,
,,,,,,,607cbf385d3202721e3f719f,68253199341217ed60ade6d0,2025-05-14_19h13.53.893,cuing_paradigm_dot,2024.1.5,MacIntel,30.12048193,68242c07d0c0e200c6451fdd,,,,,,,,,,,317.9112,318.4109,,,318.6669,319,left,0.3053,,,,,,,,,0.45,,,,,,318.4109,318.6668,319,320.1113,0,104,104,74,1,,,,,,,
,,,,,,,607cbf385d3202721e3f719f,68253199341217ed60ade6d0,2025-05-14_19h13.53.893,cuing_paradigm_dot,2024.1.5,MacIntel,30.12048193,68242c07d0c0e200c6451fdd,,,,,,,,,,,320.1116,320.6112,,,320.8501,321.1282,right,0.2503,,,,,,,,,0.6,,,,,,320.6112,320.85,321.1282,322.2107,0,105,105,163,1,,,,,,,
,,,,,,,607cbf385d3202721e3f719f,68253199341217ed60ade6d0,2025-05-14_19h13.53.893,cuing_paradigm_dot,2024.1.5,MacIntel,30.12048193,68242c07d0c0e200c6451fdd,,,,,,,,,,,322.2111,322.711,,,322.9667,323.217,right,0.2223,,,,,,,,,0.6,,,,,,322.7111,322.9667,323.217,324.3032,0,106,106,151,1,,,,,,,
,,,,,,,607cbf385d3202721e3f719f,68253199341217ed60ade6d0,2025-05-14_19h13.53.893,cuing_paradigm_dot,2024.1.5,MacIntel,30.12048193,68242c07d0c0e200c6451fdd,,,,,,,,,,,324.3036,324.7893,,,325.0231,325.2621,right,0.1957,,,,,,,,,0.9,,,,,,324.7894,325.023,325.2621,326.3446,0,107,107,187,1,,,,,,,
,,,,,,,607cbf385d3202721e3f719f,68253199341217ed60ade6d0,2025-05-14_19h13.53.893,cuing_paradigm_dot,2024.1.5,MacIntel,30.12048193,68242c07d0c0e200c6451fdd,,,,,,,,,,,326.3448,326.8446,,,327.0832,327.2783,right,0.1673,,,,,,,,,0.9,,,,,,326.8446,327.0832,327.2784,328.3776,0,108,108,185,1,,,,,,,
,,,,,,,607cbf385d3202721e3f719f,68253199341217ed60ade6d0,2025-05-14_19h13.53.893,cuing_paradigm_dot,2024.1.5,MacIntel,30.12048193,68242c07d0c0e200c6451fdd,,,,,,,,,,,328.3779,328.8772,,,329.134,329.4119,right,0.2501,,,,,,,,,0.55,,,,,,328.8772,329.134,329.4119,330.5163,0,109,109,149,1,,,,,,,
,,,,,,,607cbf385d3202721e3f719f,68253199341217ed60ade6d0,2025-05-14_19h13.53.893,cuing_paradigm_dot,2024.1.5,MacIntel,30.12048193,68242c07d0c0e200c6451fdd,,,,,,,,,,,330.5166,331.0158,,,331.2444,331.5502,right,0.2944,,,,,,,,,0.55,,,,,,331.0158,331.2444,331.5503,332.6583,0,110,110,139,1,,,,,,,
,,,,,,,607cbf385d3202721e3f719f,68253199341217ed60ade6d0,2025-05-14_19h13.53.893,cuing_paradigm_dot,2024.1.5,MacIntel,30.12048193,68242c07d0c0e200c6451fdd,,,,,,,,,,,332.6586,333.166,,,333.4333,333.7116,right,0.2504,,,,,,,,,0.9,,,,,,333.1661,333.4333,333.7116,334.793,0,111,111,202,1,,,,,,,
,,,,,,,607cbf385d3202721e3f719f,68253199341217ed60ade6d0,2025-05-14_19h13.53.893,cuing_paradigm_dot,2024.1.5,MacIntel,30.12048193,68242c07d0c0e200c6451fdd,,,,,,,,,,,334.7933,335.2945,,,335.5497,335.8385,left,0.2607,,,,,,,,,0.45,,,,,,335.2945,335.5497,335.8385,336.9223,0,112,112,82,1,,,,,,,
,,,,,,,607cbf385d3202721e3f719f,68253199341217ed60ade6d0,2025-05-14_19h13.53.893,cuing_paradigm_dot,2024.1.5,MacIntel,30.12048193,68242c07d0c0e200c6451fdd,,,,,,,,,,,336.9226,337.4111,,,337.6668,337.9837,left,0.2885,,,,,,,,,0.5,,,,,,337.4111,337.6668,337.9837,339.0939,0,113,113,94,1,,,,,,,
,,,,,,,607cbf385d3202721e3f719f,68253199341217ed60ade6d0,2025-05-14_19h13.53.893,cuing_paradigm_dot,2024.1.5,MacIntel,30.12048193,68242c07d0c0e200c6451fdd,,,,,,,,,,,339.0942,339.5941,,,339.8332,340.0833,left,0.2223,,,,,,,,,0.1,,,,,,339.5941,339.8332,340.0833,341.1943,0,114,114,23,1,,,,,,,
,,,,,,,607cbf385d3202721e3f719f,68253199341217ed60ade6d0,2025-05-14_19h13.53.893,cuing_paradigm_dot,2024.1.5,MacIntel,30.12048193,68242c07d0c0e200c6451fdd,,,,,,,,,,,341.1946,341.6936,,,341.9498,342.2007,left,0.2231,,,,,,,,,0.1,,,,,,341.6936,341.9498,342.2007,343.3107,0,115,115,11,1,,,,,,,
,,,,,,,607cbf385d3202721e3f719f,68253199341217ed60ade6d0,2025-05-14_19h13.53.893,cuing_paradigm_dot,2024.1.5,MacIntel,30.12048193,68242c07d0c0e200c6451fdd,,,,,,,,,,,343.3109,343.8105,,,344.0665,344.5115,right,0.4169,,,,,,,,,0.6,,,,,,343.8106,344.0665,344.5115,345.5943,0,116,116,169,1,,,,,,,
,,,,,,,607cbf385d3202721e3f719f,68253199341217ed60ade6d0,2025-05-14_19h13.53.893,cuing_paradigm_dot,2024.1.5,MacIntel,30.12048193,68242c07d0c0e200c6451fdd,,,,,,,,,,,345.5945,346.0938,,,346.3497,346.8788,left,0.5009,,,,,,,,,0.4,,,,,,346.0938,346.3497,346.8788,347.9557,0,117,117,59,1,,,,,,,
,,,,,,,607cbf385d3202721e3f719f,68253199341217ed60ade6d0,2025-05-14_19h13.53.893,cuing_paradigm_dot,2024.1.5,MacIntel,30.12048193,68242c07d0c0e200c6451fdd,,,,,,,,,,,347.956,348.4439,,,348.683,348.8908,left,0.1798,,,,,,,,,0.1,,,,,,348.4439,348.683,348.8908,349.9727,0,118,118,12,1,,,,,,,
,,,,,,,607cbf385d3202721e3f719f,68253199341217ed60ade6d0,2025-05-14_19h13.53.893,cuing_paradigm_dot,2024.1.5,MacIntel,30.12048193,68242c07d0c0e200c6451fdd,,,,,,,,,,,349.9729,350.4608,,,350.7166,350.978,right,0.2326,,,,,,,,,0.6,,,,,,350.4608,350.7166,350.9781,352.0559,0,119,119,178,1,,,,,,,
,,,,,,,607cbf385d3202721e3f719f,68253199341217ed60ade6d0,2025-05-14_19h13.53.893,cuing_paradigm_dot,2024.1.5,MacIntel,30.12048193,68242c07d0c0e200c6451fdd,,,,,,,,,,,352.0562,352.5449,,,352.8115,353.0326,left,0.2089,,,,,,,,,0.4,,,,,,352.5449,352.8115,353.0326,354.144,0,120,120,41,1,,,,,,,
,,,,,,,607cbf385d3202721e3f719f,68253199341217ed60ade6d0,2025-05-14_19h13.53.893,cuing_paradigm_dot,2024.1.5,MacIntel,30.12048193,68242c07d0c0e200c6451fdd,,,,,,,,,,,354.1442,354.6442,,,354.8999,355.1501,left,0.2224,,,,,,,,,0.55,,,,,,354.6442,354.8999,355.1501,356.26,0,121,121,132,1,,,,,,,
,,,,,,,607cbf385d3202721e3f719f,68253199341217ed60ade6d0,2025-05-14_19h13.53.893,cuing_paradigm_dot,2024.1.5,MacIntel,30.12048193,68242c07d0c0e200c6451fdd,,,,,,,,,,,356.2603,356.7605,,,356.9996,357.2769,left,0.2494,,,,,,,,,0.1,,,,,,356.7605,356.9995,357.2769,358.3519,0,122,122,29,1,,,,,,,
,,,,,,,607cbf385d3202721e3f719f,68253199341217ed60ade6d0,2025-05-14_19h13.53.893,cuing_paradigm_dot,2024.1.5,MacIntel,30.12048193,68242c07d0c0e200c6451fdd,,,,,,,,,,,358.3522,358.8356,,,359.0687,359.316,right,0.2194,,,,,,,,,0.6,,,,,,358.8356,359.0687,359.316,360.4157,0,123,123,167,1,,,,,,,
,,,,,,,607cbf385d3202721e3f719f,68253199341217ed60ade6d0,2025-05-14_19h13.53.893,cuing_paradigm_dot,2024.1.5,MacIntel,30.12048193,68242c07d0c0e200c6451fdd,,,,,,,,,,,360.416,360.9248,,,361.1779,361.3832,left,0.1929,,,,,,,,,0.5,,,,,,360.9249,361.1778,361.3832,362.4938,0,124,124,106,1,,,,,,,
,,,,,,,607cbf385d3202721e3f719f,68253199341217ed60ade6d0,2025-05-14_19h13.53.893,cuing_paradigm_dot,2024.1.5,MacIntel,30.12048193,68242c07d0c0e200c6451fdd,,,,,,,,,,,362.4942,362.9942,,,363.2498,363.4997,left,0.2219,,,,,,,,,0.4,,,,,,362.9942,363.2498,363.4997,364.6098,0,125,125,49,1,,,,,,,
,,,,,,,607cbf385d3202721e3f719f,68253199341217ed60ade6d0,2025-05-14_19h13.53.893,cuing_paradigm_dot,2024.1.5,MacIntel,30.12048193,68242c07d0c0e200c6451fdd,,,,,,,,,,,364.61,365.1106,,,365.3661,365.6166,left,0.2227,,,,,,,,,0.5,,,,,,365.1106,365.3661,365.6166,366.727,0,126,126,96,1,,,,,,,
,,,,,,,607cbf385d3202721e3f719f,68253199341217ed60ade6d0,2025-05-14_19h13.53.893,cuing_paradigm_dot,2024.1.5,MacIntel,30.12048193,68242c07d0c0e200c6451fdd,,,,,,,,,,,366.7273,367.227,,,367.4573,367.6772,left,0.2083,,,,,,,,,0.5,,,,,,367.227,367.4573,367.6773,368.7604,0,127,127,116,1,,,,,,,
,,,,,,,607cbf385d3202721e3f719f,68253199341217ed60ade6d0,2025-05-14_19h13.53.893,cuing_paradigm_dot,2024.1.5,MacIntel,30.12048193,68242c07d0c0e200c6451fdd,,,,,,,,,,,368.7606,369.26,,,369.5158,369.7666,left,0.223,,,,,,,,,0.9,,,,,,369.26,369.5157,369.7666,370.8769,0,128,128,196,1,,,,,,,
,,,,,,,607cbf385d3202721e3f719f,68253199341217ed60ade6d0,2025-05-14_19h13.53.893,cuing_paradigm_dot,2024.1.5,MacIntel,30.12048193,68242c07d0c0e200c6451fdd,,,,,,,,,,,370.8772,371.377,,,371.6326,371.994,right,0.3335,,,,,,,,,0.5,,,,,,371.377,371.6326,371.9941,373.077,0,129,129,117,1,,,,,,,
,,,,,,,607cbf385d3202721e3f719f,68253199341217ed60ade6d0,2025-05-14_19h13.53.893,cuing_paradigm_dot,2024.1.5,MacIntel,30.12048193,68242c07d0c0e200c6451fdd,,,,,,,,,,,373.0772,373.5769,,,373.834,374.0268,left,0.1651,,,,,,,,,0.1,,,,,,373.577,373.834,374.0268,375.11,0,130,130,21,1,,,,,,,
,,,,,,,607cbf385d3202721e3f719f,68253199341217ed60ade6d0,2025-05-14_19h13.53.893,cuing_paradigm_dot,2024.1.5,MacIntel,30.12048193,68242c07d0c0e200c6451fdd,,,,,,,,,,,375.1102,375.6104,,,375.8491,376.1827,left,0.3056,,,,,,,,,0.4,,,,,,375.6104,375.849,376.1827,377.2772,0,131,131,40,1,,,,,,,
,,,,,,,607cbf385d3202721e3f719f,68253199341217ed60ade6d0,2025-05-14_19h13.53.893,cuing_paradigm_dot,2024.1.5,MacIntel,30.12048193,68242c07d0c0e200c6451fdd,,,,,,,,,,,377.2775,377.7769,,,378.0323,378.2828,left,0.2226,,,,,,,,,0.45,,,,,,377.777,378.0323,378.2828,379.3936,0,132,132,86,1,,,,,,,
,,,,,,,607cbf385d3202721e3f719f,68253199341217ed60ade6d0,2025-05-14_19h13.53.893,cuing_paradigm_dot,2024.1.5,MacIntel,30.12048193,68242c07d0c0e200c6451fdd,,,,,,,,,,,379.3939,379.8934,,,380.1498,380.3986,left,0.2212,,,,,,,,,0.4,,,,,,379.8934,380.1497,380.3986,381.4941,0,133,133,37,1,,,,,,,
,,,,,,,607cbf385d3202721e3f719f,68253199341217ed60ade6d0,2025-05-14_19h13.53.893,cuing_paradigm_dot,2024.1.5,MacIntel,30.12048193,68242c07d0c0e200c6451fdd,,,,,,,,,,,381.4944,381.9937,,,382.25,382.4603,left,0.1822,,,,,,,,,0.4,,,,,,381.9938,382.25,382.4603,383.5439,0,134,134,31,1,,,,,,,
,,,,,,,607cbf385d3202721e3f719f,68253199341217ed60ade6d0,2025-05-14_19h13.53.893,cuing_paradigm_dot,2024.1.5,MacIntel,30.12048193,68242c07d0c0e200c6451fdd,,,,,,,,,,,383.544,384.0438,,,384.2992,384.7658,left,0.4388,,,,,,,,,0.45,,,,,,384.0438,384.2992,384.7658,385.8773,0,135,135,60,1,,,,,,,
,,,,,,,607cbf385d3202721e3f719f,68253199341217ed60ade6d0,2025-05-14_19h13.53.893,cuing_paradigm_dot,2024.1.5,MacIntel,30.12048193,68242c07d0c0e200c6451fdd,,,,,,,,,,,385.8777,386.3763,,,386.6329,386.9659,left,0.305,,,,,,,,,0.1,,,,,,386.3764,386.6329,386.966,388.0765,0,136,136,14,1,,,,,,,
,,,,,,,607cbf385d3202721e3f719f,68253199341217ed60ade6d0,2025-05-14_19h13.53.893,cuing_paradigm_dot,2024.1.5,MacIntel,30.12048193,68242c07d0c0e200c6451fdd,,,,,,,,,,,388.0768,388.5767,,,388.8324,389.3327,left,0.4726,,,,,,,,,0.5,,,,,,388.5767,388.8324,389.3328,390.4436,0,137,137,98,1,,,,,,,
,,,,,,,607cbf385d3202721e3f719f,68253199341217ed60ade6d0,2025-05-14_19h13.53.893,cuing_paradigm_dot,2024.1.5,MacIntel,30.12048193,68242c07d0c0e200c6451fdd,,,,,,,,,,,390.4438,390.9434,,,391.1992,391.4331,right,0.2053,,,,,,,,,0.55,,,,,,390.9436,391.1992,391.4332,392.5435,0,138,138,140,1,,,,,,,
,,,,,,,607cbf385d3202721e3f719f,68253199341217ed60ade6d0,2025-05-14_19h13.53.893,cuing_paradigm_dot,2024.1.5,MacIntel,30.12048193,68242c07d0c0e200c6451fdd,,,,,,,,,,,392.5438,393.0266,,,393.2827,393.4774,left,0.1669,,,,,,,,,0.5,,,,,,393.0266,393.2827,393.4774,394.5598,0,139,139,114,1,,,,,,,
,,,,,,,607cbf385d3202721e3f719f,68253199341217ed60ade6d0,2025-05-14_19h13.53.893,cuing_paradigm_dot,2024.1.5,MacIntel,30.12048193,68242c07d0c0e200c6451fdd,,,,,,,,,,,394.5601,395.0604,,,395.3155,395.688,right,0.3446,,,,,,,,,0.4,,,,,,395.0604,395.3155,395.688,396.7717,0,140,140,53,1,,,,,,,
,,,,,,,607cbf385d3202721e3f719f,68253199341217ed60ade6d0,2025-05-14_19h13.53.893,cuing_paradigm_dot,2024.1.5,MacIntel,30.12048193,68242c07d0c0e200c6451fdd,,,,,,,,,,,396.772,397.2599,,,397.5162,397.7945,left,0.2504,,,,,,,,,0.45,,,,,,397.2599,397.5162,397.7945,398.8771,0,141,141,63,1,,,,,,,
,,,,,,,607cbf385d3202721e3f719f,68253199341217ed60ade6d0,2025-05-14_19h13.53.893,cuing_paradigm_dot,2024.1.5,MacIntel,30.12048193,68242c07d0c0e200c6451fdd,,,,,,,,,,,398.8774,399.3763,,,399.6159,399.8656,left,0.222,,,,,,,,,0.4,,,,,,399.3763,399.6159,399.8656,400.9765,0,142,142,43,1,,,,,,,
,,,,,,,607cbf385d3202721e3f719f,68253199341217ed60ade6d0,2025-05-14_19h13.53.893,cuing_paradigm_dot,2024.1.5,MacIntel,30.12048193,68242c07d0c0e200c6451fdd,,,,,,,,,,,400.9767,401.4766,,,401.7324,401.9822,left,0.2218,,,,,,,,,0.5,,,,,,401.4766,401.7323,401.9823,403.0934,0,143,143,95,1,,,,,,,
,,,,,,,607cbf385d3202721e3f719f,68253199341217ed60ade6d0,2025-05-14_19h13.53.893,cuing_paradigm_dot,2024.1.5,MacIntel,30.12048193,68242c07d0c0e200c6451fdd,,,,,,,,,,,403.0937,403.5931,,,403.8326,404.0825,right,0.2221,,,,,,,,,0.6,,,,,,403.5931,403.8326,404.0825,405.1925,0,144,144,155,1,,,,,,,
,,,,,,,607cbf385d3202721e3f719f,68253199341217ed60ade6d0,2025-05-14_19h13.53.893,cuing_paradigm_dot,2024.1.5,MacIntel,30.12048193,68242c07d0c0e200c6451fdd,,,,,,,,,,,405.1927,405.6933,,,405.9492,406.1819,right,0.2042,,,,,,,,,0.55,,,,,,405.6933,405.9492,406.1819,407.2931,0,145,145,135,1,,,,,,,
,,,,,,,607cbf385d3202721e3f719f,68253199341217ed60ade6d0,2025-05-14_19h13.53.893,cuing_paradigm_dot,2024.1.5,MacIntel,30.12048193,68242c07d0c0e200c6451fdd,,,,,,,,,,,407.2935,407.7931,,,408.0234,408.3437,right,0.3086,,,,,,,,,0.45,,,,,,407.7931,408.0234,408.3437,409.4264,0,146,146,68,1,,,,,,,
,,,,,,,607cbf385d3202721e3f719f,68253199341217ed60ade6d0,2025-05-14_19h13.53.893,cuing_paradigm_dot,2024.1.5,MacIntel,30.12048193,68242c07d0c0e200c6451fdd,,,,,,,,,,,409.4267,409.9268,,,410.1825,410.4442,left,0.2332,,,,,,,,,0.4,,,,,,409.9268,410.1824,410.4442,411.519,0,147,147,55,1,,,,,,,
,,,,,,,607cbf385d3202721e3f719f,68253199341217ed60ade6d0,2025-05-14_19h13.53.893,cuing_paradigm_dot,2024.1.5,MacIntel,30.12048193,68242c07d0c0e200c6451fdd,,,,,,,,,,,411.5192,412.0048,,,412.2421,412.7159,right,0.462,,,,,,,,,0.55,,,,,,412.0048,412.2421,412.716,413.8266,0,148,148,137,1,,,,,,,
,,,,,,,607cbf385d3202721e3f719f,68253199341217ed60ade6d0,2025-05-14_19h13.53.893,cuing_paradigm_dot,2024.1.5,MacIntel,30.12048193,68242c07d0c0e200c6451fdd,,,,,,,,,,,413.8269,414.326,,,414.5822,414.7894,right,0.1789,,,,,,,,,0.6,,,,,,414.326,414.5822,414.7895,415.8715,0,149,149,170,1,,,,,,,
,,,,,,,607cbf385d3202721e3f719f,68253199341217ed60ade6d0,2025-05-14_19h13.53.893,cuing_paradigm_dot,2024.1.5,MacIntel,30.12048193,68242c07d0c0e200c6451fdd,,,,,,,,,,,415.8718,416.3595,,,416.6158,416.9767,left,0.3329,,,,,,,,,0.45,,,,,,416.3595,416.6158,416.9767,418.0595,0,150,150,70,1,,,,,,,
,,,,,,,607cbf385d3202721e3f719f,68253199341217ed60ade6d0,2025-05-14_19h13.53.893,cuing_paradigm_dot,2024.1.5,MacIntel,30.12048193,68242c07d0c0e200c6451fdd,,,,,,,,,,,418.0597,418.5596,,,418.8153,419.3156,right,0.4724,,,,,,,,,0.5,,,,,,418.5596,418.8153,419.3157,420.4092,0,151,151,115,1,,,,,,,
,,,,,,,607cbf385d3202721e3f719f,68253199341217ed60ade6d0,2025-05-14_19h13.53.893,cuing_paradigm_dot,2024.1.5,MacIntel,30.12048193,68242c07d0c0e200c6451fdd,,,,,,,,,,,420.4094,420.9091,,,421.1488,421.4823,left,0.3053,,,,,,,,,0.1,,,,,,420.9091,421.1488,421.4823,422.5932,0,152,152,26,1,,,,,,,
,,,,,,,607cbf385d3202721e3f719f,68253199341217ed60ade6d0,2025-05-14_19h13.53.893,cuing_paradigm_dot,2024.1.5,MacIntel,30.12048193,68242c07d0c0e200c6451fdd,,,,,,,,,,,422.5934,423.0928,,,423.3488,423.6824,right,0.3054,,,,,,,,,0.9,,,,,,423.0928,423.3487,423.6824,424.7936,0,153,153,209,1,,,,,,,
,,,,,,,607cbf385d3202721e3f719f,68253199341217ed60ade6d0,2025-05-14_19h13.53.893,cuing_paradigm_dot,2024.1.5,MacIntel,30.12048193,68242c07d0c0e200c6451fdd,,,,,,,,,,,424.7939,425.293,,,425.5488,425.7148,right,0.1382,,,,,,,,,0.6,,,,,,425.293,425.5488,425.7149,426.8093,0,154,154,174,1,,,,,,,
,,,,,,,607cbf385d3202721e3f719f,68253199341217ed60ade6d0,2025-05-14_19h13.53.893,cuing_paradigm_dot,2024.1.5,MacIntel,30.12048193,68242c07d0c0e200c6451fdd,,,,,,,,,,,426.8095,427.3094,,,427.5652,427.7603,right,0.1672,,,,,,,,,0.6,,,,,,427.3094,427.5652,427.7603,428.8434,0,155,155,172,1,,,,,,,
,,,,,,,607cbf385d3202721e3f719f,68253199341217ed60ade6d0,2025-05-14_19h13.53.893,cuing_paradigm_dot,2024.1.5,MacIntel,30.12048193,68242c07d0c0e200c6451fdd,,,,,,,,,,,428.8437,429.343,,,429.582,429.8315,right,0.2217,,,,,,,,,0.6,,,,,,429.343,429.582,429.8316,430.9428,0,156,156,161,1,,,,,,,
,,,,,,,607cbf385d3202721e3f719f,68253199341217ed60ade6d0,2025-05-14_19h13.53.893,cuing_paradigm_dot,2024.1.5,MacIntel,30.12048193,68242c07d0c0e200c6451fdd,,,,,,,,,,,430.9431,431.4427,,,431.6983,431.874,right,0.1471,,,,,,,,,0.6,,,,,,431.4427,431.6983,431.8741,432.954,0,157,157,166,1,,,,,,,
,,,,,,,607cbf385d3202721e3f719f,68253199341217ed60ade6d0,2025-05-14_19h13.53.893,cuing_paradigm_dot,2024.1.5,MacIntel,30.12048193,68242c07d0c0e200c6451fdd,,,,,,,,,,,432.9543,433.4429,,,433.6983,433.9488,left,0.2226,,,,,,,,,0.4,,,,,,433.4429,433.6983,433.9488,435.059,0,158,158,56,1,,,,,,,
,,,,,,,607cbf385d3202721e3f719f,68253199341217ed60ade6d0,2025-05-14_19h13.53.893,cuing_paradigm_dot,2024.1.5,MacIntel,30.12048193,68242c07d0c0e200c6451fdd,,,,,,,,,,,435.0594,435.5598,,,435.8151,436.1767,left,0.3341,,,,,,,,,0.5,,,,,,435.5598,435.8151,436.1769,437.259,0,159,159,112,1,,,,,,,
,,,,,,,607cbf385d3202721e3f719f,68253199341217ed60ade6d0,2025-05-14_19h13.53.893,cuing_paradigm_dot,2024.1.5,MacIntel,30.12048193,68242c07d0c0e200c6451fdd,,,,,,,,,,,437.2593,437.7596,,,438.0152,438.3488,right,0.3057,,,,,,,,,0.5,,,,,,437.7596,438.0152,438.3488,439.4592,0,160,160,110,1,,,,,,,
,,,,,,,607cbf385d3202721e3f719f,68253199341217ed60ade6d0,2025-05-14_19h13.53.893,cuing_paradigm_dot,2024.1.5,MacIntel,30.12048193,68242c07d0c0e200c6451fdd,,,,,,,,,,,439.4596,439.9596,,,440.2152,440.4642,right,0.2213,,,,,,,,,0.4,,,,,,439.9596,440.2152,440.4642,441.5763,0,161,161,44,1,,,,,,,
,,,,,,,607cbf385d3202721e3f719f,68253199341217ed60ade6d0,2025-05-14_19h13.53.893,cuing_paradigm_dot,2024.1.5,MacIntel,30.12048193,68242c07d0c0e200c6451fdd,,,,,,,,,,,441.5765,442.0756,,,442.3151,442.6767,right,0.3335,,,,,,,,,0.9,,,,,,442.0756,442.315,442.6767,443.7593,0,162,162,191,1,,,,,,,
,,,,,,,607cbf385d3202721e3f719f,68253199341217ed60ade6d0,2025-05-14_19h13.53.893,cuing_paradigm_dot,2024.1.5,MacIntel,30.12048193,68242c07d0c0e200c6451fdd,,,,,,,,,,,443.7595,444.2593,,,444.5154,445.043,left,0.4996,,,,,,,,,0.5,,,,,,444.2594,444.5153,445.043,446.126,0,163,163,99,1,,,,,,,
,,,,,,,607cbf385d3202721e3f719f,68253199341217ed60ade6d0,2025-05-14_19h13.53.893,cuing_paradigm_dot,2024.1.5,MacIntel,30.12048193,68242c07d0c0e200c6451fdd,,,,,,,,,,,446.1262,446.6255,,,446.8652,447.1984,right,0.3051,,,,,,,,,0.9,,,,,,446.6255,446.8652,447.1984,448.3094,0,164,164,201,1,,,,,,,
,,,,,,,607cbf385d3202721e3f719f,68253199341217ed60ade6d0,2025-05-14_19h13.53.893,cuing_paradigm_dot,2024.1.5,MacIntel,30.12048193,68242c07d0c0e200c6451fdd,,,,,,,,,,,448.3096,448.8096,,,449.0484,449.2982,left,0.222,,,,,,,,,0.1,,,,,,448.8096,449.0484,449.2982,450.4093,0,165,165,7,1,,,,,,,
,,,,,,,607cbf385d3202721e3f719f,68253199341217ed60ade6d0,2025-05-14_19h13.53.893,cuing_paradigm_dot,2024.1.5,MacIntel,30.12048193,68242c07d0c0e200c6451fdd,,,,,,,,,,,450.4096,450.9089,,,451.149,451.3983,right,0.2217,,,,,,,,,0.9,,,,,,450.9089,451.149,451.3984,452.5094,0,166,166,189,1,,,,,,,
,,,,,,,607cbf385d3202721e3f719f,68253199341217ed60ade6d0,2025-05-14_19h13.53.893,cuing_paradigm_dot,2024.1.5,MacIntel,30.12048193,68242c07d0c0e200c6451fdd,,,,,,,,,,,452.5096,453.009,,,453.2655,453.5156,left,0.2223,,,,,,,,,0.1,,,,,,453.009,453.2655,453.5157,454.6148,0,167,167,5,1,,,,,,,
,,,,,,,607cbf385d3202721e3f719f,68253199341217ed60ade6d0,2025-05-14_19h13.53.893,cuing_paradigm_dot,2024.1.5,MacIntel,30.12048193,68242c07d0c0e200c6451fdd,,,,,,,,,,,454.6151,455.1146,,,455.3436,455.6057,right,0.2501,,,,,,,,,0.55,,,,,,455.1147,455.3436,455.6057,456.6981,0,168,168,138,1,,,,,,,
,,,,,,,607cbf385d3202721e3f719f,68253199341217ed60ade6d0,2025-05-14_19h13.53.893,cuing_paradigm_dot,2024.1.5,MacIntel,30.12048193,68242c07d0c0e200c6451fdd,,,,,,,,,,,456.6983,457.198,,,457.4649,457.8819,left,0.389,,,,,,,,,0.4,,,,,,457.198,457.4649,457.8819,458.9916,0,169,169,34,1,,,,,,,
,,,,,,,607cbf385d3202721e3f719f,68253199341217ed60ade6d0,2025-05-14_19h13.53.893,cuing_paradigm_dot,2024.1.5,MacIntel,30.12048193,68242c07d0c0e200c6451fdd,,,,,,,,,,,458.9921,459.4922,,,459.7312,460.0652,left,0.306,,,,,,,,,0.4,,,,,,459.4923,459.7312,460.0652,461.1759,0,170,170,38,1,,,,,,,
,,,,,,,607cbf385d3202721e3f719f,68253199341217ed60ade6d0,2025-05-14_19h13.53.893,cuing_paradigm_dot,2024.1.5,MacIntel,30.12048193,68242c07d0c0e200c6451fdd,,,,,,,,,,,461.1762,461.6755,,,461.9066,462.1983,left,0.2802,,,,,,,,,0.1,,,,,,461.6756,461.9066,462.1983,463.3094,0,171,171,4,1,,,,,,,
,,,,,,,607cbf385d3202721e3f719f,68253199341217ed60ade6d0,2025-05-14_19h13.53.893,cuing_paradigm_dot,2024.1.5,MacIntel,30.12048193,68242c07d0c0e200c6451fdd,,,,,,,,,,,463.3097,463.8089,,,464.0484,464.2982,right,0.222,,,,,,,,,0.9,,,,,,463.8089,464.0483,464.2983,465.4094,0,172,172,205,1,,,,,,,
,,,,,,,607cbf385d3202721e3f719f,68253199341217ed60ade6d0,2025-05-14_19h13.53.893,cuing_paradigm_dot,2024.1.5,MacIntel,30.12048193,68242c07d0c0e200c6451fdd,,,,,,,,,,,465.4096,465.909,,,466.1482,466.3538,left,0.1775,,,,,,,,,0.1,,,,,,465.909,466.1481,466.3538,467.4373,0,173,173,20,1,,,,,,,
,,,,,,,607cbf385d3202721e3f719f,68253199341217ed60ade6d0,2025-05-14_19h13.53.893,cuing_paradigm_dot,2024.1.5,MacIntel,30.12048193,68242c07d0c0e200c6451fdd,,,,,,,,,,,467.4375,467.926,,,468.1818,468.5149,left,0.3048,,,,,,,,,0.4,,,,,,467.926,468.1818,468.5149,469.6256,0,174,174,35,1,,,,,,,
,,,,,,,607cbf385d3202721e3f719f,68253199341217ed60ade6d0,2025-05-14_19h13.53.893,cuing_paradigm_dot,2024.1.5,MacIntel,30.12048193,68242c07d0c0e200c6451fdd,,,,,,,,,,,469.626,470.1258,,,470.3812,470.7144,right,0.3045,,,,,,,,,0.5,,,,,,470.1258,470.3812,470.7144,471.8092,0,175,175,103,1,,,,,,,
,,,,,,,607cbf385d3202721e3f719f,68253199341217ed60ade6d0,2025-05-14_19h13.53.893,cuing_paradigm_dot,2024.1.5,MacIntel,30.12048193,68242c07d0c0e200c6451fdd,,,,,,,,,,,471.8095,472.2923,,,472.5316,472.8573,left,0.2972,,,,,,,,,0.45,,,,,,472.2923,472.5316,472.8574,473.9424,0,176,176,71,1,,,,,,,
,,,,,,,607cbf385d3202721e3f719f,68253199341217ed60ade6d0,2025-05-14_19h13.53.893,cuing_paradigm_dot,2024.1.5,MacIntel,30.12048193,68242c07d0c0e200c6451fdd,,,,,,,,,,,473.9426,474.4423,,,474.6976,474.9484,right,0.2227,,,,,,,,,0.9,,,,,,474.4423,474.6976,474.9484,476.0579,0,177,177,193,1,,,,,,,
,,,,,,,607cbf385d3202721e3f719f,68253199341217ed60ade6d0,2025-05-14_19h13.53.893,cuing_paradigm_dot,2024.1.5,MacIntel,30.12048193,68242c07d0c0e200c6451fdd,,,,,,,,,,,476.0582,476.5592,,,476.8257,476.965,left,0.128,,,,,,,,,0.1,,,,,,476.5592,476.8257,476.965,478.0757,0,178,178,3,1,,,,,,,
,,,,,,,607cbf385d3202721e3f719f,68253199341217ed60ade6d0,2025-05-14_19h13.53.893,cuing_paradigm_dot,2024.1.5,MacIntel,30.12048193,68242c07d0c0e200c6451fdd,,,,,,,,,,,478.076,478.5589,,,478.8148,479.1596,right,0.3164,,,,,,,,,0.45,,,,,,478.5589,478.8148,479.1596,480.2434,0,179,179,80,1,,,,,,,
,,,,,,,607cbf385d3202721e3f719f,68253199341217ed60ade6d0,2025-05-14_19h13.53.893,cuing_paradigm_dot,2024.1.5,MacIntel,30.12048193,68242c07d0c0e200c6451fdd,,,,,,,,,,,480.2436,480.7312,,,480.9816,481.248,left,0.2376,,,,,,,,,0.4,,,,,,480.7312,480.9816,481.248,482.3589,0,180,180,46,1,,,,,,,
,,,,,,,607cbf385d3202721e3f719f,68253199341217ed60ade6d0,2025-05-14_19h13.53.893,cuing_paradigm_dot,2024.1.5,MacIntel,30.12048193,68242c07d0c0e200c6451fdd,,,,,,,,,,,482.3592,482.8588,,,483.1148,483.3643,right,0.222,,,,,,,,,0.6,,,,,,482.8588,483.1147,483.3644,484.4756,0,181,181,175,1,,,,,,,
,,,,,,,607cbf385d3202721e3f719f,68253199341217ed60ade6d0,2025-05-14_19h13.53.893,cuing_paradigm_dot,2024.1.5,MacIntel,30.12048193,68242c07d0c0e200c6451fdd,,,,,,,,,,,484.4759,484.9755,,,485.2314,485.481,left,0.2216,,,,,,,,,0.1,,,,,,484.9755,485.2314,485.4811,486.5755,0,182,182,1,1,,,,,,,
,,,,,,,607cbf385d3202721e3f719f,68253199341217ed60ade6d0,2025-05-14_19h13.53.893,cuing_paradigm_dot,2024.1.5,MacIntel,30.12048193,68242c07d0c0e200c6451fdd,,,,,,,,,,,486.5758,487.0586,,,487.2977,487.6316,left,0.3062,,,,,,,,,0.4,,,,,,487.0586,487.2977,487.6316,488.742,0,183,183,50,1,,,,,,,
,,,,,,,607cbf385d3202721e3f719f,68253199341217ed60ade6d0,2025-05-14_19h13.53.893,cuing_paradigm_dot,2024.1.5,MacIntel,30.12048193,68242c07d0c0e200c6451fdd,,,,,,,,,,,488.7423,489.2253,,,489.4812,489.7589,left,0.2503,,,,,,,,,0.5,,,,,,489.2253,489.4812,489.759,490.8418,0,184,184,90,1,,,,,,,
,,,,,,,607cbf385d3202721e3f719f,68253199341217ed60ade6d0,2025-05-14_19h13.53.893,cuing_paradigm_dot,2024.1.5,MacIntel,30.12048193,68242c07d0c0e200c6451fdd,,,,,,,,,,,490.8421,491.3424,,,491.5981,491.7647,right,0.1388,,,,,,,,,0.9,,,,,,491.3424,491.5981,491.7647,492.8751,0,185,185,182,1,,,,,,,
,,,,,,,607cbf385d3202721e3f719f,68253199341217ed60ade6d0,2025-05-14_19h13.53.893,cuing_paradigm_dot,2024.1.5,MacIntel,30.12048193,68242c07d0c0e200c6451fdd,,,,,,,,,,,492.8754,493.375,,,493.6144,493.9757,right,0.3338,,,,,,,,,0.5,,,,,,493.375,493.6144,493.9757,495.0585,0,186,186,93,1,,,,,,,
,,,,,,,607cbf385d3202721e3f719f,68253199341217ed60ade6d0,2025-05-14_19h13.53.893,cuing_paradigm_dot,2024.1.5,MacIntel,30.12048193,68242c07d0c0e200c6451fdd,,,,,,,,,,,495.0587,495.5586,,,495.8139,496.2313,right,0.3892,,,,,,,,,0.55,,,,,,495.5586,495.8139,496.2313,497.3422,0,187,187,121,1,,,,,,,
,,,,,,,607cbf385d3202721e3f719f,68253199341217ed60ade6d0,2025-05-14_19h13.53.893,cuing_paradigm_dot,2024.1.5,MacIntel,30.12048193,68242c07d0c0e200c6451fdd,,,,,,,,,,,497.3425,497.8256,,,498.0811,498.2757,left,0.1668,,,,,,,,,0.1,,,,,,497.8256,498.0811,498.2757,499.3588,0,188,188,9,1,,,,,,,
,,,,,,,607cbf385d3202721e3f719f,68253199341217ed60ade6d0,2025-05-14_19h13.53.893,cuing_paradigm_dot,2024.1.5,MacIntel,30.12048193,68242c07d0c0e200c6451fdd,,,,,,,,,,,499.359,499.8584,,,500.115,500.3462,left,0.2034,,,,,,,,,0.9,,,,,,499.8584,500.115,500.3462,501.4589,0,189,189,184,1,,,,,,,
,,,,,,,607cbf385d3202721e3f719f,68253199341217ed60ade6d0,2025-05-14_19h13.53.893,cuing_paradigm_dot,2024.1.5,MacIntel,30.12048193,68242c07d0c0e200c6451fdd,,,,,,,,,,,501.4591,501.9422,,,502.1979,502.4983,right,0.2721,,,,,,,,,0.4,,,,,,501.9422,502.1979,502.4983,503.6136,0,190,190,33,1,,,,,,,
,,,,,,,607cbf385d3202721e3f719f,68253199341217ed60ade6d0,2025-05-14_19h13.53.893,cuing_paradigm_dot,2024.1.5,MacIntel,30.12048193,68242c07d0c0e200c6451fdd,,,,,,,,,,,503.6139,504.1141,,,504.3643,504.5707,left,0.1781,,,,,,,,,0.1,,,,,,504.1141,504.3643,504.5708,505.6538,0,191,191,25,1,,,,,,,
,,,,,,,607cbf385d3202721e3f719f,68253199341217ed60ade6d0,2025-05-14_19h13.53.893,cuing_paradigm_dot,2024.1.5,MacIntel,30.12048193,68242c07d0c0e200c6451fdd,,,,,,,,,,,505.654,506.142,,,506.3972,506.7589,right,0.3337,,,,,,,,,0.5,,,,,,506.142,506.3972,506.759,507.8639,0,192,192,104,1,,,,,,,
,,,,,,,607cbf385d3202721e3f719f,68253199341217ed60ade6d0,2025-05-14_19h13.53.893,cuing_paradigm_dot,2024.1.5,MacIntel,30.12048193,68242c07d0c0e200c6451fdd,,,,,,,,,,,507.8641,508.364,,,508.5922,508.855,left,0.2515,,,,,,,,,0.1,,,,,,508.364,508.5922,508.8551,509.9365,0,193,193,22,1,,,,,,,
,,,,,,,607cbf385d3202721e3f719f,68253199341217ed60ade6d0,2025-05-14_19h13.53.893,cuing_paradigm_dot,2024.1.5,MacIntel,30.12048193,68242c07d0c0e200c6451fdd,,,,,,,,,,,509.9368,510.4253,,,510.6554,510.9141,right,0.247,,,,,,,,,0.9,,,,,,510.4253,510.6554,510.9142,512.0253,0,194,194,200,1,,,,,,,
,,,,,,,607cbf385d3202721e3f719f,68253199341217ed60ade6d0,2025-05-14_19h13.53.893,cuing_paradigm_dot,2024.1.5,MacIntel,30.12048193,68242c07d0c0e200c6451fdd,,,,,,,,,,,512.0256,512.5078,,,512.764,513.0142,left,0.2224,,,,,,,,,0.4,,,,,,512.5078,512.764,513.0143,514.1247,0,195,195,58,1,,,,,,,
,,,,,,,607cbf385d3202721e3f719f,68253199341217ed60ade6d0,2025-05-14_19h13.53.893,cuing_paradigm_dot,2024.1.5,MacIntel,30.12048193,68242c07d0c0e200c6451fdd,,,,,,,,,,,514.1252,514.6248,,,514.8643,515.155,right,0.2623,,,,,,,,,0.6,,,,,,514.6248,514.8643,515.155,516.2363,0,196,196,173,1,,,,,,,
,,,,,,,607cbf385d3202721e3f719f,68253199341217ed60ade6d0,2025-05-14_19h13.53.893,cuing_paradigm_dot,2024.1.5,MacIntel,30.12048193,68242c07d0c0e200c6451fdd,,,,,,,,,,,516.2366,516.7253,,,516.9808,517.2303,left,0.2218,,,,,,,,,0.5,,,,,,516.7253,516.9808,517.2303,518.3471,0,197,197,119,1,,,,,,,
,,,,,,,607cbf385d3202721e3f719f,68253199341217ed60ade6d0,2025-05-14_19h13.53.893,cuing_paradigm_dot,2024.1.5,MacIntel,30.12048193,68242c07d0c0e200c6451fdd,,,,,,,,,,,518.3473,518.8475,,,519.1141,519.4479,left,0.3057,,,,,,,,,0.6,,,,,,518.8475,519.114,519.4479,520.5585,0,198,198,150,1,,,,,,,
,,,,,,,607cbf385d3202721e3f719f,68253199341217ed60ade6d0,2025-05-14_19h13.53.893,cuing_paradigm_dot,2024.1.5,MacIntel,30.12048193,68242c07d0c0e200c6451fdd,,,,,,,,,,,520.5589,521.0583,,,521.284,521.5104,right,0.1978,,,,,,,,,0.6,,,,,,521.0583,521.284,521.5104,522.5916,0,199,199,164,1,,,,,,,
,,,,,,,607cbf385d3202721e3f719f,68253199341217ed60ade6d0,2025-05-14_19h13.53.893,cuing_paradigm_dot,2024.1.5,MacIntel,30.12048193,68242c07d0c0e200c6451fdd,,,,,,,,,,,522.592,523.0914,,,523.3304,523.6634,right,0.3052,,,,,,,,,0.6,,,,,,523.0914,523.3304,523.6635,524.7751,0,200,200,177,1,,,,,,,
,,,,,,,607cbf385d3202721e3f719f,68253199341217ed60ade6d0,2025-05-14_19h13.53.893,cuing_paradigm_dot,2024.1.5,MacIntel,30.12048193,68242c07d0c0e200c6451fdd,,,,,,,,,,,524.7753,525.2751,,,525.5304,525.8091,right,0.2507,,,,,,,,,0.55,,,,,,525.2751,525.5304,525.8091,526.8917,0,201,201,131,1,,,,,,,
,,,,,,,607cbf385d3202721e3f719f,68253199341217ed60ade6d0,2025-05-14_19h13.53.893,cuing_paradigm_dot,2024.1.5,MacIntel,30.12048193,68242c07d0c0e200c6451fdd,,,,,,,,,,,526.8921,527.3914,,,527.6472,528.009,right,0.3336,,,,,,,,,0.55,,,,,,527.3915,527.6472,528.009,529.1135,0,202,202,126,1,,,,,,,
,,,,,,,607cbf385d3202721e3f719f,68253199341217ed60ade6d0,2025-05-14_19h13.53.893,cuing_paradigm_dot,2024.1.5,MacIntel,30.12048193,68242c07d0c0e200c6451fdd,,,,,,,,,,,529.1138,529.6249,,,529.8803,530.1591,left,0.2508,,,,,,,,,0.45,,,,,,529.6249,529.8803,530.1591,531.2412,0,203,203,81,1,,,,,,,
,,,,,,,607cbf385d3202721e3f719f,68253199341217ed60ade6d0,2025-05-14_19h13.53.893,cuing_paradigm_dot,2024.1.5,MacIntel,30.12048193,68242c07d0c0e200c6451fdd,,,,,,,,,,,531.2416,531.741,,,531.981,532.2799,left,0.2706,,,,,,,,,0.45,,,,,,531.741,531.981,532.2799,533.392,0,204,204,77,1,,,,,,,
,,,,,,,607cbf385d3202721e3f719f,68253199341217ed60ade6d0,2025-05-14_19h13.53.893,cuing_paradigm_dot,2024.1.5,MacIntel,30.12048193,68242c07d0c0e200c6451fdd,,,,,,,,,,,533.3923,533.8913,,,534.1473,534.3977,right,0.2225,,,,,,,,,0.9,,,,,,533.8914,534.1473,534.3977,535.4913,0,205,205,207,1,,,,,,,
,,,,,,,607cbf385d3202721e3f719f,68253199341217ed60ade6d0,2025-05-14_19h13.53.893,cuing_paradigm_dot,2024.1.5,MacIntel,30.12048193,68242c07d0c0e200c6451fdd,,,,,,,,,,,535.4915,535.9915,,,536.2475,536.4803,right,0.2042,,,,,,,,,0.9,,,,,,535.9916,536.2475,536.4803,537.5723,0,206,206,197,1,,,,,,,
,,,,,,,607cbf385d3202721e3f719f,68253199341217ed60ade6d0,2025-05-14_19h13.53.893,cuing_paradigm_dot,2024.1.5,MacIntel,30.12048193,68242c07d0c0e200c6451fdd,,,,,,,,,,,537.5726,538.0582,,,538.2975,538.4637,right,0.1383,,,,,,,,,0.9,,,,,,538.0582,538.2975,538.4637,539.5745,0,207,207,180,1,,,,,,,
,,,,,,,607cbf385d3202721e3f719f,68253199341217ed60ade6d0,2025-05-14_19h13.53.893,cuing_paradigm_dot,2024.1.5,MacIntel,30.12048193,68242c07d0c0e200c6451fdd,,,,,,,,,,,539.5749,540.0754,,,540.3302,540.4976,right,0.1392,,,,,,,,,0.9,,,,,,540.0754,540.3302,540.4976,541.6081,0,208,208,203,1,,,,,,,
,,,,,,,607cbf385d3202721e3f719f,68253199341217ed60ade6d0,2025-05-14_19h13.53.893,cuing_paradigm_dot,2024.1.5,MacIntel,30.12048193,68242c07d0c0e200c6451fdd,,,,,,,,,,,541.6083,542.1079,,,542.3472,542.6812,left,0.306,,,,,,,,,0.6,,,,,,542.1079,542.3472,542.6812,543.7969,0,209,209,153,1,,,,,,,
,,,,,,,607cbf385d3202721e3f719f,68253199341217ed60ade6d0,2025-05-14_19h13.53.893,cuing_paradigm_dot,2024.1.5,MacIntel,30.12048193,68242c07d0c0e200c6451fdd,,,,,,,,,,,,,,,,,,,,,,,,,,,,,,,,,,,,,,,,,,543.7972,603.7913,,,,,
,,,,,,,607cbf385d3202721e3f719f,68253199341217ed60ade6d0,2025-05-14_19h13.53.893,cuing_paradigm_dot,2024.1.5,MacIntel,30.12048193,68242c07d0c0e200c6451fdd,,,,,,,,,,,603.8052,604.3127,,,604.5373,605.08,left,0.5009,,,,,,,,,0.4,,,,,,604.3127,604.5373,605.0801,606.196,,,,,,,,0,0,0,48,1
,,,,,,,607cbf385d3202721e3f719f,68253199341217ed60ade6d0,2025-05-14_19h13.53.893,cuing_paradigm_dot,2024.1.5,MacIntel,30.12048193,68242c07d0c0e200c6451fdd,,,,,,,,,,,606.1963,606.696,,,606.9246,607.3966,right,0.4596,,,,,,,,,0.5,,,,,,606.696,606.9246,607.3966,608.5072,,,,,,,,0,1,1,105,1
,,,,,,,607cbf385d3202721e3f719f,68253199341217ed60ade6d0,2025-05-14_19h13.53.893,cuing_paradigm_dot,2024.1.5,MacIntel,30.12048193,68242c07d0c0e200c6451fdd,,,,,,,,,,,608.5074,609.0072,,,609.2633,609.5416,left,0.2504,,,,,,,,,0.1,,,,,,609.0072,609.2633,609.5416,610.646,,,,,,,,0,2,2,25,1
,,,,,,,607cbf385d3202721e3f719f,68253199341217ed60ade6d0,2025-05-14_19h13.53.893,cuing_paradigm_dot,2024.1.5,MacIntel,30.12048193,68242c07d0c0e200c6451fdd,,,,,,,,,,,610.6462,611.1458,,,611.3711,611.5909,left,0.2083,,,,,,,,,0.45,,,,,,611.1458,611.3711,611.5909,612.6739,,,,,,,,0,3,3,81,1
,,,,,,,607cbf385d3202721e3f719f,68253199341217ed60ade6d0,2025-05-14_19h13.53.893,cuing_paradigm_dot,2024.1.5,MacIntel,30.12048193,68242c07d0c0e200c6451fdd,,,,,,,,,,,612.6741,613.1738,,,613.4122,613.6196,left,0.1782,,,,,,,,,0.6,,,,,,613.1738,613.4122,613.6196,614.702,,,,,,,,0,4,4,160,1
,,,,,,,607cbf385d3202721e3f719f,68253199341217ed60ade6d0,2025-05-14_19h13.53.893,cuing_paradigm_dot,2024.1.5,MacIntel,30.12048193,68242c07d0c0e200c6451fdd,,,,,,,,,,,614.7022,615.1903,,,615.4299,615.762,left,0.3037,,,,,,,,,0.4,,,,,,615.1903,615.4299,615.762,616.8735,,,,,,,,0,5,5,31,1
,,,,,,,607cbf385d3202721e3f719f,68253199341217ed60ade6d0,2025-05-14_19h13.53.893,cuing_paradigm_dot,2024.1.5,MacIntel,30.12048193,68242c07d0c0e200c6451fdd,,,,,,,,,,,616.8737,617.3739,,,617.6294,618.0037,right,0.3464,,,,,,,,,0.6,,,,,,617.374,617.6294,618.0038,619.1121,,,,,,,,0,6,6,172,1
,,,,,,,607cbf385d3202721e3f719f,68253199341217ed60ade6d0,2025-05-14_19h13.53.893,cuing_paradigm_dot,2024.1.5,MacIntel,30.12048193,68242c07d0c0e200c6451fdd,,,,,,,,,,,619.1124,619.6231,,,619.8631,620.3207,left,0.4292,,,,,,,,,0.4,,,,,,619.6231,619.863,620.3207,621.4124,,,,,,,,0,7,7,42,1
,,,,,,,607cbf385d3202721e3f719f,68253199341217ed60ade6d0,2025-05-14_19h13.53.893,cuing_paradigm_dot,2024.1.5,MacIntel,30.12048193,68242c07d0c0e200c6451fdd,,,,,,,,,,,621.4127,621.9124,,,622.163,622.4535,left,0.2627,,,,,,,,,0.5,,,,,,621.9124,622.1629,622.4535,623.5357,,,,,,,,0,8,8,98,1
,,,,,,,607cbf385d3202721e3f719f,68253199341217ed60ade6d0,2025-05-14_19h13.53.893,cuing_paradigm_dot,2024.1.5,MacIntel,30.12048193,68242c07d0c0e200c6451fdd,,,,,,,,,,,623.5362,624.0459,,,624.2872,624.5912,right,0.2926,,,,,,,,,0.6,,,,,,624.0459,624.2872,624.5912,625.6738,,,,,,,,0,9,9,162,1
,,,,,,,607cbf385d3202721e3f719f,68253199341217ed60ade6d0,2025-05-14_19h13.53.893,cuing_paradigm_dot,2024.1.5,MacIntel,30.12048193,68242c07d0c0e200c6451fdd,,,,,,,,,,,625.674,626.1737,,,626.4295,626.7083,right,0.251,,,,,,,,,0.6,,,,,,626.1737,626.4294,626.7083,627.7909,,,,,,,,0,10,10,155,1
,,,,,,,607cbf385d3202721e3f719f,68253199341217ed60ade6d0,2025-05-14_19h13.53.893,cuing_paradigm_dot,2024.1.5,MacIntel,30.12048193,68242c07d0c0e200c6451fdd,,,,,,,,,,,627.7911,628.2905,,,628.5293,628.7792,right,0.2218,,,,,,,,,0.9,,,,,,628.2905,628.5293,628.7793,629.8913,,,,,,,,0,11,11,205,1
,,,,,,,607cbf385d3202721e3f719f,68253199341217ed60ade6d0,2025-05-14_19h13.53.893,cuing_paradigm_dot,2024.1.5,MacIntel,30.12048193,68242c07d0c0e200c6451fdd,,,,,,,,,,,629.8917,630.3736,,,630.6291,630.9071,right,0.2499,,,,,,,,,0.6,,,,,,630.3736,630.6291,630.9072,631.9895,,,,,,,,0,12,12,157,1
,,,,,,,607cbf385d3202721e3f719f,68253199341217ed60ade6d0,2025-05-14_19h13.53.893,cuing_paradigm_dot,2024.1.5,MacIntel,30.12048193,68242c07d0c0e200c6451fdd,,,,,,,,,,,631.9898,632.4904,,,632.7373,633.0295,left,0.2501,,,,,,,,,0.5,,,,,,632.4904,632.7372,633.0295,634.1403,,,,,,,,0,13,13,92,1
,,,,,,,607cbf385d3202721e3f719f,68253199341217ed60ade6d0,2025-05-14_19h13.53.893,cuing_paradigm_dot,2024.1.5,MacIntel,30.12048193,68242c07d0c0e200c6451fdd,,,,,,,,,,,634.1407,634.6233,,,634.889,635.1415,left,0.2407,,,,,,,,,0.55,,,,,,634.6233,634.8889,635.1415,636.2455,,,,,,,,0,14,14,139,1
,,,,,,,607cbf385d3202721e3f719f,68253199341217ed60ade6d0,2025-05-14_19h13.53.893,cuing_paradigm_dot,2024.1.5,MacIntel,30.12048193,68242c07d0c0e200c6451fdd,,,,,,,,,,,636.2457,636.7242,,,636.9795,637.2574,left,0.25,,,,,,,,,0.55,,,,,,636.7242,636.9795,637.2574,638.3404,,,,,,,,0,15,15,137,1
,,,,,,,607cbf385d3202721e3f719f,68253199341217ed60ade6d0,2025-05-14_19h13.53.893,cuing_paradigm_dot,2024.1.5,MacIntel,30.12048193,68242c07d0c0e200c6451fdd,,,,,,,,,,,638.3407,638.8233,,,639.0793,639.2733,right,0.1661,,,,,,,,,0.45,,,,,,638.8234,639.0793,639.2734,640.3519,,,,,,,,0,16,16,71,1
,,,,,,,607cbf385d3202721e3f719f,68253199341217ed60ade6d0,2025-05-14_19h13.53.893,cuing_paradigm_dot,2024.1.5,MacIntel,30.12048193,68242c07d0c0e200c6451fdd,,,,,,,,,,,640.3523,640.84,,,641.0956,641.3961,right,0.272,,,,,,,,,0.9,,,,,,640.8401,641.0956,641.3961,642.5064,,,,,,,,0,17,17,193,1
,,,,,,,607cbf385d3202721e3f719f,68253199341217ed60ade6d0,2025-05-14_19h13.53.893,cuing_paradigm_dot,2024.1.5,MacIntel,30.12048193,68242c07d0c0e200c6451fdd,,,,,,,,,,,642.5067,643.0069,,,643.2623,643.5358,left,0.245,,,,,,,,,0.45,,,,,,643.007,643.2622,643.5358,644.6179,,,,,,,,0,18,18,88,1
,,,,,,,607cbf385d3202721e3f719f,68253199341217ed60ade6d0,2025-05-14_19h13.53.893,cuing_paradigm_dot,2024.1.5,MacIntel,30.12048193,68242c07d0c0e200c6451fdd,,,,,,,,,,,644.6181,645.1064,,,645.3454,645.6237,left,0.2496,,,,,,,,,0.6,,,,,,645.1064,645.3454,645.6237,646.7069,,,,,,,,0,19,19,151,1
,,,,,,,607cbf385d3202721e3f719f,68253199341217ed60ade6d0,2025-05-14_19h13.53.893,cuing_paradigm_dot,2024.1.5,MacIntel,30.12048193,68242c07d0c0e200c6451fdd,,,,,,,,,,,646.7072,647.2067,,,647.461,647.7956,right,0.3068,,,,,,,,,0.4,,,,,,647.2067,647.461,647.7956,648.9064,,,,,,,,0,20,20,51,1
,,,,,,,607cbf385d3202721e3f719f,68253199341217ed60ade6d0,2025-05-14_19h13.53.893,cuing_paradigm_dot,2024.1.5,MacIntel,30.12048193,68242c07d0c0e200c6451fdd,,,,,,,,,,,648.9066,649.4044,,,649.6454,649.9791,left,0.3056,,,,,,,,,0.4,,,,,,649.4044,649.6454,649.9791,651.0926,,,,,,,,0,21,21,44,1
,,,,,,,607cbf385d3202721e3f719f,68253199341217ed60ade6d0,2025-05-14_19h13.53.893,cuing_paradigm_dot,2024.1.5,MacIntel,30.12048193,68242c07d0c0e200c6451fdd,,,,,,,,,,,651.0928,651.5954,,,651.8627,652.0574,left,0.1669,,,,,,,,,0.1,,,,,,651.5954,651.8626,652.0575,653.1621,,,,,,,,0,22,22,18,1
,,,,,,,607cbf385d3202721e3f719f,68253199341217ed60ade6d0,2025-05-14_19h13.53.893,cuing_paradigm_dot,2024.1.5,MacIntel,30.12048193,68242c07d0c0e200c6451fdd,,,,,,,,,,,653.1623,653.6732,,,653.9291,654.262,left,0.305,,,,,,,,,0.6,,,,,,653.6733,653.9291,654.262,655.3737,,,,,,,,0,23,23,161,1
,,,,,,,607cbf385d3202721e3f719f,68253199341217ed60ade6d0,2025-05-14_19h13.53.893,cuing_paradigm_dot,2024.1.5,MacIntel,30.12048193,68242c07d0c0e200c6451fdd,,,,,,,,,,,655.374,655.873,,,656.1294,656.42,right,0.2627,,,,,,,,,0.55,,,,,,655.873,656.1293,656.42,657.5012,,,,,,,,0,24,24,149,1
,,,,,,,607cbf385d3202721e3f719f,68253199341217ed60ade6d0,2025-05-14_19h13.53.893,cuing_paradigm_dot,2024.1.5,MacIntel,30.12048193,68242c07d0c0e200c6451fdd,,,,,,,,,,,657.5015,658.012,,,658.2787,658.6404,left,0.3338,,,,,,,,,0.45,,,,,,658.012,658.2787,658.6404,659.7179,,,,,,,,0,25,25,75,1
,,,,,,,607cbf385d3202721e3f719f,68253199341217ed60ade6d0,2025-05-14_19h13.53.893,cuing_paradigm_dot,2024.1.5,MacIntel,30.12048193,68242c07d0c0e200c6451fdd,,,,,,,,,,,659.7181,660.2061,,,660.4625,660.778,left,0.2874,,,,,,,,,0.55,,,,,,660.2061,660.4625,660.778,661.895,,,,,,,,0,26,26,148,1
,,,,,,,607cbf385d3202721e3f719f,68253199341217ed60ade6d0,2025-05-14_19h13.53.893,cuing_paradigm_dot,2024.1.5,MacIntel,30.12048193,68242c07d0c0e200c6451fdd,,,,,,,,,,,661.8953,662.395,,,662.6446,662.9238,left,0.2516,,,,,,,,,0.1,,,,,,662.395,662.6446,662.9238,664.007,,,,,,,,0,27,27,11,1
,,,,,,,607cbf385d3202721e3f719f,68253199341217ed60ade6d0,2025-05-14_19h13.53.893,cuing_paradigm_dot,2024.1.5,MacIntel,30.12048193,68242c07d0c0e200c6451fdd,,,,,,,,,,,664.0073,664.5019,,,664.7532,665.0562,right,0.2913,,,,,,,,,0.9,,,,,,664.5019,664.7532,665.0562,666.1394,,,,,,,,0,28,28,201,1
,,,,,,,607cbf385d3202721e3f719f,68253199341217ed60ade6d0,2025-05-14_19h13.53.893,cuing_paradigm_dot,2024.1.5,MacIntel,30.12048193,68242c07d0c0e200c6451fdd,,,,,,,,,,,666.1398,666.6323,,,666.8577,667.1791,left,0.2923,,,,,,,,,0.6,,,,,,666.6323,666.8577,667.1791,668.2898,,,,,,,,0,29,29,154,1
,,,,,,,607cbf385d3202721e3f719f,68253199341217ed60ade6d0,2025-05-14_19h13.53.893,cuing_paradigm_dot,2024.1.5,MacIntel,30.12048193,68242c07d0c0e200c6451fdd,,,,,,,,,,,668.2902,668.7897,,,669.0455,669.4069,left,0.3327,,,,,,,,,0.45,,,,,,668.7897,669.0455,669.407,670.4898,,,,,,,,0,30,30,85,1
,,,,,,,607cbf385d3202721e3f719f,68253199341217ed60ade6d0,2025-05-14_19h13.53.893,cuing_paradigm_dot,2024.1.5,MacIntel,30.12048193,68242c07d0c0e200c6451fdd,,,,,,,,,,,670.4901,670.9899,,,671.2454,671.5362,left,0.2625,,,,,,,,,0.45,,,,,,670.9899,671.2453,671.5363,672.6181,,,,,,,,0,31,31,64,1
,,,,,,,607cbf385d3202721e3f719f,68253199341217ed60ade6d0,2025-05-14_19h13.53.893,cuing_paradigm_dot,2024.1.5,MacIntel,30.12048193,68242c07d0c0e200c6451fdd,,,,,,,,,,,672.6185,673.1062,,,673.3622,673.6235,left,0.2333,,,,,,,,,0.45,,,,,,673.1062,673.3622,673.6236,674.7284,,,,,,,,0,32,32,66,1
,,,,,,,607cbf385d3202721e3f719f,68253199341217ed60ade6d0,2025-05-14_19h13.53.893,cuing_paradigm_dot,2024.1.5,MacIntel,30.12048193,68242c07d0c0e200c6451fdd,,,,,,,,,,,674.7288,675.2282,,,675.4655,675.6453,right,0.1519,,,,,,,,,0.9,,,,,,675.2282,675.4655,675.6453,676.7562,,,,,,,,0,33,33,197,1
,,,,,,,607cbf385d3202721e3f719f,68253199341217ed60ade6d0,2025-05-14_19h13.53.893,cuing_paradigm_dot,2024.1.5,MacIntel,30.12048193,68242c07d0c0e200c6451fdd,,,,,,,,,,,676.7565,677.2563,,,677.4955,677.6608,right,0.1375,,,,,,,,,0.9,,,,,,677.2563,677.4955,677.6608,678.7729,,,,,,,,0,34,34,189,1
,,,,,,,607cbf385d3202721e3f719f,68253199341217ed60ade6d0,2025-05-14_19h13.53.893,cuing_paradigm_dot,2024.1.5,MacIntel,30.12048193,68242c07d0c0e200c6451fdd,,,,,,,,,,,678.7733,679.2728,,,679.512,679.7618,left,0.2216,,,,,,,,,0.4,,,,,,679.2728,679.512,679.7618,680.8731,,,,,,,,0,35,35,50,1
,,,,,,,607cbf385d3202721e3f719f,68253199341217ed60ade6d0,2025-05-14_19h13.53.893,cuing_paradigm_dot,2024.1.5,MacIntel,30.12048193,68242c07d0c0e200c6451fdd,,,,,,,,,,,680.8734,681.3732,,,681.6288,681.8793,right,0.2226,,,,,,,,,0.9,,,,,,681.3732,681.6288,681.8793,682.9899,,,,,,,,0,36,36,204,1
,,,,,,,607cbf385d3202721e3f719f,68253199341217ed60ade6d0,2025-05-14_19h13.53.893,cuing_paradigm_dot,2024.1.5,MacIntel,30.12048193,68242c07d0c0e200c6451fdd,,,,,,,,,,,682.9901,683.473,,,683.7284,683.8944,right,0.1378,,,,,,,,,0.55,,,,,,683.473,683.7284,683.8945,685.0062,,,,,,,,0,37,37,142,1
,,,,,,,607cbf385d3202721e3f719f,68253199341217ed60ade6d0,2025-05-14_19h13.53.893,cuing_paradigm_dot,2024.1.5,MacIntel,30.12048193,68242c07d0c0e200c6451fdd,,,,,,,,,,,685.0066,685.5058,,,685.7452,686.2737,right,0.5004,,,,,,,,,0.55,,,,,,685.5058,685.7452,686.2738,687.3768,,,,,,,,0,38,38,127,1
,,,,,,,607cbf385d3202721e3f719f,68253199341217ed60ade6d0,2025-05-14_19h13.53.893,cuing_paradigm_dot,2024.1.5,MacIntel,30.12048193,68242c07d0c0e200c6451fdd,,,,,,,,,,,687.377,687.8781,,,688.1452,688.3954,right,0.2222,,,,,,,,,0.9,,,,,,687.8782,688.1452,688.3954,689.5059,,,,,,,,0,39,39,182,1
,,,,,,,607cbf385d3202721e3f719f,68253199341217ed60ade6d0,2025-05-14_19h13.53.893,cuing_paradigm_dot,2024.1.5,MacIntel,30.12048193,68242c07d0c0e200c6451fdd,,,,,,,,,,,689.5062,690.0061,,,690.262,690.4671,left,0.1767,,,,,,,,,0.45,,,,,,690.0061,690.2619,690.4671,691.562,,,,,,,,0,40,40,77,1
,,,,,,,607cbf385d3202721e3f719f,68253199341217ed60ade6d0,2025-05-14_19h13.53.893,cuing_paradigm_dot,2024.1.5,MacIntel,30.12048193,68242c07d0c0e200c6451fdd,,,,,,,,,,,691.5623,692.056,,,692.3119,692.6024,right,0.2622,,,,,,,,,0.55,,,,,,692.0561,692.3119,692.6024,693.6842,,,,,,,,0,41,41,136,1
,,,,,,,607cbf385d3202721e3f719f,68253199341217ed60ade6d0,2025-05-14_19h13.53.893,cuing_paradigm_dot,2024.1.5,MacIntel,30.12048193,68242c07d0c0e200c6451fdd,,,,,,,,,,,693.6845,694.166,,,694.4029,694.6777,right,0.2331,,,,,,,,,0.5,,,,,,694.166,694.4029,694.6778,695.7883,,,,,,,,0,42,42,108,1
,,,,,,,607cbf385d3202721e3f719f,68253199341217ed60ade6d0,2025-05-14_19h13.53.893,cuing_paradigm_dot,2024.1.5,MacIntel,30.12048193,68242c07d0c0e200c6451fdd,,,,,,,,,,,695.7887,696.2727,,,696.5122,696.8256,left,0.2855,,,,,,,,,0.4,,,,,,696.2727,696.5122,696.8257,697.9063,,,,,,,,0,43,43,38,1
,,,,,,,607cbf385d3202721e3f719f,68253199341217ed60ade6d0,2025-05-14_19h13.53.893,cuing_paradigm_dot,2024.1.5,MacIntel,30.12048193,68242c07d0c0e200c6451fdd,,,,,,,,,,,697.9065,698.406,,,698.6614,698.9948,left,0.3056,,,,,,,,,0.45,,,,,,698.406,698.6614,698.9949,700.1052,,,,,,,,0,44,44,68,1
,,,,,,,607cbf385d3202721e3f719f,68253199341217ed60ade6d0,2025-05-14_19h13.53.893,cuing_paradigm_dot,2024.1.5,MacIntel,30.12048193,68242c07d0c0e200c6451fdd,,,,,,,,,,,700.1055,700.6062,,,700.8618,701.1118,left,0.2214,,,,,,,,,0.6,,,,,,700.6062,700.8618,701.1118,702.2221,,,,,,,,0,45,45,150,1
,,,,,,,607cbf385d3202721e3f719f,68253199341217ed60ade6d0,2025-05-14_19h13.53.893,cuing_paradigm_dot,2024.1.5,MacIntel,30.12048193,68242c07d0c0e200c6451fdd,,,,,,,,,,,702.2224,702.7227,,,702.9784,703.2676,left,0.2616,,,,,,,,,0.4,,,,,,702.7227,702.9784,703.2678,704.3511,,,,,,,,0,46,46,57,1
,,,,,,,607cbf385d3202721e3f719f,68253199341217ed60ade6d0,2025-05-14_19h13.53.893,cuing_paradigm_dot,2024.1.5,MacIntel,30.12048193,68242c07d0c0e200c6451fdd,,,,,,,,,,,704.3514,704.8388,,,705.0782,705.4241,right,0.3172,,,,,,,,,0.5,,,,,,704.8389,705.0781,705.4241,706.4998,,,,,,,,0,47,47,101,1
,,,,,,,607cbf385d3202721e3f719f,68253199341217ed60ade6d0,2025-05-14_19h13.53.893,cuing_paradigm_dot,2024.1.5,MacIntel,30.12048193,68242c07d0c0e200c6451fdd,,,,,,,,,,,706.5,706.989,,,707.2448,707.5025,right,0.2292,,,,,,,,,0.55,,,,,,706.989,707.2448,707.5025,708.5836,,,,,,,,0,48,48,132,1
,,,,,,,607cbf385d3202721e3f719f,68253199341217ed60ade6d0,2025-05-14_19h13.53.893,cuing_paradigm_dot,2024.1.5,MacIntel,30.12048193,68242c07d0c0e200c6451fdd,,,,,,,,,,,708.5838,709.0721,,,709.3284,709.6619,right,0.3055,,,,,,,,,0.5,,,,,,709.0721,709.3284,709.6619,710.7721,,,,,,,,0,49,49,112,1
,,,,,,,607cbf385d3202721e3f719f,68253199341217ed60ade6d0,2025-05-14_19h13.53.893,cuing_paradigm_dot,2024.1.5,MacIntel,30.12048193,68242c07d0c0e200c6451fdd,,,,,,,,,,,710.7724,711.2737,,,711.5226,711.7682,left,0.2326,,,,,,,,,0.4,,,,,,711.2737,711.5225,711.7682,712.8508,,,,,,,,0,50,50,30,1
,,,,,,,607cbf385d3202721e3f719f,68253199341217ed60ade6d0,2025-05-14_19h13.53.893,cuing_paradigm_dot,2024.1.5,MacIntel,30.12048193,68242c07d0c0e200c6451fdd,,,,,,,,,,,712.851,713.3395,,,713.5947,714.0123,right,0.3894,,,,,,,,,0.5,,,,,,713.3395,713.5947,714.0123,715.1224,,,,,,,,0,51,51,107,1
,,,,,,,607cbf385d3202721e3f719f,68253199341217ed60ade6d0,2025-05-14_19h13.53.893,cuing_paradigm_dot,2024.1.5,MacIntel,30.12048193,68242c07d0c0e200c6451fdd,,,,,,,,,,,715.1227,715.6278,,,715.8948,716.1559,left,0.2326,,,,,,,,,0.45,,,,,,715.6278,715.8948,716.1559,717.2391,,,,,,,,0,52,52,86,1
,,,,,,,607cbf385d3202721e3f719f,68253199341217ed60ade6d0,2025-05-14_19h13.53.893,cuing_paradigm_dot,2024.1.5,MacIntel,30.12048193,68242c07d0c0e200c6451fdd,,,,,,,,,,,717.2394,717.739,,,717.9946,718.3562,right,0.3337,,,,,,,,,0.6,,,,,,717.739,717.9946,718.3562,719.4387,,,,,,,,0,53,53,179,1
,,,,,,,607cbf385d3202721e3f719f,68253199341217ed60ade6d0,2025-05-14_19h13.53.893,cuing_paradigm_dot,2024.1.5,MacIntel,30.12048193,68242c07d0c0e200c6451fdd,,,,,,,,,,,719.439,719.939,,,720.1692,720.5856,left,0.4049,,,,,,,,,0.5,,,,,,719.939,720.1691,720.5856,721.6777,,,,,,,,0,54,54,106,1
,,,,,,,607cbf385d3202721e3f719f,68253199341217ed60ade6d0,2025-05-14_19h13.53.893,cuing_paradigm_dot,2024.1.5,MacIntel,30.12048193,68242c07d0c0e200c6451fdd,,,,,,,,,,,721.678,722.1778,,,722.4448,722.6952,left,0.2224,,,,,,,,,0.6,,,,,,722.1779,722.4447,722.6953,723.8052,,,,,,,,0,55,55,173,1
,,,,,,,607cbf385d3202721e3f719f,68253199341217ed60ade6d0,2025-05-14_19h13.53.893,cuing_paradigm_dot,2024.1.5,MacIntel,30.12048193,68242c07d0c0e200c6451fdd,,,,,,,,,,,723.8055,724.2887,,,724.5444,724.8062,right,0.2329,,,,,,,,,0.5,,,,,,724.2887,724.5444,724.8062,725.8876,,,,,,,,0,56,56,115,1
,,,,,,,607cbf385d3202721e3f719f,68253199341217ed60ade6d0,2025-05-14_19h13.53.893,cuing_paradigm_dot,2024.1.5,MacIntel,30.12048193,68242c07d0c0e200c6451fdd,,,,,,,,,,,725.8879,726.3725,,,726.6277,726.7931,right,0.1375,,,,,,,,,0.9,,,,,,726.3725,726.6277,726.7931,727.9055,,,,,,,,0,57,57,202,1
,,,,,,,607cbf385d3202721e3f719f,68253199341217ed60ade6d0,2025-05-14_19h13.53.893,cuing_paradigm_dot,2024.1.5,MacIntel,30.12048193,68242c07d0c0e200c6451fdd,,,,,,,,,,,727.9057,728.3888,,,728.6277,728.7947,right,0.1393,,,,,,,,,0.9,,,,,,728.3888,728.6277,728.7948,729.9055,,,,,,,,0,58,58,192,1
,,,,,,,607cbf385d3202721e3f719f,68253199341217ed60ade6d0,2025-05-14_19h13.53.893,cuing_paradigm_dot,2024.1.5,MacIntel,30.12048193,68242c07d0c0e200c6451fdd,,,,,,,,,,,729.906,730.4058,,,730.6453,730.8784,right,0.2044,,,,,,,,,0.55,,,,,,730.4058,730.6453,730.8784,731.9887,,,,,,,,0,59,59,120,1
,,,,,,,607cbf385d3202721e3f719f,68253199341217ed60ade6d0,2025-05-14_19h13.53.893,cuing_paradigm_dot,2024.1.5,MacIntel,30.12048193,68242c07d0c0e200c6451fdd,,,,,,,,,,,731.989,732.4885,,,732.7187,732.9117,left,0.1815,,,,,,,,,0.1,,,,,,732.4885,732.7187,732.9117,734.0053,,,,,,,,0,60,60,3,1
,,,,,,,607cbf385d3202721e3f719f,68253199341217ed60ade6d0,2025-05-14_19h13.53.893,cuing_paradigm_dot,2024.1.5,MacIntel,30.12048193,68242c07d0c0e200c6451fdd,,,,,,,,,,,734.0056,734.505,,,734.761,735.0395,left,0.2507,,,,,,,,,0.4,,,,,,734.505,734.761,735.0395,736.1222,,,,,,,,0,61,61,45,1
,,,,,,,607cbf385d3202721e3f719f,68253199341217ed60ade6d0,2025-05-14_19h13.53.893,cuing_paradigm_dot,2024.1.5,MacIntel,30.12048193,68242c07d0c0e200c6451fdd,,,,,,,,,,,736.1224,736.6216,,,736.8777,737.0849,left,0.1794,,,,,,,,,0.1,,,,,,736.6216,736.8777,737.085,738.1675,,,,,,,,0,62,62,7,1
,,,,,,,607cbf385d3202721e3f719f,68253199341217ed60ade6d0,2025-05-14_19h13.53.893,cuing_paradigm_dot,2024.1.5,MacIntel,30.12048193,68242c07d0c0e200c6451fdd,,,,,,,,,,,738.1679,738.6557,,,738.8942,739.2277,right,0.3057,,,,,,,,,0.5,,,,,,738.6557,738.8942,739.2277,740.3391,,,,,,,,0,63,63,102,1
,,,,,,,607cbf385d3202721e3f719f,68253199341217ed60ade6d0,2025-05-14_19h13.53.893,cuing_paradigm_dot,2024.1.5,MacIntel,30.12048193,68242c07d0c0e200c6451fdd,,,,,,,,,,,740.3394,740.8224,,,741.0776,741.3396,right,0.2501,,,,,,,,,0.4,,,,,,740.8224,741.0776,741.3396,742.4217,,,,,,,,0,64,64,53,1
,,,,,,,607cbf385d3202721e3f719f,68253199341217ed60ade6d0,2025-05-14_19h13.53.893,cuing_paradigm_dot,2024.1.5,MacIntel,30.12048193,68242c07d0c0e200c6451fdd,,,,,,,,,,,742.4221,742.9222,,,743.1774,743.3728,left,0.1677,,,,,,,,,0.4,,,,,,742.9223,743.1774,743.3728,744.4554,,,,,,,,0,65,65,52,1
,,,,,,,607cbf385d3202721e3f719f,68253199341217ed60ade6d0,2025-05-14_19h13.53.893,cuing_paradigm_dot,2024.1.5,MacIntel,30.12048193,68242c07d0c0e200c6451fdd,,,,,,,,,,,744.4556,744.9554,,,745.195,745.5112,left,0.2876,,,,,,,,,0.6,,,,,,744.9555,745.195,745.5112,746.6053,,,,,,,,0,66,66,177,1
,,,,,,,607cbf385d3202721e3f719f,68253199341217ed60ade6d0,2025-05-14_19h13.53.893,cuing_paradigm_dot,2024.1.5,MacIntel,30.12048193,68242c07d0c0e200c6451fdd,,,,,,,,,,,746.6055,747.1054,,,747.361,747.6613,right,0.2716,,,,,,,,,0.5,,,,,,747.1054,747.361,747.6613,748.7721,,,,,,,,0,67,67,109,1
,,,,,,,607cbf385d3202721e3f719f,68253199341217ed60ade6d0,2025-05-14_19h13.53.893,cuing_paradigm_dot,2024.1.5,MacIntel,30.12048193,68242c07d0c0e200c6451fdd,,,,,,,,,,,748.7724,749.2717,,,749.5023,749.7391,right,0.2254,,,,,,,,,0.9,,,,,,749.2717,749.5022,749.7393,750.8145,,,,,,,,0,68,68,198,1
,,,,,,,607cbf385d3202721e3f719f,68253199341217ed60ade6d0,2025-05-14_19h13.53.893,cuing_paradigm_dot,2024.1.5,MacIntel,30.12048193,68242c07d0c0e200c6451fdd,,,,,,,,,,,750.8149,751.3005,,,751.539,751.7181,right,0.1499,,,,,,,,,0.9,,,,,,751.3005,751.539,751.7181,752.7998,,,,,,,,0,69,69,190,1
,,,,,,,607cbf385d3202721e3f719f,68253199341217ed60ade6d0,2025-05-14_19h13.53.893,cuing_paradigm_dot,2024.1.5,MacIntel,30.12048193,68242c07d0c0e200c6451fdd,,,,,,,,,,,752.8001,753.2887,,,753.5273,753.7606,right,0.2045,,,,,,,,,0.9,,,,,,753.2887,753.5273,753.7607,754.8716,,,,,,,,0,70,70,191,1
,,,,,,,607cbf385d3202721e3f719f,68253199341217ed60ade6d0,2025-05-14_19h13.53.893,cuing_paradigm_dot,2024.1.5,MacIntel,30.12048193,68242c07d0c0e200c6451fdd,,,,,,,,,,,754.8719,755.3717,,,755.6022,755.9046,left,0.291,,,,,,,,,0.45,,,,,,755.3717,755.6022,755.9046,757.0103,,,,,,,,0,71,71,67,1
,,,,,,,607cbf385d3202721e3f719f,68253199341217ed60ade6d0,2025-05-14_19h13.53.893,cuing_paradigm_dot,2024.1.5,MacIntel,30.12048193,68242c07d0c0e200c6451fdd,,,,,,,,,,,757.0106,757.5105,,,757.7777,757.8896,left,0.084,,,,,,,,,0.1,,,,,,757.5106,757.7777,757.8897,758.9662,,,,,,,,0,72,72,17,1
,,,,,,,607cbf385d3202721e3f719f,68253199341217ed60ade6d0,2025-05-14_19h13.53.893,cuing_paradigm_dot,2024.1.5,MacIntel,30.12048193,68242c07d0c0e200c6451fdd,,,,,,,,,,,758.9665,759.455,,,759.6944,759.8845,left,0.162,,,,,,,,,0.4,,,,,,759.455,759.6944,759.8845,760.9667,,,,,,,,0,73,73,55,1
,,,,,,,607cbf385d3202721e3f719f,68253199341217ed60ade6d0,2025-05-14_19h13.53.893,cuing_paradigm_dot,2024.1.5,MacIntel,30.12048193,68242c07d0c0e200c6451fdd,,,,,,,,,,,760.967,761.4501,,,761.6887,761.9774,left,0.2758,,,,,,,,,0.5,,,,,,761.4501,761.6887,761.9776,763.0887,,,,,,,,0,74,74,114,1
,,,,,,,607cbf385d3202721e3f719f,68253199341217ed60ade6d0,2025-05-14_19h13.53.893,cuing_paradigm_dot,2024.1.5,MacIntel,30.12048193,68242c07d0c0e200c6451fdd,,,,,,,,,,,763.0891,763.5716,,,763.8111,764.0611,left,0.2223,,,,,,,,,0.5,,,,,,763.5716,763.8111,764.0611,765.172,,,,,,,,0,75,75,95,1
,,,,,,,607cbf385d3202721e3f719f,68253199341217ed60ade6d0,2025-05-14_19h13.53.893,cuing_paradigm_dot,2024.1.5,MacIntel,30.12048193,68242c07d0c0e200c6451fdd,,,,,,,,,,,765.1723,765.6547,,,765.8938,766.3535,right,0.4318,,,,,,,,,0.55,,,,,,765.6547,765.8938,766.3535,767.4331,,,,,,,,0,76,76,138,1
,,,,,,,607cbf385d3202721e3f719f,68253199341217ed60ade6d0,2025-05-14_19h13.53.893,cuing_paradigm_dot,2024.1.5,MacIntel,30.12048193,68242c07d0c0e200c6451fdd,,,,,,,,,,,767.4334,767.9219,,,768.1776,768.4276,left,0.2224,,,,,,,,,0.45,,,,,,767.9219,768.1776,768.4277,769.544,,,,,,,,0,77,77,80,1
,,,,,,,607cbf385d3202721e3f719f,68253199341217ed60ade6d0,2025-05-14_19h13.53.893,cuing_paradigm_dot,2024.1.5,MacIntel,30.12048193,68242c07d0c0e200c6451fdd,,,,,,,,,,,769.5443,770.06,,,770.2856,770.4944,left,0.1973,,,,,,,,,0.4,,,,,,770.06,770.2856,770.4944,771.6047,,,,,,,,0,78,78,43,1
,,,,,,,607cbf385d3202721e3f719f,68253199341217ed60ade6d0,2025-05-14_19h13.53.893,cuing_paradigm_dot,2024.1.5,MacIntel,30.12048193,68242c07d0c0e200c6451fdd,,,,,,,,,,,771.605,772.1053,,,772.3606,772.6118,right,0.2232,,,,,,,,,0.9,,,,,,772.1053,772.3605,772.6118,773.7214,,,,,,,,0,79,79,183,1
,,,,,,,607cbf385d3202721e3f719f,68253199341217ed60ade6d0,2025-05-14_19h13.53.893,cuing_paradigm_dot,2024.1.5,MacIntel,30.12048193,68242c07d0c0e200c6451fdd,,,,,,,,,,,773.7218,774.2214,,,774.4755,774.6552,left,0.1527,,,,,,,,,0.1,,,,,,774.2214,774.4754,774.6552,775.7373,,,,,,,,0,80,80,12,1
,,,,,,,607cbf385d3202721e3f719f,68253199341217ed60ade6d0,2025-05-14_19h13.53.893,cuing_paradigm_dot,2024.1.5,MacIntel,30.12048193,68242c07d0c0e200c6451fdd,,,,,,,,,,,775.7375,776.2217,,,776.4774,776.8937,right,0.3887,,,,,,,,,0.6,,,,,,776.2217,776.4774,776.8937,778.0049,,,,,,,,0,81,81,175,1
,,,,,,,607cbf385d3202721e3f719f,68253199341217ed60ade6d0,2025-05-14_19h13.53.893,cuing_paradigm_dot,2024.1.5,MacIntel,30.12048193,68242c07d0c0e200c6451fdd,,,,,,,,,,,778.0052,778.5052,,,778.7606,779.1224,left,0.334,,,,,,,,,0.5,,,,,,778.5052,778.7606,779.1225,780.205,,,,,,,,0,82,82,117,1
,,,,,,,607cbf385d3202721e3f719f,68253199341217ed60ade6d0,2025-05-14_19h13.53.893,cuing_paradigm_dot,2024.1.5,MacIntel,30.12048193,68242c07d0c0e200c6451fdd,,,,,,,,,,,780.2053,780.7044,,,780.9606,781.2218,right,0.2326,,,,,,,,,0.9,,,,,,780.7044,780.9606,781.2218,782.3046,,,,,,,,0,83,83,208,1
,,,,,,,607cbf385d3202721e3f719f,68253199341217ed60ade6d0,2025-05-14_19h13.53.893,cuing_paradigm_dot,2024.1.5,MacIntel,30.12048193,68242c07d0c0e200c6451fdd,,,,,,,,,,,782.3049,782.8048,,,783.061,783.3111,left,0.2224,,,,,,,,,0.45,,,,,,782.8048,783.061,783.3111,784.4053,,,,,,,,0,84,84,76,1
,,,,,,,607cbf385d3202721e3f719f,68253199341217ed60ade6d0,2025-05-14_19h13.53.893,cuing_paradigm_dot,2024.1.5,MacIntel,30.12048193,68242c07d0c0e200c6451fdd,,,,,,,,,,,784.4055,784.9047,,,785.1604,785.3386,right,0.1501,,,,,,,,,0.9,,,,,,784.9047,785.1604,785.3386,786.4159,,,,,,,,0,85,85,207,1
,,,,,,,607cbf385d3202721e3f719f,68253199341217ed60ade6d0,2025-05-14_19h13.53.893,cuing_paradigm_dot,2024.1.5,MacIntel,30.12048193,68242c07d0c0e200c6451fdd,,,,,,,,,,,786.4161,786.9042,,,787.1438,787.3939,right,0.2217,,,,,,,,,0.9,,,,,,786.9043,787.1437,787.394,788.5045,,,,,,,,0,86,86,209,1
,,,,,,,607cbf385d3202721e3f719f,68253199341217ed60ade6d0,2025-05-14_19h13.53.893,cuing_paradigm_dot,2024.1.5,MacIntel,30.12048193,68242c07d0c0e200c6451fdd,,,,,,,,,,,788.5049,789.0044,,,789.2604,789.5108,left,0.2226,,,,,,,,,0.45,,,,,,789.0044,789.2604,789.5108,790.6209,,,,,,,,0,87,87,61,1
,,,,,,,607cbf385d3202721e3f719f,68253199341217ed60ade6d0,2025-05-14_19h13.53.893,cuing_paradigm_dot,2024.1.5,MacIntel,30.12048193,68242c07d0c0e200c6451fdd,,,,,,,,,,,790.6212,791.1211,,,791.3766,791.6663,left,0.262,,,,,,,,,0.55,,,,,,791.1211,791.3765,791.6665,792.7496,,,,,,,,0,88,88,131,1
,,,,,,,607cbf385d3202721e3f719f,68253199341217ed60ade6d0,2025-05-14_19h13.53.893,cuing_paradigm_dot,2024.1.5,MacIntel,30.12048193,68242c07d0c0e200c6451fdd,,,,,,,,,,,792.7499,793.2376,,,793.4941,793.8381,left,0.3156,,,,,,,,,0.4,,,,,,793.2377,793.4941,793.8381,794.9271,,,,,,,,0,89,89,35,1
,,,,,,,607cbf385d3202721e3f719f,68253199341217ed60ade6d0,2025-05-14_19h13.53.893,cuing_paradigm_dot,2024.1.5,MacIntel,30.12048193,68242c07d0c0e200c6451fdd,,,,,,,,,,,794.9274,795.4266,,,795.6939,795.9438,left,0.2221,,,,,,,,,0.1,,,,,,795.4266,795.6939,795.9439,797.0545,,,,,,,,0,90,90,28,1
,,,,,,,607cbf385d3202721e3f719f,68253199341217ed60ade6d0,2025-05-14_19h13.53.893,cuing_paradigm_dot,2024.1.5,MacIntel,30.12048193,68242c07d0c0e200c6451fdd,,,,,,,,,,,797.0548,797.5381,,,797.7938,798.1561,right,0.3345,,,,,,,,,0.6,,,,,,797.5382,797.7937,798.1562,799.26,,,,,,,,0,91,91,178,1
,,,,,,,607cbf385d3202721e3f719f,68253199341217ed60ade6d0,2025-05-14_19h13.53.893,cuing_paradigm_dot,2024.1.5,MacIntel,30.12048193,68242c07d0c0e200c6451fdd,,,,,,,,,,,799.2602,799.7597,,,800.0268,800.2769,right,0.2222,,,,,,,,,0.9,,,,,,799.7597,800.0268,800.2769,801.3709,,,,,,,,0,92,92,206,1
,,,,,,,607cbf385d3202721e3f719f,68253199341217ed60ade6d0,2025-05-14_19h13.53.893,cuing_paradigm_dot,2024.1.5,MacIntel,30.12048193,68242c07d0c0e200c6451fdd,,,,,,,,,,,801.3712,801.8709,,,802.1097,802.3162,right,0.1788,,,,,,,,,0.9,,,,,,801.8709,802.1097,802.3163,803.3998,,,,,,,,0,93,93,188,1
,,,,,,,607cbf385d3202721e3f719f,68253199341217ed60ade6d0,2025-05-14_19h13.53.893,cuing_paradigm_dot,2024.1.5,MacIntel,30.12048193,68242c07d0c0e200c6451fdd,,,,,,,,,,,803.4001,803.8873,,,804.1439,804.3371,left,0.1659,,,,,,,,,0.4,,,,,,803.8873,804.1438,804.3371,805.4209,,,,,,,,0,94,94,54,1
,,,,,,,607cbf385d3202721e3f719f,68253199341217ed60ade6d0,2025-05-14_19h13.53.893,cuing_paradigm_dot,2024.1.5,MacIntel,30.12048193,68242c07d0c0e200c6451fdd,,,,,,,,,,,805.4213,805.9209,,,806.148,806.3713,left,0.1952,,,,,,,,,0.1,,,,,,805.9209,806.148,806.3714,807.4546,,,,,,,,0,95,95,6,1
,,,,,,,607cbf385d3202721e3f719f,68253199341217ed60ade6d0,2025-05-14_19h13.53.893,cuing_paradigm_dot,2024.1.5,MacIntel,30.12048193,68242c07d0c0e200c6451fdd,,,,,,,,,,,807.4551,807.9542,,,808.2101,808.4045,left,0.1667,,,,,,,,,0.4,,,,,,807.9542,808.21,808.4046,809.4873,,,,,,,,0,96,96,39,1
,,,,,,,607cbf385d3202721e3f719f,68253199341217ed60ade6d0,2025-05-14_19h13.53.893,cuing_paradigm_dot,2024.1.5,MacIntel,30.12048193,68242c07d0c0e200c6451fdd,,,,,,,,,,,809.4876,809.988,,,810.244,810.4379,right,0.1658,,,,,,,,,0.9,,,,,,809.988,810.244,810.4379,811.5162,,,,,,,,0,97,97,185,1
,,,,,,,607cbf385d3202721e3f719f,68253199341217ed60ade6d0,2025-05-14_19h13.53.893,cuing_paradigm_dot,2024.1.5,MacIntel,30.12048193,68242c07d0c0e200c6451fdd,,,,,,,,,,,811.5165,812.0045,,,812.2605,812.5097,left,0.2211,,,,,,,,,0.5,,,,,,812.0045,812.2605,812.5097,813.6213,,,,,,,,0,98,98,90,1
,,,,,,,607cbf385d3202721e3f719f,68253199341217ed60ade6d0,2025-05-14_19h13.53.893,cuing_paradigm_dot,2024.1.5,MacIntel,30.12048193,68242c07d0c0e200c6451fdd,,,,,,,,,,,813.6214,814.1208,,,814.3769,814.7933,left,0.3888,,,,,,,,,0.5,,,,,,814.1208,814.3769,814.7935,815.9043,,,,,,,,0,99,99,91,1
,,,,,,,607cbf385d3202721e3f719f,68253199341217ed60ade6d0,2025-05-14_19h13.53.893,cuing_paradigm_dot,2024.1.5,MacIntel,30.12048193,68242c07d0c0e200c6451fdd,,,,,,,,,,,815.9046,816.4045,,,816.6601,816.9099,right,0.2219,,,,,,,,,0.6,,,,,,816.4045,816.66,816.9099,818.0042,,,,,,,,0,100,100,159,1
,,,,,,,607cbf385d3202721e3f719f,68253199341217ed60ade6d0,2025-05-14_19h13.53.893,cuing_paradigm_dot,2024.1.5,MacIntel,30.12048193,68242c07d0c0e200c6451fdd,,,,,,,,,,,818.0044,818.5049,,,818.76,818.9264,right,0.1384,,,,,,,,,0.6,,,,,,818.5049,818.76,818.9264,820.0374,,,,,,,,0,101,101,171,1
,,,,,,,607cbf385d3202721e3f719f,68253199341217ed60ade6d0,2025-05-14_19h13.53.893,cuing_paradigm_dot,2024.1.5,MacIntel,30.12048193,68242c07d0c0e200c6451fdd,,,,,,,,,,,820.0378,820.5374,,,820.8022,821.0098,left,0.1956,,,,,,,,,0.5,,,,,,820.5374,820.8022,821.0098,822.1212,,,,,,,,0,102,102,103,1
,,,,,,,607cbf385d3202721e3f719f,68253199341217ed60ade6d0,2025-05-14_19h13.53.893,cuing_paradigm_dot,2024.1.5,MacIntel,30.12048193,68242c07d0c0e200c6451fdd,,,,,,,,,,,822.1214,822.605,,,822.8603,823.1929,left,0.305,,,,,,,,,0.4,,,,,,822.605,822.8603,823.1929,824.3041,,,,,,,,0,103,103,47,1
,,,,,,,607cbf385d3202721e3f719f,68253199341217ed60ade6d0,2025-05-14_19h13.53.893,cuing_paradigm_dot,2024.1.5,MacIntel,30.12048193,68242c07d0c0e200c6451fdd,,,,,,,,,,,824.3044,824.7987,,,825.0345,825.3265,left,0.2498,,,,,,,,,0.6,,,,,,824.7987,825.0345,825.3265,826.4373,,,,,,,,0,104,104,152,1
,,,,,,,607cbf385d3202721e3f719f,68253199341217ed60ade6d0,2025-05-14_19h13.53.893,cuing_paradigm_dot,2024.1.5,MacIntel,30.12048193,68242c07d0c0e200c6451fdd,,,,,,,,,,,826.4376,826.9373,,,827.1929,827.5101,left,0.2886,,,,,,,,,0.1,,,,,,826.9373,827.1928,827.5102,828.6201,,,,,,,,0,105,105,26,1
,,,,,,,607cbf385d3202721e3f719f,68253199341217ed60ade6d0,2025-05-14_19h13.53.893,cuing_paradigm_dot,2024.1.5,MacIntel,30.12048193,68242c07d0c0e200c6451fdd,,,,,,,,,,,828.6204,829.1218,,,829.3602,829.5932,right,0.2043,,,,,,,,,0.5,,,,,,829.1219,829.3602,829.5932,830.7038,,,,,,,,0,106,106,111,1
,,,,,,,607cbf385d3202721e3f719f,68253199341217ed60ade6d0,2025-05-14_19h13.53.893,cuing_paradigm_dot,2024.1.5,MacIntel,30.12048193,68242c07d0c0e200c6451fdd,,,,,,,,,,,830.7041,831.2039,,,831.4431,831.694,left,0.2228,,,,,,,,,0.45,,,,,,831.2039,831.4431,831.694,832.8043,,,,,,,,0,107,107,78,1
,,,,,,,607cbf385d3202721e3f719f,68253199341217ed60ade6d0,2025-05-14_19h13.53.893,cuing_paradigm_dot,2024.1.5,MacIntel,30.12048193,68242c07d0c0e200c6451fdd,,,,,,,,,,,832.8046,833.3037,,,833.5601,833.8926,right,0.3048,,,,,,,,,0.6,,,,,,833.3037,833.5601,833.8927,835.0044,,,,,,,,0,108,108,156,1
,,,,,,,607cbf385d3202721e3f719f,68253199341217ed60ade6d0,2025-05-14_19h13.53.893,cuing_paradigm_dot,2024.1.5,MacIntel,30.12048193,68242c07d0c0e200c6451fdd,,,,,,,,,,,835.0046,835.504,,,835.7427,836.0764,right,0.3059,,,,,,,,,0.55,,,,,,835.5041,835.7426,836.0765,837.1874,,,,,,,,0,109,109,135,1
,,,,,,,607cbf385d3202721e3f719f,68253199341217ed60ade6d0,2025-05-14_19h13.53.893,cuing_paradigm_dot,2024.1.5,MacIntel,30.12048193,68242c07d0c0e200c6451fdd,,,,,,,,,,,837.1878,837.6872,,,837.9263,838.177,left,0.2229,,,,,,,,,0.55,,,,,,837.6873,837.9263,838.177,839.2873,,,,,,,,0,110,110,133,1
,,,,,,,607cbf385d3202721e3f719f,68253199341217ed60ade6d0,2025-05-14_19h13.53.893,cuing_paradigm_dot,2024.1.5,MacIntel,30.12048193,68242c07d0c0e200c6451fdd,,,,,,,,,,,839.2875,839.7872,,,840.0434,840.4726,right,0.4005,,,,,,,,,0.5,,,,,,839.7872,840.0434,840.4728,841.5492,,,,,,,,0,111,111,97,1
,,,,,,,607cbf385d3202721e3f719f,68253199341217ed60ade6d0,2025-05-14_19h13.53.893,cuing_paradigm_dot,2024.1.5,MacIntel,30.12048193,68242c07d0c0e200c6451fdd,,,,,,,,,,,841.5494,842.0374,,,842.2762,842.4642,right,0.1591,,,,,,,,,0.9,,,,,,842.0375,842.2762,842.4642,843.5759,,,,,,,,0,112,112,196,1
,,,,,,,607cbf385d3202721e3f719f,68253199341217ed60ade6d0,2025-05-14_19h13.53.893,cuing_paradigm_dot,2024.1.5,MacIntel,30.12048193,68242c07d0c0e200c6451fdd,,,,,,,,,,,843.5762,844.0734,,,844.3269,844.493,right,0.1381,,,,,,,,,0.55,,,,,,844.0734,844.3268,844.493,845.6042,,,,,,,,0,113,113,129,1
,,,,,,,607cbf385d3202721e3f719f,68253199341217ed60ade6d0,2025-05-14_19h13.53.893,cuing_paradigm_dot,2024.1.5,MacIntel,30.12048193,68242c07d0c0e200c6451fdd,,,,,,,,,,,845.6044,846.0863,,,846.3428,846.5379,left,0.1674,,,,,,,,,0.1,,,,,,846.0863,846.3428,846.5379,847.6519,,,,,,,,0,114,114,21,1
,,,,,,,607cbf385d3202721e3f719f,68253199341217ed60ade6d0,2025-05-14_19h13.53.893,cuing_paradigm_dot,2024.1.5,MacIntel,30.12048193,68242c07d0c0e200c6451fdd,,,,,,,,,,,847.6522,848.1374,,,848.3929,848.7103,left,0.2896,,,,,,,,,0.45,,,,,,848.1374,848.3929,848.7103,849.8203,,,,,,,,0,115,115,62,1
,,,,,,,607cbf385d3202721e3f719f,68253199341217ed60ade6d0,2025-05-14_19h13.53.893,cuing_paradigm_dot,2024.1.5,MacIntel,30.12048193,68242c07d0c0e200c6451fdd,,,,,,,,,,,849.8206,850.3204,,,850.5763,850.9381,left,0.3333,,,,,,,,,0.1,,,,,,850.3204,850.5763,850.9381,852.0207,,,,,,,,0,116,116,16,1
,,,,,,,607cbf385d3202721e3f719f,68253199341217ed60ade6d0,2025-05-14_19h13.53.893,cuing_paradigm_dot,2024.1.5,MacIntel,30.12048193,68242c07d0c0e200c6451fdd,,,,,,,,,,,852.0209,852.5208,,,852.776,853.0936,right,0.2889,,,,,,,,,0.55,,,,,,852.5209,852.776,853.0936,854.2037,,,,,,,,0,117,117,124,1
,,,,,,,607cbf385d3202721e3f719f,68253199341217ed60ade6d0,2025-05-14_19h13.53.893,cuing_paradigm_dot,2024.1.5,MacIntel,30.12048193,68242c07d0c0e200c6451fdd,,,,,,,,,,,854.2039,854.687,,,854.9262,855.1764,left,0.222,,,,,,,,,0.55,,,,,,854.687,854.9262,855.1764,856.2868,,,,,,,,0,118,118,125,1
,,,,,,,607cbf385d3202721e3f719f,68253199341217ed60ade6d0,2025-05-14_19h13.53.893,cuing_paradigm_dot,2024.1.5,MacIntel,30.12048193,68242c07d0c0e200c6451fdd,,,,,,,,,,,856.2871,856.7871,,,857.043,857.293,right,0.2221,,,,,,,,,0.6,,,,,,856.7871,857.043,857.2931,858.4036,,,,,,,,0,119,119,170,1
,,,,,,,607cbf385d3202721e3f719f,68253199341217ed60ade6d0,2025-05-14_19h13.53.893,cuing_paradigm_dot,2024.1.5,MacIntel,30.12048193,68242c07d0c0e200c6451fdd,,,,,,,,,,,858.4039,858.9035,,,859.1433,859.4211,left,0.2499,,,,,,,,,0.5,,,,,,858.9036,859.1432,859.4211,860.4987,,,,,,,,0,120,120,96,1
,,,,,,,607cbf385d3202721e3f719f,68253199341217ed60ade6d0,2025-05-14_19h13.53.893,cuing_paradigm_dot,2024.1.5,MacIntel,30.12048193,68242c07d0c0e200c6451fdd,,,,,,,,,,,860.4989,860.9866,,,861.2427,861.493,left,0.2223,,,,,,,,,0.1,,,,,,860.9866,861.2427,861.493,862.6035,,,,,,,,0,121,121,10,1
,,,,,,,607cbf385d3202721e3f719f,68253199341217ed60ade6d0,2025-05-14_19h13.53.893,cuing_paradigm_dot,2024.1.5,MacIntel,30.12048193,68242c07d0c0e200c6451fdd,,,,,,,,,,,862.6038,863.1035,,,863.3599,863.5929,left,0.2053,,,,,,,,,0.1,,,,,,863.1036,863.3597,863.593,864.7033,,,,,,,,0,122,122,27,1
,,,,,,,607cbf385d3202721e3f719f,68253199341217ed60ade6d0,2025-05-14_19h13.53.893,cuing_paradigm_dot,2024.1.5,MacIntel,30.12048193,68242c07d0c0e200c6451fdd,,,,,,,,,,,864.7037,865.2032,,,865.4594,865.7196,left,0.2318,,,,,,,,,0.4,,,,,,865.2032,865.4594,865.7197,866.8037,,,,,,,,0,123,123,40,1
,,,,,,,607cbf385d3202721e3f719f,68253199341217ed60ade6d0,2025-05-14_19h13.53.893,cuing_paradigm_dot,2024.1.5,MacIntel,30.12048193,68242c07d0c0e200c6451fdd,,,,,,,,,,,866.804,867.2869,,,867.5421,867.7927,left,0.222,,,,,,,,,0.1,,,,,,867.2869,867.5421,867.7928,868.904,,,,,,,,0,124,124,20,1
,,,,,,,607cbf385d3202721e3f719f,68253199341217ed60ade6d0,2025-05-14_19h13.53.893,cuing_paradigm_dot,2024.1.5,MacIntel,30.12048193,68242c07d0c0e200c6451fdd,,,,,,,,,,,868.9042,869.404,,,869.6568,869.8761,left,0.1922,,,,,,,,,0.4,,,,,,869.404,869.6568,869.8761,870.9756,,,,,,,,0,125,125,32,1
