right,left,explain.started,explain.stopped,key_resp_3.keys,key_resp_3.rt,key_resp_3.duration,participant,session,date,expName,psychopyVersion,OS,frameRate,study_id,explain_2.started,explain_2.stopped,key_resp_4.keys,key_resp_4.rt,key_resp_4.duration,explain_3.started,explain_3.stopped,key_resp_5.keys,key_resp_5.rt,key_resp_5.duration,fixation.started,fixation.stopped,practice.started,practice.stopped,response.started,response.stopped,key_resp.keys,key_resp.rt,key_resp.duration,feedback.started,feedback.stopped,trials_2.thisRepN,trials_2.thisTrialN,trials_2.thisN,trials_2.thisIndex,trials_2.ran,white_ratio,explain_4.started,explain_4.stopped,key_resp_6.keys,key_resp_6.rt,key_resp_6.duration,dotDisplay.started,dotDisplay.stopped,ITI.started,polygon_1.pos,polygon_1.color,polygon_2.pos,polygon_2.color,polygon_3.pos,polygon_3.color,polygon_4.pos,polygon_4.color,polygon_5.pos,polygon_5.color,polygon_6.pos,polygon_6.color,polygon_7.pos,polygon_7.color,polygon_8.pos,polygon_8.color,polygon_9.pos,polygon_9.color,polygon_10.pos,polygon_10.color,polygon_11.pos,polygon_11.color,polygon_12.pos,polygon_12.color,polygon_13.pos,polygon_13.color,polygon_14.pos,polygon_14.color,polygon_15.pos,polygon_15.color,polygon_16.pos,polygon_16.color,polygon_17.pos,polygon_17.color,polygon_18.pos,polygon_18.color,polygon_19.pos,polygon_19.color,polygon_20.pos,polygon_20.color,polygon_21.pos,polygon_21.color,polygon_22.pos,polygon_22.color,polygon_23.pos,polygon_23.color,polygon_24.pos,polygon_24.color,polygon_25.pos,polygon_25.color,polygon_26.pos,polygon_26.color,polygon_27.pos,polygon_27.color,polygon_28.pos,polygon_28.color,polygon_29.pos,polygon_29.color,polygon_30.pos,polygon_30.color,polygon_31.pos,polygon_31.color,polygon_32.pos,polygon_32.color,dot_size,ITI.stopped,trials.thisRepN,trials.thisTrialN,trials.thisN,trials.thisIndex,trials.ran,break_2.started,break_2.stopped,trials_3.thisRepN,trials_3.thisTrialN,trials_3.thisN,trials_3.thisIndex,trials_3.ran
subject chose white,subject chose black,0.0004,261.6761,space,246.6612,,6755b42b20cf26a928acaa05,68317a5d1c4b4dbc3c2f6744,2025-05-24_08h55.57.989,cuing_paradigm_dot,2024.1.5,Win32,59.17159763,682d573fa47f1360d1451895,,,,,,,,,,,,,,,,,,,,,,,,,,,,,,,,,,,,,,,,,,,,,,,,,,,,,,,,,,,,,,,,,,,,,,,,,,,,,,,,,,,,,,,,,,,,,,,,,,,,,,,,,,,,,,,,,
,,,,,,,6755b42b20cf26a928acaa05,68317a5d1c4b4dbc3c2f6744,2025-05-24_08h55.57.989,cuing_paradigm_dot,2024.1.5,Win32,59.17159763,682d573fa47f1360d1451895,261.6773,418.9623,space,127.2631,,,,,,,,,,,,,,,,,,,,,,,,,,,,,,,,,,,,,,,,,,,,,,,,,,,,,,,,,,,,,,,,,,,,,,,,,,,,,,,,,,,,,,,,,,,,,,,,,,,,,,,,,,,,,
,,,,,,,6755b42b20cf26a928acaa05,68317a5d1c4b4dbc3c2f6744,2025-05-24_08h55.57.989,cuing_paradigm_dot,2024.1.5,Win32,59.17159763,682d573fa47f1360d1451895,,,,,,418.963,427.5686,space,5.597,,,,,,,,,,,,,,,,,,,,,,,,,,,,,,,,,,,,,,,,,,,,,,,,,,,,,,,,,,,,,,,,,,,,,,,,,,,,,,,,,,,,,,,,,,,,,,,,,,,,,,,,
,,,,,,,6755b42b20cf26a928acaa05,68317a5d1c4b4dbc3c2f6744,2025-05-24_08h55.57.989,cuing_paradigm_dot,2024.1.5,Win32,59.17159763,682d573fa47f1360d1451895,,,,,,,,,,,427.6249,428.0695,428.0709,428.3204,428.322,429.1015,right,0.7271,,429.1025,430.2003,0,0,0,0,1,0.8,,,,,,,,,,,,,,,,,,,,,,,,,,,,,,,,,,,,,,,,,,,,,,,,,,,,,,,,,,,,,,,,,,,,,,,,,,,,,,,,,,,,,,
,,,,,,,6755b42b20cf26a928acaa05,68317a5d1c4b4dbc3c2f6744,2025-05-24_08h55.57.989,cuing_paradigm_dot,2024.1.5,Win32,59.17159763,682d573fa47f1360d1451895,,,,,,,,,,,430.203,430.6998,430.7,430.9527,430.9529,431.5669,left,0.6018,,431.5676,432.6663,0,1,1,1,1,0.2,,,,,,,,,,,,,,,,,,,,,,,,,,,,,,,,,,,,,,,,,,,,,,,,,,,,,,,,,,,,,,,,,,,,,,,,,,,,,,,,,,,,,,
,,,,,,,6755b42b20cf26a928acaa05,68317a5d1c4b4dbc3c2f6744,2025-05-24_08h55.57.989,cuing_paradigm_dot,2024.1.5,Win32,59.17159763,682d573fa47f1360d1451895,,,,,,,,,,,,,,,,,,,,,,,,,,,,432.6679,450.3016,space,14.6108,,,,,,,,,,,,,,,,,,,,,,,,,,,,,,,,,,,,,,,,,,,,,,,,,,,,,,,,,,,,,,,,,,,,,,,,,,,,,,,,,,
,,,,,,,6755b42b20cf26a928acaa05,68317a5d1c4b4dbc3c2f6744,2025-05-24_08h55.57.989,cuing_paradigm_dot,2024.1.5,Win32,59.17159763,682d573fa47f1360d1451895,,,,,,,,,,,450.342,450.8158,,,451.0685,451.5647,left,0.4764,,,,,,,,,0.1,,,,,,450.8179,451.0683,451.5652,"[0.05455563502675381,0.027374449844073497]","[-1,-1,-1]","[-0.13978686747397967,-0.02658459528498581]","[-1,-1,-1]","[0.19424828252988077,0.023923302842788072]","[-1,-1,-1]","[0.10240121124255094,0.00549893111766262]","[-1,-1,-1]","[-0.04817756189543896,0.03712075234247836]","[-1,-1,-1]","[-0.1357234252200852,-0.1188590057523472]","[1,1,1]","[-0.0730294491824676,-0.07062801823017925]","[-1,-1,-1]","[-0.015631626273135933,-0.1388222603646708]","[-1,-1,-1]","[0.023554408399872627,-0.13008243586942372]","[-1,-1,-1]","[0.1530525252978354,-0.11108520971917099]","[-1,-1,-1]","[0.08163647516660778,-0.08323937268048533]","[-1,-1,-1]","[-0.13871955776514716,0.0619323605518484]","[-1,-1,-1]","[-0.07843721781468137,0.08164355955777669]","[-1,-1,-1]","[-0.09495502609688429,0.16943749612461104]","[-1,-1,-1]","[0.17188932536174995,0.07952451196912276]","[-1,-1,-1]","[-0.03754055131072689,0.14874111603550513]","[-1,-1,-1]","[0.08841117522709278,-0.1700779523285351]","[-1,-1,-1]","[-0.010956375176400003,-0.045772378626614776]","[-1,-1,-1]","[0.01682889484968373,0.00993130437360617]","[-1,-1,-1]","[-0.15402153854060943,0.12626695738403623]","[-1,-1,-1]","[0.12007222648648214,0.15763988091567227]","[1,1,1]","[-0.18158895580476547,0.02459105016873836]","[-1,-1,-1]","[-0.033971701972033905,-0.08114263412357534]","[-1,-1,-1]","[0.13484490581491868,0.029438564845091993]","[-1,-1,-1]","[-0.09544948692537761,-0.12262830796048863]","[-1,-1,-1]","[0.025267993686614965,0.0854185456261828]","[-1,-1,-1]","[-0.061954020309547976,-0.17038944163023037]","[-1,-1,-1]","[-0.09351344408496096,0.12325276906692155]","[-1,-1,-1]","[0.03555895423406019,0.13701118171568982]","[-1,-1,-1]","[0.10170526409201347,0.07604725212360428]","[1,1,1]","[0.1874888378883595,-0.022761074825946283]","[-1,-1,-1]","[0.022047753029294466,-0.08194179687192446]","[-1,-1,-1]","[0.02,0.02]",452.6658,0,0,0,19,1,,,,,,,
,,,,,,,6755b42b20cf26a928acaa05,68317a5d1c4b4dbc3c2f6744,2025-05-24_08h55.57.989,cuing_paradigm_dot,2024.1.5,Win32,59.17159763,682d573fa47f1360d1451895,,,,,,,,,,,452.6677,453.1654,,,453.4207,453.8165,right,0.3778,,,,,,,,,0.1,,,,,,453.1655,453.4205,453.8167,"[-0.1534163514462521,-0.10435950267453185]","[1,1,1]","[-0.1804456811236614,0.029784406718855416]","[-1,-1,-1]","[0.08591508281664205,-0.003513194838757689]","[-1,-1,-1]","[0.06201089977033437,0.18439901730676836]","[-1,-1,-1]","[0.009111884406511596,0.14899575931511722]","[-1,-1,-1]","[-0.04499352182860585,0.057482236899431986]","[-1,-1,-1]","[-0.010092834683595616,-0.04654725319528729]","[-1,-1,-1]","[-0.11961748804036332,0.025430500390273978]","[-1,-1,-1]","[-0.097492150882132,0.06003680902607594]","[-1,-1,-1]","[0.091703382281466,-0.12473582959223867]","[1,1,1]","[0.02852999713963688,0.0875971689618077]","[-1,-1,-1]","[-0.14152797766720698,0.06185368979937065]","[-1,-1,-1]","[-0.10310273999978614,-0.16721258087437813]","[-1,-1,-1]","[0.07682377413952625,0.1142229103551726]","[-1,-1,-1]","[0.05488323260693965,-0.10225158329232793]","[-1,-1,-1]","[-0.1023278821342889,0.16380012203354055]","[-1,-1,-1]","[-0.04228033075630157,0.10446913993263031]","[-1,-1,-1]","[0.04289754729316435,-0.1532809637662525]","[-1,-1,-1]","[-0.010737530426771943,0.023316876679874483]","[-1,-1,-1]","[-0.050022829868332834,-0.1563388031441522]","[-1,-1,-1]","[-0.08834216641944108,-0.020917342882643464]","[-1,-1,-1]","[-0.17507996146841942,-0.02582817860768503]","[1,1,1]","[-0.057776877793566155,-0.07677399261266749]","[-1,-1,-1]","[0.15358130892871621,-0.04962931481469782]","[-1,-1,-1]","[-0.13035300000514835,-0.023499761239305507]","[-1,-1,-1]","[0.1378227570311123,-0.09713731198654617]","[-1,-1,-1]","[0.14501313885402925,0.052723234095721286]","[-1,-1,-1]","[0.0418460347139795,0.018132833718701644]","[-1,-1,-1]","[0.12656981835440628,0.13153057346906805]","[-1,-1,-1]","[0.0007021010524940611,-0.1129929711716065]","[-1,-1,-1]","[-0.10112192371896606,-0.08561008210635607]","[-1,-1,-1]","[-0.05219328089743124,0.005172987590119043]","[-1,-1,-1]","[0.02,0.02]",454.9154,0,1,1,22,1,,,,,,,
,,,,,,,6755b42b20cf26a928acaa05,68317a5d1c4b4dbc3c2f6744,2025-05-24_08h55.57.989,cuing_paradigm_dot,2024.1.5,Win32,59.17159763,682d573fa47f1360d1451895,,,,,,,,,,,454.9168,455.4153,,,455.6553,456.1502,left,0.4777,,,,,,,,,0.4,,,,,,455.4154,455.6551,456.1504,"[0.06556876950810289,-0.055613606315072145]","[-1,-1,-1]","[-0.16912456550440869,0.010443908833481305]","[-1,-1,-1]","[-0.1557529100271701,0.06726541359458323]","[1,1,1]","[-0.12958961126269783,0.10272149662565977]","[-1,-1,-1]","[0.07913639190627385,0.00047380263739094157]","[1,1,1]","[0.027853498297456397,-0.09196648384818727]","[-1,-1,-1]","[0.036889401841978635,0.005704186481204902]","[-1,-1,-1]","[-0.1791679747139243,-0.046674732005595826]","[-1,-1,-1]","[0.02946659308241355,-0.1913049885093197]","[1,1,1]","[0.01180418645816262,0.061003496649259706]","[1,1,1]","[-0.01699830866058612,0.018080060411354508]","[1,1,1]","[0.12603592887724985,-0.04186661451016508]","[-1,-1,-1]","[0.08835840414043052,-0.14309125527768005]","[-1,-1,-1]","[-0.11423738332767958,0.043612792476239885]","[-1,-1,-1]","[0.18069385425510953,0.02059578218776166]","[1,1,1]","[-0.0653847243560823,0.1465704925538594]","[1,1,1]","[-0.025025944705317552,-0.13307573707631135]","[1,1,1]","[-0.10604145733850799,0.14444844078945202]","[-1,-1,-1]","[-0.11102299749596926,-0.10913767064220835]","[-1,-1,-1]","[-0.11299038611244266,-0.058636931984927705]","[-1,-1,-1]","[0.07741497277856259,0.18332702068673493]","[-1,-1,-1]","[0.13419561680007966,-0.08195060412295853]","[1,1,1]","[0.011351551430203706,0.12293980545874048]","[1,1,1]","[0.012308424400401325,-0.02608468493773093]","[-1,-1,-1]","[-0.05504157938650087,-0.0896213832600197]","[-1,-1,-1]","[-0.1097582972246702,-0.16517224609427325]","[-1,-1,-1]","[0.1208928915827016,0.057587512242153235]","[-1,-1,-1]","[-0.04364297460985144,0.08251863161030305]","[1,1,1]","[-0.06737281784149067,0.044749678240922235]","[-1,-1,-1]","[0.14837099162031814,0.12940390319419798]","[1,1,1]","[0.1784109405539246,-0.032347005887448356]","[1,1,1]","[0.07786989426633112,0.13968236512985646]","[-1,-1,-1]","[0.02,0.02]",457.2486,0,2,2,53,1,,,,,,,
,,,,,,,6755b42b20cf26a928acaa05,68317a5d1c4b4dbc3c2f6744,2025-05-24_08h55.57.989,cuing_paradigm_dot,2024.1.5,Win32,59.17159763,682d573fa47f1360d1451895,,,,,,,,,,,457.2504,457.7485,,,457.9998,458.4331,right,0.416,,,,,,,,,0.6,,,,,,457.7486,457.9998,458.4332,"[0.15536797953875556,-0.0918230728040923]","[1,1,1]","[0.010606257279925225,-0.1770426815075712]","[-1,-1,-1]","[0.12178725844705644,-0.14880687282923433]","[-1,-1,-1]","[0.10700374599050892,0.0292436064135944]","[1,1,1]","[-0.10887452002963681,-0.0909491131917681]","[-1,-1,-1]","[0.0846395552822203,0.10906074621069847]","[-1,-1,-1]","[0.02760244422791364,0.15258466125557762]","[-1,-1,-1]","[-0.08633006806869784,0.17272450689433652]","[-1,-1,-1]","[0.046325420722450765,-0.03951164135249117]","[1,1,1]","[0.02622912945159398,0.09923393694245]","[1,1,1]","[-0.07574313090579488,0.11964913255950824]","[1,1,1]","[-0.1633312261892774,0.06798060422479729]","[1,1,1]","[-0.08569579804029197,0.015465870245382119]","[-1,-1,-1]","[-0.1194697036533787,0.11433395069514397]","[1,1,1]","[0.15894077064113035,-0.03414110484961911]","[1,1,1]","[-0.13306999992653246,0.004714931921861954]","[-1,-1,-1]","[-0.018441071267129506,0.05987927328541621]","[-1,-1,-1]","[-0.15363542969802677,-0.12156664643921276]","[-1,-1,-1]","[0.09964003700678833,-0.06355872783247563]","[-1,-1,-1]","[-0.03460312357738242,0.14781505227171038]","[1,1,1]","[-0.007680283409424498,-0.051520700614548325]","[1,1,1]","[0.022183900486962903,0.0528795994632382]","[-1,-1,-1]","[0.19093882109434435,0.04037029368922647]","[1,1,1]","[-0.04467846274718969,0.010702943094123795]","[1,1,1]","[0.05630423552599182,-0.08408071549192553]","[1,1,1]","[0.0029622220978431104,-0.10960633218975667]","[1,1,1]","[0.09063024151152836,-0.016733519260258886]","[-1,-1,-1]","[-0.051663279274157425,-0.11101057718177425]","[1,1,1]","[-0.15240315942161461,-0.041029643667786296]","[1,1,1]","[-0.08768839687827236,-0.04137770040591063]","[1,1,1]","[0.1312528783263878,-0.0033268080023229995]","[1,1,1]","[0.08627328866833428,-0.17956228271920333]","[1,1,1]","[0.02,0.02]",459.5315,0,3,3,171,1,,,,,,,
,,,,,,,6755b42b20cf26a928acaa05,68317a5d1c4b4dbc3c2f6744,2025-05-24_08h55.57.989,cuing_paradigm_dot,2024.1.5,Win32,59.17159763,682d573fa47f1360d1451895,,,,,,,,,,,459.5328,460.0317,,,460.2827,460.6723,right,0.3685,,,,,,,,,0.9,,,,,,460.0318,460.2826,460.6723,"[0.14496872580143533,-0.09917919325050177]","[1,1,1]","[-0.09003781881468019,0.09235938263202685]","[1,1,1]","[-0.0604807997207023,0.024583325367638416]","[1,1,1]","[0.0876736957215924,0.09481101811683612]","[-1,-1,-1]","[-0.12901232700675386,0.012976616236541299]","[1,1,1]","[0.09997669311509372,-0.16727963108842336]","[1,1,1]","[0.1781975256075659,-0.002851631045315061]","[1,1,1]","[-0.16301688681532697,-0.009919180355060833]","[-1,-1,-1]","[-0.009457306513938397,-0.18900142913735893]","[1,1,1]","[0.0749377928100035,-0.023296650776592456]","[1,1,1]","[-0.019847727074976677,-0.04284162374690721]","[1,1,1]","[-0.05045296835097125,0.1690909293663161]","[1,1,1]","[-0.06509626065254687,-0.027639145881541437]","[1,1,1]","[-0.057238163034598416,-0.12610160494545578]","[1,1,1]","[-0.15971996040656639,0.09637589913420888]","[1,1,1]","[-0.11045440110538632,-0.10815809063305336]","[1,1,1]","[0.1646183522182767,0.09589427037731657]","[1,1,1]","[-0.1529082495237889,0.05252899902936798]","[1,1,1]","[0.023465495202157016,0.12594071335242943]","[1,1,1]","[-0.02508247709940925,0.05036492731578964]","[1,1,1]","[0.03811286878866943,0.032101064894637536]","[1,1,1]","[0.08362063392623137,0.05373293606942903]","[1,1,1]","[0.11873040126030321,-0.06736263600658075]","[1,1,1]","[0.1709124143609854,0.03844385521582836]","[1,1,1]","[0.06404176086973004,-0.1262500119329448]","[-1,-1,-1]","[-0.1485900945449509,-0.06715376412138348]","[1,1,1]","[-0.10706654222098023,-0.16267203676207231]","[1,1,1]","[0.17127816225069792,-0.05538257513855309]","[1,1,1]","[-0.047731134368340804,-0.1713765914539179]","[1,1,1]","[0.06956729344776759,0.1691938745147046]","[1,1,1]","[0.010388530218554397,0.18668270619735453]","[1,1,1]","[-0.08253718586657115,-0.07578289029223223]","[1,1,1]","[0.02,0.02]",461.7648,0,4,4,194,1,,,,,,,
,,,,,,,6755b42b20cf26a928acaa05,68317a5d1c4b4dbc3c2f6744,2025-05-24_08h55.57.989,cuing_paradigm_dot,2024.1.5,Win32,59.17159763,682d573fa47f1360d1451895,,,,,,,,,,,461.7664,462.2652,,,462.516,462.8655,right,0.3343,,,,,,,,,0.6,,,,,,462.2653,462.5158,462.8658,"[-0.02659208935068259,-0.015503147537410182]","[-1,-1,-1]","[0.13700285985454666,0.11399618700646928]","[1,1,1]","[0.049852102811680975,-0.04088333417683578]","[-1,-1,-1]","[-0.16541732764895678,0.02302585161518976]","[1,1,1]","[0.0023646289455508153,0.04240087431152471]","[1,1,1]","[0.05622709318336071,0.18533189519562204]","[-1,-1,-1]","[-0.03198377288594005,0.16307888835830633]","[-1,-1,-1]","[-0.05199042799192403,0.03139840000779574]","[1,1,1]","[0.10137505756941734,-0.04551580513834003]","[1,1,1]","[-0.12561432590887636,-0.10305954741297056]","[-1,-1,-1]","[0.17174363032115694,-0.08833213310678736]","[1,1,1]","[-0.04871987974062299,-0.19285905248622365]","[1,1,1]","[0.034592976306615314,-0.14945217138469402]","[-1,-1,-1]","[-0.11432353592285686,0.0850388040999868]","[1,1,1]","[-0.13364955058444802,0.12863993968445994]","[1,1,1]","[0.06486374784031891,0.05320291997284805]","[1,1,1]","[-0.05936780370423231,-0.10618307834876943]","[1,1,1]","[0.09050658081338497,0.11576362291584996]","[1,1,1]","[-0.08216136500085529,0.11511155322867601]","[-1,-1,-1]","[-0.09146187098629173,-0.15010248544556312]","[1,1,1]","[0.13778524407191756,0.0011110201581098318]","[-1,-1,-1]","[0.19252583383863064,0.022524291239291276]","[1,1,1]","[0.19102314103468962,-0.01932360119459152]","[-1,-1,-1]","[-0.02374500288751988,-0.08197261474784762]","[-1,-1,-1]","[-0.13837458620154233,-0.019893687410210723]","[1,1,1]","[0.009722071047781843,0.17062407170235785]","[-1,-1,-1]","[-0.09904414692745575,0.02635939167242974]","[1,1,1]","[0.1053963154803071,-0.1285183835496027]","[1,1,1]","[0.12161407276152698,0.050914037753248854]","[-1,-1,-1]","[-0.08985965907476383,-0.054421685339267015]","[-1,-1,-1]","[0.1739536322531182,0.09557730380503973]","[1,1,1]","[0.027525180512429935,-0.005492951621831891]","[1,1,1]","[0.02,0.02]",463.9646,0,5,5,178,1,,,,,,,
,,,,,,,6755b42b20cf26a928acaa05,68317a5d1c4b4dbc3c2f6744,2025-05-24_08h55.57.989,cuing_paradigm_dot,2024.1.5,Win32,59.17159763,682d573fa47f1360d1451895,,,,,,,,,,,463.9655,464.4649,,,464.7048,465.0332,right,0.3094,,,,,,,,,0.9,,,,,,464.465,464.7046,465.0334,"[0.15113327205245877,0.0943533101222603]","[1,1,1]","[0.032305945865846564,-0.022316162428918356]","[1,1,1]","[0.162547677463063,-0.07011841493161174]","[1,1,1]","[0.0033977242608020744,0.1898626585462334]","[1,1,1]","[-0.08256728491578942,-0.016167001238481058]","[1,1,1]","[0.18251320715771122,0.0016610551734797092]","[1,1,1]","[-0.059426447608474806,0.04356537025562364]","[1,1,1]","[-0.06812635822221123,0.09526843045185097]","[-1,-1,-1]","[-0.15208992904358323,0.008928644442371047]","[1,1,1]","[0.08872657361498788,-0.12419885485534479]","[1,1,1]","[0.08978972571203099,0.12389716054517082]","[1,1,1]","[0.10487073403693001,0.03977332984466752]","[1,1,1]","[-0.12446941980581257,-0.09753641666762451]","[1,1,1]","[0.05965792563930199,-0.16164770049250113]","[1,1,1]","[-0.02526263157292241,0.09037393440151142]","[1,1,1]","[0.004555365587722917,-0.0872558563530328]","[1,1,1]","[0.02477863128783671,0.15456455427560908]","[1,1,1]","[-0.11117235760874519,-0.15270278690525146]","[1,1,1]","[0.11383149302068894,-0.08754276943005289]","[1,1,1]","[-0.07335872013080633,0.13574963911864626]","[1,1,1]","[0.1077672055729671,-0.1640703540115711]","[1,1,1]","[0.05251911895269117,0.023732534247590222]","[1,1,1]","[-0.00908432427734177,-0.1983433806191604]","[1,1,1]","[-0.0800135231139424,-0.09967733035380474]","[1,1,1]","[-0.05487347710373144,-0.14820335361064826]","[1,1,1]","[-0.15026575280086907,0.07417610476667658]","[-1,-1,-1]","[-0.12719984991032954,-0.035889586418339114]","[1,1,1]","[-0.19273883063369526,-0.03835113820442557]","[-1,-1,-1]","[-0.1873889874806719,0.03863912550262911]","[1,1,1]","[0.06123472427543583,0.08634944853110389]","[1,1,1]","[0.0016475627687611643,0.02902807971202089]","[1,1,1]","[-0.04442785597543779,-0.06474070610417869]","[1,1,1]","[0.02,0.02]",466.1316,0,6,6,196,1,,,,,,,
,,,,,,,6755b42b20cf26a928acaa05,68317a5d1c4b4dbc3c2f6744,2025-05-24_08h55.57.989,cuing_paradigm_dot,2024.1.5,Win32,59.17159763,682d573fa47f1360d1451895,,,,,,,,,,,466.1331,466.6358,,,466.8824,467.4981,left,0.6084,,,,,,,,,0.5,,,,,,466.6359,466.8823,467.4983,"[-0.024072608299959015,0.0705981465554514]","[-1,-1,-1]","[-0.02593009734664755,-0.03137002356096497]","[1,1,1]","[0.04781351200305757,0.10096670158419079]","[1,1,1]","[0.12456221537829824,-0.0886959710991231]","[1,1,1]","[-0.08099524173067846,-0.14585018936032534]","[-1,-1,-1]","[0.07403722300499985,-0.0865825365568252]","[1,1,1]","[0.0502216271059617,0.14463703210949888]","[-1,-1,-1]","[0.045453112436032325,-0.12768668163308558]","[-1,-1,-1]","[-0.0907497836547094,-0.0644792954855267]","[1,1,1]","[-0.06447001993525951,-0.017230587045508793]","[-1,-1,-1]","[0.12545612455328395,0.027762068049759222]","[1,1,1]","[0.191327019400032,0.02762333277977748]","[-1,-1,-1]","[-0.008057938184913172,-0.08827176909623541]","[-1,-1,-1]","[0.032920445270131125,-0.08073463431327955]","[-1,-1,-1]","[0.0726341666888234,-0.039942044969154544]","[1,1,1]","[-0.1429009818038599,0.11025350014411349]","[1,1,1]","[-0.13872867622663745,0.04310264871341645]","[1,1,1]","[-0.09687775781713773,0.05706938773165584]","[1,1,1]","[0.17259409953141364,-0.05636897180895732]","[1,1,1]","[0.10482570404741287,0.1161159159594719]","[-1,-1,-1]","[-0.17621825788428225,-0.07530691818413023]","[1,1,1]","[-0.004555912361525865,0.12036801899171674]","[1,1,1]","[-0.04092762917614767,-0.16779886676139447]","[-1,-1,-1]","[0.019819181827636444,-0.033058767166106805]","[-1,-1,-1]","[-0.0016643583624921777,-0.1405957628328898]","[-1,-1,-1]","[-0.05525593689515623,0.14080462033277685]","[1,1,1]","[-0.19636872465035543,0.02434837564829979]","[-1,-1,-1]","[0.09384606604281649,-0.16566005906534667]","[1,1,1]","[0.0011156407634806125,-0.19075992606681155]","[1,1,1]","[0.027543742513750365,0.04485400535090914]","[-1,-1,-1]","[-0.04820508879960131,-0.10885524097477978]","[-1,-1,-1]","[0.07054996553354415,0.18031030175957521]","[-1,-1,-1]","[0.02,0.02]",468.5979,0,7,7,91,1,,,,,,,
,,,,,,,6755b42b20cf26a928acaa05,68317a5d1c4b4dbc3c2f6744,2025-05-24_08h55.57.989,cuing_paradigm_dot,2024.1.5,Win32,59.17159763,682d573fa47f1360d1451895,,,,,,,,,,,468.5991,469.0977,,,469.35,469.7317,left,0.3676,,,,,,,,,0.45,,,,,,469.0978,469.3498,469.7323,"[-0.01185218930697057,0.1937960882672662]","[-1,-1,-1]","[0.11185482233221519,0.03633389517403566]","[1,1,1]","[-0.0025304531916681447,-0.08672618786418626]","[1,1,1]","[-0.1649882406727908,-0.012355498090601165]","[1,1,1]","[-0.09747311432749721,0.15518144695391878]","[-1,-1,-1]","[0.1612938919217874,-0.07857986698854912]","[-1,-1,-1]","[0.04392284602359968,-0.1775823922532722]","[1,1,1]","[-0.03777172352549519,0.08101955451773458]","[-1,-1,-1]","[0.14136702298446394,0.09267910149769167]","[1,1,1]","[-0.03968873574338198,0.03363185389185771]","[-1,-1,-1]","[-0.12059932828414859,-0.0700098961403292]","[-1,-1,-1]","[0.11998881110129209,-0.03867454767302522]","[1,1,1]","[-0.055686271134760205,0.19013360666512458]","[1,1,1]","[0.07185935432075452,-0.12466140313103548]","[-1,-1,-1]","[0.12392451662072869,-0.13246228245272312]","[1,1,1]","[0.08581799055123576,0.14224310302181353]","[1,1,1]","[-0.15960025613089154,0.061903389532028605]","[-1,-1,-1]","[-0.10961620325627902,0.05393230009915328]","[-1,-1,-1]","[-0.08149703678507389,-0.006675821346953079]","[-1,-1,-1]","[-0.16849768887483152,0.10757804248988868]","[-1,-1,-1]","[0.05629226415484998,0.11380355445755222]","[-1,-1,-1]","[0.03682648642815062,-0.071387338257673]","[1,1,1]","[-0.0685319047409363,-0.06061471058037913]","[-1,-1,-1]","[0.06862940897661728,0.07082313360680809]","[-1,-1,-1]","[0.1172902789745165,-0.09279986675519922]","[1,1,1]","[0.1829048153669545,-0.03786255970084784]","[-1,-1,-1]","[-0.07798905360504263,-0.16616492224043775]","[1,1,1]","[-0.007389491288027924,0.13083859414022442]","[-1,-1,-1]","[0.06976205650130227,-0.040948566750391754]","[1,1,1]","[-0.12354158911615497,-0.010433677661312358]","[-1,-1,-1]","[-0.03413169843589315,-0.02091191663212278]","[-1,-1,-1]","[-0.16719478671987853,-0.07743088530565834]","[1,1,1]","[0.02,0.02]",470.8315,0,8,8,64,1,,,,,,,
,,,,,,,6755b42b20cf26a928acaa05,68317a5d1c4b4dbc3c2f6744,2025-05-24_08h55.57.989,cuing_paradigm_dot,2024.1.5,Win32,59.17159763,682d573fa47f1360d1451895,,,,,,,,,,,470.8326,471.331,,,471.5837,471.9803,left,0.3804,,,,,,,,,0.55,,,,,,471.3311,471.5836,471.9805,"[0.1226398719253765,-0.05593848909528404]","[1,1,1]","[-0.06863806118522103,0.01747663366084839]","[1,1,1]","[-0.05916721940944211,0.17845936450458927]","[1,1,1]","[-0.004394575788202624,0.013607479401366793]","[-1,-1,-1]","[-0.07429686577881826,0.13970621578848078]","[1,1,1]","[-0.17492870831998278,-0.026184898697890393]","[1,1,1]","[0.000639151414445615,-0.08750566260432241]","[1,1,1]","[0.16849464088726326,0.008265272117591645]","[-1,-1,-1]","[-0.09943909300248065,-0.11992261733617295]","[1,1,1]","[-0.15536343692827875,0.009933420710201018]","[1,1,1]","[-0.01910659573485375,-0.18337214882322853]","[-1,-1,-1]","[0.14827407130586542,0.06813229105949256]","[1,1,1]","[-0.1273722079826147,0.09380674413284804]","[1,1,1]","[0.05398882630123407,-0.11535603264595408]","[1,1,1]","[0.06774886534551992,0.1028329178572901]","[-1,-1,-1]","[-0.034988775664662464,-0.1331306652457484]","[-1,-1,-1]","[0.04725417577170786,0.04356190097966156]","[-1,-1,-1]","[0.10137782819293058,-0.1044360966922721]","[-1,-1,-1]","[-0.17751279868826403,0.07836070564612453]","[1,1,1]","[0.013471966423727952,0.17574983881333311]","[1,1,1]","[-0.031103638148016678,0.08080716089286662]","[1,1,1]","[-0.05933082512237948,-0.03756838311391672]","[1,1,1]","[-0.11058437292742439,0.052181476912651355]","[1,1,1]","[0.028959206615182417,-0.17615587637076316]","[-1,-1,-1]","[-0.1455816872712868,-0.07583290680545396]","[-1,-1,-1]","[0.08981365003368832,0.033751221062200534]","[-1,-1,-1]","[0.11934295394454893,-0.15060383392246723]","[-1,-1,-1]","[0.17044349743582585,-0.05737763980241051]","[-1,-1,-1]","[0.05013097524514132,-0.04277763118961087]","[1,1,1]","[0.15819136013230384,0.11374175232845142]","[1,1,1]","[0.09641086802723252,0.17000181515296872]","[-1,-1,-1]","[0.12028012220909488,0.13122986649528137]","[-1,-1,-1]","[0.02,0.02]",473.0811,0,9,9,149,1,,,,,,,
,,,,,,,6755b42b20cf26a928acaa05,68317a5d1c4b4dbc3c2f6744,2025-05-24_08h55.57.989,cuing_paradigm_dot,2024.1.5,Win32,59.17159763,682d573fa47f1360d1451895,,,,,,,,,,,473.0822,473.5812,,,473.8362,474.3822,left,0.5224,,,,,,,,,0.45,,,,,,473.5812,473.8361,474.3826,"[0.14360330862397352,-0.014836023480917853]","[1,1,1]","[0.11336387836443237,0.07081359824095314]","[1,1,1]","[-0.17657675574960457,0.07526360273227951]","[1,1,1]","[0.07085785632979935,-0.11971786817698647]","[-1,-1,-1]","[0.02399567024105641,-0.02336609742684048]","[-1,-1,-1]","[-0.007086165420964215,0.14728045141346882]","[1,1,1]","[-0.057321096513574005,0.11189665078550448]","[1,1,1]","[-0.10472909323856049,0.014173074071677077]","[-1,-1,-1]","[-0.16232467823519486,-0.08487571000403374]","[-1,-1,-1]","[0.11974397780461359,0.0291384497515551]","[1,1,1]","[0.03568956275260839,-0.14955832647200967]","[-1,-1,-1]","[-0.14181280031769314,-0.026087808709196542]","[1,1,1]","[-0.003680561904777708,0.08416896018978157]","[1,1,1]","[-0.10348245107447578,0.05570398387478976]","[-1,-1,-1]","[-0.1094418716338059,-0.16234618387890076]","[-1,-1,-1]","[0.00966847884901437,-0.10872448088275176]","[-1,-1,-1]","[-0.028778650360226758,-0.06068678698924918]","[-1,-1,-1]","[0.13600291938822592,-0.05812255069379111]","[-1,-1,-1]","[0.03573227707465268,0.15701711905033963]","[-1,-1,-1]","[-0.036729740466710216,-0.11687710480710174]","[-1,-1,-1]","[0.0014606772588941282,0.19720305540783187]","[-1,-1,-1]","[0.003420688930919359,0.04201253664691535]","[1,1,1]","[-0.07559336193546683,-0.015168839840372398]","[-1,-1,-1]","[-0.051480665985478465,0.07139814112021431]","[-1,-1,-1]","[0.07370708369419807,-0.03895274898521272]","[-1,-1,-1]","[0.1609238112702805,-0.11765240263483026]","[1,1,1]","[-0.013844818367868942,-0.1962671000078356]","[-1,-1,-1]","[0.19372359998751873,-0.03635454098488285]","[1,1,1]","[0.041662179593358,-0.1951638577007082]","[1,1,1]","[-0.07831986812639985,-0.11685998441860085]","[1,1,1]","[-0.17238480824389574,0.008353053643062663]","[-1,-1,-1]","[-0.06989325857665085,-0.16928100388598116]","[1,1,1]","[0.02,0.02]",475.4813,0,10,10,71,1,,,,,,,
,,,,,,,6755b42b20cf26a928acaa05,68317a5d1c4b4dbc3c2f6744,2025-05-24_08h55.57.989,cuing_paradigm_dot,2024.1.5,Win32,59.17159763,682d573fa47f1360d1451895,,,,,,,,,,,475.4831,475.9815,,,476.2323,476.6477,right,0.4018,,,,,,,,,0.5,,,,,,475.9815,476.2322,476.6479,"[0.16551849277735292,0.09095068596658432]","[1,1,1]","[0.06088728071765409,-0.05300236464511863]","[1,1,1]","[0.09389920311707643,-0.15656350604072858]","[-1,-1,-1]","[0.009125366876187004,-0.012144475901319915]","[-1,-1,-1]","[-0.0814345964394255,-0.14489958548790574]","[-1,-1,-1]","[0.02792817246701657,0.13575316682925245]","[1,1,1]","[0.10732752391695212,-0.0292002838116395]","[-1,-1,-1]","[0.05099122188979579,0.1789709505662222]","[1,1,1]","[-0.15010956188743868,-0.03503804224769603]","[1,1,1]","[-0.16536347795448544,0.0922553395669366]","[-1,-1,-1]","[0.13863256931504955,0.13489617579259675]","[-1,-1,-1]","[0.12047883878469028,0.0179037458643481]","[-1,-1,-1]","[-0.013001687174370167,-0.11058332916937991]","[-1,-1,-1]","[-0.09937497564697688,0.12550676255089196]","[-1,-1,-1]","[-0.08095128150324125,-0.06162155690539158]","[1,1,1]","[0.018071233442937876,0.068222770714851]","[1,1,1]","[-0.12262463328084258,0.05920180221484503]","[1,1,1]","[0.14170391053778345,-0.07887203416111821]","[-1,-1,-1]","[0.08480692417432086,0.0696026168338896]","[1,1,1]","[0.035753203024523256,-0.09300030401869824]","[1,1,1]","[-0.11153853227118062,-0.020256299596502946]","[-1,-1,-1]","[-0.041822838981556074,0.16487111319459047]","[-1,-1,-1]","[-0.0071072210754762714,0.1879385782502927]","[-1,-1,-1]","[-0.017136779764195455,0.03279758210437528]","[-1,-1,-1]","[-0.16483653183747712,0.013840280755119725]","[1,1,1]","[0.01868371525190091,-0.1524845936373415]","[1,1,1]","[-0.03524134068514737,-0.05532717185105126]","[1,1,1]","[0.12962915919147805,0.06626314974713317]","[1,1,1]","[-0.13789626974282035,0.14038562059080273]","[-1,-1,-1]","[-0.028531482043976885,-0.17730211414428534]","[1,1,1]","[0.07492738771588542,-0.11885120928655048]","[-1,-1,-1]","[-0.05720296020353638,0.06508684035185444]","[1,1,1]","[0.02,0.02]",477.7475,0,11,11,101,1,,,,,,,
,,,,,,,6755b42b20cf26a928acaa05,68317a5d1c4b4dbc3c2f6744,2025-05-24_08h55.57.989,cuing_paradigm_dot,2024.1.5,Win32,59.17159763,682d573fa47f1360d1451895,,,,,,,,,,,477.7496,478.2474,,,478.5031,479.0829,right,0.5568,,,,,,,,,0.55,,,,,,478.2475,478.5029,479.083,"[0.08216136874756197,0.024541350355893898]","[1,1,1]","[0.12409308255910896,0.049085913015718914]","[-1,-1,-1]","[-0.01591079575283118,0.015441946816414615]","[1,1,1]","[-0.17522151306427697,0.0035522136568210214]","[-1,-1,-1]","[0.07678286599548728,0.07259818880210447]","[1,1,1]","[0.04062063063423382,0.15572942505949947]","[1,1,1]","[0.016924566888082363,-0.10411444287722743]","[1,1,1]","[-0.027579610667671742,0.17878499963370006]","[-1,-1,-1]","[0.19240630986801938,-0.026829377847510587]","[1,1,1]","[0.046378360073327844,-0.14410539251277055]","[1,1,1]","[-0.11540598441861083,-0.05339076646941956]","[-1,-1,-1]","[-0.10400818332548047,-0.10982511952680134]","[-1,-1,-1]","[0.13334089896579948,0.11425597652440711]","[-1,-1,-1]","[0.09805277346832507,-0.14305164917003857]","[1,1,1]","[-0.11842123689168145,0.050307315512722744]","[-1,-1,-1]","[0.026514537420475638,0.014074682841786581]","[1,1,1]","[-0.07260643601739793,0.038430356330616804]","[-1,-1,-1]","[0.09492896930724007,0.16997615607923952]","[1,1,1]","[-0.0849034589506957,0.17468367140610475]","[1,1,1]","[-0.13326897989152905,0.14193467766060638]","[1,1,1]","[0.14493219205127422,-0.06000970810187142]","[1,1,1]","[-0.035209459740702054,-0.13629947623184568]","[1,1,1]","[-0.1488729338184722,0.07679658537062065]","[1,1,1]","[0.0012348001861361467,0.0690810813431039]","[-1,-1,-1]","[-0.07570102052435743,-0.16135473379218285]","[1,1,1]","[-0.08082889920999502,-0.025520968728779743]","[-1,-1,-1]","[0.08142044638115524,0.12662977713698562]","[-1,-1,-1]","[0.0889925102846374,-0.09030772820117557]","[-1,-1,-1]","[-0.06440678574056265,0.08707979734642782]","[1,1,1]","[0.02725347237291544,-0.0616657942083435]","[-1,-1,-1]","[-0.18751685757312278,0.06269726669347414]","[1,1,1]","[0.006204596235340475,0.1106078149814906]","[-1,-1,-1]","[0.02,0.02]",480.181,0,12,12,123,1,,,,,,,
,,,,,,,6755b42b20cf26a928acaa05,68317a5d1c4b4dbc3c2f6744,2025-05-24_08h55.57.989,cuing_paradigm_dot,2024.1.5,Win32,59.17159763,682d573fa47f1360d1451895,,,,,,,,,,,480.1819,480.681,,,480.9352,481.4144,left,0.453,,,,,,,,,0.5,,,,,,480.6811,480.9352,481.4149,"[-0.11097696255788245,-0.08747631570481795]","[1,1,1]","[-0.17715328897111188,-0.08154351304559682]","[1,1,1]","[0.016004626299451104,0.06093043127333514]","[1,1,1]","[-0.013777634747739262,0.13891737689524086]","[-1,-1,-1]","[0.15529522799916862,-0.05587338798999241]","[1,1,1]","[0.07838389302785423,-0.17356095951892506]","[-1,-1,-1]","[-0.1406621080986996,0.05778196005234287]","[-1,-1,-1]","[-0.04869565692875168,0.03709281336550395]","[-1,-1,-1]","[0.019020817491744606,-0.07744886175496818]","[1,1,1]","[0.030801592878841832,-0.020578675718248833]","[-1,-1,-1]","[-0.002136033901942043,0.01319245712225826]","[1,1,1]","[0.09273250091018793,-0.12312492577175767]","[-1,-1,-1]","[0.08510778261457148,0.003737255087993051]","[1,1,1]","[0.07091289894750609,0.11101613423710785]","[-1,-1,-1]","[-0.17964981039503164,-0.024796017695028736]","[-1,-1,-1]","[0.0697884899829189,-0.07613165970300768]","[1,1,1]","[0.1261851546706137,0.04275504608075428]","[1,1,1]","[-0.035102304538749754,-0.10201400310587455]","[-1,-1,-1]","[-0.06305746829519757,-0.18403628215499235]","[-1,-1,-1]","[0.17423192192567594,0.0020322436584814573]","[1,1,1]","[-0.09239573416134111,0.007553051504927843]","[-1,-1,-1]","[-0.01226131598234351,0.19782528050591128]","[-1,-1,-1]","[0.007932698041036166,-0.1396199405055057]","[-1,-1,-1]","[-0.10570492275871975,0.13819826345030234]","[-1,-1,-1]","[0.08146190135829925,0.17359421924709312]","[1,1,1]","[-0.18404923039395785,0.024881674315462506]","[1,1,1]","[0.111816244517647,0.10754108168514102]","[1,1,1]","[-0.09209048332964803,0.17735055894791316]","[1,1,1]","[-0.02910205919765041,0.0837984721568104]","[-1,-1,-1]","[0.043403658011373754,-0.11658239263511323]","[1,1,1]","[-0.0920907370446489,-0.13184077170086952]","[-1,-1,-1]","[0.19068698890886024,0.043908380969110754]","[1,1,1]","[0.02,0.02]",482.514,0,13,13,103,1,,,,,,,
,,,,,,,6755b42b20cf26a928acaa05,68317a5d1c4b4dbc3c2f6744,2025-05-24_08h55.57.989,cuing_paradigm_dot,2024.1.5,Win32,59.17159763,682d573fa47f1360d1451895,,,,,,,,,,,482.5164,483.014,,,483.2654,483.7143,right,0.4353,,,,,,,,,0.55,,,,,,483.0142,483.2653,483.7148,"[0.01792320124426447,-0.07643725411832084]","[1,1,1]","[0.03675503803321007,0.1669831666953389]","[-1,-1,-1]","[-0.061738832203724656,-0.14976637805233925]","[-1,-1,-1]","[-0.1853909265830529,-0.0639240280128759]","[-1,-1,-1]","[0.14456605065833433,-0.07760747610859371]","[1,1,1]","[-0.1029203803355976,-0.06152946917565875]","[1,1,1]","[-0.19732429107920232,-0.01639294670252005]","[-1,-1,-1]","[-0.0493414460547856,0.0870764741227602]","[1,1,1]","[0.05852121423657623,0.07990175374234848]","[1,1,1]","[0.14053757271567222,-0.030772765367148725]","[-1,-1,-1]","[-0.10885986374530718,0.1298562392570977]","[1,1,1]","[-0.013448317478892441,0.17982144507058676]","[1,1,1]","[-0.009757979103846674,0.09901267398194537]","[1,1,1]","[-0.07013822049976626,0.043817280144736286]","[1,1,1]","[-0.16566958869572154,0.09789023349901349]","[-1,-1,-1]","[0.13622662394571028,0.030128786152452746]","[1,1,1]","[0.1820322077351126,0.01771963325473318]","[-1,-1,-1]","[0.09570758378580864,0.12636272458370787]","[1,1,1]","[0.09357259765959318,-0.08356728356981913]","[1,1,1]","[-0.004833148262356596,-0.12629607753853792]","[1,1,1]","[0.007510670294231402,0.041731915673757544]","[-1,-1,-1]","[-0.12733341621066938,0.044393987923576544]","[1,1,1]","[0.06911415102575283,-0.13970914947380372]","[1,1,1]","[0.04633421217088623,0.008249864143022024]","[-1,-1,-1]","[-0.07543691439286448,-0.022129312505315545]","[-1,-1,-1]","[0.1371666513987012,0.07940232416488291]","[1,1,1]","[0.12933765685223192,-0.11638997571997957]","[-1,-1,-1]","[-0.15477081838166346,-0.11670809770959611]","[-1,-1,-1]","[0.042387091111358445,0.12133620808125249]","[-1,-1,-1]","[-0.034700196054598634,-0.06602264583545792]","[1,1,1]","[-0.05013216752370884,0.13855167073122152]","[1,1,1]","[0.17866829826633152,0.05888359586426713]","[-1,-1,-1]","[0.02,0.02]",484.8138,0,14,14,147,1,,,,,,,
,,,,,,,6755b42b20cf26a928acaa05,68317a5d1c4b4dbc3c2f6744,2025-05-24_08h55.57.989,cuing_paradigm_dot,2024.1.5,Win32,59.17159763,682d573fa47f1360d1451895,,,,,,,,,,,484.815,485.3137,,,485.5646,485.8473,left,0.2666,,,,,,,,,0.1,,,,,,485.3137,485.5646,485.8475,"[0.17577088800125548,-0.08603398272936062]","[-1,-1,-1]","[0.06597835889528225,0.045044031785701995]","[-1,-1,-1]","[-0.11162880806837501,-0.009996585822451914]","[-1,-1,-1]","[-0.09295618919393535,0.14401555947277678]","[-1,-1,-1]","[0.07540709216879024,0.11496857192241447]","[-1,-1,-1]","[0.09340721490273923,0.006244132375720643]","[-1,-1,-1]","[-0.019109441022719005,0.16960050722590198]","[-1,-1,-1]","[-0.029235819394840157,-0.0751485286243177]","[-1,-1,-1]","[0.04493821800622443,-0.10268518237243125]","[-1,-1,-1]","[-0.069968713486804,-0.13787123379221095]","[-1,-1,-1]","[0.12844414972113768,-0.03412755046512476]","[-1,-1,-1]","[-0.16840126811521622,0.006107827664471818]","[-1,-1,-1]","[-0.06414460231879021,-0.03218121201593253]","[1,1,1]","[-0.0902121913230237,0.048692718473925894]","[-1,-1,-1]","[0.011127629239740434,0.12796995436138228]","[-1,-1,-1]","[-0.1561639317120764,0.07750807744738338]","[-1,-1,-1]","[-0.008301886115443078,-0.00975399910358482]","[-1,-1,-1]","[0.02448471587019102,0.01747459855169335]","[-1,-1,-1]","[0.011789999330844465,-0.07426002329420218]","[-1,-1,-1]","[0.07236494265967024,-0.03314551620781534]","[1,1,1]","[0.1490056426000663,0.08654143883935396]","[-1,-1,-1]","[0.07914458778373576,-0.1251963093794439]","[-1,-1,-1]","[0.053292375691519664,-0.17629360732677904]","[-1,-1,-1]","[-0.059920885410304006,0.009985606517822486]","[1,1,1]","[0.016953080477247896,-0.19484336731135618]","[-1,-1,-1]","[-0.13380371371258018,0.12261172070027516]","[-1,-1,-1]","[-0.024395917093045602,0.05068808091215793]","[-1,-1,-1]","[-0.025193260802889406,0.09947151578640331]","[-1,-1,-1]","[0.1415572704660236,-0.11648607858200494]","[-1,-1,-1]","[-0.15017469908433134,-0.08192556070236519]","[-1,-1,-1]","[-0.1338053997229343,-0.1350411247988075]","[-1,-1,-1]","[-0.10439948684166198,-0.1036017675196886]","[-1,-1,-1]","[0.02,0.02]",486.947,0,15,15,27,1,,,,,,,
,,,,,,,6755b42b20cf26a928acaa05,68317a5d1c4b4dbc3c2f6744,2025-05-24_08h55.57.989,cuing_paradigm_dot,2024.1.5,Win32,59.17159763,682d573fa47f1360d1451895,,,,,,,,,,,486.948,487.4468,,,487.6993,488.1139,left,0.3978,,,,,,,,,0.6,,,,,,487.4468,487.6991,488.1141,"[0.17981132535853575,0.03929874552054791]","[-1,-1,-1]","[-0.1452600433173715,0.06454461362824694]","[1,1,1]","[-0.18471844680678162,-0.005105168872389181]","[-1,-1,-1]","[-0.08056482752148608,-0.14571027992761884]","[-1,-1,-1]","[-0.06619406932673033,0.033636277942316946]","[1,1,1]","[-0.10100584560667349,0.08754148438894882]","[1,1,1]","[0.10631720605632895,0.0071353894123843365]","[1,1,1]","[0.14282098296494508,-0.06156578527712891]","[1,1,1]","[-0.14282509734227428,-0.08988491627453338]","[1,1,1]","[-0.07291896517544734,-0.023444568891260387]","[1,1,1]","[0.0643267074884918,-0.10931294409947569]","[-1,-1,-1]","[-0.003557838182750688,-0.11803825262704072]","[1,1,1]","[0.042324673991375246,0.16385112572392493]","[-1,-1,-1]","[0.03827943431410383,-0.04755913428831438]","[1,1,1]","[0.03297498852581135,-0.19576313848399082]","[1,1,1]","[-0.03170373131266486,-0.1799628178692388]","[-1,-1,-1]","[-0.1415496989850574,0.13973930502327903]","[-1,-1,-1]","[0.10852207113298873,0.06275926956421934]","[1,1,1]","[-0.13215589207686945,-0.03818267378593707]","[1,1,1]","[0.14109217548084263,0.1281219147081342]","[-1,-1,-1]","[0.003325532533844301,0.10435834551175607]","[1,1,1]","[-0.01821067716233591,-0.023230275246436182]","[-1,-1,-1]","[0.013294993894866446,0.025408263424149004]","[1,1,1]","[0.14697929254261644,0.007632052234037445]","[-1,-1,-1]","[-0.11331235503714265,0.024048211969300133]","[1,1,1]","[0.1204755966215224,-0.15432423305031095]","[1,1,1]","[-0.0899582234055839,0.1353924996475328]","[1,1,1]","[0.047463843817871366,0.11114364130726131]","[1,1,1]","[0.17622730470763825,-0.0885262721263022]","[-1,-1,-1]","[0.08478623783192864,0.16356095674972224]","[-1,-1,-1]","[-0.1268071851802391,-0.14239394597630264]","[-1,-1,-1]","[-0.08355430193435971,-0.10203190225444392]","[1,1,1]","[0.02,0.02]",489.2136,0,16,16,163,1,,,,,,,
,,,,,,,6755b42b20cf26a928acaa05,68317a5d1c4b4dbc3c2f6744,2025-05-24_08h55.57.989,cuing_paradigm_dot,2024.1.5,Win32,59.17159763,682d573fa47f1360d1451895,,,,,,,,,,,489.215,489.7135,,,489.9698,490.3646,left,0.3744,,,,,,,,,0.1,,,,,,489.7135,489.9697,490.3648,"[-0.14000377512238735,0.06592258163624856]","[-1,-1,-1]","[-0.1133837778348251,-0.07866742501564353]","[-1,-1,-1]","[0.07526760456229226,-0.010985923838378221]","[-1,-1,-1]","[0.07644535846810019,-0.1090212874244102]","[-1,-1,-1]","[-0.0403894275085369,-0.02337832379198719]","[-1,-1,-1]","[-0.017935293270664857,0.18454556330664262]","[-1,-1,-1]","[0.15319851456065348,0.003310518913561793]","[-1,-1,-1]","[-0.07073207979574747,0.09335697248494218]","[-1,-1,-1]","[0.1513085029844543,-0.10129344550235048]","[-1,-1,-1]","[-0.010063126758970998,-0.05035697387223726]","[-1,-1,-1]","[0.06400818158257794,0.08194217132292711]","[-1,-1,-1]","[-0.0031093922807855575,0.04054833003841488]","[-1,-1,-1]","[-0.16357864762688504,-0.03636689666712945]","[-1,-1,-1]","[0.11031076072592605,0.017895971931483637]","[-1,-1,-1]","[-0.09259947435876104,0.14064205539727279]","[-1,-1,-1]","[-0.0971799383973851,-0.026678999246132037]","[-1,-1,-1]","[0.024440272344408643,-0.15537874764218443]","[-1,-1,-1]","[-0.03899954766426917,0.1415636724561988]","[-1,-1,-1]","[0.08325696656847376,-0.060399261462584904]","[-1,-1,-1]","[-0.08387998582506524,0.044823340915462355]","[-1,-1,-1]","[-0.021857658236151913,-0.11526408397024526]","[-1,-1,-1]","[0.09536909106172942,0.10683699476720088]","[1,1,1]","[-0.029631728909089466,-0.15725962901967946]","[1,1,1]","[0.1662150856788248,0.08027939795480252]","[-1,-1,-1]","[-0.000005738447277951698,0.08734687594442521]","[-1,-1,-1]","[-0.18992511204417784,0.060115358989311064]","[-1,-1,-1]","[0.12155348314241936,-0.1342437816536338]","[1,1,1]","[-0.07222092270828678,-0.13932527028954314]","[-1,-1,-1]","[0.031146456771642118,-0.03330248507202141]","[-1,-1,-1]","[-0.04188187680799513,0.057493464870203605]","[-1,-1,-1]","[0.04966909428986113,0.19318583019867197]","[-1,-1,-1]","[-0.13963883334693114,0.001971219653076043]","[-1,-1,-1]","[0.02,0.02]",491.4636,0,17,17,0,1,,,,,,,
,,,,,,,6755b42b20cf26a928acaa05,68317a5d1c4b4dbc3c2f6744,2025-05-24_08h55.57.989,cuing_paradigm_dot,2024.1.5,Win32,59.17159763,682d573fa47f1360d1451895,,,,,,,,,,,491.4653,491.9637,,,492.2135,492.697,left,0.4744,,,,,,,,,0.4,,,,,,491.9638,492.2135,492.6973,"[-0.07860067986430695,-0.01723321742902763]","[-1,-1,-1]","[-0.023831895476922094,-0.019934313744275133]","[-1,-1,-1]","[0.1610707623296035,0.04271592897719328]","[1,1,1]","[0.13810666609626412,0.08251576019542681]","[1,1,1]","[-0.11552779270662696,-0.12941121808107328]","[1,1,1]","[-0.07907752785684645,0.0735812285892317]","[-1,-1,-1]","[0.11241064479478917,-0.0191756079501886]","[1,1,1]","[-0.007038378330601971,-0.10185873006599139]","[1,1,1]","[-0.1280100488534726,0.020347943000100132]","[-1,-1,-1]","[-0.1462136826469974,-0.1021701842831417]","[1,1,1]","[-0.045159132417069946,-0.1657343167822261]","[-1,-1,-1]","[0.06658448765970017,-0.1819922264734839]","[-1,-1,-1]","[0.01686193432033815,-0.000007133465336946334]","[1,1,1]","[-0.11772866600947293,-0.055270040127777156]","[-1,-1,-1]","[0.046189552569729266,0.051427110895130676]","[-1,-1,-1]","[0.11259746454652364,-0.1615737902414316]","[-1,-1,-1]","[0.05450438747607152,-0.046916492539309095]","[-1,-1,-1]","[-0.1803241155208988,0.02535674591939959]","[1,1,1]","[0.08552616763444235,0.03223935049749771]","[-1,-1,-1]","[0.09702199616123504,0.11127957639921968]","[-1,-1,-1]","[-0.07601955712595358,-0.06593823902550301]","[1,1,1]","[0.0441145729895954,0.17434644263460677]","[1,1,1]","[0.19593606331362137,-0.0011476310125641779]","[-1,-1,-1]","[-0.05921469828962345,0.02081668313937783]","[-1,-1,-1]","[-0.1281378122425241,0.1488000246788869]","[-1,-1,-1]","[0.01096654391493012,0.0936059437792385]","[-1,-1,-1]","[0.09341740850109381,0.16834099798767854]","[-1,-1,-1]","[0.1558635372159003,-0.08622358265219837]","[1,1,1]","[-0.028866334273310864,0.16563148040789138]","[-1,-1,-1]","[-0.1508316494058994,-0.015949513977635985]","[1,1,1]","[-0.02230308582590413,0.1228870334147547]","[1,1,1]","[-0.12110690184733801,0.07405955881244469]","[-1,-1,-1]","[0.02,0.02]",493.7967,0,18,18,57,1,,,,,,,
,,,,,,,6755b42b20cf26a928acaa05,68317a5d1c4b4dbc3c2f6744,2025-05-24_08h55.57.989,cuing_paradigm_dot,2024.1.5,Win32,59.17159763,682d573fa47f1360d1451895,,,,,,,,,,,493.7981,494.2967,,,494.5478,495.1303,right,0.5679,,,,,,,,,0.55,,,,,,494.2969,494.5478,495.1305,"[-0.09012177000308898,-0.09269119211363952]","[-1,-1,-1]","[-0.052979210338102246,0.01266201102732517]","[-1,-1,-1]","[0.09543690516557041,-0.11833690025314064]","[1,1,1]","[0.1538863452207746,0.0947019797830557]","[-1,-1,-1]","[-0.11313688529454481,0.015005813331495069]","[-1,-1,-1]","[0.029322860326381456,0.10118589027303986]","[1,1,1]","[0.007808120682984533,0.06678697948052596]","[1,1,1]","[-0.0483688480059514,-0.03302153015327683]","[1,1,1]","[-0.17843971953652868,-0.015853952761168907]","[1,1,1]","[0.11222310875799775,0.043940069124238965]","[1,1,1]","[-0.1517348866722803,-0.055560618543762444]","[1,1,1]","[-0.13433682212868403,0.1273828810283332]","[1,1,1]","[0.10917497176445991,0.08599839191603632]","[-1,-1,-1]","[-0.02276763996275796,-0.1411570460297662]","[1,1,1]","[0.09052717857288907,-0.06348353438556079]","[1,1,1]","[-0.01076746763494696,0.13611784078817815]","[-1,-1,-1]","[0.022515745591493313,-0.04877634866445455]","[1,1,1]","[-0.09407377870043702,0.1554604775799143]","[-1,-1,-1]","[0.12282136075475204,0.15218163364560908]","[-1,-1,-1]","[0.034740658648697326,0.1964696447543698]","[1,1,1]","[0.1233812238083469,-0.018520424063914586]","[-1,-1,-1]","[-0.11292299619024651,-0.1295928140881042]","[1,1,1]","[-0.19659551558837154,0.03672265005454061]","[1,1,1]","[-0.0963896653298829,0.08724684829546266]","[1,1,1]","[0.01062658098726098,-0.18682622839104993]","[1,1,1]","[-0.07939356851775964,-0.16066682182731254]","[-1,-1,-1]","[-0.02667334395093387,-0.07100210312418238]","[-1,-1,-1]","[-0.05131073994520792,0.07369668755388493]","[-1,-1,-1]","[0.033677685629195174,-0.13721745301129246]","[-1,-1,-1]","[-0.048211541026232915,0.15505151161429429]","[1,1,1]","[0.1863066702100857,0.066883455348751]","[-1,-1,-1]","[0.14573565731505286,-0.08606219637685388]","[1,1,1]","[0.02,0.02]",496.2299,0,19,19,131,1,,,,,,,
,,,,,,,6755b42b20cf26a928acaa05,68317a5d1c4b4dbc3c2f6744,2025-05-24_08h55.57.989,cuing_paradigm_dot,2024.1.5,Win32,59.17159763,682d573fa47f1360d1451895,,,,,,,,,,,496.232,496.7298,,,496.9812,497.3804,left,0.3845,,,,,,,,,0.1,,,,,,496.73,496.981,497.3805,"[-0.03883976195535137,0.019515757283742247]","[-1,-1,-1]","[0.18891179042570594,-0.02990042629066585]","[-1,-1,-1]","[-0.06588741241908275,0.0691096794279299]","[-1,-1,-1]","[-0.12920256061637606,-0.07749015300037261]","[-1,-1,-1]","[0.10688810752988923,0.11857367665478091]","[-1,-1,-1]","[-0.025522938898377062,0.0967332847523574]","[-1,-1,-1]","[0.1146113802027612,-0.07202316228505709]","[-1,-1,-1]","[0.1808296974549365,0.048924803385637136]","[-1,-1,-1]","[0.0019481117810016468,-0.16405708275059716]","[-1,-1,-1]","[0.01315485134946509,0.13817139225989]","[-1,-1,-1]","[-0.0318527351281737,-0.0638539356720773]","[-1,-1,-1]","[0.02728377089421565,0.039061449655284616]","[-1,-1,-1]","[0.07763063780615928,0.15919292577906488]","[-1,-1,-1]","[-0.04938939473558015,0.16017215510056987]","[-1,-1,-1]","[-0.1319301465305761,0.12024688833018642]","[-1,-1,-1]","[0.019728996789655107,-0.10466333276294536]","[-1,-1,-1]","[0.005503038518498096,0.1862258652387765]","[-1,-1,-1]","[0.17208331192540705,0.09703684500384532]","[1,1,1]","[0.07853583311742857,-0.12321680007287254]","[-1,-1,-1]","[-0.08914204785900375,-0.002965619688925412]","[-1,-1,-1]","[-0.08190544538398942,-0.07192358493678995]","[-1,-1,-1]","[-0.10263596182033068,0.16006809389931498]","[-1,-1,-1]","[-0.189922435775789,0.04275651236768142]","[-1,-1,-1]","[0.13098697766537815,-0.0012681822994742452]","[-1,-1,-1]","[-0.03703624769429885,-0.19555258268002418]","[-1,-1,-1]","[-0.12467840092362961,-0.11793292970111427]","[-1,-1,-1]","[-0.1521255825243796,0.022760235421613897]","[-1,-1,-1]","[-0.18556911258469938,-0.06550434622397387]","[-1,-1,-1]","[0.13218284340165123,-0.1316685314922249]","[1,1,1]","[0.06570860025628746,0.12056028090539334]","[1,1,1]","[0.00035700805662349265,-0.012159759226727377]","[-1,-1,-1]","[0.015124657954330965,-0.053518813391488756]","[-1,-1,-1]","[0.02,0.02]",498.4798,0,20,20,14,1,,,,,,,
,,,,,,,6755b42b20cf26a928acaa05,68317a5d1c4b4dbc3c2f6744,2025-05-24_08h55.57.989,cuing_paradigm_dot,2024.1.5,Win32,59.17159763,682d573fa47f1360d1451895,,,,,,,,,,,498.4811,498.9798,,,499.231,500.0469,left,0.8042,,,,,,,,,0.45,,,,,,498.98,499.2308,500.047,"[-0.08945655841871845,-0.13524314474933485]","[-1,-1,-1]","[0.0682360053476818,-0.18246467314252177]","[-1,-1,-1]","[0.004385706966219436,-0.13170185553892377]","[-1,-1,-1]","[0.17753963481463625,0.04792007956725841]","[1,1,1]","[0.018089112887690648,-0.05498960092747365]","[-1,-1,-1]","[-0.13152264535240668,0.07254309942656328]","[-1,-1,-1]","[0.12883353038914352,-0.0986425274966384]","[-1,-1,-1]","[0.048083379171452285,-0.08868013255422254]","[1,1,1]","[-0.166171353333723,-0.08161628161697669]","[-1,-1,-1]","[-0.07447862705432544,-0.031159792950860417]","[-1,-1,-1]","[0.11526795192457527,0.11770618803511952]","[-1,-1,-1]","[-0.07022709038021441,-0.17557921213312735]","[-1,-1,-1]","[-0.08105635124490432,0.03503172806696669]","[-1,-1,-1]","[0.03353098187705635,0.018180191534605955]","[1,1,1]","[-0.002130600074669823,0.09257216120945695]","[-1,-1,-1]","[-0.12951617679451033,-0.14275944639723304]","[1,1,1]","[-0.09900791918591721,-0.07288485922240982]","[1,1,1]","[0.1489417836632364,0.07643074926485424]","[-1,-1,-1]","[0.058811207091042435,-0.04562856924746675]","[1,1,1]","[-0.14987854144427817,0.12101555059602984]","[1,1,1]","[0.14852724018477867,-0.01854918499056776]","[1,1,1]","[0.055524805354218436,0.12984513821983173]","[1,1,1]","[0.10309627775932133,-0.05428146905282782]","[-1,-1,-1]","[0.08379728402704471,-0.004025858506294315]","[-1,-1,-1]","[0.0875307924836199,0.0819956868884659]","[1,1,1]","[-0.10921878676554529,0.15175157995672559]","[-1,-1,-1]","[-0.025011025947107815,-0.02919707949014331]","[-1,-1,-1]","[0.026886306481065478,0.19441564542416145]","[1,1,1]","[-0.01942998392897164,0.04124007867891345]","[-1,-1,-1]","[0.06517084200662583,-0.13981039775974044]","[1,1,1]","[-0.004604583782999718,0.16567644892978162]","[1,1,1]","[-0.04067355085812021,-0.08140108041956048]","[1,1,1]","[0.02,0.02]",501.1463,0,21,21,67,1,,,,,,,
,,,,,,,6755b42b20cf26a928acaa05,68317a5d1c4b4dbc3c2f6744,2025-05-24_08h55.57.989,cuing_paradigm_dot,2024.1.5,Win32,59.17159763,682d573fa47f1360d1451895,,,,,,,,,,,501.1476,501.6462,,,501.8972,502.5134,right,0.6026,,,,,,,,,0.4,,,,,,501.6464,501.8971,502.5134,"[0.14311225955819679,0.05846938009553319]","[-1,-1,-1]","[-0.035329500669262416,0.057573869748192126]","[1,1,1]","[0.1774704002513109,-0.022018668829282106]","[1,1,1]","[0.12578771982796155,-0.0008513203949867618]","[-1,-1,-1]","[-0.19203172278228242,-0.005545578630661213]","[-1,-1,-1]","[-0.13804846375369648,-0.11988222166251712]","[-1,-1,-1]","[0.010036029135016965,-0.00018751109439196816]","[-1,-1,-1]","[0.05833686576996135,0.06644878688648327]","[-1,-1,-1]","[0.051684455018817785,-0.002595140563937528]","[-1,-1,-1]","[-0.17625076243565133,0.054471303110863886]","[-1,-1,-1]","[0.08379443843076069,0.14274167372168403]","[1,1,1]","[0.045898766300214354,-0.046158168854898374]","[1,1,1]","[0.15636341255162428,-0.08502915031997246]","[-1,-1,-1]","[-0.06005895720345461,-0.15876870778898716]","[1,1,1]","[0.10435520073075581,-0.08727314857372027]","[1,1,1]","[0.043879403565168194,0.17372160684406554]","[1,1,1]","[-0.019416106410318473,-0.19899388322810474]","[-1,-1,-1]","[-0.16813071448241554,-0.07441549167324354]","[1,1,1]","[-0.004511160049982594,0.18908023597646934]","[-1,-1,-1]","[-0.09782220083294428,0.008765411145367434]","[-1,-1,-1]","[-0.01882431636149343,-0.08064865939826393]","[1,1,1]","[-0.026609852624619682,-0.13484788563901637]","[1,1,1]","[-0.0008114524160831367,0.14863691584660976]","[1,1,1]","[-0.1243959361998552,-0.02772254938079787]","[-1,-1,-1]","[0.12483296253626966,-0.12644091508799032]","[-1,-1,-1]","[-0.11988147251121489,0.05019380834599179]","[-1,-1,-1]","[-0.016321862624984033,-0.040041388648317425]","[1,1,1]","[0.18736055971294316,0.059524680656126656]","[-1,-1,-1]","[0.09510727003855601,-0.038114582017074294]","[-1,-1,-1]","[0.12708213886111697,0.10184980126781265]","[1,1,1]","[0.01904612859107299,-0.11665400238294436]","[-1,-1,-1]","[0.18083552817641216,0.018684124290567518]","[-1,-1,-1]","[0.02,0.02]",503.6128,0,22,22,41,1,,,,,,,
,,,,,,,6755b42b20cf26a928acaa05,68317a5d1c4b4dbc3c2f6744,2025-05-24_08h55.57.989,cuing_paradigm_dot,2024.1.5,Win32,59.17159763,682d573fa47f1360d1451895,,,,,,,,,,,503.6139,504.1123,,,504.3642,505.0968,left,0.7202,,,,,,,,,0.5,,,,,,504.1123,504.3642,505.0973,"[-0.1597978879478004,0.012708511524222416]","[1,1,1]","[0.03279927906150551,0.16721560942800232]","[-1,-1,-1]","[0.04304932666800586,0.05431856564765236]","[1,1,1]","[0.1697628456350588,-0.01821692014966604]","[-1,-1,-1]","[-0.12041109174396745,0.12862222133554915]","[-1,-1,-1]","[0.09066204857278254,-0.06212159220940299]","[1,1,1]","[-0.07067547142564423,-0.1842281368953059]","[1,1,1]","[-0.08099167255680918,-0.11941083988138199]","[-1,-1,-1]","[-0.035602914848406254,-0.01680027957914148]","[1,1,1]","[0.17252690315615016,0.04838538394732142]","[-1,-1,-1]","[0.023005236637726124,0.09814872563549382]","[1,1,1]","[0.0024986611894994926,-0.17119039626738713]","[1,1,1]","[0.015927379019723367,-0.07845733915024916]","[1,1,1]","[0.10706307535576295,0.05083253121851016]","[1,1,1]","[0.0652602648120038,-0.009129891646469313]","[-1,-1,-1]","[-0.14124721983378455,-0.1415111777861407]","[-1,-1,-1]","[0.15242692652046644,0.10559923108960578]","[1,1,1]","[-0.07897986601214534,0.12155990464993363]","[-1,-1,-1]","[0.06926421632724365,0.12912532862352138]","[-1,-1,-1]","[-0.029159339375602687,-0.11206796524353993]","[-1,-1,-1]","[-0.067525791297175,0.06478756842552309]","[1,1,1]","[-0.08977147677968768,0.1683560890986058]","[1,1,1]","[0.064532646754269,-0.1364870105245253]","[-1,-1,-1]","[-0.09328893853239431,0.0017696895793479456]","[1,1,1]","[-0.15492193463457127,-0.07822797349175002]","[-1,-1,-1]","[-0.00498019006645554,0.12953934632833367]","[-1,-1,-1]","[0.11246299732105275,-0.13629055591694028]","[1,1,1]","[-0.12793514997061017,-0.027051189237816017]","[-1,-1,-1]","[0.013146663079849515,0.01683621742604689]","[1,1,1]","[0.1173675097332326,0.14801082837576737]","[-1,-1,-1]","[0.10850149453541118,-0.009107305531700041]","[-1,-1,-1]","[-0.047096950202228136,0.16510981742581324]","[1,1,1]","[0.02,0.02]",506.1961,0,23,23,118,1,,,,,,,
,,,,,,,6755b42b20cf26a928acaa05,68317a5d1c4b4dbc3c2f6744,2025-05-24_08h55.57.989,cuing_paradigm_dot,2024.1.5,Win32,59.17159763,682d573fa47f1360d1451895,,,,,,,,,,,506.1973,506.696,,,506.9521,507.5471,right,0.5739,,,,,,,,,0.45,,,,,,506.6961,506.952,507.5472,"[0.09970980138626433,0.13058531244789456]","[-1,-1,-1]","[-0.0600304239932511,-0.1868201958163636]","[-1,-1,-1]","[-0.007674622013861577,-0.11142642004726229]","[1,1,1]","[0.12895815083501447,-0.03590399389461682]","[-1,-1,-1]","[-0.07569106138041269,0.013596761378031308]","[-1,-1,-1]","[-0.07503441554838905,-0.09446800280134805]","[-1,-1,-1]","[0.02282586302285592,-0.0349312686176043]","[1,1,1]","[0.14925553974259054,0.06492178461917757]","[-1,-1,-1]","[0.00004402471805273317,-0.1876689015197575]","[-1,-1,-1]","[-0.1189433997446084,-0.06678244497766914]","[1,1,1]","[-0.18261500325918892,-0.05660177399233726]","[1,1,1]","[0.04558218800378856,-0.14954984247261552]","[-1,-1,-1]","[0.09825913982035914,0.00940108779757021]","[1,1,1]","[-0.13017737402782537,-0.12848143171434498]","[1,1,1]","[-0.046481573748399764,0.15652230760552024]","[-1,-1,-1]","[-0.14503296842699284,0.09930931733713358]","[-1,-1,-1]","[0.05372374462715968,0.02040982471248761]","[1,1,1]","[0.06700464910642946,-0.037963865722770114]","[-1,-1,-1]","[-0.09711538598418404,0.0712053707461572]","[1,1,1]","[0.013202391654574873,0.0970856774403122]","[-1,-1,-1]","[0.19277740405647537,-0.04700178789971052]","[-1,-1,-1]","[-0.17562554359592622,0.02737726538023641]","[1,1,1]","[0.02372072735848785,0.19226626903315427]","[-1,-1,-1]","[0.08085214805708947,-0.17024225661741973]","[-1,-1,-1]","[0.12304412720038221,-0.11516721863377043]","[-1,-1,-1]","[0.06507444297739265,0.07393590567723751]","[1,1,1]","[0.18563270362303846,-0.0015145272398844685]","[1,1,1]","[-0.053619871620358,-0.04374215373005166]","[-1,-1,-1]","[0.15730075414286024,-0.0712482648302954]","[1,1,1]","[0.08312789684883891,-0.12696701924477052]","[-1,-1,-1]","[0.0038685362877064066,-0.07238083343741537]","[1,1,1]","[-0.03432548530707282,-0.1532695769491529]","[1,1,1]","[0.02,0.02]",508.6457,0,24,24,85,1,,,,,,,
,,,,,,,6755b42b20cf26a928acaa05,68317a5d1c4b4dbc3c2f6744,2025-05-24_08h55.57.989,cuing_paradigm_dot,2024.1.5,Win32,59.17159763,682d573fa47f1360d1451895,,,,,,,,,,,508.6471,509.1464,,,509.3972,509.8819,right,0.4749,,,,,,,,,0.45,,,,,,509.1465,509.397,509.882,"[-0.14098918517246814,0.09675118981134107]","[-1,-1,-1]","[0.029818001709927166,-0.1341248083329737]","[1,1,1]","[0.171974548560705,-0.01591520715538634]","[-1,-1,-1]","[-0.06407706939681469,-0.05505300892061696]","[1,1,1]","[-0.020646781924510093,0.1759217112591226]","[-1,-1,-1]","[-0.06484277220598297,-0.1182194666754693]","[-1,-1,-1]","[0.03730379367968438,-0.08855504824353556]","[-1,-1,-1]","[-0.06122148852085093,-0.17082570770513508]","[1,1,1]","[-0.0011403489158845778,0.10154969160388018]","[-1,-1,-1]","[-0.15139952145009933,-0.07321482820892598]","[-1,-1,-1]","[-0.044752806347636245,0.005514294009851503]","[-1,-1,-1]","[0.01048194696482495,-0.021369882251405594]","[1,1,1]","[0.0975195044107366,-0.07013417759141148]","[1,1,1]","[-0.10840111617010165,-0.06776284901838042]","[1,1,1]","[-0.16731950308840957,0.03047407860746147]","[1,1,1]","[-0.06281882725172315,0.053251305125336816]","[-1,-1,-1]","[-0.013888012488017845,-0.06385438601017446]","[-1,-1,-1]","[0.07741173493870142,-0.004066018666672561]","[-1,-1,-1]","[0.030298211441567496,0.049951630470974236]","[1,1,1]","[0.1927331382913747,0.04515135451632765]","[-1,-1,-1]","[0.11942985224871153,0.10707852541081692]","[1,1,1]","[0.11333496219958668,0.017337244063180334]","[1,1,1]","[0.0970985733258873,-0.11897577451507844]","[-1,-1,-1]","[0.008593779182220545,-0.1785546511915437]","[-1,-1,-1]","[0.13851043372982352,-0.11462375541609074]","[-1,-1,-1]","[0.14990348475041165,-0.05490800719325038]","[1,1,1]","[-0.05779818917038573,0.10823283294716544]","[1,1,1]","[-0.11796061064731872,-0.1330422758776339]","[-1,-1,-1]","[0.03612153061515464,0.13874415055521536]","[-1,-1,-1]","[-0.10065337988343008,0.10440873388929331]","[1,1,1]","[-0.12618638810083804,0.01496410673466415]","[-1,-1,-1]","[0.08015928939600805,-0.16362157909991343]","[1,1,1]","[0.02,0.02]",510.9787,0,25,25,66,1,,,,,,,
,,,,,,,6755b42b20cf26a928acaa05,68317a5d1c4b4dbc3c2f6744,2025-05-24_08h55.57.989,cuing_paradigm_dot,2024.1.5,Win32,59.17159763,682d573fa47f1360d1451895,,,,,,,,,,,510.9795,511.4783,,,511.7295,512.4295,right,0.6867,,,,,,,,,0.9,,,,,,511.4783,511.7295,512.4299,"[-0.12889744803245545,0.016981224961777133]","[1,1,1]","[-0.19287586776711105,0.030791131898750972]","[-1,-1,-1]","[0.03673708337242121,0.028092570585190286]","[1,1,1]","[-0.07134250836562261,0.0008472616810805451]","[1,1,1]","[-0.14878819278277894,0.05495393854973754]","[1,1,1]","[0.06119048316258125,-0.14706159094877425]","[1,1,1]","[-0.08476324157193048,-0.14301137649375048]","[1,1,1]","[-0.024561189785175592,0.17999544661813677]","[1,1,1]","[0.1132837815253966,-0.1318633699022025]","[1,1,1]","[0.14949603386143392,-0.017733295828565948]","[1,1,1]","[-0.025190296709519576,-0.08536313593202101]","[1,1,1]","[-0.1461784862923087,0.1343551560569238]","[1,1,1]","[0.14465492991381748,-0.0938096511737753]","[1,1,1]","[0.16431521092519963,0.07858626561356732]","[1,1,1]","[-0.0017927460068281821,-0.12183339485418157]","[1,1,1]","[0.10336904687226268,-0.015214676425073025]","[1,1,1]","[-0.12349981706839298,-0.11098350060630055]","[1,1,1]","[-0.0985393890600638,0.05478220523997116]","[1,1,1]","[0.02100501717512598,0.17232085752715592]","[1,1,1]","[-0.16576265429584452,-0.03307151193218799]","[1,1,1]","[-0.09591091928812377,0.12319193414462559]","[1,1,1]","[-0.12343131014114993,-0.05398645258013837]","[1,1,1]","[0.07947734119642012,-0.0983644782981533]","[1,1,1]","[-0.03434515125232694,-0.040856383631607956]","[1,1,1]","[0.05390687680088874,-0.016245845801763487]","[1,1,1]","[0.0454272401105741,-0.19363153373088676]","[-1,-1,-1]","[-0.0009162869460258434,-0.018128689008597813]","[1,1,1]","[0.021281572358867087,-0.07173186216290595]","[1,1,1]","[-0.023311890946642135,0.12539711251581198]","[1,1,1]","[0.05219885111895209,0.13818565042517988]","[-1,-1,-1]","[-0.02325554996297999,-0.19276804264707612]","[1,1,1]","[-0.07717213167729603,-0.040257083301650565]","[1,1,1]","[0.02,0.02]",513.5291,0,26,26,209,1,,,,,,,
,,,,,,,6755b42b20cf26a928acaa05,68317a5d1c4b4dbc3c2f6744,2025-05-24_08h55.57.989,cuing_paradigm_dot,2024.1.5,Win32,59.17159763,682d573fa47f1360d1451895,,,,,,,,,,,513.5309,514.029,,,514.2802,514.7283,left,0.4396,,,,,,,,,0.6,,,,,,514.0291,514.28,514.7285,"[-0.0701705229170432,0.15733938727884877]","[1,1,1]","[0.12298494768598517,0.06124311519091174]","[1,1,1]","[0.06473899802755682,-0.1876170602963112]","[-1,-1,-1]","[-0.09762454362477427,0.04758590572116649]","[-1,-1,-1]","[0.15885761491337785,0.025572223813009668]","[-1,-1,-1]","[-0.11881496302752052,-0.024510825438573237]","[1,1,1]","[0.11684582727257765,0.14401960311184606]","[1,1,1]","[-0.005447280488755848,-0.14714270358174716]","[-1,-1,-1]","[-0.06632356643495993,-0.17841655709490137]","[1,1,1]","[-0.18456001212920053,0.0678870754249372]","[1,1,1]","[-0.020890982762354838,0.15988764829460803]","[1,1,1]","[-0.17602355714082574,-0.03769006495475148]","[-1,-1,-1]","[-0.0332957674049348,-0.10503448522166403]","[1,1,1]","[0.09545134129963072,0.10186563049914277]","[1,1,1]","[-0.16380424978710575,0.11422937854361552]","[1,1,1]","[-0.09733054859757545,-0.09107617885921224]","[-1,-1,-1]","[-0.06755731031770318,0.08199312440065361]","[-1,-1,-1]","[0.04499692835602832,0.009470841823379752]","[1,1,1]","[-0.11498582778240345,0.10842533617115857]","[-1,-1,-1]","[0.18759383170618904,-0.06329442593489808]","[-1,-1,-1]","[0.035124476620166975,-0.15795218524737673]","[-1,-1,-1]","[-0.054778355972207246,-0.06177468075623508]","[-1,-1,-1]","[-0.10056962385896419,-0.15406019406784305]","[1,1,1]","[0.10122231548555112,-0.018473977168266063]","[1,1,1]","[0.011522583429382123,0.03952031656873826]","[-1,-1,-1]","[-0.010274178015466895,-0.009886148831463224]","[1,1,1]","[-0.14848884376349158,-0.07801283033775867]","[1,1,1]","[0.14494568418369502,-0.08893423647171628]","[-1,-1,-1]","[-0.03143453241481579,0.05594161380206235]","[1,1,1]","[-0.05867795587181754,0.01835864560078528]","[1,1,1]","[0.07558097662469093,0.15606218067152222]","[1,1,1]","[0.06229125597302824,-0.0336503206757192]","[1,1,1]","[0.02,0.02]",515.8288,0,27,27,165,1,,,,,,,
,,,,,,,6755b42b20cf26a928acaa05,68317a5d1c4b4dbc3c2f6744,2025-05-24_08h55.57.989,cuing_paradigm_dot,2024.1.5,Win32,59.17159763,682d573fa47f1360d1451895,,,,,,,,,,,515.8299,516.3288,,,516.581,517.0793,right,0.4888,,,,,,,,,0.6,,,,,,516.3289,516.5808,517.0795,"[0.11076786567033033,-0.07286605521520065]","[1,1,1]","[0.07132191160816426,0.07048838018646328]","[1,1,1]","[-0.0276452126692118,0.09730918911904315]","[-1,-1,-1]","[0.12068852740100866,0.10235767176717464]","[-1,-1,-1]","[-0.0977275963616296,-0.02698765182736466]","[-1,-1,-1]","[0.04636448131240766,-0.17907610320537518]","[1,1,1]","[-0.08210273297884152,0.11749988944126677]","[1,1,1]","[-0.08416404152835015,0.06634967657007072]","[1,1,1]","[-0.02724845900192884,-0.03533625510831527]","[1,1,1]","[-0.1362873787542814,0.010060583647964149]","[-1,-1,-1]","[-0.02447853116664368,-0.1239738188941516]","[1,1,1]","[-0.06811524152940028,-0.13543805148811033]","[1,1,1]","[-0.027457039958274736,0.017215508233559565]","[1,1,1]","[-0.19551247725454143,-0.03869137989942672]","[1,1,1]","[0.037737151232278485,0.1161019728247766]","[1,1,1]","[-0.16696727601289413,-0.09583276096411358]","[-1,-1,-1]","[-0.1096678412690998,-0.0862026184434272]","[-1,-1,-1]","[0.1210871527929903,-0.031665449851151196]","[-1,-1,-1]","[-0.1254190080379077,-0.15360764785101721]","[1,1,1]","[0.057244007460877544,0.1564763854147738]","[1,1,1]","[0.18358543270005234,-0.03866588241207441]","[-1,-1,-1]","[0.16546710233787487,-0.09203279935091763]","[1,1,1]","[0.17091461896766846,0.028065026585033168]","[1,1,1]","[0.12019550300876464,0.04876265316471138]","[-1,-1,-1]","[0.019120239586583796,0.07591142810392122]","[-1,-1,-1]","[0.0928140557549884,0.13451062540922892]","[-1,-1,-1]","[0.06288111087214554,-0.022984868345667556]","[1,1,1]","[-0.06131537254967298,0.15650347041989823]","[1,1,1]","[-0.16107956436596751,0.0987027239118894]","[-1,-1,-1]","[0.08472048915374943,-0.10493388309292577]","[-1,-1,-1]","[-0.15181179985998963,-0.04620298132551854]","[1,1,1]","[0.034776091028806744,-0.08391746853564255]","[1,1,1]","[0.02,0.02]",518.1788,0,28,28,172,1,,,,,,,
,,,,,,,6755b42b20cf26a928acaa05,68317a5d1c4b4dbc3c2f6744,2025-05-24_08h55.57.989,cuing_paradigm_dot,2024.1.5,Win32,59.17159763,682d573fa47f1360d1451895,,,,,,,,,,,518.18,518.6791,,,518.9348,519.2632,left,0.3058,,,,,,,,,0.1,,,,,,518.6793,518.9348,519.2633,"[-0.1549340718268508,-0.07135682876047227]","[-1,-1,-1]","[-0.12171547966774107,0.0954168463839962]","[-1,-1,-1]","[-0.18927293074872859,-0.005628150079530818]","[-1,-1,-1]","[0.007203782265714838,-0.005276751686020276]","[-1,-1,-1]","[0.030168903236107495,0.153027024841654]","[-1,-1,-1]","[-0.07604962438397243,0.008819703041115411]","[-1,-1,-1]","[0.021345671024866564,0.08920726783241514]","[-1,-1,-1]","[0.12914107809453454,0.06651335821133429]","[-1,-1,-1]","[0.049292763130293404,-0.03316313787178597]","[-1,-1,-1]","[0.1057250477461132,-0.03450448520955066]","[-1,-1,-1]","[0.07069035832727581,0.016067373341397823]","[-1,-1,-1]","[0.15619815749887586,0.1080660546826823]","[-1,-1,-1]","[0.16507446548858604,-0.022875897836831426]","[-1,-1,-1]","[-0.13088469599252062,0.013282618199036467]","[-1,-1,-1]","[0.17320124072786544,0.06560504328863451]","[-1,-1,-1]","[-0.06011777479190863,0.11907503146379135]","[-1,-1,-1]","[-0.012138348395378301,0.16966883653817233]","[1,1,1]","[-0.06962515255944209,-0.093560250493863]","[-1,-1,-1]","[-0.025027013303945342,-0.16330776524044407]","[-1,-1,-1]","[0.03172680015018998,-0.1842846298173746]","[1,1,1]","[-0.06807895220277968,-0.13606520507532083]","[-1,-1,-1]","[0.07723197368401818,-0.0749636180970698]","[-1,-1,-1]","[-0.02868476383685485,-0.06675156377273966]","[-1,-1,-1]","[0.12306843323653817,-0.14285796966099182]","[1,1,1]","[-0.06924654966563841,0.1708063335019933]","[-1,-1,-1]","[0.03125364786045535,-0.09541550398417509]","[-1,-1,-1]","[-0.04044300956063365,0.031246477184050735]","[-1,-1,-1]","[0.06448305055196203,-0.13110038634242147]","[-1,-1,-1]","[-0.17348102448404829,0.04153049382731741]","[-1,-1,-1]","[-0.17255317783443797,0.09905274039526536]","[-1,-1,-1]","[0.09900971371085537,0.13216319664500276]","[-1,-1,-1]","[0.12336586777973019,-0.07200072938045728]","[-1,-1,-1]","[0.02,0.02]",520.3623,0,29,29,15,1,,,,,,,
,,,,,,,6755b42b20cf26a928acaa05,68317a5d1c4b4dbc3c2f6744,2025-05-24_08h55.57.989,cuing_paradigm_dot,2024.1.5,Win32,59.17159763,682d573fa47f1360d1451895,,,,,,,,,,,520.3641,520.8622,,,521.1133,521.4792,right,0.3565,,,,,,,,,0.9,,,,,,520.8623,521.1132,521.4793,"[0.10296561178578494,0.08127844590100516]","[1,1,1]","[0.12807809051222716,0.14201324270389518]","[-1,-1,-1]","[-0.10625763692708466,-0.004258503371015496]","[1,1,1]","[-0.012466807044132593,0.12482372201073044]","[1,1,1]","[-0.008076027410347068,-0.04881005980387699]","[1,1,1]","[-0.0650136506930477,0.10606172189117782]","[1,1,1]","[-0.08085715306248745,-0.15084377294386073]","[1,1,1]","[-0.1899056182605974,-0.049012384823216404]","[1,1,1]","[-0.031414919192312096,-0.13235577681111282]","[1,1,1]","[0.14237471722443068,0.011413816951973035]","[1,1,1]","[0.029216134333517583,-0.10548991687127017]","[1,1,1]","[-0.19194849955162396,0.002367130512800837]","[1,1,1]","[0.15138195505306615,-0.04969464207863087]","[1,1,1]","[0.18420168999598913,-0.011456408951389808]","[-1,-1,-1]","[0.17574936979505254,0.06250813347327724]","[1,1,1]","[-0.008815640217499244,0.008059659341455572]","[1,1,1]","[-0.07448627306590835,-0.0788723297950166]","[1,1,1]","[0.07004265202843267,0.014009785833514839]","[1,1,1]","[0.08019076188396343,-0.12453289160899397]","[1,1,1]","[-0.13034723469323659,-0.14584997552279505]","[1,1,1]","[0.026237054146162675,-0.19359169209735794]","[1,1,1]","[-0.04244764563924503,0.04176401735273954]","[1,1,1]","[0.12060252003071312,-0.1327626873425173]","[1,1,1]","[-0.12196088943150736,-0.08979757009711668]","[1,1,1]","[-0.13781544595584314,0.0396659545000887]","[1,1,1]","[-0.07779473863143317,0.16828507280563507]","[1,1,1]","[-0.008284938577464294,0.07000372336710177]","[1,1,1]","[0.15594356217520322,-0.10245760186721238]","[1,1,1]","[0.04974224708564233,0.1829550586095069]","[1,1,1]","[-0.15675179729233538,0.11722489952910399]","[1,1,1]","[0.038283982584770455,-0.04766877814416383]","[1,1,1]","[0.058377165586250473,0.11892194863269102]","[-1,-1,-1]","[0.02,0.02]",522.5784,0,30,30,205,1,,,,,,,
,,,,,,,6755b42b20cf26a928acaa05,68317a5d1c4b4dbc3c2f6744,2025-05-24_08h55.57.989,cuing_paradigm_dot,2024.1.5,Win32,59.17159763,682d573fa47f1360d1451895,,,,,,,,,,,522.5792,523.0786,,,523.3301,523.6961,right,0.3486,,,,,,,,,0.55,,,,,,523.0787,523.33,523.6963,"[-0.17218026910220682,-0.054236357288859]","[-1,-1,-1]","[0.04940664378713843,0.023054121428280363]","[1,1,1]","[0.07369561408266997,0.10968601247191624]","[1,1,1]","[0.19102041868567257,-0.05897203144164156]","[1,1,1]","[0.07319378819710971,-0.18050876627327092]","[1,1,1]","[-0.1697136430876127,0.031566727013144114]","[1,1,1]","[-0.01962492050177978,0.14090169331201818]","[1,1,1]","[0.07940363472903572,-0.08485270033545715]","[1,1,1]","[0.011475546814264536,-0.14678613121274126]","[-1,-1,-1]","[0.16455764191080538,-0.016041564429322565]","[-1,-1,-1]","[0.04244755887326877,-0.028345170844578306]","[1,1,1]","[0.1451470551640804,0.08400283014965154]","[1,1,1]","[-0.11553011183210096,-0.05905327903228579]","[1,1,1]","[0.11678185909496652,-0.10529045800201381]","[-1,-1,-1]","[-0.014651111386971324,-0.09051667306814294]","[-1,-1,-1]","[-0.10677069087965071,0.08810790701917479]","[1,1,1]","[0.03315332743279319,0.16153779446848107]","[-1,-1,-1]","[0.12611822506566484,-0.03283288034231305]","[-1,-1,-1]","[0.0047613249243202175,0.08783138348246515]","[1,1,1]","[-0.10225464228648788,-0.16179342338457187]","[1,1,1]","[-0.0999539548737795,0.02159271852163114]","[1,1,1]","[0.14855327130211307,-0.07752400805659797]","[-1,-1,-1]","[-0.0713746085732798,0.11724196825069737]","[-1,-1,-1]","[0.09890743741117887,0.07194594176835926]","[-1,-1,-1]","[-0.010712723783164452,0.18190403121933751]","[-1,-1,-1]","[-0.02451777328109035,-0.006878885831666848]","[1,1,1]","[-0.04918723541192205,-0.17818794036334404]","[1,1,1]","[-0.16694217546994863,0.07153721915027762]","[-1,-1,-1]","[-0.04754010071514036,0.06644404981309222]","[-1,-1,-1]","[0.09258050934384776,0.16931418926631295]","[1,1,1]","[-0.046930734670880284,-0.046555201040014725]","[-1,-1,-1]","[0.059195922943923875,-0.12402708682540413]","[1,1,1]","[0.02,0.02]",524.7951,0,31,31,125,1,,,,,,,
,,,,,,,6755b42b20cf26a928acaa05,68317a5d1c4b4dbc3c2f6744,2025-05-24_08h55.57.989,cuing_paradigm_dot,2024.1.5,Win32,59.17159763,682d573fa47f1360d1451895,,,,,,,,,,,524.7964,525.2951,,,525.5472,525.8336,right,0.268,,,,,,,,,0.6,,,,,,525.2952,525.5471,525.8336,"[-0.027224979033454867,-0.15696086466933729]","[-1,-1,-1]","[-0.14273168148722185,-0.13192585995984818]","[1,1,1]","[-0.0006771802423450611,0.00226013194867318]","[-1,-1,-1]","[-0.1509199048453863,-0.01020586115640658]","[-1,-1,-1]","[0.09711055629063328,0.11885565404788503]","[1,1,1]","[0.037267549521794174,-0.058140108807300916]","[-1,-1,-1]","[-0.02809640564836612,0.16723786902418838]","[-1,-1,-1]","[0.030673121594552342,0.09070489753595286]","[1,1,1]","[0.13099029351697966,-0.11495340627357009]","[1,1,1]","[0.15050870698588803,0.13113135519703778]","[-1,-1,-1]","[0.043026930447873146,0.042057912250726984]","[1,1,1]","[0.08231047858743702,-0.15482035157668292]","[-1,-1,-1]","[-0.04094047791239172,-0.10670367277007009]","[1,1,1]","[0.10581409334588533,0.06859014134336879]","[1,1,1]","[0.049476489070487004,-0.19184025207124117]","[1,1,1]","[-0.07419259493346879,0.11669673332545283]","[1,1,1]","[-0.15877180707504407,0.11853448890410126]","[1,1,1]","[-0.08922629339792013,-0.054581878344115445]","[-1,-1,-1]","[0.10702392595186912,-0.02308307031473919]","[1,1,1]","[-0.16020440966997745,0.06420374627222311]","[-1,-1,-1]","[-0.07859127114216426,-0.14441322320220681]","[1,1,1]","[0.1630797422993344,0.06970144078087687]","[1,1,1]","[-0.050271340767087926,-0.010403695710538207]","[1,1,1]","[-0.014911148263771512,0.08765417996165983]","[-1,-1,-1]","[0.061284125195906064,-0.004257755971139479]","[1,1,1]","[-0.07148794751678623,0.17694039413919166]","[1,1,1]","[-0.06273966389991084,0.029660989198757256]","[-1,-1,-1]","[0.05085448053410753,0.15568894090811067]","[-1,-1,-1]","[-0.15164819807762248,-0.05389930035885001]","[1,1,1]","[0.006474275768236498,0.13321060149645064]","[1,1,1]","[-0.10321058557738483,-0.10882901158984779]","[-1,-1,-1]","[0.03822152671140211,-0.1250500474291619]","[1,1,1]","[0.02,0.02]",526.9278,0,32,32,179,1,,,,,,,
,,,,,,,6755b42b20cf26a928acaa05,68317a5d1c4b4dbc3c2f6744,2025-05-24_08h55.57.989,cuing_paradigm_dot,2024.1.5,Win32,59.17159763,682d573fa47f1360d1451895,,,,,,,,,,,526.9289,527.4284,,,527.6787,527.9456,right,0.2495,,,,,,,,,0.9,,,,,,527.4285,527.6786,527.9457,"[0.03250851983190036,0.08103476549431168]","[1,1,1]","[-0.12227464267158185,0.13992166575278492]","[1,1,1]","[0.1086123754071292,-0.006181870196347235]","[1,1,1]","[0.03303719591665502,0.1722031594770673]","[1,1,1]","[0.04486870514431319,-0.11338518951492746]","[1,1,1]","[0.15142422954707366,-0.026131657765548027]","[1,1,1]","[0.11865916132268103,0.08130041414457086]","[1,1,1]","[0.15956616938959461,0.06529532403503015]","[-1,-1,-1]","[-0.15838023061494144,0.04862029312858726]","[1,1,1]","[0.022155760179480854,-0.15578617284657334]","[1,1,1]","[0.014301769074975731,0.0037385142769666715]","[1,1,1]","[0.006126377982632819,-0.04465186593050641]","[1,1,1]","[0.10533694172975921,-0.0915422998324644]","[1,1,1]","[-0.0705135806473533,-0.18053092170870563]","[1,1,1]","[0.07727209981139492,-0.05895521505185971]","[1,1,1]","[0.19311141641760046,-0.017349988207069435]","[1,1,1]","[-0.1678302617073434,-0.09194779464517971]","[1,1,1]","[-0.03548681309693816,-0.12247609682792461]","[1,1,1]","[-0.15362340186738188,-0.040568820260248016]","[1,1,1]","[-0.14287242510445528,0.10240770656886451]","[1,1,1]","[0.16798994711657933,0.025081373532687502]","[1,1,1]","[-0.13312445060843808,-0.1426466267294892]","[-1,-1,-1]","[0.0728261740052722,0.16448215047365924]","[1,1,1]","[-0.11536919953966575,-0.08047853755517827]","[1,1,1]","[-0.08394581480945862,0.03815123395823102]","[1,1,1]","[-0.023781219663514312,-0.16511672694163398]","[1,1,1]","[-0.011167032155159972,0.0794389830228044]","[1,1,1]","[-0.057899123417415495,-0.0012842730710780812]","[1,1,1]","[-0.0000587256924659504,-0.09056970961518411]","[1,1,1]","[0.1534293507557057,-0.11923750791969874]","[-1,-1,-1]","[0.11718669388592907,-0.15500748736166156]","[1,1,1]","[0.07864918765472756,0.1060914160351184]","[1,1,1]","[0.02,0.02]",529.045,0,33,33,189,1,,,,,,,
,,,,,,,6755b42b20cf26a928acaa05,68317a5d1c4b4dbc3c2f6744,2025-05-24_08h55.57.989,cuing_paradigm_dot,2024.1.5,Win32,59.17159763,682d573fa47f1360d1451895,,,,,,,,,,,529.0462,529.545,,,529.7969,530.162,right,0.3493,,,,,,,,,0.45,,,,,,529.545,529.7967,530.1625,"[0.08464340457139893,0.005521719182273662]","[1,1,1]","[0.144000118916016,-0.016204920777868483]","[1,1,1]","[-0.012076967459869747,0.06788081537400861]","[1,1,1]","[-0.08576126026204814,-0.06600179454568209]","[-1,-1,-1]","[-0.16445576641980414,0.07408724098873506]","[1,1,1]","[0.026764513954530535,0.019749091087425244]","[1,1,1]","[0.07186164942123877,0.17794590556057954]","[-1,-1,-1]","[-0.013750694353692774,-0.1562779667131561]","[1,1,1]","[0.16859715097472902,-0.05434950452656331]","[-1,-1,-1]","[-0.06129127034271839,-0.15395725860021092]","[1,1,1]","[0.018822961986088668,0.17078411449816297]","[-1,-1,-1]","[-0.029494297381536447,-0.07311031512698132]","[1,1,1]","[0.010398574438030833,-0.0782172341096139]","[-1,-1,-1]","[-0.10193097533851606,-0.16396676294366086]","[-1,-1,-1]","[0.14571567093939558,-0.11139718724438313]","[1,1,1]","[0.08707066159667537,0.11569388305940495]","[1,1,1]","[-0.1123595783895154,-0.12119565494376845]","[-1,-1,-1]","[0.06816798753295428,0.06963974439925726]","[-1,-1,-1]","[-0.13398974727806653,0.11601767843309134]","[-1,-1,-1]","[-0.15477619798893788,-0.12295922225142102]","[1,1,1]","[-0.10694505498758326,-0.011893221932647649]","[-1,-1,-1]","[-0.13401814694874914,-0.08246857593043162]","[1,1,1]","[0.0052355767590338935,0.12369435023799587]","[-1,-1,-1]","[-0.07467469477885487,0.16408447365046142]","[1,1,1]","[0.14231025970117525,0.09329751941530025]","[-1,-1,-1]","[0.18276450629466662,0.004325641022585938]","[-1,-1,-1]","[-0.045435006352282994,0.1241226552999112]","[-1,-1,-1]","[-0.18595538347182972,0.011625732940841264]","[-1,-1,-1]","[0.03347377181791108,-0.16584422997583378]","[-1,-1,-1]","[0.05495063414909926,-0.07729172989949326]","[-1,-1,-1]","[-0.11103679548214536,0.0477541257610473]","[-1,-1,-1]","[0.10185937918167076,-0.04476744688204589]","[1,1,1]","[0.02,0.02]",531.2617,0,34,34,73,1,,,,,,,
,,,,,,,6755b42b20cf26a928acaa05,68317a5d1c4b4dbc3c2f6744,2025-05-24_08h55.57.989,cuing_paradigm_dot,2024.1.5,Win32,59.17159763,682d573fa47f1360d1451895,,,,,,,,,,,531.2629,531.7615,,,532.0121,532.3943,left,0.3681,,,,,,,,,0.4,,,,,,531.7616,532.0121,532.3946,"[0.05625996882307034,-0.17300300466066676]","[-1,-1,-1]","[0.11952579536344221,0.06278715477264253]","[-1,-1,-1]","[0.07917655477643981,0.021593743928622393]","[-1,-1,-1]","[-0.1290036492637311,-0.015279413218642518]","[-1,-1,-1]","[0.08292187933380958,0.1299983651985881]","[1,1,1]","[0.013592162560585984,-0.16332567515892585]","[1,1,1]","[-0.05920331921744945,0.14335969347207636]","[-1,-1,-1]","[-0.17705672465943548,0.05877980171467323]","[-1,-1,-1]","[0.08750523152408102,-0.022283456371480558]","[1,1,1]","[-0.015360841604250487,-0.06332314729196334]","[1,1,1]","[0.052560987479297216,-0.11103853926106992]","[1,1,1]","[0.14066109173928998,-0.11605709578223594]","[-1,-1,-1]","[-0.09235304607178788,-0.05171989954251771]","[1,1,1]","[-0.07939603850388395,-0.16141210286269791]","[1,1,1]","[-0.13386644560300967,0.09706612515073411]","[1,1,1]","[0.04853729690514171,0.10580711128341343]","[-1,-1,-1]","[-0.14019853858887626,0.02349315339044857]","[-1,-1,-1]","[0.13651410609387632,-0.0348179745879175]","[1,1,1]","[-0.1355701667653014,-0.0629965792075171]","[1,1,1]","[0.17939381074204672,0.013311021962119054]","[-1,-1,-1]","[-0.17899263152867106,-0.05125779584226773]","[1,1,1]","[-0.08977992287638153,0.07573513731077067]","[-1,-1,-1]","[-0.0006895596804077767,0.011234398984896919]","[1,1,1]","[0.008000838887302412,0.14191044533154423]","[-1,-1,-1]","[0.002514340911504603,-0.11038894385768414]","[-1,-1,-1]","[0.12853724775131609,0.10270777924110831]","[-1,-1,-1]","[-0.02139195186006068,0.10511827394879049]","[1,1,1]","[0.09513250677215773,-0.06847407040408972]","[-1,-1,-1]","[0.03148533428936563,-0.045498271586858284]","[-1,-1,-1]","[-0.1015560996369188,-0.1145164049516797]","[-1,-1,-1]","[0.17996359099975776,0.05457108924761696]","[-1,-1,-1]","[0.0357840411653297,0.02988893228062563]","[-1,-1,-1]","[0.02,0.02]",533.4948,0,35,35,30,1,,,,,,,
,,,,,,,6755b42b20cf26a928acaa05,68317a5d1c4b4dbc3c2f6744,2025-05-24_08h55.57.989,cuing_paradigm_dot,2024.1.5,Win32,59.17159763,682d573fa47f1360d1451895,,,,,,,,,,,533.4958,533.9947,,,534.249,534.9957,left,0.722,,,,,,,,,0.4,,,,,,533.9948,534.2489,534.9958,"[0.026888933148379618,-0.12765993635110617]","[-1,-1,-1]","[-0.12875473442436913,0.028238533941165107]","[-1,-1,-1]","[-0.014574933607153,-0.1794523915728828]","[-1,-1,-1]","[0.153959656392699,0.01561305958453002]","[1,1,1]","[0.05402138994183809,0.013553032527106504]","[1,1,1]","[0.09684341100963854,0.11978407664919942]","[-1,-1,-1]","[0.001029923492773991,0.15115961507481113]","[-1,-1,-1]","[0.07693182743995182,0.07592706611811813]","[1,1,1]","[-0.16412100335232896,-0.04632162568183578]","[-1,-1,-1]","[0.032925861285384835,0.09241040229058962]","[1,1,1]","[-0.06134492711563816,0.00828520835466825]","[-1,-1,-1]","[0.15697703828681375,0.11103179311279596]","[-1,-1,-1]","[-0.04398126947355701,0.10829713217315597]","[1,1,1]","[0.1654915268874684,-0.10632496957767032]","[-1,-1,-1]","[-0.02833123294832983,-0.07199082310394243]","[-1,-1,-1]","[0.05296309818172847,0.13905490863798609]","[1,1,1]","[-0.010092799421307374,-0.03344724258762777]","[-1,-1,-1]","[-0.09502480365016581,0.05692866344507313]","[-1,-1,-1]","[0.07578028459803242,0.17516090285931332]","[-1,-1,-1]","[0.02831805644512412,-0.19119389126968245]","[-1,-1,-1]","[-0.08124466945883041,0.1673306519931315]","[1,1,1]","[0.008626815051881044,0.052877193696550716]","[-1,-1,-1]","[-0.1646317760158477,-0.10698181491442589]","[-1,-1,-1]","[0.09909543771613624,0.013354445612069148]","[1,1,1]","[-0.19143570903617457,-0.011098207822033652]","[1,1,1]","[0.11146238669874134,-0.07791298254657714]","[1,1,1]","[0.061099826928249404,-0.08736741603992922]","[1,1,1]","[0.06180234048633196,-0.03118668385246326]","[1,1,1]","[-0.10327078723953094,-0.026838858708904963]","[-1,-1,-1]","[-0.14889931432072576,0.06725855873820576]","[-1,-1,-1]","[-0.13216861860750054,0.11165151463112978]","[-1,-1,-1]","[-0.02808594923145863,0.19617981031779277]","[1,1,1]","[0.02,0.02]",536.0952,0,36,36,31,1,,,,,,,
,,,,,,,6755b42b20cf26a928acaa05,68317a5d1c4b4dbc3c2f6744,2025-05-24_08h55.57.989,cuing_paradigm_dot,2024.1.5,Win32,59.17159763,682d573fa47f1360d1451895,,,,,,,,,,,536.0968,536.5947,,,536.8483,537.1515,left,0.2855,,,,,,,,,0.1,,,,,,536.5949,536.8483,537.1515,"[0.11135853945904112,-0.06465599750264923]","[-1,-1,-1]","[-0.14398188482574306,0.08134404680323148]","[-1,-1,-1]","[-0.16533901201293114,0.02695510404834609]","[-1,-1,-1]","[0.06382399292406127,0.15283086271818083]","[1,1,1]","[-0.054691206197904,-0.12841839526487409]","[1,1,1]","[-0.03158716584723913,-0.0800098653259049]","[-1,-1,-1]","[-0.011963810302981189,0.08807988960305695]","[-1,-1,-1]","[0.15289610091084577,-0.00009777980405349761]","[-1,-1,-1]","[0.04099408381523282,-0.18237990608522564]","[-1,-1,-1]","[-0.06972188171463878,0.09885408370190765]","[-1,-1,-1]","[-0.09550513691846446,-0.06153167247638548]","[-1,-1,-1]","[0.057907256551423474,0.09639723796177886]","[-1,-1,-1]","[0.07699476465133605,-0.12667942562069315]","[-1,-1,-1]","[-0.13246532164374697,-0.07738703016332929]","[-1,-1,-1]","[-0.08057518089628828,0.17106080982204735]","[-1,-1,-1]","[0.01877132116167652,-0.045601393653366164]","[-1,-1,-1]","[-0.010049067853160114,0.03599159171261175]","[-1,-1,-1]","[0.16774635766703655,0.0547332875789017]","[-1,-1,-1]","[0.06200748350227901,-0.031070037435479207]","[-1,-1,-1]","[0.13150269053386754,0.1060367313007803]","[-1,-1,-1]","[0.02779664886738717,0.1307178909789335]","[-1,-1,-1]","[-0.05802112113630958,0.04630503996037954]","[-1,-1,-1]","[0.10043151468820206,-0.16198659045652755]","[-1,-1,-1]","[0.0392413485137644,-0.09333681165888283]","[-1,-1,-1]","[-0.0888419424902441,0.013826843836656591]","[-1,-1,-1]","[-0.13543286983280753,0.13633060894981827]","[-1,-1,-1]","[-0.079052247980643,-0.16087324415585547]","[-1,-1,-1]","[-0.0005645063874495847,-0.10704408739579029]","[-1,-1,-1]","[0.17569775750674294,-0.09433299045939607]","[1,1,1]","[-0.17845316876672343,-0.08516578326374406]","[-1,-1,-1]","[-0.12681147718646238,-0.14992806779560947]","[-1,-1,-1]","[0.10334321638791277,-0.014239762442848872]","[-1,-1,-1]","[0.02,0.02]",538.2448,0,37,37,8,1,,,,,,,
,,,,,,,6755b42b20cf26a928acaa05,68317a5d1c4b4dbc3c2f6744,2025-05-24_08h55.57.989,cuing_paradigm_dot,2024.1.5,Win32,59.17159763,682d573fa47f1360d1451895,,,,,,,,,,,538.2466,538.746,,,538.9964,539.2844,left,0.2679,,,,,,,,,0.6,,,,,,538.7461,538.9962,539.2845,"[0.13852089596129089,-0.1250257907415854]","[-1,-1,-1]","[-0.08731620283367707,-0.10275146770123529]","[1,1,1]","[-0.07304607373024238,-0.0348849903772272]","[1,1,1]","[0.09925487549346894,0.135273954490023]","[-1,-1,-1]","[0.04942477030493482,0.11173814408650655]","[-1,-1,-1]","[-0.03472378527966541,0.12575480195093522]","[1,1,1]","[-0.003532841757885601,-0.06197536750568165]","[1,1,1]","[0.04906519711235475,-0.04022126001455983]","[1,1,1]","[0.16105254890001824,0.019247885658175312]","[1,1,1]","[0.1940378196752688,-0.03208245036258704]","[-1,-1,-1]","[-0.13285526600042832,0.03075697405243673]","[1,1,1]","[-0.008098351915643823,0.04880601253975043]","[-1,-1,-1]","[-0.1190852263217574,-0.14150556202769204]","[-1,-1,-1]","[-0.10321298305659445,0.08065370245763302]","[1,1,1]","[-0.12494644513456941,-0.08816838394866669]","[-1,-1,-1]","[0.0033667468618639963,-0.013733978602348757]","[1,1,1]","[0.1157474842410528,0.0596463795010745]","[1,1,1]","[-0.0446876089931157,0.17685310790444475]","[-1,-1,-1]","[0.0906172797733346,0.005592816654112248]","[1,1,1]","[0.03958131426560508,-0.145159282750808]","[-1,-1,-1]","[0.14479381498801042,0.13410510355000377]","[-1,-1,-1]","[-0.03194982661449164,-0.16783676128148184]","[1,1,1]","[-0.039162602724537254,0.019947454270933702]","[1,1,1]","[-0.1260184795199758,0.15430589735891628]","[-1,-1,-1]","[-0.16434103281981796,-0.05747479248007017]","[1,1,1]","[0.015183875467133052,0.18070226004615214]","[1,1,1]","[0.09952324739658687,-0.0895999851641138]","[-1,-1,-1]","[-0.00733295441516808,-0.12388380238571682]","[1,1,1]","[0.12893105846918582,-0.03787880754502755]","[-1,-1,-1]","[-0.05627123675513243,-0.07309430200153975]","[1,1,1]","[-0.14579903072646766,0.09124031932124281]","[1,1,1]","[-0.08100502439066275,-0.17150745773895842]","[1,1,1]","[0.02,0.02]",540.3815,0,38,38,164,1,,,,,,,
,,,,,,,6755b42b20cf26a928acaa05,68317a5d1c4b4dbc3c2f6744,2025-05-24_08h55.57.989,cuing_paradigm_dot,2024.1.5,Win32,59.17159763,682d573fa47f1360d1451895,,,,,,,,,,,540.3821,540.8774,,,541.1166,541.4119,left,0.2769,,,,,,,,,0.1,,,,,,540.8776,541.1166,541.4121,"[0.0444731146116513,0.08723829775898846]","[-1,-1,-1]","[-0.010642203092943659,0.14619525483580365]","[-1,-1,-1]","[0.11831727927818197,0.06752151673293039]","[-1,-1,-1]","[-0.1895761437150138,-0.0066488725934998934]","[-1,-1,-1]","[-0.15172999020005873,0.03883691957690213]","[-1,-1,-1]","[0.10921570929690495,-0.16624273943732182]","[-1,-1,-1]","[0.1630385647011474,-0.05920413437529724]","[-1,-1,-1]","[0.16425069121534064,0.03208621755178096]","[-1,-1,-1]","[-0.015871217926631154,-0.18686075817366707]","[-1,-1,-1]","[-0.03521704904506468,-0.1172797024140221]","[-1,-1,-1]","[0.09262368645975295,-0.10247891324986315]","[-1,-1,-1]","[-0.11594708044523142,-0.03128916211627957]","[-1,-1,-1]","[0.0013257943401284971,-0.020284192041622396]","[-1,-1,-1]","[0.05114812699393079,0.19205175829969226]","[-1,-1,-1]","[-0.0878828013459294,0.03823733860996532]","[-1,-1,-1]","[-0.13114484334687684,0.09204494410697522]","[-1,-1,-1]","[-0.030297148587958435,-0.050648145208227933]","[-1,-1,-1]","[0.1913684909502541,-0.013532246141497352]","[-1,-1,-1]","[-0.16387454459272024,-0.043892681377110256]","[-1,-1,-1]","[0.08913343349647862,0.003568924438359893]","[-1,-1,-1]","[0.021302628772992566,-0.12265903408085847]","[-1,-1,-1]","[0.14673624405860117,-0.004359444735956507]","[-1,-1,-1]","[-0.014858994154534011,0.102193743782783]","[1,1,1]","[0.168594290801358,0.10383400307362596]","[-1,-1,-1]","[-0.07775334124181006,-0.1556972035569506]","[-1,-1,-1]","[-0.03886287592081947,0.012186555398323645]","[1,1,1]","[-0.1168036297021836,0.13148456691125612]","[-1,-1,-1]","[0.03578057353382692,-0.04182578017449309]","[-1,-1,-1]","[-0.08805221856964199,-0.09677384707737978]","[-1,-1,-1]","[-0.14139532966504714,-0.10331963049003891]","[-1,-1,-1]","[-0.024033702612557415,0.0520073387237569]","[1,1,1]","[-0.053376730690392796,0.08175510956314423]","[-1,-1,-1]","[0.02,0.02]",542.5113,0,39,39,17,1,,,,,,,
,,,,,,,6755b42b20cf26a928acaa05,68317a5d1c4b4dbc3c2f6744,2025-05-24_08h55.57.989,cuing_paradigm_dot,2024.1.5,Win32,59.17159763,682d573fa47f1360d1451895,,,,,,,,,,,542.5133,543.0102,,,543.2623,543.6466,right,0.3758,,,,,,,,,0.6,,,,,,543.0104,543.2622,543.6468,"[-0.009927851437196157,-0.12890106607546445]","[1,1,1]","[-0.1733090448722837,-0.09025155138901157]","[1,1,1]","[-0.13796890933858577,-0.006865246995050413]","[-1,-1,-1]","[-0.19473051682325318,0.01756130915474468]","[-1,-1,-1]","[-0.03985407304201496,-0.17801151102497384]","[1,1,1]","[0.022494355843302078,0.1400255238917391]","[-1,-1,-1]","[-0.08926296934373733,0.14173436285502813]","[1,1,1]","[0.009065262040713767,-0.07446740749690416]","[-1,-1,-1]","[-0.04540293364642169,0.18844719526108958]","[1,1,1]","[0.13966069645640075,0.051871634946036055]","[-1,-1,-1]","[0.042813065295188024,0.18802675840220495]","[1,1,1]","[0.1587885903382446,-0.07431610372175355]","[1,1,1]","[0.07846722946482232,0.05582454987237694]","[-1,-1,-1]","[-0.14684788918291072,0.06570928725771001]","[1,1,1]","[-0.033696444661082334,0.12492594284266739]","[1,1,1]","[0.05336564960916706,0.11199317551990803]","[1,1,1]","[0.023181887608051798,-0.1834847069278769]","[1,1,1]","[-0.1266434487180134,-0.09149729474317841]","[-1,-1,-1]","[-0.10496444188482629,0.06913721168850934]","[1,1,1]","[0.004182463534515945,0.01304319531939739]","[-1,-1,-1]","[0.10842813033584775,-0.12152555721545341]","[-1,-1,-1]","[-0.18497184822242374,-0.03541228440978084]","[1,1,1]","[-0.10798802219889883,0.02072391375880329]","[1,1,1]","[0.06263653380494512,-0.051054044681648335]","[1,1,1]","[-0.08831271816800947,-0.11749345971124608]","[-1,-1,-1]","[-0.08871532707665102,-0.01873973737610524]","[1,1,1]","[0.09103464746417604,-0.08427059966484146]","[-1,-1,-1]","[0.18138161883217202,0.08226821843143954]","[1,1,1]","[0.09545598065422387,0.1744040138287345]","[1,1,1]","[0.10701543005655018,0.0050986700223354595]","[1,1,1]","[0.18676450105999795,0.0418717456357724]","[-1,-1,-1]","[0.19109624135004905,-0.02647685448022217]","[-1,-1,-1]","[0.02,0.02]",544.7443,0,40,40,158,1,,,,,,,
,,,,,,,6755b42b20cf26a928acaa05,68317a5d1c4b4dbc3c2f6744,2025-05-24_08h55.57.989,cuing_paradigm_dot,2024.1.5,Win32,59.17159763,682d573fa47f1360d1451895,,,,,,,,,,,544.7456,545.2446,,,545.4961,545.7969,left,0.2911,,,,,,,,,0.1,,,,,,545.2447,545.4959,545.7971,"[-0.059748041709653,0.15720822338796023]","[-1,-1,-1]","[-0.03506214433046579,-0.14466042594226805]","[-1,-1,-1]","[0.0700675263676763,0.000996201959370141]","[-1,-1,-1]","[0.08267785529674414,0.08442246504653604]","[1,1,1]","[-0.10985241502127097,-0.016336984565122982]","[-1,-1,-1]","[-0.03359912664763565,0.007993522140881117]","[-1,-1,-1]","[0.1311520428391835,0.1289195515684572]","[-1,-1,-1]","[0.03842800866086639,0.04310884153851594]","[-1,-1,-1]","[-0.1751317498355923,0.04741500149581082]","[-1,-1,-1]","[0.14012613818703046,-0.11602514631622371]","[-1,-1,-1]","[0.030715940774123176,0.1332258991194787]","[-1,-1,-1]","[0.08086753760826325,0.17851057481405902]","[-1,-1,-1]","[0.15248018950397457,0.02818835425518586]","[1,1,1]","[-0.1147803847023964,0.041113290242969676]","[-1,-1,-1]","[-0.17740587873166916,-0.022389037795673382]","[-1,-1,-1]","[-0.1091662402024875,-0.05988901366225038]","[-1,-1,-1]","[-0.09171454533754769,-0.17653813616574124]","[-1,-1,-1]","[0.14575723397656573,-0.06194384062578583]","[-1,-1,-1]","[-0.12122836511077172,-0.13126765851731137]","[-1,-1,-1]","[0.0553893762998626,-0.15284107288583876]","[-1,-1,-1]","[0.1633654971067979,0.08932418040133182]","[-1,-1,-1]","[-0.028846871439356436,0.08730242139454021]","[-1,-1,-1]","[0.016520159446008098,0.19832059408739366]","[-1,-1,-1]","[-0.023492876244654515,-0.18689731592756312]","[-1,-1,-1]","[-0.16183203893097103,-0.09285173696455738]","[-1,-1,-1]","[-0.06472048664549737,0.06781497873061532]","[-1,-1,-1]","[-0.08672806399199154,0.117911081281936]","[-1,-1,-1]","[-0.1608392210825534,0.0947133996673623]","[-1,-1,-1]","[0.08257502545648053,-0.04764717372484785]","[-1,-1,-1]","[0.019031252128087414,0.0847004301015939]","[1,1,1]","[-0.030230612130037797,-0.08825526026040449]","[-1,-1,-1]","[0.0890664005404075,-0.0931046884431417]","[-1,-1,-1]","[0.02,0.02]",546.894,0,41,41,18,1,,,,,,,
,,,,,,,6755b42b20cf26a928acaa05,68317a5d1c4b4dbc3c2f6744,2025-05-24_08h55.57.989,cuing_paradigm_dot,2024.1.5,Win32,59.17159763,682d573fa47f1360d1451895,,,,,,,,,,,546.8954,547.3935,,,547.644,548.0445,left,0.3926,,,,,,,,,0.55,,,,,,547.3935,547.644,548.0446,"[0.1387384133623766,-0.08348910374579639]","[1,1,1]","[-0.10942532861883895,0.11714404607531627]","[-1,-1,-1]","[-0.11735769266617865,-0.07966494050976093]","[1,1,1]","[-0.06826412248396758,0.09498812366430948]","[-1,-1,-1]","[-0.002151332009560652,-0.03748254343991933]","[-1,-1,-1]","[0.047413098192139055,0.026830287003510516]","[1,1,1]","[0.00609423771385249,0.16129643475855432]","[-1,-1,-1]","[-0.0207620333889805,-0.1289963045699561]","[-1,-1,-1]","[-0.0521796353436253,-0.09842686728121837]","[1,1,1]","[0.13080162604301093,0.13611846737369976]","[1,1,1]","[0.13747198965669472,0.015744311374602978]","[-1,-1,-1]","[0.025257294584034792,0.11440041747375022]","[-1,-1,-1]","[0.18333814605961782,-0.024858336845638884]","[1,1,1]","[-0.12007416858509759,0.15952996307386907]","[1,1,1]","[-0.05613537544343547,0.04318995337817026]","[1,1,1]","[-0.07381216075542124,0.18056362027638898]","[1,1,1]","[0.017640154521918968,-0.09541026524990887]","[-1,-1,-1]","[0.06290223591889067,0.09991130063765477]","[-1,-1,-1]","[0.14824793739861988,0.06506928973722743]","[1,1,1]","[-0.12862535736700395,-0.03806338648988295]","[1,1,1]","[-0.061627932726248336,-0.14587125232767484]","[1,1,1]","[0.09122181123341778,-0.08739569840962758]","[1,1,1]","[-0.09879239363592265,0.04562796493377893]","[1,1,1]","[0.10030753628301398,0.05963625827751562]","[-1,-1,-1]","[0.011825092706890762,-0.1927778320328594]","[-1,-1,-1]","[0.03278417926519,-0.13713996141245802]","[1,1,1]","[0.047481024824741105,-0.057348204364552284]","[-1,-1,-1]","[0.0073673323074804516,0.01865320156717548]","[1,1,1]","[0.10318244966599635,-0.022270381245149882]","[-1,-1,-1]","[-0.16239559317282798,0.05051702459655784]","[1,1,1]","[-0.078684060012009,-0.014118886475667338]","[1,1,1]","[0.08094434448537549,-0.17115741727827902]","[-1,-1,-1]","[0.02,0.02]",549.1442,0,42,42,121,1,,,,,,,
,,,,,,,6755b42b20cf26a928acaa05,68317a5d1c4b4dbc3c2f6744,2025-05-24_08h55.57.989,cuing_paradigm_dot,2024.1.5,Win32,59.17159763,682d573fa47f1360d1451895,,,,,,,,,,,549.1454,549.6441,,,549.8833,550.162,right,0.2571,,,,,,,,,0.9,,,,,,549.6442,549.8832,550.1621,"[0.01462325636457649,-0.08960419429046351]","[1,1,1]","[0.10368868254961482,0.027344683772356916]","[1,1,1]","[0.018824667301619413,0.10015812837575672]","[1,1,1]","[0.18037444349184314,0.056763916508930784]","[1,1,1]","[0.07642746615071953,-0.16555196779590517]","[1,1,1]","[-0.142311945767927,-0.13241123465982976]","[1,1,1]","[0.12299212901536172,0.13098263386946077]","[1,1,1]","[-0.13027571776078592,-0.05044760463115023]","[-1,-1,-1]","[-0.14367013014348654,0.05250377572690914]","[1,1,1]","[-0.0842693695565508,-0.10714155064096403]","[1,1,1]","[-0.053819622972287574,0.006661082597777831]","[1,1,1]","[-0.12379335869372579,0.10966091581566269]","[1,1,1]","[-0.059533541689926105,0.07545370262753767]","[1,1,1]","[-0.0047187149475191245,0.16762374935768934]","[1,1,1]","[-0.06849072813989139,-0.06052143098584913]","[1,1,1]","[-0.012083469557100676,-0.17938009534929314]","[1,1,1]","[-0.11621167470492899,0.1611811691476386]","[1,1,1]","[-0.09942023706139455,-0.1618274560522715]","[1,1,1]","[-0.16319443311947088,0.013457452231647526]","[1,1,1]","[0.04124917331636838,-0.0025134069291920715]","[-1,-1,-1]","[-0.04841786385907629,0.19070764864497664]","[1,1,1]","[0.10739692610287177,-0.04180743626791371]","[1,1,1]","[-0.014584488366495015,0.12360646377753688]","[1,1,1]","[0.058550087804808484,0.05750157549820203]","[1,1,1]","[0.05167260642122483,-0.05427940991918895]","[1,1,1]","[0.01792459866449496,-0.14582954651615415]","[1,1,1]","[-0.19264751984882236,-0.030998091412151305]","[1,1,1]","[0.012142107753173887,0.0434538541081462]","[1,1,1]","[-0.037888574987103504,-0.14749998184146235]","[-1,-1,-1]","[0.09466561530341745,-0.11544769080502597]","[1,1,1]","[0.1837373138574335,0.013477748163495137]","[1,1,1]","[-0.1021450953495742,0.05499255492100816]","[1,1,1]","[0.02,0.02]",551.2608,0,43,43,208,1,,,,,,,
,,,,,,,6755b42b20cf26a928acaa05,68317a5d1c4b4dbc3c2f6744,2025-05-24_08h55.57.989,cuing_paradigm_dot,2024.1.5,Win32,59.17159763,682d573fa47f1360d1451895,,,,,,,,,,,551.2624,551.7615,,,552.013,552.53,left,0.4977,,,,,,,,,0.55,,,,,,551.7616,552.0129,552.5301,"[-0.04057343264828155,0.11833571559338961]","[1,1,1]","[0.018364007160401204,0.186234938155941]","[1,1,1]","[0.13975854586927516,0.08918142726384509]","[-1,-1,-1]","[0.19241906603921613,0.02444916072005821]","[1,1,1]","[0.16824976681895887,-0.06493408580938007]","[1,1,1]","[-0.04623107812801958,0.06445349850744911]","[-1,-1,-1]","[-0.027446379735638977,-0.11231273098860559]","[1,1,1]","[0.07055891263763817,-0.08269163469392923]","[1,1,1]","[-0.17638481963031483,0.009000530903245294]","[1,1,1]","[-0.13947086631837158,-0.13670548789351564]","[1,1,1]","[0.12313154086454567,-0.025960585948696307]","[-1,-1,-1]","[0.07811013566728295,0.019334921582001494]","[1,1,1]","[-0.056540841220813404,-0.04080791104265175]","[1,1,1]","[0.03736579537680648,0.09448954295767635]","[-1,-1,-1]","[-0.026423553822857503,0.17265706006025622]","[1,1,1]","[0.0738868941957436,-0.17618911379284927]","[1,1,1]","[-0.0911404825070026,-0.02070070984291758]","[1,1,1]","[-0.08763142575987355,0.14219257339485825]","[-1,-1,-1]","[-0.14471878288375917,0.10220960387588894]","[1,1,1]","[0.05975839434829712,0.13190206313922578]","[-1,-1,-1]","[0.0014081926856797226,-0.18167571508155356]","[-1,-1,-1]","[0.13488141392836134,-0.1151927413995409]","[-1,-1,-1]","[0.09323573191523482,0.17532780290277591]","[-1,-1,-1]","[0.028171282761070626,-0.0015029278438280242]","[-1,-1,-1]","[-0.17738272618289752,0.06758977077912104]","[1,1,1]","[0.1420773170240256,0.04339967743155131]","[1,1,1]","[0.06485910674860342,-0.025029284172938343]","[-1,-1,-1]","[0.015295916832451862,-0.10678664682423468]","[-1,-1,-1]","[0.024390477466642586,0.04301380234558293]","[-1,-1,-1]","[-0.09598227624588951,-0.07951179220508826]","[1,1,1]","[-0.023442929605837787,0.012364875449207368]","[-1,-1,-1]","[-0.06970575522851953,0.02639808994942864]","[1,1,1]","[0.02,0.02]",553.6273,0,44,44,135,1,,,,,,,
