right,left,explain.started,explain.stopped,key_resp_3.keys,key_resp_3.rt,key_resp_3.duration,participant,session,date,expName,psychopyVersion,OS,frameRate,study_id,explain_2.started,explain_2.stopped,key_resp_4.keys,key_resp_4.rt,key_resp_4.duration,explain_3.started,explain_3.stopped,key_resp_5.keys,key_resp_5.rt,key_resp_5.duration,fixation.started,fixation.stopped,practice.started,practice.stopped,response.started,response.stopped,key_resp.keys,key_resp.rt,key_resp.duration,feedback.started,feedback.stopped,trials_2.thisRepN,trials_2.thisTrialN,trials_2.thisN,trials_2.thisIndex,trials_2.ran,white_ratio,explain_4.started,explain_4.stopped,key_resp_6.keys,key_resp_6.rt,key_resp_6.duration,dotDisplay.started,dotDisplay.stopped,ITI.started,ITI.stopped,trials.thisRepN,trials.thisTrialN,trials.thisN,trials.thisIndex,trials.ran,break_2.started,break_2.stopped,trials_3.thisRepN,trials_3.thisTrialN,trials_3.thisN,trials_3.thisIndex,trials_3.ran
subject chose white,subject chose black,0.0008,45.059,space,30.0407,,672451c5f4e558e08242d746,682722081666f84b3e900760,2025-05-16_06h35.37.133,cuing_paradigm_dot,2024.1.5,Win32,59.88023952,68242c07d0c0e200c6451fdd,,,,,,,,,,,,,,,,,,,,,,,,,,,,,,,,,,,,,,,,,,,,,,,,
,,,,,,,672451c5f4e558e08242d746,682722081666f84b3e900760,2025-05-16_06h35.37.133,cuing_paradigm_dot,2024.1.5,Win32,59.88023952,68242c07d0c0e200c6451fdd,45.0593,130.0759,space,54.9956,,,,,,,,,,,,,,,,,,,,,,,,,,,,,,,,,,,,,,,,,,,,
,,,,,,,672451c5f4e558e08242d746,682722081666f84b3e900760,2025-05-16_06h35.37.133,cuing_paradigm_dot,2024.1.5,Win32,59.88023952,68242c07d0c0e200c6451fdd,,,,,,130.0763,136.5231,space,3.4408,,,,,,,,,,,,,,,,,,,,,,,,,,,,,,,,,,,,,,,
,,,,,,,672451c5f4e558e08242d746,682722081666f84b3e900760,2025-05-16_06h35.37.133,cuing_paradigm_dot,2024.1.5,Win32,59.88023952,68242c07d0c0e200c6451fdd,,,,,,,,,,,136.5422,137.0405,137.0409,137.2746,137.2751,138.6405,left,1.3197,,138.6412,139.7402,0,0,0,1,1,0.2,,,,,,,,,,,,,,,,,,,,,
,,,,,,,672451c5f4e558e08242d746,682722081666f84b3e900760,2025-05-16_06h35.37.133,cuing_paradigm_dot,2024.1.5,Win32,59.88023952,68242c07d0c0e200c6451fdd,,,,,,,,,,,139.7416,140.2397,140.2399,140.4973,140.4974,140.7568,right,0.2362,,140.7573,141.8598,0,1,1,0,1,0.8,,,,,,,,,,,,,,,,,,,,,
,,,,,,,672451c5f4e558e08242d746,682722081666f84b3e900760,2025-05-16_06h35.37.133,cuing_paradigm_dot,2024.1.5,Win32,59.88023952,68242c07d0c0e200c6451fdd,,,,,,,,,,,,,,,,,,,,,,,,,,,,141.8601,147.4732,space,2.5995,,,,,,,,,,,,,,,,,
,,,,,,,672451c5f4e558e08242d746,682722081666f84b3e900760,2025-05-16_06h35.37.133,cuing_paradigm_dot,2024.1.5,Win32,59.88023952,68242c07d0c0e200c6451fdd,,,,,,,,,,,147.4825,147.976,,,148.2243,148.8724,left,0.6371,,,,,,,,,0.1,,,,,,147.9768,148.2243,148.8726,149.9727,0,0,0,3,1,,,,,,,
,,,,,,,672451c5f4e558e08242d746,682722081666f84b3e900760,2025-05-16_06h35.37.133,cuing_paradigm_dot,2024.1.5,Win32,59.88023952,68242c07d0c0e200c6451fdd,,,,,,,,,,,149.9731,150.4724,,,150.7244,151.1562,right,0.4179,,,,,,,,,0.6,,,,,,150.4724,150.7242,151.1565,152.256,0,1,1,159,1,,,,,,,
,,,,,,,672451c5f4e558e08242d746,682722081666f84b3e900760,2025-05-16_06h35.37.133,cuing_paradigm_dot,2024.1.5,Win32,59.88023952,68242c07d0c0e200c6451fdd,,,,,,,,,,,152.257,152.7556,,,153.0072,153.7062,right,0.6845,,,,,,,,,0.55,,,,,,152.7557,153.0072,153.7064,154.8059,0,2,2,133,1,,,,,,,
,,,,,,,672451c5f4e558e08242d746,682722081666f84b3e900760,2025-05-16_06h35.37.133,cuing_paradigm_dot,2024.1.5,Win32,59.88023952,68242c07d0c0e200c6451fdd,,,,,,,,,,,154.8066,155.3059,,,155.5569,156.0397,left,0.4696,,,,,,,,,0.4,,,,,,155.3061,155.5569,156.0398,157.1388,0,3,3,54,1,,,,,,,
,,,,,,,672451c5f4e558e08242d746,682722081666f84b3e900760,2025-05-16_06h35.37.133,cuing_paradigm_dot,2024.1.5,Win32,59.88023952,68242c07d0c0e200c6451fdd,,,,,,,,,,,157.1391,157.6389,,,157.889,158.3722,left,0.4708,,,,,,,,,0.1,,,,,,157.6389,157.8889,158.3722,159.4726,0,4,4,27,1,,,,,,,
,,,,,,,672451c5f4e558e08242d746,682722081666f84b3e900760,2025-05-16_06h35.37.133,cuing_paradigm_dot,2024.1.5,Win32,59.88023952,68242c07d0c0e200c6451fdd,,,,,,,,,,,159.4733,159.972,,,160.2223,160.673,right,0.4349,,,,,,,,,0.45,,,,,,159.972,160.2222,160.6732,161.7726,0,5,5,79,1,,,,,,,
,,,,,,,672451c5f4e558e08242d746,682722081666f84b3e900760,2025-05-16_06h35.37.133,cuing_paradigm_dot,2024.1.5,Win32,59.88023952,68242c07d0c0e200c6451fdd,,,,,,,,,,,161.7732,162.2721,,,162.5222,162.8226,left,0.2847,,,,,,,,,0.1,,,,,,162.2721,162.5222,162.8226,163.922,0,6,6,2,1,,,,,,,
,,,,,,,672451c5f4e558e08242d746,682722081666f84b3e900760,2025-05-16_06h35.37.133,cuing_paradigm_dot,2024.1.5,Win32,59.88023952,68242c07d0c0e200c6451fdd,,,,,,,,,,,163.9224,164.4221,,,164.6723,165.2885,right,0.5991,,,,,,,,,0.45,,,,,,164.4221,164.6723,165.2887,166.3887,0,7,7,89,1,,,,,,,
,,,,,,,672451c5f4e558e08242d746,682722081666f84b3e900760,2025-05-16_06h35.37.133,cuing_paradigm_dot,2024.1.5,Win32,59.88023952,68242c07d0c0e200c6451fdd,,,,,,,,,,,166.3893,166.8893,,,167.1433,167.8286,left,0.6675,,,,,,,,,0.6,,,,,,166.8894,167.1433,167.8287,168.9221,0,8,8,162,1,,,,,,,
,,,,,,,672451c5f4e558e08242d746,682722081666f84b3e900760,2025-05-16_06h35.37.133,cuing_paradigm_dot,2024.1.5,Win32,59.88023952,68242c07d0c0e200c6451fdd,,,,,,,,,,,168.9227,169.4265,,,169.6767,170.155,left,0.4593,,,,,,,,,0.1,,,,,,169.4265,169.6766,170.1551,171.2551,0,9,9,24,1,,,,,,,
,,,,,,,672451c5f4e558e08242d746,682722081666f84b3e900760,2025-05-16_06h35.37.133,cuing_paradigm_dot,2024.1.5,Win32,59.88023952,68242c07d0c0e200c6451fdd,,,,,,,,,,,171.2558,171.7557,,,171.9944,172.9554,right,0.937,,,,,,,,,0.4,,,,,,171.7559,171.9943,172.9554,174.0552,0,10,10,47,1,,,,,,,
,,,,,,,672451c5f4e558e08242d746,682722081666f84b3e900760,2025-05-16_06h35.37.133,cuing_paradigm_dot,2024.1.5,Win32,59.88023952,68242c07d0c0e200c6451fdd,,,,,,,,,,,174.0559,174.5551,,,174.8053,175.3465,right,0.5189,,,,,,,,,0.6,,,,,,174.5552,174.8053,175.3465,176.4386,0,11,11,179,1,,,,,,,
,,,,,,,672451c5f4e558e08242d746,682722081666f84b3e900760,2025-05-16_06h35.37.133,cuing_paradigm_dot,2024.1.5,Win32,59.88023952,68242c07d0c0e200c6451fdd,,,,,,,,,,,176.4392,176.9387,,,177.1925,177.5885,right,0.3687,,,,,,,,,0.9,,,,,,176.9388,177.1925,177.5887,178.6927,0,12,12,207,1,,,,,,,
,,,,,,,672451c5f4e558e08242d746,682722081666f84b3e900760,2025-05-16_06h35.37.133,cuing_paradigm_dot,2024.1.5,Win32,59.88023952,68242c07d0c0e200c6451fdd,,,,,,,,,,,178.6928,179.1884,,,179.4415,179.7552,left,0.2837,,,,,,,,,0.1,,,,,,179.1885,179.4415,179.7553,180.8552,0,13,13,10,1,,,,,,,
,,,,,,,672451c5f4e558e08242d746,682722081666f84b3e900760,2025-05-16_06h35.37.133,cuing_paradigm_dot,2024.1.5,Win32,59.88023952,68242c07d0c0e200c6451fdd,,,,,,,,,,,180.8569,181.3548,,,181.6056,181.9057,right,0.2776,,,,,,,,,0.9,,,,,,181.3548,181.6055,181.9057,183.0049,0,14,14,199,1,,,,,,,
,,,,,,,672451c5f4e558e08242d746,682722081666f84b3e900760,2025-05-16_06h35.37.133,cuing_paradigm_dot,2024.1.5,Win32,59.88023952,68242c07d0c0e200c6451fdd,,,,,,,,,,,183.0055,183.5101,,,183.7595,184.0719,right,0.285,,,,,,,,,0.9,,,,,,183.5102,183.7595,184.072,185.1714,0,15,15,186,1,,,,,,,
,,,,,,,672451c5f4e558e08242d746,682722081666f84b3e900760,2025-05-16_06h35.37.133,cuing_paradigm_dot,2024.1.5,Win32,59.88023952,68242c07d0c0e200c6451fdd,,,,,,,,,,,185.1721,185.672,,,185.9283,186.9912,right,1.0471,,,,,,,,,0.55,,,,,,185.6721,185.9283,186.9912,188.0887,0,16,16,130,1,,,,,,,
,,,,,,,672451c5f4e558e08242d746,682722081666f84b3e900760,2025-05-16_06h35.37.133,cuing_paradigm_dot,2024.1.5,Win32,59.88023952,68242c07d0c0e200c6451fdd,,,,,,,,,,,188.0902,188.5936,,,188.8435,189.2716,right,0.401,,,,,,,,,0.6,,,,,,188.5936,188.8435,189.2717,190.3713,0,17,17,173,1,,,,,,,
,,,,,,,672451c5f4e558e08242d746,682722081666f84b3e900760,2025-05-16_06h35.37.133,cuing_paradigm_dot,2024.1.5,Win32,59.88023952,68242c07d0c0e200c6451fdd,,,,,,,,,,,190.3719,190.8749,,,191.1225,191.672,right,0.5199,,,,,,,,,0.55,,,,,,190.8749,191.1223,191.6721,192.7599,0,18,18,131,1,,,,,,,
,,,,,,,672451c5f4e558e08242d746,682722081666f84b3e900760,2025-05-16_06h35.37.133,cuing_paradigm_dot,2024.1.5,Win32,59.88023952,68242c07d0c0e200c6451fdd,,,,,,,,,,,192.7603,193.2604,,,193.5104,193.8609,right,0.3338,,,,,,,,,0.9,,,,,,193.2604,193.5104,193.8609,194.9612,0,19,19,202,1,,,,,,,
,,,,,,,672451c5f4e558e08242d746,682722081666f84b3e900760,2025-05-16_06h35.37.133,cuing_paradigm_dot,2024.1.5,Win32,59.88023952,68242c07d0c0e200c6451fdd,,,,,,,,,,,194.9617,195.4601,,,195.7106,196.2511,right,0.5244,,,,,,,,,0.55,,,,,,195.4601,195.7106,196.2512,197.3439,0,20,20,144,1,,,,,,,
,,,,,,,672451c5f4e558e08242d746,682722081666f84b3e900760,2025-05-16_06h35.37.133,cuing_paradigm_dot,2024.1.5,Win32,59.88023952,68242c07d0c0e200c6451fdd,,,,,,,,,,,197.3442,197.843,,,198.0957,198.6937,left,0.5827,,,,,,,,,0.4,,,,,,197.8431,198.0956,198.6937,199.7948,0,21,21,58,1,,,,,,,
,,,,,,,672451c5f4e558e08242d746,682722081666f84b3e900760,2025-05-16_06h35.37.133,cuing_paradigm_dot,2024.1.5,Win32,59.88023952,68242c07d0c0e200c6451fdd,,,,,,,,,,,199.7954,200.2952,,,200.5434,201.0772,left,0.5162,,,,,,,,,0.4,,,,,,200.2953,200.5433,201.0772,202.171,0,22,22,51,1,,,,,,,
,,,,,,,672451c5f4e558e08242d746,682722081666f84b3e900760,2025-05-16_06h35.37.133,cuing_paradigm_dot,2024.1.5,Win32,59.88023952,68242c07d0c0e200c6451fdd,,,,,,,,,,,202.1717,202.6716,,,202.9229,203.4549,left,0.5001,,,,,,,,,0.4,,,,,,202.6717,202.9227,203.4551,204.5544,0,23,23,36,1,,,,,,,
,,,,,,,672451c5f4e558e08242d746,682722081666f84b3e900760,2025-05-16_06h35.37.133,cuing_paradigm_dot,2024.1.5,Win32,59.88023952,68242c07d0c0e200c6451fdd,,,,,,,,,,,204.5551,205.0545,,,205.3084,205.7777,right,0.4535,,,,,,,,,0.55,,,,,,205.0546,205.3083,205.7778,206.8716,0,24,24,125,1,,,,,,,
,,,,,,,672451c5f4e558e08242d746,682722081666f84b3e900760,2025-05-16_06h35.37.133,cuing_paradigm_dot,2024.1.5,Win32,59.88023952,68242c07d0c0e200c6451fdd,,,,,,,,,,,206.8727,207.3709,,,207.6252,208.1139,right,0.4692,,,,,,,,,0.4,,,,,,207.3711,207.6251,208.1141,209.2068,0,25,25,44,1,,,,,,,
,,,,,,,672451c5f4e558e08242d746,682722081666f84b3e900760,2025-05-16_06h35.37.133,cuing_paradigm_dot,2024.1.5,Win32,59.88023952,68242c07d0c0e200c6451fdd,,,,,,,,,,,209.2071,209.7079,,,209.9596,210.4044,right,0.4257,,,,,,,,,0.6,,,,,,209.7079,209.9596,210.4045,211.5049,0,26,26,178,1,,,,,,,
,,,,,,,672451c5f4e558e08242d746,682722081666f84b3e900760,2025-05-16_06h35.37.133,cuing_paradigm_dot,2024.1.5,Win32,59.88023952,68242c07d0c0e200c6451fdd,,,,,,,,,,,211.5063,212.0047,,,212.243,212.7043,right,0.4395,,,,,,,,,0.6,,,,,,212.0048,212.243,212.7044,213.805,0,27,27,166,1,,,,,,,
,,,,,,,672451c5f4e558e08242d746,682722081666f84b3e900760,2025-05-16_06h35.37.133,cuing_paradigm_dot,2024.1.5,Win32,59.88023952,68242c07d0c0e200c6451fdd,,,,,,,,,,,213.8062,214.3049,,,214.5598,215.2619,left,0.6842,,,,,,,,,0.5,,,,,,214.3051,214.5598,215.2619,216.3545,0,28,28,112,1,,,,,,,
,,,,,,,672451c5f4e558e08242d746,682722081666f84b3e900760,2025-05-16_06h35.37.133,cuing_paradigm_dot,2024.1.5,Win32,59.88023952,68242c07d0c0e200c6451fdd,,,,,,,,,,,216.3556,216.8547,,,217.1093,217.5212,left,0.402,,,,,,,,,0.6,,,,,,216.8548,217.1093,217.5215,218.6097,0,29,29,167,1,,,,,,,
,,,,,,,672451c5f4e558e08242d746,682722081666f84b3e900760,2025-05-16_06h35.37.133,cuing_paradigm_dot,2024.1.5,Win32,59.88023952,68242c07d0c0e200c6451fdd,,,,,,,,,,,218.6103,219.1093,,,219.3542,219.8584,right,0.4829,,,,,,,,,0.5,,,,,,219.1094,219.3541,219.8585,220.9539,0,30,30,109,1,,,,,,,
,,,,,,,672451c5f4e558e08242d746,682722081666f84b3e900760,2025-05-16_06h35.37.133,cuing_paradigm_dot,2024.1.5,Win32,59.88023952,68242c07d0c0e200c6451fdd,,,,,,,,,,,220.9542,221.4538,,,221.7047,222.3219,right,0.6026,,,,,,,,,0.9,,,,,,221.4538,221.7047,222.3219,223.4205,0,31,31,208,1,,,,,,,
,,,,,,,672451c5f4e558e08242d746,682722081666f84b3e900760,2025-05-16_06h35.37.133,cuing_paradigm_dot,2024.1.5,Win32,59.88023952,68242c07d0c0e200c6451fdd,,,,,,,,,,,223.4208,223.9204,,,224.1722,224.9039,left,0.7159,,,,,,,,,0.6,,,,,,223.9205,224.1721,224.9039,226.0037,0,32,32,165,1,,,,,,,
,,,,,,,672451c5f4e558e08242d746,682722081666f84b3e900760,2025-05-16_06h35.37.133,cuing_paradigm_dot,2024.1.5,Win32,59.88023952,68242c07d0c0e200c6451fdd,,,,,,,,,,,226.0045,226.5037,,,226.7582,227.2265,left,0.4495,,,,,,,,,0.4,,,,,,226.5037,226.7582,227.2266,228.3209,0,33,33,55,1,,,,,,,
,,,,,,,672451c5f4e558e08242d746,682722081666f84b3e900760,2025-05-16_06h35.37.133,cuing_paradigm_dot,2024.1.5,Win32,59.88023952,68242c07d0c0e200c6451fdd,,,,,,,,,,,228.3223,228.8204,,,229.0731,229.4215,left,0.3199,,,,,,,,,0.1,,,,,,228.8205,229.0731,229.4218,230.5205,0,34,34,1,1,,,,,,,
,,,,,,,672451c5f4e558e08242d746,682722081666f84b3e900760,2025-05-16_06h35.37.133,cuing_paradigm_dot,2024.1.5,Win32,59.88023952,68242c07d0c0e200c6451fdd,,,,,,,,,,,230.5213,231.0209,,,231.2754,231.7411,left,0.449,,,,,,,,,0.45,,,,,,231.0209,231.2754,231.7412,232.8368,0,35,35,76,1,,,,,,,
,,,,,,,672451c5f4e558e08242d746,682722081666f84b3e900760,2025-05-16_06h35.37.133,cuing_paradigm_dot,2024.1.5,Win32,59.88023952,68242c07d0c0e200c6451fdd,,,,,,,,,,,232.8375,233.3375,,,233.5909,234.3208,right,0.7011,,,,,,,,,0.4,,,,,,233.3378,233.5909,234.3208,235.4199,0,36,36,41,1,,,,,,,
,,,,,,,672451c5f4e558e08242d746,682722081666f84b3e900760,2025-05-16_06h35.37.133,cuing_paradigm_dot,2024.1.5,Win32,59.88023952,68242c07d0c0e200c6451fdd,,,,,,,,,,,235.4203,235.9238,,,236.1708,236.5701,right,0.3748,,,,,,,,,0.6,,,,,,235.9238,236.1707,236.5703,237.6699,0,37,37,155,1,,,,,,,
,,,,,,,672451c5f4e558e08242d746,682722081666f84b3e900760,2025-05-16_06h35.37.133,cuing_paradigm_dot,2024.1.5,Win32,59.88023952,68242c07d0c0e200c6451fdd,,,,,,,,,,,237.6704,238.1704,,,238.4255,238.9038,right,0.4514,,,,,,,,,0.55,,,,,,238.1706,238.4254,238.904,240.0042,0,38,38,135,1,,,,,,,
,,,,,,,672451c5f4e558e08242d746,682722081666f84b3e900760,2025-05-16_06h35.37.133,cuing_paradigm_dot,2024.1.5,Win32,59.88023952,68242c07d0c0e200c6451fdd,,,,,,,,,,,240.0085,240.5032,,,240.6983,241.1896,left,0.4655,,,,,,,,,0.1,,,,,,240.5033,240.6981,241.1896,242.2866,0,39,39,11,1,,,,,,,
,,,,,,,672451c5f4e558e08242d746,682722081666f84b3e900760,2025-05-16_06h35.37.133,cuing_paradigm_dot,2024.1.5,Win32,59.88023952,68242c07d0c0e200c6451fdd,,,,,,,,,,,242.2869,242.7871,,,243.0374,243.4699,left,0.4226,,,,,,,,,0.1,,,,,,242.7873,243.0374,243.47,244.57,0,40,40,4,1,,,,,,,
,,,,,,,672451c5f4e558e08242d746,682722081666f84b3e900760,2025-05-16_06h35.37.133,cuing_paradigm_dot,2024.1.5,Win32,59.88023952,68242c07d0c0e200c6451fdd,,,,,,,,,,,244.5701,245.07,,,245.32,245.8533,right,0.5222,,,,,,,,,0.45,,,,,,245.07,245.32,245.8533,246.9533,0,41,41,62,1,,,,,,,
,,,,,,,672451c5f4e558e08242d746,682722081666f84b3e900760,2025-05-16_06h35.37.133,cuing_paradigm_dot,2024.1.5,Win32,59.88023952,68242c07d0c0e200c6451fdd,,,,,,,,,,,246.9536,247.4533,,,247.7039,248.1366,right,0.4198,,,,,,,,,0.1,,,,,,247.4533,247.7039,248.1368,249.2365,0,42,42,23,1,,,,,,,
,,,,,,,672451c5f4e558e08242d746,682722081666f84b3e900760,2025-05-16_06h35.37.133,cuing_paradigm_dot,2024.1.5,Win32,59.88023952,68242c07d0c0e200c6451fdd,,,,,,,,,,,249.2368,249.7363,,,249.9866,250.62,right,0.6173,,,,,,,,,0.6,,,,,,249.7364,249.9866,250.6201,251.7196,0,43,43,163,1,,,,,,,
,,,,,,,672451c5f4e558e08242d746,682722081666f84b3e900760,2025-05-16_06h35.37.133,cuing_paradigm_dot,2024.1.5,Win32,59.88023952,68242c07d0c0e200c6451fdd,,,,,,,,,,,251.7199,252.2205,,,252.4723,252.9713,right,0.4914,,,,,,,,,0.6,,,,,,252.2206,252.4722,252.9713,254.0697,0,44,44,169,1,,,,,,,
,,,,,,,672451c5f4e558e08242d746,682722081666f84b3e900760,2025-05-16_06h35.37.133,cuing_paradigm_dot,2024.1.5,Win32,59.88023952,68242c07d0c0e200c6451fdd,,,,,,,,,,,254.0699,254.5696,,,254.8199,255.705,right,0.8707,,,,,,,,,0.5,,,,,,254.5697,254.8199,255.7051,256.803,0,45,45,99,1,,,,,,,
,,,,,,,672451c5f4e558e08242d746,682722081666f84b3e900760,2025-05-16_06h35.37.133,cuing_paradigm_dot,2024.1.5,Win32,59.88023952,68242c07d0c0e200c6451fdd,,,,,,,,,,,256.8033,257.303,,,257.5532,257.9711,right,0.4028,,,,,,,,,0.55,,,,,,257.303,257.5531,257.9716,259.0702,0,46,46,132,1,,,,,,,
,,,,,,,672451c5f4e558e08242d746,682722081666f84b3e900760,2025-05-16_06h35.37.133,cuing_paradigm_dot,2024.1.5,Win32,59.88023952,68242c07d0c0e200c6451fdd,,,,,,,,,,,259.0711,259.5704,,,259.8213,260.4696,left,0.632,,,,,,,,,0.45,,,,,,259.5704,259.8212,260.4696,261.5695,0,47,47,80,1,,,,,,,
,,,,,,,672451c5f4e558e08242d746,682722081666f84b3e900760,2025-05-16_06h35.37.133,cuing_paradigm_dot,2024.1.5,Win32,59.88023952,68242c07d0c0e200c6451fdd,,,,,,,,,,,261.5698,262.0704,,,262.3201,262.7036,left,0.3734,,,,,,,,,0.45,,,,,,262.0704,262.3201,262.7037,263.8027,0,48,48,77,1,,,,,,,
,,,,,,,672451c5f4e558e08242d746,682722081666f84b3e900760,2025-05-16_06h35.37.133,cuing_paradigm_dot,2024.1.5,Win32,59.88023952,68242c07d0c0e200c6451fdd,,,,,,,,,,,263.803,264.3028,,,264.5534,264.9029,right,0.3353,,,,,,,,,0.9,,,,,,264.3028,264.5533,264.9029,266.0034,0,49,49,196,1,,,,,,,
,,,,,,,672451c5f4e558e08242d746,682722081666f84b3e900760,2025-05-16_06h35.37.133,cuing_paradigm_dot,2024.1.5,Win32,59.88023952,68242c07d0c0e200c6451fdd,,,,,,,,,,,266.004,266.5035,,,266.7548,267.0541,right,0.2887,,,,,,,,,0.55,,,,,,266.5036,266.7546,267.0541,268.1537,0,50,50,139,1,,,,,,,
,,,,,,,672451c5f4e558e08242d746,682722081666f84b3e900760,2025-05-16_06h35.37.133,cuing_paradigm_dot,2024.1.5,Win32,59.88023952,68242c07d0c0e200c6451fdd,,,,,,,,,,,268.1545,268.6533,,,268.9029,269.3028,right,0.3839,,,,,,,,,0.9,,,,,,268.6534,268.9028,269.3028,270.4035,0,51,51,203,1,,,,,,,
,,,,,,,672451c5f4e558e08242d746,682722081666f84b3e900760,2025-05-16_06h35.37.133,cuing_paradigm_dot,2024.1.5,Win32,59.88023952,68242c07d0c0e200c6451fdd,,,,,,,,,,,270.4043,270.9035,,,271.1554,271.7866,right,0.6166,,,,,,,,,0.5,,,,,,270.9036,271.1552,271.7867,272.8858,0,52,52,113,1,,,,,,,
,,,,,,,672451c5f4e558e08242d746,682722081666f84b3e900760,2025-05-16_06h35.37.133,cuing_paradigm_dot,2024.1.5,Win32,59.88023952,68242c07d0c0e200c6451fdd,,,,,,,,,,,272.886,273.3857,,,273.6371,273.8699,right,0.2184,,,,,,,,,0.9,,,,,,273.3857,273.637,273.8707,274.97,0,53,53,190,1,,,,,,,
,,,,,,,672451c5f4e558e08242d746,682722081666f84b3e900760,2025-05-16_06h35.37.133,cuing_paradigm_dot,2024.1.5,Win32,59.88023952,68242c07d0c0e200c6451fdd,,,,,,,,,,,274.9705,275.4699,,,275.7205,275.936,right,0.2015,,,,,,,,,0.9,,,,,,275.4699,275.7204,275.936,277.0358,0,54,54,204,1,,,,,,,
,,,,,,,672451c5f4e558e08242d746,682722081666f84b3e900760,2025-05-16_06h35.37.133,cuing_paradigm_dot,2024.1.5,Win32,59.88023952,68242c07d0c0e200c6451fdd,,,,,,,,,,,277.036,277.5358,,,277.7861,278.0201,left,0.2181,,,,,,,,,0.1,,,,,,277.5358,277.7859,278.0202,279.1191,0,55,55,9,1,,,,,,,
,,,,,,,672451c5f4e558e08242d746,682722081666f84b3e900760,2025-05-16_06h35.37.133,cuing_paradigm_dot,2024.1.5,Win32,59.88023952,68242c07d0c0e200c6451fdd,,,,,,,,,,,279.1194,279.6199,,,279.8701,280.3355,left,0.4583,,,,,,,,,0.5,,,,,,279.62,279.8701,280.3356,281.4356,0,56,56,119,1,,,,,,,
,,,,,,,672451c5f4e558e08242d746,682722081666f84b3e900760,2025-05-16_06h35.37.133,cuing_paradigm_dot,2024.1.5,Win32,59.88023952,68242c07d0c0e200c6451fdd,,,,,,,,,,,281.4359,281.9355,,,282.1868,282.8356,right,0.6338,,,,,,,,,0.5,,,,,,281.9355,282.1868,282.8357,283.9355,0,57,57,96,1,,,,,,,
,,,,,,,672451c5f4e558e08242d746,682722081666f84b3e900760,2025-05-16_06h35.37.133,cuing_paradigm_dot,2024.1.5,Win32,59.88023952,68242c07d0c0e200c6451fdd,,,,,,,,,,,283.9359,284.4355,,,284.686,285.1022,right,0.4094,,,,,,,,,0.5,,,,,,284.4355,284.686,285.1022,286.2022,0,58,58,95,1,,,,,,,
,,,,,,,672451c5f4e558e08242d746,682722081666f84b3e900760,2025-05-16_06h35.37.133,cuing_paradigm_dot,2024.1.5,Win32,59.88023952,68242c07d0c0e200c6451fdd,,,,,,,,,,,286.2024,286.7026,,,286.9524,287.2698,right,0.3033,,,,,,,,,0.9,,,,,,286.7026,286.9523,287.2701,288.3695,0,59,59,206,1,,,,,,,
,,,,,,,672451c5f4e558e08242d746,682722081666f84b3e900760,2025-05-16_06h35.37.133,cuing_paradigm_dot,2024.1.5,Win32,59.88023952,68242c07d0c0e200c6451fdd,,,,,,,,,,,288.3705,288.8687,,,289.119,289.6367,right,0.5026,,,,,,,,,0.5,,,,,,288.8689,289.119,289.6367,290.7358,0,60,60,110,1,,,,,,,
,,,,,,,672451c5f4e558e08242d746,682722081666f84b3e900760,2025-05-16_06h35.37.133,cuing_paradigm_dot,2024.1.5,Win32,59.88023952,68242c07d0c0e200c6451fdd,,,,,,,,,,,290.7365,291.2355,,,291.4857,291.8696,right,0.3778,,,,,,,,,0.6,,,,,,291.2355,291.4856,291.8697,292.9686,0,61,61,156,1,,,,,,,
,,,,,,,672451c5f4e558e08242d746,682722081666f84b3e900760,2025-05-16_06h35.37.133,cuing_paradigm_dot,2024.1.5,Win32,59.88023952,68242c07d0c0e200c6451fdd,,,,,,,,,,,292.9688,293.4691,,,293.719,294.3854,right,0.6535,,,,,,,,,0.45,,,,,,293.4693,293.7189,294.3854,295.4853,0,62,62,82,1,,,,,,,
,,,,,,,672451c5f4e558e08242d746,682722081666f84b3e900760,2025-05-16_06h35.37.133,cuing_paradigm_dot,2024.1.5,Win32,59.88023952,68242c07d0c0e200c6451fdd,,,,,,,,,,,295.4855,295.9859,,,296.2356,296.6354,right,0.386,,,,,,,,,0.9,,,,,,295.9859,296.2355,296.6354,297.7352,0,63,63,200,1,,,,,,,
,,,,,,,672451c5f4e558e08242d746,682722081666f84b3e900760,2025-05-16_06h35.37.133,cuing_paradigm_dot,2024.1.5,Win32,59.88023952,68242c07d0c0e200c6451fdd,,,,,,,,,,,297.7354,298.236,,,298.4855,298.852,right,0.3523,,,,,,,,,0.55,,,,,,298.2361,298.4855,298.8521,299.9519,0,64,64,129,1,,,,,,,
,,,,,,,672451c5f4e558e08242d746,682722081666f84b3e900760,2025-05-16_06h35.37.133,cuing_paradigm_dot,2024.1.5,Win32,59.88023952,68242c07d0c0e200c6451fdd,,,,,,,,,,,299.9522,300.4517,,,300.7024,301.0024,right,0.2873,,,,,,,,,0.9,,,,,,300.4517,300.7024,301.0025,302.1027,0,65,65,197,1,,,,,,,
,,,,,,,672451c5f4e558e08242d746,682722081666f84b3e900760,2025-05-16_06h35.37.133,cuing_paradigm_dot,2024.1.5,Win32,59.88023952,68242c07d0c0e200c6451fdd,,,,,,,,,,,302.1035,302.6016,,,302.8519,303.3196,left,0.4526,,,,,,,,,0.1,,,,,,302.6016,302.8519,303.3197,304.4186,0,66,66,13,1,,,,,,,
,,,,,,,672451c5f4e558e08242d746,682722081666f84b3e900760,2025-05-16_06h35.37.133,cuing_paradigm_dot,2024.1.5,Win32,59.88023952,68242c07d0c0e200c6451fdd,,,,,,,,,,,304.4191,304.9194,,,305.1686,305.4517,left,0.2705,,,,,,,,,0.1,,,,,,304.9194,305.1685,305.4517,306.5515,0,67,67,29,1,,,,,,,
,,,,,,,672451c5f4e558e08242d746,682722081666f84b3e900760,2025-05-16_06h35.37.133,cuing_paradigm_dot,2024.1.5,Win32,59.88023952,68242c07d0c0e200c6451fdd,,,,,,,,,,,306.5518,307.0524,,,307.3036,307.8865,right,0.5665,,,,,,,,,0.45,,,,,,307.0524,307.3035,307.8867,308.9857,0,68,68,60,1,,,,,,,
,,,,,,,672451c5f4e558e08242d746,682722081666f84b3e900760,2025-05-16_06h35.37.133,cuing_paradigm_dot,2024.1.5,Win32,59.88023952,68242c07d0c0e200c6451fdd,,,,,,,,,,,308.9864,309.4857,,,309.7364,310.4683,left,0.7162,,,,,,,,,0.1,,,,,,309.4858,309.7363,310.4683,311.5691,0,69,69,15,1,,,,,,,
,,,,,,,672451c5f4e558e08242d746,682722081666f84b3e900760,2025-05-16_06h35.37.133,cuing_paradigm_dot,2024.1.5,Win32,59.88023952,68242c07d0c0e200c6451fdd,,,,,,,,,,,311.57,312.0692,,,312.3194,313.0026,left,0.6684,,,,,,,,,0.1,,,,,,312.0692,312.3194,313.0027,314.1019,0,70,70,0,1,,,,,,,
,,,,,,,672451c5f4e558e08242d746,682722081666f84b3e900760,2025-05-16_06h35.37.133,cuing_paradigm_dot,2024.1.5,Win32,59.88023952,68242c07d0c0e200c6451fdd,,,,,,,,,,,314.1025,314.6013,,,314.8516,315.285,right,0.4215,,,,,,,,,0.45,,,,,,314.6013,314.8516,315.285,316.3859,0,71,71,85,1,,,,,,,
,,,,,,,672451c5f4e558e08242d746,682722081666f84b3e900760,2025-05-16_06h35.37.133,cuing_paradigm_dot,2024.1.5,Win32,59.88023952,68242c07d0c0e200c6451fdd,,,,,,,,,,,316.3866,316.8858,,,317.1357,317.7352,right,0.5904,,,,,,,,,0.4,,,,,,316.8858,317.1355,317.7352,318.8355,0,72,72,59,1,,,,,,,
,,,,,,,672451c5f4e558e08242d746,682722081666f84b3e900760,2025-05-16_06h35.37.133,cuing_paradigm_dot,2024.1.5,Win32,59.88023952,68242c07d0c0e200c6451fdd,,,,,,,,,,,318.8365,319.3354,,,319.5864,320.1527,left,0.5536,,,,,,,,,0.4,,,,,,319.3354,319.5863,320.1527,321.2512,0,73,73,37,1,,,,,,,
,,,,,,,672451c5f4e558e08242d746,682722081666f84b3e900760,2025-05-16_06h35.37.133,cuing_paradigm_dot,2024.1.5,Win32,59.88023952,68242c07d0c0e200c6451fdd,,,,,,,,,,,321.2514,321.752,,,322.0015,322.3845,right,0.3673,,,,,,,,,0.9,,,,,,321.752,322.0015,322.3846,323.4845,0,74,74,180,1,,,,,,,
,,,,,,,672451c5f4e558e08242d746,682722081666f84b3e900760,2025-05-16_06h35.37.133,cuing_paradigm_dot,2024.1.5,Win32,59.88023952,68242c07d0c0e200c6451fdd,,,,,,,,,,,323.4847,323.9845,,,324.2347,324.5689,right,0.3282,,,,,,,,,0.9,,,,,,323.9845,324.2347,324.5689,325.6679,0,75,75,201,1,,,,,,,
,,,,,,,672451c5f4e558e08242d746,682722081666f84b3e900760,2025-05-16_06h35.37.133,cuing_paradigm_dot,2024.1.5,Win32,59.88023952,68242c07d0c0e200c6451fdd,,,,,,,,,,,325.6682,326.1678,,,326.419,326.9348,left,0.4995,,,,,,,,,0.4,,,,,,326.1678,326.4189,326.9348,328.0347,0,76,76,34,1,,,,,,,
,,,,,,,672451c5f4e558e08242d746,682722081666f84b3e900760,2025-05-16_06h35.37.133,cuing_paradigm_dot,2024.1.5,Win32,59.88023952,68242c07d0c0e200c6451fdd,,,,,,,,,,,328.0353,328.5342,,,328.7845,329.2344,left,0.4365,,,,,,,,,0.5,,,,,,328.5343,328.7845,329.2345,330.3343,0,77,77,98,1,,,,,,,
,,,,,,,672451c5f4e558e08242d746,682722081666f84b3e900760,2025-05-16_06h35.37.133,cuing_paradigm_dot,2024.1.5,Win32,59.88023952,68242c07d0c0e200c6451fdd,,,,,,,,,,,330.3348,330.8342,,,331.0843,331.5021,left,0.4044,,,,,,,,,0.4,,,,,,330.8343,331.0843,331.5024,332.6021,0,78,78,43,1,,,,,,,
,,,,,,,672451c5f4e558e08242d746,682722081666f84b3e900760,2025-05-16_06h35.37.133,cuing_paradigm_dot,2024.1.5,Win32,59.88023952,68242c07d0c0e200c6451fdd,,,,,,,,,,,332.6027,333.101,,,333.3511,333.7178,right,0.3602,,,,,,,,,0.6,,,,,,333.101,333.3511,333.7178,334.8175,0,79,79,152,1,,,,,,,
,,,,,,,672451c5f4e558e08242d746,682722081666f84b3e900760,2025-05-16_06h35.37.133,cuing_paradigm_dot,2024.1.5,Win32,59.88023952,68242c07d0c0e200c6451fdd,,,,,,,,,,,334.8177,335.3183,,,335.5682,335.8841,left,0.3016,,,,,,,,,0.4,,,,,,335.3184,335.5682,335.8842,336.9841,0,80,80,31,1,,,,,,,
,,,,,,,672451c5f4e558e08242d746,682722081666f84b3e900760,2025-05-16_06h35.37.133,cuing_paradigm_dot,2024.1.5,Win32,59.88023952,68242c07d0c0e200c6451fdd,,,,,,,,,,,336.9843,337.484,,,337.7344,338.6347,left,0.8837,,,,,,,,,0.4,,,,,,337.484,337.7343,338.6347,339.734,0,81,81,53,1,,,,,,,
,,,,,,,672451c5f4e558e08242d746,682722081666f84b3e900760,2025-05-16_06h35.37.133,cuing_paradigm_dot,2024.1.5,Win32,59.88023952,68242c07d0c0e200c6451fdd,,,,,,,,,,,339.7343,340.235,,,340.4845,340.9007,left,0.3997,,,,,,,,,0.1,,,,,,340.2351,340.4845,340.9007,342.0006,0,82,82,8,1,,,,,,,
,,,,,,,672451c5f4e558e08242d746,682722081666f84b3e900760,2025-05-16_06h35.37.133,cuing_paradigm_dot,2024.1.5,Win32,59.88023952,68242c07d0c0e200c6451fdd,,,,,,,,,,,342.0009,342.5014,,,342.7522,343.0842,left,0.3161,,,,,,,,,0.1,,,,,,342.5015,342.7521,343.0842,344.1839,0,83,83,28,1,,,,,,,
,,,,,,,672451c5f4e558e08242d746,682722081666f84b3e900760,2025-05-16_06h35.37.133,cuing_paradigm_dot,2024.1.5,Win32,59.88023952,68242c07d0c0e200c6451fdd,,,,,,,,,,,344.1842,344.684,,,344.9341,345.234,right,0.2913,,,,,,,,,0.9,,,,,,344.684,344.9341,345.234,346.3345,0,84,84,185,1,,,,,,,
,,,,,,,672451c5f4e558e08242d746,682722081666f84b3e900760,2025-05-16_06h35.37.133,cuing_paradigm_dot,2024.1.5,Win32,59.88023952,68242c07d0c0e200c6451fdd,,,,,,,,,,,346.3354,346.8339,,,347.0841,347.4346,left,0.3448,,,,,,,,,0.45,,,,,,346.8339,347.084,347.4347,348.5341,0,85,85,61,1,,,,,,,
,,,,,,,672451c5f4e558e08242d746,682722081666f84b3e900760,2025-05-16_06h35.37.133,cuing_paradigm_dot,2024.1.5,Win32,59.88023952,68242c07d0c0e200c6451fdd,,,,,,,,,,,348.5345,349.0348,,,349.2843,349.7171,right,0.4249,,,,,,,,,0.6,,,,,,349.0349,349.2843,349.7172,350.817,0,86,86,161,1,,,,,,,
,,,,,,,672451c5f4e558e08242d746,682722081666f84b3e900760,2025-05-16_06h35.37.133,cuing_paradigm_dot,2024.1.5,Win32,59.88023952,68242c07d0c0e200c6451fdd,,,,,,,,,,,350.8173,351.3182,,,351.5682,351.9671,left,0.387,,,,,,,,,0.1,,,,,,351.3182,351.5682,351.9671,353.0682,0,87,87,5,1,,,,,,,
,,,,,,,672451c5f4e558e08242d746,682722081666f84b3e900760,2025-05-16_06h35.37.133,cuing_paradigm_dot,2024.1.5,Win32,59.88023952,68242c07d0c0e200c6451fdd,,,,,,,,,,,353.069,353.5678,,,353.8179,354.2507,right,0.4221,,,,,,,,,0.4,,,,,,353.5678,353.8177,354.2508,355.3515,0,88,88,49,1,,,,,,,
,,,,,,,672451c5f4e558e08242d746,682722081666f84b3e900760,2025-05-16_06h35.37.133,cuing_paradigm_dot,2024.1.5,Win32,59.88023952,68242c07d0c0e200c6451fdd,,,,,,,,,,,355.3524,355.8509,,,356.1023,356.5021,right,0.3846,,,,,,,,,0.55,,,,,,355.851,356.1022,356.5023,357.6013,0,89,89,142,1,,,,,,,
,,,,,,,672451c5f4e558e08242d746,682722081666f84b3e900760,2025-05-16_06h35.37.133,cuing_paradigm_dot,2024.1.5,Win32,59.88023952,68242c07d0c0e200c6451fdd,,,,,,,,,,,357.6021,358.1017,,,358.352,358.7529,right,0.3938,,,,,,,,,0.9,,,,,,358.1018,358.352,358.7529,359.8501,0,90,90,181,1,,,,,,,
,,,,,,,672451c5f4e558e08242d746,682722081666f84b3e900760,2025-05-16_06h35.37.133,cuing_paradigm_dot,2024.1.5,Win32,59.88023952,68242c07d0c0e200c6451fdd,,,,,,,,,,,359.8504,360.35,,,360.6003,360.968,right,0.3574,,,,,,,,,0.55,,,,,,360.3501,360.6003,360.9682,362.0676,0,91,91,128,1,,,,,,,
,,,,,,,672451c5f4e558e08242d746,682722081666f84b3e900760,2025-05-16_06h35.37.133,cuing_paradigm_dot,2024.1.5,Win32,59.88023952,68242c07d0c0e200c6451fdd,,,,,,,,,,,362.0681,362.5673,,,362.8181,363.2183,right,0.3717,,,,,,,,,0.6,,,,,,362.5674,362.8181,363.2185,364.3173,0,92,92,175,1,,,,,,,
,,,,,,,672451c5f4e558e08242d746,682722081666f84b3e900760,2025-05-16_06h35.37.133,cuing_paradigm_dot,2024.1.5,Win32,59.88023952,68242c07d0c0e200c6451fdd,,,,,,,,,,,364.3179,364.8169,,,365.068,365.5677,left,0.4848,,,,,,,,,0.5,,,,,,364.817,365.068,365.5678,366.6677,0,93,93,116,1,,,,,,,
,,,,,,,672451c5f4e558e08242d746,682722081666f84b3e900760,2025-05-16_06h35.37.133,cuing_paradigm_dot,2024.1.5,Win32,59.88023952,68242c07d0c0e200c6451fdd,,,,,,,,,,,366.6683,367.1676,,,367.4185,368.0842,right,0.6508,,,,,,,,,0.55,,,,,,367.1677,367.4184,368.0842,369.1841,0,94,94,138,1,,,,,,,
,,,,,,,672451c5f4e558e08242d746,682722081666f84b3e900760,2025-05-16_06h35.37.133,cuing_paradigm_dot,2024.1.5,Win32,59.88023952,68242c07d0c0e200c6451fdd,,,,,,,,,,,369.1851,369.684,,,369.9348,370.217,right,0.2742,,,,,,,,,0.9,,,,,,369.684,369.9347,370.2171,371.3179,0,95,95,192,1,,,,,,,
,,,,,,,672451c5f4e558e08242d746,682722081666f84b3e900760,2025-05-16_06h35.37.133,cuing_paradigm_dot,2024.1.5,Win32,59.88023952,68242c07d0c0e200c6451fdd,,,,,,,,,,,371.3188,371.8179,,,372.0682,372.8355,left,0.7605,,,,,,,,,0.5,,,,,,371.8179,372.0681,372.8356,373.9332,0,96,96,115,1,,,,,,,
,,,,,,,672451c5f4e558e08242d746,682722081666f84b3e900760,2025-05-16_06h35.37.133,cuing_paradigm_dot,2024.1.5,Win32,59.88023952,68242c07d0c0e200c6451fdd,,,,,,,,,,,373.9334,374.4331,,,374.6835,375.1679,right,0.4774,,,,,,,,,0.6,,,,,,374.4331,374.6834,375.1679,376.2665,0,97,97,174,1,,,,,,,
,,,,,,,672451c5f4e558e08242d746,682722081666f84b3e900760,2025-05-16_06h35.37.133,cuing_paradigm_dot,2024.1.5,Win32,59.88023952,68242c07d0c0e200c6451fdd,,,,,,,,,,,376.2667,376.7663,,,377.0166,377.3999,right,0.3711,,,,,,,,,0.55,,,,,,376.7664,377.0166,377.4,378.5001,0,98,98,148,1,,,,,,,
,,,,,,,672451c5f4e558e08242d746,682722081666f84b3e900760,2025-05-16_06h35.37.133,cuing_paradigm_dot,2024.1.5,Win32,59.88023952,68242c07d0c0e200c6451fdd,,,,,,,,,,,378.5009,379.0008,,,379.251,379.5007,right,0.2339,,,,,,,,,0.9,,,,,,379.0008,379.2509,379.5008,380.6004,0,99,99,189,1,,,,,,,
,,,,,,,672451c5f4e558e08242d746,682722081666f84b3e900760,2025-05-16_06h35.37.133,cuing_paradigm_dot,2024.1.5,Win32,59.88023952,68242c07d0c0e200c6451fdd,,,,,,,,,,,380.601,381.0998,,,381.3507,381.9499,left,0.583,,,,,,,,,0.4,,,,,,381.0998,381.3506,381.9499,383.0494,0,100,100,57,1,,,,,,,
,,,,,,,672451c5f4e558e08242d746,682722081666f84b3e900760,2025-05-16_06h35.37.133,cuing_paradigm_dot,2024.1.5,Win32,59.88023952,68242c07d0c0e200c6451fdd,,,,,,,,,,,383.0498,383.5495,,,383.7997,384.1662,left,0.3545,,,,,,,,,0.1,,,,,,383.5496,383.7997,384.1662,385.2661,0,101,101,17,1,,,,,,,
,,,,,,,672451c5f4e558e08242d746,682722081666f84b3e900760,2025-05-16_06h35.37.133,cuing_paradigm_dot,2024.1.5,Win32,59.88023952,68242c07d0c0e200c6451fdd,,,,,,,,,,,385.2663,385.7671,,,386.0163,386.5165,right,0.4838,,,,,,,,,0.55,,,,,,385.7672,386.0163,386.5165,387.6161,0,102,102,120,1,,,,,,,
,,,,,,,672451c5f4e558e08242d746,682722081666f84b3e900760,2025-05-16_06h35.37.133,cuing_paradigm_dot,2024.1.5,Win32,59.88023952,68242c07d0c0e200c6451fdd,,,,,,,,,,,387.6164,388.1163,,,388.3675,388.8999,left,0.5207,,,,,,,,,0.4,,,,,,388.1163,388.3675,388.8999,389.9994,0,103,103,48,1,,,,,,,
,,,,,,,672451c5f4e558e08242d746,682722081666f84b3e900760,2025-05-16_06h35.37.133,cuing_paradigm_dot,2024.1.5,Win32,59.88023952,68242c07d0c0e200c6451fdd,,,,,,,,,,,389.9997,390.4993,,,390.7501,391.1172,left,0.3519,,,,,,,,,0.4,,,,,,390.4993,390.7501,391.1172,392.2166,0,104,104,33,1,,,,,,,
,,,,,,,672451c5f4e558e08242d746,682722081666f84b3e900760,2025-05-16_06h35.37.133,cuing_paradigm_dot,2024.1.5,Win32,59.88023952,68242c07d0c0e200c6451fdd,,,,,,,,,,,392.2173,392.7159,,,392.9661,393.4001,right,0.4186,,,,,,,,,0.9,,,,,,392.7159,392.966,393.4001,394.4999,0,105,105,183,1,,,,,,,
,,,,,,,672451c5f4e558e08242d746,682722081666f84b3e900760,2025-05-16_06h35.37.133,cuing_paradigm_dot,2024.1.5,Win32,59.88023952,68242c07d0c0e200c6451fdd,,,,,,,,,,,394.5002,394.9995,,,395.2494,395.6327,left,0.3675,,,,,,,,,0.1,,,,,,394.9995,395.2494,395.6328,396.7326,0,106,106,20,1,,,,,,,
,,,,,,,672451c5f4e558e08242d746,682722081666f84b3e900760,2025-05-16_06h35.37.133,cuing_paradigm_dot,2024.1.5,Win32,59.88023952,68242c07d0c0e200c6451fdd,,,,,,,,,,,396.7328,397.2327,,,397.4827,397.9492,right,0.4505,,,,,,,,,0.4,,,,,,397.2327,397.4826,397.9492,399.0492,0,107,107,45,1,,,,,,,
,,,,,,,672451c5f4e558e08242d746,682722081666f84b3e900760,2025-05-16_06h35.37.133,cuing_paradigm_dot,2024.1.5,Win32,59.88023952,68242c07d0c0e200c6451fdd,,,,,,,,,,,399.0495,399.5497,,,399.8006,400.4829,left,0.6708,,,,,,,,,0.6,,,,,,399.55,399.8005,400.4829,401.5824,0,108,108,164,1,,,,,,,
,,,,,,,672451c5f4e558e08242d746,682722081666f84b3e900760,2025-05-16_06h35.37.133,cuing_paradigm_dot,2024.1.5,Win32,59.88023952,68242c07d0c0e200c6451fdd,,,,,,,,,,,401.5826,402.0824,,,402.3337,402.966,right,0.6203,,,,,,,,,0.5,,,,,,402.0825,402.3337,402.966,404.0657,0,109,109,101,1,,,,,,,
,,,,,,,672451c5f4e558e08242d746,682722081666f84b3e900760,2025-05-16_06h35.37.133,cuing_paradigm_dot,2024.1.5,Win32,59.88023952,68242c07d0c0e200c6451fdd,,,,,,,,,,,404.0658,404.5656,,,404.8159,405.1991,left,0.3666,,,,,,,,,0.1,,,,,,404.5656,404.8159,405.1991,406.2998,0,110,110,25,1,,,,,,,
,,,,,,,672451c5f4e558e08242d746,682722081666f84b3e900760,2025-05-16_06h35.37.133,cuing_paradigm_dot,2024.1.5,Win32,59.88023952,68242c07d0c0e200c6451fdd,,,,,,,,,,,406.3019,406.7988,,,407.0544,407.4044,left,0.3337,,,,,,,,,0.4,,,,,,406.7989,407.0544,407.4045,408.4987,0,111,111,35,1,,,,,,,
,,,,,,,672451c5f4e558e08242d746,682722081666f84b3e900760,2025-05-16_06h35.37.133,cuing_paradigm_dot,2024.1.5,Win32,59.88023952,68242c07d0c0e200c6451fdd,,,,,,,,,,,408.4995,408.9995,,,409.2534,409.6657,right,0.3853,,,,,,,,,0.55,,,,,,408.9996,409.2534,409.6658,410.7655,0,112,112,146,1,,,,,,,
,,,,,,,672451c5f4e558e08242d746,682722081666f84b3e900760,2025-05-16_06h35.37.133,cuing_paradigm_dot,2024.1.5,Win32,59.88023952,68242c07d0c0e200c6451fdd,,,,,,,,,,,410.766,411.2663,,,411.5209,411.8491,right,0.312,,,,,,,,,0.9,,,,,,411.2663,411.5209,411.8492,412.9487,0,113,113,198,1,,,,,,,
,,,,,,,672451c5f4e558e08242d746,682722081666f84b3e900760,2025-05-16_06h35.37.133,cuing_paradigm_dot,2024.1.5,Win32,59.88023952,68242c07d0c0e200c6451fdd,,,,,,,,,,,412.9493,413.4488,,,413.7025,414.2716,right,0.55,,,,,,,,,0.6,,,,,,413.4488,413.7025,414.2717,415.3658,0,114,114,168,1,,,,,,,
,,,,,,,672451c5f4e558e08242d746,682722081666f84b3e900760,2025-05-16_06h35.37.133,cuing_paradigm_dot,2024.1.5,Win32,59.88023952,68242c07d0c0e200c6451fdd,,,,,,,,,,,415.3667,415.8693,,,416.1201,416.6877,right,0.5489,,,,,,,,,0.5,,,,,,415.8694,416.1201,416.6878,417.7858,0,115,115,108,1,,,,,,,
,,,,,,,672451c5f4e558e08242d746,682722081666f84b3e900760,2025-05-16_06h35.37.133,cuing_paradigm_dot,2024.1.5,Win32,59.88023952,68242c07d0c0e200c6451fdd,,,,,,,,,,,417.7867,418.2825,,,418.5333,419.1526,right,0.5971,,,,,,,,,0.6,,,,,,418.2825,418.5331,419.1526,420.2542,0,116,116,171,1,,,,,,,
,,,,,,,672451c5f4e558e08242d746,682722081666f84b3e900760,2025-05-16_06h35.37.133,cuing_paradigm_dot,2024.1.5,Win32,59.88023952,68242c07d0c0e200c6451fdd,,,,,,,,,,,420.2544,420.7485,,,420.9999,421.7333,left,0.719,,,,,,,,,0.5,,,,,,420.7485,420.9999,421.7334,422.8321,0,117,117,93,1,,,,,,,
,,,,,,,672451c5f4e558e08242d746,682722081666f84b3e900760,2025-05-16_06h35.37.133,cuing_paradigm_dot,2024.1.5,Win32,59.88023952,68242c07d0c0e200c6451fdd,,,,,,,,,,,422.8323,423.3318,,,423.5819,424.0652,left,0.4754,,,,,,,,,0.6,,,,,,423.3318,423.5819,424.0652,425.1656,0,118,118,154,1,,,,,,,
,,,,,,,672451c5f4e558e08242d746,682722081666f84b3e900760,2025-05-16_06h35.37.133,cuing_paradigm_dot,2024.1.5,Win32,59.88023952,68242c07d0c0e200c6451fdd,,,,,,,,,,,425.1662,425.6659,,,425.9154,426.5835,right,0.6607,,,,,,,,,0.5,,,,,,425.666,425.9154,426.5836,427.6822,0,119,119,91,1,,,,,,,
,,,,,,,672451c5f4e558e08242d746,682722081666f84b3e900760,2025-05-16_06h35.37.133,cuing_paradigm_dot,2024.1.5,Win32,59.88023952,68242c07d0c0e200c6451fdd,,,,,,,,,,,427.6827,428.1824,,,428.4333,429.0829,right,0.6343,,,,,,,,,0.55,,,,,,428.1826,428.4332,429.0829,430.1829,0,120,120,123,1,,,,,,,
,,,,,,,672451c5f4e558e08242d746,682722081666f84b3e900760,2025-05-16_06h35.37.133,cuing_paradigm_dot,2024.1.5,Win32,59.88023952,68242c07d0c0e200c6451fdd,,,,,,,,,,,430.1839,430.6836,,,430.9333,431.499,right,0.5537,,,,,,,,,0.5,,,,,,430.6836,430.9333,431.4992,432.5992,0,121,121,97,1,,,,,,,
,,,,,,,672451c5f4e558e08242d746,682722081666f84b3e900760,2025-05-16_06h35.37.133,cuing_paradigm_dot,2024.1.5,Win32,59.88023952,68242c07d0c0e200c6451fdd,,,,,,,,,,,432.5997,433.0989,,,433.3515,433.8149,left,0.4556,,,,,,,,,0.4,,,,,,433.099,433.3515,433.8149,434.9152,0,122,122,30,1,,,,,,,
,,,,,,,672451c5f4e558e08242d746,682722081666f84b3e900760,2025-05-16_06h35.37.133,cuing_paradigm_dot,2024.1.5,Win32,59.88023952,68242c07d0c0e200c6451fdd,,,,,,,,,,,434.9154,435.4148,,,435.666,436.1496,left,0.474,,,,,,,,,0.1,,,,,,435.4148,435.6659,436.1497,437.2492,0,123,123,6,1,,,,,,,
,,,,,,,672451c5f4e558e08242d746,682722081666f84b3e900760,2025-05-16_06h35.37.133,cuing_paradigm_dot,2024.1.5,Win32,59.88023952,68242c07d0c0e200c6451fdd,,,,,,,,,,,437.2498,437.7491,,,437.9996,438.3991,right,0.3914,,,,,,,,,0.6,,,,,,437.7492,437.9995,438.3992,439.4989,0,124,124,151,1,,,,,,,
,,,,,,,672451c5f4e558e08242d746,682722081666f84b3e900760,2025-05-16_06h35.37.133,cuing_paradigm_dot,2024.1.5,Win32,59.88023952,68242c07d0c0e200c6451fdd,,,,,,,,,,,439.4998,439.9989,,,440.2503,440.6317,right,0.3681,,,,,,,,,0.9,,,,,,439.999,440.2503,440.6317,441.7321,0,125,125,187,1,,,,,,,
,,,,,,,672451c5f4e558e08242d746,682722081666f84b3e900760,2025-05-16_06h35.37.133,cuing_paradigm_dot,2024.1.5,Win32,59.88023952,68242c07d0c0e200c6451fdd,,,,,,,,,,,441.733,442.2315,,,442.4816,442.8481,right,0.3526,,,,,,,,,0.9,,,,,,442.2315,442.4816,442.8481,443.9481,0,126,126,194,1,,,,,,,
,,,,,,,672451c5f4e558e08242d746,682722081666f84b3e900760,2025-05-16_06h35.37.133,cuing_paradigm_dot,2024.1.5,Win32,59.88023952,68242c07d0c0e200c6451fdd,,,,,,,,,,,443.9485,444.4478,,,444.6982,445.3868,right,0.6749,,,,,,,,,0.55,,,,,,444.4478,444.6981,445.3871,446.4818,0,127,127,127,1,,,,,,,
,,,,,,,672451c5f4e558e08242d746,682722081666f84b3e900760,2025-05-16_06h35.37.133,cuing_paradigm_dot,2024.1.5,Win32,59.88023952,68242c07d0c0e200c6451fdd,,,,,,,,,,,446.4828,446.9812,,,447.2349,447.9039,left,0.6506,,,,,,,,,0.5,,,,,,446.9813,447.2348,447.904,448.9979,0,128,128,104,1,,,,,,,
,,,,,,,672451c5f4e558e08242d746,682722081666f84b3e900760,2025-05-16_06h35.37.133,cuing_paradigm_dot,2024.1.5,Win32,59.88023952,68242c07d0c0e200c6451fdd,,,,,,,,,,,448.9984,449.5027,,,449.7522,450.0979,right,0.3386,,,,,,,,,0.9,,,,,,449.5027,449.7522,450.0979,451.1976,0,129,129,193,1,,,,,,,
,,,,,,,672451c5f4e558e08242d746,682722081666f84b3e900760,2025-05-16_06h35.37.133,cuing_paradigm_dot,2024.1.5,Win32,59.88023952,68242c07d0c0e200c6451fdd,,,,,,,,,,,451.198,451.6978,,,451.9366,452.6312,right,0.6674,,,,,,,,,0.45,,,,,,451.6979,451.9365,452.6313,453.731,0,130,130,88,1,,,,,,,
,,,,,,,672451c5f4e558e08242d746,682722081666f84b3e900760,2025-05-16_06h35.37.133,cuing_paradigm_dot,2024.1.5,Win32,59.88023952,68242c07d0c0e200c6451fdd,,,,,,,,,,,453.7318,454.2314,,,454.4865,454.9352,right,0.4308,,,,,,,,,0.55,,,,,,454.2315,454.4865,454.9353,456.0353,0,131,131,121,1,,,,,,,
,,,,,,,672451c5f4e558e08242d746,682722081666f84b3e900760,2025-05-16_06h35.37.133,cuing_paradigm_dot,2024.1.5,Win32,59.88023952,68242c07d0c0e200c6451fdd,,,,,,,,,,,456.0358,456.531,,,456.7849,457.3194,right,0.5158,,,,,,,,,0.5,,,,,,456.531,456.7849,457.3195,458.4143,0,132,132,92,1,,,,,,,
,,,,,,,672451c5f4e558e08242d746,682722081666f84b3e900760,2025-05-16_06h35.37.133,cuing_paradigm_dot,2024.1.5,Win32,59.88023952,68242c07d0c0e200c6451fdd,,,,,,,,,,,458.4148,458.914,,,459.1678,459.6206,right,0.4339,,,,,,,,,0.9,,,,,,458.914,459.1678,459.6207,460.719,0,133,133,205,1,,,,,,,
,,,,,,,672451c5f4e558e08242d746,682722081666f84b3e900760,2025-05-16_06h35.37.133,cuing_paradigm_dot,2024.1.5,Win32,59.88023952,68242c07d0c0e200c6451fdd,,,,,,,,,,,460.7198,461.2141,,,461.468,462.2645,right,0.7687,,,,,,,,,0.5,,,,,,461.2141,461.468,462.2646,463.353,0,134,134,94,1,,,,,,,
,,,,,,,672451c5f4e558e08242d746,682722081666f84b3e900760,2025-05-16_06h35.37.133,cuing_paradigm_dot,2024.1.5,Win32,59.88023952,68242c07d0c0e200c6451fdd,,,,,,,,,,,463.3535,463.8498,,,464.0977,464.6364,left,0.5167,,,,,,,,,0.4,,,,,,463.8499,464.0977,464.6364,465.735,0,135,135,56,1,,,,,,,
,,,,,,,672451c5f4e558e08242d746,682722081666f84b3e900760,2025-05-16_06h35.37.133,cuing_paradigm_dot,2024.1.5,Win32,59.88023952,68242c07d0c0e200c6451fdd,,,,,,,,,,,465.7352,466.231,,,466.4699,467.1311,right,0.6381,,,,,,,,,0.6,,,,,,466.2311,466.4699,467.1311,468.2306,0,136,136,176,1,,,,,,,
,,,,,,,672451c5f4e558e08242d746,682722081666f84b3e900760,2025-05-16_06h35.37.133,cuing_paradigm_dot,2024.1.5,Win32,59.88023952,68242c07d0c0e200c6451fdd,,,,,,,,,,,468.2312,468.7339,,,468.9858,469.4805,right,0.476,,,,,,,,,0.9,,,,,,468.734,468.9858,469.4806,470.5804,0,137,137,191,1,,,,,,,
,,,,,,,672451c5f4e558e08242d746,682722081666f84b3e900760,2025-05-16_06h35.37.133,cuing_paradigm_dot,2024.1.5,Win32,59.88023952,68242c07d0c0e200c6451fdd,,,,,,,,,,,470.581,471.081,,,471.3196,472.2639,right,0.9258,,,,,,,,,0.55,,,,,,471.0811,471.3195,472.264,473.364,0,138,138,143,1,,,,,,,
,,,,,,,672451c5f4e558e08242d746,682722081666f84b3e900760,2025-05-16_06h35.37.133,cuing_paradigm_dot,2024.1.5,Win32,59.88023952,68242c07d0c0e200c6451fdd,,,,,,,,,,,473.3646,473.8649,,,474.1185,475.6139,,,,,,,,,,,0.1,,,,,,473.865,474.1185,475.614,476.7161,0,139,139,19,1,,,,,,,
,,,,,,,672451c5f4e558e08242d746,682722081666f84b3e900760,2025-05-16_06h35.37.133,cuing_paradigm_dot,2024.1.5,Win32,59.88023952,68242c07d0c0e200c6451fdd,,,,,,,,,,,476.7164,477.2138,,,477.4518,478.947,,,,,,,,,,,0.45,,,,,,477.2139,477.4518,478.9471,480.0367,0,140,140,87,1,,,,,,,
,,,,,,,672451c5f4e558e08242d746,682722081666f84b3e900760,2025-05-16_06h35.37.133,cuing_paradigm_dot,2024.1.5,Win32,59.88023952,68242c07d0c0e200c6451fdd,,,,,,,,,,,480.0418,480.5385,,,480.9044,482.2479,right,1.3349,,,,,,,,,0.6,,,,,,480.5385,480.9043,482.2479,483.3469,0,141,141,157,1,,,,,,,
,,,,,,,672451c5f4e558e08242d746,682722081666f84b3e900760,2025-05-16_06h35.37.133,cuing_paradigm_dot,2024.1.5,Win32,59.88023952,68242c07d0c0e200c6451fdd,,,,,,,,,,,483.3472,483.8472,,,484.0973,484.565,right,0.4587,,,,,,,,,0.6,,,,,,483.8472,484.0973,484.5652,485.6649,0,142,142,172,1,,,,,,,
,,,,,,,672451c5f4e558e08242d746,682722081666f84b3e900760,2025-05-16_06h35.37.133,cuing_paradigm_dot,2024.1.5,Win32,59.88023952,68242c07d0c0e200c6451fdd,,,,,,,,,,,485.6655,486.1644,,,486.4153,486.8647,left,0.4409,,,,,,,,,0.45,,,,,,486.1644,486.4153,486.8648,487.9643,0,143,143,63,1,,,,,,,
,,,,,,,672451c5f4e558e08242d746,682722081666f84b3e900760,2025-05-16_06h35.37.133,cuing_paradigm_dot,2024.1.5,Win32,59.88023952,68242c07d0c0e200c6451fdd,,,,,,,,,,,487.9649,488.4646,,,488.7148,489.0827,left,0.3609,,,,,,,,,0.1,,,,,,488.4646,488.7147,489.0828,490.1808,0,144,144,16,1,,,,,,,
,,,,,,,672451c5f4e558e08242d746,682722081666f84b3e900760,2025-05-16_06h35.37.133,cuing_paradigm_dot,2024.1.5,Win32,59.88023952,68242c07d0c0e200c6451fdd,,,,,,,,,,,490.1814,490.681,,,490.9315,491.3642,right,0.4182,,,,,,,,,0.5,,,,,,490.681,490.9314,491.3642,492.4642,0,145,145,114,1,,,,,,,
,,,,,,,672451c5f4e558e08242d746,682722081666f84b3e900760,2025-05-16_06h35.37.133,cuing_paradigm_dot,2024.1.5,Win32,59.88023952,68242c07d0c0e200c6451fdd,,,,,,,,,,,492.4648,492.9642,,,493.215,493.532,left,0.3009,,,,,,,,,0.1,,,,,,492.9643,493.2149,493.5322,494.6299,0,146,146,7,1,,,,,,,
,,,,,,,672451c5f4e558e08242d746,682722081666f84b3e900760,2025-05-16_06h35.37.133,cuing_paradigm_dot,2024.1.5,Win32,59.88023952,68242c07d0c0e200c6451fdd,,,,,,,,,,,494.6303,495.1299,,,495.3801,495.8141,right,0.4271,,,,,,,,,0.45,,,,,,495.1299,495.3801,495.8142,496.9143,0,147,147,84,1,,,,,,,
,,,,,,,672451c5f4e558e08242d746,682722081666f84b3e900760,2025-05-16_06h35.37.133,cuing_paradigm_dot,2024.1.5,Win32,59.88023952,68242c07d0c0e200c6451fdd,,,,,,,,,,,496.9152,497.4142,,,497.6646,498.4308,left,0.7513,,,,,,,,,0.45,,,,,,497.4143,497.6645,498.431,499.5307,0,148,148,81,1,,,,,,,
,,,,,,,672451c5f4e558e08242d746,682722081666f84b3e900760,2025-05-16_06h35.37.133,cuing_paradigm_dot,2024.1.5,Win32,59.88023952,68242c07d0c0e200c6451fdd,,,,,,,,,,,499.5316,500.0306,,,500.2799,500.9144,right,0.6205,,,,,,,,,0.45,,,,,,500.0307,500.2799,500.9144,502.0137,0,149,149,86,1,,,,,,,
,,,,,,,672451c5f4e558e08242d746,682722081666f84b3e900760,2025-05-16_06h35.37.133,cuing_paradigm_dot,2024.1.5,Win32,59.88023952,68242c07d0c0e200c6451fdd,,,,,,,,,,,502.0144,502.514,,,502.7634,503.3808,right,0.6027,,,,,,,,,0.55,,,,,,502.5141,502.7634,503.3809,504.4798,0,150,150,122,1,,,,,,,
,,,,,,,672451c5f4e558e08242d746,682722081666f84b3e900760,2025-05-16_06h35.37.133,cuing_paradigm_dot,2024.1.5,Win32,59.88023952,68242c07d0c0e200c6451fdd,,,,,,,,,,,504.4801,504.9796,,,505.23,505.7136,right,0.4675,,,,,,,,,0.45,,,,,,504.9796,505.23,505.7136,506.8129,0,151,151,73,1,,,,,,,
,,,,,,,672451c5f4e558e08242d746,682722081666f84b3e900760,2025-05-16_06h35.37.133,cuing_paradigm_dot,2024.1.5,Win32,59.88023952,68242c07d0c0e200c6451fdd,,,,,,,,,,,506.8131,507.3132,,,507.5631,508.1314,left,0.5519,,,,,,,,,0.45,,,,,,507.3132,507.563,508.1314,509.2307,0,152,152,66,1,,,,,,,
,,,,,,,672451c5f4e558e08242d746,682722081666f84b3e900760,2025-05-16_06h35.37.133,cuing_paradigm_dot,2024.1.5,Win32,59.88023952,68242c07d0c0e200c6451fdd,,,,,,,,,,,509.2312,509.7317,,,509.9808,510.5465,left,0.5499,,,,,,,,,0.4,,,,,,509.7318,509.9807,510.5465,511.6467,0,153,153,40,1,,,,,,,
,,,,,,,672451c5f4e558e08242d746,682722081666f84b3e900760,2025-05-16_06h35.37.133,cuing_paradigm_dot,2024.1.5,Win32,59.88023952,68242c07d0c0e200c6451fdd,,,,,,,,,,,511.6478,512.1461,,,512.3963,512.9308,right,0.5236,,,,,,,,,0.45,,,,,,512.1461,512.3962,512.9308,514.0301,0,154,154,68,1,,,,,,,
,,,,,,,672451c5f4e558e08242d746,682722081666f84b3e900760,2025-05-16_06h35.37.133,cuing_paradigm_dot,2024.1.5,Win32,59.88023952,68242c07d0c0e200c6451fdd,,,,,,,,,,,514.0309,514.5296,,,514.7795,515.2964,left,0.5017,,,,,,,,,0.6,,,,,,514.5297,514.7795,515.2964,516.396,0,155,155,150,1,,,,,,,
,,,,,,,672451c5f4e558e08242d746,682722081666f84b3e900760,2025-05-16_06h35.37.133,cuing_paradigm_dot,2024.1.5,Win32,59.88023952,68242c07d0c0e200c6451fdd,,,,,,,,,,,516.3964,516.8961,,,517.1461,517.7966,left,0.6397,,,,,,,,,0.4,,,,,,516.8961,517.1461,517.7967,518.8959,0,156,156,42,1,,,,,,,
,,,,,,,672451c5f4e558e08242d746,682722081666f84b3e900760,2025-05-16_06h35.37.133,cuing_paradigm_dot,2024.1.5,Win32,59.88023952,68242c07d0c0e200c6451fdd,,,,,,,,,,,518.8961,519.3969,,,519.6461,519.9459,right,0.284,,,,,,,,,0.9,,,,,,519.3969,519.6461,519.946,521.0458,0,157,157,182,1,,,,,,,
,,,,,,,672451c5f4e558e08242d746,682722081666f84b3e900760,2025-05-16_06h35.37.133,cuing_paradigm_dot,2024.1.5,Win32,59.88023952,68242c07d0c0e200c6451fdd,,,,,,,,,,,521.0461,521.5464,,,521.7961,522.1127,left,0.3006,,,,,,,,,0.45,,,,,,521.5465,521.796,522.1127,523.2129,0,158,158,74,1,,,,,,,
,,,,,,,672451c5f4e558e08242d746,682722081666f84b3e900760,2025-05-16_06h35.37.133,cuing_paradigm_dot,2024.1.5,Win32,59.88023952,68242c07d0c0e200c6451fdd,,,,,,,,,,,523.2133,523.7129,,,523.9627,524.4626,right,0.4928,,,,,,,,,0.55,,,,,,523.7129,523.9625,524.4626,525.575,0,159,159,137,1,,,,,,,
,,,,,,,672451c5f4e558e08242d746,682722081666f84b3e900760,2025-05-16_06h35.37.133,cuing_paradigm_dot,2024.1.5,Win32,59.88023952,68242c07d0c0e200c6451fdd,,,,,,,,,,,525.5773,526.0793,,,526.3138,526.9168,left,0.5811,,,,,,,,,0.55,,,,,,526.0795,526.3136,526.9168,528.0126,0,160,160,141,1,,,,,,,
,,,,,,,672451c5f4e558e08242d746,682722081666f84b3e900760,2025-05-16_06h35.37.133,cuing_paradigm_dot,2024.1.5,Win32,59.88023952,68242c07d0c0e200c6451fdd,,,,,,,,,,,528.0131,528.5122,,,528.7697,529.2796,left,0.4841,,,,,,,,,0.4,,,,,,528.5122,528.7696,529.2797,530.3822,0,161,161,38,1,,,,,,,
,,,,,,,672451c5f4e558e08242d746,682722081666f84b3e900760,2025-05-16_06h35.37.133,cuing_paradigm_dot,2024.1.5,Win32,59.88023952,68242c07d0c0e200c6451fdd,,,,,,,,,,,530.3827,530.8788,,,531.1171,531.5628,left,0.417,,,,,,,,,0.45,,,,,,530.879,531.1171,531.5629,532.6622,0,162,162,67,1,,,,,,,
,,,,,,,672451c5f4e558e08242d746,682722081666f84b3e900760,2025-05-16_06h35.37.133,cuing_paradigm_dot,2024.1.5,Win32,59.88023952,68242c07d0c0e200c6451fdd,,,,,,,,,,,532.6627,533.1624,,,533.4168,533.846,right,0.4059,,,,,,,,,0.6,,,,,,533.1626,533.4168,533.846,534.9454,0,163,163,177,1,,,,,,,
,,,,,,,672451c5f4e558e08242d746,682722081666f84b3e900760,2025-05-16_06h35.37.133,cuing_paradigm_dot,2024.1.5,Win32,59.88023952,68242c07d0c0e200c6451fdd,,,,,,,,,,,534.9461,535.4459,,,535.6845,536.2678,left,0.5667,,,,,,,,,0.4,,,,,,535.4461,535.6844,536.2678,537.3633,0,164,164,52,1,,,,,,,
,,,,,,,672451c5f4e558e08242d746,682722081666f84b3e900760,2025-05-16_06h35.37.133,cuing_paradigm_dot,2024.1.5,Win32,59.88023952,68242c07d0c0e200c6451fdd,,,,,,,,,,,537.3647,537.8667,,,538.1165,538.3956,right,0.254,,,,,,,,,0.9,,,,,,537.8667,538.1165,538.3957,539.4954,0,165,165,188,1,,,,,,,
,,,,,,,672451c5f4e558e08242d746,682722081666f84b3e900760,2025-05-16_06h35.37.133,cuing_paradigm_dot,2024.1.5,Win32,59.88023952,68242c07d0c0e200c6451fdd,,,,,,,,,,,539.496,539.9956,,,540.2515,540.5788,left,0.3054,,,,,,,,,0.5,,,,,,539.9956,540.2514,540.5789,541.6795,0,166,166,105,1,,,,,,,
,,,,,,,672451c5f4e558e08242d746,682722081666f84b3e900760,2025-05-16_06h35.37.133,cuing_paradigm_dot,2024.1.5,Win32,59.88023952,68242c07d0c0e200c6451fdd,,,,,,,,,,,541.6806,542.1822,,,542.4344,542.7172,left,0.2647,,,,,,,,,0.1,,,,,,542.1822,542.4343,542.7172,543.8122,0,167,167,14,1,,,,,,,
,,,,,,,672451c5f4e558e08242d746,682722081666f84b3e900760,2025-05-16_06h35.37.133,cuing_paradigm_dot,2024.1.5,Win32,59.88023952,68242c07d0c0e200c6451fdd,,,,,,,,,,,543.8128,544.3126,,,544.5686,545.1676,right,0.5815,,,,,,,,,0.5,,,,,,544.3127,544.5686,545.1676,546.2625,0,168,168,100,1,,,,,,,
,,,,,,,672451c5f4e558e08242d746,682722081666f84b3e900760,2025-05-16_06h35.37.133,cuing_paradigm_dot,2024.1.5,Win32,59.88023952,68242c07d0c0e200c6451fdd,,,,,,,,,,,546.2636,546.7628,,,547.0183,547.5462,right,0.5079,,,,,,,,,0.45,,,,,,546.7629,547.0182,547.5464,548.6457,0,169,169,75,1,,,,,,,
,,,,,,,672451c5f4e558e08242d746,682722081666f84b3e900760,2025-05-16_06h35.37.133,cuing_paradigm_dot,2024.1.5,Win32,59.88023952,68242c07d0c0e200c6451fdd,,,,,,,,,,,548.6467,549.1452,,,549.3955,549.6631,left,0.2395,,,,,,,,,0.1,,,,,,549.1452,549.3954,549.6633,550.7625,0,170,170,26,1,,,,,,,
,,,,,,,672451c5f4e558e08242d746,682722081666f84b3e900760,2025-05-16_06h35.37.133,cuing_paradigm_dot,2024.1.5,Win32,59.88023952,68242c07d0c0e200c6451fdd,,,,,,,,,,,550.7635,551.2629,,,551.5132,551.8458,right,0.3169,,,,,,,,,0.9,,,,,,551.2629,551.5131,551.8459,552.9455,0,171,171,195,1,,,,,,,
,,,,,,,672451c5f4e558e08242d746,682722081666f84b3e900760,2025-05-16_06h35.37.133,cuing_paradigm_dot,2024.1.5,Win32,59.88023952,68242c07d0c0e200c6451fdd,,,,,,,,,,,552.9461,553.4453,,,553.6961,554.0617,right,0.3492,,,,,,,,,0.9,,,,,,553.4453,553.6961,554.0617,555.1615,0,172,172,184,1,,,,,,,
,,,,,,,672451c5f4e558e08242d746,682722081666f84b3e900760,2025-05-16_06h35.37.133,cuing_paradigm_dot,2024.1.5,Win32,59.88023952,68242c07d0c0e200c6451fdd,,,,,,,,,,,555.1618,555.6619,,,555.9127,556.429,right,0.4986,,,,,,,,,0.5,,,,,,555.662,555.9127,556.4291,557.5288,0,173,173,117,1,,,,,,,
,,,,,,,672451c5f4e558e08242d746,682722081666f84b3e900760,2025-05-16_06h35.37.133,cuing_paradigm_dot,2024.1.5,Win32,59.88023952,68242c07d0c0e200c6451fdd,,,,,,,,,,,557.5295,558.0288,,,558.2795,558.7954,right,0.5045,,,,,,,,,0.55,,,,,,558.0289,558.2795,558.7955,559.8952,0,174,174,136,1,,,,,,,
,,,,,,,672451c5f4e558e08242d746,682722081666f84b3e900760,2025-05-16_06h35.37.133,cuing_paradigm_dot,2024.1.5,Win32,59.88023952,68242c07d0c0e200c6451fdd,,,,,,,,,,,559.896,560.3954,,,560.6457,561.1947,right,0.5402,,,,,,,,,0.45,,,,,,560.3954,560.6457,561.1948,562.2947,0,175,175,69,1,,,,,,,
,,,,,,,672451c5f4e558e08242d746,682722081666f84b3e900760,2025-05-16_06h35.37.133,cuing_paradigm_dot,2024.1.5,Win32,59.88023952,68242c07d0c0e200c6451fdd,,,,,,,,,,,562.2949,562.7946,,,563.0449,563.7285,right,0.6673,,,,,,,,,0.45,,,,,,562.7947,563.0449,563.7285,564.8285,0,176,176,71,1,,,,,,,
,,,,,,,672451c5f4e558e08242d746,682722081666f84b3e900760,2025-05-16_06h35.37.133,cuing_paradigm_dot,2024.1.5,Win32,59.88023952,68242c07d0c0e200c6451fdd,,,,,,,,,,,564.8292,565.3281,,,565.5781,566.0614,left,0.4689,,,,,,,,,0.1,,,,,,565.3281,565.5781,566.0614,567.1613,0,177,177,22,1,,,,,,,
,,,,,,,672451c5f4e558e08242d746,682722081666f84b3e900760,2025-05-16_06h35.37.133,cuing_paradigm_dot,2024.1.5,Win32,59.88023952,68242c07d0c0e200c6451fdd,,,,,,,,,,,567.1616,567.6613,,,567.9114,568.4618,left,0.5371,,,,,,,,,0.1,,,,,,567.6613,567.9114,568.462,569.5612,0,178,178,18,1,,,,,,,
,,,,,,,672451c5f4e558e08242d746,682722081666f84b3e900760,2025-05-16_06h35.37.133,cuing_paradigm_dot,2024.1.5,Win32,59.88023952,68242c07d0c0e200c6451fdd,,,,,,,,,,,569.5615,570.0611,,,570.3113,571.811,,,,,,,,,,,0.55,,,,,,570.0612,570.3113,571.811,572.9111,0,179,179,134,1,,,,,,,
,,,,,,,672451c5f4e558e08242d746,682722081666f84b3e900760,2025-05-16_06h35.37.133,cuing_paradigm_dot,2024.1.5,Win32,59.88023952,68242c07d0c0e200c6451fdd,,,,,,,,,,,572.9114,573.4116,,,573.662,574.2778,right,0.5969,,,,,,,,,0.55,,,,,,573.4117,573.6618,574.2778,575.3778,0,180,180,140,1,,,,,,,
,,,,,,,672451c5f4e558e08242d746,682722081666f84b3e900760,2025-05-16_06h35.37.133,cuing_paradigm_dot,2024.1.5,Win32,59.88023952,68242c07d0c0e200c6451fdd,,,,,,,,,,,575.3781,575.8779,,,576.1289,576.4443,right,0.3072,,,,,,,,,0.9,,,,,,575.8779,576.1289,576.4443,577.5443,0,181,181,209,1,,,,,,,
,,,,,,,672451c5f4e558e08242d746,682722081666f84b3e900760,2025-05-16_06h35.37.133,cuing_paradigm_dot,2024.1.5,Win32,59.88023952,68242c07d0c0e200c6451fdd,,,,,,,,,,,577.5446,578.0443,,,578.2949,578.6618,right,0.3501,,,,,,,,,0.5,,,,,,578.0443,578.2949,578.6619,579.7615,0,182,182,111,1,,,,,,,
,,,,,,,672451c5f4e558e08242d746,682722081666f84b3e900760,2025-05-16_06h35.37.133,cuing_paradigm_dot,2024.1.5,Win32,59.88023952,68242c07d0c0e200c6451fdd,,,,,,,,,,,579.7623,580.2608,,,580.5111,580.8279,right,0.3023,,,,,,,,,0.6,,,,,,580.2608,580.511,580.8279,581.9274,0,183,183,158,1,,,,,,,
,,,,,,,672451c5f4e558e08242d746,682722081666f84b3e900760,2025-05-16_06h35.37.133,cuing_paradigm_dot,2024.1.5,Win32,59.88023952,68242c07d0c0e200c6451fdd,,,,,,,,,,,581.9278,582.428,,,582.6778,583.3282,left,0.6354,,,,,,,,,0.5,,,,,,582.428,582.6777,583.3283,584.4275,0,184,184,90,1,,,,,,,
,,,,,,,672451c5f4e558e08242d746,682722081666f84b3e900760,2025-05-16_06h35.37.133,cuing_paradigm_dot,2024.1.5,Win32,59.88023952,68242c07d0c0e200c6451fdd,,,,,,,,,,,584.4277,584.9275,,,585.1775,585.6107,right,0.4248,,,,,,,,,0.55,,,,,,584.9275,585.1775,585.6107,586.7107,0,185,185,124,1,,,,,,,
,,,,,,,672451c5f4e558e08242d746,682722081666f84b3e900760,2025-05-16_06h35.37.133,cuing_paradigm_dot,2024.1.5,Win32,59.88023952,68242c07d0c0e200c6451fdd,,,,,,,,,,,586.711,587.2108,,,587.4619,587.794,left,0.3202,,,,,,,,,0.4,,,,,,587.2109,587.4619,587.7941,588.894,0,186,186,32,1,,,,,,,
,,,,,,,672451c5f4e558e08242d746,682722081666f84b3e900760,2025-05-16_06h35.37.133,cuing_paradigm_dot,2024.1.5,Win32,59.88023952,68242c07d0c0e200c6451fdd,,,,,,,,,,,588.8944,589.394,,,589.6452,590.644,left,0.9888,,,,,,,,,0.6,,,,,,589.394,589.6451,590.6441,591.7439,0,187,187,170,1,,,,,,,
,,,,,,,672451c5f4e558e08242d746,682722081666f84b3e900760,2025-05-16_06h35.37.133,cuing_paradigm_dot,2024.1.5,Win32,59.88023952,68242c07d0c0e200c6451fdd,,,,,,,,,,,591.7442,592.2445,,,592.4941,592.8614,right,0.3534,,,,,,,,,0.5,,,,,,592.2446,592.4941,592.8614,593.9611,0,188,188,102,1,,,,,,,
,,,,,,,672451c5f4e558e08242d746,682722081666f84b3e900760,2025-05-16_06h35.37.133,cuing_paradigm_dot,2024.1.5,Win32,59.88023952,68242c07d0c0e200c6451fdd,,,,,,,,,,,593.9619,594.4612,,,594.7118,595.0779,left,0.3554,,,,,,,,,0.45,,,,,,594.4613,594.7117,595.078,596.1776,0,189,189,65,1,,,,,,,
,,,,,,,672451c5f4e558e08242d746,682722081666f84b3e900760,2025-05-16_06h35.37.133,cuing_paradigm_dot,2024.1.5,Win32,59.88023952,68242c07d0c0e200c6451fdd,,,,,,,,,,,596.1782,596.6775,,,596.9281,597.2948,right,0.3506,,,,,,,,,0.55,,,,,,596.6775,596.9281,597.2948,598.3944,0,190,190,126,1,,,,,,,
,,,,,,,672451c5f4e558e08242d746,682722081666f84b3e900760,2025-05-16_06h35.37.133,cuing_paradigm_dot,2024.1.5,Win32,59.88023952,68242c07d0c0e200c6451fdd,,,,,,,,,,,598.3951,598.8937,,,599.1438,599.6604,right,0.5084,,,,,,,,,0.55,,,,,,598.8938,599.1438,599.6605,600.761,0,191,191,147,1,,,,,,,
,,,,,,,672451c5f4e558e08242d746,682722081666f84b3e900760,2025-05-16_06h35.37.133,cuing_paradigm_dot,2024.1.5,Win32,59.88023952,68242c07d0c0e200c6451fdd,,,,,,,,,,,600.7618,601.2609,,,601.5116,601.8945,right,0.3672,,,,,,,,,0.55,,,,,,601.261,601.5116,601.8946,602.9943,0,192,192,149,1,,,,,,,
,,,,,,,672451c5f4e558e08242d746,682722081666f84b3e900760,2025-05-16_06h35.37.133,cuing_paradigm_dot,2024.1.5,Win32,59.88023952,68242c07d0c0e200c6451fdd,,,,,,,,,,,602.9952,603.4936,,,603.7448,604.1944,right,0.4345,,,,,,,,,0.55,,,,,,603.4936,603.7447,604.1945,605.2943,0,193,193,145,1,,,,,,,
,,,,,,,672451c5f4e558e08242d746,682722081666f84b3e900760,2025-05-16_06h35.37.133,cuing_paradigm_dot,2024.1.5,Win32,59.88023952,68242c07d0c0e200c6451fdd,,,,,,,,,,,605.2951,605.7942,,,606.044,606.6274,left,0.5685,,,,,,,,,0.5,,,,,,605.7943,606.044,606.6275,607.7268,0,194,194,107,1,,,,,,,
,,,,,,,672451c5f4e558e08242d746,682722081666f84b3e900760,2025-05-16_06h35.37.133,cuing_paradigm_dot,2024.1.5,Win32,59.88023952,68242c07d0c0e200c6451fdd,,,,,,,,,,,607.7271,608.2278,,,608.4779,609.0438,left,0.5527,,,,,,,,,0.4,,,,,,608.2278,608.4779,609.044,610.1438,0,195,195,46,1,,,,,,,
,,,,,,,672451c5f4e558e08242d746,682722081666f84b3e900760,2025-05-16_06h35.37.133,cuing_paradigm_dot,2024.1.5,Win32,59.88023952,68242c07d0c0e200c6451fdd,,,,,,,,,,,610.1444,610.6433,,,610.8938,611.2609,right,0.3588,,,,,,,,,0.6,,,,,,610.6434,610.8937,611.2611,612.3606,0,196,196,160,1,,,,,,,
,,,,,,,672451c5f4e558e08242d746,682722081666f84b3e900760,2025-05-16_06h35.37.133,cuing_paradigm_dot,2024.1.5,Win32,59.88023952,68242c07d0c0e200c6451fdd,,,,,,,,,,,612.3614,612.8608,,,613.1113,613.3938,right,0.2673,,,,,,,,,0.45,,,,,,612.8608,613.1112,613.394,614.4932,0,197,197,83,1,,,,,,,
,,,,,,,672451c5f4e558e08242d746,682722081666f84b3e900760,2025-05-16_06h35.37.133,cuing_paradigm_dot,2024.1.5,Win32,59.88023952,68242c07d0c0e200c6451fdd,,,,,,,,,,,614.4936,614.9933,,,615.2436,615.7268,right,0.4669,,,,,,,,,0.4,,,,,,614.9934,615.2436,615.7269,616.8271,0,198,198,39,1,,,,,,,
,,,,,,,672451c5f4e558e08242d746,682722081666f84b3e900760,2025-05-16_06h35.37.133,cuing_paradigm_dot,2024.1.5,Win32,59.88023952,68242c07d0c0e200c6451fdd,,,,,,,,,,,616.8279,617.3271,,,617.5778,618.1439,left,0.5494,,,,,,,,,0.5,,,,,,617.3271,617.5777,618.1441,619.2434,0,199,199,106,1,,,,,,,
,,,,,,,672451c5f4e558e08242d746,682722081666f84b3e900760,2025-05-16_06h35.37.133,cuing_paradigm_dot,2024.1.5,Win32,59.88023952,68242c07d0c0e200c6451fdd,,,,,,,,,,,619.244,619.7432,,,619.9932,620.2098,left,0.21,,,,,,,,,0.45,,,,,,619.7432,619.9932,620.2099,621.3103,0,200,200,70,1,,,,,,,
,,,,,,,672451c5f4e558e08242d746,682722081666f84b3e900760,2025-05-16_06h35.37.133,cuing_paradigm_dot,2024.1.5,Win32,59.88023952,68242c07d0c0e200c6451fdd,,,,,,,,,,,621.3108,621.8102,,,622.061,622.4271,left,0.3506,,,,,,,,,0.5,,,,,,621.8103,622.0609,622.4272,623.5262,0,201,201,118,1,,,,,,,
,,,,,,,672451c5f4e558e08242d746,682722081666f84b3e900760,2025-05-16_06h35.37.133,cuing_paradigm_dot,2024.1.5,Win32,59.88023952,68242c07d0c0e200c6451fdd,,,,,,,,,,,623.5265,624.0264,,,624.2766,624.7097,left,0.4202,,,,,,,,,0.6,,,,,,624.0264,624.2765,624.7097,625.8102,0,202,202,153,1,,,,,,,
,,,,,,,672451c5f4e558e08242d746,682722081666f84b3e900760,2025-05-16_06h35.37.133,cuing_paradigm_dot,2024.1.5,Win32,59.88023952,68242c07d0c0e200c6451fdd,,,,,,,,,,,625.8109,626.3099,,,626.5599,626.8937,left,0.3258,,,,,,,,,0.45,,,,,,626.3099,626.5599,626.8939,627.9934,0,203,203,64,1,,,,,,,
,,,,,,,672451c5f4e558e08242d746,682722081666f84b3e900760,2025-05-16_06h35.37.133,cuing_paradigm_dot,2024.1.5,Win32,59.88023952,68242c07d0c0e200c6451fdd,,,,,,,,,,,627.9944,628.4937,,,628.7435,629.0597,left,0.2996,,,,,,,,,0.1,,,,,,628.4938,628.7435,629.0599,630.1596,0,204,204,12,1,,,,,,,
,,,,,,,672451c5f4e558e08242d746,682722081666f84b3e900760,2025-05-16_06h35.37.133,cuing_paradigm_dot,2024.1.5,Win32,59.88023952,68242c07d0c0e200c6451fdd,,,,,,,,,,,630.16,630.6595,,,630.9097,631.143,left,0.2193,,,,,,,,,0.1,,,,,,630.6595,630.9097,631.143,632.2433,0,205,205,21,1,,,,,,,
,,,,,,,672451c5f4e558e08242d746,682722081666f84b3e900760,2025-05-16_06h35.37.133,cuing_paradigm_dot,2024.1.5,Win32,59.88023952,68242c07d0c0e200c6451fdd,,,,,,,,,,,632.2442,632.7436,,,632.9939,633.4269,right,0.4181,,,,,,,,,0.5,,,,,,632.7437,632.9939,633.4271,634.5266,0,206,206,103,1,,,,,,,
,,,,,,,672451c5f4e558e08242d746,682722081666f84b3e900760,2025-05-16_06h35.37.133,cuing_paradigm_dot,2024.1.5,Win32,59.88023952,68242c07d0c0e200c6451fdd,,,,,,,,,,,634.5273,635.0261,,,635.2779,635.7933,left,0.508,,,,,,,,,0.45,,,,,,635.0261,635.2779,635.7934,636.8929,0,207,207,78,1,,,,,,,
,,,,,,,672451c5f4e558e08242d746,682722081666f84b3e900760,2025-05-16_06h35.37.133,cuing_paradigm_dot,2024.1.5,Win32,59.88023952,68242c07d0c0e200c6451fdd,,,,,,,,,,,636.8931,637.3928,,,637.6429,639.143,,,,,,,,,,,0.45,,,,,,637.3929,637.6428,639.1432,640.2429,0,208,208,72,1,,,,,,,
,,,,,,,672451c5f4e558e08242d746,682722081666f84b3e900760,2025-05-16_06h35.37.133,cuing_paradigm_dot,2024.1.5,Win32,59.88023952,68242c07d0c0e200c6451fdd,,,,,,,,,,,640.2434,640.7426,,,640.9939,641.4926,left,0.4815,,,,,,,,,0.4,,,,,,640.7427,640.9938,641.4926,642.5925,0,209,209,50,1,,,,,,,
,,,,,,,672451c5f4e558e08242d746,682722081666f84b3e900760,2025-05-16_06h35.37.133,cuing_paradigm_dot,2024.1.5,Win32,59.88023952,68242c07d0c0e200c6451fdd,,,,,,,,,,,,,,,,,,,,,,,,,,,,,,,,,,,,,,,,,,642.5929,702.5969,,,,,
,,,,,,,672451c5f4e558e08242d746,682722081666f84b3e900760,2025-05-16_06h35.37.133,cuing_paradigm_dot,2024.1.5,Win32,59.88023952,68242c07d0c0e200c6451fdd,,,,,,,,,,,702.6164,703.0954,,,703.3425,704.608,left,1.2354,,,,,,,,,0.45,,,,,,703.0955,703.3424,704.6082,705.7137,,,,,,,,0,0,0,70,1
,,,,,,,672451c5f4e558e08242d746,682722081666f84b3e900760,2025-05-16_06h35.37.133,cuing_paradigm_dot,2024.1.5,Win32,59.88023952,68242c07d0c0e200c6451fdd,,,,,,,,,,,705.7147,706.2075,,,706.4455,707.0754,left,0.6108,,,,,,,,,0.45,,,,,,706.2076,706.4455,707.0755,708.175,,,,,,,,0,1,1,80,1
,,,,,,,672451c5f4e558e08242d746,682722081666f84b3e900760,2025-05-16_06h35.37.133,cuing_paradigm_dot,2024.1.5,Win32,59.88023952,68242c07d0c0e200c6451fdd,,,,,,,,,,,708.1764,708.678,,,708.9289,709.5247,right,0.5696,,,,,,,,,0.6,,,,,,708.6781,708.9289,709.5249,710.6294,,,,,,,,0,2,2,151,1
,,,,,,,672451c5f4e558e08242d746,682722081666f84b3e900760,2025-05-16_06h35.37.133,cuing_paradigm_dot,2024.1.5,Win32,59.88023952,68242c07d0c0e200c6451fdd,,,,,,,,,,,710.6301,711.124,,,711.3621,711.8626,right,0.4828,,,,,,,,,0.55,,,,,,711.1241,711.3621,711.8627,712.9574,,,,,,,,0,3,3,140,1
,,,,,,,672451c5f4e558e08242d746,682722081666f84b3e900760,2025-05-16_06h35.37.133,cuing_paradigm_dot,2024.1.5,Win32,59.88023952,68242c07d0c0e200c6451fdd,,,,,,,,,,,712.958,713.4597,,,713.7132,714.0305,right,0.3,,,,,,,,,0.6,,,,,,713.4597,713.7132,714.0305,715.1248,,,,,,,,0,4,4,168,1
,,,,,,,672451c5f4e558e08242d746,682722081666f84b3e900760,2025-05-16_06h35.37.133,cuing_paradigm_dot,2024.1.5,Win32,59.88023952,68242c07d0c0e200c6451fdd,,,,,,,,,,,715.1259,715.6244,,,715.8813,716.1634,right,0.2653,,,,,,,,,0.9,,,,,,715.6247,715.8813,716.1634,717.2638,,,,,,,,0,5,5,193,1
,,,,,,,672451c5f4e558e08242d746,682722081666f84b3e900760,2025-05-16_06h35.37.133,cuing_paradigm_dot,2024.1.5,Win32,59.88023952,68242c07d0c0e200c6451fdd,,,,,,,,,,,717.2644,717.7636,,,718.0127,718.5755,right,0.5403,,,,,,,,,0.6,,,,,,717.7636,718.0126,718.5756,719.6739,,,,,,,,0,6,6,162,1
,,,,,,,672451c5f4e558e08242d746,682722081666f84b3e900760,2025-05-16_06h35.37.133,cuing_paradigm_dot,2024.1.5,Win32,59.88023952,68242c07d0c0e200c6451fdd,,,,,,,,,,,719.6745,720.174,,,720.4287,720.7152,right,0.2684,,,,,,,,,0.9,,,,,,720.1741,720.4287,720.7153,721.8083,,,,,,,,0,7,7,183,1
,,,,,,,672451c5f4e558e08242d746,682722081666f84b3e900760,2025-05-16_06h35.37.133,cuing_paradigm_dot,2024.1.5,Win32,59.88023952,68242c07d0c0e200c6451fdd,,,,,,,,,,,721.8098,722.3072,,,722.5466,723.0089,right,0.4371,,,,,,,,,0.4,,,,,,722.3073,722.5465,723.0091,724.1078,,,,,,,,0,8,8,35,1
,,,,,,,672451c5f4e558e08242d746,682722081666f84b3e900760,2025-05-16_06h35.37.133,cuing_paradigm_dot,2024.1.5,Win32,59.88023952,68242c07d0c0e200c6451fdd,,,,,,,,,,,724.109,724.6119,,,724.8595,725.1322,left,0.2515,,,,,,,,,0.4,,,,,,724.6121,724.8595,725.1323,726.224,,,,,,,,0,9,9,59,1
,,,,,,,672451c5f4e558e08242d746,682722081666f84b3e900760,2025-05-16_06h35.37.133,cuing_paradigm_dot,2024.1.5,Win32,59.88023952,68242c07d0c0e200c6451fdd,,,,,,,,,,,726.2247,726.7128,,,726.9624,727.2247,left,0.2355,,,,,,,,,0.1,,,,,,726.7128,726.9624,727.2248,728.3283,,,,,,,,0,10,10,27,1
,,,,,,,672451c5f4e558e08242d746,682722081666f84b3e900760,2025-05-16_06h35.37.133,cuing_paradigm_dot,2024.1.5,Win32,59.88023952,68242c07d0c0e200c6451fdd,,,,,,,,,,,728.3289,728.8246,,,729.0637,729.3465,right,0.2656,,,,,,,,,0.9,,,,,,728.8246,729.0636,729.3466,730.4411,,,,,,,,0,11,11,196,1
,,,,,,,672451c5f4e558e08242d746,682722081666f84b3e900760,2025-05-16_06h35.37.133,cuing_paradigm_dot,2024.1.5,Win32,59.88023952,68242c07d0c0e200c6451fdd,,,,,,,,,,,730.4425,730.9411,,,731.1956,731.5627,right,0.348,,,,,,,,,0.55,,,,,,730.9412,731.1955,731.5628,732.6579,,,,,,,,0,12,12,131,1
,,,,,,,672451c5f4e558e08242d746,682722081666f84b3e900760,2025-05-16_06h35.37.133,cuing_paradigm_dot,2024.1.5,Win32,59.88023952,68242c07d0c0e200c6451fdd,,,,,,,,,,,732.6596,733.157,,,733.4132,733.8445,right,0.4155,,,,,,,,,0.45,,,,,,733.1571,733.4131,733.8445,734.9402,,,,,,,,0,13,13,83,1
,,,,,,,672451c5f4e558e08242d746,682722081666f84b3e900760,2025-05-16_06h35.37.133,cuing_paradigm_dot,2024.1.5,Win32,59.88023952,68242c07d0c0e200c6451fdd,,,,,,,,,,,734.941,735.4442,,,735.6959,736.2406,right,0.5195,,,,,,,,,0.45,,,,,,735.4442,735.6959,736.2408,737.3403,,,,,,,,0,14,14,68,1
,,,,,,,672451c5f4e558e08242d746,682722081666f84b3e900760,2025-05-16_06h35.37.133,cuing_paradigm_dot,2024.1.5,Win32,59.88023952,68242c07d0c0e200c6451fdd,,,,,,,,,,,737.3415,737.8409,,,738.0805,738.824,right,0.7258,,,,,,,,,0.55,,,,,,737.841,738.0805,738.8242,739.9241,,,,,,,,0,15,15,120,1
,,,,,,,672451c5f4e558e08242d746,682722081666f84b3e900760,2025-05-16_06h35.37.133,cuing_paradigm_dot,2024.1.5,Win32,59.88023952,68242c07d0c0e200c6451fdd,,,,,,,,,,,739.9256,740.4241,,,740.6787,741.4138,left,0.728,,,,,,,,,0.55,,,,,,740.4241,740.6786,741.4139,742.5074,,,,,,,,0,16,16,141,1
,,,,,,,672451c5f4e558e08242d746,682722081666f84b3e900760,2025-05-16_06h35.37.133,cuing_paradigm_dot,2024.1.5,Win32,59.88023952,68242c07d0c0e200c6451fdd,,,,,,,,,,,742.5087,743.0067,,,743.2612,743.74,left,0.4601,,,,,,,,,0.6,,,,,,743.0067,743.2611,743.74,744.8424,,,,,,,,0,17,17,166,1
,,,,,,,672451c5f4e558e08242d746,682722081666f84b3e900760,2025-05-16_06h35.37.133,cuing_paradigm_dot,2024.1.5,Win32,59.88023952,68242c07d0c0e200c6451fdd,,,,,,,,,,,744.8427,745.34,,,745.5961,746.0763,right,0.4643,,,,,,,,,0.6,,,,,,745.3401,745.5961,746.0763,747.1731,,,,,,,,0,18,18,174,1
,,,,,,,672451c5f4e558e08242d746,682722081666f84b3e900760,2025-05-16_06h35.37.133,cuing_paradigm_dot,2024.1.5,Win32,59.88023952,68242c07d0c0e200c6451fdd,,,,,,,,,,,747.1737,747.674,,,747.9272,748.3066,right,0.3516,,,,,,,,,0.9,,,,,,747.6742,747.9272,748.3067,749.4107,,,,,,,,0,19,19,206,1
,,,,,,,672451c5f4e558e08242d746,682722081666f84b3e900760,2025-05-16_06h35.37.133,cuing_paradigm_dot,2024.1.5,Win32,59.88023952,68242c07d0c0e200c6451fdd,,,,,,,,,,,749.411,749.9068,,,750.1451,750.7129,left,0.5501,,,,,,,,,0.45,,,,,,749.9069,750.145,750.713,751.81,,,,,,,,0,20,20,65,1
,,,,,,,672451c5f4e558e08242d746,682722081666f84b3e900760,2025-05-16_06h35.37.133,cuing_paradigm_dot,2024.1.5,Win32,59.88023952,68242c07d0c0e200c6451fdd,,,,,,,,,,,751.8108,752.3087,,,752.5608,753.6568,right,1.0674,,,,,,,,,0.9,,,,,,752.3087,752.5607,753.6568,754.7563,,,,,,,,0,21,21,208,1
,,,,,,,672451c5f4e558e08242d746,682722081666f84b3e900760,2025-05-16_06h35.37.133,cuing_paradigm_dot,2024.1.5,Win32,59.88023952,68242c07d0c0e200c6451fdd,,,,,,,,,,,754.7568,755.2587,,,755.5117,757.0062,,,,,,,,,,,0.5,,,,,,755.2588,755.5117,757.0062,758.1085,,,,,,,,0,22,22,92,1
,,,,,,,672451c5f4e558e08242d746,682722081666f84b3e900760,2025-05-16_06h35.37.133,cuing_paradigm_dot,2024.1.5,Win32,59.88023952,68242c07d0c0e200c6451fdd,,,,,,,,,,,758.1088,758.607,,,758.8605,759.3901,right,0.5053,,,,,,,,,0.5,,,,,,758.6071,758.8605,759.3903,760.4896,,,,,,,,0,23,23,94,1
,,,,,,,672451c5f4e558e08242d746,682722081666f84b3e900760,2025-05-16_06h35.37.133,cuing_paradigm_dot,2024.1.5,Win32,59.88023952,68242c07d0c0e200c6451fdd,,,,,,,,,,,760.4902,760.9908,,,761.2422,762.7396,,,,,,,,,,,0.5,,,,,,760.991,761.2422,762.7396,763.8393,,,,,,,,0,24,24,109,1
,,,,,,,672451c5f4e558e08242d746,682722081666f84b3e900760,2025-05-16_06h35.37.133,cuing_paradigm_dot,2024.1.5,Win32,59.88023952,68242c07d0c0e200c6451fdd,,,,,,,,,,,763.8402,764.3394,,,764.5773,766.0749,,,,,,,,,,,0.1,,,,,,764.3395,764.5773,766.0749,767.1749,,,,,,,,0,25,25,1,1
,,,,,,,672451c5f4e558e08242d746,682722081666f84b3e900760,2025-05-16_06h35.37.133,cuing_paradigm_dot,2024.1.5,Win32,59.88023952,68242c07d0c0e200c6451fdd,,,,,,,,,,,767.1751,767.6738,,,767.9299,769.0902,right,1.1399,,,,,,,,,0.45,,,,,,767.6739,767.9299,769.0904,770.1899,,,,,,,,0,26,26,71,1
,,,,,,,672451c5f4e558e08242d746,682722081666f84b3e900760,2025-05-16_06h35.37.133,cuing_paradigm_dot,2024.1.5,Win32,59.88023952,68242c07d0c0e200c6451fdd,,,,,,,,,,,770.1912,770.6893,,,770.9282,771.4779,left,0.5334,,,,,,,,,0.4,,,,,,770.6894,770.9282,771.478,772.5725,,,,,,,,0,27,27,56,1
,,,,,,,672451c5f4e558e08242d746,682722081666f84b3e900760,2025-05-16_06h35.37.133,cuing_paradigm_dot,2024.1.5,Win32,59.88023952,68242c07d0c0e200c6451fdd,,,,,,,,,,,772.5729,773.0726,,,773.3109,773.7905,right,0.4524,,,,,,,,,0.6,,,,,,773.0727,773.3108,773.7907,774.895,,,,,,,,0,28,28,179,1
,,,,,,,672451c5f4e558e08242d746,682722081666f84b3e900760,2025-05-16_06h35.37.133,cuing_paradigm_dot,2024.1.5,Win32,59.88023952,68242c07d0c0e200c6451fdd,,,,,,,,,,,774.896,775.3895,,,775.6433,776.0093,right,0.348,,,,,,,,,0.9,,,,,,775.3895,775.6432,776.0093,777.1058,,,,,,,,0,29,29,189,1
,,,,,,,672451c5f4e558e08242d746,682722081666f84b3e900760,2025-05-16_06h35.37.133,cuing_paradigm_dot,2024.1.5,Win32,59.88023952,68242c07d0c0e200c6451fdd,,,,,,,,,,,777.1061,777.6058,,,777.8568,778.2224,left,0.3518,,,,,,,,,0.4,,,,,,777.6058,777.8567,778.2224,779.3224,,,,,,,,0,30,30,42,1
,,,,,,,672451c5f4e558e08242d746,682722081666f84b3e900760,2025-05-16_06h35.37.133,cuing_paradigm_dot,2024.1.5,Win32,59.88023952,68242c07d0c0e200c6451fdd,,,,,,,,,,,779.3227,779.8228,,,780.0725,780.639,left,0.5566,,,,,,,,,0.45,,,,,,779.8228,780.0725,780.6391,781.7395,,,,,,,,0,31,31,88,1
,,,,,,,672451c5f4e558e08242d746,682722081666f84b3e900760,2025-05-16_06h35.37.133,cuing_paradigm_dot,2024.1.5,Win32,59.88023952,68242c07d0c0e200c6451fdd,,,,,,,,,,,781.7405,782.2389,,,782.4915,782.8123,left,0.3008,,,,,,,,,0.1,,,,,,782.239,782.4915,782.8125,783.9054,,,,,,,,0,32,32,14,1
,,,,,,,672451c5f4e558e08242d746,682722081666f84b3e900760,2025-05-16_06h35.37.133,cuing_paradigm_dot,2024.1.5,Win32,59.88023952,68242c07d0c0e200c6451fdd,,,,,,,,,,,783.906,784.4058,,,784.6595,785.2136,left,0.5352,,,,,,,,,0.6,,,,,,784.4059,784.6594,785.2136,786.3066,,,,,,,,0,33,33,173,1
,,,,,,,672451c5f4e558e08242d746,682722081666f84b3e900760,2025-05-16_06h35.37.133,cuing_paradigm_dot,2024.1.5,Win32,59.88023952,68242c07d0c0e200c6451fdd,,,,,,,,,,,786.3082,786.8057,,,787.0604,787.4284,left,0.3507,,,,,,,,,0.1,,,,,,786.8057,787.0604,787.4284,788.5241,,,,,,,,0,34,34,23,1
,,,,,,,672451c5f4e558e08242d746,682722081666f84b3e900760,2025-05-16_06h35.37.133,cuing_paradigm_dot,2024.1.5,Win32,59.88023952,68242c07d0c0e200c6451fdd,,,,,,,,,,,788.5253,789.0237,,,789.2629,789.6617,right,0.3822,,,,,,,,,0.9,,,,,,789.0238,789.2629,789.6618,790.7588,,,,,,,,0,35,35,207,1
,,,,,,,672451c5f4e558e08242d746,682722081666f84b3e900760,2025-05-16_06h35.37.133,cuing_paradigm_dot,2024.1.5,Win32,59.88023952,68242c07d0c0e200c6451fdd,,,,,,,,,,,790.7593,791.2562,,,791.4945,791.979,left,0.4664,,,,,,,,,0.55,,,,,,791.2562,791.4942,791.9791,793.0722,,,,,,,,0,36,36,127,1
,,,,,,,672451c5f4e558e08242d746,682722081666f84b3e900760,2025-05-16_06h35.37.133,cuing_paradigm_dot,2024.1.5,Win32,59.88023952,68242c07d0c0e200c6451fdd,,,,,,,,,,,793.0728,793.5789,,,793.8228,794.2584,right,0.4147,,,,,,,,,0.55,,,,,,793.579,793.8228,794.2585,795.3607,,,,,,,,0,37,37,125,1
,,,,,,,672451c5f4e558e08242d746,682722081666f84b3e900760,2025-05-16_06h35.37.133,cuing_paradigm_dot,2024.1.5,Win32,59.88023952,68242c07d0c0e200c6451fdd,,,,,,,,,,,795.361,795.8563,,,796.1095,796.4062,right,0.2759,,,,,,,,,0.9,,,,,,795.8565,796.1094,796.4065,797.4951,,,,,,,,0,38,38,203,1
,,,,,,,672451c5f4e558e08242d746,682722081666f84b3e900760,2025-05-16_06h35.37.133,cuing_paradigm_dot,2024.1.5,Win32,59.88023952,68242c07d0c0e200c6451fdd,,,,,,,,,,,797.4957,797.9896,,,798.2426,798.7454,right,0.4835,,,,,,,,,0.5,,,,,,797.9898,798.2426,798.7454,799.8455,,,,,,,,0,39,39,96,1
,,,,,,,672451c5f4e558e08242d746,682722081666f84b3e900760,2025-05-16_06h35.37.133,cuing_paradigm_dot,2024.1.5,Win32,59.88023952,68242c07d0c0e200c6451fdd,,,,,,,,,,,799.8461,800.3421,,,800.5943,801.0789,right,0.4665,,,,,,,,,0.55,,,,,,800.3421,800.5943,801.0791,802.1778,,,,,,,,0,40,40,126,1
,,,,,,,672451c5f4e558e08242d746,682722081666f84b3e900760,2025-05-16_06h35.37.133,cuing_paradigm_dot,2024.1.5,Win32,59.88023952,68242c07d0c0e200c6451fdd,,,,,,,,,,,802.1784,802.6753,,,802.9267,803.2951,right,0.35,,,,,,,,,0.1,,,,,,802.6753,802.9267,803.2951,804.3885,,,,,,,,0,41,41,17,1
,,,,,,,672451c5f4e558e08242d746,682722081666f84b3e900760,2025-05-16_06h35.37.133,cuing_paradigm_dot,2024.1.5,Win32,59.88023952,68242c07d0c0e200c6451fdd,,,,,,,,,,,804.3892,804.8912,,,805.1387,805.7554,left,0.589,,,,,,,,,0.5,,,,,,804.8913,805.1387,805.7554,806.8549,,,,,,,,0,42,42,104,1
,,,,,,,672451c5f4e558e08242d746,682722081666f84b3e900760,2025-05-16_06h35.37.133,cuing_paradigm_dot,2024.1.5,Win32,59.88023952,68242c07d0c0e200c6451fdd,,,,,,,,,,,806.8557,807.3551,,,807.6093,807.9934,right,0.3666,,,,,,,,,0.55,,,,,,807.3552,807.6093,807.9934,809.0883,,,,,,,,0,43,43,148,1
,,,,,,,672451c5f4e558e08242d746,682722081666f84b3e900760,2025-05-16_06h35.37.133,cuing_paradigm_dot,2024.1.5,Win32,59.88023952,68242c07d0c0e200c6451fdd,,,,,,,,,,,809.0888,809.5882,,,809.8426,810.2108,right,0.3501,,,,,,,,,0.55,,,,,,809.5882,809.8426,810.2109,811.3093,,,,,,,,0,44,44,145,1
,,,,,,,672451c5f4e558e08242d746,682722081666f84b3e900760,2025-05-16_06h35.37.133,cuing_paradigm_dot,2024.1.5,Win32,59.88023952,68242c07d0c0e200c6451fdd,,,,,,,,,,,811.3099,811.8047,,,812.0613,812.4611,left,0.3828,,,,,,,,,0.1,,,,,,811.8047,812.0613,812.4612,813.5558,,,,,,,,0,45,45,7,1
,,,,,,,672451c5f4e558e08242d746,682722081666f84b3e900760,2025-05-16_06h35.37.133,cuing_paradigm_dot,2024.1.5,Win32,59.88023952,68242c07d0c0e200c6451fdd,,,,,,,,,,,813.5572,814.0574,,,814.3115,815.1049,right,0.7751,,,,,,,,,0.4,,,,,,814.0574,814.3113,815.105,816.2046,,,,,,,,0,46,46,38,1
,,,,,,,672451c5f4e558e08242d746,682722081666f84b3e900760,2025-05-16_06h35.37.133,cuing_paradigm_dot,2024.1.5,Win32,59.88023952,68242c07d0c0e200c6451fdd,,,,,,,,,,,816.2052,816.7058,,,816.9451,817.4547,right,0.486,,,,,,,,,0.9,,,,,,816.7059,816.9451,817.4548,818.5547,,,,,,,,0,47,47,204,1
,,,,,,,672451c5f4e558e08242d746,682722081666f84b3e900760,2025-05-16_06h35.37.133,cuing_paradigm_dot,2024.1.5,Win32,59.88023952,68242c07d0c0e200c6451fdd,,,,,,,,,,,818.5553,819.0556,,,819.3085,819.5381,left,0.207,,,,,,,,,0.4,,,,,,819.0557,819.3084,819.5382,820.638,,,,,,,,0,48,48,47,1
,,,,,,,672451c5f4e558e08242d746,682722081666f84b3e900760,2025-05-16_06h35.37.133,cuing_paradigm_dot,2024.1.5,Win32,59.88023952,68242c07d0c0e200c6451fdd,,,,,,,,,,,820.6386,821.1388,,,821.3918,821.9577,left,0.5479,,,,,,,,,0.5,,,,,,821.139,821.3917,821.9577,823.0545,,,,,,,,0,49,49,101,1
,,,,,,,672451c5f4e558e08242d746,682722081666f84b3e900760,2025-05-16_06h35.37.133,cuing_paradigm_dot,2024.1.5,Win32,59.88023952,68242c07d0c0e200c6451fdd,,,,,,,,,,,823.055,823.5545,,,823.8099,824.0379,right,0.2063,,,,,,,,,0.9,,,,,,823.5545,823.8099,824.038,825.1381,,,,,,,,0,50,50,186,1
,,,,,,,672451c5f4e558e08242d746,682722081666f84b3e900760,2025-05-16_06h35.37.133,cuing_paradigm_dot,2024.1.5,Win32,59.88023952,68242c07d0c0e200c6451fdd,,,,,,,,,,,825.1387,825.6555,,,825.8835,826.4881,left,0.5855,,,,,,,,,0.45,,,,,,825.6556,825.8834,826.4882,827.5885,,,,,,,,0,51,51,84,1
,,,,,,,672451c5f4e558e08242d746,682722081666f84b3e900760,2025-05-16_06h35.37.133,cuing_paradigm_dot,2024.1.5,Win32,59.88023952,68242c07d0c0e200c6451fdd,,,,,,,,,,,827.5897,828.0876,,,828.3403,828.8218,left,0.4508,,,,,,,,,0.5,,,,,,828.0876,828.3403,828.8218,829.922,,,,,,,,0,52,52,97,1
,,,,,,,672451c5f4e558e08242d746,682722081666f84b3e900760,2025-05-16_06h35.37.133,cuing_paradigm_dot,2024.1.5,Win32,59.88023952,68242c07d0c0e200c6451fdd,,,,,,,,,,,829.9235,830.4209,,,830.6766,831.3754,left,0.6827,,,,,,,,,0.1,,,,,,830.4211,830.6766,831.3755,832.471,,,,,,,,0,53,53,6,1
,,,,,,,672451c5f4e558e08242d746,682722081666f84b3e900760,2025-05-16_06h35.37.133,cuing_paradigm_dot,2024.1.5,Win32,59.88023952,68242c07d0c0e200c6451fdd,,,,,,,,,,,832.4716,832.9753,,,833.2213,833.7071,left,0.4641,,,,,,,,,0.45,,,,,,832.9754,833.2212,833.7071,834.8067,,,,,,,,0,54,54,87,1
,,,,,,,672451c5f4e558e08242d746,682722081666f84b3e900760,2025-05-16_06h35.37.133,cuing_paradigm_dot,2024.1.5,Win32,59.88023952,68242c07d0c0e200c6451fdd,,,,,,,,,,,834.807,835.3044,,,835.5448,835.9218,right,0.3539,,,,,,,,,0.9,,,,,,835.3044,835.5447,835.922,837.0262,,,,,,,,0,55,55,182,1
,,,,,,,672451c5f4e558e08242d746,682722081666f84b3e900760,2025-05-16_06h35.37.133,cuing_paradigm_dot,2024.1.5,Win32,59.88023952,68242c07d0c0e200c6451fdd,,,,,,,,,,,837.0266,837.5233,,,837.7749,838.3047,left,0.5143,,,,,,,,,0.4,,,,,,837.5233,837.7749,838.3048,839.4041,,,,,,,,0,56,56,37,1
,,,,,,,672451c5f4e558e08242d746,682722081666f84b3e900760,2025-05-16_06h35.37.133,cuing_paradigm_dot,2024.1.5,Win32,59.88023952,68242c07d0c0e200c6451fdd,,,,,,,,,,,839.4047,839.904,,,840.1587,840.7782,left,0.6016,,,,,,,,,0.1,,,,,,839.9041,840.1587,840.7783,841.8706,,,,,,,,0,57,57,8,1
,,,,,,,672451c5f4e558e08242d746,682722081666f84b3e900760,2025-05-16_06h35.37.133,cuing_paradigm_dot,2024.1.5,Win32,59.88023952,68242c07d0c0e200c6451fdd,,,,,,,,,,,841.8712,842.3743,,,842.6225,843.2218,right,0.5688,,,,,,,,,0.45,,,,,,842.3743,842.6223,843.222,844.3258,,,,,,,,0,58,58,81,1
,,,,,,,672451c5f4e558e08242d746,682722081666f84b3e900760,2025-05-16_06h35.37.133,cuing_paradigm_dot,2024.1.5,Win32,59.88023952,68242c07d0c0e200c6451fdd,,,,,,,,,,,844.3264,844.8242,,,845.0722,846.5712,,,,,,,,,,,0.4,,,,,,844.8243,845.0721,846.5714,847.6709,,,,,,,,0,59,59,34,1
,,,,,,,672451c5f4e558e08242d746,682722081666f84b3e900760,2025-05-16_06h35.37.133,cuing_paradigm_dot,2024.1.5,Win32,59.88023952,68242c07d0c0e200c6451fdd,,,,,,,,,,,847.6724,848.1751,,,848.4266,849.9216,,,,,,,,,,,0.5,,,,,,848.1751,848.4265,849.9217,851.0213,,,,,,,,0,60,60,90,1
,,,,,,,672451c5f4e558e08242d746,682722081666f84b3e900760,2025-05-16_06h35.37.133,cuing_paradigm_dot,2024.1.5,Win32,59.88023952,68242c07d0c0e200c6451fdd,,,,,,,,,,,851.0227,851.522,,,851.7758,851.9921,left,0.1974,,,,,,,,,0.6,,,,,,851.5221,851.7758,851.9922,853.0896,,,,,,,,0,61,61,171,1
,,,,,,,672451c5f4e558e08242d746,682722081666f84b3e900760,2025-05-16_06h35.37.133,cuing_paradigm_dot,2024.1.5,Win32,59.88023952,68242c07d0c0e200c6451fdd,,,,,,,,,,,853.0899,853.5878,,,853.8421,854.2205,left,0.3528,,,,,,,,,0.4,,,,,,853.5879,853.8421,854.2206,855.3202,,,,,,,,0,62,62,52,1
,,,,,,,672451c5f4e558e08242d746,682722081666f84b3e900760,2025-05-16_06h35.37.133,cuing_paradigm_dot,2024.1.5,Win32,59.88023952,68242c07d0c0e200c6451fdd,,,,,,,,,,,855.3208,855.8211,,,856.076,856.6286,left,0.5344,,,,,,,,,0.4,,,,,,855.8213,856.0759,856.6287,857.721,,,,,,,,0,63,63,31,1
,,,,,,,672451c5f4e558e08242d746,682722081666f84b3e900760,2025-05-16_06h35.37.133,cuing_paradigm_dot,2024.1.5,Win32,59.88023952,68242c07d0c0e200c6451fdd,,,,,,,,,,,857.722,858.2202,,,858.473,859.8615,right,1.3685,,,,,,,,,0.5,,,,,,858.2203,858.473,859.8616,860.9572,,,,,,,,0,64,64,117,1
,,,,,,,672451c5f4e558e08242d746,682722081666f84b3e900760,2025-05-16_06h35.37.133,cuing_paradigm_dot,2024.1.5,Win32,59.88023952,68242c07d0c0e200c6451fdd,,,,,,,,,,,860.9577,861.4536,,,861.7073,863.2034,,,,,,,,,,,0.4,,,,,,861.4536,861.7072,863.2035,864.3035,,,,,,,,0,65,65,46,1
,,,,,,,672451c5f4e558e08242d746,682722081666f84b3e900760,2025-05-16_06h35.37.133,cuing_paradigm_dot,2024.1.5,Win32,59.88023952,68242c07d0c0e200c6451fdd,,,,,,,,,,,864.3043,864.7867,,,865.0369,865.7535,left,0.7004,,,,,,,,,0.4,,,,,,864.7867,865.0369,865.7535,866.8533,,,,,,,,0,66,66,48,1
,,,,,,,672451c5f4e558e08242d746,682722081666f84b3e900760,2025-05-16_06h35.37.133,cuing_paradigm_dot,2024.1.5,Win32,59.88023952,68242c07d0c0e200c6451fdd,,,,,,,,,,,866.8537,867.3542,,,867.6046,867.9539,right,0.3324,,,,,,,,,0.9,,,,,,867.3542,867.6046,867.9539,869.0532,,,,,,,,0,67,67,209,1
,,,,,,,672451c5f4e558e08242d746,682722081666f84b3e900760,2025-05-16_06h35.37.133,cuing_paradigm_dot,2024.1.5,Win32,59.88023952,68242c07d0c0e200c6451fdd,,,,,,,,,,,869.0535,869.5533,,,869.8035,870.3201,left,0.5073,,,,,,,,,0.5,,,,,,869.5533,869.8035,870.3201,871.4206,,,,,,,,0,68,68,91,1
,,,,,,,672451c5f4e558e08242d746,682722081666f84b3e900760,2025-05-16_06h35.37.133,cuing_paradigm_dot,2024.1.5,Win32,59.88023952,68242c07d0c0e200c6451fdd,,,,,,,,,,,871.4213,871.9199,,,872.1702,872.8376,right,0.6545,,,,,,,,,0.5,,,,,,871.9199,872.1702,872.8376,873.9372,,,,,,,,0,69,69,95,1
,,,,,,,672451c5f4e558e08242d746,682722081666f84b3e900760,2025-05-16_06h35.37.133,cuing_paradigm_dot,2024.1.5,Win32,59.88023952,68242c07d0c0e200c6451fdd,,,,,,,,,,,873.938,874.4364,,,874.6866,875.0874,right,0.3866,,,,,,,,,0.6,,,,,,874.4364,874.6865,875.0875,876.1874,,,,,,,,0,70,70,164,1
,,,,,,,672451c5f4e558e08242d746,682722081666f84b3e900760,2025-05-16_06h35.37.133,cuing_paradigm_dot,2024.1.5,Win32,59.88023952,68242c07d0c0e200c6451fdd,,,,,,,,,,,876.1882,876.6864,,,876.9366,877.52,left,0.5676,,,,,,,,,0.55,,,,,,876.6864,876.9365,877.52,878.6198,,,,,,,,0,71,71,129,1
,,,,,,,672451c5f4e558e08242d746,682722081666f84b3e900760,2025-05-16_06h35.37.133,cuing_paradigm_dot,2024.1.5,Win32,59.88023952,68242c07d0c0e200c6451fdd,,,,,,,,,,,878.6202,879.1198,,,879.3698,879.8031,left,0.4236,,,,,,,,,0.45,,,,,,879.1198,879.3698,879.8031,880.9038,,,,,,,,0,72,72,66,1
,,,,,,,672451c5f4e558e08242d746,682722081666f84b3e900760,2025-05-16_06h35.37.133,cuing_paradigm_dot,2024.1.5,Win32,59.88023952,68242c07d0c0e200c6451fdd,,,,,,,,,,,880.9047,881.403,,,881.6534,881.9205,right,0.2525,,,,,,,,,0.9,,,,,,881.403,881.6534,881.9205,883.0206,,,,,,,,0,73,73,185,1
,,,,,,,672451c5f4e558e08242d746,682722081666f84b3e900760,2025-05-16_06h35.37.133,cuing_paradigm_dot,2024.1.5,Win32,59.88023952,68242c07d0c0e200c6451fdd,,,,,,,,,,,883.0215,883.5195,,,883.7699,884.6029,right,0.8236,,,,,,,,,0.6,,,,,,883.5195,883.7698,884.603,885.704,,,,,,,,0,74,74,153,1
,,,,,,,672451c5f4e558e08242d746,682722081666f84b3e900760,2025-05-16_06h35.37.133,cuing_paradigm_dot,2024.1.5,Win32,59.88023952,68242c07d0c0e200c6451fdd,,,,,,,,,,,885.7049,886.2028,,,886.4531,887.0871,left,0.6206,,,,,,,,,0.5,,,,,,886.2029,886.453,887.0871,888.1865,,,,,,,,0,75,75,118,1
,,,,,,,672451c5f4e558e08242d746,682722081666f84b3e900760,2025-05-16_06h35.37.133,cuing_paradigm_dot,2024.1.5,Win32,59.88023952,68242c07d0c0e200c6451fdd,,,,,,,,,,,888.1872,888.6861,,,888.9372,890.4369,,,,,,,,,,,0.55,,,,,,888.6861,888.9371,890.437,891.5368,,,,,,,,0,76,76,134,1
,,,,,,,672451c5f4e558e08242d746,682722081666f84b3e900760,2025-05-16_06h35.37.133,cuing_paradigm_dot,2024.1.5,Win32,59.88023952,68242c07d0c0e200c6451fdd,,,,,,,,,,,891.5374,892.036,,,892.2862,893.6706,left,1.37,,,,,,,,,0.1,,,,,,892.0361,892.2862,893.6707,894.77,,,,,,,,0,77,77,25,1
,,,,,,,672451c5f4e558e08242d746,682722081666f84b3e900760,2025-05-16_06h35.37.133,cuing_paradigm_dot,2024.1.5,Win32,59.88023952,68242c07d0c0e200c6451fdd,,,,,,,,,,,894.7711,895.2702,,,895.5216,895.854,left,0.3226,,,,,,,,,0.4,,,,,,895.2703,895.5214,895.854,896.9532,,,,,,,,0,78,78,49,1
,,,,,,,672451c5f4e558e08242d746,682722081666f84b3e900760,2025-05-16_06h35.37.133,cuing_paradigm_dot,2024.1.5,Win32,59.88023952,68242c07d0c0e200c6451fdd,,,,,,,,,,,896.9538,897.4534,,,897.7047,898.0198,left,0.3066,,,,,,,,,0.45,,,,,,897.4535,897.7046,898.0199,899.1193,,,,,,,,0,79,79,86,1
,,,,,,,672451c5f4e558e08242d746,682722081666f84b3e900760,2025-05-16_06h35.37.133,cuing_paradigm_dot,2024.1.5,Win32,59.88023952,68242c07d0c0e200c6451fdd,,,,,,,,,,,899.1196,899.6191,,,899.8694,900.1693,left,0.283,,,,,,,,,0.1,,,,,,899.6191,899.8693,900.1694,901.2699,,,,,,,,0,80,80,22,1
,,,,,,,672451c5f4e558e08242d746,682722081666f84b3e900760,2025-05-16_06h35.37.133,cuing_paradigm_dot,2024.1.5,Win32,59.88023952,68242c07d0c0e200c6451fdd,,,,,,,,,,,901.2705,901.7692,,,902.0205,902.4694,right,0.4328,,,,,,,,,0.6,,,,,,901.7693,902.0204,902.4694,903.5702,,,,,,,,0,81,81,158,1
,,,,,,,672451c5f4e558e08242d746,682722081666f84b3e900760,2025-05-16_06h35.37.133,cuing_paradigm_dot,2024.1.5,Win32,59.88023952,68242c07d0c0e200c6451fdd,,,,,,,,,,,903.5709,904.0699,,,904.3205,904.9208,left,0.5848,,,,,,,,,0.5,,,,,,904.07,904.3205,904.921,906.02,,,,,,,,0,82,82,102,1
,,,,,,,672451c5f4e558e08242d746,682722081666f84b3e900760,2025-05-16_06h35.37.133,cuing_paradigm_dot,2024.1.5,Win32,59.88023952,68242c07d0c0e200c6451fdd,,,,,,,,,,,906.0208,906.5199,,,906.7708,907.1026,left,0.3177,,,,,,,,,0.55,,,,,,906.52,906.7708,907.1027,908.204,,,,,,,,0,83,83,121,1
,,,,,,,672451c5f4e558e08242d746,682722081666f84b3e900760,2025-05-16_06h35.37.133,cuing_paradigm_dot,2024.1.5,Win32,59.88023952,68242c07d0c0e200c6451fdd,,,,,,,,,,,908.2047,908.7028,,,908.9528,909.3533,left,0.3861,,,,,,,,,0.45,,,,,,908.7028,908.9528,909.3535,910.4531,,,,,,,,0,84,84,82,1
,,,,,,,672451c5f4e558e08242d746,682722081666f84b3e900760,2025-05-16_06h35.37.133,cuing_paradigm_dot,2024.1.5,Win32,59.88023952,68242c07d0c0e200c6451fdd,,,,,,,,,,,910.4536,910.9535,,,911.2042,911.5199,left,0.3055,,,,,,,,,0.1,,,,,,910.9535,911.2042,911.5199,912.6187,,,,,,,,0,85,85,26,1
,,,,,,,672451c5f4e558e08242d746,682722081666f84b3e900760,2025-05-16_06h35.37.133,cuing_paradigm_dot,2024.1.5,Win32,59.88023952,68242c07d0c0e200c6451fdd,,,,,,,,,,,912.6189,913.122,,,913.3712,914.2356,left,0.8481,,,,,,,,,0.45,,,,,,913.1221,913.3711,914.2356,915.3359,,,,,,,,0,86,86,62,1
,,,,,,,672451c5f4e558e08242d746,682722081666f84b3e900760,2025-05-16_06h35.37.133,cuing_paradigm_dot,2024.1.5,Win32,59.88023952,68242c07d0c0e200c6451fdd,,,,,,,,,,,915.3363,915.8364,,,916.0869,916.9864,right,0.8849,,,,,,,,,0.5,,,,,,915.8365,916.0868,916.9865,918.0853,,,,,,,,0,87,87,99,1
,,,,,,,672451c5f4e558e08242d746,682722081666f84b3e900760,2025-05-16_06h35.37.133,cuing_paradigm_dot,2024.1.5,Win32,59.88023952,68242c07d0c0e200c6451fdd,,,,,,,,,,,918.0856,918.5852,,,918.836,919.4187,right,0.5665,,,,,,,,,0.55,,,,,,918.5852,918.836,919.4188,920.5195,,,,,,,,0,88,88,123,1
,,,,,,,672451c5f4e558e08242d746,682722081666f84b3e900760,2025-05-16_06h35.37.133,cuing_paradigm_dot,2024.1.5,Win32,59.88023952,68242c07d0c0e200c6451fdd,,,,,,,,,,,920.5205,921.0196,,,921.2703,921.8685,right,0.5817,,,,,,,,,0.9,,,,,,921.0196,921.2703,921.8686,922.9689,,,,,,,,0,89,89,194,1
,,,,,,,672451c5f4e558e08242d746,682722081666f84b3e900760,2025-05-16_06h35.37.133,cuing_paradigm_dot,2024.1.5,Win32,59.88023952,68242c07d0c0e200c6451fdd,,,,,,,,,,,922.9694,923.4685,,,923.7187,924.4355,right,0.7077,,,,,,,,,0.4,,,,,,923.4685,923.7187,924.4356,925.5351,,,,,,,,0,90,90,36,1
,,,,,,,672451c5f4e558e08242d746,682722081666f84b3e900760,2025-05-16_06h35.37.133,cuing_paradigm_dot,2024.1.5,Win32,59.88023952,68242c07d0c0e200c6451fdd,,,,,,,,,,,925.5354,926.0351,,,926.2864,926.7519,left,0.4492,,,,,,,,,0.45,,,,,,926.0351,926.2864,926.752,927.8519,,,,,,,,0,91,91,75,1
,,,,,,,672451c5f4e558e08242d746,682722081666f84b3e900760,2025-05-16_06h35.37.133,cuing_paradigm_dot,2024.1.5,Win32,59.88023952,68242c07d0c0e200c6451fdd,,,,,,,,,,,927.8523,928.352,,,928.6018,929.1517,right,0.5387,,,,,,,,,0.6,,,,,,928.3521,928.6018,929.1517,930.2517,,,,,,,,0,92,92,159,1
,,,,,,,672451c5f4e558e08242d746,682722081666f84b3e900760,2025-05-16_06h35.37.133,cuing_paradigm_dot,2024.1.5,Win32,59.88023952,68242c07d0c0e200c6451fdd,,,,,,,,,,,930.252,930.7516,,,931.0022,931.3198,left,0.3102,,,,,,,,,0.4,,,,,,930.7517,931.0021,931.3199,932.4184,,,,,,,,0,93,93,41,1
,,,,,,,672451c5f4e558e08242d746,682722081666f84b3e900760,2025-05-16_06h35.37.133,cuing_paradigm_dot,2024.1.5,Win32,59.88023952,68242c07d0c0e200c6451fdd,,,,,,,,,,,932.4187,932.919,,,933.1702,933.8184,left,0.6318,,,,,,,,,0.55,,,,,,932.919,933.1701,933.8184,934.9181,,,,,,,,0,94,94,128,1
,,,,,,,672451c5f4e558e08242d746,682722081666f84b3e900760,2025-05-16_06h35.37.133,cuing_paradigm_dot,2024.1.5,Win32,59.88023952,68242c07d0c0e200c6451fdd,,,,,,,,,,,934.9183,935.4182,,,935.6697,936.0693,left,0.3886,,,,,,,,,0.1,,,,,,935.4183,935.6697,936.0694,937.1691,,,,,,,,0,95,95,11,1
,,,,,,,672451c5f4e558e08242d746,682722081666f84b3e900760,2025-05-16_06h35.37.133,cuing_paradigm_dot,2024.1.5,Win32,59.88023952,68242c07d0c0e200c6451fdd,,,,,,,,,,,937.1699,937.6681,,,937.9185,938.2514,right,0.3173,,,,,,,,,0.9,,,,,,937.6681,937.9185,938.2514,939.3519,,,,,,,,0,96,96,181,1
,,,,,,,672451c5f4e558e08242d746,682722081666f84b3e900760,2025-05-16_06h35.37.133,cuing_paradigm_dot,2024.1.5,Win32,59.88023952,68242c07d0c0e200c6451fdd,,,,,,,,,,,939.3524,939.8514,,,940.1017,940.436,left,0.3187,,,,,,,,,0.5,,,,,,939.8514,940.1017,940.4361,941.5356,,,,,,,,0,97,97,116,1
,,,,,,,672451c5f4e558e08242d746,682722081666f84b3e900760,2025-05-16_06h35.37.133,cuing_paradigm_dot,2024.1.5,Win32,59.88023952,68242c07d0c0e200c6451fdd,,,,,,,,,,,941.5363,942.0348,,,942.2851,942.5858,left,0.2867,,,,,,,,,0.4,,,,,,942.0348,942.285,942.5861,943.6856,,,,,,,,0,98,98,33,1
,,,,,,,672451c5f4e558e08242d746,682722081666f84b3e900760,2025-05-16_06h35.37.133,cuing_paradigm_dot,2024.1.5,Win32,59.88023952,68242c07d0c0e200c6451fdd,,,,,,,,,,,943.6861,944.1846,,,944.4347,944.8847,right,0.4408,,,,,,,,,0.55,,,,,,944.1847,944.4347,944.8848,945.9846,,,,,,,,0,99,99,130,1
,,,,,,,672451c5f4e558e08242d746,682722081666f84b3e900760,2025-05-16_06h35.37.133,cuing_paradigm_dot,2024.1.5,Win32,59.88023952,68242c07d0c0e200c6451fdd,,,,,,,,,,,945.9849,946.4854,,,946.7363,947.418,right,0.6691,,,,,,,,,0.55,,,,,,946.4855,946.7362,947.4181,948.5178,,,,,,,,0,100,100,137,1
,,,,,,,672451c5f4e558e08242d746,682722081666f84b3e900760,2025-05-16_06h35.37.133,cuing_paradigm_dot,2024.1.5,Win32,59.88023952,68242c07d0c0e200c6451fdd,,,,,,,,,,,948.5181,949.0181,,,949.268,949.902,right,0.6179,,,,,,,,,0.55,,,,,,949.0181,949.268,949.9021,951.0021,,,,,,,,0,101,101,122,1
,,,,,,,672451c5f4e558e08242d746,682722081666f84b3e900760,2025-05-16_06h35.37.133,cuing_paradigm_dot,2024.1.5,Win32,59.88023952,68242c07d0c0e200c6451fdd,,,,,,,,,,,951.0028,951.5012,,,951.7512,952.4857,right,0.7221,,,,,,,,,0.55,,,,,,951.5012,951.7512,952.4857,953.5855,,,,,,,,0,102,102,144,1
,,,,,,,672451c5f4e558e08242d746,682722081666f84b3e900760,2025-05-16_06h35.37.133,cuing_paradigm_dot,2024.1.5,Win32,59.88023952,68242c07d0c0e200c6451fdd,,,,,,,,,,,953.5862,954.0844,,,954.3354,954.8204,right,0.4787,,,,,,,,,0.6,,,,,,954.0844,954.3354,954.8206,955.9177,,,,,,,,0,103,103,172,1
,,,,,,,672451c5f4e558e08242d746,682722081666f84b3e900760,2025-05-16_06h35.37.133,cuing_paradigm_dot,2024.1.5,Win32,59.88023952,68242c07d0c0e200c6451fdd,,,,,,,,,,,955.9181,956.4178,,,956.6689,956.9525,left,0.2685,,,,,,,,,0.1,,,,,,956.4178,956.6689,956.9526,958.0529,,,,,,,,0,104,104,9,1
,,,,,,,672451c5f4e558e08242d746,682722081666f84b3e900760,2025-05-16_06h35.37.133,cuing_paradigm_dot,2024.1.5,Win32,59.88023952,68242c07d0c0e200c6451fdd,,,,,,,,,,,958.0536,958.5508,,,958.8011,959.2177,left,0.4009,,,,,,,,,0.45,,,,,,958.5508,958.801,959.2177,960.3178,,,,,,,,0,105,105,79,1
,,,,,,,672451c5f4e558e08242d746,682722081666f84b3e900760,2025-05-16_06h35.37.133,cuing_paradigm_dot,2024.1.5,Win32,59.88023952,68242c07d0c0e200c6451fdd,,,,,,,,,,,960.3182,960.8176,,,961.0676,961.8516,right,0.769,,,,,,,,,0.5,,,,,,960.8176,961.0676,961.8516,962.9521,,,,,,,,0,106,106,98,1
,,,,,,,672451c5f4e558e08242d746,682722081666f84b3e900760,2025-05-16_06h35.37.133,cuing_paradigm_dot,2024.1.5,Win32,59.88023952,68242c07d0c0e200c6451fdd,,,,,,,,,,,962.9528,963.4508,,,963.7021,964.218,left,0.5011,,,,,,,,,0.45,,,,,,963.4508,963.702,964.2181,965.3183,,,,,,,,0,107,107,60,1
,,,,,,,672451c5f4e558e08242d746,682722081666f84b3e900760,2025-05-16_06h35.37.133,cuing_paradigm_dot,2024.1.5,Win32,59.88023952,68242c07d0c0e200c6451fdd,,,,,,,,,,,965.319,965.8174,,,966.0679,966.5353,right,0.461,,,,,,,,,0.55,,,,,,965.8175,966.0679,966.5355,967.634,,,,,,,,0,108,108,146,1
,,,,,,,672451c5f4e558e08242d746,682722081666f84b3e900760,2025-05-16_06h35.37.133,cuing_paradigm_dot,2024.1.5,Win32,59.88023952,68242c07d0c0e200c6451fdd,,,,,,,,,,,967.6343,968.134,,,968.3846,968.8016,left,0.4092,,,,,,,,,0.1,,,,,,968.1341,968.3845,968.8017,969.9017,,,,,,,,0,109,109,20,1
,,,,,,,672451c5f4e558e08242d746,682722081666f84b3e900760,2025-05-16_06h35.37.133,cuing_paradigm_dot,2024.1.5,Win32,59.88023952,68242c07d0c0e200c6451fdd,,,,,,,,,,,969.9024,970.4015,,,970.6523,970.9185,left,0.2501,,,,,,,,,0.1,,,,,,970.4016,970.6523,970.9186,972.0174,,,,,,,,0,110,110,21,1
,,,,,,,672451c5f4e558e08242d746,682722081666f84b3e900760,2025-05-16_06h35.37.133,cuing_paradigm_dot,2024.1.5,Win32,59.88023952,68242c07d0c0e200c6451fdd,,,,,,,,,,,972.0177,972.5181,,,972.7681,973.0352,right,0.2594,,,,,,,,,0.9,,,,,,972.5181,972.7681,973.0353,974.1337,,,,,,,,0,111,111,180,1
,,,,,,,672451c5f4e558e08242d746,682722081666f84b3e900760,2025-05-16_06h35.37.133,cuing_paradigm_dot,2024.1.5,Win32,59.88023952,68242c07d0c0e200c6451fdd,,,,,,,,,,,974.134,974.6338,,,974.884,975.2172,left,0.3176,,,,,,,,,0.1,,,,,,974.6338,974.884,975.2172,976.3181,,,,,,,,0,112,112,24,1
,,,,,,,672451c5f4e558e08242d746,682722081666f84b3e900760,2025-05-16_06h35.37.133,cuing_paradigm_dot,2024.1.5,Win32,59.88023952,68242c07d0c0e200c6451fdd,,,,,,,,,,,976.3188,976.8181,,,977.0687,977.4672,left,0.3885,,,,,,,,,0.45,,,,,,976.8182,977.0686,977.4672,978.5683,,,,,,,,0,113,113,64,1
,,,,,,,672451c5f4e558e08242d746,682722081666f84b3e900760,2025-05-16_06h35.37.133,cuing_paradigm_dot,2024.1.5,Win32,59.88023952,68242c07d0c0e200c6451fdd,,,,,,,,,,,978.5692,979.0681,,,979.3188,979.5514,left,0.2178,,,,,,,,,0.1,,,,,,979.0681,979.3187,979.5515,980.6514,,,,,,,,0,114,114,19,1
,,,,,,,672451c5f4e558e08242d746,682722081666f84b3e900760,2025-05-16_06h35.37.133,cuing_paradigm_dot,2024.1.5,Win32,59.88023952,68242c07d0c0e200c6451fdd,,,,,,,,,,,980.652,981.1513,,,981.4017,981.7868,right,0.3775,,,,,,,,,0.5,,,,,,981.1514,981.4017,981.7869,982.8838,,,,,,,,0,115,115,110,1
,,,,,,,672451c5f4e558e08242d746,682722081666f84b3e900760,2025-05-16_06h35.37.133,cuing_paradigm_dot,2024.1.5,Win32,59.88023952,68242c07d0c0e200c6451fdd,,,,,,,,,,,982.884,983.3844,,,983.6352,984.1683,right,0.5238,,,,,,,,,0.5,,,,,,983.3845,983.6351,984.1684,985.2668,,,,,,,,0,116,116,112,1
,,,,,,,672451c5f4e558e08242d746,682722081666f84b3e900760,2025-05-16_06h35.37.133,cuing_paradigm_dot,2024.1.5,Win32,59.88023952,68242c07d0c0e200c6451fdd,,,,,,,,,,,985.2671,985.7678,,,986.0189,986.6198,right,0.5935,,,,,,,,,0.45,,,,,,985.7679,986.0188,986.62,987.7187,,,,,,,,0,117,117,69,1
,,,,,,,672451c5f4e558e08242d746,682722081666f84b3e900760,2025-05-16_06h35.37.133,cuing_paradigm_dot,2024.1.5,Win32,59.88023952,68242c07d0c0e200c6451fdd,,,,,,,,,,,987.7201,988.2167,,,988.4669,988.8336,left,0.3506,,,,,,,,,0.9,,,,,,988.2168,988.4669,988.8336,989.9333,,,,,,,,0,118,118,191,1
,,,,,,,672451c5f4e558e08242d746,682722081666f84b3e900760,2025-05-16_06h35.37.133,cuing_paradigm_dot,2024.1.5,Win32,59.88023952,68242c07d0c0e200c6451fdd,,,,,,,,,,,989.9336,990.4334,,,990.685,991.1349,left,0.4361,,,,,,,,,0.4,,,,,,990.4334,990.685,991.135,992.2341,,,,,,,,0,119,119,55,1
,,,,,,,672451c5f4e558e08242d746,682722081666f84b3e900760,2025-05-16_06h35.37.133,cuing_paradigm_dot,2024.1.5,Win32,59.88023952,68242c07d0c0e200c6451fdd,,,,,,,,,,,992.2348,992.7339,,,992.984,993.3678,left,0.3713,,,,,,,,,0.1,,,,,,992.7339,992.984,993.368,994.4674,,,,,,,,0,120,120,10,1
,,,,,,,672451c5f4e558e08242d746,682722081666f84b3e900760,2025-05-16_06h35.37.133,cuing_paradigm_dot,2024.1.5,Win32,59.88023952,68242c07d0c0e200c6451fdd,,,,,,,,,,,994.4683,994.9676,,,995.2181,995.6348,right,0.4049,,,,,,,,,0.6,,,,,,994.9676,995.218,995.6349,996.7347,,,,,,,,0,121,121,150,1
,,,,,,,672451c5f4e558e08242d746,682722081666f84b3e900760,2025-05-16_06h35.37.133,cuing_paradigm_dot,2024.1.5,Win32,59.88023952,68242c07d0c0e200c6451fdd,,,,,,,,,,,996.7357,997.2343,,,997.4834,998.2,right,0.7008,,,,,,,,,0.6,,,,,,997.2344,997.4834,998.2,999.2998,,,,,,,,0,122,122,160,1
,,,,,,,672451c5f4e558e08242d746,682722081666f84b3e900760,2025-05-16_06h35.37.133,cuing_paradigm_dot,2024.1.5,Win32,59.88023952,68242c07d0c0e200c6451fdd,,,,,,,,,,,999.3001,999.7999,,,1000.0503,1000.6012,left,0.5372,,,,,,,,,0.5,,,,,,999.7999,1000.0503,1000.6012,1001.7016,,,,,,,,0,123,123,114,1
,,,,,,,672451c5f4e558e08242d746,682722081666f84b3e900760,2025-05-16_06h35.37.133,cuing_paradigm_dot,2024.1.5,Win32,59.88023952,68242c07d0c0e200c6451fdd,,,,,,,,,,,1001.7024,1002.1998,,,1002.45,1003.383,right,0.9264,,,,,,,,,0.5,,,,,,1002.1999,1002.4499,1003.383,1004.4831,,,,,,,,0,124,124,111,1
,,,,,,,672451c5f4e558e08242d746,682722081666f84b3e900760,2025-05-16_06h35.37.133,cuing_paradigm_dot,2024.1.5,Win32,59.88023952,68242c07d0c0e200c6451fdd,,,,,,,,,,,1004.4834,1004.9829,,,1005.2332,1005.8665,left,0.618,,,,,,,,,0.5,,,,,,1004.9829,1005.2332,1005.8665,1006.967,,,,,,,,0,125,125,119,1
,,,,,,,672451c5f4e558e08242d746,682722081666f84b3e900760,2025-05-16_06h35.37.133,cuing_paradigm_dot,2024.1.5,Win32,59.88023952,68242c07d0c0e200c6451fdd,,,,,,,,,,,1006.9678,1007.4662,,,1007.7175,1008.5163,left,0.7827,,,,,,,,,0.45,,,,,,1007.4662,1007.7174,1008.5163,1009.6162,,,,,,,,0,126,126,67,1
,,,,,,,672451c5f4e558e08242d746,682722081666f84b3e900760,2025-05-16_06h35.37.133,cuing_paradigm_dot,2024.1.5,Win32,59.88023952,68242c07d0c0e200c6451fdd,,,,,,,,,,,1009.6163,1010.1165,,,1010.3676,1010.883,left,0.4984,,,,,,,,,0.1,,,,,,1010.1166,1010.3675,1010.883,1011.9827,,,,,,,,0,127,127,16,1
,,,,,,,672451c5f4e558e08242d746,682722081666f84b3e900760,2025-05-16_06h35.37.133,cuing_paradigm_dot,2024.1.5,Win32,59.88023952,68242c07d0c0e200c6451fdd,,,,,,,,,,,1011.983,1012.4837,,,1012.7345,1013.4669,left,0.7163,,,,,,,,,0.45,,,,,,1012.4837,1012.7344,1013.4669,1014.5661,,,,,,,,0,128,128,76,1
