right,left,explain.started,explain.stopped,key_resp_3.keys,key_resp_3.rt,key_resp_3.duration,participant,session,date,expName,psychopyVersion,OS,frameRate,study_id,explain_2.started,explain_2.stopped,key_resp_4.keys,key_resp_4.rt,key_resp_4.duration,explain_3.started,explain_3.stopped,key_resp_5.keys,key_resp_5.rt,key_resp_5.duration,fixation.started,fixation.stopped,practice.started,practice.stopped,response.started,response.stopped,key_resp.keys,feedback.started,feedback.stopped,trials_2.thisRepN,trials_2.thisTrialN,trials_2.thisN,trials_2.thisIndex,trials_2.ran,white_ratio,key_resp.rt,key_resp.duration,explain_4.started,explain_4.stopped,key_resp_6.keys,key_resp_6.rt,key_resp_6.duration,dotDisplay.started,dotDisplay.stopped,ITI.started,ITI.stopped,trials.thisRepN,trials.thisTrialN,trials.thisN,trials.thisIndex,trials.ran,break_2.started,break_2.stopped,trials_3.thisRepN,trials_3.thisTrialN,trials_3.thisN,trials_3.thisIndex,trials_3.ran
subject chose white,subject chose black,0.0005,86.546,space,71.5218,,60fa23798a416fb0d9e4ec76,682538037049a7c6aa729e0f,2025-05-14_20h41.30.465,cuing_paradigm_dot,2024.1.5,Win32,60.24096386,68242c07d0c0e200c6451fdd,,,,,,,,,,,,,,,,,,,,,,,,,,,,,,,,,,,,,,,,,,,,,,,,
,,,,,,,60fa23798a416fb0d9e4ec76,682538037049a7c6aa729e0f,2025-05-14_20h41.30.465,cuing_paradigm_dot,2024.1.5,Win32,60.24096386,68242c07d0c0e200c6451fdd,86.5475,203.882,space,87.3201,,,,,,,,,,,,,,,,,,,,,,,,,,,,,,,,,,,,,,,,,,,,
,,,,,,,60fa23798a416fb0d9e4ec76,682538037049a7c6aa729e0f,2025-05-14_20h41.30.465,cuing_paradigm_dot,2024.1.5,Win32,60.24096386,68242c07d0c0e200c6451fdd,,,,,,203.8831,208.5479,space,1.6448,,,,,,,,,,,,,,,,,,,,,,,,,,,,,,,,,,,,,,,
,,,,,,,60fa23798a416fb0d9e4ec76,682538037049a7c6aa729e0f,2025-05-14_20h41.30.465,cuing_paradigm_dot,2024.1.5,Win32,60.24096386,68242c07d0c0e200c6451fdd,,,,,,,,,,,208.6219,209.0646,209.0681,209.3154,209.3159,210.8145,,210.8153,211.9135,0,0,0,1,1,0.2,,,,,,,,,,,,,,,,,,,,,,,
,,,,,,,60fa23798a416fb0d9e4ec76,682538037049a7c6aa729e0f,2025-05-14_20h41.30.465,cuing_paradigm_dot,2024.1.5,Win32,60.24096386,68242c07d0c0e200c6451fdd,,,,,,,,,,,211.9165,212.4127,212.4129,212.665,212.6652,213.1301,right,213.1305,214.2293,0,1,1,0,1,0.8,0.4504,,,,,,,,,,,,,,,,,,,,,,
,,,,,,,60fa23798a416fb0d9e4ec76,682538037049a7c6aa729e0f,2025-05-14_20h41.30.465,cuing_paradigm_dot,2024.1.5,Win32,60.24096386,68242c07d0c0e200c6451fdd,,,,,,,,,,,,,,,,,,,,,,,,,,,,214.2314,221.5803,space,4.321,,,,,,,,,,,,,,,,,
,,,,,,,60fa23798a416fb0d9e4ec76,682538037049a7c6aa729e0f,2025-05-14_20h41.30.465,cuing_paradigm_dot,2024.1.5,Win32,60.24096386,68242c07d0c0e200c6451fdd,,,,,,,,,,,221.6409,222.0958,,,222.3511,223.4801,right,,,,,,,,0.5,1.113,,,,,,,222.0976,222.3509,223.4819,224.5829,0,0,0,100,1,,,,,,,
,,,,,,,60fa23798a416fb0d9e4ec76,682538037049a7c6aa729e0f,2025-05-14_20h41.30.465,cuing_paradigm_dot,2024.1.5,Win32,60.24096386,68242c07d0c0e200c6451fdd,,,,,,,,,,,224.5842,225.0796,,,225.332,225.7459,left,,,,,,,,0.4,0.406,,,,,,,225.0798,225.3317,225.7461,226.8458,0,1,1,57,1,,,,,,,
,,,,,,,60fa23798a416fb0d9e4ec76,682538037049a7c6aa729e0f,2025-05-14_20h41.30.465,cuing_paradigm_dot,2024.1.5,Win32,60.24096386,68242c07d0c0e200c6451fdd,,,,,,,,,,,226.8475,227.3459,,,227.5978,228.3125,right,,,,,,,,0.45,0.7044,,,,,,,227.3461,227.5976,228.313,229.4128,0,2,2,67,1,,,,,,,
,,,,,,,60fa23798a416fb0d9e4ec76,682538037049a7c6aa729e0f,2025-05-14_20h41.30.465,cuing_paradigm_dot,2024.1.5,Win32,60.24096386,68242c07d0c0e200c6451fdd,,,,,,,,,,,229.4145,229.9119,,,230.1637,230.6288,right,,,,,,,,0.5,0.4503,,,,,,,229.9121,230.1636,230.6291,231.7283,0,3,3,113,1,,,,,,,
,,,,,,,60fa23798a416fb0d9e4ec76,682538037049a7c6aa729e0f,2025-05-14_20h41.30.465,cuing_paradigm_dot,2024.1.5,Win32,60.24096386,68242c07d0c0e200c6451fdd,,,,,,,,,,,231.7303,232.2283,,,232.4798,233.3119,right,,,,,,,,0.5,0.817,,,,,,,232.2286,232.4798,233.3122,234.4115,0,4,4,97,1,,,,,,,
,,,,,,,60fa23798a416fb0d9e4ec76,682538037049a7c6aa729e0f,2025-05-14_20h41.30.465,cuing_paradigm_dot,2024.1.5,Win32,60.24096386,68242c07d0c0e200c6451fdd,,,,,,,,,,,234.4143,234.9116,,,235.166,235.5487,right,,,,,,,,0.5,0.369,,,,,,,234.9118,235.1658,235.5496,236.6447,0,5,5,94,1,,,,,,,
,,,,,,,60fa23798a416fb0d9e4ec76,682538037049a7c6aa729e0f,2025-05-14_20h41.30.465,cuing_paradigm_dot,2024.1.5,Win32,60.24096386,68242c07d0c0e200c6451fdd,,,,,,,,,,,236.6463,237.1442,,,237.3961,237.7112,right,,,,,,,,0.9,0.3067,,,,,,,237.1443,237.396,237.7116,238.8112,0,6,6,195,1,,,,,,,
,,,,,,,60fa23798a416fb0d9e4ec76,682538037049a7c6aa729e0f,2025-05-14_20h41.30.465,cuing_paradigm_dot,2024.1.5,Win32,60.24096386,68242c07d0c0e200c6451fdd,,,,,,,,,,,238.8135,239.3112,,,239.5632,239.828,left,,,,,,,,0.1,0.2528,,,,,,,239.3113,239.5631,239.8286,240.9281,0,7,7,6,1,,,,,,,
,,,,,,,60fa23798a416fb0d9e4ec76,682538037049a7c6aa729e0f,2025-05-14_20h41.30.465,cuing_paradigm_dot,2024.1.5,Win32,60.24096386,68242c07d0c0e200c6451fdd,,,,,,,,,,,240.9297,241.4279,,,241.6794,241.9289,left,,,,,,,,0.1,0.2385,,,,,,,241.428,241.6793,241.9291,243.0283,0,8,8,8,1,,,,,,,
,,,,,,,60fa23798a416fb0d9e4ec76,682538037049a7c6aa729e0f,2025-05-14_20h41.30.465,cuing_paradigm_dot,2024.1.5,Win32,60.24096386,68242c07d0c0e200c6451fdd,,,,,,,,,,,243.0295,243.5282,,,243.7797,244.265,left,,,,,,,,0.45,0.4769,,,,,,,243.5283,243.7796,244.2652,245.3622,0,9,9,64,1,,,,,,,
,,,,,,,60fa23798a416fb0d9e4ec76,682538037049a7c6aa729e0f,2025-05-14_20h41.30.465,cuing_paradigm_dot,2024.1.5,Win32,60.24096386,68242c07d0c0e200c6451fdd,,,,,,,,,,,245.3638,245.8624,,,246.114,247.0123,left,,,,,,,,0.5,0.8854,,,,,,,245.8625,246.1138,247.0125,248.1123,0,10,10,119,1,,,,,,,
,,,,,,,60fa23798a416fb0d9e4ec76,682538037049a7c6aa729e0f,2025-05-14_20h41.30.465,cuing_paradigm_dot,2024.1.5,Win32,60.24096386,68242c07d0c0e200c6451fdd,,,,,,,,,,,248.1145,248.6119,,,248.8631,250.361,,,,,,,,,0.5,,,,,,,,248.6123,248.863,250.3613,251.461,0,11,11,117,1,,,,,,,
,,,,,,,60fa23798a416fb0d9e4ec76,682538037049a7c6aa729e0f,2025-05-14_20h41.30.465,cuing_paradigm_dot,2024.1.5,Win32,60.24096386,68242c07d0c0e200c6451fdd,,,,,,,,,,,251.4623,251.9609,,,252.2124,253.711,,,,,,,,,0.1,,,,,,,,251.961,252.2122,253.7112,254.8108,0,12,12,11,1,,,,,,,
,,,,,,,60fa23798a416fb0d9e4ec76,682538037049a7c6aa729e0f,2025-05-14_20h41.30.465,cuing_paradigm_dot,2024.1.5,Win32,60.24096386,68242c07d0c0e200c6451fdd,,,,,,,,,,,254.8122,255.3115,,,255.5625,257.0606,,,,,,,,,0.9,,,,,,,,255.3117,255.5624,257.0609,258.1608,0,13,13,187,1,,,,,,,
,,,,,,,60fa23798a416fb0d9e4ec76,682538037049a7c6aa729e0f,2025-05-14_20h41.30.465,cuing_paradigm_dot,2024.1.5,Win32,60.24096386,68242c07d0c0e200c6451fdd,,,,,,,,,,,258.1622,258.6604,,,258.9115,259.1608,left,,,,,,,,0.1,0.2388,,,,,,,258.6605,258.9114,259.1613,260.2612,0,14,14,0,1,,,,,,,
,,,,,,,60fa23798a416fb0d9e4ec76,682538037049a7c6aa729e0f,2025-05-14_20h41.30.465,cuing_paradigm_dot,2024.1.5,Win32,60.24096386,68242c07d0c0e200c6451fdd,,,,,,,,,,,260.2633,260.7605,,,261.0127,261.4275,right,,,,,,,,0.9,0.402,,,,,,,260.7606,261.0125,261.4276,262.5271,0,15,15,191,1,,,,,,,
,,,,,,,60fa23798a416fb0d9e4ec76,682538037049a7c6aa729e0f,2025-05-14_20h41.30.465,cuing_paradigm_dot,2024.1.5,Win32,60.24096386,68242c07d0c0e200c6451fdd,,,,,,,,,,,262.5287,263.0271,,,263.2782,263.4623,left,,,,,,,,0.5,0.172,,,,,,,263.0272,263.2781,263.4624,264.5601,0,16,16,106,1,,,,,,,
,,,,,,,60fa23798a416fb0d9e4ec76,682538037049a7c6aa729e0f,2025-05-14_20h41.30.465,cuing_paradigm_dot,2024.1.5,Win32,60.24096386,68242c07d0c0e200c6451fdd,,,,,,,,,,,264.562,265.0601,,,265.3115,265.744,left,,,,,,,,0.55,0.4185,,,,,,,265.0602,265.3114,265.7445,266.8433,0,17,17,137,1,,,,,,,
,,,,,,,60fa23798a416fb0d9e4ec76,682538037049a7c6aa729e0f,2025-05-14_20h41.30.465,cuing_paradigm_dot,2024.1.5,Win32,60.24096386,68242c07d0c0e200c6451fdd,,,,,,,,,,,266.8448,267.3437,,,267.5949,268.0769,left,,,,,,,,0.6,0.4691,,,,,,,267.3438,267.5947,268.0772,269.1766,0,18,18,177,1,,,,,,,
,,,,,,,60fa23798a416fb0d9e4ec76,682538037049a7c6aa729e0f,2025-05-14_20h41.30.465,cuing_paradigm_dot,2024.1.5,Win32,60.24096386,68242c07d0c0e200c6451fdd,,,,,,,,,,,269.178,269.6765,,,269.9265,270.2939,left,,,,,,,,0.55,0.3569,,,,,,,269.6766,269.9265,270.294,271.3931,0,19,19,144,1,,,,,,,
,,,,,,,60fa23798a416fb0d9e4ec76,682538037049a7c6aa729e0f,2025-05-14_20h41.30.465,cuing_paradigm_dot,2024.1.5,Win32,60.24096386,68242c07d0c0e200c6451fdd,,,,,,,,,,,271.3944,271.893,,,272.1447,272.4319,left,,,,,,,,0.45,0.2794,,,,,,,271.8931,272.1446,272.432,273.5273,0,20,20,74,1,,,,,,,
,,,,,,,60fa23798a416fb0d9e4ec76,682538037049a7c6aa729e0f,2025-05-14_20h41.30.465,cuing_paradigm_dot,2024.1.5,Win32,60.24096386,68242c07d0c0e200c6451fdd,,,,,,,,,,,273.5287,274.0274,,,274.2782,274.5143,left,,,,,,,,0.1,0.2261,,,,,,,274.0275,274.2781,274.5144,275.6108,0,21,21,12,1,,,,,,,
,,,,,,,60fa23798a416fb0d9e4ec76,682538037049a7c6aa729e0f,2025-05-14_20h41.30.465,cuing_paradigm_dot,2024.1.5,Win32,60.24096386,68242c07d0c0e200c6451fdd,,,,,,,,,,,275.6132,276.1102,,,276.3628,276.5982,left,,,,,,,,0.1,0.2274,,,,,,,276.1103,276.3627,276.5983,277.6934,0,22,22,13,1,,,,,,,
,,,,,,,60fa23798a416fb0d9e4ec76,682538037049a7c6aa729e0f,2025-05-14_20h41.30.465,cuing_paradigm_dot,2024.1.5,Win32,60.24096386,68242c07d0c0e200c6451fdd,,,,,,,,,,,277.6951,278.1948,,,278.4446,278.6774,right,,,,,,,,0.9,0.2228,,,,,,,278.1948,278.4444,278.6776,279.7767,0,23,23,185,1,,,,,,,
,,,,,,,60fa23798a416fb0d9e4ec76,682538037049a7c6aa729e0f,2025-05-14_20h41.30.465,cuing_paradigm_dot,2024.1.5,Win32,60.24096386,68242c07d0c0e200c6451fdd,,,,,,,,,,,279.7805,280.2767,,,280.5285,280.9263,left,,,,,,,,0.6,0.3889,,,,,,,280.2769,280.5285,280.9267,282.0258,0,24,24,167,1,,,,,,,
,,,,,,,60fa23798a416fb0d9e4ec76,682538037049a7c6aa729e0f,2025-05-14_20h41.30.465,cuing_paradigm_dot,2024.1.5,Win32,60.24096386,68242c07d0c0e200c6451fdd,,,,,,,,,,,282.0285,282.5259,,,282.7788,283.0437,right,,,,,,,,0.6,0.2506,,,,,,,282.5259,282.7787,283.0441,284.1433,0,25,25,169,1,,,,,,,
,,,,,,,60fa23798a416fb0d9e4ec76,682538037049a7c6aa729e0f,2025-05-14_20h41.30.465,cuing_paradigm_dot,2024.1.5,Win32,60.24096386,68242c07d0c0e200c6451fdd,,,,,,,,,,,284.1454,284.6433,,,284.8938,285.2928,left,,,,,,,,0.45,0.3861,,,,,,,284.6435,284.8937,285.2932,286.3923,0,26,26,75,1,,,,,,,
,,,,,,,60fa23798a416fb0d9e4ec76,682538037049a7c6aa729e0f,2025-05-14_20h41.30.465,cuing_paradigm_dot,2024.1.5,Win32,60.24096386,68242c07d0c0e200c6451fdd,,,,,,,,,,,286.3929,286.8918,,,287.1427,287.6086,left,,,,,,,,0.55,0.4512,,,,,,,286.8919,287.1427,287.6087,288.7084,0,27,27,126,1,,,,,,,
,,,,,,,60fa23798a416fb0d9e4ec76,682538037049a7c6aa729e0f,2025-05-14_20h41.30.465,cuing_paradigm_dot,2024.1.5,Win32,60.24096386,68242c07d0c0e200c6451fdd,,,,,,,,,,,288.7091,289.2084,,,289.459,289.7086,left,,,,,,,,0.55,0.2338,,,,,,,289.2085,289.459,289.7087,290.8082,0,28,28,120,1,,,,,,,
,,,,,,,60fa23798a416fb0d9e4ec76,682538037049a7c6aa729e0f,2025-05-14_20h41.30.465,cuing_paradigm_dot,2024.1.5,Win32,60.24096386,68242c07d0c0e200c6451fdd,,,,,,,,,,,290.8088,291.3083,,,291.559,291.9753,left,,,,,,,,0.55,0.3992,,,,,,,291.3085,291.559,291.9754,293.075,0,29,29,146,1,,,,,,,
,,,,,,,60fa23798a416fb0d9e4ec76,682538037049a7c6aa729e0f,2025-05-14_20h41.30.465,cuing_paradigm_dot,2024.1.5,Win32,60.24096386,68242c07d0c0e200c6451fdd,,,,,,,,,,,293.076,293.5755,,,293.8253,294.2417,left,,,,,,,,0.5,0.4079,,,,,,,293.5755,293.8253,294.2418,295.3414,0,30,30,90,1,,,,,,,
,,,,,,,60fa23798a416fb0d9e4ec76,682538037049a7c6aa729e0f,2025-05-14_20h41.30.465,cuing_paradigm_dot,2024.1.5,Win32,60.24096386,68242c07d0c0e200c6451fdd,,,,,,,,,,,295.3422,295.8414,,,296.0919,296.6419,left,,,,,,,,0.55,0.5339,,,,,,,295.8415,296.0919,296.6419,297.7414,0,31,31,140,1,,,,,,,
,,,,,,,60fa23798a416fb0d9e4ec76,682538037049a7c6aa729e0f,2025-05-14_20h41.30.465,cuing_paradigm_dot,2024.1.5,Win32,60.24096386,68242c07d0c0e200c6451fdd,,,,,,,,,,,297.7422,298.2416,,,298.492,298.8749,right,,,,,,,,0.9,0.368,,,,,,,298.2416,298.4919,298.875,299.975,0,32,32,197,1,,,,,,,
,,,,,,,60fa23798a416fb0d9e4ec76,682538037049a7c6aa729e0f,2025-05-14_20h41.30.465,cuing_paradigm_dot,2024.1.5,Win32,60.24096386,68242c07d0c0e200c6451fdd,,,,,,,,,,,299.977,300.4754,,,300.7272,301.1418,left,,,,,,,,0.6,0.4033,,,,,,,300.4756,300.727,301.1421,302.2417,0,33,33,174,1,,,,,,,
,,,,,,,60fa23798a416fb0d9e4ec76,682538037049a7c6aa729e0f,2025-05-14_20h41.30.465,cuing_paradigm_dot,2024.1.5,Win32,60.24096386,68242c07d0c0e200c6451fdd,,,,,,,,,,,302.2428,302.7417,,,302.993,303.3422,left,,,,,,,,0.4,0.335,,,,,,,302.7418,302.9929,303.3422,304.4416,0,34,34,56,1,,,,,,,
,,,,,,,60fa23798a416fb0d9e4ec76,682538037049a7c6aa729e0f,2025-05-14_20h41.30.465,cuing_paradigm_dot,2024.1.5,Win32,60.24096386,68242c07d0c0e200c6451fdd,,,,,,,,,,,304.4435,304.9414,,,305.1932,305.4584,right,,,,,,,,0.45,0.2556,,,,,,,304.9416,305.1932,305.4585,306.5585,0,35,35,68,1,,,,,,,
,,,,,,,60fa23798a416fb0d9e4ec76,682538037049a7c6aa729e0f,2025-05-14_20h41.30.465,cuing_paradigm_dot,2024.1.5,Win32,60.24096386,68242c07d0c0e200c6451fdd,,,,,,,,,,,306.5598,307.0583,,,307.3094,307.5752,left,,,,,,,,0.55,0.252,,,,,,,307.0585,307.3092,307.5756,308.6747,0,36,36,142,1,,,,,,,
,,,,,,,60fa23798a416fb0d9e4ec76,682538037049a7c6aa729e0f,2025-05-14_20h41.30.465,cuing_paradigm_dot,2024.1.5,Win32,60.24096386,68242c07d0c0e200c6451fdd,,,,,,,,,,,308.6759,309.1745,,,309.426,309.8586,right,,,,,,,,0.9,0.4152,,,,,,,309.1745,309.4259,309.8589,310.9582,0,37,37,198,1,,,,,,,
,,,,,,,60fa23798a416fb0d9e4ec76,682538037049a7c6aa729e0f,2025-05-14_20h41.30.465,cuing_paradigm_dot,2024.1.5,Win32,60.24096386,68242c07d0c0e200c6451fdd,,,,,,,,,,,310.9596,311.4582,,,311.7096,312.1793,left,,,,,,,,0.4,0.4577,,,,,,,311.4583,311.7095,312.1795,313.2753,0,38,38,45,1,,,,,,,
,,,,,,,60fa23798a416fb0d9e4ec76,682538037049a7c6aa729e0f,2025-05-14_20h41.30.465,cuing_paradigm_dot,2024.1.5,Win32,60.24096386,68242c07d0c0e200c6451fdd,,,,,,,,,,,313.2766,313.7752,,,314.0257,314.425,right,,,,,,,,0.6,0.3843,,,,,,,313.7754,314.0255,314.4252,315.5244,0,39,39,179,1,,,,,,,
,,,,,,,60fa23798a416fb0d9e4ec76,682538037049a7c6aa729e0f,2025-05-14_20h41.30.465,cuing_paradigm_dot,2024.1.5,Win32,60.24096386,68242c07d0c0e200c6451fdd,,,,,,,,,,,315.5258,316.0243,,,316.2758,316.5752,right,,,,,,,,0.1,0.2841,,,,,,,316.0243,316.2757,316.5753,317.6744,0,40,40,25,1,,,,,,,
,,,,,,,60fa23798a416fb0d9e4ec76,682538037049a7c6aa729e0f,2025-05-14_20h41.30.465,cuing_paradigm_dot,2024.1.5,Win32,60.24096386,68242c07d0c0e200c6451fdd,,,,,,,,,,,317.6766,318.1742,,,318.4264,319.2749,left,,,,,,,,0.55,0.8346,,,,,,,318.1743,318.4262,319.2752,320.3753,0,41,41,127,1,,,,,,,
,,,,,,,60fa23798a416fb0d9e4ec76,682538037049a7c6aa729e0f,2025-05-14_20h41.30.465,cuing_paradigm_dot,2024.1.5,Win32,60.24096386,68242c07d0c0e200c6451fdd,,,,,,,,,,,320.3772,320.8743,,,321.1327,321.7245,right,,,,,,,,0.4,0.5769,,,,,,,320.8743,321.1326,321.7246,322.8244,0,42,42,48,1,,,,,,,
,,,,,,,60fa23798a416fb0d9e4ec76,682538037049a7c6aa729e0f,2025-05-14_20h41.30.465,cuing_paradigm_dot,2024.1.5,Win32,60.24096386,68242c07d0c0e200c6451fdd,,,,,,,,,,,322.8258,323.3243,,,323.5759,324.2245,right,,,,,,,,0.4,0.6345,,,,,,,323.3245,323.5758,324.2246,325.325,0,43,43,46,1,,,,,,,
,,,,,,,60fa23798a416fb0d9e4ec76,682538037049a7c6aa729e0f,2025-05-14_20h41.30.465,cuing_paradigm_dot,2024.1.5,Win32,60.24096386,68242c07d0c0e200c6451fdd,,,,,,,,,,,325.3271,325.8245,,,326.0749,326.5582,left,,,,,,,,0.9,0.4701,,,,,,,325.8246,326.0747,326.5583,327.6571,0,44,44,205,1,,,,,,,
,,,,,,,60fa23798a416fb0d9e4ec76,682538037049a7c6aa729e0f,2025-05-14_20h41.30.465,cuing_paradigm_dot,2024.1.5,Win32,60.24096386,68242c07d0c0e200c6451fdd,,,,,,,,,,,327.6588,328.1571,,,328.4086,328.9741,left,,,,,,,,0.1,0.5521,,,,,,,328.1572,328.4084,328.9745,330.074,0,45,45,15,1,,,,,,,
,,,,,,,60fa23798a416fb0d9e4ec76,682538037049a7c6aa729e0f,2025-05-14_20h41.30.465,cuing_paradigm_dot,2024.1.5,Win32,60.24096386,68242c07d0c0e200c6451fdd,,,,,,,,,,,330.0765,330.5741,,,330.8254,331.4092,left,,,,,,,,0.6,0.5749,,,,,,,330.5742,330.8254,331.4093,332.507,0,46,46,160,1,,,,,,,
,,,,,,,60fa23798a416fb0d9e4ec76,682538037049a7c6aa729e0f,2025-05-14_20h41.30.465,cuing_paradigm_dot,2024.1.5,Win32,60.24096386,68242c07d0c0e200c6451fdd,,,,,,,,,,,332.5089,333.0071,,,333.2583,333.5572,right,,,,,,,,0.9,0.2834,,,,,,,333.0074,333.2582,333.5576,334.6574,0,47,47,186,1,,,,,,,
,,,,,,,60fa23798a416fb0d9e4ec76,682538037049a7c6aa729e0f,2025-05-14_20h41.30.465,cuing_paradigm_dot,2024.1.5,Win32,60.24096386,68242c07d0c0e200c6451fdd,,,,,,,,,,,334.6606,335.1568,,,335.4097,335.7071,right,,,,,,,,0.9,0.2842,,,,,,,335.1568,335.4097,335.7073,336.8069,0,48,48,180,1,,,,,,,
,,,,,,,60fa23798a416fb0d9e4ec76,682538037049a7c6aa729e0f,2025-05-14_20h41.30.465,cuing_paradigm_dot,2024.1.5,Win32,60.24096386,68242c07d0c0e200c6451fdd,,,,,,,,,,,336.809,337.3066,,,337.5593,337.9576,left,,,,,,,,0.45,0.3868,,,,,,,337.3067,337.559,337.9577,339.0583,0,49,49,84,1,,,,,,,
,,,,,,,60fa23798a416fb0d9e4ec76,682538037049a7c6aa729e0f,2025-05-14_20h41.30.465,cuing_paradigm_dot,2024.1.5,Win32,60.24096386,68242c07d0c0e200c6451fdd,,,,,,,,,,,339.0594,339.5574,,,339.8086,340.4579,right,,,,,,,,0.45,0.6362,,,,,,,339.5576,339.8085,340.458,341.5565,0,50,50,89,1,,,,,,,
,,,,,,,60fa23798a416fb0d9e4ec76,682538037049a7c6aa729e0f,2025-05-14_20h41.30.465,cuing_paradigm_dot,2024.1.5,Win32,60.24096386,68242c07d0c0e200c6451fdd,,,,,,,,,,,341.5584,342.0575,,,342.3078,342.9076,left,,,,,,,,0.55,0.5871,,,,,,,342.0576,342.3077,342.9078,344.0063,0,51,51,132,1,,,,,,,
,,,,,,,60fa23798a416fb0d9e4ec76,682538037049a7c6aa729e0f,2025-05-14_20h41.30.465,cuing_paradigm_dot,2024.1.5,Win32,60.24096386,68242c07d0c0e200c6451fdd,,,,,,,,,,,344.0077,344.5073,,,344.7574,345.5397,left,,,,,,,,0.1,0.7672,,,,,,,344.5074,344.7574,345.5399,346.6403,0,52,52,4,1,,,,,,,
,,,,,,,60fa23798a416fb0d9e4ec76,682538037049a7c6aa729e0f,2025-05-14_20h41.30.465,cuing_paradigm_dot,2024.1.5,Win32,60.24096386,68242c07d0c0e200c6451fdd,,,,,,,,,,,346.6422,347.1395,,,347.3922,347.7903,right,,,,,,,,0.6,0.387,,,,,,,347.1396,347.3921,347.7905,348.8904,0,53,53,168,1,,,,,,,
,,,,,,,60fa23798a416fb0d9e4ec76,682538037049a7c6aa729e0f,2025-05-14_20h41.30.465,cuing_paradigm_dot,2024.1.5,Win32,60.24096386,68242c07d0c0e200c6451fdd,,,,,,,,,,,348.8917,349.3895,,,349.6415,350.14,left,,,,,,,,0.45,0.4868,,,,,,,349.3896,349.6414,350.1404,351.2396,0,54,54,70,1,,,,,,,
,,,,,,,60fa23798a416fb0d9e4ec76,682538037049a7c6aa729e0f,2025-05-14_20h41.30.465,cuing_paradigm_dot,2024.1.5,Win32,60.24096386,68242c07d0c0e200c6451fdd,,,,,,,,,,,351.2413,351.7394,,,351.9913,352.723,left,,,,,,,,0.4,0.7177,,,,,,,351.7395,351.9912,352.7234,353.8228,0,55,55,33,1,,,,,,,
,,,,,,,60fa23798a416fb0d9e4ec76,682538037049a7c6aa729e0f,2025-05-14_20h41.30.465,cuing_paradigm_dot,2024.1.5,Win32,60.24096386,68242c07d0c0e200c6451fdd,,,,,,,,,,,353.8244,354.3226,,,354.5732,355.2732,left,,,,,,,,0.1,0.6861,,,,,,,354.3227,354.5732,355.2737,356.3739,0,56,56,28,1,,,,,,,
,,,,,,,60fa23798a416fb0d9e4ec76,682538037049a7c6aa729e0f,2025-05-14_20h41.30.465,cuing_paradigm_dot,2024.1.5,Win32,60.24096386,68242c07d0c0e200c6451fdd,,,,,,,,,,,356.3754,356.8728,,,357.1246,357.7232,left,,,,,,,,0.4,0.5817,,,,,,,356.8729,357.1244,357.7234,358.8229,0,57,57,32,1,,,,,,,
,,,,,,,60fa23798a416fb0d9e4ec76,682538037049a7c6aa729e0f,2025-05-14_20h41.30.465,cuing_paradigm_dot,2024.1.5,Win32,60.24096386,68242c07d0c0e200c6451fdd,,,,,,,,,,,358.8255,359.3225,,,359.5746,360.1398,left,,,,,,,,0.5,0.5511,,,,,,,359.3226,359.5746,360.1399,361.2395,0,58,58,91,1,,,,,,,
,,,,,,,60fa23798a416fb0d9e4ec76,682538037049a7c6aa729e0f,2025-05-14_20h41.30.465,cuing_paradigm_dot,2024.1.5,Win32,60.24096386,68242c07d0c0e200c6451fdd,,,,,,,,,,,361.2411,361.7395,,,361.9906,362.4717,right,,,,,,,,0.9,0.4654,,,,,,,361.7397,361.9905,362.4719,363.572,0,59,59,203,1,,,,,,,
,,,,,,,60fa23798a416fb0d9e4ec76,682538037049a7c6aa729e0f,2025-05-14_20h41.30.465,cuing_paradigm_dot,2024.1.5,Win32,60.24096386,68242c07d0c0e200c6451fdd,,,,,,,,,,,363.5735,364.073,,,364.3224,365.0557,left,,,,,,,,0.5,0.7203,,,,,,,364.0733,364.3223,365.0558,366.1555,0,60,60,103,1,,,,,,,
,,,,,,,60fa23798a416fb0d9e4ec76,682538037049a7c6aa729e0f,2025-05-14_20h41.30.465,cuing_paradigm_dot,2024.1.5,Win32,60.24096386,68242c07d0c0e200c6451fdd,,,,,,,,,,,366.1571,366.6552,,,366.9064,367.472,right,,,,,,,,0.9,0.5515,,,,,,,366.6552,366.9063,367.4721,368.5722,0,61,61,194,1,,,,,,,
,,,,,,,60fa23798a416fb0d9e4ec76,682538037049a7c6aa729e0f,2025-05-14_20h41.30.465,cuing_paradigm_dot,2024.1.5,Win32,60.24096386,68242c07d0c0e200c6451fdd,,,,,,,,,,,368.5735,369.0719,,,369.3235,370.0558,left,,,,,,,,0.45,0.7199,,,,,,,369.0719,369.3235,370.0561,371.1552,0,62,62,71,1,,,,,,,
,,,,,,,60fa23798a416fb0d9e4ec76,682538037049a7c6aa729e0f,2025-05-14_20h41.30.465,cuing_paradigm_dot,2024.1.5,Win32,60.24096386,68242c07d0c0e200c6451fdd,,,,,,,,,,,371.1567,371.6559,,,371.9059,372.5893,left,,,,,,,,0.4,0.6669,,,,,,,371.656,371.9058,372.5896,373.6894,0,63,63,41,1,,,,,,,
,,,,,,,60fa23798a416fb0d9e4ec76,682538037049a7c6aa729e0f,2025-05-14_20h41.30.465,cuing_paradigm_dot,2024.1.5,Win32,60.24096386,68242c07d0c0e200c6451fdd,,,,,,,,,,,373.6907,374.1888,,,374.4405,375.0219,right,,,,,,,,0.6,0.5667,,,,,,,374.189,374.4404,375.0224,376.1218,0,64,64,157,1,,,,,,,
,,,,,,,60fa23798a416fb0d9e4ec76,682538037049a7c6aa729e0f,2025-05-14_20h41.30.465,cuing_paradigm_dot,2024.1.5,Win32,60.24096386,68242c07d0c0e200c6451fdd,,,,,,,,,,,376.1245,376.6216,,,376.8747,377.7062,left,,,,,,,,0.1,0.8161,,,,,,,376.6217,376.8746,377.7063,378.8065,0,65,65,24,1,,,,,,,
,,,,,,,60fa23798a416fb0d9e4ec76,682538037049a7c6aa729e0f,2025-05-14_20h41.30.465,cuing_paradigm_dot,2024.1.5,Win32,60.24096386,68242c07d0c0e200c6451fdd,,,,,,,,,,,378.8082,379.3055,,,379.5587,380.373,left,,,,,,,,0.1,0.8008,,,,,,,379.3057,379.5585,380.373,381.4712,0,66,66,17,1,,,,,,,
,,,,,,,60fa23798a416fb0d9e4ec76,682538037049a7c6aa729e0f,2025-05-14_20h41.30.465,cuing_paradigm_dot,2024.1.5,Win32,60.24096386,68242c07d0c0e200c6451fdd,,,,,,,,,,,381.4738,381.9721,,,382.2233,383.0552,left,,,,,,,,0.5,0.8194,,,,,,,381.9723,382.2233,383.0555,384.1547,0,67,67,109,1,,,,,,,
,,,,,,,60fa23798a416fb0d9e4ec76,682538037049a7c6aa729e0f,2025-05-14_20h41.30.465,cuing_paradigm_dot,2024.1.5,Win32,60.24096386,68242c07d0c0e200c6451fdd,,,,,,,,,,,384.1574,384.6545,,,384.9069,385.5548,left,,,,,,,,0.1,0.6372,,,,,,,384.6547,384.9067,385.555,386.6547,0,68,68,9,1,,,,,,,
,,,,,,,60fa23798a416fb0d9e4ec76,682538037049a7c6aa729e0f,2025-05-14_20h41.30.465,cuing_paradigm_dot,2024.1.5,Win32,60.24096386,68242c07d0c0e200c6451fdd,,,,,,,,,,,386.6563,387.1544,,,387.4057,388.2901,right,,,,,,,,0.4,0.8766,,,,,,,387.1545,387.4057,388.2902,389.3878,0,69,69,35,1,,,,,,,
,,,,,,,60fa23798a416fb0d9e4ec76,682538037049a7c6aa729e0f,2025-05-14_20h41.30.465,cuing_paradigm_dot,2024.1.5,Win32,60.24096386,68242c07d0c0e200c6451fdd,,,,,,,,,,,389.3903,389.8878,,,390.1396,391.0713,left,,,,,,,,0.6,0.9166,,,,,,,389.888,390.1394,391.0717,392.1707,0,70,70,171,1,,,,,,,
,,,,,,,60fa23798a416fb0d9e4ec76,682538037049a7c6aa729e0f,2025-05-14_20h41.30.465,cuing_paradigm_dot,2024.1.5,Win32,60.24096386,68242c07d0c0e200c6451fdd,,,,,,,,,,,392.1719,392.6705,,,392.9218,393.6043,right,,,,,,,,0.9,0.6739,,,,,,,392.6706,392.9217,393.6044,394.7038,0,71,71,189,1,,,,,,,
,,,,,,,60fa23798a416fb0d9e4ec76,682538037049a7c6aa729e0f,2025-05-14_20h41.30.465,cuing_paradigm_dot,2024.1.5,Win32,60.24096386,68242c07d0c0e200c6451fdd,,,,,,,,,,,394.7048,395.2046,,,395.4554,395.9877,right,,,,,,,,0.9,0.5244,,,,,,,395.2046,395.4551,395.9881,397.0874,0,72,72,182,1,,,,,,,
,,,,,,,60fa23798a416fb0d9e4ec76,682538037049a7c6aa729e0f,2025-05-14_20h41.30.465,cuing_paradigm_dot,2024.1.5,Win32,60.24096386,68242c07d0c0e200c6451fdd,,,,,,,,,,,397.0888,397.5874,,,397.8398,398.491,left,,,,,,,,0.55,0.6342,,,,,,,397.5876,397.8395,398.4915,399.5892,0,73,73,139,1,,,,,,,
,,,,,,,60fa23798a416fb0d9e4ec76,682538037049a7c6aa729e0f,2025-05-14_20h41.30.465,cuing_paradigm_dot,2024.1.5,Win32,60.24096386,68242c07d0c0e200c6451fdd,,,,,,,,,,,399.5908,400.088,,,400.3391,401.2549,right,,,,,,,,0.4,0.9026,,,,,,,400.0881,400.3391,401.2551,402.3537,0,74,74,40,1,,,,,,,
,,,,,,,60fa23798a416fb0d9e4ec76,682538037049a7c6aa729e0f,2025-05-14_20h41.30.465,cuing_paradigm_dot,2024.1.5,Win32,60.24096386,68242c07d0c0e200c6451fdd,,,,,,,,,,,402.3561,402.8534,,,403.1044,403.7205,left,,,,,,,,0.55,0.6032,,,,,,,402.8536,403.1043,403.721,404.8202,0,75,75,122,1,,,,,,,
,,,,,,,60fa23798a416fb0d9e4ec76,682538037049a7c6aa729e0f,2025-05-14_20h41.30.465,cuing_paradigm_dot,2024.1.5,Win32,60.24096386,68242c07d0c0e200c6451fdd,,,,,,,,,,,404.8225,405.32,,,405.5715,406.1211,right,,,,,,,,0.9,0.5387,,,,,,,405.32,405.5715,406.1213,407.2203,0,76,76,193,1,,,,,,,
,,,,,,,60fa23798a416fb0d9e4ec76,682538037049a7c6aa729e0f,2025-05-14_20h41.30.465,cuing_paradigm_dot,2024.1.5,Win32,60.24096386,68242c07d0c0e200c6451fdd,,,,,,,,,,,407.2219,407.7203,,,407.9709,408.5379,left,,,,,,,,0.45,0.5517,,,,,,,407.7204,407.9709,408.538,409.6386,0,77,77,63,1,,,,,,,
,,,,,,,60fa23798a416fb0d9e4ec76,682538037049a7c6aa729e0f,2025-05-14_20h41.30.465,cuing_paradigm_dot,2024.1.5,Win32,60.24096386,68242c07d0c0e200c6451fdd,,,,,,,,,,,409.6401,410.1374,,,410.3897,411.0869,right,,,,,,,,0.4,0.6838,,,,,,,410.1375,410.3897,411.0872,412.1871,0,78,78,58,1,,,,,,,
,,,,,,,60fa23798a416fb0d9e4ec76,682538037049a7c6aa729e0f,2025-05-14_20h41.30.465,cuing_paradigm_dot,2024.1.5,Win32,60.24096386,68242c07d0c0e200c6451fdd,,,,,,,,,,,412.1885,412.6869,,,412.9385,413.6049,left,,,,,,,,0.6,0.6542,,,,,,,412.687,412.9385,413.605,414.7034,0,79,79,165,1,,,,,,,
,,,,,,,60fa23798a416fb0d9e4ec76,682538037049a7c6aa729e0f,2025-05-14_20h41.30.465,cuing_paradigm_dot,2024.1.5,Win32,60.24096386,68242c07d0c0e200c6451fdd,,,,,,,,,,,414.7046,415.2039,,,415.4548,416.1878,right,,,,,,,,0.6,0.7173,,,,,,,415.2041,415.4548,416.188,417.2866,0,80,80,162,1,,,,,,,
,,,,,,,60fa23798a416fb0d9e4ec76,682538037049a7c6aa729e0f,2025-05-14_20h41.30.465,cuing_paradigm_dot,2024.1.5,Win32,60.24096386,68242c07d0c0e200c6451fdd,,,,,,,,,,,417.2885,417.7888,,,418.0378,418.6385,left,,,,,,,,0.55,0.5877,,,,,,,417.7888,418.0378,418.6386,419.7371,0,81,81,141,1,,,,,,,
,,,,,,,60fa23798a416fb0d9e4ec76,682538037049a7c6aa729e0f,2025-05-14_20h41.30.465,cuing_paradigm_dot,2024.1.5,Win32,60.24096386,68242c07d0c0e200c6451fdd,,,,,,,,,,,419.7386,420.2379,,,420.4875,421.0875,right,,,,,,,,0.9,0.5877,,,,,,,420.2379,420.4874,421.0877,422.1861,0,82,82,202,1,,,,,,,
,,,,,,,60fa23798a416fb0d9e4ec76,682538037049a7c6aa729e0f,2025-05-14_20h41.30.465,cuing_paradigm_dot,2024.1.5,Win32,60.24096386,68242c07d0c0e200c6451fdd,,,,,,,,,,,422.1878,422.6861,,,422.9377,423.4366,right,,,,,,,,0.9,0.4862,,,,,,,422.6862,422.9375,423.4367,424.5359,0,83,83,181,1,,,,,,,
,,,,,,,60fa23798a416fb0d9e4ec76,682538037049a7c6aa729e0f,2025-05-14_20h41.30.465,cuing_paradigm_dot,2024.1.5,Win32,60.24096386,68242c07d0c0e200c6451fdd,,,,,,,,,,,424.5373,425.0359,,,425.2882,425.753,left,,,,,,,,0.1,0.4519,,,,,,,425.0361,425.2881,425.7533,426.8528,0,84,84,1,1,,,,,,,
,,,,,,,60fa23798a416fb0d9e4ec76,682538037049a7c6aa729e0f,2025-05-14_20h41.30.465,cuing_paradigm_dot,2024.1.5,Win32,60.24096386,68242c07d0c0e200c6451fdd,,,,,,,,,,,426.8551,427.3527,,,427.6026,428.1522,right,,,,,,,,0.6,0.5425,,,,,,,427.3527,427.6025,428.1524,429.2521,0,85,85,163,1,,,,,,,
,,,,,,,60fa23798a416fb0d9e4ec76,682538037049a7c6aa729e0f,2025-05-14_20h41.30.465,cuing_paradigm_dot,2024.1.5,Win32,60.24096386,68242c07d0c0e200c6451fdd,,,,,,,,,,,429.2532,429.753,,,430.0031,430.7191,right,,,,,,,,0.9,0.7015,,,,,,,429.7531,430.003,430.7191,431.8183,0,86,86,192,1,,,,,,,
,,,,,,,60fa23798a416fb0d9e4ec76,682538037049a7c6aa729e0f,2025-05-14_20h41.30.465,cuing_paradigm_dot,2024.1.5,Win32,60.24096386,68242c07d0c0e200c6451fdd,,,,,,,,,,,431.8191,432.3189,,,432.57,433.2359,left,,,,,,,,0.5,0.651,,,,,,,432.3189,432.5699,433.2362,434.3355,0,87,87,104,1,,,,,,,
,,,,,,,60fa23798a416fb0d9e4ec76,682538037049a7c6aa729e0f,2025-05-14_20h41.30.465,cuing_paradigm_dot,2024.1.5,Win32,60.24096386,68242c07d0c0e200c6451fdd,,,,,,,,,,,434.3365,434.8356,,,435.0869,435.8526,right,,,,,,,,0.55,0.7547,,,,,,,434.8357,435.0868,435.8539,436.9521,0,88,88,143,1,,,,,,,
,,,,,,,60fa23798a416fb0d9e4ec76,682538037049a7c6aa729e0f,2025-05-14_20h41.30.465,cuing_paradigm_dot,2024.1.5,Win32,60.24096386,68242c07d0c0e200c6451fdd,,,,,,,,,,,436.9539,437.4527,,,437.7044,438.7024,right,,,,,,,,0.6,0.9817,,,,,,,437.4528,437.7044,438.7031,439.802,0,89,89,176,1,,,,,,,
,,,,,,,60fa23798a416fb0d9e4ec76,682538037049a7c6aa729e0f,2025-05-14_20h41.30.465,cuing_paradigm_dot,2024.1.5,Win32,60.24096386,68242c07d0c0e200c6451fdd,,,,,,,,,,,439.8066,440.3019,,,440.5532,441.2358,left,,,,,,,,0.55,0.6711,,,,,,,440.302,440.5531,441.2361,442.3351,0,90,90,124,1,,,,,,,
,,,,,,,60fa23798a416fb0d9e4ec76,682538037049a7c6aa729e0f,2025-05-14_20h41.30.465,cuing_paradigm_dot,2024.1.5,Win32,60.24096386,68242c07d0c0e200c6451fdd,,,,,,,,,,,442.3364,442.836,,,443.0865,443.719,right,,,,,,,,0.55,0.6225,,,,,,,442.8362,443.0864,443.719,444.8184,0,91,91,136,1,,,,,,,
,,,,,,,60fa23798a416fb0d9e4ec76,682538037049a7c6aa729e0f,2025-05-14_20h41.30.465,cuing_paradigm_dot,2024.1.5,Win32,60.24096386,68242c07d0c0e200c6451fdd,,,,,,,,,,,444.8197,445.3186,,,445.5722,446.469,left,,,,,,,,0.45,0.8873,,,,,,,445.3187,445.5718,446.4692,447.5678,0,92,92,88,1,,,,,,,
,,,,,,,60fa23798a416fb0d9e4ec76,682538037049a7c6aa729e0f,2025-05-14_20h41.30.465,cuing_paradigm_dot,2024.1.5,Win32,60.24096386,68242c07d0c0e200c6451fdd,,,,,,,,,,,447.5688,448.0677,,,448.3191,449.0683,right,,,,,,,,0.55,0.736,,,,,,,448.0677,448.319,449.0686,450.1681,0,93,93,121,1,,,,,,,
,,,,,,,60fa23798a416fb0d9e4ec76,682538037049a7c6aa729e0f,2025-05-14_20h41.30.465,cuing_paradigm_dot,2024.1.5,Win32,60.24096386,68242c07d0c0e200c6451fdd,,,,,,,,,,,450.1696,450.669,,,450.919,451.5849,right,,,,,,,,0.9,0.6549,,,,,,,450.6691,450.9189,451.585,452.6847,0,94,94,204,1,,,,,,,
,,,,,,,60fa23798a416fb0d9e4ec76,682538037049a7c6aa729e0f,2025-05-14_20h41.30.465,cuing_paradigm_dot,2024.1.5,Win32,60.24096386,68242c07d0c0e200c6451fdd,,,,,,,,,,,452.687,453.1848,,,453.4363,454.1867,right,,,,,,,,0.4,0.7384,,,,,,,453.1849,453.4362,454.1868,455.2848,0,95,95,38,1,,,,,,,
,,,,,,,60fa23798a416fb0d9e4ec76,682538037049a7c6aa729e0f,2025-05-14_20h41.30.465,cuing_paradigm_dot,2024.1.5,Win32,60.24096386,68242c07d0c0e200c6451fdd,,,,,,,,,,,455.2866,455.7849,,,456.0357,456.8853,right,,,,,,,,0.55,0.8363,,,,,,,455.7851,456.0356,456.8855,457.9845,0,96,96,130,1,,,,,,,
,,,,,,,60fa23798a416fb0d9e4ec76,682538037049a7c6aa729e0f,2025-05-14_20h41.30.465,cuing_paradigm_dot,2024.1.5,Win32,60.24096386,68242c07d0c0e200c6451fdd,,,,,,,,,,,457.9861,458.4855,,,458.736,459.3848,right,,,,,,,,0.9,0.6363,,,,,,,458.4856,458.7359,459.3849,460.4842,0,97,97,201,1,,,,,,,
,,,,,,,60fa23798a416fb0d9e4ec76,682538037049a7c6aa729e0f,2025-05-14_20h41.30.465,cuing_paradigm_dot,2024.1.5,Win32,60.24096386,68242c07d0c0e200c6451fdd,,,,,,,,,,,460.486,460.9842,,,461.2357,462.0513,right,,,,,,,,0.5,0.8027,,,,,,,460.9844,461.2355,462.0514,463.1509,0,98,98,114,1,,,,,,,
,,,,,,,60fa23798a416fb0d9e4ec76,682538037049a7c6aa729e0f,2025-05-14_20h41.30.465,cuing_paradigm_dot,2024.1.5,Win32,60.24096386,68242c07d0c0e200c6451fdd,,,,,,,,,,,463.1526,463.6507,,,463.9023,464.6845,right,,,,,,,,0.45,0.7699,,,,,,,463.6509,463.9021,464.6846,465.7841,0,99,99,73,1,,,,,,,
,,,,,,,60fa23798a416fb0d9e4ec76,682538037049a7c6aa729e0f,2025-05-14_20h41.30.465,cuing_paradigm_dot,2024.1.5,Win32,60.24096386,68242c07d0c0e200c6451fdd,,,,,,,,,,,465.786,466.2841,,,466.5365,467.2679,right,,,,,,,,0.6,0.719,,,,,,,466.2842,466.5363,467.268,468.3676,0,100,100,164,1,,,,,,,
,,,,,,,60fa23798a416fb0d9e4ec76,682538037049a7c6aa729e0f,2025-05-14_20h41.30.465,cuing_paradigm_dot,2024.1.5,Win32,60.24096386,68242c07d0c0e200c6451fdd,,,,,,,,,,,468.3691,468.8672,,,469.1184,469.8675,right,,,,,,,,0.45,0.7375,,,,,,,468.8673,469.1182,469.8682,470.9671,0,101,101,77,1,,,,,,,
,,,,,,,60fa23798a416fb0d9e4ec76,682538037049a7c6aa729e0f,2025-05-14_20h41.30.465,cuing_paradigm_dot,2024.1.5,Win32,60.24096386,68242c07d0c0e200c6451fdd,,,,,,,,,,,470.9689,471.4674,,,471.7192,472.3518,right,,,,,,,,0.45,0.6186,,,,,,,471.4675,471.7191,472.3519,473.4511,0,102,102,82,1,,,,,,,
,,,,,,,60fa23798a416fb0d9e4ec76,682538037049a7c6aa729e0f,2025-05-14_20h41.30.465,cuing_paradigm_dot,2024.1.5,Win32,60.24096386,68242c07d0c0e200c6451fdd,,,,,,,,,,,473.4526,473.951,,,474.2014,474.9511,left,,,,,,,,0.4,0.7367,,,,,,,473.9515,474.2013,474.9512,476.0503,0,103,103,52,1,,,,,,,
,,,,,,,60fa23798a416fb0d9e4ec76,682538037049a7c6aa729e0f,2025-05-14_20h41.30.465,cuing_paradigm_dot,2024.1.5,Win32,60.24096386,68242c07d0c0e200c6451fdd,,,,,,,,,,,476.0528,476.5502,,,476.804,477.3511,right,,,,,,,,0.6,0.5355,,,,,,,476.5504,476.804,477.3515,478.4505,0,104,104,154,1,,,,,,,
,,,,,,,60fa23798a416fb0d9e4ec76,682538037049a7c6aa729e0f,2025-05-14_20h41.30.465,cuing_paradigm_dot,2024.1.5,Win32,60.24096386,68242c07d0c0e200c6451fdd,,,,,,,,,,,478.452,478.9508,,,479.2016,480.0169,right,,,,,,,,0.9,0.8035,,,,,,,478.951,479.2015,480.0172,481.1167,0,105,105,207,1,,,,,,,
,,,,,,,60fa23798a416fb0d9e4ec76,682538037049a7c6aa729e0f,2025-05-14_20h41.30.465,cuing_paradigm_dot,2024.1.5,Win32,60.24096386,68242c07d0c0e200c6451fdd,,,,,,,,,,,481.1177,481.6178,,,481.8685,482.7187,right,,,,,,,,0.55,0.8383,,,,,,,481.6183,481.8683,482.7188,483.8188,0,106,106,131,1,,,,,,,
,,,,,,,60fa23798a416fb0d9e4ec76,682538037049a7c6aa729e0f,2025-05-14_20h41.30.465,cuing_paradigm_dot,2024.1.5,Win32,60.24096386,68242c07d0c0e200c6451fdd,,,,,,,,,,,483.8224,484.3174,,,484.5681,485.5167,right,,,,,,,,0.55,0.9382,,,,,,,484.3176,484.568,485.517,486.6248,0,107,107,149,1,,,,,,,
,,,,,,,60fa23798a416fb0d9e4ec76,682538037049a7c6aa729e0f,2025-05-14_20h41.30.465,cuing_paradigm_dot,2024.1.5,Win32,60.24096386,68242c07d0c0e200c6451fdd,,,,,,,,,,,486.6267,487.1168,,,487.3673,488.3334,right,,,,,,,,0.6,0.9501,,,,,,,487.1169,487.3673,488.3335,489.4329,0,108,108,175,1,,,,,,,
,,,,,,,60fa23798a416fb0d9e4ec76,682538037049a7c6aa729e0f,2025-05-14_20h41.30.465,cuing_paradigm_dot,2024.1.5,Win32,60.24096386,68242c07d0c0e200c6451fdd,,,,,,,,,,,489.4352,489.9329,,,490.1841,490.6675,right,,,,,,,,0.9,0.4708,,,,,,,489.9331,490.1839,490.6676,491.7661,0,109,109,206,1,,,,,,,
,,,,,,,60fa23798a416fb0d9e4ec76,682538037049a7c6aa729e0f,2025-05-14_20h41.30.465,cuing_paradigm_dot,2024.1.5,Win32,60.24096386,68242c07d0c0e200c6451fdd,,,,,,,,,,,491.7679,492.2666,,,492.5182,493.4831,right,,,,,,,,0.4,0.9525,,,,,,,492.2668,492.518,493.4835,494.5828,0,110,110,54,1,,,,,,,
,,,,,,,60fa23798a416fb0d9e4ec76,682538037049a7c6aa729e0f,2025-05-14_20h41.30.465,cuing_paradigm_dot,2024.1.5,Win32,60.24096386,68242c07d0c0e200c6451fdd,,,,,,,,,,,494.5857,495.0827,,,495.3362,496.2341,left,,,,,,,,0.55,0.8835,,,,,,,495.0829,495.3361,496.2342,497.3338,0,111,111,123,1,,,,,,,
,,,,,,,60fa23798a416fb0d9e4ec76,682538037049a7c6aa729e0f,2025-05-14_20h41.30.465,cuing_paradigm_dot,2024.1.5,Win32,60.24096386,68242c07d0c0e200c6451fdd,,,,,,,,,,,497.3354,497.8327,,,498.0831,498.7681,right,,,,,,,,0.9,0.669,,,,,,,497.8327,498.083,498.7682,499.8673,0,112,112,200,1,,,,,,,
,,,,,,,60fa23798a416fb0d9e4ec76,682538037049a7c6aa729e0f,2025-05-14_20h41.30.465,cuing_paradigm_dot,2024.1.5,Win32,60.24096386,68242c07d0c0e200c6451fdd,,,,,,,,,,,499.8687,500.3664,,,500.6179,501.6653,right,,,,,,,,0.5,1.0404,,,,,,,500.3665,500.6179,501.6655,502.7662,0,113,113,101,1,,,,,,,
,,,,,,,60fa23798a416fb0d9e4ec76,682538037049a7c6aa729e0f,2025-05-14_20h41.30.465,cuing_paradigm_dot,2024.1.5,Win32,60.24096386,68242c07d0c0e200c6451fdd,,,,,,,,,,,502.7673,503.266,,,503.5178,504.1825,left,,,,,,,,0.6,0.6531,,,,,,,503.2661,503.5177,504.1826,505.2826,0,114,114,178,1,,,,,,,
,,,,,,,60fa23798a416fb0d9e4ec76,682538037049a7c6aa729e0f,2025-05-14_20h41.30.465,cuing_paradigm_dot,2024.1.5,Win32,60.24096386,68242c07d0c0e200c6451fdd,,,,,,,,,,,505.2843,505.7822,,,506.0336,506.7337,right,,,,,,,,0.5,0.6891,,,,,,,505.7822,506.0334,506.7337,507.8321,0,115,115,112,1,,,,,,,
,,,,,,,60fa23798a416fb0d9e4ec76,682538037049a7c6aa729e0f,2025-05-14_20h41.30.465,cuing_paradigm_dot,2024.1.5,Win32,60.24096386,68242c07d0c0e200c6451fdd,,,,,,,,,,,507.8335,508.3327,,,508.583,509.399,right,,,,,,,,0.9,0.8051,,,,,,,508.3329,508.5829,509.399,510.4984,0,116,116,190,1,,,,,,,
,,,,,,,60fa23798a416fb0d9e4ec76,682538037049a7c6aa729e0f,2025-05-14_20h41.30.465,cuing_paradigm_dot,2024.1.5,Win32,60.24096386,68242c07d0c0e200c6451fdd,,,,,,,,,,,510.5004,510.9989,,,511.2498,512.1324,right,,,,,,,,0.55,0.8698,,,,,,,510.9989,511.2497,512.1326,513.2328,0,117,117,125,1,,,,,,,
,,,,,,,60fa23798a416fb0d9e4ec76,682538037049a7c6aa729e0f,2025-05-14_20h41.30.465,cuing_paradigm_dot,2024.1.5,Win32,60.24096386,68242c07d0c0e200c6451fdd,,,,,,,,,,,513.2341,513.7312,,,513.9825,514.6152,left,,,,,,,,0.45,0.6194,,,,,,,513.7313,513.9825,514.6152,515.7154,0,118,118,83,1,,,,,,,
,,,,,,,60fa23798a416fb0d9e4ec76,682538037049a7c6aa729e0f,2025-05-14_20h41.30.465,cuing_paradigm_dot,2024.1.5,Win32,60.24096386,68242c07d0c0e200c6451fdd,,,,,,,,,,,515.7176,516.2149,,,516.4669,517.0653,right,,,,,,,,0.6,0.586,,,,,,,516.215,516.4664,517.0657,518.165,0,119,119,170,1,,,,,,,
,,,,,,,60fa23798a416fb0d9e4ec76,682538037049a7c6aa729e0f,2025-05-14_20h41.30.465,cuing_paradigm_dot,2024.1.5,Win32,60.24096386,68242c07d0c0e200c6451fdd,,,,,,,,,,,518.1663,518.6643,,,518.9158,520.2155,left,,,,,,,,0.4,1.2864,,,,,,,518.6644,518.9157,520.2158,521.3157,0,120,120,30,1,,,,,,,
,,,,,,,60fa23798a416fb0d9e4ec76,682538037049a7c6aa729e0f,2025-05-14_20h41.30.465,cuing_paradigm_dot,2024.1.5,Win32,60.24096386,68242c07d0c0e200c6451fdd,,,,,,,,,,,521.3171,521.8153,,,522.0652,522.9325,left,,,,,,,,0.4,0.8536,,,,,,,521.8154,522.0651,522.9327,524.0314,0,121,121,39,1,,,,,,,
,,,,,,,60fa23798a416fb0d9e4ec76,682538037049a7c6aa729e0f,2025-05-14_20h41.30.465,cuing_paradigm_dot,2024.1.5,Win32,60.24096386,68242c07d0c0e200c6451fdd,,,,,,,,,,,524.0331,524.5317,,,524.7829,525.8814,right,,,,,,,,0.6,1.0857,,,,,,,524.5318,524.7827,525.8817,526.9815,0,122,122,166,1,,,,,,,
,,,,,,,60fa23798a416fb0d9e4ec76,682538037049a7c6aa729e0f,2025-05-14_20h41.30.465,cuing_paradigm_dot,2024.1.5,Win32,60.24096386,68242c07d0c0e200c6451fdd,,,,,,,,,,,526.9845,527.4811,,,527.7333,528.4647,left,,,,,,,,0.5,0.7211,,,,,,,527.4813,527.7332,528.4648,529.5641,0,123,123,102,1,,,,,,,
,,,,,,,60fa23798a416fb0d9e4ec76,682538037049a7c6aa729e0f,2025-05-14_20h41.30.465,cuing_paradigm_dot,2024.1.5,Win32,60.24096386,68242c07d0c0e200c6451fdd,,,,,,,,,,,529.5661,530.0644,,,530.3167,531.2983,right,,,,,,,,0.55,0.9661,,,,,,,530.0644,530.3166,531.2987,532.3977,0,124,124,128,1,,,,,,,
,,,,,,,60fa23798a416fb0d9e4ec76,682538037049a7c6aa729e0f,2025-05-14_20h41.30.465,cuing_paradigm_dot,2024.1.5,Win32,60.24096386,68242c07d0c0e200c6451fdd,,,,,,,,,,,532.3988,532.8979,,,533.1486,533.8658,left,,,,,,,,0.1,0.7039,,,,,,,532.898,533.1485,533.8658,534.964,0,125,125,22,1,,,,,,,
,,,,,,,60fa23798a416fb0d9e4ec76,682538037049a7c6aa729e0f,2025-05-14_20h41.30.465,cuing_paradigm_dot,2024.1.5,Win32,60.24096386,68242c07d0c0e200c6451fdd,,,,,,,,,,,534.9656,535.4644,,,535.715,536.4143,right,,,,,,,,0.6,0.6854,,,,,,,535.4645,535.715,536.4145,537.5149,0,126,126,152,1,,,,,,,
,,,,,,,60fa23798a416fb0d9e4ec76,682538037049a7c6aa729e0f,2025-05-14_20h41.30.465,cuing_paradigm_dot,2024.1.5,Win32,60.24096386,68242c07d0c0e200c6451fdd,,,,,,,,,,,537.5163,538.0137,,,538.2654,538.9804,left,,,,,,,,0.1,0.6975,,,,,,,538.0138,538.2654,538.9804,540.081,0,127,127,3,1,,,,,,,
,,,,,,,60fa23798a416fb0d9e4ec76,682538037049a7c6aa729e0f,2025-05-14_20h41.30.465,cuing_paradigm_dot,2024.1.5,Win32,60.24096386,68242c07d0c0e200c6451fdd,,,,,,,,,,,540.0825,540.5805,,,540.8321,541.3478,right,,,,,,,,0.55,0.5017,,,,,,,540.5806,540.832,541.3479,542.4481,0,128,128,147,1,,,,,,,
,,,,,,,60fa23798a416fb0d9e4ec76,682538037049a7c6aa729e0f,2025-05-14_20h41.30.465,cuing_paradigm_dot,2024.1.5,Win32,60.24096386,68242c07d0c0e200c6451fdd,,,,,,,,,,,542.4492,542.9475,,,543.1993,543.8809,left,,,,,,,,0.45,0.6677,,,,,,,542.9476,543.1993,543.8811,544.9804,0,129,129,86,1,,,,,,,
,,,,,,,60fa23798a416fb0d9e4ec76,682538037049a7c6aa729e0f,2025-05-14_20h41.30.465,cuing_paradigm_dot,2024.1.5,Win32,60.24096386,68242c07d0c0e200c6451fdd,,,,,,,,,,,544.9819,545.4802,,,545.7315,546.7306,left,,,,,,,,0.4,0.9862,,,,,,,545.4803,545.7314,546.7308,547.8305,0,130,130,51,1,,,,,,,
,,,,,,,60fa23798a416fb0d9e4ec76,682538037049a7c6aa729e0f,2025-05-14_20h41.30.465,cuing_paradigm_dot,2024.1.5,Win32,60.24096386,68242c07d0c0e200c6451fdd,,,,,,,,,,,547.8319,548.3305,,,548.5812,549.431,right,,,,,,,,0.4,0.8352,,,,,,,548.3305,548.5811,549.4312,550.5301,0,131,131,59,1,,,,,,,
,,,,,,,60fa23798a416fb0d9e4ec76,682538037049a7c6aa729e0f,2025-05-14_20h41.30.465,cuing_paradigm_dot,2024.1.5,Win32,60.24096386,68242c07d0c0e200c6451fdd,,,,,,,,,,,550.5316,551.0301,,,551.2818,551.8978,left,,,,,,,,0.1,0.6012,,,,,,,551.0303,551.2818,551.898,552.9969,0,132,132,23,1,,,,,,,
,,,,,,,60fa23798a416fb0d9e4ec76,682538037049a7c6aa729e0f,2025-05-14_20h41.30.465,cuing_paradigm_dot,2024.1.5,Win32,60.24096386,68242c07d0c0e200c6451fdd,,,,,,,,,,,552.9986,553.4971,,,553.7485,554.4639,right,,,,,,,,0.55,0.7052,,,,,,,553.4972,553.7485,554.464,555.5633,0,133,133,135,1,,,,,,,
,,,,,,,60fa23798a416fb0d9e4ec76,682538037049a7c6aa729e0f,2025-05-14_20h41.30.465,cuing_paradigm_dot,2024.1.5,Win32,60.24096386,68242c07d0c0e200c6451fdd,,,,,,,,,,,555.5651,556.0636,,,556.3149,557.0971,right,,,,,,,,0.55,0.77,,,,,,,556.0636,556.3148,557.0973,558.1967,0,134,134,134,1,,,,,,,
,,,,,,,60fa23798a416fb0d9e4ec76,682538037049a7c6aa729e0f,2025-05-14_20h41.30.465,cuing_paradigm_dot,2024.1.5,Win32,60.24096386,68242c07d0c0e200c6451fdd,,,,,,,,,,,558.1982,558.6966,,,558.9484,559.4969,left,,,,,,,,0.1,0.5379,,,,,,,558.6967,558.9479,559.4972,560.5964,0,135,135,18,1,,,,,,,
,,,,,,,60fa23798a416fb0d9e4ec76,682538037049a7c6aa729e0f,2025-05-14_20h41.30.465,cuing_paradigm_dot,2024.1.5,Win32,60.24096386,68242c07d0c0e200c6451fdd,,,,,,,,,,,560.5978,561.0967,,,561.3513,561.9469,right,,,,,,,,0.9,0.5783,,,,,,,561.0969,561.3512,561.947,563.0466,0,136,136,184,1,,,,,,,
,,,,,,,60fa23798a416fb0d9e4ec76,682538037049a7c6aa729e0f,2025-05-14_20h41.30.465,cuing_paradigm_dot,2024.1.5,Win32,60.24096386,68242c07d0c0e200c6451fdd,,,,,,,,,,,563.0484,563.5467,,,563.7978,564.4304,left,,,,,,,,0.45,0.6189,,,,,,,563.5468,563.7977,564.4304,565.5294,0,137,137,69,1,,,,,,,
,,,,,,,60fa23798a416fb0d9e4ec76,682538037049a7c6aa729e0f,2025-05-14_20h41.30.465,cuing_paradigm_dot,2024.1.5,Win32,60.24096386,68242c07d0c0e200c6451fdd,,,,,,,,,,,565.5308,566.0297,,,566.2815,567.3134,left,,,,,,,,0.45,1.0186,,,,,,,566.0297,566.2813,567.3139,568.4134,0,138,138,85,1,,,,,,,
,,,,,,,60fa23798a416fb0d9e4ec76,682538037049a7c6aa729e0f,2025-05-14_20h41.30.465,cuing_paradigm_dot,2024.1.5,Win32,60.24096386,68242c07d0c0e200c6451fdd,,,,,,,,,,,568.4153,568.9129,,,569.164,569.8799,left,,,,,,,,0.4,0.7032,,,,,,,568.9129,569.164,569.8801,570.9794,0,139,139,31,1,,,,,,,
,,,,,,,60fa23798a416fb0d9e4ec76,682538037049a7c6aa729e0f,2025-05-14_20h41.30.465,cuing_paradigm_dot,2024.1.5,Win32,60.24096386,68242c07d0c0e200c6451fdd,,,,,,,,,,,570.9811,571.4795,,,571.7311,572.5131,right,,,,,,,,0.4,0.7748,,,,,,,571.4796,571.7309,572.5132,573.6126,0,140,140,55,1,,,,,,,
,,,,,,,60fa23798a416fb0d9e4ec76,682538037049a7c6aa729e0f,2025-05-14_20h41.30.465,cuing_paradigm_dot,2024.1.5,Win32,60.24096386,68242c07d0c0e200c6451fdd,,,,,,,,,,,573.6145,574.1125,,,574.3639,575.0131,right,,,,,,,,0.5,0.6325,,,,,,,574.1126,574.3638,575.0134,576.1122,0,141,141,118,1,,,,,,,
,,,,,,,60fa23798a416fb0d9e4ec76,682538037049a7c6aa729e0f,2025-05-14_20h41.30.465,cuing_paradigm_dot,2024.1.5,Win32,60.24096386,68242c07d0c0e200c6451fdd,,,,,,,,,,,576.1133,576.6126,,,576.8643,577.4629,left,,,,,,,,0.6,0.583,,,,,,,576.6126,576.8642,577.463,578.5625,0,142,142,158,1,,,,,,,
,,,,,,,60fa23798a416fb0d9e4ec76,682538037049a7c6aa729e0f,2025-05-14_20h41.30.465,cuing_paradigm_dot,2024.1.5,Win32,60.24096386,68242c07d0c0e200c6451fdd,,,,,,,,,,,578.5643,579.0626,,,579.3137,579.9628,right,,,,,,,,0.6,0.6354,,,,,,,579.0628,579.3137,579.9635,581.0623,0,143,143,172,1,,,,,,,
,,,,,,,60fa23798a416fb0d9e4ec76,682538037049a7c6aa729e0f,2025-05-14_20h41.30.465,cuing_paradigm_dot,2024.1.5,Win32,60.24096386,68242c07d0c0e200c6451fdd,,,,,,,,,,,581.064,581.5626,,,581.8137,582.2626,left,,,,,,,,0.55,0.4348,,,,,,,581.5627,581.8136,582.2627,583.3624,0,144,144,145,1,,,,,,,
,,,,,,,60fa23798a416fb0d9e4ec76,682538037049a7c6aa729e0f,2025-05-14_20h41.30.465,cuing_paradigm_dot,2024.1.5,Win32,60.24096386,68242c07d0c0e200c6451fdd,,,,,,,,,,,583.364,583.8626,,,584.1144,584.8308,left,,,,,,,,0.4,0.7011,,,,,,,583.8626,584.1143,584.8309,585.9288,0,145,145,34,1,,,,,,,
,,,,,,,60fa23798a416fb0d9e4ec76,682538037049a7c6aa729e0f,2025-05-14_20h41.30.465,cuing_paradigm_dot,2024.1.5,Win32,60.24096386,68242c07d0c0e200c6451fdd,,,,,,,,,,,585.9302,586.4285,,,586.6801,587.2797,right,,,,,,,,0.45,0.5852,,,,,,,586.4287,586.68,587.2798,588.3786,0,146,146,78,1,,,,,,,
,,,,,,,60fa23798a416fb0d9e4ec76,682538037049a7c6aa729e0f,2025-05-14_20h41.30.465,cuing_paradigm_dot,2024.1.5,Win32,60.24096386,68242c07d0c0e200c6451fdd,,,,,,,,,,,588.3807,588.8786,,,589.1296,589.7625,left,,,,,,,,0.5,0.6172,,,,,,,588.8788,589.1295,589.7626,590.8618,0,147,147,99,1,,,,,,,
,,,,,,,60fa23798a416fb0d9e4ec76,682538037049a7c6aa729e0f,2025-05-14_20h41.30.465,cuing_paradigm_dot,2024.1.5,Win32,60.24096386,68242c07d0c0e200c6451fdd,,,,,,,,,,,590.8636,591.3618,,,591.6131,592.9287,right,,,,,,,,0.5,1.3044,,,,,,,591.3619,591.613,592.9288,594.0283,0,148,148,93,1,,,,,,,
,,,,,,,60fa23798a416fb0d9e4ec76,682538037049a7c6aa729e0f,2025-05-14_20h41.30.465,cuing_paradigm_dot,2024.1.5,Win32,60.24096386,68242c07d0c0e200c6451fdd,,,,,,,,,,,594.0301,594.5281,,,594.7805,595.6961,left,,,,,,,,0.5,0.9048,,,,,,,594.5282,594.7804,595.6963,596.7954,0,149,149,115,1,,,,,,,
,,,,,,,60fa23798a416fb0d9e4ec76,682538037049a7c6aa729e0f,2025-05-14_20h41.30.465,cuing_paradigm_dot,2024.1.5,Win32,60.24096386,68242c07d0c0e200c6451fdd,,,,,,,,,,,596.7971,597.2958,,,597.5461,599.0451,,,,,,,,,0.45,,,,,,,,597.296,597.5459,599.0452,600.1448,0,150,150,61,1,,,,,,,
,,,,,,,60fa23798a416fb0d9e4ec76,682538037049a7c6aa729e0f,2025-05-14_20h41.30.465,cuing_paradigm_dot,2024.1.5,Win32,60.24096386,68242c07d0c0e200c6451fdd,,,,,,,,,,,600.1466,600.6447,,,600.896,601.5118,right,,,,,,,,0.9,0.6075,,,,,,,600.6448,600.8958,601.5119,602.6114,0,151,151,188,1,,,,,,,
,,,,,,,60fa23798a416fb0d9e4ec76,682538037049a7c6aa729e0f,2025-05-14_20h41.30.465,cuing_paradigm_dot,2024.1.5,Win32,60.24096386,68242c07d0c0e200c6451fdd,,,,,,,,,,,602.6128,603.1114,,,603.3636,603.8958,left,,,,,,,,0.1,0.5156,,,,,,,603.1116,603.3634,603.896,604.9943,0,152,152,27,1,,,,,,,
,,,,,,,60fa23798a416fb0d9e4ec76,682538037049a7c6aa729e0f,2025-05-14_20h41.30.465,cuing_paradigm_dot,2024.1.5,Win32,60.24096386,68242c07d0c0e200c6451fdd,,,,,,,,,,,604.9964,605.4946,,,605.7462,606.128,left,,,,,,,,0.55,0.3679,,,,,,,605.4947,605.746,606.1282,607.2277,0,153,153,129,1,,,,,,,
,,,,,,,60fa23798a416fb0d9e4ec76,682538037049a7c6aa729e0f,2025-05-14_20h41.30.465,cuing_paradigm_dot,2024.1.5,Win32,60.24096386,68242c07d0c0e200c6451fdd,,,,,,,,,,,607.2294,607.7278,,,607.9794,608.894,left,,,,,,,,0.6,0.9061,,,,,,,607.7278,607.9793,608.894,609.9934,0,154,154,150,1,,,,,,,
,,,,,,,60fa23798a416fb0d9e4ec76,682538037049a7c6aa729e0f,2025-05-14_20h41.30.465,cuing_paradigm_dot,2024.1.5,Win32,60.24096386,68242c07d0c0e200c6451fdd,,,,,,,,,,,609.9941,610.494,,,610.7453,611.5277,left,,,,,,,,0.4,0.7669,,,,,,,610.494,610.7452,611.5278,612.627,0,155,155,44,1,,,,,,,
,,,,,,,60fa23798a416fb0d9e4ec76,682538037049a7c6aa729e0f,2025-05-14_20h41.30.465,cuing_paradigm_dot,2024.1.5,Win32,60.24096386,68242c07d0c0e200c6451fdd,,,,,,,,,,,612.6282,613.1269,,,613.3784,613.8112,right,,,,,,,,0.5,0.4182,,,,,,,613.127,613.3784,613.8114,614.9104,0,156,156,111,1,,,,,,,
,,,,,,,60fa23798a416fb0d9e4ec76,682538037049a7c6aa729e0f,2025-05-14_20h41.30.465,cuing_paradigm_dot,2024.1.5,Win32,60.24096386,68242c07d0c0e200c6451fdd,,,,,,,,,,,614.912,615.4107,,,615.6619,616.7442,left,,,,,,,,0.45,1.0677,,,,,,,615.4108,615.6618,616.7443,617.8437,0,157,157,76,1,,,,,,,
,,,,,,,60fa23798a416fb0d9e4ec76,682538037049a7c6aa729e0f,2025-05-14_20h41.30.465,cuing_paradigm_dot,2024.1.5,Win32,60.24096386,68242c07d0c0e200c6451fdd,,,,,,,,,,,617.8453,618.3441,,,618.5951,619.3279,left,,,,,,,,0.4,0.7189,,,,,,,618.3443,618.5949,619.328,620.4271,0,158,158,36,1,,,,,,,
,,,,,,,60fa23798a416fb0d9e4ec76,682538037049a7c6aa729e0f,2025-05-14_20h41.30.465,cuing_paradigm_dot,2024.1.5,Win32,60.24096386,68242c07d0c0e200c6451fdd,,,,,,,,,,,620.4287,620.9271,,,621.1787,621.8275,right,,,,,,,,0.9,0.6351,,,,,,,620.9272,621.1786,621.8276,622.927,0,159,159,199,1,,,,,,,
,,,,,,,60fa23798a416fb0d9e4ec76,682538037049a7c6aa729e0f,2025-05-14_20h41.30.465,cuing_paradigm_dot,2024.1.5,Win32,60.24096386,68242c07d0c0e200c6451fdd,,,,,,,,,,,622.9287,623.427,,,623.6783,624.1941,right,,,,,,,,0.9,0.5,,,,,,,623.4271,623.6783,624.1942,625.2935,0,160,160,209,1,,,,,,,
,,,,,,,60fa23798a416fb0d9e4ec76,682538037049a7c6aa729e0f,2025-05-14_20h41.30.465,cuing_paradigm_dot,2024.1.5,Win32,60.24096386,68242c07d0c0e200c6451fdd,,,,,,,,,,,625.2949,625.7938,,,626.0452,626.8607,left,,,,,,,,0.5,0.8055,,,,,,,625.794,626.0452,626.8608,627.9604,0,161,161,108,1,,,,,,,
,,,,,,,60fa23798a416fb0d9e4ec76,682538037049a7c6aa729e0f,2025-05-14_20h41.30.465,cuing_paradigm_dot,2024.1.5,Win32,60.24096386,68242c07d0c0e200c6451fdd,,,,,,,,,,,627.9621,628.4601,,,628.7115,629.4944,left,,,,,,,,0.1,0.7747,,,,,,,628.4601,628.7113,629.4947,630.5933,0,162,162,26,1,,,,,,,
,,,,,,,60fa23798a416fb0d9e4ec76,682538037049a7c6aa729e0f,2025-05-14_20h41.30.465,cuing_paradigm_dot,2024.1.5,Win32,60.24096386,68242c07d0c0e200c6451fdd,,,,,,,,,,,630.5951,631.0935,,,631.3447,632.6771,right,,,,,,,,0.6,1.3161,,,,,,,631.0935,631.3445,632.6774,633.7767,0,163,163,155,1,,,,,,,
,,,,,,,60fa23798a416fb0d9e4ec76,682538037049a7c6aa729e0f,2025-05-14_20h41.30.465,cuing_paradigm_dot,2024.1.5,Win32,60.24096386,68242c07d0c0e200c6451fdd,,,,,,,,,,,633.7784,634.2767,,,634.5279,635.5258,left,,,,,,,,0.55,0.9824,,,,,,,634.2768,634.5278,635.5259,636.6268,0,164,164,133,1,,,,,,,
,,,,,,,60fa23798a416fb0d9e4ec76,682538037049a7c6aa729e0f,2025-05-14_20h41.30.465,cuing_paradigm_dot,2024.1.5,Win32,60.24096386,68242c07d0c0e200c6451fdd,,,,,,,,,,,636.6284,637.1264,,,637.3779,638.4452,left,,,,,,,,0.6,1.0589,,,,,,,637.1265,637.3777,638.4453,639.5427,0,165,165,161,1,,,,,,,
,,,,,,,60fa23798a416fb0d9e4ec76,682538037049a7c6aa729e0f,2025-05-14_20h41.30.465,cuing_paradigm_dot,2024.1.5,Win32,60.24096386,68242c07d0c0e200c6451fdd,,,,,,,,,,,639.5445,640.0428,,,640.2941,640.9598,right,,,,,,,,0.55,0.6544,,,,,,,640.043,640.294,640.9602,642.0596,0,166,166,148,1,,,,,,,
,,,,,,,60fa23798a416fb0d9e4ec76,682538037049a7c6aa729e0f,2025-05-14_20h41.30.465,cuing_paradigm_dot,2024.1.5,Win32,60.24096386,68242c07d0c0e200c6451fdd,,,,,,,,,,,642.0613,642.5597,,,642.8107,643.4596,right,,,,,,,,0.9,0.6347,,,,,,,642.5597,642.8107,643.4598,644.5596,0,167,167,183,1,,,,,,,
,,,,,,,60fa23798a416fb0d9e4ec76,682538037049a7c6aa729e0f,2025-05-14_20h41.30.465,cuing_paradigm_dot,2024.1.5,Win32,60.24096386,68242c07d0c0e200c6451fdd,,,,,,,,,,,644.5611,645.0598,,,645.3198,645.8594,left,,,,,,,,0.45,0.5323,,,,,,,645.0598,645.3196,645.8596,646.9591,0,168,168,80,1,,,,,,,
,,,,,,,60fa23798a416fb0d9e4ec76,682538037049a7c6aa729e0f,2025-05-14_20h41.30.465,cuing_paradigm_dot,2024.1.5,Win32,60.24096386,68242c07d0c0e200c6451fdd,,,,,,,,,,,646.9606,647.4594,,,647.7102,648.476,left,,,,,,,,0.45,0.7558,,,,,,,647.4596,647.7101,648.476,649.5756,0,169,169,72,1,,,,,,,
,,,,,,,60fa23798a416fb0d9e4ec76,682538037049a7c6aa729e0f,2025-05-14_20h41.30.465,cuing_paradigm_dot,2024.1.5,Win32,60.24096386,68242c07d0c0e200c6451fdd,,,,,,,,,,,649.5772,650.075,,,650.3269,651.0591,left,,,,,,,,0.1,0.7222,,,,,,,650.0751,650.3268,651.0594,652.159,0,170,170,5,1,,,,,,,
,,,,,,,60fa23798a416fb0d9e4ec76,682538037049a7c6aa729e0f,2025-05-14_20h41.30.465,cuing_paradigm_dot,2024.1.5,Win32,60.24096386,68242c07d0c0e200c6451fdd,,,,,,,,,,,652.1605,652.6588,,,652.9103,653.4424,right,,,,,,,,0.45,0.5169,,,,,,,652.6589,652.9103,653.4426,654.5424,0,171,171,62,1,,,,,,,
,,,,,,,60fa23798a416fb0d9e4ec76,682538037049a7c6aa729e0f,2025-05-14_20h41.30.465,cuing_paradigm_dot,2024.1.5,Win32,60.24096386,68242c07d0c0e200c6451fdd,,,,,,,,,,,654.5438,655.0423,,,655.2933,656.2259,left,,,,,,,,0.4,0.9164,,,,,,,655.0425,655.2932,656.226,657.3254,0,172,172,47,1,,,,,,,
,,,,,,,60fa23798a416fb0d9e4ec76,682538037049a7c6aa729e0f,2025-05-14_20h41.30.465,cuing_paradigm_dot,2024.1.5,Win32,60.24096386,68242c07d0c0e200c6451fdd,,,,,,,,,,,657.3272,657.8254,,,658.0772,658.7586,right,,,,,,,,0.5,0.6716,,,,,,,657.8254,658.0769,658.7588,659.8584,0,173,173,110,1,,,,,,,
,,,,,,,60fa23798a416fb0d9e4ec76,682538037049a7c6aa729e0f,2025-05-14_20h41.30.465,cuing_paradigm_dot,2024.1.5,Win32,60.24096386,68242c07d0c0e200c6451fdd,,,,,,,,,,,659.8598,660.3586,,,660.6098,661.8257,left,,,,,,,,0.1,1.2008,,,,,,,660.3589,660.6098,661.8259,662.9254,0,174,174,29,1,,,,,,,
,,,,,,,60fa23798a416fb0d9e4ec76,682538037049a7c6aa729e0f,2025-05-14_20h41.30.465,cuing_paradigm_dot,2024.1.5,Win32,60.24096386,68242c07d0c0e200c6451fdd,,,,,,,,,,,662.9271,663.4247,,,663.677,664.2752,left,,,,,,,,0.1,0.588,,,,,,,663.4248,663.6769,664.2753,665.3751,0,175,175,7,1,,,,,,,
,,,,,,,60fa23798a416fb0d9e4ec76,682538037049a7c6aa729e0f,2025-05-14_20h41.30.465,cuing_paradigm_dot,2024.1.5,Win32,60.24096386,68242c07d0c0e200c6451fdd,,,,,,,,,,,665.3768,665.8749,,,666.1264,666.8084,right,,,,,,,,0.4,0.6733,,,,,,,665.8749,666.1263,666.8085,667.9078,0,176,176,53,1,,,,,,,
,,,,,,,60fa23798a416fb0d9e4ec76,682538037049a7c6aa729e0f,2025-05-14_20h41.30.465,cuing_paradigm_dot,2024.1.5,Win32,60.24096386,68242c07d0c0e200c6451fdd,,,,,,,,,,,667.9095,668.408,,,668.6598,669.2249,left,,,,,,,,0.45,0.553,,,,,,,668.4083,668.6596,669.2251,670.3252,0,177,177,81,1,,,,,,,
,,,,,,,60fa23798a416fb0d9e4ec76,682538037049a7c6aa729e0f,2025-05-14_20h41.30.465,cuing_paradigm_dot,2024.1.5,Win32,60.24096386,68242c07d0c0e200c6451fdd,,,,,,,,,,,670.3268,670.8249,,,671.0763,671.9425,left,,,,,,,,0.1,0.8515,,,,,,,670.8251,671.0762,671.9425,673.0414,0,178,178,20,1,,,,,,,
,,,,,,,60fa23798a416fb0d9e4ec76,682538037049a7c6aa729e0f,2025-05-14_20h41.30.465,cuing_paradigm_dot,2024.1.5,Win32,60.24096386,68242c07d0c0e200c6451fdd,,,,,,,,,,,673.043,673.5415,,,673.7924,674.1917,left,,,,,,,,0.1,0.384,,,,,,,673.5416,673.7923,674.1919,675.2914,0,179,179,14,1,,,,,,,
,,,,,,,60fa23798a416fb0d9e4ec76,682538037049a7c6aa729e0f,2025-05-14_20h41.30.465,cuing_paradigm_dot,2024.1.5,Win32,60.24096386,68242c07d0c0e200c6451fdd,,,,,,,,,,,675.2931,675.7912,,,676.0427,676.4083,left,,,,,,,,0.1,0.3504,,,,,,,675.7914,676.0426,676.4084,677.508,0,180,180,2,1,,,,,,,
,,,,,,,60fa23798a416fb0d9e4ec76,682538037049a7c6aa729e0f,2025-05-14_20h41.30.465,cuing_paradigm_dot,2024.1.5,Win32,60.24096386,68242c07d0c0e200c6451fdd,,,,,,,,,,,677.5097,678.0079,,,678.2589,678.6913,right,,,,,,,,0.9,0.4167,,,,,,,678.008,678.2589,678.6916,679.791,0,181,181,208,1,,,,,,,
,,,,,,,60fa23798a416fb0d9e4ec76,682538037049a7c6aa729e0f,2025-05-14_20h41.30.465,cuing_paradigm_dot,2024.1.5,Win32,60.24096386,68242c07d0c0e200c6451fdd,,,,,,,,,,,679.7929,680.2911,,,680.5432,681.2769,right,,,,,,,,0.5,0.7256,,,,,,,680.2913,680.5431,681.277,682.3758,0,182,182,105,1,,,,,,,
,,,,,,,60fa23798a416fb0d9e4ec76,682538037049a7c6aa729e0f,2025-05-14_20h41.30.465,cuing_paradigm_dot,2024.1.5,Win32,60.24096386,68242c07d0c0e200c6451fdd,,,,,,,,,,,682.3773,682.8754,,,683.1257,684.0912,left,,,,,,,,0.1,0.9496,,,,,,,682.8755,683.1255,684.0917,685.1909,0,183,183,10,1,,,,,,,
,,,,,,,60fa23798a416fb0d9e4ec76,682538037049a7c6aa729e0f,2025-05-14_20h41.30.465,cuing_paradigm_dot,2024.1.5,Win32,60.24096386,68242c07d0c0e200c6451fdd,,,,,,,,,,,685.1928,685.6909,,,685.9428,687.141,right,,,,,,,,0.6,1.1841,,,,,,,685.6911,685.9426,687.1411,688.2403,0,184,184,156,1,,,,,,,
,,,,,,,60fa23798a416fb0d9e4ec76,682538037049a7c6aa729e0f,2025-05-14_20h41.30.465,cuing_paradigm_dot,2024.1.5,Win32,60.24096386,68242c07d0c0e200c6451fdd,,,,,,,,,,,688.2423,688.7402,,,688.9917,689.8735,left,,,,,,,,0.5,0.8664,,,,,,,688.7403,688.9917,689.8736,690.9741,0,185,185,107,1,,,,,,,
,,,,,,,60fa23798a416fb0d9e4ec76,682538037049a7c6aa729e0f,2025-05-14_20h41.30.465,cuing_paradigm_dot,2024.1.5,Win32,60.24096386,68242c07d0c0e200c6451fdd,,,,,,,,,,,690.9753,691.4742,,,691.7254,692.475,right,,,,,,,,0.45,0.7344,,,,,,,691.4743,691.7254,692.4751,693.5742,0,186,186,79,1,,,,,,,
,,,,,,,60fa23798a416fb0d9e4ec76,682538037049a7c6aa729e0f,2025-05-14_20h41.30.465,cuing_paradigm_dot,2024.1.5,Win32,60.24096386,68242c07d0c0e200c6451fdd,,,,,,,,,,,693.5753,694.0741,,,694.3254,695.3917,left,,,,,,,,0.6,1.0516,,,,,,,694.0744,694.3253,695.3918,696.4909,0,187,187,153,1,,,,,,,
,,,,,,,60fa23798a416fb0d9e4ec76,682538037049a7c6aa729e0f,2025-05-14_20h41.30.465,cuing_paradigm_dot,2024.1.5,Win32,60.24096386,68242c07d0c0e200c6451fdd,,,,,,,,,,,696.4927,696.9912,,,697.2416,698.0748,right,,,,,,,,0.55,0.819,,,,,,,696.9915,697.2415,698.0749,699.1739,0,188,188,138,1,,,,,,,
,,,,,,,60fa23798a416fb0d9e4ec76,682538037049a7c6aa729e0f,2025-05-14_20h41.30.465,cuing_paradigm_dot,2024.1.5,Win32,60.24096386,68242c07d0c0e200c6451fdd,,,,,,,,,,,699.1756,699.6737,,,699.9248,700.6404,left,,,,,,,,0.5,0.7032,,,,,,,699.6738,699.9246,700.6408,701.74,0,189,189,96,1,,,,,,,
,,,,,,,60fa23798a416fb0d9e4ec76,682538037049a7c6aa729e0f,2025-05-14_20h41.30.465,cuing_paradigm_dot,2024.1.5,Win32,60.24096386,68242c07d0c0e200c6451fdd,,,,,,,,,,,701.7417,702.2399,,,702.4914,703.8236,right,,,,,,,,0.45,1.319,,,,,,,702.2402,702.4914,703.8238,704.9233,0,190,190,66,1,,,,,,,
,,,,,,,60fa23798a416fb0d9e4ec76,682538037049a7c6aa729e0f,2025-05-14_20h41.30.465,cuing_paradigm_dot,2024.1.5,Win32,60.24096386,68242c07d0c0e200c6451fdd,,,,,,,,,,,704.9251,705.4232,,,705.6745,706.2746,left,,,,,,,,0.1,0.5858,,,,,,,705.4232,705.6745,706.2749,707.3731,0,191,191,21,1,,,,,,,
,,,,,,,60fa23798a416fb0d9e4ec76,682538037049a7c6aa729e0f,2025-05-14_20h41.30.465,cuing_paradigm_dot,2024.1.5,Win32,60.24096386,68242c07d0c0e200c6451fdd,,,,,,,,,,,707.3748,707.873,,,708.1247,708.7733,right,,,,,,,,0.4,0.6381,,,,,,,707.8732,708.1247,708.7736,709.8729,0,192,192,43,1,,,,,,,
,,,,,,,60fa23798a416fb0d9e4ec76,682538037049a7c6aa729e0f,2025-05-14_20h41.30.465,cuing_paradigm_dot,2024.1.5,Win32,60.24096386,68242c07d0c0e200c6451fdd,,,,,,,,,,,709.8746,710.3729,,,710.6243,711.3242,left,,,,,,,,0.1,0.685,,,,,,,710.3729,710.6242,711.3245,712.423,0,193,193,16,1,,,,,,,
,,,,,,,60fa23798a416fb0d9e4ec76,682538037049a7c6aa729e0f,2025-05-14_20h41.30.465,cuing_paradigm_dot,2024.1.5,Win32,60.24096386,68242c07d0c0e200c6451fdd,,,,,,,,,,,712.4248,712.9225,,,713.1745,714.1732,left,,,,,,,,0.4,0.9845,,,,,,,712.9225,713.1744,714.1737,715.2727,0,194,194,37,1,,,,,,,
,,,,,,,60fa23798a416fb0d9e4ec76,682538037049a7c6aa729e0f,2025-05-14_20h41.30.465,cuing_paradigm_dot,2024.1.5,Win32,60.24096386,68242c07d0c0e200c6451fdd,,,,,,,,,,,715.2744,715.7727,,,716.0242,716.6232,right,,,,,,,,0.9,0.5852,,,,,,,715.7728,716.0241,716.6235,717.7227,0,195,195,196,1,,,,,,,
,,,,,,,60fa23798a416fb0d9e4ec76,682538037049a7c6aa729e0f,2025-05-14_20h41.30.465,cuing_paradigm_dot,2024.1.5,Win32,60.24096386,68242c07d0c0e200c6451fdd,,,,,,,,,,,717.7245,718.2225,,,718.474,719.2396,left,,,,,,,,0.5,0.7504,,,,,,,718.2226,718.474,719.2397,720.3394,0,196,196,116,1,,,,,,,
,,,,,,,60fa23798a416fb0d9e4ec76,682538037049a7c6aa729e0f,2025-05-14_20h41.30.465,cuing_paradigm_dot,2024.1.5,Win32,60.24096386,68242c07d0c0e200c6451fdd,,,,,,,,,,,720.3412,720.8391,,,721.0902,721.7394,right,,,,,,,,0.45,0.6337,,,,,,,720.8392,721.0902,721.7394,722.839,0,197,197,87,1,,,,,,,
,,,,,,,60fa23798a416fb0d9e4ec76,682538037049a7c6aa729e0f,2025-05-14_20h41.30.465,cuing_paradigm_dot,2024.1.5,Win32,60.24096386,68242c07d0c0e200c6451fdd,,,,,,,,,,,722.8409,723.3391,,,723.5904,724.2895,left,,,,,,,,0.6,0.6856,,,,,,,723.3392,723.5903,724.2896,725.389,0,198,198,173,1,,,,,,,
,,,,,,,60fa23798a416fb0d9e4ec76,682538037049a7c6aa729e0f,2025-05-14_20h41.30.465,cuing_paradigm_dot,2024.1.5,Win32,60.24096386,68242c07d0c0e200c6451fdd,,,,,,,,,,,725.3906,725.8889,,,726.1401,726.8059,right,,,,,,,,0.45,0.6518,,,,,,,725.8889,726.14,726.8061,727.906,0,199,199,65,1,,,,,,,
,,,,,,,60fa23798a416fb0d9e4ec76,682538037049a7c6aa729e0f,2025-05-14_20h41.30.465,cuing_paradigm_dot,2024.1.5,Win32,60.24096386,68242c07d0c0e200c6451fdd,,,,,,,,,,,727.9076,728.4059,,,728.6578,729.5232,left,,,,,,,,0.1,0.8513,,,,,,,728.4061,728.6578,729.5237,730.6227,0,200,200,19,1,,,,,,,
,,,,,,,60fa23798a416fb0d9e4ec76,682538037049a7c6aa729e0f,2025-05-14_20h41.30.465,cuing_paradigm_dot,2024.1.5,Win32,60.24096386,68242c07d0c0e200c6451fdd,,,,,,,,,,,730.6244,731.1228,,,731.3734,732.2893,right,,,,,,,,0.5,0.9033,,,,,,,731.1229,731.3733,732.2894,733.3883,0,201,201,92,1,,,,,,,
,,,,,,,60fa23798a416fb0d9e4ec76,682538037049a7c6aa729e0f,2025-05-14_20h41.30.465,cuing_paradigm_dot,2024.1.5,Win32,60.24096386,68242c07d0c0e200c6451fdd,,,,,,,,,,,733.3902,733.8887,,,734.1401,734.9065,left,,,,,,,,0.4,0.7507,,,,,,,733.8889,734.1398,734.9067,736.0056,0,202,202,42,1,,,,,,,
,,,,,,,60fa23798a416fb0d9e4ec76,682538037049a7c6aa729e0f,2025-05-14_20h41.30.465,cuing_paradigm_dot,2024.1.5,Win32,60.24096386,68242c07d0c0e200c6451fdd,,,,,,,,,,,736.0073,736.5063,,,736.757,737.4226,left,,,,,,,,0.5,0.6515,,,,,,,736.5063,736.757,737.4227,738.5226,0,203,203,98,1,,,,,,,
,,,,,,,60fa23798a416fb0d9e4ec76,682538037049a7c6aa729e0f,2025-05-14_20h41.30.465,cuing_paradigm_dot,2024.1.5,Win32,60.24096386,68242c07d0c0e200c6451fdd,,,,,,,,,,,738.5243,739.0221,,,739.2729,740.1218,left,,,,,,,,0.4,0.8388,,,,,,,739.0222,739.2728,740.1219,741.2213,0,204,204,50,1,,,,,,,
,,,,,,,60fa23798a416fb0d9e4ec76,682538037049a7c6aa729e0f,2025-05-14_20h41.30.465,cuing_paradigm_dot,2024.1.5,Win32,60.24096386,68242c07d0c0e200c6451fdd,,,,,,,,,,,741.223,741.7211,,,741.9732,743.4717,,,,,,,,,0.4,,,,,,,,741.7213,741.9732,743.4717,744.5712,0,205,205,49,1,,,,,,,
,,,,,,,60fa23798a416fb0d9e4ec76,682538037049a7c6aa729e0f,2025-05-14_20h41.30.465,cuing_paradigm_dot,2024.1.5,Win32,60.24096386,68242c07d0c0e200c6451fdd,,,,,,,,,,,744.5728,745.0716,,,745.3227,746.8214,,,,,,,,,0.45,,,,,,,,745.0717,745.3226,746.8216,747.9211,0,206,206,60,1,,,,,,,
,,,,,,,60fa23798a416fb0d9e4ec76,682538037049a7c6aa729e0f,2025-05-14_20h41.30.465,cuing_paradigm_dot,2024.1.5,Win32,60.24096386,68242c07d0c0e200c6451fdd,,,,,,,,,,,747.9229,748.4212,,,748.673,750.1715,,,,,,,,,0.5,,,,,,,,748.4213,748.6728,750.1715,751.2716,0,207,207,95,1,,,,,,,
,,,,,,,60fa23798a416fb0d9e4ec76,682538037049a7c6aa729e0f,2025-05-14_20h41.30.465,cuing_paradigm_dot,2024.1.5,Win32,60.24096386,68242c07d0c0e200c6451fdd,,,,,,,,,,,751.2727,751.7712,,,752.0223,753.5222,,,,,,,,,0.6,,,,,,,,751.7713,752.0223,753.5223,754.6215,0,208,208,151,1,,,,,,,
,,,,,,,60fa23798a416fb0d9e4ec76,682538037049a7c6aa729e0f,2025-05-14_20h41.30.465,cuing_paradigm_dot,2024.1.5,Win32,60.24096386,68242c07d0c0e200c6451fdd,,,,,,,,,,,754.6228,755.1212,,,755.3725,756.1226,left,,,,,,,,0.6,0.7352,,,,,,,755.1214,755.3725,756.1228,757.2214,0,209,209,159,1,,,,,,,
,,,,,,,60fa23798a416fb0d9e4ec76,682538037049a7c6aa729e0f,2025-05-14_20h41.30.465,cuing_paradigm_dot,2024.1.5,Win32,60.24096386,68242c07d0c0e200c6451fdd,,,,,,,,,,,,,,,,,,,,,,,,,,,,,,,,,,,,,,,,,,757.2234,817.2191,,,,,
,,,,,,,60fa23798a416fb0d9e4ec76,682538037049a7c6aa729e0f,2025-05-14_20h41.30.465,cuing_paradigm_dot,2024.1.5,Win32,60.24096386,68242c07d0c0e200c6451fdd,,,,,,,,,,,817.2775,817.7354,,,817.9863,819.218,left,,,,,,,,0.45,1.2209,,,,,,,817.7355,817.9862,819.2182,820.3178,,,,,,,,0,0,0,60,1
,,,,,,,60fa23798a416fb0d9e4ec76,682538037049a7c6aa729e0f,2025-05-14_20h41.30.465,cuing_paradigm_dot,2024.1.5,Win32,60.24096386,68242c07d0c0e200c6451fdd,,,,,,,,,,,820.3196,820.818,,,821.0694,822.3845,left,,,,,,,,0.55,1.2992,,,,,,,820.8181,821.0693,822.3847,823.4845,,,,,,,,0,1,1,122,1
,,,,,,,60fa23798a416fb0d9e4ec76,682538037049a7c6aa729e0f,2025-05-14_20h41.30.465,cuing_paradigm_dot,2024.1.5,Win32,60.24096386,68242c07d0c0e200c6451fdd,,,,,,,,,,,823.4859,823.9844,,,824.2364,824.9856,left,,,,,,,,0.45,0.7395,,,,,,,823.9847,824.2362,824.9859,826.0855,,,,,,,,0,2,2,78,1
,,,,,,,60fa23798a416fb0d9e4ec76,682538037049a7c6aa729e0f,2025-05-14_20h41.30.465,cuing_paradigm_dot,2024.1.5,Win32,60.24096386,68242c07d0c0e200c6451fdd,,,,,,,,,,,826.0872,826.585,,,826.8357,827.6347,right,,,,,,,,0.6,0.7842,,,,,,,826.585,826.8356,827.6349,828.7342,,,,,,,,0,3,3,175,1
,,,,,,,60fa23798a416fb0d9e4ec76,682538037049a7c6aa729e0f,2025-05-14_20h41.30.465,cuing_paradigm_dot,2024.1.5,Win32,60.24096386,68242c07d0c0e200c6451fdd,,,,,,,,,,,828.7358,829.2341,,,829.486,830.2511,left,,,,,,,,0.1,0.7502,,,,,,,829.2343,829.4859,830.2513,831.3503,,,,,,,,0,4,4,20,1
,,,,,,,60fa23798a416fb0d9e4ec76,682538037049a7c6aa729e0f,2025-05-14_20h41.30.465,cuing_paradigm_dot,2024.1.5,Win32,60.24096386,68242c07d0c0e200c6451fdd,,,,,,,,,,,831.3516,831.8502,,,832.1014,832.8334,right,,,,,,,,0.5,0.7169,,,,,,,831.8503,832.1012,832.8335,833.9329,,,,,,,,0,5,5,110,1
,,,,,,,60fa23798a416fb0d9e4ec76,682538037049a7c6aa729e0f,2025-05-14_20h41.30.465,cuing_paradigm_dot,2024.1.5,Win32,60.24096386,68242c07d0c0e200c6451fdd,,,,,,,,,,,833.9335,834.433,,,834.6832,835.4165,left,,,,,,,,0.4,0.719,,,,,,,834.433,834.6831,835.4165,836.5165,,,,,,,,0,6,6,58,1
,,,,,,,60fa23798a416fb0d9e4ec76,682538037049a7c6aa729e0f,2025-05-14_20h41.30.465,cuing_paradigm_dot,2024.1.5,Win32,60.24096386,68242c07d0c0e200c6451fdd,,,,,,,,,,,836.517,837.0163,,,837.2671,837.9999,left,,,,,,,,0.1,0.7156,,,,,,,837.0163,837.267,837.9999,839.0995,,,,,,,,0,7,7,27,1
,,,,,,,60fa23798a416fb0d9e4ec76,682538037049a7c6aa729e0f,2025-05-14_20h41.30.465,cuing_paradigm_dot,2024.1.5,Win32,60.24096386,68242c07d0c0e200c6451fdd,,,,,,,,,,,839.1002,839.5993,,,839.8539,840.5162,right,,,,,,,,0.9,0.6556,,,,,,,839.5995,839.8538,840.5162,841.6161,,,,,,,,0,8,8,202,1
,,,,,,,60fa23798a416fb0d9e4ec76,682538037049a7c6aa729e0f,2025-05-14_20h41.30.465,cuing_paradigm_dot,2024.1.5,Win32,60.24096386,68242c07d0c0e200c6451fdd,,,,,,,,,,,841.6166,842.116,,,842.3667,843.4163,left,,,,,,,,0.55,1.0322,,,,,,,842.116,842.3666,843.4166,844.5165,,,,,,,,0,9,9,140,1
,,,,,,,60fa23798a416fb0d9e4ec76,682538037049a7c6aa729e0f,2025-05-14_20h41.30.465,cuing_paradigm_dot,2024.1.5,Win32,60.24096386,68242c07d0c0e200c6451fdd,,,,,,,,,,,844.5179,845.017,,,845.2675,846.0335,right,,,,,,,,0.6,0.7546,,,,,,,845.0171,845.2674,846.0335,847.1333,,,,,,,,0,10,10,176,1
,,,,,,,60fa23798a416fb0d9e4ec76,682538037049a7c6aa729e0f,2025-05-14_20h41.30.465,cuing_paradigm_dot,2024.1.5,Win32,60.24096386,68242c07d0c0e200c6451fdd,,,,,,,,,,,847.1348,847.6332,,,847.884,848.4514,left,,,,,,,,0.1,0.5525,,,,,,,847.6333,847.884,848.4514,849.5498,,,,,,,,0,11,11,6,1
,,,,,,,60fa23798a416fb0d9e4ec76,682538037049a7c6aa729e0f,2025-05-14_20h41.30.465,cuing_paradigm_dot,2024.1.5,Win32,60.24096386,68242c07d0c0e200c6451fdd,,,,,,,,,,,849.5513,850.0504,,,850.3016,850.9345,right,,,,,,,,0.55,0.6181,,,,,,,850.0506,850.3016,850.9346,852.0336,,,,,,,,0,12,12,125,1
,,,,,,,60fa23798a416fb0d9e4ec76,682538037049a7c6aa729e0f,2025-05-14_20h41.30.465,cuing_paradigm_dot,2024.1.5,Win32,60.24096386,68242c07d0c0e200c6451fdd,,,,,,,,,,,852.0347,852.534,,,852.7839,853.7,left,,,,,,,,0.45,0.9004,,,,,,,852.5341,852.7838,853.7001,854.7998,,,,,,,,0,13,13,84,1
,,,,,,,60fa23798a416fb0d9e4ec76,682538037049a7c6aa729e0f,2025-05-14_20h41.30.465,cuing_paradigm_dot,2024.1.5,Win32,60.24096386,68242c07d0c0e200c6451fdd,,,,,,,,,,,854.8015,855.2997,,,855.5519,856.5174,right,,,,,,,,0.55,0.9501,,,,,,,855.2998,855.5519,856.5181,857.6169,,,,,,,,0,14,14,141,1
,,,,,,,60fa23798a416fb0d9e4ec76,682538037049a7c6aa729e0f,2025-05-14_20h41.30.465,cuing_paradigm_dot,2024.1.5,Win32,60.24096386,68242c07d0c0e200c6451fdd,,,,,,,,,,,857.6185,858.1169,,,858.3672,858.9665,right,,,,,,,,0.6,0.5866,,,,,,,858.1171,858.367,858.9668,860.0661,,,,,,,,0,15,15,158,1
,,,,,,,60fa23798a416fb0d9e4ec76,682538037049a7c6aa729e0f,2025-05-14_20h41.30.465,cuing_paradigm_dot,2024.1.5,Win32,60.24096386,68242c07d0c0e200c6451fdd,,,,,,,,,,,860.068,860.566,,,860.8178,861.2832,left,,,,,,,,0.5,0.4508,,,,,,,860.5661,860.8177,861.2832,862.3826,,,,,,,,0,16,16,93,1
,,,,,,,60fa23798a416fb0d9e4ec76,682538037049a7c6aa729e0f,2025-05-14_20h41.30.465,cuing_paradigm_dot,2024.1.5,Win32,60.24096386,68242c07d0c0e200c6451fdd,,,,,,,,,,,862.3844,862.8826,,,863.1341,863.8165,right,,,,,,,,0.4,0.6678,,,,,,,862.8827,863.134,863.8167,864.9159,,,,,,,,0,17,17,39,1
,,,,,,,60fa23798a416fb0d9e4ec76,682538037049a7c6aa729e0f,2025-05-14_20h41.30.465,cuing_paradigm_dot,2024.1.5,Win32,60.24096386,68242c07d0c0e200c6451fdd,,,,,,,,,,,864.9172,865.4157,,,865.6673,866.5658,left,,,,,,,,0.45,0.8826,,,,,,,865.4157,865.6672,866.566,867.6656,,,,,,,,0,18,18,61,1
,,,,,,,60fa23798a416fb0d9e4ec76,682538037049a7c6aa729e0f,2025-05-14_20h41.30.465,cuing_paradigm_dot,2024.1.5,Win32,60.24096386,68242c07d0c0e200c6451fdd,,,,,,,,,,,867.6673,868.1655,,,868.4164,869.0658,right,,,,,,,,0.6,0.6346,,,,,,,868.1657,868.4163,869.066,870.1655,,,,,,,,0,19,19,167,1
,,,,,,,60fa23798a416fb0d9e4ec76,682538037049a7c6aa729e0f,2025-05-14_20h41.30.465,cuing_paradigm_dot,2024.1.5,Win32,60.24096386,68242c07d0c0e200c6451fdd,,,,,,,,,,,870.1672,870.6657,,,870.917,871.6327,left,,,,,,,,0.1,0.7032,,,,,,,870.6658,870.9168,871.6328,872.7321,,,,,,,,0,20,20,8,1
,,,,,,,60fa23798a416fb0d9e4ec76,682538037049a7c6aa729e0f,2025-05-14_20h41.30.465,cuing_paradigm_dot,2024.1.5,Win32,60.24096386,68242c07d0c0e200c6451fdd,,,,,,,,,,,872.7338,873.2321,,,873.484,874.1162,right,,,,,,,,0.45,0.6175,,,,,,,873.2323,873.4839,874.1165,875.2153,,,,,,,,0,21,21,81,1
,,,,,,,60fa23798a416fb0d9e4ec76,682538037049a7c6aa729e0f,2025-05-14_20h41.30.465,cuing_paradigm_dot,2024.1.5,Win32,60.24096386,68242c07d0c0e200c6451fdd,,,,,,,,,,,875.2171,875.7154,,,875.9675,876.7157,right,,,,,,,,0.9,0.7326,,,,,,,875.7154,875.9672,876.7159,877.8152,,,,,,,,0,22,22,201,1
,,,,,,,60fa23798a416fb0d9e4ec76,682538037049a7c6aa729e0f,2025-05-14_20h41.30.465,cuing_paradigm_dot,2024.1.5,Win32,60.24096386,68242c07d0c0e200c6451fdd,,,,,,,,,,,877.817,878.3151,,,878.5673,879.484,right,,,,,,,,0.55,0.9085,,,,,,,878.3151,878.5673,879.4841,880.5821,,,,,,,,0,23,23,136,1
,,,,,,,60fa23798a416fb0d9e4ec76,682538037049a7c6aa729e0f,2025-05-14_20h41.30.465,cuing_paradigm_dot,2024.1.5,Win32,60.24096386,68242c07d0c0e200c6451fdd,,,,,,,,,,,880.5833,881.082,,,881.3324,882.232,right,,,,,,,,0.55,0.8855,,,,,,,881.0822,881.3323,882.2323,883.3315,,,,,,,,0,24,24,120,1
,,,,,,,60fa23798a416fb0d9e4ec76,682538037049a7c6aa729e0f,2025-05-14_20h41.30.465,cuing_paradigm_dot,2024.1.5,Win32,60.24096386,68242c07d0c0e200c6451fdd,,,,,,,,,,,883.3331,883.8314,,,884.0834,884.8321,left,,,,,,,,0.55,0.7378,,,,,,,883.8315,884.0834,884.8323,885.9313,,,,,,,,0,25,25,146,1
,,,,,,,60fa23798a416fb0d9e4ec76,682538037049a7c6aa729e0f,2025-05-14_20h41.30.465,cuing_paradigm_dot,2024.1.5,Win32,60.24096386,68242c07d0c0e200c6451fdd,,,,,,,,,,,885.9329,886.4315,,,886.683,887.2152,left,,,,,,,,0.5,0.5194,,,,,,,886.4315,886.683,887.2155,888.3148,,,,,,,,0,26,26,109,1
,,,,,,,60fa23798a416fb0d9e4ec76,682538037049a7c6aa729e0f,2025-05-14_20h41.30.465,cuing_paradigm_dot,2024.1.5,Win32,60.24096386,68242c07d0c0e200c6451fdd,,,,,,,,,,,888.3166,888.8148,,,889.0662,889.5813,right,,,,,,,,0.55,0.5035,,,,,,,888.815,889.066,889.5813,890.6806,,,,,,,,0,27,27,127,1
,,,,,,,60fa23798a416fb0d9e4ec76,682538037049a7c6aa729e0f,2025-05-14_20h41.30.465,cuing_paradigm_dot,2024.1.5,Win32,60.24096386,68242c07d0c0e200c6451fdd,,,,,,,,,,,890.682,891.1811,,,891.4323,891.9813,right,,,,,,,,0.1,0.5362,,,,,,,891.1812,891.4321,891.9814,893.0809,,,,,,,,0,28,28,1,1
,,,,,,,60fa23798a416fb0d9e4ec76,682538037049a7c6aa729e0f,2025-05-14_20h41.30.465,cuing_paradigm_dot,2024.1.5,Win32,60.24096386,68242c07d0c0e200c6451fdd,,,,,,,,,,,893.0821,893.5812,,,893.8322,894.5649,left,,,,,,,,0.4,0.7198,,,,,,,893.5814,893.8322,894.565,895.6643,,,,,,,,0,29,29,35,1
,,,,,,,60fa23798a416fb0d9e4ec76,682538037049a7c6aa729e0f,2025-05-14_20h41.30.465,cuing_paradigm_dot,2024.1.5,Win32,60.24096386,68242c07d0c0e200c6451fdd,,,,,,,,,,,895.6658,896.1642,,,896.4159,896.9139,left,,,,,,,,0.4,0.4879,,,,,,,896.1643,896.4158,896.914,898.0143,,,,,,,,0,30,30,55,1
,,,,,,,60fa23798a416fb0d9e4ec76,682538037049a7c6aa729e0f,2025-05-14_20h41.30.465,cuing_paradigm_dot,2024.1.5,Win32,60.24096386,68242c07d0c0e200c6451fdd,,,,,,,,,,,898.0159,898.5143,,,898.7662,899.4816,right,,,,,,,,0.9,0.7036,,,,,,,898.5145,898.7661,899.4818,900.5807,,,,,,,,0,31,31,200,1
,,,,,,,60fa23798a416fb0d9e4ec76,682538037049a7c6aa729e0f,2025-05-14_20h41.30.465,cuing_paradigm_dot,2024.1.5,Win32,60.24096386,68242c07d0c0e200c6451fdd,,,,,,,,,,,900.5821,901.0802,,,901.3313,902.0807,left,,,,,,,,0.6,0.7401,,,,,,,901.0803,901.3312,902.0808,903.1811,,,,,,,,0,32,32,157,1
,,,,,,,60fa23798a416fb0d9e4ec76,682538037049a7c6aa729e0f,2025-05-14_20h41.30.465,cuing_paradigm_dot,2024.1.5,Win32,60.24096386,68242c07d0c0e200c6451fdd,,,,,,,,,,,903.1833,903.6804,,,903.9316,904.6806,right,,,,,,,,0.55,0.7392,,,,,,,903.6805,903.9315,904.6806,905.7804,,,,,,,,0,33,33,121,1
,,,,,,,60fa23798a416fb0d9e4ec76,682538037049a7c6aa729e0f,2025-05-14_20h41.30.465,cuing_paradigm_dot,2024.1.5,Win32,60.24096386,68242c07d0c0e200c6451fdd,,,,,,,,,,,905.7819,906.2804,,,906.5317,907.1645,left,,,,,,,,0.4,0.6197,,,,,,,906.2804,906.5317,907.1646,908.2638,,,,,,,,0,34,34,56,1
,,,,,,,60fa23798a416fb0d9e4ec76,682538037049a7c6aa729e0f,2025-05-14_20h41.30.465,cuing_paradigm_dot,2024.1.5,Win32,60.24096386,68242c07d0c0e200c6451fdd,,,,,,,,,,,908.2652,908.7639,,,909.015,909.6971,right,,,,,,,,0.55,0.6719,,,,,,,908.7641,909.015,909.6971,910.7975,,,,,,,,0,35,35,132,1
,,,,,,,60fa23798a416fb0d9e4ec76,682538037049a7c6aa729e0f,2025-05-14_20h41.30.465,cuing_paradigm_dot,2024.1.5,Win32,60.24096386,68242c07d0c0e200c6451fdd,,,,,,,,,,,910.7989,911.2969,,,911.5491,912.1813,right,,,,,,,,0.9,0.6242,,,,,,,911.297,911.5489,912.1817,913.2802,,,,,,,,0,36,36,193,1
,,,,,,,60fa23798a416fb0d9e4ec76,682538037049a7c6aa729e0f,2025-05-14_20h41.30.465,cuing_paradigm_dot,2024.1.5,Win32,60.24096386,68242c07d0c0e200c6451fdd,,,,,,,,,,,913.2819,913.7793,,,914.0313,914.7976,left,,,,,,,,0.1,0.7584,,,,,,,913.7793,914.0311,914.7978,915.8973,,,,,,,,0,37,37,28,1
,,,,,,,60fa23798a416fb0d9e4ec76,682538037049a7c6aa729e0f,2025-05-14_20h41.30.465,cuing_paradigm_dot,2024.1.5,Win32,60.24096386,68242c07d0c0e200c6451fdd,,,,,,,,,,,915.8987,916.3966,,,916.648,917.2134,right,,,,,,,,0.6,0.5517,,,,,,,916.3967,916.648,917.2136,918.3133,,,,,,,,0,38,38,168,1
,,,,,,,60fa23798a416fb0d9e4ec76,682538037049a7c6aa729e0f,2025-05-14_20h41.30.465,cuing_paradigm_dot,2024.1.5,Win32,60.24096386,68242c07d0c0e200c6451fdd,,,,,,,,,,,918.315,918.8133,,,919.0645,919.5305,left,,,,,,,,0.4,0.4512,,,,,,,918.8134,919.0644,919.5307,920.6302,,,,,,,,0,39,39,33,1
,,,,,,,60fa23798a416fb0d9e4ec76,682538037049a7c6aa729e0f,2025-05-14_20h41.30.465,cuing_paradigm_dot,2024.1.5,Win32,60.24096386,68242c07d0c0e200c6451fdd,,,,,,,,,,,920.6313,921.13,,,921.3829,922.8797,,,,,,,,,0.6,,,,,,,,921.13,921.3828,922.8799,923.9797,,,,,,,,0,40,40,177,1
,,,,,,,60fa23798a416fb0d9e4ec76,682538037049a7c6aa729e0f,2025-05-14_20h41.30.465,cuing_paradigm_dot,2024.1.5,Win32,60.24096386,68242c07d0c0e200c6451fdd,,,,,,,,,,,923.9815,924.4798,,,924.731,925.4131,left,,,,,,,,0.1,0.6692,,,,,,,924.4799,924.7309,925.4132,926.5129,,,,,,,,0,41,41,11,1
,,,,,,,60fa23798a416fb0d9e4ec76,682538037049a7c6aa729e0f,2025-05-14_20h41.30.465,cuing_paradigm_dot,2024.1.5,Win32,60.24096386,68242c07d0c0e200c6451fdd,,,,,,,,,,,926.5146,927.0127,,,927.2647,927.9133,right,,,,,,,,0.55,0.6334,,,,,,,927.0129,927.2646,927.9134,929.0124,,,,,,,,0,42,42,149,1
,,,,,,,60fa23798a416fb0d9e4ec76,682538037049a7c6aa729e0f,2025-05-14_20h41.30.465,cuing_paradigm_dot,2024.1.5,Win32,60.24096386,68242c07d0c0e200c6451fdd,,,,,,,,,,,929.0141,929.5129,,,929.7646,930.6633,right,,,,,,,,0.5,0.886,,,,,,,929.513,929.7645,930.6635,931.7627,,,,,,,,0,43,43,107,1
,,,,,,,60fa23798a416fb0d9e4ec76,682538037049a7c6aa729e0f,2025-05-14_20h41.30.465,cuing_paradigm_dot,2024.1.5,Win32,60.24096386,68242c07d0c0e200c6451fdd,,,,,,,,,,,931.7641,932.2627,,,932.5142,933.263,left,,,,,,,,0.6,0.7371,,,,,,,932.2628,932.514,933.2632,934.3627,,,,,,,,0,44,44,174,1
,,,,,,,60fa23798a416fb0d9e4ec76,682538037049a7c6aa729e0f,2025-05-14_20h41.30.465,cuing_paradigm_dot,2024.1.5,Win32,60.24096386,68242c07d0c0e200c6451fdd,,,,,,,,,,,934.3636,934.8627,,,935.1133,936.6127,,,,,,,,,0.55,,,,,,,,934.8628,935.1132,936.6128,937.7128,,,,,,,,0,45,45,147,1
,,,,,,,60fa23798a416fb0d9e4ec76,682538037049a7c6aa729e0f,2025-05-14_20h41.30.465,cuing_paradigm_dot,2024.1.5,Win32,60.24096386,68242c07d0c0e200c6451fdd,,,,,,,,,,,937.7142,938.2123,,,938.4639,939.9618,,,,,,,,,0.6,,,,,,,,938.2125,938.4638,939.9619,941.0623,,,,,,,,0,46,46,172,1
,,,,,,,60fa23798a416fb0d9e4ec76,682538037049a7c6aa729e0f,2025-05-14_20h41.30.465,cuing_paradigm_dot,2024.1.5,Win32,60.24096386,68242c07d0c0e200c6451fdd,,,,,,,,,,,941.064,941.5625,,,941.8138,942.4628,right,,,,,,,,0.45,0.6334,,,,,,,941.5626,941.8138,942.4628,943.562,,,,,,,,0,47,47,88,1
,,,,,,,60fa23798a416fb0d9e4ec76,682538037049a7c6aa729e0f,2025-05-14_20h41.30.465,cuing_paradigm_dot,2024.1.5,Win32,60.24096386,68242c07d0c0e200c6451fdd,,,,,,,,,,,943.5636,944.0621,,,944.3136,945.0624,left,,,,,,,,0.5,0.7333,,,,,,,944.0621,944.3136,945.0626,946.1619,,,,,,,,0,48,48,106,1
,,,,,,,60fa23798a416fb0d9e4ec76,682538037049a7c6aa729e0f,2025-05-14_20h41.30.465,cuing_paradigm_dot,2024.1.5,Win32,60.24096386,68242c07d0c0e200c6451fdd,,,,,,,,,,,946.1636,946.6621,,,946.9132,947.6466,right,,,,,,,,0.6,0.7216,,,,,,,946.6621,946.913,947.647,948.7453,,,,,,,,0,49,49,178,1
,,,,,,,60fa23798a416fb0d9e4ec76,682538037049a7c6aa729e0f,2025-05-14_20h41.30.465,cuing_paradigm_dot,2024.1.5,Win32,60.24096386,68242c07d0c0e200c6451fdd,,,,,,,,,,,948.7472,949.2455,,,949.4971,950.2125,left,,,,,,,,0.4,0.7016,,,,,,,949.2456,949.497,950.2129,951.3119,,,,,,,,0,50,50,41,1
,,,,,,,60fa23798a416fb0d9e4ec76,682538037049a7c6aa729e0f,2025-05-14_20h41.30.465,cuing_paradigm_dot,2024.1.5,Win32,60.24096386,68242c07d0c0e200c6451fdd,,,,,,,,,,,951.3135,951.8119,,,952.0632,952.7959,right,,,,,,,,0.5,0.7214,,,,,,,951.8121,952.0631,952.796,953.8949,,,,,,,,0,51,51,94,1
,,,,,,,60fa23798a416fb0d9e4ec76,682538037049a7c6aa729e0f,2025-05-14_20h41.30.465,cuing_paradigm_dot,2024.1.5,Win32,60.24096386,68242c07d0c0e200c6451fdd,,,,,,,,,,,953.8967,954.395,,,954.6465,955.2454,left,,,,,,,,0.55,0.5853,,,,,,,954.3951,954.6465,955.2457,956.3446,,,,,,,,0,52,52,128,1
,,,,,,,60fa23798a416fb0d9e4ec76,682538037049a7c6aa729e0f,2025-05-14_20h41.30.465,cuing_paradigm_dot,2024.1.5,Win32,60.24096386,68242c07d0c0e200c6451fdd,,,,,,,,,,,956.3461,956.8452,,,957.0968,957.7791,left,,,,,,,,0.4,0.6691,,,,,,,956.8453,957.0967,957.7792,958.8788,,,,,,,,0,53,53,50,1
,,,,,,,60fa23798a416fb0d9e4ec76,682538037049a7c6aa729e0f,2025-05-14_20h41.30.465,cuing_paradigm_dot,2024.1.5,Win32,60.24096386,68242c07d0c0e200c6451fdd,,,,,,,,,,,958.8807,959.3787,,,959.6294,960.4119,right,,,,,,,,0.55,0.768,,,,,,,959.3789,959.6292,960.4122,961.5113,,,,,,,,0,54,54,144,1
,,,,,,,60fa23798a416fb0d9e4ec76,682538037049a7c6aa729e0f,2025-05-14_20h41.30.465,cuing_paradigm_dot,2024.1.5,Win32,60.24096386,68242c07d0c0e200c6451fdd,,,,,,,,,,,961.5131,962.0115,,,962.263,962.9944,right,,,,,,,,0.9,0.72,,,,,,,962.0116,962.2628,962.9946,964.0945,,,,,,,,0,55,55,181,1
,,,,,,,60fa23798a416fb0d9e4ec76,682538037049a7c6aa729e0f,2025-05-14_20h41.30.465,cuing_paradigm_dot,2024.1.5,Win32,60.24096386,68242c07d0c0e200c6451fdd,,,,,,,,,,,964.0963,964.5946,,,964.8457,965.3782,left,,,,,,,,0.5,0.5186,,,,,,,964.5947,964.8456,965.3784,966.478,,,,,,,,0,56,56,114,1
,,,,,,,60fa23798a416fb0d9e4ec76,682538037049a7c6aa729e0f,2025-05-14_20h41.30.465,cuing_paradigm_dot,2024.1.5,Win32,60.24096386,68242c07d0c0e200c6451fdd,,,,,,,,,,,966.4793,966.9776,,,967.2293,968.344,left,,,,,,,,0.5,1.1032,,,,,,,966.9777,967.2291,968.3441,969.4445,,,,,,,,0,57,57,102,1
,,,,,,,60fa23798a416fb0d9e4ec76,682538037049a7c6aa729e0f,2025-05-14_20h41.30.465,cuing_paradigm_dot,2024.1.5,Win32,60.24096386,68242c07d0c0e200c6451fdd,,,,,,,,,,,969.4462,969.9442,,,970.196,970.7279,right,,,,,,,,0.9,0.5221,,,,,,,969.9444,970.1959,970.7281,971.8274,,,,,,,,0,58,58,192,1
,,,,,,,60fa23798a416fb0d9e4ec76,682538037049a7c6aa729e0f,2025-05-14_20h41.30.465,cuing_paradigm_dot,2024.1.5,Win32,60.24096386,68242c07d0c0e200c6451fdd,,,,,,,,,,,971.8291,972.327,,,972.5799,973.2621,left,,,,,,,,0.4,0.6675,,,,,,,972.3271,972.5798,973.2623,974.3613,,,,,,,,0,59,59,47,1
,,,,,,,60fa23798a416fb0d9e4ec76,682538037049a7c6aa729e0f,2025-05-14_20h41.30.465,cuing_paradigm_dot,2024.1.5,Win32,60.24096386,68242c07d0c0e200c6451fdd,,,,,,,,,,,974.3632,974.8613,,,975.1123,975.8783,left,,,,,,,,0.1,0.7521,,,,,,,974.8615,975.1123,975.8784,976.9782,,,,,,,,0,60,60,15,1
,,,,,,,60fa23798a416fb0d9e4ec76,682538037049a7c6aa729e0f,2025-05-14_20h41.30.465,cuing_paradigm_dot,2024.1.5,Win32,60.24096386,68242c07d0c0e200c6451fdd,,,,,,,,,,,976.9795,977.478,,,977.7291,978.5114,right,,,,,,,,0.4,0.7689,,,,,,,977.4781,977.729,978.5115,979.6116,,,,,,,,0,61,61,37,1
,,,,,,,60fa23798a416fb0d9e4ec76,682538037049a7c6aa729e0f,2025-05-14_20h41.30.465,cuing_paradigm_dot,2024.1.5,Win32,60.24096386,68242c07d0c0e200c6451fdd,,,,,,,,,,,979.6128,980.1107,,,980.3621,981.1619,left,,,,,,,,0.1,0.7841,,,,,,,980.1108,980.362,981.162,982.2615,,,,,,,,0,62,62,10,1
,,,,,,,60fa23798a416fb0d9e4ec76,682538037049a7c6aa729e0f,2025-05-14_20h41.30.465,cuing_paradigm_dot,2024.1.5,Win32,60.24096386,68242c07d0c0e200c6451fdd,,,,,,,,,,,982.2626,982.7614,,,983.0116,983.6278,right,,,,,,,,0.6,0.6045,,,,,,,982.7615,983.0114,983.6279,984.7274,,,,,,,,0,63,63,165,1
,,,,,,,60fa23798a416fb0d9e4ec76,682538037049a7c6aa729e0f,2025-05-14_20h41.30.465,cuing_paradigm_dot,2024.1.5,Win32,60.24096386,68242c07d0c0e200c6451fdd,,,,,,,,,,,984.729,985.2268,,,985.4787,986.2107,left,,,,,,,,0.6,0.7178,,,,,,,985.2269,985.4785,986.2111,987.3102,,,,,,,,0,64,64,150,1
,,,,,,,60fa23798a416fb0d9e4ec76,682538037049a7c6aa729e0f,2025-05-14_20h41.30.465,cuing_paradigm_dot,2024.1.5,Win32,60.24096386,68242c07d0c0e200c6451fdd,,,,,,,,,,,987.312,987.8106,,,988.061,988.9598,left,,,,,,,,0.6,0.882,,,,,,,987.8107,988.0609,988.9602,990.0598,,,,,,,,0,65,65,171,1
,,,,,,,60fa23798a416fb0d9e4ec76,682538037049a7c6aa729e0f,2025-05-14_20h41.30.465,cuing_paradigm_dot,2024.1.5,Win32,60.24096386,68242c07d0c0e200c6451fdd,,,,,,,,,,,990.061,990.5595,,,990.8108,991.9603,left,,,,,,,,0.4,1.138,,,,,,,990.5596,990.8108,991.9604,993.0599,,,,,,,,0,66,66,32,1
,,,,,,,60fa23798a416fb0d9e4ec76,682538037049a7c6aa729e0f,2025-05-14_20h41.30.465,cuing_paradigm_dot,2024.1.5,Win32,60.24096386,68242c07d0c0e200c6451fdd,,,,,,,,,,,993.0608,993.5595,,,993.8119,994.9438,left,,,,,,,,0.45,1.116,,,,,,,993.5597,993.8117,994.9441,996.0428,,,,,,,,0,67,67,89,1
,,,,,,,60fa23798a416fb0d9e4ec76,682538037049a7c6aa729e0f,2025-05-14_20h41.30.465,cuing_paradigm_dot,2024.1.5,Win32,60.24096386,68242c07d0c0e200c6451fdd,,,,,,,,,,,996.0443,996.5431,,,996.7945,997.46,right,,,,,,,,0.9,0.6559,,,,,,,996.5432,996.7944,997.4603,998.5595,,,,,,,,0,68,68,195,1
,,,,,,,60fa23798a416fb0d9e4ec76,682538037049a7c6aa729e0f,2025-05-14_20h41.30.465,cuing_paradigm_dot,2024.1.5,Win32,60.24096386,68242c07d0c0e200c6451fdd,,,,,,,,,,,998.561,999.0597,,,999.3109,999.8776,right,,,,,,,,0.6,0.556,,,,,,,999.0597,999.3108,999.8777,1000.976,,,,,,,,0,69,69,164,1
,,,,,,,60fa23798a416fb0d9e4ec76,682538037049a7c6aa729e0f,2025-05-14_20h41.30.465,cuing_paradigm_dot,2024.1.5,Win32,60.24096386,68242c07d0c0e200c6451fdd,,,,,,,,,,,1000.9772,1001.4759,,,1001.7272,1002.5428,left,,,,,,,,0.5,0.8016,,,,,,,1001.4759,1001.7271,1002.543,1003.6424,,,,,,,,0,70,70,99,1
,,,,,,,60fa23798a416fb0d9e4ec76,682538037049a7c6aa729e0f,2025-05-14_20h41.30.465,cuing_paradigm_dot,2024.1.5,Win32,60.24096386,68242c07d0c0e200c6451fdd,,,,,,,,,,,1003.6438,1004.1428,,,1004.3945,1005.0434,left,,,,,,,,0.6,0.6328,,,,,,,1004.1428,1004.3944,1005.0436,1006.1427,,,,,,,,0,71,71,170,1
,,,,,,,60fa23798a416fb0d9e4ec76,682538037049a7c6aa729e0f,2025-05-14_20h41.30.465,cuing_paradigm_dot,2024.1.5,Win32,60.24096386,68242c07d0c0e200c6451fdd,,,,,,,,,,,1006.1444,1006.6427,,,1006.8942,1007.3433,right,,,,,,,,0.9,0.4335,,,,,,,1006.6427,1006.8942,1007.3436,1008.4427,,,,,,,,0,72,72,203,1
,,,,,,,60fa23798a416fb0d9e4ec76,682538037049a7c6aa729e0f,2025-05-14_20h41.30.465,cuing_paradigm_dot,2024.1.5,Win32,60.24096386,68242c07d0c0e200c6451fdd,,,,,,,,,,,1008.4441,1008.9425,,,1009.1946,1009.86,left,,,,,,,,0.5,0.6506,,,,,,,1008.9426,1009.1945,1009.8605,1010.9593,,,,,,,,0,73,73,101,1
,,,,,,,60fa23798a416fb0d9e4ec76,682538037049a7c6aa729e0f,2025-05-14_20h41.30.465,cuing_paradigm_dot,2024.1.5,Win32,60.24096386,68242c07d0c0e200c6451fdd,,,,,,,,,,,1010.961,1011.4594,,,1011.7116,1012.4271,right,,,,,,,,0.9,0.6987,,,,,,,1011.4594,1011.7115,1012.4272,1013.5264,,,,,,,,0,74,74,188,1
,,,,,,,60fa23798a416fb0d9e4ec76,682538037049a7c6aa729e0f,2025-05-14_20h41.30.465,cuing_paradigm_dot,2024.1.5,Win32,60.24096386,68242c07d0c0e200c6451fdd,,,,,,,,,,,1013.5279,1014.0277,,,1014.2769,1014.8925,left,,,,,,,,0.55,0.6042,,,,,,,1014.0279,1014.2768,1014.8927,1015.9923,,,,,,,,0,75,75,134,1
,,,,,,,60fa23798a416fb0d9e4ec76,682538037049a7c6aa729e0f,2025-05-14_20h41.30.465,cuing_paradigm_dot,2024.1.5,Win32,60.24096386,68242c07d0c0e200c6451fdd,,,,,,,,,,,1015.994,1016.4919,,,1016.7439,1017.5607,left,,,,,,,,0.1,0.807,,,,,,,1016.492,1016.7439,1017.5607,1018.6583,,,,,,,,0,76,76,26,1
,,,,,,,60fa23798a416fb0d9e4ec76,682538037049a7c6aa729e0f,2025-05-14_20h41.30.465,cuing_paradigm_dot,2024.1.5,Win32,60.24096386,68242c07d0c0e200c6451fdd,,,,,,,,,,,1018.6601,1019.1582,,,1019.4091,1020.2751,left,,,,,,,,0.1,0.8518,,,,,,,1019.1582,1019.409,1020.2751,1021.3749,,,,,,,,0,77,77,29,1
,,,,,,,60fa23798a416fb0d9e4ec76,682538037049a7c6aa729e0f,2025-05-14_20h41.30.465,cuing_paradigm_dot,2024.1.5,Win32,60.24096386,68242c07d0c0e200c6451fdd,,,,,,,,,,,1021.376,1021.8747,,,1022.1257,1022.9422,right,,,,,,,,0.45,0.8016,,,,,,,1021.8749,1022.1257,1022.9423,1024.0415,,,,,,,,0,78,78,85,1
,,,,,,,60fa23798a416fb0d9e4ec76,682538037049a7c6aa729e0f,2025-05-14_20h41.30.465,cuing_paradigm_dot,2024.1.5,Win32,60.24096386,68242c07d0c0e200c6451fdd,,,,,,,,,,,1024.0428,1024.5416,,,1024.7926,1025.8085,right,,,,,,,,0.6,1.0065,,,,,,,1024.5417,1024.7925,1025.8086,1026.9081,,,,,,,,0,79,79,160,1
,,,,,,,60fa23798a416fb0d9e4ec76,682538037049a7c6aa729e0f,2025-05-14_20h41.30.465,cuing_paradigm_dot,2024.1.5,Win32,60.24096386,68242c07d0c0e200c6451fdd,,,,,,,,,,,1026.9094,1027.4085,,,1027.6599,1028.5917,right,,,,,,,,0.9,0.9189,,,,,,,1027.4086,1027.6598,1028.5919,1029.6916,,,,,,,,0,80,80,194,1
,,,,,,,60fa23798a416fb0d9e4ec76,682538037049a7c6aa729e0f,2025-05-14_20h41.30.465,cuing_paradigm_dot,2024.1.5,Win32,60.24096386,68242c07d0c0e200c6451fdd,,,,,,,,,,,1029.6931,1030.1916,,,1030.4429,1031.3911,right,,,,,,,,0.45,0.9368,,,,,,,1030.1916,1030.4427,1031.3912,1032.4911,,,,,,,,0,81,81,64,1
,,,,,,,60fa23798a416fb0d9e4ec76,682538037049a7c6aa729e0f,2025-05-14_20h41.30.465,cuing_paradigm_dot,2024.1.5,Win32,60.24096386,68242c07d0c0e200c6451fdd,,,,,,,,,,,1032.4922,1032.9914,,,1033.2426,1033.7749,left,,,,,,,,0.1,0.5172,,,,,,,1032.9916,1033.2425,1033.7751,1034.875,,,,,,,,0,82,82,9,1
,,,,,,,60fa23798a416fb0d9e4ec76,682538037049a7c6aa729e0f,2025-05-14_20h41.30.465,cuing_paradigm_dot,2024.1.5,Win32,60.24096386,68242c07d0c0e200c6451fdd,,,,,,,,,,,1034.8761,1035.3749,,,1035.626,1036.2414,right,,,,,,,,0.45,0.6063,,,,,,,1035.3754,1035.6258,1036.2417,1037.3407,,,,,,,,0,83,83,67,1
,,,,,,,60fa23798a416fb0d9e4ec76,682538037049a7c6aa729e0f,2025-05-14_20h41.30.465,cuing_paradigm_dot,2024.1.5,Win32,60.24096386,68242c07d0c0e200c6451fdd,,,,,,,,,,,1037.3426,1037.841,,,1038.0923,1038.9912,left,,,,,,,,0.6,0.8871,,,,,,,1037.8411,1038.0923,1038.9913,1040.0911,,,,,,,,0,84,84,169,1
,,,,,,,60fa23798a416fb0d9e4ec76,682538037049a7c6aa729e0f,2025-05-14_20h41.30.465,cuing_paradigm_dot,2024.1.5,Win32,60.24096386,68242c07d0c0e200c6451fdd,,,,,,,,,,,1040.0927,1040.591,,,1040.8426,1041.4581,left,,,,,,,,0.5,0.6023,,,,,,,1040.5911,1040.8425,1041.4582,1042.5574,,,,,,,,0,85,85,115,1
,,,,,,,60fa23798a416fb0d9e4ec76,682538037049a7c6aa729e0f,2025-05-14_20h41.30.465,cuing_paradigm_dot,2024.1.5,Win32,60.24096386,68242c07d0c0e200c6451fdd,,,,,,,,,,,1042.5592,1043.0573,,,1043.3086,1043.524,right,,,,,,,,0.45,0.2068,,,,,,,1043.0574,1043.3085,1043.524,1044.6237,,,,,,,,0,86,86,80,1
,,,,,,,60fa23798a416fb0d9e4ec76,682538037049a7c6aa729e0f,2025-05-14_20h41.30.465,cuing_paradigm_dot,2024.1.5,Win32,60.24096386,68242c07d0c0e200c6451fdd,,,,,,,,,,,1044.625,1045.1234,,,1045.3749,1046.3572,left,,,,,,,,0.5,0.974,,,,,,,1045.1234,1045.3748,1046.3572,1047.4571,,,,,,,,0,87,87,111,1
,,,,,,,60fa23798a416fb0d9e4ec76,682538037049a7c6aa729e0f,2025-05-14_20h41.30.465,cuing_paradigm_dot,2024.1.5,Win32,60.24096386,68242c07d0c0e200c6451fdd,,,,,,,,,,,1047.4585,1047.9573,,,1048.2089,1048.9242,right,,,,,,,,0.9,0.7022,,,,,,,1047.9573,1048.2088,1048.9244,1050.0234,,,,,,,,0,88,88,198,1
,,,,,,,60fa23798a416fb0d9e4ec76,682538037049a7c6aa729e0f,2025-05-14_20h41.30.465,cuing_paradigm_dot,2024.1.5,Win32,60.24096386,68242c07d0c0e200c6451fdd,,,,,,,,,,,1050.0242,1050.5238,,,1050.7752,1051.2576,right,,,,,,,,0.9,0.4693,,,,,,,1050.5238,1050.7751,1051.2577,1052.3572,,,,,,,,0,89,89,182,1
,,,,,,,60fa23798a416fb0d9e4ec76,682538037049a7c6aa729e0f,2025-05-14_20h41.30.465,cuing_paradigm_dot,2024.1.5,Win32,60.24096386,68242c07d0c0e200c6451fdd,,,,,,,,,,,1052.3588,1052.857,,,1053.1082,1053.5741,right,,,,,,,,0.9,0.4522,,,,,,,1052.857,1053.1082,1053.5743,1054.6736,,,,,,,,0,90,90,184,1
,,,,,,,60fa23798a416fb0d9e4ec76,682538037049a7c6aa729e0f,2025-05-14_20h41.30.465,cuing_paradigm_dot,2024.1.5,Win32,60.24096386,68242c07d0c0e200c6451fdd,,,,,,,,,,,1054.6752,1055.1731,,,1055.4253,1056.0571,left,,,,,,,,0.55,0.6213,,,,,,,1055.1732,1055.4253,1056.0571,1057.1568,,,,,,,,0,91,91,138,1
,,,,,,,60fa23798a416fb0d9e4ec76,682538037049a7c6aa729e0f,2025-05-14_20h41.30.465,cuing_paradigm_dot,2024.1.5,Win32,60.24096386,68242c07d0c0e200c6451fdd,,,,,,,,,,,1057.1585,1057.6568,,,1057.9091,1058.6265,left,,,,,,,,0.1,0.7097,,,,,,,1057.6569,1057.909,1058.6267,1059.7245,,,,,,,,0,92,92,4,1
,,,,,,,60fa23798a416fb0d9e4ec76,682538037049a7c6aa729e0f,2025-05-14_20h41.30.465,cuing_paradigm_dot,2024.1.5,Win32,60.24096386,68242c07d0c0e200c6451fdd,,,,,,,,,,,1059.7258,1060.224,,,1060.4746,1061.2737,left,,,,,,,,0.6,0.783,,,,,,,1060.2241,1060.4746,1061.2739,1062.373,,,,,,,,0,93,93,153,1
,,,,,,,60fa23798a416fb0d9e4ec76,682538037049a7c6aa729e0f,2025-05-14_20h41.30.465,cuing_paradigm_dot,2024.1.5,Win32,60.24096386,68242c07d0c0e200c6451fdd,,,,,,,,,,,1062.3748,1062.8735,,,1063.1247,1063.6738,left,,,,,,,,0.45,0.5354,,,,,,,1062.8736,1063.1246,1063.674,1064.7733,,,,,,,,0,94,94,82,1
,,,,,,,60fa23798a416fb0d9e4ec76,682538037049a7c6aa729e0f,2025-05-14_20h41.30.465,cuing_paradigm_dot,2024.1.5,Win32,60.24096386,68242c07d0c0e200c6451fdd,,,,,,,,,,,1064.7746,1065.273,,,1065.5249,1066.1407,left,,,,,,,,0.55,0.5998,,,,,,,1065.273,1065.5247,1066.1408,1067.2397,,,,,,,,0,95,95,148,1
,,,,,,,60fa23798a416fb0d9e4ec76,682538037049a7c6aa729e0f,2025-05-14_20h41.30.465,cuing_paradigm_dot,2024.1.5,Win32,60.24096386,68242c07d0c0e200c6451fdd,,,,,,,,,,,1067.2415,1067.7397,,,1067.9914,1068.6566,right,,,,,,,,0.6,0.6504,,,,,,,1067.7399,1067.9913,1068.6568,1069.7562,,,,,,,,0,96,96,156,1
,,,,,,,60fa23798a416fb0d9e4ec76,682538037049a7c6aa729e0f,2025-05-14_20h41.30.465,cuing_paradigm_dot,2024.1.5,Win32,60.24096386,68242c07d0c0e200c6451fdd,,,,,,,,,,,1069.7579,1070.2558,,,1070.5081,1071.0574,left,,,,,,,,0.45,0.5385,,,,,,,1070.2559,1070.508,1071.0576,1072.1568,,,,,,,,0,97,97,70,1
,,,,,,,60fa23798a416fb0d9e4ec76,682538037049a7c6aa729e0f,2025-05-14_20h41.30.465,cuing_paradigm_dot,2024.1.5,Win32,60.24096386,68242c07d0c0e200c6451fdd,,,,,,,,,,,1072.1582,1072.6569,,,1072.9074,1073.4397,left,,,,,,,,0.5,0.5187,,,,,,,1072.6569,1072.9073,1073.4398,1074.5398,,,,,,,,0,98,98,98,1
,,,,,,,60fa23798a416fb0d9e4ec76,682538037049a7c6aa729e0f,2025-05-14_20h41.30.465,cuing_paradigm_dot,2024.1.5,Win32,60.24096386,68242c07d0c0e200c6451fdd,,,,,,,,,,,1074.5413,1075.0394,,,1075.2922,1075.5573,right,,,,,,,,0.9,0.2516,,,,,,,1075.0396,1075.292,1075.5576,1076.6564,,,,,,,,0,99,99,189,1
,,,,,,,60fa23798a416fb0d9e4ec76,682538037049a7c6aa729e0f,2025-05-14_20h41.30.465,cuing_paradigm_dot,2024.1.5,Win32,60.24096386,68242c07d0c0e200c6451fdd,,,,,,,,,,,1076.6583,1077.157,,,1077.4085,1077.8073,left,,,,,,,,0.5,0.3831,,,,,,,1077.1571,1077.4084,1077.8074,1078.9068,,,,,,,,0,100,100,116,1
,,,,,,,60fa23798a416fb0d9e4ec76,682538037049a7c6aa729e0f,2025-05-14_20h41.30.465,cuing_paradigm_dot,2024.1.5,Win32,60.24096386,68242c07d0c0e200c6451fdd,,,,,,,,,,,1078.9082,1079.4066,,,1079.658,1079.9733,left,,,,,,,,0.1,0.3036,,,,,,,1079.4067,1079.6579,1079.9735,1081.0734,,,,,,,,0,101,101,13,1
,,,,,,,60fa23798a416fb0d9e4ec76,682538037049a7c6aa729e0f,2025-05-14_20h41.30.465,cuing_paradigm_dot,2024.1.5,Win32,60.24096386,68242c07d0c0e200c6451fdd,,,,,,,,,,,1081.0748,1081.5726,,,1081.8231,1082.3894,left,,,,,,,,0.6,0.5515,,,,,,,1081.5726,1081.8231,1082.3896,1083.4893,,,,,,,,0,102,102,152,1
,,,,,,,60fa23798a416fb0d9e4ec76,682538037049a7c6aa729e0f,2025-05-14_20h41.30.465,cuing_paradigm_dot,2024.1.5,Win32,60.24096386,68242c07d0c0e200c6451fdd,,,,,,,,,,,1083.4907,1083.9888,,,1084.2404,1084.7725,left,,,,,,,,0.55,0.5176,,,,,,,1083.989,1084.2403,1084.7726,1085.8723,,,,,,,,0,103,103,135,1
,,,,,,,60fa23798a416fb0d9e4ec76,682538037049a7c6aa729e0f,2025-05-14_20h41.30.465,cuing_paradigm_dot,2024.1.5,Win32,60.24096386,68242c07d0c0e200c6451fdd,,,,,,,,,,,1085.8739,1086.3723,,,1086.6239,1087.0389,left,,,,,,,,0.1,0.4034,,,,,,,1086.3723,1086.6239,1087.039,1088.1383,,,,,,,,0,104,104,3,1
,,,,,,,60fa23798a416fb0d9e4ec76,682538037049a7c6aa729e0f,2025-05-14_20h41.30.465,cuing_paradigm_dot,2024.1.5,Win32,60.24096386,68242c07d0c0e200c6451fdd,,,,,,,,,,,1088.1395,1088.6381,,,1088.8891,1089.5219,left,,,,,,,,0.6,0.6169,,,,,,,1088.6381,1088.8891,1089.522,1090.6214,,,,,,,,0,105,105,151,1
,,,,,,,60fa23798a416fb0d9e4ec76,682538037049a7c6aa729e0f,2025-05-14_20h41.30.465,cuing_paradigm_dot,2024.1.5,Win32,60.24096386,68242c07d0c0e200c6451fdd,,,,,,,,,,,1090.6225,1091.1213,,,1091.3723,1091.7378,left,,,,,,,,0.1,0.3518,,,,,,,1091.1214,1091.3721,1091.7378,1092.8376,,,,,,,,0,106,106,5,1
,,,,,,,60fa23798a416fb0d9e4ec76,682538037049a7c6aa729e0f,2025-05-14_20h41.30.465,cuing_paradigm_dot,2024.1.5,Win32,60.24096386,68242c07d0c0e200c6451fdd,,,,,,,,,,,1092.8381,1093.3375,,,1093.5881,1094.021,right,,,,,,,,0.5,0.4212,,,,,,,1093.3375,1093.588,1094.0211,1095.1209,,,,,,,,0,107,107,97,1
,,,,,,,60fa23798a416fb0d9e4ec76,682538037049a7c6aa729e0f,2025-05-14_20h41.30.465,cuing_paradigm_dot,2024.1.5,Win32,60.24096386,68242c07d0c0e200c6451fdd,,,,,,,,,,,1095.1214,1095.6216,,,1095.8724,1096.1213,left,,,,,,,,0.1,0.238,,,,,,,1095.6217,1095.8723,1096.1216,1097.2206,,,,,,,,0,108,108,14,1
,,,,,,,60fa23798a416fb0d9e4ec76,682538037049a7c6aa729e0f,2025-05-14_20h41.30.465,cuing_paradigm_dot,2024.1.5,Win32,60.24096386,68242c07d0c0e200c6451fdd,,,,,,,,,,,1097.2211,1097.7207,,,1097.9712,1098.2208,right,,,,,,,,0.9,0.2344,,,,,,,1097.7207,1097.9712,1098.2209,1099.3214,,,,,,,,0,109,109,180,1
,,,,,,,60fa23798a416fb0d9e4ec76,682538037049a7c6aa729e0f,2025-05-14_20h41.30.465,cuing_paradigm_dot,2024.1.5,Win32,60.24096386,68242c07d0c0e200c6451fdd,,,,,,,,,,,1099.3226,1099.8209,,,1100.0712,1100.5542,left,,,,,,,,0.5,0.4694,,,,,,,1099.821,1100.0711,1100.5543,1101.6539,,,,,,,,0,110,110,92,1
,,,,,,,60fa23798a416fb0d9e4ec76,682538037049a7c6aa729e0f,2025-05-14_20h41.30.465,cuing_paradigm_dot,2024.1.5,Win32,60.24096386,68242c07d0c0e200c6451fdd,,,,,,,,,,,1101.6546,1102.1539,,,1102.4045,1102.9883,right,,,,,,,,0.4,0.5672,,,,,,,1102.154,1102.4044,1102.9884,1104.088,,,,,,,,0,111,111,31,1
,,,,,,,60fa23798a416fb0d9e4ec76,682538037049a7c6aa729e0f,2025-05-14_20h41.30.465,cuing_paradigm_dot,2024.1.5,Win32,60.24096386,68242c07d0c0e200c6451fdd,,,,,,,,,,,1104.0891,1104.5877,,,1104.8388,1105.3548,right,,,,,,,,0.4,0.5027,,,,,,,1104.5879,1104.8388,1105.3549,1106.4543,,,,,,,,0,112,112,44,1
,,,,,,,60fa23798a416fb0d9e4ec76,682538037049a7c6aa729e0f,2025-05-14_20h41.30.465,cuing_paradigm_dot,2024.1.5,Win32,60.24096386,68242c07d0c0e200c6451fdd,,,,,,,,,,,1106.4555,1106.9546,,,1107.2057,1107.9379,right,,,,,,,,0.45,0.7209,,,,,,,1106.9546,1107.2056,1107.9381,1109.0377,,,,,,,,0,113,113,86,1
,,,,,,,60fa23798a416fb0d9e4ec76,682538037049a7c6aa729e0f,2025-05-14_20h41.30.465,cuing_paradigm_dot,2024.1.5,Win32,60.24096386,68242c07d0c0e200c6451fdd,,,,,,,,,,,1109.0393,1109.5377,,,1109.7892,1110.2874,left,,,,,,,,0.6,0.4824,,,,,,,1109.5379,1109.789,1110.2876,1111.3878,,,,,,,,0,114,114,179,1
,,,,,,,60fa23798a416fb0d9e4ec76,682538037049a7c6aa729e0f,2025-05-14_20h41.30.465,cuing_paradigm_dot,2024.1.5,Win32,60.24096386,68242c07d0c0e200c6451fdd,,,,,,,,,,,1111.3895,1111.8876,,,1112.139,1112.5878,left,,,,,,,,0.4,0.4357,,,,,,,1111.8877,1112.139,1112.588,1113.688,,,,,,,,0,115,115,59,1
,,,,,,,60fa23798a416fb0d9e4ec76,682538037049a7c6aa729e0f,2025-05-14_20h41.30.465,cuing_paradigm_dot,2024.1.5,Win32,60.24096386,68242c07d0c0e200c6451fdd,,,,,,,,,,,1113.6894,1114.1876,,,1114.4391,1115.0547,left,,,,,,,,0.5,0.6035,,,,,,,1114.1877,1114.439,1115.055,1116.1541,,,,,,,,0,116,116,90,1
,,,,,,,60fa23798a416fb0d9e4ec76,682538037049a7c6aa729e0f,2025-05-14_20h41.30.465,cuing_paradigm_dot,2024.1.5,Win32,60.24096386,68242c07d0c0e200c6451fdd,,,,,,,,,,,1116.1558,1116.6541,,,1116.9062,1117.339,right,,,,,,,,0.9,0.4175,,,,,,,1116.6542,1116.9061,1117.339,1118.438,,,,,,,,0,117,117,191,1
,,,,,,,60fa23798a416fb0d9e4ec76,682538037049a7c6aa729e0f,2025-05-14_20h41.30.465,cuing_paradigm_dot,2024.1.5,Win32,60.24096386,68242c07d0c0e200c6451fdd,,,,,,,,,,,1118.4396,1118.9384,,,1119.1894,1119.738,left,,,,,,,,0.5,0.5346,,,,,,,1118.9385,1119.1893,1119.7381,1120.8376,,,,,,,,0,118,118,119,1
,,,,,,,60fa23798a416fb0d9e4ec76,682538037049a7c6aa729e0f,2025-05-14_20h41.30.465,cuing_paradigm_dot,2024.1.5,Win32,60.24096386,68242c07d0c0e200c6451fdd,,,,,,,,,,,1120.8391,1121.338,,,1121.5883,1122.021,right,,,,,,,,0.9,0.42,,,,,,,1121.338,1121.5882,1122.0211,1123.1199,,,,,,,,0,119,119,185,1
,,,,,,,60fa23798a416fb0d9e4ec76,682538037049a7c6aa729e0f,2025-05-14_20h41.30.465,cuing_paradigm_dot,2024.1.5,Win32,60.24096386,68242c07d0c0e200c6451fdd,,,,,,,,,,,1123.1215,1123.62,,,1123.8709,1124.5203,left,,,,,,,,0.45,0.6391,,,,,,,1123.6201,1123.8709,1124.5204,1125.6201,,,,,,,,0,120,120,62,1
,,,,,,,60fa23798a416fb0d9e4ec76,682538037049a7c6aa729e0f,2025-05-14_20h41.30.465,cuing_paradigm_dot,2024.1.5,Win32,60.24096386,68242c07d0c0e200c6451fdd,,,,,,,,,,,1125.6212,1126.12,,,1126.3711,1127.87,,,,,,,,,0.4,,,,,,,,1126.1201,1126.371,1127.8702,1128.9701,,,,,,,,0,121,121,36,1
,,,,,,,60fa23798a416fb0d9e4ec76,682538037049a7c6aa729e0f,2025-05-14_20h41.30.465,cuing_paradigm_dot,2024.1.5,Win32,60.24096386,68242c07d0c0e200c6451fdd,,,,,,,,,,,1128.9716,1129.4693,,,1129.7198,1131.2205,,,,,,,,,0.1,,,,,,,,1129.4693,1129.7197,1131.2206,1132.3207,,,,,,,,0,122,122,12,1
,,,,,,,60fa23798a416fb0d9e4ec76,682538037049a7c6aa729e0f,2025-05-14_20h41.30.465,cuing_paradigm_dot,2024.1.5,Win32,60.24096386,68242c07d0c0e200c6451fdd,,,,,,,,,,,1132.322,1132.827,,,1133.0715,1133.7866,right,,,,,,,,0.5,0.701,,,,,,,1132.8271,1133.0714,1133.7867,1134.8864,,,,,,,,0,123,123,91,1
,,,,,,,60fa23798a416fb0d9e4ec76,682538037049a7c6aa729e0f,2025-05-14_20h41.30.465,cuing_paradigm_dot,2024.1.5,Win32,60.24096386,68242c07d0c0e200c6451fdd,,,,,,,,,,,1134.8879,1135.3866,,,1135.6381,1136.037,left,,,,,,,,0.55,0.3839,,,,,,,1135.3867,1135.638,1136.0372,1137.1367,,,,,,,,0,124,124,143,1
,,,,,,,60fa23798a416fb0d9e4ec76,682538037049a7c6aa729e0f,2025-05-14_20h41.30.465,cuing_paradigm_dot,2024.1.5,Win32,60.24096386,68242c07d0c0e200c6451fdd,,,,,,,,,,,1137.1382,1137.6366,,,1137.8874,1138.119,left,,,,,,,,0.1,0.2173,,,,,,,1137.6368,1137.8873,1138.1191,1139.2188,,,,,,,,0,125,125,23,1
,,,,,,,60fa23798a416fb0d9e4ec76,682538037049a7c6aa729e0f,2025-05-14_20h41.30.465,cuing_paradigm_dot,2024.1.5,Win32,60.24096386,68242c07d0c0e200c6451fdd,,,,,,,,,,,1139.2195,1139.7187,,,1139.9693,1140.1854,left,,,,,,,,0.1,0.1992,,,,,,,1139.7188,1139.9693,1140.1855,1141.2853,,,,,,,,0,126,126,7,1
,,,,,,,60fa23798a416fb0d9e4ec76,682538037049a7c6aa729e0f,2025-05-14_20h41.30.465,cuing_paradigm_dot,2024.1.5,Win32,60.24096386,68242c07d0c0e200c6451fdd,,,,,,,,,,,1141.2858,1141.7853,,,1142.0359,1142.4686,right,,,,,,,,0.5,0.423,,,,,,,1141.7853,1142.0358,1142.4686,1143.5686,,,,,,,,0,127,127,113,1
