right,left,explain.started,explain.stopped,key_resp_3.keys,key_resp_3.rt,key_resp_3.duration,participant,session,date,expName,psychopyVersion,OS,frameRate,study_id,explain_2.started,explain_2.stopped,key_resp_4.keys,key_resp_4.rt,key_resp_4.duration,explain_3.started,explain_3.stopped,key_resp_5.keys,key_resp_5.rt,key_resp_5.duration,fixation.started,fixation.stopped,practice.started,practice.stopped,response.started,response.stopped,key_resp.keys,feedback.started,feedback.stopped,trials_2.thisRepN,trials_2.thisTrialN,trials_2.thisN,trials_2.thisIndex,trials_2.ran,white_ratio,key_resp.rt,key_resp.duration,explain_4.started,explain_4.stopped,key_resp_6.keys,key_resp_6.rt,key_resp_6.duration,dotDisplay.started,dotDisplay.stopped,ITI.started,ITI.stopped,trials.thisRepN,trials.thisTrialN,trials.thisN,trials.thisIndex,trials.ran,break_2.started,break_2.stopped,trials_3.thisRepN,trials_3.thisTrialN,trials_3.thisN,trials_3.thisIndex,trials_3.ran
subject chose white,subject chose black,0.0003,22.1396,space,7.1262,,67d8b7fa2cc04185f7d10c26,682530d132ff60e8e38bc981,2025-05-14_19h10.22.418,cuing_paradigm_dot,2024.1.5,Win32,59.88023952,68242c07d0c0e200c6451fdd,,,,,,,,,,,,,,,,,,,,,,,,,,,,,,,,,,,,,,,,,,,,,,,,
,,,,,,,67d8b7fa2cc04185f7d10c26,682530d132ff60e8e38bc981,2025-05-14_19h10.22.418,cuing_paradigm_dot,2024.1.5,Win32,59.88023952,68242c07d0c0e200c6451fdd,22.1404,62.4916,space,10.3387,,,,,,,,,,,,,,,,,,,,,,,,,,,,,,,,,,,,,,,,,,,,
,,,,,,,67d8b7fa2cc04185f7d10c26,682530d132ff60e8e38bc981,2025-05-14_19h10.22.418,cuing_paradigm_dot,2024.1.5,Win32,59.88023952,68242c07d0c0e200c6451fdd,,,,,,62.4921,67.6801,space,2.1754,,,,,,,,,,,,,,,,,,,,,,,,,,,,,,,,,,,,,,,
,,,,,,,67d8b7fa2cc04185f7d10c26,682530d132ff60e8e38bc981,2025-05-14_19h10.22.418,cuing_paradigm_dot,2024.1.5,Win32,59.88023952,68242c07d0c0e200c6451fdd,,,,,,,,,,,67.72,68.1969,68.1979,68.4367,68.437,69.9324,,69.9331,71.0334,0,0,0,1,1,0.2,,,,,,,,,,,,,,,,,,,,,,,
,,,,,,,67d8b7fa2cc04185f7d10c26,682530d132ff60e8e38bc981,2025-05-14_19h10.22.418,cuing_paradigm_dot,2024.1.5,Win32,59.88023952,68242c07d0c0e200c6451fdd,,,,,,,,,,,71.0347,71.5335,71.5338,71.7733,71.7734,73.2585,right,73.2586,74.3588,0,1,1,0,1,0.8,1.4693,,,,,,,,,,,,,,,,,,,,,,
,,,,,,,67d8b7fa2cc04185f7d10c26,682530d132ff60e8e38bc981,2025-05-14_19h10.22.418,cuing_paradigm_dot,2024.1.5,Win32,59.88023952,68242c07d0c0e200c6451fdd,,,,,,,,,,,,,,,,,,,,,,,,,,,,74.3595,78.2314,space,0.8676,,,,,,,,,,,,,,,,,
,,,,,,,67d8b7fa2cc04185f7d10c26,682530d132ff60e8e38bc981,2025-05-14_19h10.22.418,cuing_paradigm_dot,2024.1.5,Win32,59.88023952,68242c07d0c0e200c6451fdd,,,,,,,,,,,78.27,78.7412,,,78.9827,79.3927,right,,,,,,,,0.4,0.3853,,,,,,,78.7418,78.9826,79.3934,80.494,0,0,0,35,1,,,,,,,
,,,,,,,67d8b7fa2cc04185f7d10c26,682530d132ff60e8e38bc981,2025-05-14_19h10.22.418,cuing_paradigm_dot,2024.1.5,Win32,59.88023952,68242c07d0c0e200c6451fdd,,,,,,,,,,,80.495,80.9941,,,81.2328,82.6628,right,,,,,,,,0.5,1.4086,,,,,,,80.9943,81.2327,82.6629,83.7634,0,1,1,115,1,,,,,,,
,,,,,,,67d8b7fa2cc04185f7d10c26,682530d132ff60e8e38bc981,2025-05-14_19h10.22.418,cuing_paradigm_dot,2024.1.5,Win32,59.88023952,68242c07d0c0e200c6451fdd,,,,,,,,,,,83.7642,84.2644,,,84.5197,84.7484,right,,,,,,,,0.9,0.2024,,,,,,,84.2644,84.5197,84.7486,85.8492,0,2,2,207,1,,,,,,,
,,,,,,,67d8b7fa2cc04185f7d10c26,682530d132ff60e8e38bc981,2025-05-14_19h10.22.418,cuing_paradigm_dot,2024.1.5,Win32,59.88023952,68242c07d0c0e200c6451fdd,,,,,,,,,,,85.85,86.3499,,,86.5894,86.6839,right,,,,,,,,0.45,0.0728,,,,,,,86.35,86.5894,86.6841,87.7848,0,3,3,71,1,,,,,,,
,,,,,,,67d8b7fa2cc04185f7d10c26,682530d132ff60e8e38bc981,2025-05-14_19h10.22.418,cuing_paradigm_dot,2024.1.5,Win32,59.88023952,68242c07d0c0e200c6451fdd,,,,,,,,,,,87.7861,88.2857,,,88.5242,90.0207,,,,,,,,,0.9,,,,,,,,88.2857,88.5241,90.0208,91.122,0,4,4,198,1,,,,,,,
,,,,,,,67d8b7fa2cc04185f7d10c26,682530d132ff60e8e38bc981,2025-05-14_19h10.22.418,cuing_paradigm_dot,2024.1.5,Win32,59.88023952,68242c07d0c0e200c6451fdd,,,,,,,,,,,91.123,91.6226,,,91.8614,93.3578,,,,,,,,,0.6,,,,,,,,91.6227,91.8612,93.3579,94.4588,0,5,5,162,1,,,,,,,
,,,,,,,67d8b7fa2cc04185f7d10c26,682530d132ff60e8e38bc981,2025-05-14_19h10.22.418,cuing_paradigm_dot,2024.1.5,Win32,59.88023952,68242c07d0c0e200c6451fdd,,,,,,,,,,,94.4596,94.9594,,,95.1991,96.6946,,,,,,,,,0.1,,,,,,,,94.9594,95.1991,96.6948,97.7961,0,6,6,16,1,,,,,,,
,,,,,,,67d8b7fa2cc04185f7d10c26,682530d132ff60e8e38bc981,2025-05-14_19h10.22.418,cuing_paradigm_dot,2024.1.5,Win32,59.88023952,68242c07d0c0e200c6451fdd,,,,,,,,,,,97.7971,98.2964,,,98.5358,99.4648,right,,,,,,,,0.5,0.9029,,,,,,,98.2967,98.5358,99.465,100.5654,0,7,7,110,1,,,,,,,
,,,,,,,67d8b7fa2cc04185f7d10c26,682530d132ff60e8e38bc981,2025-05-14_19h10.22.418,cuing_paradigm_dot,2024.1.5,Win32,59.88023952,68242c07d0c0e200c6451fdd,,,,,,,,,,,100.566,101.0661,,,101.3049,102.2349,left,,,,,,,,0.55,0.9084,,,,,,,101.0662,101.3049,102.2353,103.3352,0,8,8,137,1,,,,,,,
,,,,,,,67d8b7fa2cc04185f7d10c26,682530d132ff60e8e38bc981,2025-05-14_19h10.22.418,cuing_paradigm_dot,2024.1.5,Win32,59.88023952,68242c07d0c0e200c6451fdd,,,,,,,,,,,103.336,103.8355,,,104.0745,104.2533,left,,,,,,,,0.4,0.1511,,,,,,,103.8357,104.0744,104.2534,105.354,0,9,9,37,1,,,,,,,
,,,,,,,67d8b7fa2cc04185f7d10c26,682530d132ff60e8e38bc981,2025-05-14_19h10.22.418,cuing_paradigm_dot,2024.1.5,Win32,59.88023952,68242c07d0c0e200c6451fdd,,,,,,,,,,,105.3547,105.8546,,,106.111,106.5724,right,,,,,,,,0.4,0.4435,,,,,,,105.8547,106.111,106.5726,107.6732,0,10,10,38,1,,,,,,,
,,,,,,,67d8b7fa2cc04185f7d10c26,682530d132ff60e8e38bc981,2025-05-14_19h10.22.418,cuing_paradigm_dot,2024.1.5,Win32,59.88023952,68242c07d0c0e200c6451fdd,,,,,,,,,,,107.6741,108.1737,,,108.4131,108.9248,right,,,,,,,,0.9,0.4922,,,,,,,108.1738,108.413,108.925,110.0254,0,11,11,184,1,,,,,,,
,,,,,,,67d8b7fa2cc04185f7d10c26,682530d132ff60e8e38bc981,2025-05-14_19h10.22.418,cuing_paradigm_dot,2024.1.5,Win32,59.88023952,68242c07d0c0e200c6451fdd,,,,,,,,,,,110.0266,110.5265,,,110.7659,111.1942,left,,,,,,,,0.1,0.4022,,,,,,,110.5266,110.7659,111.1945,112.2949,0,12,12,12,1,,,,,,,
,,,,,,,67d8b7fa2cc04185f7d10c26,682530d132ff60e8e38bc981,2025-05-14_19h10.22.418,cuing_paradigm_dot,2024.1.5,Win32,59.88023952,68242c07d0c0e200c6451fdd,,,,,,,,,,,112.2957,112.7954,,,113.0346,113.6134,right,,,,,,,,0.45,0.5507,,,,,,,112.7955,113.0346,113.6136,114.7144,0,13,13,86,1,,,,,,,
,,,,,,,67d8b7fa2cc04185f7d10c26,682530d132ff60e8e38bc981,2025-05-14_19h10.22.418,cuing_paradigm_dot,2024.1.5,Win32,59.88023952,68242c07d0c0e200c6451fdd,,,,,,,,,,,114.7151,115.2149,,,115.4545,115.6491,left,,,,,,,,0.1,0.1688,,,,,,,115.215,115.4545,115.6494,116.7499,0,14,14,14,1,,,,,,,
,,,,,,,67d8b7fa2cc04185f7d10c26,682530d132ff60e8e38bc981,2025-05-14_19h10.22.418,cuing_paradigm_dot,2024.1.5,Win32,59.88023952,68242c07d0c0e200c6451fdd,,,,,,,,,,,116.7507,117.2506,,,117.4901,118.4688,left,,,,,,,,0.4,0.9602,,,,,,,117.2507,117.4901,118.4689,119.5697,0,15,15,54,1,,,,,,,
,,,,,,,67d8b7fa2cc04185f7d10c26,682530d132ff60e8e38bc981,2025-05-14_19h10.22.418,cuing_paradigm_dot,2024.1.5,Win32,59.88023952,68242c07d0c0e200c6451fdd,,,,,,,,,,,119.5704,120.0703,,,120.3089,121.0884,right,,,,,,,,0.4,0.7527,,,,,,,120.0703,120.3089,121.0885,122.1893,0,16,16,57,1,,,,,,,
,,,,,,,67d8b7fa2cc04185f7d10c26,682530d132ff60e8e38bc981,2025-05-14_19h10.22.418,cuing_paradigm_dot,2024.1.5,Win32,59.88023952,68242c07d0c0e200c6451fdd,,,,,,,,,,,122.19,122.6896,,,122.9286,123.2908,left,,,,,,,,0.9,0.3365,,,,,,,122.6897,122.9285,123.291,124.3917,0,17,17,192,1,,,,,,,
,,,,,,,67d8b7fa2cc04185f7d10c26,682530d132ff60e8e38bc981,2025-05-14_19h10.22.418,cuing_paradigm_dot,2024.1.5,Win32,59.88023952,68242c07d0c0e200c6451fdd,,,,,,,,,,,124.3925,124.8923,,,125.1311,125.6268,right,,,,,,,,0.55,0.4704,,,,,,,124.8924,125.1311,125.627,126.7275,0,18,18,125,1,,,,,,,
,,,,,,,67d8b7fa2cc04185f7d10c26,682530d132ff60e8e38bc981,2025-05-14_19h10.22.418,cuing_paradigm_dot,2024.1.5,Win32,59.88023952,68242c07d0c0e200c6451fdd,,,,,,,,,,,126.7282,127.2281,,,127.4793,127.8795,right,,,,,,,,0.55,0.3683,,,,,,,127.2282,127.4792,127.8796,128.98,0,19,19,144,1,,,,,,,
,,,,,,,67d8b7fa2cc04185f7d10c26,682530d132ff60e8e38bc981,2025-05-14_19h10.22.418,cuing_paradigm_dot,2024.1.5,Win32,59.88023952,68242c07d0c0e200c6451fdd,,,,,,,,,,,128.9807,129.4807,,,129.7201,130.2319,right,,,,,,,,0.55,0.4901,,,,,,,129.4807,129.7201,130.2319,131.3326,0,20,20,123,1,,,,,,,
,,,,,,,67d8b7fa2cc04185f7d10c26,682530d132ff60e8e38bc981,2025-05-14_19h10.22.418,cuing_paradigm_dot,2024.1.5,Win32,59.88023952,68242c07d0c0e200c6451fdd,,,,,,,,,,,131.3333,131.8334,,,132.0726,132.5175,right,,,,,,,,0.55,0.4212,,,,,,,131.8335,132.0725,132.5177,133.6186,0,21,21,126,1,,,,,,,
,,,,,,,67d8b7fa2cc04185f7d10c26,682530d132ff60e8e38bc981,2025-05-14_19h10.22.418,cuing_paradigm_dot,2024.1.5,Win32,59.88023952,68242c07d0c0e200c6451fdd,,,,,,,,,,,133.6194,134.1189,,,134.3585,134.6367,right,,,,,,,,0.9,0.2516,,,,,,,134.119,134.3585,134.6369,135.7376,0,22,22,195,1,,,,,,,
,,,,,,,67d8b7fa2cc04185f7d10c26,682530d132ff60e8e38bc981,2025-05-14_19h10.22.418,cuing_paradigm_dot,2024.1.5,Win32,59.88023952,68242c07d0c0e200c6451fdd,,,,,,,,,,,135.7383,136.2382,,,136.4768,137.0393,right,,,,,,,,0.5,0.5405,,,,,,,136.2383,136.4767,137.0393,138.1401,0,23,23,96,1,,,,,,,
,,,,,,,67d8b7fa2cc04185f7d10c26,682530d132ff60e8e38bc981,2025-05-14_19h10.22.418,cuing_paradigm_dot,2024.1.5,Win32,59.88023952,68242c07d0c0e200c6451fdd,,,,,,,,,,,138.1408,138.6405,,,138.8802,139.3752,right,,,,,,,,0.4,0.4739,,,,,,,138.6406,138.88,139.3753,140.4759,0,24,24,51,1,,,,,,,
,,,,,,,67d8b7fa2cc04185f7d10c26,682530d132ff60e8e38bc981,2025-05-14_19h10.22.418,cuing_paradigm_dot,2024.1.5,Win32,59.88023952,68242c07d0c0e200c6451fdd,,,,,,,,,,,140.4765,140.9764,,,141.216,141.684,left,,,,,,,,0.55,0.4513,,,,,,,140.9765,141.216,141.684,142.7787,0,25,25,130,1,,,,,,,
,,,,,,,67d8b7fa2cc04185f7d10c26,682530d132ff60e8e38bc981,2025-05-14_19h10.22.418,cuing_paradigm_dot,2024.1.5,Win32,59.88023952,68242c07d0c0e200c6451fdd,,,,,,,,,,,142.78,143.279,,,143.5355,143.8969,right,,,,,,,,0.6,0.3385,,,,,,,143.279,143.5354,143.8971,144.9975,0,26,26,156,1,,,,,,,
,,,,,,,67d8b7fa2cc04185f7d10c26,682530d132ff60e8e38bc981,2025-05-14_19h10.22.418,cuing_paradigm_dot,2024.1.5,Win32,59.88023952,68242c07d0c0e200c6451fdd,,,,,,,,,,,144.9983,145.4981,,,145.7494,146.216,left,,,,,,,,0.45,0.4397,,,,,,,145.4982,145.7493,146.2162,147.3168,0,27,27,69,1,,,,,,,
,,,,,,,67d8b7fa2cc04185f7d10c26,682530d132ff60e8e38bc981,2025-05-14_19h10.22.418,cuing_paradigm_dot,2024.1.5,Win32,59.88023952,68242c07d0c0e200c6451fdd,,,,,,,,,,,147.3175,147.8176,,,148.057,148.3686,right,,,,,,,,0.6,0.2889,,,,,,,147.8176,148.057,148.3688,149.4571,0,28,28,171,1,,,,,,,
,,,,,,,67d8b7fa2cc04185f7d10c26,682530d132ff60e8e38bc981,2025-05-14_19h10.22.418,cuing_paradigm_dot,2024.1.5,Win32,59.88023952,68242c07d0c0e200c6451fdd,,,,,,,,,,,149.4576,149.9531,,,150.1927,150.5877,left,,,,,,,,0.5,0.3773,,,,,,,149.9532,150.1926,150.5885,151.6886,0,29,29,105,1,,,,,,,
,,,,,,,67d8b7fa2cc04185f7d10c26,682530d132ff60e8e38bc981,2025-05-14_19h10.22.418,cuing_paradigm_dot,2024.1.5,Win32,59.88023952,68242c07d0c0e200c6451fdd,,,,,,,,,,,151.6894,152.1891,,,152.4285,152.6067,right,,,,,,,,0.9,0.1515,,,,,,,152.1892,152.4284,152.6068,153.7073,0,30,30,180,1,,,,,,,
,,,,,,,67d8b7fa2cc04185f7d10c26,682530d132ff60e8e38bc981,2025-05-14_19h10.22.418,cuing_paradigm_dot,2024.1.5,Win32,59.88023952,68242c07d0c0e200c6451fdd,,,,,,,,,,,153.7079,154.2089,,,154.4632,155.1126,left,,,,,,,,0.55,0.6322,,,,,,,154.209,154.4631,155.1126,156.2099,0,31,31,138,1,,,,,,,
,,,,,,,67d8b7fa2cc04185f7d10c26,682530d132ff60e8e38bc981,2025-05-14_19h10.22.418,cuing_paradigm_dot,2024.1.5,Win32,59.88023952,68242c07d0c0e200c6451fdd,,,,,,,,,,,156.2106,156.7105,,,156.964,157.4283,right,,,,,,,,0.6,0.4432,,,,,,,156.7106,156.9639,157.4284,158.5295,0,32,32,177,1,,,,,,,
,,,,,,,67d8b7fa2cc04185f7d10c26,682530d132ff60e8e38bc981,2025-05-14_19h10.22.418,cuing_paradigm_dot,2024.1.5,Win32,59.88023952,68242c07d0c0e200c6451fdd,,,,,,,,,,,158.5302,159.0301,,,159.2684,159.6807,right,,,,,,,,0.9,0.3857,,,,,,,159.0304,159.2684,159.6809,160.7816,0,33,33,185,1,,,,,,,
,,,,,,,67d8b7fa2cc04185f7d10c26,682530d132ff60e8e38bc981,2025-05-14_19h10.22.418,cuing_paradigm_dot,2024.1.5,Win32,59.88023952,68242c07d0c0e200c6451fdd,,,,,,,,,,,160.7824,161.2823,,,161.521,162.1502,right,,,,,,,,0.5,0.6042,,,,,,,161.2824,161.521,162.1504,163.2511,0,34,34,102,1,,,,,,,
,,,,,,,67d8b7fa2cc04185f7d10c26,682530d132ff60e8e38bc981,2025-05-14_19h10.22.418,cuing_paradigm_dot,2024.1.5,Win32,59.88023952,68242c07d0c0e200c6451fdd,,,,,,,,,,,163.252,163.7515,,,163.9907,164.5865,left,,,,,,,,0.5,0.5711,,,,,,,163.7516,163.9907,164.5867,165.6869,0,35,35,108,1,,,,,,,
,,,,,,,67d8b7fa2cc04185f7d10c26,682530d132ff60e8e38bc981,2025-05-14_19h10.22.418,cuing_paradigm_dot,2024.1.5,Win32,59.88023952,68242c07d0c0e200c6451fdd,,,,,,,,,,,165.6877,166.1875,,,166.4263,166.5718,right,,,,,,,,0.9,0.1227,,,,,,,166.1876,166.4262,166.5719,167.6725,0,36,36,183,1,,,,,,,
,,,,,,,67d8b7fa2cc04185f7d10c26,682530d132ff60e8e38bc981,2025-05-14_19h10.22.418,cuing_paradigm_dot,2024.1.5,Win32,59.88023952,68242c07d0c0e200c6451fdd,,,,,,,,,,,167.6732,168.1731,,,168.4244,169.0244,left,,,,,,,,0.1,0.5725,,,,,,,168.1732,168.4244,169.0246,170.1252,0,37,37,5,1,,,,,,,
,,,,,,,67d8b7fa2cc04185f7d10c26,682530d132ff60e8e38bc981,2025-05-14_19h10.22.418,cuing_paradigm_dot,2024.1.5,Win32,59.88023952,68242c07d0c0e200c6451fdd,,,,,,,,,,,170.1259,170.6257,,,170.8644,171.0601,right,,,,,,,,0.9,0.1685,,,,,,,170.6258,170.8644,171.0602,172.1608,0,38,38,206,1,,,,,,,
,,,,,,,67d8b7fa2cc04185f7d10c26,682530d132ff60e8e38bc981,2025-05-14_19h10.22.418,cuing_paradigm_dot,2024.1.5,Win32,59.88023952,68242c07d0c0e200c6451fdd,,,,,,,,,,,172.1615,172.6616,,,172.9012,173.5294,right,,,,,,,,0.5,0.6019,,,,,,,172.6617,172.9011,173.5295,174.6304,0,39,39,116,1,,,,,,,
,,,,,,,67d8b7fa2cc04185f7d10c26,682530d132ff60e8e38bc981,2025-05-14_19h10.22.418,cuing_paradigm_dot,2024.1.5,Win32,59.88023952,68242c07d0c0e200c6451fdd,,,,,,,,,,,174.6312,175.1308,,,175.3873,175.7154,left,,,,,,,,0.6,0.3015,,,,,,,175.1308,175.3872,175.7155,176.8161,0,40,40,172,1,,,,,,,
,,,,,,,67d8b7fa2cc04185f7d10c26,682530d132ff60e8e38bc981,2025-05-14_19h10.22.418,cuing_paradigm_dot,2024.1.5,Win32,59.88023952,68242c07d0c0e200c6451fdd,,,,,,,,,,,176.8172,177.3164,,,177.5554,177.7674,right,,,,,,,,0.45,0.1852,,,,,,,177.3166,177.5554,177.7678,178.8685,0,41,41,87,1,,,,,,,
,,,,,,,67d8b7fa2cc04185f7d10c26,682530d132ff60e8e38bc981,2025-05-14_19h10.22.418,cuing_paradigm_dot,2024.1.5,Win32,59.88023952,68242c07d0c0e200c6451fdd,,,,,,,,,,,178.8692,179.3688,,,179.6077,180.1033,right,,,,,,,,0.45,0.4736,,,,,,,179.3688,179.6076,180.1034,181.2042,0,42,42,72,1,,,,,,,
,,,,,,,67d8b7fa2cc04185f7d10c26,682530d132ff60e8e38bc981,2025-05-14_19h10.22.418,cuing_paradigm_dot,2024.1.5,Win32,59.88023952,68242c07d0c0e200c6451fdd,,,,,,,,,,,181.2048,181.705,,,181.9435,182.5227,right,,,,,,,,0.9,0.5576,,,,,,,181.7051,181.9434,182.5229,183.6236,0,43,43,196,1,,,,,,,
,,,,,,,67d8b7fa2cc04185f7d10c26,682530d132ff60e8e38bc981,2025-05-14_19h10.22.418,cuing_paradigm_dot,2024.1.5,Win32,59.88023952,68242c07d0c0e200c6451fdd,,,,,,,,,,,183.6244,184.124,,,184.3636,184.9252,left,,,,,,,,0.5,0.5423,,,,,,,184.1241,184.3636,184.9254,186.0259,0,44,44,94,1,,,,,,,
,,,,,,,67d8b7fa2cc04185f7d10c26,682530d132ff60e8e38bc981,2025-05-14_19h10.22.418,cuing_paradigm_dot,2024.1.5,Win32,59.88023952,68242c07d0c0e200c6451fdd,,,,,,,,,,,186.0268,186.5266,,,186.7654,186.9275,right,,,,,,,,0.6,0.1396,,,,,,,186.5266,186.7654,186.9277,188.0285,0,45,45,165,1,,,,,,,
,,,,,,,67d8b7fa2cc04185f7d10c26,682530d132ff60e8e38bc981,2025-05-14_19h10.22.418,cuing_paradigm_dot,2024.1.5,Win32,59.88023952,68242c07d0c0e200c6451fdd,,,,,,,,,,,188.0292,188.529,,,188.7678,189.2469,left,,,,,,,,0.4,0.4536,,,,,,,188.529,188.7678,189.2469,190.3478,0,46,46,39,1,,,,,,,
,,,,,,,67d8b7fa2cc04185f7d10c26,682530d132ff60e8e38bc981,2025-05-14_19h10.22.418,cuing_paradigm_dot,2024.1.5,Win32,59.88023952,68242c07d0c0e200c6451fdd,,,,,,,,,,,190.3485,190.848,,,191.0876,191.4324,right,,,,,,,,0.55,0.319,,,,,,,190.8481,191.0876,191.4325,192.5333,0,47,47,127,1,,,,,,,
,,,,,,,67d8b7fa2cc04185f7d10c26,682530d132ff60e8e38bc981,2025-05-14_19h10.22.418,cuing_paradigm_dot,2024.1.5,Win32,59.88023952,68242c07d0c0e200c6451fdd,,,,,,,,,,,192.534,193.0338,,,193.2899,193.6684,left,,,,,,,,0.5,0.3586,,,,,,,193.0339,193.2899,193.6686,194.769,0,48,48,91,1,,,,,,,
,,,,,,,67d8b7fa2cc04185f7d10c26,682530d132ff60e8e38bc981,2025-05-14_19h10.22.418,cuing_paradigm_dot,2024.1.5,Win32,59.88023952,68242c07d0c0e200c6451fdd,,,,,,,,,,,194.7698,195.2698,,,195.5086,195.6372,right,,,,,,,,0.6,0.1086,,,,,,,195.2698,195.5086,195.6373,196.7381,0,49,49,169,1,,,,,,,
,,,,,,,67d8b7fa2cc04185f7d10c26,682530d132ff60e8e38bc981,2025-05-14_19h10.22.418,cuing_paradigm_dot,2024.1.5,Win32,59.88023952,68242c07d0c0e200c6451fdd,,,,,,,,,,,196.7388,197.2386,,,197.4771,198.3568,right,,,,,,,,0.9,0.8528,,,,,,,197.2387,197.477,198.3569,199.4577,0,50,50,197,1,,,,,,,
,,,,,,,67d8b7fa2cc04185f7d10c26,682530d132ff60e8e38bc981,2025-05-14_19h10.22.418,cuing_paradigm_dot,2024.1.5,Win32,59.88023952,68242c07d0c0e200c6451fdd,,,,,,,,,,,199.4586,199.958,,,200.1968,201.2933,left,,,,,,,,0.5,1.0691,,,,,,,199.958,200.1968,201.2934,202.3943,0,51,51,101,1,,,,,,,
,,,,,,,67d8b7fa2cc04185f7d10c26,682530d132ff60e8e38bc981,2025-05-14_19h10.22.418,cuing_paradigm_dot,2024.1.5,Win32,59.88023952,68242c07d0c0e200c6451fdd,,,,,,,,,,,202.3951,202.8948,,,203.1341,203.3957,right,,,,,,,,0.1,0.2426,,,,,,,202.8949,203.134,203.3957,204.4967,0,52,52,0,1,,,,,,,
,,,,,,,67d8b7fa2cc04185f7d10c26,682530d132ff60e8e38bc981,2025-05-14_19h10.22.418,cuing_paradigm_dot,2024.1.5,Win32,59.88023952,68242c07d0c0e200c6451fdd,,,,,,,,,,,204.4976,204.9969,,,205.2361,205.8651,left,,,,,,,,0.45,0.6052,,,,,,,204.9971,205.2359,205.8652,206.9661,0,53,53,88,1,,,,,,,
,,,,,,,67d8b7fa2cc04185f7d10c26,682530d132ff60e8e38bc981,2025-05-14_19h10.22.418,cuing_paradigm_dot,2024.1.5,Win32,59.88023952,68242c07d0c0e200c6451fdd,,,,,,,,,,,206.9671,207.4664,,,207.705,208.2512,right,,,,,,,,0.45,0.5238,,,,,,,207.4665,207.7049,208.2513,209.3518,0,54,54,78,1,,,,,,,
,,,,,,,67d8b7fa2cc04185f7d10c26,682530d132ff60e8e38bc981,2025-05-14_19h10.22.418,cuing_paradigm_dot,2024.1.5,Win32,59.88023952,68242c07d0c0e200c6451fdd,,,,,,,,,,,209.3526,209.8525,,,210.0921,210.5702,left,,,,,,,,0.5,0.4579,,,,,,,209.8525,210.092,210.5704,211.6709,0,55,55,114,1,,,,,,,
,,,,,,,67d8b7fa2cc04185f7d10c26,682530d132ff60e8e38bc981,2025-05-14_19h10.22.418,cuing_paradigm_dot,2024.1.5,Win32,59.88023952,68242c07d0c0e200c6451fdd,,,,,,,,,,,211.6717,212.1716,,,212.4112,212.964,right,,,,,,,,0.55,0.5366,,,,,,,212.1718,212.4111,212.9641,214.057,0,56,56,131,1,,,,,,,
,,,,,,,67d8b7fa2cc04185f7d10c26,682530d132ff60e8e38bc981,2025-05-14_19h10.22.418,cuing_paradigm_dot,2024.1.5,Win32,59.88023952,68242c07d0c0e200c6451fdd,,,,,,,,,,,214.0577,214.5576,,,214.8085,215.3754,left,,,,,,,,0.5,0.5558,,,,,,,214.5576,214.8084,215.3755,216.4764,0,57,57,118,1,,,,,,,
,,,,,,,67d8b7fa2cc04185f7d10c26,682530d132ff60e8e38bc981,2025-05-14_19h10.22.418,cuing_paradigm_dot,2024.1.5,Win32,59.88023952,68242c07d0c0e200c6451fdd,,,,,,,,,,,216.4769,216.9769,,,217.2276,217.6447,right,,,,,,,,0.55,0.4083,,,,,,,216.977,217.2275,217.6447,218.7454,0,58,58,121,1,,,,,,,
,,,,,,,67d8b7fa2cc04185f7d10c26,682530d132ff60e8e38bc981,2025-05-14_19h10.22.418,cuing_paradigm_dot,2024.1.5,Win32,59.88023952,68242c07d0c0e200c6451fdd,,,,,,,,,,,218.746,219.2461,,,219.497,219.7638,left,,,,,,,,0.4,0.2509,,,,,,,219.2461,219.4969,219.7639,220.8645,0,59,59,52,1,,,,,,,
,,,,,,,67d8b7fa2cc04185f7d10c26,682530d132ff60e8e38bc981,2025-05-14_19h10.22.418,cuing_paradigm_dot,2024.1.5,Win32,59.88023952,68242c07d0c0e200c6451fdd,,,,,,,,,,,220.865,221.3652,,,221.616,221.7826,right,,,,,,,,0.55,0.156,,,,,,,221.3653,221.616,221.7828,222.8834,0,60,60,122,1,,,,,,,
,,,,,,,67d8b7fa2cc04185f7d10c26,682530d132ff60e8e38bc981,2025-05-14_19h10.22.418,cuing_paradigm_dot,2024.1.5,Win32,59.88023952,68242c07d0c0e200c6451fdd,,,,,,,,,,,222.8839,223.3838,,,223.6349,223.7848,left,,,,,,,,0.45,0.1341,,,,,,,223.3839,223.6348,223.7849,224.8857,0,61,61,76,1,,,,,,,
,,,,,,,67d8b7fa2cc04185f7d10c26,682530d132ff60e8e38bc981,2025-05-14_19h10.22.418,cuing_paradigm_dot,2024.1.5,Win32,59.88023952,68242c07d0c0e200c6451fdd,,,,,,,,,,,224.8862,225.3862,,,225.6372,225.7705,right,,,,,,,,0.6,0.1231,,,,,,,225.3863,225.637,225.7706,226.8711,0,62,62,166,1,,,,,,,
,,,,,,,67d8b7fa2cc04185f7d10c26,682530d132ff60e8e38bc981,2025-05-14_19h10.22.418,cuing_paradigm_dot,2024.1.5,Win32,59.88023952,68242c07d0c0e200c6451fdd,,,,,,,,,,,226.8716,227.3717,,,227.6225,227.7558,left,,,,,,,,0.4,0.1253,,,,,,,227.3717,227.6225,227.7558,228.8568,0,63,63,41,1,,,,,,,
,,,,,,,67d8b7fa2cc04185f7d10c26,682530d132ff60e8e38bc981,2025-05-14_19h10.22.418,cuing_paradigm_dot,2024.1.5,Win32,59.88023952,68242c07d0c0e200c6451fdd,,,,,,,,,,,228.8572,229.3572,,,229.6081,229.7413,right,,,,,,,,0.9,0.1199,,,,,,,229.3573,229.6081,229.7413,230.8422,0,64,64,189,1,,,,,,,
,,,,,,,67d8b7fa2cc04185f7d10c26,682530d132ff60e8e38bc981,2025-05-14_19h10.22.418,cuing_paradigm_dot,2024.1.5,Win32,59.88023952,68242c07d0c0e200c6451fdd,,,,,,,,,,,230.8428,231.3428,,,231.5934,232.0605,right,,,,,,,,0.55,0.4587,,,,,,,231.3429,231.5934,232.0606,233.1614,0,65,65,133,1,,,,,,,
,,,,,,,67d8b7fa2cc04185f7d10c26,682530d132ff60e8e38bc981,2025-05-14_19h10.22.418,cuing_paradigm_dot,2024.1.5,Win32,59.88023952,68242c07d0c0e200c6451fdd,,,,,,,,,,,233.1618,233.6619,,,233.9127,234.4131,right,,,,,,,,0.9,0.4849,,,,,,,233.662,233.9126,234.4131,235.5139,0,66,66,199,1,,,,,,,
,,,,,,,67d8b7fa2cc04185f7d10c26,682530d132ff60e8e38bc981,2025-05-14_19h10.22.418,cuing_paradigm_dot,2024.1.5,Win32,59.88023952,68242c07d0c0e200c6451fdd,,,,,,,,,,,235.5145,236.0144,,,236.2653,236.6656,left,,,,,,,,0.5,0.3865,,,,,,,236.0145,236.2653,236.6657,237.7664,0,67,67,90,1,,,,,,,
,,,,,,,67d8b7fa2cc04185f7d10c26,682530d132ff60e8e38bc981,2025-05-14_19h10.22.418,cuing_paradigm_dot,2024.1.5,Win32,59.88023952,68242c07d0c0e200c6451fdd,,,,,,,,,,,237.767,238.267,,,238.5179,238.6845,right,,,,,,,,0.1,0.1509,,,,,,,238.2671,238.5178,238.6845,239.7855,0,68,68,18,1,,,,,,,
,,,,,,,67d8b7fa2cc04185f7d10c26,682530d132ff60e8e38bc981,2025-05-14_19h10.22.418,cuing_paradigm_dot,2024.1.5,Win32,59.88023952,68242c07d0c0e200c6451fdd,,,,,,,,,,,239.786,240.286,,,240.5366,240.9703,left,,,,,,,,0.6,0.4194,,,,,,,240.286,240.5366,240.9704,242.0712,0,69,69,161,1,,,,,,,
,,,,,,,67d8b7fa2cc04185f7d10c26,682530d132ff60e8e38bc981,2025-05-14_19h10.22.418,cuing_paradigm_dot,2024.1.5,Win32,59.88023952,68242c07d0c0e200c6451fdd,,,,,,,,,,,242.0718,242.5717,,,242.8225,243.4397,left,,,,,,,,0.1,0.6095,,,,,,,242.5719,242.8224,243.4398,244.5405,0,70,70,11,1,,,,,,,
,,,,,,,67d8b7fa2cc04185f7d10c26,682530d132ff60e8e38bc981,2025-05-14_19h10.22.418,cuing_paradigm_dot,2024.1.5,Win32,59.88023952,68242c07d0c0e200c6451fdd,,,,,,,,,,,244.5411,245.0411,,,245.292,245.9091,right,,,,,,,,0.55,0.6016,,,,,,,245.0413,245.2919,245.9091,247.0099,0,71,71,142,1,,,,,,,
,,,,,,,67d8b7fa2cc04185f7d10c26,682530d132ff60e8e38bc981,2025-05-14_19h10.22.418,cuing_paradigm_dot,2024.1.5,Win32,59.88023952,68242c07d0c0e200c6451fdd,,,,,,,,,,,247.0104,247.5105,,,247.7616,248.2952,right,,,,,,,,0.5,0.5178,,,,,,,247.5106,247.7614,248.2953,249.3961,0,72,72,107,1,,,,,,,
,,,,,,,67d8b7fa2cc04185f7d10c26,682530d132ff60e8e38bc981,2025-05-14_19h10.22.418,cuing_paradigm_dot,2024.1.5,Win32,59.88023952,68242c07d0c0e200c6451fdd,,,,,,,,,,,249.3966,249.8965,,,250.1472,250.8645,left,,,,,,,,0.1,0.7087,,,,,,,249.8965,250.1472,250.8646,251.9655,0,73,73,13,1,,,,,,,
,,,,,,,67d8b7fa2cc04185f7d10c26,682530d132ff60e8e38bc981,2025-05-14_19h10.22.418,cuing_paradigm_dot,2024.1.5,Win32,59.88023952,68242c07d0c0e200c6451fdd,,,,,,,,,,,251.9661,252.4661,,,252.7169,253.334,right,,,,,,,,0.55,0.6073,,,,,,,252.4661,252.7168,253.334,254.4349,0,74,74,124,1,,,,,,,
,,,,,,,67d8b7fa2cc04185f7d10c26,682530d132ff60e8e38bc981,2025-05-14_19h10.22.418,cuing_paradigm_dot,2024.1.5,Win32,59.88023952,68242c07d0c0e200c6451fdd,,,,,,,,,,,254.4353,254.9354,,,255.1864,255.7368,left,,,,,,,,0.1,0.5418,,,,,,,254.9354,255.1863,255.7368,256.8373,0,75,75,29,1,,,,,,,
,,,,,,,67d8b7fa2cc04185f7d10c26,682530d132ff60e8e38bc981,2025-05-14_19h10.22.418,cuing_paradigm_dot,2024.1.5,Win32,59.88023952,68242c07d0c0e200c6451fdd,,,,,,,,,,,256.8379,257.338,,,257.5888,258.1394,right,,,,,,,,0.55,0.5391,,,,,,,257.3381,257.5887,258.1395,259.2401,0,76,76,120,1,,,,,,,
,,,,,,,67d8b7fa2cc04185f7d10c26,682530d132ff60e8e38bc981,2025-05-14_19h10.22.418,cuing_paradigm_dot,2024.1.5,Win32,59.88023952,68242c07d0c0e200c6451fdd,,,,,,,,,,,259.2406,259.7406,,,259.9915,260.5752,left,,,,,,,,0.1,0.5722,,,,,,,259.7407,259.9915,260.5753,261.6766,0,77,77,26,1,,,,,,,
,,,,,,,67d8b7fa2cc04185f7d10c26,682530d132ff60e8e38bc981,2025-05-14_19h10.22.418,cuing_paradigm_dot,2024.1.5,Win32,59.88023952,68242c07d0c0e200c6451fdd,,,,,,,,,,,261.6771,262.1766,,,262.4273,262.9112,right,,,,,,,,0.4,0.4724,,,,,,,262.1767,262.4272,262.9112,264.012,0,78,78,32,1,,,,,,,
,,,,,,,67d8b7fa2cc04185f7d10c26,682530d132ff60e8e38bc981,2025-05-14_19h10.22.418,cuing_paradigm_dot,2024.1.5,Win32,59.88023952,68242c07d0c0e200c6451fdd,,,,,,,,,,,264.0125,264.5126,,,264.7633,265.4139,right,,,,,,,,0.6,0.6403,,,,,,,264.5127,264.7633,265.4139,266.5149,0,79,79,155,1,,,,,,,
,,,,,,,67d8b7fa2cc04185f7d10c26,682530d132ff60e8e38bc981,2025-05-14_19h10.22.418,cuing_paradigm_dot,2024.1.5,Win32,59.88023952,68242c07d0c0e200c6451fdd,,,,,,,,,,,266.5153,267.0153,,,267.2661,267.7666,right,,,,,,,,0.55,0.4859,,,,,,,267.0153,267.2661,267.7667,268.8674,0,80,80,136,1,,,,,,,
,,,,,,,67d8b7fa2cc04185f7d10c26,682530d132ff60e8e38bc981,2025-05-14_19h10.22.418,cuing_paradigm_dot,2024.1.5,Win32,59.88023952,68242c07d0c0e200c6451fdd,,,,,,,,,,,268.8679,269.368,,,269.6185,270.1858,right,,,,,,,,0.55,0.5532,,,,,,,269.368,269.6185,270.1859,271.2867,0,81,81,146,1,,,,,,,
,,,,,,,67d8b7fa2cc04185f7d10c26,682530d132ff60e8e38bc981,2025-05-14_19h10.22.418,cuing_paradigm_dot,2024.1.5,Win32,59.88023952,68242c07d0c0e200c6451fdd,,,,,,,,,,,271.2872,271.7873,,,272.0382,272.5885,right,,,,,,,,0.4,0.5377,,,,,,,271.7873,272.0382,272.5885,273.69,0,82,82,49,1,,,,,,,
,,,,,,,67d8b7fa2cc04185f7d10c26,682530d132ff60e8e38bc981,2025-05-14_19h10.22.418,cuing_paradigm_dot,2024.1.5,Win32,59.88023952,68242c07d0c0e200c6451fdd,,,,,,,,,,,273.6904,274.19,,,274.4406,274.9916,right,,,,,,,,0.6,0.5353,,,,,,,274.19,274.4406,274.9917,276.092,0,83,83,175,1,,,,,,,
,,,,,,,67d8b7fa2cc04185f7d10c26,682530d132ff60e8e38bc981,2025-05-14_19h10.22.418,cuing_paradigm_dot,2024.1.5,Win32,59.88023952,68242c07d0c0e200c6451fdd,,,,,,,,,,,276.0925,276.5924,,,276.8441,277.394,right,,,,,,,,0.9,0.5439,,,,,,,276.5925,276.8439,277.394,278.4948,0,84,84,186,1,,,,,,,
,,,,,,,67d8b7fa2cc04185f7d10c26,682530d132ff60e8e38bc981,2025-05-14_19h10.22.418,cuing_paradigm_dot,2024.1.5,Win32,59.88023952,68242c07d0c0e200c6451fdd,,,,,,,,,,,278.4953,278.9953,,,279.2461,279.8298,right,,,,,,,,0.6,0.5702,,,,,,,278.9954,279.246,279.8299,280.9306,0,85,85,176,1,,,,,,,
,,,,,,,67d8b7fa2cc04185f7d10c26,682530d132ff60e8e38bc981,2025-05-14_19h10.22.418,cuing_paradigm_dot,2024.1.5,Win32,59.88023952,68242c07d0c0e200c6451fdd,,,,,,,,,,,280.9311,281.4312,,,281.682,282.0824,right,,,,,,,,0.9,0.3942,,,,,,,281.4313,281.6819,282.0826,283.1832,0,86,86,204,1,,,,,,,
,,,,,,,67d8b7fa2cc04185f7d10c26,682530d132ff60e8e38bc981,2025-05-14_19h10.22.418,cuing_paradigm_dot,2024.1.5,Win32,59.88023952,68242c07d0c0e200c6451fdd,,,,,,,,,,,283.1838,283.6836,,,283.9344,284.4516,left,,,,,,,,0.4,0.5013,,,,,,,283.6838,283.9343,284.4516,285.5524,0,87,87,56,1,,,,,,,
,,,,,,,67d8b7fa2cc04185f7d10c26,682530d132ff60e8e38bc981,2025-05-14_19h10.22.418,cuing_paradigm_dot,2024.1.5,Win32,59.88023952,68242c07d0c0e200c6451fdd,,,,,,,,,,,285.5532,286.0529,,,286.3039,286.7708,left,,,,,,,,0.45,0.4596,,,,,,,286.053,286.3038,286.7708,287.8714,0,88,88,77,1,,,,,,,
,,,,,,,67d8b7fa2cc04185f7d10c26,682530d132ff60e8e38bc981,2025-05-14_19h10.22.418,cuing_paradigm_dot,2024.1.5,Win32,59.88023952,68242c07d0c0e200c6451fdd,,,,,,,,,,,287.8719,288.372,,,288.6229,288.9064,right,,,,,,,,0.6,0.2677,,,,,,,288.3721,288.6229,288.9065,290.0073,0,89,89,158,1,,,,,,,
,,,,,,,67d8b7fa2cc04185f7d10c26,682530d132ff60e8e38bc981,2025-05-14_19h10.22.418,cuing_paradigm_dot,2024.1.5,Win32,59.88023952,68242c07d0c0e200c6451fdd,,,,,,,,,,,290.0076,290.5083,,,290.7583,292.2596,,,,,,,,,0.4,,,,,,,,290.5083,290.7583,292.2597,293.361,0,90,90,42,1,,,,,,,
,,,,,,,67d8b7fa2cc04185f7d10c26,682530d132ff60e8e38bc981,2025-05-14_19h10.22.418,cuing_paradigm_dot,2024.1.5,Win32,59.88023952,68242c07d0c0e200c6451fdd,,,,,,,,,,,293.3617,293.8616,,,294.1119,295.6137,,,,,,,,,0.4,,,,,,,,293.8617,294.1118,295.6137,296.7147,0,91,91,31,1,,,,,,,
,,,,,,,67d8b7fa2cc04185f7d10c26,682530d132ff60e8e38bc981,2025-05-14_19h10.22.418,cuing_paradigm_dot,2024.1.5,Win32,59.88023952,68242c07d0c0e200c6451fdd,,,,,,,,,,,296.7152,297.2181,,,297.4666,298.9675,,,,,,,,,0.9,,,,,,,,297.2183,297.4666,298.9675,300.0687,0,92,92,181,1,,,,,,,
,,,,,,,67d8b7fa2cc04185f7d10c26,682530d132ff60e8e38bc981,2025-05-14_19h10.22.418,cuing_paradigm_dot,2024.1.5,Win32,59.88023952,68242c07d0c0e200c6451fdd,,,,,,,,,,,300.0692,300.558,,,300.8035,301.2204,right,,,,,,,,0.9,0.3932,,,,,,,300.5581,300.8034,301.2205,302.3208,0,93,93,187,1,,,,,,,
,,,,,,,67d8b7fa2cc04185f7d10c26,682530d132ff60e8e38bc981,2025-05-14_19h10.22.418,cuing_paradigm_dot,2024.1.5,Win32,59.88023952,68242c07d0c0e200c6451fdd,,,,,,,,,,,302.3215,302.8217,,,303.0611,303.5109,left,,,,,,,,0.5,0.4337,,,,,,,302.8217,303.061,303.511,304.6068,0,94,94,109,1,,,,,,,
,,,,,,,67d8b7fa2cc04185f7d10c26,682530d132ff60e8e38bc981,2025-05-14_19h10.22.418,cuing_paradigm_dot,2024.1.5,Win32,59.88023952,68242c07d0c0e200c6451fdd,,,,,,,,,,,304.6076,305.1075,,,305.3588,305.6753,right,,,,,,,,0.4,0.2848,,,,,,,305.1075,305.3586,305.6754,306.7758,0,95,95,44,1,,,,,,,
,,,,,,,67d8b7fa2cc04185f7d10c26,682530d132ff60e8e38bc981,2025-05-14_19h10.22.418,cuing_paradigm_dot,2024.1.5,Win32,59.88023952,68242c07d0c0e200c6451fdd,,,,,,,,,,,306.7767,307.2763,,,307.5149,307.894,right,,,,,,,,0.6,0.3536,,,,,,,307.2763,307.5148,307.8941,308.9949,0,96,96,163,1,,,,,,,
,,,,,,,67d8b7fa2cc04185f7d10c26,682530d132ff60e8e38bc981,2025-05-14_19h10.22.418,cuing_paradigm_dot,2024.1.5,Win32,59.88023952,68242c07d0c0e200c6451fdd,,,,,,,,,,,308.9957,309.4954,,,309.735,310.063,left,,,,,,,,0.4,0.3025,,,,,,,309.4955,309.735,310.0632,311.1641,0,97,97,50,1,,,,,,,
,,,,,,,67d8b7fa2cc04185f7d10c26,682530d132ff60e8e38bc981,2025-05-14_19h10.22.418,cuing_paradigm_dot,2024.1.5,Win32,59.88023952,68242c07d0c0e200c6451fdd,,,,,,,,,,,311.1647,311.6645,,,311.92,312.7673,left,,,,,,,,0.45,0.8296,,,,,,,311.6646,311.9199,312.7673,313.8669,0,98,98,83,1,,,,,,,
,,,,,,,67d8b7fa2cc04185f7d10c26,682530d132ff60e8e38bc981,2025-05-14_19h10.22.418,cuing_paradigm_dot,2024.1.5,Win32,59.88023952,68242c07d0c0e200c6451fdd,,,,,,,,,,,313.8679,314.3676,,,314.6071,315.3522,right,,,,,,,,0.6,0.7191,,,,,,,314.3677,314.607,315.3524,316.4532,0,99,99,168,1,,,,,,,
,,,,,,,67d8b7fa2cc04185f7d10c26,682530d132ff60e8e38bc981,2025-05-14_19h10.22.418,cuing_paradigm_dot,2024.1.5,Win32,59.88023952,68242c07d0c0e200c6451fdd,,,,,,,,,,,316.454,316.9536,,,317.1932,318.2229,right,,,,,,,,0.9,1.0131,,,,,,,316.9537,317.1931,318.2231,319.3229,0,100,100,200,1,,,,,,,
,,,,,,,67d8b7fa2cc04185f7d10c26,682530d132ff60e8e38bc981,2025-05-14_19h10.22.418,cuing_paradigm_dot,2024.1.5,Win32,59.88023952,68242c07d0c0e200c6451fdd,,,,,,,,,,,319.3237,319.8236,,,320.0629,320.8083,right,,,,,,,,0.6,0.7224,,,,,,,319.8236,320.0629,320.8084,321.909,0,101,101,157,1,,,,,,,
,,,,,,,67d8b7fa2cc04185f7d10c26,682530d132ff60e8e38bc981,2025-05-14_19h10.22.418,cuing_paradigm_dot,2024.1.5,Win32,59.88023952,68242c07d0c0e200c6451fdd,,,,,,,,,,,321.9097,322.4097,,,322.6659,323.3114,left,,,,,,,,0.1,0.6234,,,,,,,322.4098,322.6659,323.3114,324.4118,0,102,102,15,1,,,,,,,
,,,,,,,67d8b7fa2cc04185f7d10c26,682530d132ff60e8e38bc981,2025-05-14_19h10.22.418,cuing_paradigm_dot,2024.1.5,Win32,59.88023952,68242c07d0c0e200c6451fdd,,,,,,,,,,,324.4125,324.9125,,,325.1515,325.6472,right,,,,,,,,0.45,0.4737,,,,,,,324.9126,325.1513,325.6473,326.7479,0,103,103,63,1,,,,,,,
,,,,,,,67d8b7fa2cc04185f7d10c26,682530d132ff60e8e38bc981,2025-05-14_19h10.22.418,cuing_paradigm_dot,2024.1.5,Win32,59.88023952,68242c07d0c0e200c6451fdd,,,,,,,,,,,326.7487,327.2482,,,327.4873,327.9328,right,,,,,,,,0.5,0.4185,,,,,,,327.2483,327.4872,327.9329,329.0336,0,104,104,100,1,,,,,,,
,,,,,,,67d8b7fa2cc04185f7d10c26,682530d132ff60e8e38bc981,2025-05-14_19h10.22.418,cuing_paradigm_dot,2024.1.5,Win32,59.88023952,68242c07d0c0e200c6451fdd,,,,,,,,,,,329.0345,329.5341,,,329.7902,330.519,right,,,,,,,,0.9,0.7069,,,,,,,329.5343,329.7901,330.5191,331.6199,0,105,105,193,1,,,,,,,
,,,,,,,67d8b7fa2cc04185f7d10c26,682530d132ff60e8e38bc981,2025-05-14_19h10.22.418,cuing_paradigm_dot,2024.1.5,Win32,59.88023952,68242c07d0c0e200c6451fdd,,,,,,,,,,,331.6207,332.1205,,,332.3592,333.1218,right,,,,,,,,0.6,0.7351,,,,,,,332.1205,332.3592,333.1218,334.223,0,106,106,159,1,,,,,,,
,,,,,,,67d8b7fa2cc04185f7d10c26,682530d132ff60e8e38bc981,2025-05-14_19h10.22.418,cuing_paradigm_dot,2024.1.5,Win32,59.88023952,68242c07d0c0e200c6451fdd,,,,,,,,,,,334.2237,334.7236,,,334.9789,335.5912,left,,,,,,,,0.5,0.5941,,,,,,,334.7236,334.9789,335.5914,336.692,0,107,107,117,1,,,,,,,
,,,,,,,67d8b7fa2cc04185f7d10c26,682530d132ff60e8e38bc981,2025-05-14_19h10.22.418,cuing_paradigm_dot,2024.1.5,Win32,59.88023952,68242c07d0c0e200c6451fdd,,,,,,,,,,,336.6927,337.1931,,,337.4313,337.8272,right,,,,,,,,0.5,0.3696,,,,,,,337.1933,337.4313,337.8273,338.9279,0,108,108,97,1,,,,,,,
,,,,,,,67d8b7fa2cc04185f7d10c26,682530d132ff60e8e38bc981,2025-05-14_19h10.22.418,cuing_paradigm_dot,2024.1.5,Win32,59.88023952,68242c07d0c0e200c6451fdd,,,,,,,,,,,338.9288,339.4286,,,339.6795,340.1628,left,,,,,,,,0.5,0.4519,,,,,,,339.4287,339.6794,340.163,341.2639,0,109,109,92,1,,,,,,,
,,,,,,,67d8b7fa2cc04185f7d10c26,682530d132ff60e8e38bc981,2025-05-14_19h10.22.418,cuing_paradigm_dot,2024.1.5,Win32,59.88023952,68242c07d0c0e200c6451fdd,,,,,,,,,,,341.2646,341.7649,,,342.0202,342.1983,right,,,,,,,,0.1,0.1609,,,,,,,341.765,342.0202,342.1984,343.2994,0,110,110,9,1,,,,,,,
,,,,,,,67d8b7fa2cc04185f7d10c26,682530d132ff60e8e38bc981,2025-05-14_19h10.22.418,cuing_paradigm_dot,2024.1.5,Win32,59.88023952,68242c07d0c0e200c6451fdd,,,,,,,,,,,343.3001,343.8,,,344.0396,344.5345,left,,,,,,,,0.55,0.4741,,,,,,,343.8001,344.0395,344.5347,345.6351,0,111,111,128,1,,,,,,,
,,,,,,,67d8b7fa2cc04185f7d10c26,682530d132ff60e8e38bc981,2025-05-14_19h10.22.418,cuing_paradigm_dot,2024.1.5,Win32,59.88023952,68242c07d0c0e200c6451fdd,,,,,,,,,,,345.6361,346.1358,,,346.3755,347.3551,left,,,,,,,,0.55,0.9626,,,,,,,346.1358,346.3755,347.3551,348.455,0,112,112,147,1,,,,,,,
,,,,,,,67d8b7fa2cc04185f7d10c26,682530d132ff60e8e38bc981,2025-05-14_19h10.22.418,cuing_paradigm_dot,2024.1.5,Win32,59.88023952,68242c07d0c0e200c6451fdd,,,,,,,,,,,348.4557,348.9556,,,349.1944,349.8069,right,,,,,,,,0.5,0.5854,,,,,,,348.9557,349.1944,349.807,350.9079,0,113,113,119,1,,,,,,,
,,,,,,,67d8b7fa2cc04185f7d10c26,682530d132ff60e8e38bc981,2025-05-14_19h10.22.418,cuing_paradigm_dot,2024.1.5,Win32,59.88023952,68242c07d0c0e200c6451fdd,,,,,,,,,,,350.9087,351.4085,,,351.6647,352.3263,right,,,,,,,,0.9,0.6355,,,,,,,351.4086,351.6646,352.3264,353.427,0,114,114,202,1,,,,,,,
,,,,,,,67d8b7fa2cc04185f7d10c26,682530d132ff60e8e38bc981,2025-05-14_19h10.22.418,cuing_paradigm_dot,2024.1.5,Win32,59.88023952,68242c07d0c0e200c6451fdd,,,,,,,,,,,353.4279,353.9278,,,354.1669,354.6455,left,,,,,,,,0.1,0.4587,,,,,,,353.9279,354.1669,354.6456,355.7465,0,115,115,28,1,,,,,,,
,,,,,,,67d8b7fa2cc04185f7d10c26,682530d132ff60e8e38bc981,2025-05-14_19h10.22.418,cuing_paradigm_dot,2024.1.5,Win32,59.88023952,68242c07d0c0e200c6451fdd,,,,,,,,,,,355.7474,356.2469,,,356.5022,356.9652,right,,,,,,,,0.4,0.4355,,,,,,,356.247,356.5022,356.9653,358.0656,0,116,116,33,1,,,,,,,
,,,,,,,67d8b7fa2cc04185f7d10c26,682530d132ff60e8e38bc981,2025-05-14_19h10.22.418,cuing_paradigm_dot,2024.1.5,Win32,59.88023952,68242c07d0c0e200c6451fdd,,,,,,,,,,,358.0664,358.5664,,,358.8218,359.4007,left,,,,,,,,0.1,0.5589,,,,,,,358.5664,358.8217,359.4009,360.5017,0,117,117,1,1,,,,,,,
,,,,,,,67d8b7fa2cc04185f7d10c26,682530d132ff60e8e38bc981,2025-05-14_19h10.22.418,cuing_paradigm_dot,2024.1.5,Win32,59.88023952,68242c07d0c0e200c6451fdd,,,,,,,,,,,360.5026,361.0023,,,361.2583,361.7204,right,,,,,,,,0.55,0.4434,,,,,,,361.0023,361.2583,361.7204,362.8209,0,118,118,139,1,,,,,,,
,,,,,,,67d8b7fa2cc04185f7d10c26,682530d132ff60e8e38bc981,2025-05-14_19h10.22.418,cuing_paradigm_dot,2024.1.5,Win32,59.88023952,68242c07d0c0e200c6451fdd,,,,,,,,,,,362.8215,363.3214,,,363.5721,364.2559,right,,,,,,,,0.6,0.6666,,,,,,,363.3215,363.572,364.2561,365.3568,0,119,119,154,1,,,,,,,
,,,,,,,67d8b7fa2cc04185f7d10c26,682530d132ff60e8e38bc981,2025-05-14_19h10.22.418,cuing_paradigm_dot,2024.1.5,Win32,59.88023952,68242c07d0c0e200c6451fdd,,,,,,,,,,,365.3575,365.8574,,,366.096,366.6315,left,,,,,,,,0.5,0.5182,,,,,,,365.8574,366.096,366.6316,367.7262,0,120,120,93,1,,,,,,,
,,,,,,,67d8b7fa2cc04185f7d10c26,682530d132ff60e8e38bc981,2025-05-14_19h10.22.418,cuing_paradigm_dot,2024.1.5,Win32,59.88023952,68242c07d0c0e200c6451fdd,,,,,,,,,,,367.7268,368.2268,,,368.4662,368.8496,right,,,,,,,,0.45,0.3669,,,,,,,368.2268,368.4662,368.8497,369.9456,0,121,121,73,1,,,,,,,
,,,,,,,67d8b7fa2cc04185f7d10c26,682530d132ff60e8e38bc981,2025-05-14_19h10.22.418,cuing_paradigm_dot,2024.1.5,Win32,59.88023952,68242c07d0c0e200c6451fdd,,,,,,,,,,,369.9464,370.4459,,,370.6854,371.3806,right,,,,,,,,0.55,0.6691,,,,,,,370.446,370.6854,371.3807,372.4816,0,122,122,134,1,,,,,,,
,,,,,,,67d8b7fa2cc04185f7d10c26,682530d132ff60e8e38bc981,2025-05-14_19h10.22.418,cuing_paradigm_dot,2024.1.5,Win32,59.88023952,68242c07d0c0e200c6451fdd,,,,,,,,,,,372.4823,372.9821,,,373.2207,374.0669,right,,,,,,,,0.6,0.8191,,,,,,,372.9822,373.2207,374.0671,375.1678,0,123,123,173,1,,,,,,,
,,,,,,,67d8b7fa2cc04185f7d10c26,682530d132ff60e8e38bc981,2025-05-14_19h10.22.418,cuing_paradigm_dot,2024.1.5,Win32,59.88023952,68242c07d0c0e200c6451fdd,,,,,,,,,,,375.1684,375.6683,,,375.907,376.3861,left,,,,,,,,0.1,0.4518,,,,,,,375.6684,375.907,376.3863,377.4868,0,124,124,21,1,,,,,,,
,,,,,,,67d8b7fa2cc04185f7d10c26,682530d132ff60e8e38bc981,2025-05-14_19h10.22.418,cuing_paradigm_dot,2024.1.5,Win32,59.88023952,68242c07d0c0e200c6451fdd,,,,,,,,,,,377.4875,377.9875,,,378.2268,378.6554,right,,,,,,,,0.6,0.4026,,,,,,,377.9876,378.2267,378.6555,379.7564,0,125,125,151,1,,,,,,,
,,,,,,,67d8b7fa2cc04185f7d10c26,682530d132ff60e8e38bc981,2025-05-14_19h10.22.418,cuing_paradigm_dot,2024.1.5,Win32,59.88023952,68242c07d0c0e200c6451fdd,,,,,,,,,,,379.7572,380.2568,,,380.4952,381.2415,left,,,,,,,,0.55,0.7194,,,,,,,380.2568,380.4952,381.2416,382.3425,0,126,126,149,1,,,,,,,
,,,,,,,67d8b7fa2cc04185f7d10c26,682530d132ff60e8e38bc981,2025-05-14_19h10.22.418,cuing_paradigm_dot,2024.1.5,Win32,59.88023952,68242c07d0c0e200c6451fdd,,,,,,,,,,,382.3436,382.843,,,383.0823,383.4608,right,,,,,,,,0.45,0.3515,,,,,,,382.843,383.0822,383.4609,384.5614,0,127,127,68,1,,,,,,,
,,,,,,,67d8b7fa2cc04185f7d10c26,682530d132ff60e8e38bc981,2025-05-14_19h10.22.418,cuing_paradigm_dot,2024.1.5,Win32,59.88023952,68242c07d0c0e200c6451fdd,,,,,,,,,,,384.562,385.0621,,,385.3008,385.8313,right,,,,,,,,0.4,0.513,,,,,,,385.0621,385.3007,385.8313,386.9308,0,128,128,47,1,,,,,,,
,,,,,,,67d8b7fa2cc04185f7d10c26,682530d132ff60e8e38bc981,2025-05-14_19h10.22.418,cuing_paradigm_dot,2024.1.5,Win32,59.88023952,68242c07d0c0e200c6451fdd,,,,,,,,,,,386.9316,387.4313,,,387.6701,388.1326,right,,,,,,,,0.9,0.4426,,,,,,,387.4314,387.6701,388.1327,389.2334,0,129,129,188,1,,,,,,,
,,,,,,,67d8b7fa2cc04185f7d10c26,682530d132ff60e8e38bc981,2025-05-14_19h10.22.418,cuing_paradigm_dot,2024.1.5,Win32,59.88023952,68242c07d0c0e200c6451fdd,,,,,,,,,,,389.2342,389.7342,,,389.9727,390.4686,left,,,,,,,,0.5,0.476,,,,,,,389.7342,389.9727,390.4687,391.5693,0,130,130,99,1,,,,,,,
,,,,,,,67d8b7fa2cc04185f7d10c26,682530d132ff60e8e38bc981,2025-05-14_19h10.22.418,cuing_paradigm_dot,2024.1.5,Win32,59.88023952,68242c07d0c0e200c6451fdd,,,,,,,,,,,391.57,392.0697,,,392.3251,392.9378,left,,,,,,,,0.1,0.5858,,,,,,,392.0697,392.3251,392.9379,394.0385,0,131,131,2,1,,,,,,,
,,,,,,,67d8b7fa2cc04185f7d10c26,682530d132ff60e8e38bc981,2025-05-14_19h10.22.418,cuing_paradigm_dot,2024.1.5,Win32,59.88023952,68242c07d0c0e200c6451fdd,,,,,,,,,,,394.0393,394.5391,,,394.7904,395.2402,right,,,,,,,,0.55,0.4263,,,,,,,394.5392,394.7903,395.2403,396.3435,0,132,132,145,1,,,,,,,
,,,,,,,67d8b7fa2cc04185f7d10c26,682530d132ff60e8e38bc981,2025-05-14_19h10.22.418,cuing_paradigm_dot,2024.1.5,Win32,59.88023952,68242c07d0c0e200c6451fdd,,,,,,,,,,,396.344,396.8416,,,397.0804,397.5928,left,,,,,,,,0.1,0.4853,,,,,,,396.8416,397.0803,397.5929,398.6936,0,133,133,25,1,,,,,,,
,,,,,,,67d8b7fa2cc04185f7d10c26,682530d132ff60e8e38bc981,2025-05-14_19h10.22.418,cuing_paradigm_dot,2024.1.5,Win32,59.88023952,68242c07d0c0e200c6451fdd,,,,,,,,,,,398.6943,399.1943,,,399.4337,399.9286,left,,,,,,,,0.4,0.4715,,,,,,,399.1944,399.4336,399.9287,401.0298,0,134,134,36,1,,,,,,,
,,,,,,,67d8b7fa2cc04185f7d10c26,682530d132ff60e8e38bc981,2025-05-14_19h10.22.418,cuing_paradigm_dot,2024.1.5,Win32,59.88023952,68242c07d0c0e200c6451fdd,,,,,,,,,,,401.0309,401.53,,,401.7697,402.483,left,,,,,,,,0.1,0.6853,,,,,,,401.5301,401.7696,402.4831,403.5823,0,135,135,3,1,,,,,,,
,,,,,,,67d8b7fa2cc04185f7d10c26,682530d132ff60e8e38bc981,2025-05-14_19h10.22.418,cuing_paradigm_dot,2024.1.5,Win32,59.88023952,68242c07d0c0e200c6451fdd,,,,,,,,,,,403.5831,404.083,,,404.3218,404.7174,right,,,,,,,,0.6,0.3707,,,,,,,404.0831,404.3217,404.7175,405.8182,0,136,136,150,1,,,,,,,
,,,,,,,67d8b7fa2cc04185f7d10c26,682530d132ff60e8e38bc981,2025-05-14_19h10.22.418,cuing_paradigm_dot,2024.1.5,Win32,59.88023952,68242c07d0c0e200c6451fdd,,,,,,,,,,,405.8189,406.3188,,,406.5582,407.12,left,,,,,,,,0.1,0.5356,,,,,,,406.3188,406.5581,407.1201,408.221,0,137,137,20,1,,,,,,,
,,,,,,,67d8b7fa2cc04185f7d10c26,682530d132ff60e8e38bc981,2025-05-14_19h10.22.418,cuing_paradigm_dot,2024.1.5,Win32,59.88023952,68242c07d0c0e200c6451fdd,,,,,,,,,,,408.2217,408.7215,,,408.9775,409.4562,right,,,,,,,,0.4,0.4523,,,,,,,408.7216,408.9774,409.4563,410.5566,0,138,138,45,1,,,,,,,
,,,,,,,67d8b7fa2cc04185f7d10c26,682530d132ff60e8e38bc981,2025-05-14_19h10.22.418,cuing_paradigm_dot,2024.1.5,Win32,59.88023952,68242c07d0c0e200c6451fdd,,,,,,,,,,,410.5573,411.057,,,411.2967,411.7419,left,,,,,,,,0.45,0.4188,,,,,,,411.057,411.2967,411.7421,412.8427,0,139,139,67,1,,,,,,,
,,,,,,,67d8b7fa2cc04185f7d10c26,682530d132ff60e8e38bc981,2025-05-14_19h10.22.418,cuing_paradigm_dot,2024.1.5,Win32,59.88023952,68242c07d0c0e200c6451fdd,,,,,,,,,,,412.8434,413.3431,,,413.5989,414.0108,right,,,,,,,,0.6,0.3861,,,,,,,413.3431,413.5988,414.011,415.1118,0,140,140,152,1,,,,,,,
,,,,,,,67d8b7fa2cc04185f7d10c26,682530d132ff60e8e38bc981,2025-05-14_19h10.22.418,cuing_paradigm_dot,2024.1.5,Win32,59.88023952,68242c07d0c0e200c6451fdd,,,,,,,,,,,415.1126,415.6124,,,415.8529,416.3635,left,,,,,,,,0.45,0.4848,,,,,,,415.6125,415.8529,416.3637,417.4643,0,141,141,61,1,,,,,,,
,,,,,,,67d8b7fa2cc04185f7d10c26,682530d132ff60e8e38bc981,2025-05-14_19h10.22.418,cuing_paradigm_dot,2024.1.5,Win32,59.88023952,68242c07d0c0e200c6451fdd,,,,,,,,,,,417.465,417.9649,,,418.2043,418.566,right,,,,,,,,0.45,0.3351,,,,,,,417.965,418.2042,418.5661,419.6671,0,142,142,82,1,,,,,,,
,,,,,,,67d8b7fa2cc04185f7d10c26,682530d132ff60e8e38bc981,2025-05-14_19h10.22.418,cuing_paradigm_dot,2024.1.5,Win32,59.88023952,68242c07d0c0e200c6451fdd,,,,,,,,,,,419.6678,420.1676,,,420.406,420.9185,left,,,,,,,,0.1,0.4938,,,,,,,420.1677,420.4058,420.9187,422.0195,0,143,143,22,1,,,,,,,
,,,,,,,67d8b7fa2cc04185f7d10c26,682530d132ff60e8e38bc981,2025-05-14_19h10.22.418,cuing_paradigm_dot,2024.1.5,Win32,59.88023952,68242c07d0c0e200c6451fdd,,,,,,,,,,,422.0203,422.5198,,,422.7731,423.1714,left,,,,,,,,0.1,0.3772,,,,,,,422.5199,422.7731,423.1714,424.2719,0,144,144,4,1,,,,,,,
,,,,,,,67d8b7fa2cc04185f7d10c26,682530d132ff60e8e38bc981,2025-05-14_19h10.22.418,cuing_paradigm_dot,2024.1.5,Win32,59.88023952,68242c07d0c0e200c6451fdd,,,,,,,,,,,424.2726,424.7724,,,425.0289,425.4235,right,,,,,,,,0.55,0.3768,,,,,,,424.7724,425.0288,425.4237,426.5242,0,145,145,132,1,,,,,,,
,,,,,,,67d8b7fa2cc04185f7d10c26,682530d132ff60e8e38bc981,2025-05-14_19h10.22.418,cuing_paradigm_dot,2024.1.5,Win32,59.88023952,68242c07d0c0e200c6451fdd,,,,,,,,,,,426.525,427.0248,,,427.2644,427.6926,left,,,,,,,,0.4,0.4091,,,,,,,427.0249,427.2644,427.6928,428.7936,0,146,146,40,1,,,,,,,
,,,,,,,67d8b7fa2cc04185f7d10c26,682530d132ff60e8e38bc981,2025-05-14_19h10.22.418,cuing_paradigm_dot,2024.1.5,Win32,59.88023952,68242c07d0c0e200c6451fdd,,,,,,,,,,,428.7944,429.294,,,429.5336,429.9619,right,,,,,,,,0.9,0.4017,,,,,,,429.2941,429.5335,429.962,431.0628,0,147,147,201,1,,,,,,,
,,,,,,,67d8b7fa2cc04185f7d10c26,682530d132ff60e8e38bc981,2025-05-14_19h10.22.418,cuing_paradigm_dot,2024.1.5,Win32,59.88023952,68242c07d0c0e200c6451fdd,,,,,,,,,,,431.0635,431.5633,,,431.8026,432.2643,left,,,,,,,,0.45,0.4388,,,,,,,431.5634,431.8025,432.2644,433.3653,0,148,148,84,1,,,,,,,
,,,,,,,67d8b7fa2cc04185f7d10c26,682530d132ff60e8e38bc981,2025-05-14_19h10.22.418,cuing_paradigm_dot,2024.1.5,Win32,59.88023952,68242c07d0c0e200c6451fdd,,,,,,,,,,,433.3661,433.8666,,,434.1168,434.5671,right,,,,,,,,0.5,0.4194,,,,,,,433.8666,434.1167,434.5671,435.6676,0,149,149,104,1,,,,,,,
,,,,,,,67d8b7fa2cc04185f7d10c26,682530d132ff60e8e38bc981,2025-05-14_19h10.22.418,cuing_paradigm_dot,2024.1.5,Win32,59.88023952,68242c07d0c0e200c6451fdd,,,,,,,,,,,435.6682,436.1683,,,436.4194,436.9863,right,,,,,,,,0.45,0.5353,,,,,,,436.1683,436.4193,436.9864,438.0869,0,150,150,60,1,,,,,,,
,,,,,,,67d8b7fa2cc04185f7d10c26,682530d132ff60e8e38bc981,2025-05-14_19h10.22.418,cuing_paradigm_dot,2024.1.5,Win32,59.88023952,68242c07d0c0e200c6451fdd,,,,,,,,,,,438.0878,438.5877,,,438.8389,439.4556,right,,,,,,,,0.6,0.5856,,,,,,,438.5877,438.8388,439.4557,440.5565,0,151,151,164,1,,,,,,,
,,,,,,,67d8b7fa2cc04185f7d10c26,682530d132ff60e8e38bc981,2025-05-14_19h10.22.418,cuing_paradigm_dot,2024.1.5,Win32,59.88023952,68242c07d0c0e200c6451fdd,,,,,,,,,,,440.5578,441.0567,,,441.2962,441.9751,left,,,,,,,,0.1,0.6525,,,,,,,441.0568,441.2962,441.9752,443.0761,0,152,152,17,1,,,,,,,
,,,,,,,67d8b7fa2cc04185f7d10c26,682530d132ff60e8e38bc981,2025-05-14_19h10.22.418,cuing_paradigm_dot,2024.1.5,Win32,59.88023952,68242c07d0c0e200c6451fdd,,,,,,,,,,,443.0769,443.5763,,,443.8276,444.264,right,,,,,,,,0.9,0.4152,,,,,,,443.5765,443.8274,444.2641,445.362,0,153,153,203,1,,,,,,,
,,,,,,,67d8b7fa2cc04185f7d10c26,682530d132ff60e8e38bc981,2025-05-14_19h10.22.418,cuing_paradigm_dot,2024.1.5,Win32,59.88023952,68242c07d0c0e200c6451fdd,,,,,,,,,,,445.3627,445.8625,,,446.1019,446.8471,left,,,,,,,,0.6,0.7194,,,,,,,445.8626,446.1018,446.8472,447.9479,0,154,154,178,1,,,,,,,
,,,,,,,67d8b7fa2cc04185f7d10c26,682530d132ff60e8e38bc981,2025-05-14_19h10.22.418,cuing_paradigm_dot,2024.1.5,Win32,59.88023952,68242c07d0c0e200c6451fdd,,,,,,,,,,,447.9487,448.4484,,,448.7041,449.2498,left,,,,,,,,0.55,0.5248,,,,,,,448.4485,448.7041,449.2499,450.3505,0,155,155,129,1,,,,,,,
,,,,,,,67d8b7fa2cc04185f7d10c26,682530d132ff60e8e38bc981,2025-05-14_19h10.22.418,cuing_paradigm_dot,2024.1.5,Win32,59.88023952,68242c07d0c0e200c6451fdd,,,,,,,,,,,450.3513,450.8512,,,451.09,451.7527,left,,,,,,,,0.1,0.6355,,,,,,,450.8513,451.09,451.7528,452.8533,0,156,156,7,1,,,,,,,
,,,,,,,67d8b7fa2cc04185f7d10c26,682530d132ff60e8e38bc981,2025-05-14_19h10.22.418,cuing_paradigm_dot,2024.1.5,Win32,59.88023952,68242c07d0c0e200c6451fdd,,,,,,,,,,,452.8541,453.3538,,,453.5934,454.272,left,,,,,,,,0.4,0.6522,,,,,,,453.3539,453.5933,454.272,455.373,0,157,157,48,1,,,,,,,
,,,,,,,67d8b7fa2cc04185f7d10c26,682530d132ff60e8e38bc981,2025-05-14_19h10.22.418,cuing_paradigm_dot,2024.1.5,Win32,59.88023952,68242c07d0c0e200c6451fdd,,,,,,,,,,,455.3738,455.8736,,,456.1121,456.5912,right,,,,,,,,0.9,0.4604,,,,,,,455.8736,456.112,456.5914,457.6921,0,158,158,182,1,,,,,,,
,,,,,,,67d8b7fa2cc04185f7d10c26,682530d132ff60e8e38bc981,2025-05-14_19h10.22.418,cuing_paradigm_dot,2024.1.5,Win32,59.88023952,68242c07d0c0e200c6451fdd,,,,,,,,,,,457.6928,458.1925,,,458.4311,459.1659,left,,,,,,,,0.45,0.7173,,,,,,,458.1925,458.4311,459.1659,460.2617,0,159,159,81,1,,,,,,,
,,,,,,,67d8b7fa2cc04185f7d10c26,682530d132ff60e8e38bc981,2025-05-14_19h10.22.418,cuing_paradigm_dot,2024.1.5,Win32,59.88023952,68242c07d0c0e200c6451fdd,,,,,,,,,,,460.2624,460.7621,,,461.0006,461.4465,right,,,,,,,,0.45,0.4237,,,,,,,460.7622,461.0006,461.4466,462.5476,0,160,160,64,1,,,,,,,
,,,,,,,67d8b7fa2cc04185f7d10c26,682530d132ff60e8e38bc981,2025-05-14_19h10.22.418,cuing_paradigm_dot,2024.1.5,Win32,59.88023952,68242c07d0c0e200c6451fdd,,,,,,,,,,,462.5486,463.0481,,,463.3034,463.749,left,,,,,,,,0.45,0.4185,,,,,,,463.0482,463.3032,463.7491,464.8497,0,161,161,85,1,,,,,,,
,,,,,,,67d8b7fa2cc04185f7d10c26,682530d132ff60e8e38bc981,2025-05-14_19h10.22.418,cuing_paradigm_dot,2024.1.5,Win32,59.88023952,68242c07d0c0e200c6451fdd,,,,,,,,,,,464.8504,465.3504,,,465.6059,466.0016,right,,,,,,,,0.5,0.3709,,,,,,,465.3505,465.6058,466.0018,467.1024,0,162,162,111,1,,,,,,,
,,,,,,,67d8b7fa2cc04185f7d10c26,682530d132ff60e8e38bc981,2025-05-14_19h10.22.418,cuing_paradigm_dot,2024.1.5,Win32,59.88023952,68242c07d0c0e200c6451fdd,,,,,,,,,,,467.1031,467.6029,,,467.8412,468.3375,left,,,,,,,,0.45,0.4706,,,,,,,467.6029,467.8411,468.3375,469.4383,0,163,163,66,1,,,,,,,
,,,,,,,67d8b7fa2cc04185f7d10c26,682530d132ff60e8e38bc981,2025-05-14_19h10.22.418,cuing_paradigm_dot,2024.1.5,Win32,59.88023952,68242c07d0c0e200c6451fdd,,,,,,,,,,,469.4392,469.9388,,,470.1776,470.4401,right,,,,,,,,0.45,0.2356,,,,,,,469.9389,470.1775,470.4402,471.5408,0,164,164,89,1,,,,,,,
,,,,,,,67d8b7fa2cc04185f7d10c26,682530d132ff60e8e38bc981,2025-05-14_19h10.22.418,cuing_paradigm_dot,2024.1.5,Win32,59.88023952,68242c07d0c0e200c6451fdd,,,,,,,,,,,471.5415,472.0413,,,472.2975,472.7592,left,,,,,,,,0.1,0.4442,,,,,,,472.0414,472.2974,472.7594,473.8602,0,165,165,27,1,,,,,,,
,,,,,,,67d8b7fa2cc04185f7d10c26,682530d132ff60e8e38bc981,2025-05-14_19h10.22.418,cuing_paradigm_dot,2024.1.5,Win32,59.88023952,68242c07d0c0e200c6451fdd,,,,,,,,,,,473.8613,474.361,,,474.6109,474.8942,right,,,,,,,,0.9,0.2755,,,,,,,474.3611,474.6108,474.8943,475.9954,0,166,166,209,1,,,,,,,
,,,,,,,67d8b7fa2cc04185f7d10c26,682530d132ff60e8e38bc981,2025-05-14_19h10.22.418,cuing_paradigm_dot,2024.1.5,Win32,59.88023952,68242c07d0c0e200c6451fdd,,,,,,,,,,,475.9958,476.4958,,,476.7514,477.1306,right,,,,,,,,0.4,0.3613,,,,,,,476.4959,476.7514,477.1306,478.2312,0,167,167,53,1,,,,,,,
,,,,,,,67d8b7fa2cc04185f7d10c26,682530d132ff60e8e38bc981,2025-05-14_19h10.22.418,cuing_paradigm_dot,2024.1.5,Win32,59.88023952,68242c07d0c0e200c6451fdd,,,,,,,,,,,478.2319,478.7318,,,478.9706,479.5999,left,,,,,,,,0.9,0.6028,,,,,,,478.7318,478.9704,479.6,480.7007,0,168,168,190,1,,,,,,,
,,,,,,,67d8b7fa2cc04185f7d10c26,682530d132ff60e8e38bc981,2025-05-14_19h10.22.418,cuing_paradigm_dot,2024.1.5,Win32,59.88023952,68242c07d0c0e200c6451fdd,,,,,,,,,,,480.7015,481.201,,,481.4407,481.8856,left,,,,,,,,0.5,0.4206,,,,,,,481.2011,481.4407,481.8858,482.9864,0,169,169,103,1,,,,,,,
,,,,,,,67d8b7fa2cc04185f7d10c26,682530d132ff60e8e38bc981,2025-05-14_19h10.22.418,cuing_paradigm_dot,2024.1.5,Win32,59.88023952,68242c07d0c0e200c6451fdd,,,,,,,,,,,482.987,483.4869,,,483.7257,484.9895,left,,,,,,,,0.5,1.2386,,,,,,,483.487,483.7256,484.9896,486.0902,0,170,170,95,1,,,,,,,
,,,,,,,67d8b7fa2cc04185f7d10c26,682530d132ff60e8e38bc981,2025-05-14_19h10.22.418,cuing_paradigm_dot,2024.1.5,Win32,59.88023952,68242c07d0c0e200c6451fdd,,,,,,,,,,,486.0908,486.5908,,,486.8291,487.8091,right,,,,,,,,0.1,0.9594,,,,,,,486.5908,486.8291,487.8092,488.9096,0,171,171,6,1,,,,,,,
,,,,,,,67d8b7fa2cc04185f7d10c26,682530d132ff60e8e38bc981,2025-05-14_19h10.22.418,cuing_paradigm_dot,2024.1.5,Win32,59.88023952,68242c07d0c0e200c6451fdd,,,,,,,,,,,488.9103,489.4101,,,489.6496,490.078,right,,,,,,,,0.6,0.4016,,,,,,,489.4102,489.6496,490.0783,491.1786,0,172,172,160,1,,,,,,,
,,,,,,,67d8b7fa2cc04185f7d10c26,682530d132ff60e8e38bc981,2025-05-14_19h10.22.418,cuing_paradigm_dot,2024.1.5,Win32,59.88023952,68242c07d0c0e200c6451fdd,,,,,,,,,,,491.1794,491.6795,,,491.918,492.6976,left,,,,,,,,0.4,0.7544,,,,,,,491.6796,491.918,492.6977,493.7985,0,173,173,34,1,,,,,,,
,,,,,,,67d8b7fa2cc04185f7d10c26,682530d132ff60e8e38bc981,2025-05-14_19h10.22.418,cuing_paradigm_dot,2024.1.5,Win32,59.88023952,68242c07d0c0e200c6451fdd,,,,,,,,,,,493.7993,494.299,,,494.5544,495.5183,right,,,,,,,,0.5,0.9366,,,,,,,494.299,494.5543,495.5184,496.6185,0,174,174,106,1,,,,,,,
,,,,,,,67d8b7fa2cc04185f7d10c26,682530d132ff60e8e38bc981,2025-05-14_19h10.22.418,cuing_paradigm_dot,2024.1.5,Win32,59.88023952,68242c07d0c0e200c6451fdd,,,,,,,,,,,496.6197,497.1188,,,497.3749,498.8708,,,,,,,,,0.9,,,,,,,,497.1188,497.3748,498.8709,499.9719,0,175,175,205,1,,,,,,,
,,,,,,,67d8b7fa2cc04185f7d10c26,682530d132ff60e8e38bc981,2025-05-14_19h10.22.418,cuing_paradigm_dot,2024.1.5,Win32,59.88023952,68242c07d0c0e200c6451fdd,,,,,,,,,,,499.9725,500.4728,,,500.7111,502.208,,,,,,,,,0.5,,,,,,,,500.4729,500.711,502.2082,503.309,0,176,176,98,1,,,,,,,
,,,,,,,67d8b7fa2cc04185f7d10c26,682530d132ff60e8e38bc981,2025-05-14_19h10.22.418,cuing_paradigm_dot,2024.1.5,Win32,59.88023952,68242c07d0c0e200c6451fdd,,,,,,,,,,,503.3097,503.8095,,,504.0481,505.5452,,,,,,,,,0.6,,,,,,,,503.8097,504.0481,505.5453,506.6278,0,177,177,179,1,,,,,,,
,,,,,,,67d8b7fa2cc04185f7d10c26,682530d132ff60e8e38bc981,2025-05-14_19h10.22.418,cuing_paradigm_dot,2024.1.5,Win32,59.88023952,68242c07d0c0e200c6451fdd,,,,,,,,,,,506.6282,507.1296,,,507.3694,507.9706,right,,,,,,,,0.4,0.5851,,,,,,,507.1297,507.3693,507.9707,509.0653,0,178,178,43,1,,,,,,,
,,,,,,,67d8b7fa2cc04185f7d10c26,682530d132ff60e8e38bc981,2025-05-14_19h10.22.418,cuing_paradigm_dot,2024.1.5,Win32,59.88023952,68242c07d0c0e200c6451fdd,,,,,,,,,,,509.0661,509.5659,,,509.8044,511.2515,right,,,,,,,,0.4,1.4205,,,,,,,509.5661,509.8044,511.2515,512.3523,0,179,179,59,1,,,,,,,
,,,,,,,67d8b7fa2cc04185f7d10c26,682530d132ff60e8e38bc981,2025-05-14_19h10.22.418,cuing_paradigm_dot,2024.1.5,Win32,59.88023952,68242c07d0c0e200c6451fdd,,,,,,,,,,,512.3531,512.8528,,,513.0913,513.2703,left,,,,,,,,0.4,0.157,,,,,,,512.8528,513.0912,513.2704,514.371,0,180,180,58,1,,,,,,,
,,,,,,,67d8b7fa2cc04185f7d10c26,682530d132ff60e8e38bc981,2025-05-14_19h10.22.418,cuing_paradigm_dot,2024.1.5,Win32,59.88023952,68242c07d0c0e200c6451fdd,,,,,,,,,,,514.3721,514.8715,,,515.1103,515.6394,left,,,,,,,,0.1,0.5059,,,,,,,514.8715,515.1102,515.6397,516.7403,0,181,181,24,1,,,,,,,
,,,,,,,67d8b7fa2cc04185f7d10c26,682530d132ff60e8e38bc981,2025-05-14_19h10.22.418,cuing_paradigm_dot,2024.1.5,Win32,59.88023952,68242c07d0c0e200c6451fdd,,,,,,,,,,,516.741,517.241,,,517.4921,517.9253,right,,,,,,,,0.6,0.4022,,,,,,,517.241,517.4921,517.9254,519.0262,0,182,182,167,1,,,,,,,
,,,,,,,67d8b7fa2cc04185f7d10c26,682530d132ff60e8e38bc981,2025-05-14_19h10.22.418,cuing_paradigm_dot,2024.1.5,Win32,59.88023952,68242c07d0c0e200c6451fdd,,,,,,,,,,,519.0272,519.5269,,,519.7653,520.4947,left,,,,,,,,0.6,0.7068,,,,,,,519.527,519.7653,520.4948,521.5958,0,183,183,170,1,,,,,,,
,,,,,,,67d8b7fa2cc04185f7d10c26,682530d132ff60e8e38bc981,2025-05-14_19h10.22.418,cuing_paradigm_dot,2024.1.5,Win32,59.88023952,68242c07d0c0e200c6451fdd,,,,,,,,,,,521.5971,522.0961,,,522.3358,523.0145,right,,,,,,,,0.45,0.6577,,,,,,,522.0962,522.3357,523.0146,524.1152,0,184,184,65,1,,,,,,,
,,,,,,,67d8b7fa2cc04185f7d10c26,682530d132ff60e8e38bc981,2025-05-14_19h10.22.418,cuing_paradigm_dot,2024.1.5,Win32,59.88023952,68242c07d0c0e200c6451fdd,,,,,,,,,,,524.1161,524.6158,,,524.8548,525.8174,right,,,,,,,,0.9,0.938,,,,,,,524.6158,524.8547,525.8175,526.9182,0,185,185,208,1,,,,,,,
,,,,,,,67d8b7fa2cc04185f7d10c26,682530d132ff60e8e38bc981,2025-05-14_19h10.22.418,cuing_paradigm_dot,2024.1.5,Win32,59.88023952,68242c07d0c0e200c6451fdd,,,,,,,,,,,526.919,527.4188,,,527.6575,527.8363,left,,,,,,,,0.45,0.1517,,,,,,,527.4189,527.6574,527.8364,528.9369,0,186,186,62,1,,,,,,,
,,,,,,,67d8b7fa2cc04185f7d10c26,682530d132ff60e8e38bc981,2025-05-14_19h10.22.418,cuing_paradigm_dot,2024.1.5,Win32,59.88023952,68242c07d0c0e200c6451fdd,,,,,,,,,,,528.9376,529.4256,,,529.6764,530.1387,right,,,,,,,,0.1,0.44,,,,,,,529.4257,529.6763,530.1389,531.2395,0,187,187,19,1,,,,,,,
,,,,,,,67d8b7fa2cc04185f7d10c26,682530d132ff60e8e38bc981,2025-05-14_19h10.22.418,cuing_paradigm_dot,2024.1.5,Win32,59.88023952,68242c07d0c0e200c6451fdd,,,,,,,,,,,531.2403,531.7403,,,531.9787,532.4246,left,,,,,,,,0.5,0.4181,,,,,,,531.7405,531.9787,532.4247,533.5257,0,188,188,112,1,,,,,,,
,,,,,,,67d8b7fa2cc04185f7d10c26,682530d132ff60e8e38bc981,2025-05-14_19h10.22.418,cuing_paradigm_dot,2024.1.5,Win32,59.88023952,68242c07d0c0e200c6451fdd,,,,,,,,,,,533.5267,534.0265,,,534.2773,535.7451,right,,,,,,,,0.1,1.4369,,,,,,,534.0267,534.2773,535.7451,536.8461,0,189,189,23,1,,,,,,,
,,,,,,,67d8b7fa2cc04185f7d10c26,682530d132ff60e8e38bc981,2025-05-14_19h10.22.418,cuing_paradigm_dot,2024.1.5,Win32,59.88023952,68242c07d0c0e200c6451fdd,,,,,,,,,,,536.847,537.3465,,,537.6016,537.7807,right,,,,,,,,0.5,0.1515,,,,,,,537.3465,537.6016,537.7808,538.8815,0,190,190,113,1,,,,,,,
,,,,,,,67d8b7fa2cc04185f7d10c26,682530d132ff60e8e38bc981,2025-05-14_19h10.22.418,cuing_paradigm_dot,2024.1.5,Win32,59.88023952,68242c07d0c0e200c6451fdd,,,,,,,,,,,538.8826,539.3819,,,539.6331,540.2168,left,,,,,,,,0.45,0.5596,,,,,,,539.3821,539.6329,540.217,541.3175,0,191,191,80,1,,,,,,,
,,,,,,,67d8b7fa2cc04185f7d10c26,682530d132ff60e8e38bc981,2025-05-14_19h10.22.418,cuing_paradigm_dot,2024.1.5,Win32,59.88023952,68242c07d0c0e200c6451fdd,,,,,,,,,,,541.3185,541.818,,,542.0577,542.319,right,,,,,,,,0.4,0.2437,,,,,,,541.818,542.0577,542.319,543.4198,0,192,192,55,1,,,,,,,
,,,,,,,67d8b7fa2cc04185f7d10c26,682530d132ff60e8e38bc981,2025-05-14_19h10.22.418,cuing_paradigm_dot,2024.1.5,Win32,59.88023952,68242c07d0c0e200c6451fdd,,,,,,,,,,,543.4206,543.9203,,,544.1596,544.505,right,,,,,,,,0.4,0.3261,,,,,,,543.9204,544.1595,544.5051,545.6053,0,193,193,30,1,,,,,,,
,,,,,,,67d8b7fa2cc04185f7d10c26,682530d132ff60e8e38bc981,2025-05-14_19h10.22.418,cuing_paradigm_dot,2024.1.5,Win32,59.88023952,68242c07d0c0e200c6451fdd,,,,,,,,,,,545.6062,546.106,,,546.3461,547.8413,,,,,,,,,0.45,,,,,,,,546.1061,546.346,547.8413,548.9427,0,194,194,75,1,,,,,,,
,,,,,,,67d8b7fa2cc04185f7d10c26,682530d132ff60e8e38bc981,2025-05-14_19h10.22.418,cuing_paradigm_dot,2024.1.5,Win32,59.88023952,68242c07d0c0e200c6451fdd,,,,,,,,,,,548.9438,549.4429,,,549.6819,549.7107,left,,,,,,,,0.55,0.007,,,,,,,549.4431,549.6818,549.7108,550.8111,0,195,195,143,1,,,,,,,
,,,,,,,67d8b7fa2cc04185f7d10c26,682530d132ff60e8e38bc981,2025-05-14_19h10.22.418,cuing_paradigm_dot,2024.1.5,Win32,59.88023952,68242c07d0c0e200c6451fdd,,,,,,,,,,,550.812,551.3118,,,551.5513,553.0475,,,,,,,,,0.9,,,,,,,,551.3119,551.5513,553.0476,554.1482,0,196,196,194,1,,,,,,,
,,,,,,,67d8b7fa2cc04185f7d10c26,682530d132ff60e8e38bc981,2025-05-14_19h10.22.418,cuing_paradigm_dot,2024.1.5,Win32,59.88023952,68242c07d0c0e200c6451fdd,,,,,,,,,,,554.1496,554.6489,,,554.8879,556.0845,right,,,,,,,,0.45,1.1699,,,,,,,554.6489,554.8879,556.0846,557.1849,0,197,197,79,1,,,,,,,
,,,,,,,67d8b7fa2cc04185f7d10c26,682530d132ff60e8e38bc981,2025-05-14_19h10.22.418,cuing_paradigm_dot,2024.1.5,Win32,59.88023952,68242c07d0c0e200c6451fdd,,,,,,,,,,,557.1859,557.6854,,,557.9248,558.1867,right,,,,,,,,0.45,0.2355,,,,,,,557.6855,557.9247,558.1868,559.2873,0,198,198,70,1,,,,,,,
,,,,,,,67d8b7fa2cc04185f7d10c26,682530d132ff60e8e38bc981,2025-05-14_19h10.22.418,cuing_paradigm_dot,2024.1.5,Win32,59.88023952,68242c07d0c0e200c6451fdd,,,,,,,,,,,559.2882,559.7878,,,560.0271,560.2722,right,,,,,,,,0.55,0.2189,,,,,,,559.7879,560.0271,560.2724,561.3727,0,199,199,141,1,,,,,,,
,,,,,,,67d8b7fa2cc04185f7d10c26,682530d132ff60e8e38bc981,2025-05-14_19h10.22.418,cuing_paradigm_dot,2024.1.5,Win32,59.88023952,68242c07d0c0e200c6451fdd,,,,,,,,,,,561.3736,561.8733,,,562.1126,562.2411,left,,,,,,,,0.6,0.1017,,,,,,,561.8734,562.1126,562.2413,563.3416,0,200,200,174,1,,,,,,,
,,,,,,,67d8b7fa2cc04185f7d10c26,682530d132ff60e8e38bc981,2025-05-14_19h10.22.418,cuing_paradigm_dot,2024.1.5,Win32,59.88023952,68242c07d0c0e200c6451fdd,,,,,,,,,,,563.3423,563.8422,,,564.0815,564.21,right,,,,,,,,0.55,0.1078,,,,,,,563.8423,564.0814,564.2101,565.3104,0,201,201,135,1,,,,,,,
,,,,,,,67d8b7fa2cc04185f7d10c26,682530d132ff60e8e38bc981,2025-05-14_19h10.22.418,cuing_paradigm_dot,2024.1.5,Win32,59.88023952,68242c07d0c0e200c6451fdd,,,,,,,,,,,565.3112,565.811,,,566.0505,566.0784,left,,,,,,,,0.9,0.011,,,,,,,565.8111,566.0504,566.0785,567.1793,0,202,202,191,1,,,,,,,
,,,,,,,67d8b7fa2cc04185f7d10c26,682530d132ff60e8e38bc981,2025-05-14_19h10.22.418,cuing_paradigm_dot,2024.1.5,Win32,59.88023952,68242c07d0c0e200c6451fdd,,,,,,,,,,,567.1803,567.6798,,,567.9191,568.2035,right,,,,,,,,0.45,0.2674,,,,,,,567.6799,567.919,568.2035,569.2982,0,203,203,74,1,,,,,,,
,,,,,,,67d8b7fa2cc04185f7d10c26,682530d132ff60e8e38bc981,2025-05-14_19h10.22.418,cuing_paradigm_dot,2024.1.5,Win32,59.88023952,68242c07d0c0e200c6451fdd,,,,,,,,,,,569.2994,569.7988,,,570.0177,570.1495,left,,,,,,,,0.4,0.1121,,,,,,,569.7989,570.0175,570.1496,571.2505,0,204,204,46,1,,,,,,,
,,,,,,,67d8b7fa2cc04185f7d10c26,682530d132ff60e8e38bc981,2025-05-14_19h10.22.418,cuing_paradigm_dot,2024.1.5,Win32,59.88023952,68242c07d0c0e200c6451fdd,,,,,,,,,,,571.251,571.751,,,572.0018,572.7691,right,,,,,,,,0.55,0.7538,,,,,,,571.751,572.0018,572.7692,573.8701,0,205,205,148,1,,,,,,,
,,,,,,,67d8b7fa2cc04185f7d10c26,682530d132ff60e8e38bc981,2025-05-14_19h10.22.418,cuing_paradigm_dot,2024.1.5,Win32,59.88023952,68242c07d0c0e200c6451fdd,,,,,,,,,,,573.8706,574.3705,,,574.6215,574.7878,right,,,,,,,,0.1,0.1584,,,,,,,574.3705,574.6214,574.7879,575.8888,0,206,206,10,1,,,,,,,
,,,,,,,67d8b7fa2cc04185f7d10c26,682530d132ff60e8e38bc981,2025-05-14_19h10.22.418,cuing_paradigm_dot,2024.1.5,Win32,59.88023952,68242c07d0c0e200c6451fdd,,,,,,,,,,,575.8893,576.3894,,,576.6403,576.9736,left,,,,,,,,0.55,0.3232,,,,,,,576.3894,576.6403,576.9736,578.0747,0,207,207,140,1,,,,,,,
,,,,,,,67d8b7fa2cc04185f7d10c26,682530d132ff60e8e38bc981,2025-05-14_19h10.22.418,cuing_paradigm_dot,2024.1.5,Win32,59.88023952,68242c07d0c0e200c6451fdd,,,,,,,,,,,578.0752,578.5752,,,578.826,578.9427,right,,,,,,,,0.6,0.1092,,,,,,,578.5752,578.8259,578.9428,580.0433,0,208,208,153,1,,,,,,,
,,,,,,,67d8b7fa2cc04185f7d10c26,682530d132ff60e8e38bc981,2025-05-14_19h10.22.418,cuing_paradigm_dot,2024.1.5,Win32,59.88023952,68242c07d0c0e200c6451fdd,,,,,,,,,,,580.0439,580.544,,,580.7948,581.0284,right,,,,,,,,0.1,0.2177,,,,,,,580.5441,580.7948,581.0284,582.1289,0,209,209,8,1,,,,,,,
,,,,,,,67d8b7fa2cc04185f7d10c26,682530d132ff60e8e38bc981,2025-05-14_19h10.22.418,cuing_paradigm_dot,2024.1.5,Win32,59.88023952,68242c07d0c0e200c6451fdd,,,,,,,,,,,,,,,,,,,,,,,,,,,,,,,,,,,,,,,,,,582.1297,642.1297,,,,,
,,,,,,,67d8b7fa2cc04185f7d10c26,682530d132ff60e8e38bc981,2025-05-14_19h10.22.418,cuing_paradigm_dot,2024.1.5,Win32,59.88023952,68242c07d0c0e200c6451fdd,,,,,,,,,,,642.1601,642.629,,,642.8797,643.3466,right,,,,,,,,0.5,0.4494,,,,,,,642.629,642.8796,643.3467,644.4475,,,,,,,,0,0,0,107,1
,,,,,,,67d8b7fa2cc04185f7d10c26,682530d132ff60e8e38bc981,2025-05-14_19h10.22.418,cuing_paradigm_dot,2024.1.5,Win32,59.88023952,68242c07d0c0e200c6451fdd,,,,,,,,,,,644.4483,644.9481,,,645.1988,645.3654,left,,,,,,,,0.1,0.1516,,,,,,,644.9482,645.1988,645.3654,646.4665,,,,,,,,0,1,1,2,1
,,,,,,,67d8b7fa2cc04185f7d10c26,682530d132ff60e8e38bc981,2025-05-14_19h10.22.418,cuing_paradigm_dot,2024.1.5,Win32,59.88023952,68242c07d0c0e200c6451fdd,,,,,,,,,,,646.467,646.967,,,647.2178,647.3509,right,,,,,,,,0.1,0.116,,,,,,,646.967,647.2178,647.3509,648.4517,,,,,,,,0,2,2,28,1
,,,,,,,67d8b7fa2cc04185f7d10c26,682530d132ff60e8e38bc981,2025-05-14_19h10.22.418,cuing_paradigm_dot,2024.1.5,Win32,59.88023952,68242c07d0c0e200c6451fdd,,,,,,,,,,,648.4522,648.9525,,,649.2034,649.9037,right,,,,,,,,0.5,0.6846,,,,,,,648.9526,649.2034,649.9038,651.0048,,,,,,,,0,3,3,103,1
,,,,,,,67d8b7fa2cc04185f7d10c26,682530d132ff60e8e38bc981,2025-05-14_19h10.22.418,cuing_paradigm_dot,2024.1.5,Win32,59.88023952,68242c07d0c0e200c6451fdd,,,,,,,,,,,651.0054,651.5054,,,651.7562,652.0897,left,,,,,,,,0.5,0.3263,,,,,,,651.5055,651.7561,652.0897,653.1905,,,,,,,,0,4,4,113,1
,,,,,,,67d8b7fa2cc04185f7d10c26,682530d132ff60e8e38bc981,2025-05-14_19h10.22.418,cuing_paradigm_dot,2024.1.5,Win32,59.88023952,68242c07d0c0e200c6451fdd,,,,,,,,,,,653.1912,653.6911,,,653.9421,655.4431,,,,,,,,,0.1,,,,,,,,653.6912,653.942,655.4432,656.5444,,,,,,,,0,5,5,17,1
,,,,,,,67d8b7fa2cc04185f7d10c26,682530d132ff60e8e38bc981,2025-05-14_19h10.22.418,cuing_paradigm_dot,2024.1.5,Win32,59.88023952,68242c07d0c0e200c6451fdd,,,,,,,,,,,656.545,657.0451,,,657.2958,658.2796,right,,,,,,,,0.4,0.9706,,,,,,,657.0452,657.2958,658.2798,659.3807,,,,,,,,0,6,6,39,1
,,,,,,,67d8b7fa2cc04185f7d10c26,682530d132ff60e8e38bc981,2025-05-14_19h10.22.418,cuing_paradigm_dot,2024.1.5,Win32,59.88023952,68242c07d0c0e200c6451fdd,,,,,,,,,,,659.3815,659.8813,,,660.1209,660.1993,right,,,,,,,,0.9,0.0562,,,,,,,659.8813,660.1209,660.1995,661.2998,,,,,,,,0,7,7,193,1
,,,,,,,67d8b7fa2cc04185f7d10c26,682530d132ff60e8e38bc981,2025-05-14_19h10.22.418,cuing_paradigm_dot,2024.1.5,Win32,59.88023952,68242c07d0c0e200c6451fdd,,,,,,,,,,,661.3007,661.8003,,,662.0538,662.4679,left,,,,,,,,0.4,0.3854,,,,,,,661.8003,662.0538,662.4681,663.5688,,,,,,,,0,8,8,51,1
,,,,,,,67d8b7fa2cc04185f7d10c26,682530d132ff60e8e38bc981,2025-05-14_19h10.22.418,cuing_paradigm_dot,2024.1.5,Win32,59.88023952,68242c07d0c0e200c6451fdd,,,,,,,,,,,663.5699,664.0692,,,664.309,664.4039,right,,,,,,,,0.6,0.076,,,,,,,664.0693,664.3089,664.404,665.5045,,,,,,,,0,9,9,158,1
,,,,,,,67d8b7fa2cc04185f7d10c26,682530d132ff60e8e38bc981,2025-05-14_19h10.22.418,cuing_paradigm_dot,2024.1.5,Win32,59.88023952,68242c07d0c0e200c6451fdd,,,,,,,,,,,665.5054,666.0049,,,666.2446,666.5225,right,,,,,,,,0.6,0.2528,,,,,,,666.005,666.2445,666.5226,667.6233,,,,,,,,0,10,10,170,1
,,,,,,,67d8b7fa2cc04185f7d10c26,682530d132ff60e8e38bc981,2025-05-14_19h10.22.418,cuing_paradigm_dot,2024.1.5,Win32,59.88023952,68242c07d0c0e200c6451fdd,,,,,,,,,,,667.6242,668.124,,,668.3631,669.8592,,,,,,,,,0.45,,,,,,,,668.124,668.363,669.8593,670.9605,,,,,,,,0,11,11,78,1
,,,,,,,67d8b7fa2cc04185f7d10c26,682530d132ff60e8e38bc981,2025-05-14_19h10.22.418,cuing_paradigm_dot,2024.1.5,Win32,59.88023952,68242c07d0c0e200c6451fdd,,,,,,,,,,,670.9614,671.461,,,671.7002,672.1456,right,,,,,,,,0.45,0.4194,,,,,,,671.4612,671.7002,672.1457,673.2463,,,,,,,,0,12,12,79,1
,,,,,,,67d8b7fa2cc04185f7d10c26,682530d132ff60e8e38bc981,2025-05-14_19h10.22.418,cuing_paradigm_dot,2024.1.5,Win32,59.88023952,68242c07d0c0e200c6451fdd,,,,,,,,,,,673.2473,673.7467,,,674.0002,674.6982,left,,,,,,,,0.1,0.6739,,,,,,,673.7468,674.0002,674.6984,675.7991,,,,,,,,0,13,13,10,1
,,,,,,,67d8b7fa2cc04185f7d10c26,682530d132ff60e8e38bc981,2025-05-14_19h10.22.418,cuing_paradigm_dot,2024.1.5,Win32,59.88023952,68242c07d0c0e200c6451fdd,,,,,,,,,,,675.7998,676.2996,,,676.539,677.1009,right,,,,,,,,0.4,0.5358,,,,,,,676.2997,676.539,677.101,678.2017,,,,,,,,0,14,14,43,1
,,,,,,,67d8b7fa2cc04185f7d10c26,682530d132ff60e8e38bc981,2025-05-14_19h10.22.418,cuing_paradigm_dot,2024.1.5,Win32,59.88023952,68242c07d0c0e200c6451fdd,,,,,,,,,,,678.2026,678.7023,,,678.9409,679.3701,right,,,,,,,,0.9,0.4021,,,,,,,678.7023,678.9409,679.3702,680.4721,,,,,,,,0,15,15,181,1
,,,,,,,67d8b7fa2cc04185f7d10c26,682530d132ff60e8e38bc981,2025-05-14_19h10.22.418,cuing_paradigm_dot,2024.1.5,Win32,59.88023952,68242c07d0c0e200c6451fdd,,,,,,,,,,,680.4729,680.9715,,,681.2107,681.9397,left,,,,,,,,0.45,0.7029,,,,,,,680.9716,681.2107,681.9397,683.0405,,,,,,,,0,16,16,68,1
,,,,,,,67d8b7fa2cc04185f7d10c26,682530d132ff60e8e38bc981,2025-05-14_19h10.22.418,cuing_paradigm_dot,2024.1.5,Win32,59.88023952,68242c07d0c0e200c6451fdd,,,,,,,,,,,683.0414,683.5409,,,683.7804,684.3755,right,,,,,,,,0.4,0.569,,,,,,,683.541,683.7804,684.3756,685.4764,,,,,,,,0,17,17,47,1
,,,,,,,67d8b7fa2cc04185f7d10c26,682530d132ff60e8e38bc981,2025-05-14_19h10.22.418,cuing_paradigm_dot,2024.1.5,Win32,59.88023952,68242c07d0c0e200c6451fdd,,,,,,,,,,,685.4773,685.9769,,,686.2163,686.8624,right,,,,,,,,0.9,0.6291,,,,,,,685.9769,686.2163,686.8625,687.9625,,,,,,,,0,18,18,191,1
,,,,,,,67d8b7fa2cc04185f7d10c26,682530d132ff60e8e38bc981,2025-05-14_19h10.22.418,cuing_paradigm_dot,2024.1.5,Win32,59.88023952,68242c07d0c0e200c6451fdd,,,,,,,,,,,687.9634,688.463,,,688.7024,689.4479,right,,,,,,,,0.6,0.7191,,,,,,,688.4631,688.7023,689.448,690.5487,,,,,,,,0,19,19,175,1
,,,,,,,67d8b7fa2cc04185f7d10c26,682530d132ff60e8e38bc981,2025-05-14_19h10.22.418,cuing_paradigm_dot,2024.1.5,Win32,59.88023952,68242c07d0c0e200c6451fdd,,,,,,,,,,,690.5496,691.0491,,,691.2884,691.8672,right,,,,,,,,0.55,0.5563,,,,,,,691.0492,691.2884,691.8674,692.968,,,,,,,,0,20,20,149,1
,,,,,,,67d8b7fa2cc04185f7d10c26,682530d132ff60e8e38bc981,2025-05-14_19h10.22.418,cuing_paradigm_dot,2024.1.5,Win32,59.88023952,68242c07d0c0e200c6451fdd,,,,,,,,,,,692.969,693.4684,,,693.7198,694.2695,left,,,,,,,,0.4,0.5391,,,,,,,693.4686,693.7196,694.2696,695.3705,,,,,,,,0,21,21,32,1
,,,,,,,67d8b7fa2cc04185f7d10c26,682530d132ff60e8e38bc981,2025-05-14_19h10.22.418,cuing_paradigm_dot,2024.1.5,Win32,59.88023952,68242c07d0c0e200c6451fdd,,,,,,,,,,,695.3711,695.8711,,,696.1219,696.5219,right,,,,,,,,0.5,0.3891,,,,,,,695.8711,696.1219,696.522,697.623,,,,,,,,0,22,22,92,1
,,,,,,,67d8b7fa2cc04185f7d10c26,682530d132ff60e8e38bc981,2025-05-14_19h10.22.418,cuing_paradigm_dot,2024.1.5,Win32,59.88023952,68242c07d0c0e200c6451fdd,,,,,,,,,,,697.6236,698.1242,,,698.3742,698.9249,left,,,,,,,,0.5,0.5406,,,,,,,698.1242,698.3741,698.925,700.0256,,,,,,,,0,23,23,106,1
,,,,,,,67d8b7fa2cc04185f7d10c26,682530d132ff60e8e38bc981,2025-05-14_19h10.22.418,cuing_paradigm_dot,2024.1.5,Win32,59.88023952,68242c07d0c0e200c6451fdd,,,,,,,,,,,700.0262,700.5261,,,700.7772,701.3942,right,,,,,,,,0.9,0.6104,,,,,,,700.5261,700.7771,701.3943,702.495,,,,,,,,0,24,24,189,1
,,,,,,,67d8b7fa2cc04185f7d10c26,682530d132ff60e8e38bc981,2025-05-14_19h10.22.418,cuing_paradigm_dot,2024.1.5,Win32,59.88023952,68242c07d0c0e200c6451fdd,,,,,,,,,,,702.4954,702.9955,,,703.2463,703.7131,left,,,,,,,,0.5,0.4528,,,,,,,702.9955,703.2463,703.7132,704.8142,,,,,,,,0,25,25,98,1
,,,,,,,67d8b7fa2cc04185f7d10c26,682530d132ff60e8e38bc981,2025-05-14_19h10.22.418,cuing_paradigm_dot,2024.1.5,Win32,59.88023952,68242c07d0c0e200c6451fdd,,,,,,,,,,,704.8148,705.3148,,,705.5655,706.1331,right,,,,,,,,0.9,0.5575,,,,,,,705.3148,705.5655,706.1332,707.2335,,,,,,,,0,26,26,192,1
,,,,,,,67d8b7fa2cc04185f7d10c26,682530d132ff60e8e38bc981,2025-05-14_19h10.22.418,cuing_paradigm_dot,2024.1.5,Win32,59.88023952,68242c07d0c0e200c6451fdd,,,,,,,,,,,707.2341,707.7341,,,707.9849,708.6686,left,,,,,,,,0.4,0.6703,,,,,,,707.7341,707.9847,708.6687,709.7699,,,,,,,,0,27,27,53,1
,,,,,,,67d8b7fa2cc04185f7d10c26,682530d132ff60e8e38bc981,2025-05-14_19h10.22.418,cuing_paradigm_dot,2024.1.5,Win32,59.88023952,68242c07d0c0e200c6451fdd,,,,,,,,,,,709.7705,710.2702,,,710.521,710.9713,right,,,,,,,,0.45,0.438,,,,,,,710.2702,710.521,710.9714,712.0719,,,,,,,,0,28,28,89,1
,,,,,,,67d8b7fa2cc04185f7d10c26,682530d132ff60e8e38bc981,2025-05-14_19h10.22.418,cuing_paradigm_dot,2024.1.5,Win32,59.88023952,68242c07d0c0e200c6451fdd,,,,,,,,,,,712.0723,712.5728,,,712.8235,713.4073,right,,,,,,,,0.45,0.5681,,,,,,,712.5728,712.8235,713.4074,714.5082,,,,,,,,0,29,29,87,1
,,,,,,,67d8b7fa2cc04185f7d10c26,682530d132ff60e8e38bc981,2025-05-14_19h10.22.418,cuing_paradigm_dot,2024.1.5,Win32,59.88023952,68242c07d0c0e200c6451fdd,,,,,,,,,,,714.5088,715.0089,,,715.2596,715.7765,left,,,,,,,,0.6,0.5036,,,,,,,715.0089,715.2595,715.7766,716.8774,,,,,,,,0,30,30,155,1
,,,,,,,67d8b7fa2cc04185f7d10c26,682530d132ff60e8e38bc981,2025-05-14_19h10.22.418,cuing_paradigm_dot,2024.1.5,Win32,59.88023952,68242c07d0c0e200c6451fdd,,,,,,,,,,,716.8778,717.3779,,,717.6288,718.1126,right,,,,,,,,0.1,0.4742,,,,,,,717.3779,717.6287,718.1126,719.2133,,,,,,,,0,31,31,9,1
,,,,,,,67d8b7fa2cc04185f7d10c26,682530d132ff60e8e38bc981,2025-05-14_19h10.22.418,cuing_paradigm_dot,2024.1.5,Win32,59.88023952,68242c07d0c0e200c6451fdd,,,,,,,,,,,719.2139,719.7139,,,719.9647,720.6817,left,,,,,,,,0.4,0.7025,,,,,,,719.7139,719.9647,720.6818,721.783,,,,,,,,0,32,32,46,1
,,,,,,,67d8b7fa2cc04185f7d10c26,682530d132ff60e8e38bc981,2025-05-14_19h10.22.418,cuing_paradigm_dot,2024.1.5,Win32,59.88023952,68242c07d0c0e200c6451fdd,,,,,,,,,,,721.7835,722.2835,,,722.5341,723.1012,right,,,,,,,,0.9,0.5516,,,,,,,722.2835,722.534,723.1012,724.2022,,,,,,,,0,33,33,188,1
,,,,,,,67d8b7fa2cc04185f7d10c26,682530d132ff60e8e38bc981,2025-05-14_19h10.22.418,cuing_paradigm_dot,2024.1.5,Win32,59.88023952,68242c07d0c0e200c6451fdd,,,,,,,,,,,724.2027,724.7027,,,724.9537,725.4204,right,,,,,,,,0.6,0.4579,,,,,,,724.7028,724.9536,725.4204,726.5215,,,,,,,,0,34,34,179,1
,,,,,,,67d8b7fa2cc04185f7d10c26,682530d132ff60e8e38bc981,2025-05-14_19h10.22.418,cuing_paradigm_dot,2024.1.5,Win32,59.88023952,68242c07d0c0e200c6451fdd,,,,,,,,,,,726.5219,727.022,,,727.2728,727.7061,left,,,,,,,,0.4,0.4221,,,,,,,727.022,727.2728,727.7063,728.8072,,,,,,,,0,35,35,58,1
,,,,,,,67d8b7fa2cc04185f7d10c26,682530d132ff60e8e38bc981,2025-05-14_19h10.22.418,cuing_paradigm_dot,2024.1.5,Win32,59.88023952,68242c07d0c0e200c6451fdd,,,,,,,,,,,728.8079,729.308,,,729.5587,729.675,right,,,,,,,,0.1,0.101,,,,,,,729.308,729.5587,729.6751,730.776,,,,,,,,0,36,36,26,1
,,,,,,,67d8b7fa2cc04185f7d10c26,682530d132ff60e8e38bc981,2025-05-14_19h10.22.418,cuing_paradigm_dot,2024.1.5,Win32,59.88023952,68242c07d0c0e200c6451fdd,,,,,,,,,,,730.7764,731.2766,,,731.5275,731.7606,left,,,,,,,,0.6,0.2196,,,,,,,731.2766,731.5275,731.7607,732.8617,,,,,,,,0,37,37,165,1
,,,,,,,67d8b7fa2cc04185f7d10c26,682530d132ff60e8e38bc981,2025-05-14_19h10.22.418,cuing_paradigm_dot,2024.1.5,Win32,59.88023952,68242c07d0c0e200c6451fdd,,,,,,,,,,,732.8621,733.3623,,,733.6133,733.7463,right,,,,,,,,0.5,0.1212,,,,,,,733.3624,733.6133,733.7464,734.8473,,,,,,,,0,38,38,94,1
,,,,,,,67d8b7fa2cc04185f7d10c26,682530d132ff60e8e38bc981,2025-05-14_19h10.22.418,cuing_paradigm_dot,2024.1.5,Win32,59.88023952,68242c07d0c0e200c6451fdd,,,,,,,,,,,734.8479,735.3479,,,735.5986,735.7484,left,,,,,,,,0.1,0.1405,,,,,,,735.348,735.5986,735.7484,736.8495,,,,,,,,0,39,39,25,1
,,,,,,,67d8b7fa2cc04185f7d10c26,682530d132ff60e8e38bc981,2025-05-14_19h10.22.418,cuing_paradigm_dot,2024.1.5,Win32,59.88023952,68242c07d0c0e200c6451fdd,,,,,,,,,,,736.8499,737.35,,,737.6008,737.9342,right,,,,,,,,0.5,0.3184,,,,,,,737.3501,737.6008,737.9342,739.0352,,,,,,,,0,40,40,102,1
,,,,,,,67d8b7fa2cc04185f7d10c26,682530d132ff60e8e38bc981,2025-05-14_19h10.22.418,cuing_paradigm_dot,2024.1.5,Win32,59.88023952,68242c07d0c0e200c6451fdd,,,,,,,,,,,739.0357,739.5357,,,739.7866,739.8699,left,,,,,,,,0.6,0.0761,,,,,,,739.5358,739.7866,739.8699,740.9707,,,,,,,,0,41,41,174,1
,,,,,,,67d8b7fa2cc04185f7d10c26,682530d132ff60e8e38bc981,2025-05-14_19h10.22.418,cuing_paradigm_dot,2024.1.5,Win32,59.88023952,68242c07d0c0e200c6451fdd,,,,,,,,,,,740.9712,741.4713,,,741.7216,741.8883,right,,,,,,,,0.6,0.1516,,,,,,,741.4713,741.7216,741.8883,742.9896,,,,,,,,0,42,42,150,1
,,,,,,,67d8b7fa2cc04185f7d10c26,682530d132ff60e8e38bc981,2025-05-14_19h10.22.418,cuing_paradigm_dot,2024.1.5,Win32,59.88023952,68242c07d0c0e200c6451fdd,,,,,,,,,,,742.9901,743.4902,,,743.7409,744.141,left,,,,,,,,0.1,0.3903,,,,,,,743.4902,743.7409,744.1411,745.2421,,,,,,,,0,43,43,4,1
,,,,,,,67d8b7fa2cc04185f7d10c26,682530d132ff60e8e38bc981,2025-05-14_19h10.22.418,cuing_paradigm_dot,2024.1.5,Win32,59.88023952,68242c07d0c0e200c6451fdd,,,,,,,,,,,745.2425,745.7425,,,745.9933,746.3767,right,,,,,,,,0.6,0.3696,,,,,,,745.7425,745.9933,746.3768,747.478,,,,,,,,0,44,44,173,1
,,,,,,,67d8b7fa2cc04185f7d10c26,682530d132ff60e8e38bc981,2025-05-14_19h10.22.418,cuing_paradigm_dot,2024.1.5,Win32,59.88023952,68242c07d0c0e200c6451fdd,,,,,,,,,,,747.4784,747.9785,,,748.2291,748.4136,left,,,,,,,,0.4,0.1783,,,,,,,747.9785,748.2291,748.4136,749.5134,,,,,,,,0,45,45,55,1
,,,,,,,67d8b7fa2cc04185f7d10c26,682530d132ff60e8e38bc981,2025-05-14_19h10.22.418,cuing_paradigm_dot,2024.1.5,Win32,59.88023952,68242c07d0c0e200c6451fdd,,,,,,,,,,,749.5139,750.014,,,750.2646,750.3979,right,,,,,,,,0.55,0.1223,,,,,,,750.0141,750.2646,750.398,751.499,,,,,,,,0,46,46,131,1
,,,,,,,67d8b7fa2cc04185f7d10c26,682530d132ff60e8e38bc981,2025-05-14_19h10.22.418,cuing_paradigm_dot,2024.1.5,Win32,59.88023952,68242c07d0c0e200c6451fdd,,,,,,,,,,,751.4994,751.9995,,,752.2504,752.3668,left,,,,,,,,0.5,0.1006,,,,,,,751.9996,752.2503,752.3668,753.4678,,,,,,,,0,47,47,97,1
,,,,,,,67d8b7fa2cc04185f7d10c26,682530d132ff60e8e38bc981,2025-05-14_19h10.22.418,cuing_paradigm_dot,2024.1.5,Win32,59.88023952,68242c07d0c0e200c6451fdd,,,,,,,,,,,753.4683,753.9683,,,754.2191,754.4691,right,,,,,,,,0.45,0.2341,,,,,,,753.9684,754.219,754.4691,755.5701,,,,,,,,0,48,48,64,1
,,,,,,,67d8b7fa2cc04185f7d10c26,682530d132ff60e8e38bc981,2025-05-14_19h10.22.418,cuing_paradigm_dot,2024.1.5,Win32,59.88023952,68242c07d0c0e200c6451fdd,,,,,,,,,,,755.5706,756.0705,,,756.3216,756.5547,right,,,,,,,,0.5,0.2259,,,,,,,756.0706,756.3215,756.5548,757.6557,,,,,,,,0,49,49,105,1
,,,,,,,67d8b7fa2cc04185f7d10c26,682530d132ff60e8e38bc981,2025-05-14_19h10.22.418,cuing_paradigm_dot,2024.1.5,Win32,59.88023952,68242c07d0c0e200c6451fdd,,,,,,,,,,,757.6561,758.1563,,,758.407,758.6072,left,,,,,,,,0.55,0.1844,,,,,,,758.1563,758.407,758.6073,759.708,,,,,,,,0,50,50,122,1
,,,,,,,67d8b7fa2cc04185f7d10c26,682530d132ff60e8e38bc981,2025-05-14_19h10.22.418,cuing_paradigm_dot,2024.1.5,Win32,59.88023952,68242c07d0c0e200c6451fdd,,,,,,,,,,,759.7085,760.2084,,,760.4595,760.6593,right,,,,,,,,0.9,0.1916,,,,,,,760.2085,760.4594,760.6594,761.7602,,,,,,,,0,51,51,190,1
,,,,,,,67d8b7fa2cc04185f7d10c26,682530d132ff60e8e38bc981,2025-05-14_19h10.22.418,cuing_paradigm_dot,2024.1.5,Win32,59.88023952,68242c07d0c0e200c6451fdd,,,,,,,,,,,761.7608,762.2606,,,762.5117,763.0451,right,,,,,,,,0.55,0.5179,,,,,,,762.2608,762.5116,763.0451,764.1462,,,,,,,,0,52,52,127,1
,,,,,,,67d8b7fa2cc04185f7d10c26,682530d132ff60e8e38bc981,2025-05-14_19h10.22.418,cuing_paradigm_dot,2024.1.5,Win32,59.88023952,68242c07d0c0e200c6451fdd,,,,,,,,,,,764.1467,764.6469,,,764.8975,765.2976,left,,,,,,,,0.4,0.3854,,,,,,,764.6469,764.8975,765.2977,766.3986,,,,,,,,0,53,53,42,1
,,,,,,,67d8b7fa2cc04185f7d10c26,682530d132ff60e8e38bc981,2025-05-14_19h10.22.418,cuing_paradigm_dot,2024.1.5,Win32,59.88023952,68242c07d0c0e200c6451fdd,,,,,,,,,,,766.3991,766.8992,,,767.1498,767.6335,right,,,,,,,,0.45,0.4679,,,,,,,766.8993,767.1498,767.6336,768.7344,,,,,,,,0,54,54,66,1
,,,,,,,67d8b7fa2cc04185f7d10c26,682530d132ff60e8e38bc981,2025-05-14_19h10.22.418,cuing_paradigm_dot,2024.1.5,Win32,59.88023952,68242c07d0c0e200c6451fdd,,,,,,,,,,,768.7348,769.2352,,,769.4859,769.9694,left,,,,,,,,0.1,0.4678,,,,,,,769.2352,769.4859,769.9694,771.0705,,,,,,,,0,55,55,13,1
,,,,,,,67d8b7fa2cc04185f7d10c26,682530d132ff60e8e38bc981,2025-05-14_19h10.22.418,cuing_paradigm_dot,2024.1.5,Win32,59.88023952,68242c07d0c0e200c6451fdd,,,,,,,,,,,771.0709,771.571,,,771.8219,772.1898,right,,,,,,,,0.4,0.3618,,,,,,,771.571,771.8219,772.1899,773.2896,,,,,,,,0,56,56,48,1
,,,,,,,67d8b7fa2cc04185f7d10c26,682530d132ff60e8e38bc981,2025-05-14_19h10.22.418,cuing_paradigm_dot,2024.1.5,Win32,59.88023952,68242c07d0c0e200c6451fdd,,,,,,,,,,,773.2901,773.7901,,,774.0409,774.5912,right,,,,,,,,0.9,0.538,,,,,,,773.7901,774.0409,774.5913,775.6922,,,,,,,,0,57,57,202,1
,,,,,,,67d8b7fa2cc04185f7d10c26,682530d132ff60e8e38bc981,2025-05-14_19h10.22.418,cuing_paradigm_dot,2024.1.5,Win32,59.88023952,68242c07d0c0e200c6451fdd,,,,,,,,,,,775.6927,776.1928,,,776.4434,777.0108,left,,,,,,,,0.55,0.5594,,,,,,,776.1928,776.4434,777.0108,778.1115,,,,,,,,0,58,58,138,1
,,,,,,,67d8b7fa2cc04185f7d10c26,682530d132ff60e8e38bc981,2025-05-14_19h10.22.418,cuing_paradigm_dot,2024.1.5,Win32,59.88023952,68242c07d0c0e200c6451fdd,,,,,,,,,,,778.1119,778.6121,,,778.8629,779.2796,right,,,,,,,,0.4,0.4011,,,,,,,778.6121,778.8629,779.2797,780.3807,,,,,,,,0,59,59,50,1
,,,,,,,67d8b7fa2cc04185f7d10c26,682530d132ff60e8e38bc981,2025-05-14_19h10.22.418,cuing_paradigm_dot,2024.1.5,Win32,59.88023952,68242c07d0c0e200c6451fdd,,,,,,,,,,,780.3811,780.8812,,,781.1321,781.4488,left,,,,,,,,0.5,0.3011,,,,,,,780.8812,781.132,781.4488,782.5497,,,,,,,,0,60,60,96,1
,,,,,,,67d8b7fa2cc04185f7d10c26,682530d132ff60e8e38bc981,2025-05-14_19h10.22.418,cuing_paradigm_dot,2024.1.5,Win32,59.88023952,68242c07d0c0e200c6451fdd,,,,,,,,,,,782.5502,783.0503,,,783.3011,783.501,right,,,,,,,,0.9,0.1857,,,,,,,783.0504,783.3011,783.501,784.602,,,,,,,,0,61,61,194,1
,,,,,,,67d8b7fa2cc04185f7d10c26,682530d132ff60e8e38bc981,2025-05-14_19h10.22.418,cuing_paradigm_dot,2024.1.5,Win32,59.88023952,68242c07d0c0e200c6451fdd,,,,,,,,,,,784.6026,785.1026,,,785.3536,785.8035,right,,,,,,,,0.6,0.4374,,,,,,,785.1027,785.3535,785.8035,786.9045,,,,,,,,0,62,62,177,1
,,,,,,,67d8b7fa2cc04185f7d10c26,682530d132ff60e8e38bc981,2025-05-14_19h10.22.418,cuing_paradigm_dot,2024.1.5,Win32,59.88023952,68242c07d0c0e200c6451fdd,,,,,,,,,,,786.905,787.4051,,,787.6559,787.9392,left,,,,,,,,0.1,0.268,,,,,,,787.4051,787.6559,787.9393,789.0403,,,,,,,,0,63,63,27,1
,,,,,,,67d8b7fa2cc04185f7d10c26,682530d132ff60e8e38bc981,2025-05-14_19h10.22.418,cuing_paradigm_dot,2024.1.5,Win32,59.88023952,68242c07d0c0e200c6451fdd,,,,,,,,,,,789.0407,789.5407,,,789.7915,790.2256,right,,,,,,,,0.6,0.4195,,,,,,,789.5408,789.7915,790.2257,791.3261,,,,,,,,0,64,64,172,1
,,,,,,,67d8b7fa2cc04185f7d10c26,682530d132ff60e8e38bc981,2025-05-14_19h10.22.418,cuing_paradigm_dot,2024.1.5,Win32,59.88023952,68242c07d0c0e200c6451fdd,,,,,,,,,,,791.3266,791.8266,,,792.0775,792.6445,left,,,,,,,,0.5,0.5516,,,,,,,791.8267,792.0775,792.6445,793.7454,,,,,,,,0,65,65,90,1
,,,,,,,67d8b7fa2cc04185f7d10c26,682530d132ff60e8e38bc981,2025-05-14_19h10.22.418,cuing_paradigm_dot,2024.1.5,Win32,59.88023952,68242c07d0c0e200c6451fdd,,,,,,,,,,,793.746,794.246,,,794.4968,794.7803,right,,,,,,,,0.55,0.2741,,,,,,,794.246,794.4968,794.7803,795.8811,,,,,,,,0,66,66,130,1
,,,,,,,67d8b7fa2cc04185f7d10c26,682530d132ff60e8e38bc981,2025-05-14_19h10.22.418,cuing_paradigm_dot,2024.1.5,Win32,59.88023952,68242c07d0c0e200c6451fdd,,,,,,,,,,,795.8816,796.3817,,,796.6326,796.9491,left,,,,,,,,0.55,0.3064,,,,,,,796.3817,796.6325,796.9493,798.0501,,,,,,,,0,67,67,121,1
,,,,,,,67d8b7fa2cc04185f7d10c26,682530d132ff60e8e38bc981,2025-05-14_19h10.22.418,cuing_paradigm_dot,2024.1.5,Win32,59.88023952,68242c07d0c0e200c6451fdd,,,,,,,,,,,798.0508,798.5507,,,798.8014,799.0015,right,,,,,,,,0.4,0.1892,,,,,,,798.5508,798.8014,799.0016,800.1024,,,,,,,,0,68,68,31,1
,,,,,,,67d8b7fa2cc04185f7d10c26,682530d132ff60e8e38bc981,2025-05-14_19h10.22.418,cuing_paradigm_dot,2024.1.5,Win32,59.88023952,68242c07d0c0e200c6451fdd,,,,,,,,,,,800.1028,800.603,,,800.8538,801.0203,right,,,,,,,,0.5,0.1532,,,,,,,800.603,800.8538,801.0203,802.1213,,,,,,,,0,69,69,104,1
,,,,,,,67d8b7fa2cc04185f7d10c26,682530d132ff60e8e38bc981,2025-05-14_19h10.22.418,cuing_paradigm_dot,2024.1.5,Win32,59.88023952,68242c07d0c0e200c6451fdd,,,,,,,,,,,802.1219,802.6218,,,802.8728,803.2895,right,,,,,,,,0.45,0.4102,,,,,,,802.6219,802.8727,803.2896,804.3905,,,,,,,,0,70,70,86,1
,,,,,,,67d8b7fa2cc04185f7d10c26,682530d132ff60e8e38bc981,2025-05-14_19h10.22.418,cuing_paradigm_dot,2024.1.5,Win32,59.88023952,68242c07d0c0e200c6451fdd,,,,,,,,,,,804.391,804.891,,,805.1418,805.6755,left,,,,,,,,0.6,0.5177,,,,,,,804.8911,805.1417,805.6755,806.7765,,,,,,,,0,71,71,164,1
,,,,,,,67d8b7fa2cc04185f7d10c26,682530d132ff60e8e38bc981,2025-05-14_19h10.22.418,cuing_paradigm_dot,2024.1.5,Win32,59.88023952,68242c07d0c0e200c6451fdd,,,,,,,,,,,806.7769,807.277,,,807.5278,807.7111,left,,,,,,,,0.1,0.1712,,,,,,,807.2771,807.5278,807.7111,808.812,,,,,,,,0,72,72,1,1
,,,,,,,67d8b7fa2cc04185f7d10c26,682530d132ff60e8e38bc981,2025-05-14_19h10.22.418,cuing_paradigm_dot,2024.1.5,Win32,59.88023952,68242c07d0c0e200c6451fdd,,,,,,,,,,,808.8124,809.3125,,,809.5632,809.997,right,,,,,,,,0.9,0.4178,,,,,,,809.3126,809.5632,809.9971,811.0979,,,,,,,,0,73,73,195,1
,,,,,,,67d8b7fa2cc04185f7d10c26,682530d132ff60e8e38bc981,2025-05-14_19h10.22.418,cuing_paradigm_dot,2024.1.5,Win32,59.88023952,68242c07d0c0e200c6451fdd,,,,,,,,,,,811.0984,811.5984,,,811.8494,812.266,right,,,,,,,,0.1,0.4101,,,,,,,811.5984,811.8493,812.2663,813.367,,,,,,,,0,74,74,0,1
,,,,,,,67d8b7fa2cc04185f7d10c26,682530d132ff60e8e38bc981,2025-05-14_19h10.22.418,cuing_paradigm_dot,2024.1.5,Win32,59.88023952,68242c07d0c0e200c6451fdd,,,,,,,,,,,813.3675,813.8676,,,814.1182,814.5519,left,,,,,,,,0.6,0.4203,,,,,,,813.8677,814.1182,814.552,815.6529,,,,,,,,0,75,75,160,1
,,,,,,,67d8b7fa2cc04185f7d10c26,682530d132ff60e8e38bc981,2025-05-14_19h10.22.418,cuing_paradigm_dot,2024.1.5,Win32,59.88023952,68242c07d0c0e200c6451fdd,,,,,,,,,,,815.6535,816.1535,,,816.4041,816.8544,right,,,,,,,,0.45,0.4346,,,,,,,816.1535,816.4041,816.8544,817.9556,,,,,,,,0,76,76,62,1
,,,,,,,67d8b7fa2cc04185f7d10c26,682530d132ff60e8e38bc981,2025-05-14_19h10.22.418,cuing_paradigm_dot,2024.1.5,Win32,59.88023952,68242c07d0c0e200c6451fdd,,,,,,,,,,,817.9561,818.4558,,,818.7067,819.3908,left,,,,,,,,0.1,0.672,,,,,,,818.4559,818.7067,819.3908,820.4915,,,,,,,,0,77,77,6,1
,,,,,,,67d8b7fa2cc04185f7d10c26,682530d132ff60e8e38bc981,2025-05-14_19h10.22.418,cuing_paradigm_dot,2024.1.5,Win32,59.88023952,68242c07d0c0e200c6451fdd,,,,,,,,,,,820.492,820.9921,,,821.2429,822.0602,right,,,,,,,,0.5,0.8019,,,,,,,820.9921,821.2429,822.0602,823.1612,,,,,,,,0,78,78,100,1
,,,,,,,67d8b7fa2cc04185f7d10c26,682530d132ff60e8e38bc981,2025-05-14_19h10.22.418,cuing_paradigm_dot,2024.1.5,Win32,59.88023952,68242c07d0c0e200c6451fdd,,,,,,,,,,,823.1616,823.6618,,,823.9124,824.4962,right,,,,,,,,0.9,0.5704,,,,,,,823.6618,823.9124,824.4962,825.5977,,,,,,,,0,79,79,184,1
,,,,,,,67d8b7fa2cc04185f7d10c26,682530d132ff60e8e38bc981,2025-05-14_19h10.22.418,cuing_paradigm_dot,2024.1.5,Win32,59.88023952,68242c07d0c0e200c6451fdd,,,,,,,,,,,825.5985,826.0977,,,826.3485,826.7486,left,,,,,,,,0.5,0.3848,,,,,,,826.0977,826.3484,826.7488,827.8495,,,,,,,,0,80,80,119,1
,,,,,,,67d8b7fa2cc04185f7d10c26,682530d132ff60e8e38bc981,2025-05-14_19h10.22.418,cuing_paradigm_dot,2024.1.5,Win32,59.88023952,68242c07d0c0e200c6451fdd,,,,,,,,,,,827.8498,828.35,,,828.6012,828.8509,right,,,,,,,,0.4,0.2378,,,,,,,828.3501,828.601,828.851,829.9519,,,,,,,,0,81,81,44,1
,,,,,,,67d8b7fa2cc04185f7d10c26,682530d132ff60e8e38bc981,2025-05-14_19h10.22.418,cuing_paradigm_dot,2024.1.5,Win32,59.88023952,68242c07d0c0e200c6451fdd,,,,,,,,,,,829.9526,830.4525,,,830.7033,831.0202,right,,,,,,,,0.55,0.3015,,,,,,,830.4526,830.7033,831.0203,832.1212,,,,,,,,0,82,82,142,1
,,,,,,,67d8b7fa2cc04185f7d10c26,682530d132ff60e8e38bc981,2025-05-14_19h10.22.418,cuing_paradigm_dot,2024.1.5,Win32,59.88023952,68242c07d0c0e200c6451fdd,,,,,,,,,,,832.1218,832.6216,,,832.8727,833.323,left,,,,,,,,0.5,0.4345,,,,,,,832.6216,832.8726,833.323,834.4237,,,,,,,,0,83,83,115,1
,,,,,,,67d8b7fa2cc04185f7d10c26,682530d132ff60e8e38bc981,2025-05-14_19h10.22.418,cuing_paradigm_dot,2024.1.5,Win32,59.88023952,68242c07d0c0e200c6451fdd,,,,,,,,,,,834.4243,834.9243,,,835.1748,835.6085,right,,,,,,,,0.45,0.42,,,,,,,834.9243,835.1748,835.6085,836.7094,,,,,,,,0,84,84,74,1
,,,,,,,67d8b7fa2cc04185f7d10c26,682530d132ff60e8e38bc981,2025-05-14_19h10.22.418,cuing_paradigm_dot,2024.1.5,Win32,59.88023952,68242c07d0c0e200c6451fdd,,,,,,,,,,,836.7098,837.2101,,,837.4606,837.7107,left,,,,,,,,0.55,0.2344,,,,,,,837.2101,837.4606,837.7108,838.8118,,,,,,,,0,85,85,136,1
,,,,,,,67d8b7fa2cc04185f7d10c26,682530d132ff60e8e38bc981,2025-05-14_19h10.22.418,cuing_paradigm_dot,2024.1.5,Win32,59.88023952,68242c07d0c0e200c6451fdd,,,,,,,,,,,838.8122,839.3122,,,839.5633,840.1138,left,,,,,,,,0.1,0.5355,,,,,,,839.3123,839.5633,840.1138,841.2144,,,,,,,,0,86,86,14,1
,,,,,,,67d8b7fa2cc04185f7d10c26,682530d132ff60e8e38bc981,2025-05-14_19h10.22.418,cuing_paradigm_dot,2024.1.5,Win32,59.88023952,68242c07d0c0e200c6451fdd,,,,,,,,,,,841.2149,841.7149,,,841.9659,842.5999,right,,,,,,,,0.45,0.6193,,,,,,,841.715,841.9658,842.6,843.7004,,,,,,,,0,87,87,85,1
,,,,,,,67d8b7fa2cc04185f7d10c26,682530d132ff60e8e38bc981,2025-05-14_19h10.22.418,cuing_paradigm_dot,2024.1.5,Win32,59.88023952,68242c07d0c0e200c6451fdd,,,,,,,,,,,843.7009,844.2009,,,844.4517,844.9855,left,,,,,,,,0.1,0.519,,,,,,,844.201,844.4517,844.9856,846.0865,,,,,,,,0,88,88,5,1
,,,,,,,67d8b7fa2cc04185f7d10c26,682530d132ff60e8e38bc981,2025-05-14_19h10.22.418,cuing_paradigm_dot,2024.1.5,Win32,59.88023952,68242c07d0c0e200c6451fdd,,,,,,,,,,,846.0869,846.5871,,,846.838,847.5381,left,,,,,,,,0.1,0.6931,,,,,,,846.5871,846.838,847.5383,848.6392,,,,,,,,0,89,89,22,1
,,,,,,,67d8b7fa2cc04185f7d10c26,682530d132ff60e8e38bc981,2025-05-14_19h10.22.418,cuing_paradigm_dot,2024.1.5,Win32,59.88023952,68242c07d0c0e200c6451fdd,,,,,,,,,,,848.6395,849.1398,,,849.3907,849.9244,right,,,,,,,,0.55,0.5185,,,,,,,849.1398,849.3907,849.9245,851.0251,,,,,,,,0,90,90,141,1
,,,,,,,67d8b7fa2cc04185f7d10c26,682530d132ff60e8e38bc981,2025-05-14_19h10.22.418,cuing_paradigm_dot,2024.1.5,Win32,59.88023952,68242c07d0c0e200c6451fdd,,,,,,,,,,,851.0255,851.5257,,,851.7767,852.1932,right,,,,,,,,0.5,0.4011,,,,,,,851.5257,851.7766,852.1933,853.2944,,,,,,,,0,91,91,116,1
,,,,,,,67d8b7fa2cc04185f7d10c26,682530d132ff60e8e38bc981,2025-05-14_19h10.22.418,cuing_paradigm_dot,2024.1.5,Win32,59.88023952,68242c07d0c0e200c6451fdd,,,,,,,,,,,853.2948,853.795,,,854.0458,854.4457,left,,,,,,,,0.55,0.3853,,,,,,,853.795,854.0457,854.4458,855.5468,,,,,,,,0,92,92,140,1
,,,,,,,67d8b7fa2cc04185f7d10c26,682530d132ff60e8e38bc981,2025-05-14_19h10.22.418,cuing_paradigm_dot,2024.1.5,Win32,59.88023952,68242c07d0c0e200c6451fdd,,,,,,,,,,,855.5474,856.0472,,,856.2982,856.4648,right,,,,,,,,0.9,0.1525,,,,,,,856.0473,856.2982,856.4649,857.5656,,,,,,,,0,93,93,200,1
,,,,,,,67d8b7fa2cc04185f7d10c26,682530d132ff60e8e38bc981,2025-05-14_19h10.22.418,cuing_paradigm_dot,2024.1.5,Win32,59.88023952,68242c07d0c0e200c6451fdd,,,,,,,,,,,857.5662,858.0662,,,858.3171,858.734,left,,,,,,,,0.5,0.4099,,,,,,,858.0663,858.3171,858.734,859.8348,,,,,,,,0,94,94,95,1
,,,,,,,67d8b7fa2cc04185f7d10c26,682530d132ff60e8e38bc981,2025-05-14_19h10.22.418,cuing_paradigm_dot,2024.1.5,Win32,59.88023952,68242c07d0c0e200c6451fdd,,,,,,,,,,,859.8354,860.3355,,,860.5862,861.1866,right,,,,,,,,0.6,0.5885,,,,,,,860.3356,860.5862,861.1867,862.2876,,,,,,,,0,95,95,151,1
,,,,,,,67d8b7fa2cc04185f7d10c26,682530d132ff60e8e38bc981,2025-05-14_19h10.22.418,cuing_paradigm_dot,2024.1.5,Win32,59.88023952,68242c07d0c0e200c6451fdd,,,,,,,,,,,862.288,862.7881,,,863.039,863.5558,left,,,,,,,,0.45,0.5012,,,,,,,862.7881,863.039,863.5559,864.6568,,,,,,,,0,96,96,71,1
,,,,,,,67d8b7fa2cc04185f7d10c26,682530d132ff60e8e38bc981,2025-05-14_19h10.22.418,cuing_paradigm_dot,2024.1.5,Win32,59.88023952,68242c07d0c0e200c6451fdd,,,,,,,,,,,864.6573,865.1574,,,865.4082,865.725,right,,,,,,,,0.6,0.3013,,,,,,,865.1574,865.4082,865.7252,866.8259,,,,,,,,0,97,97,162,1
,,,,,,,67d8b7fa2cc04185f7d10c26,682530d132ff60e8e38bc981,2025-05-14_19h10.22.418,cuing_paradigm_dot,2024.1.5,Win32,59.88023952,68242c07d0c0e200c6451fdd,,,,,,,,,,,866.8264,867.3265,,,867.5773,867.8606,left,,,,,,,,0.1,0.2693,,,,,,,867.3265,867.5772,867.8607,868.9615,,,,,,,,0,98,98,29,1
,,,,,,,67d8b7fa2cc04185f7d10c26,682530d132ff60e8e38bc981,2025-05-14_19h10.22.418,cuing_paradigm_dot,2024.1.5,Win32,59.88023952,68242c07d0c0e200c6451fdd,,,,,,,,,,,868.9621,869.4621,,,869.713,870.2135,left,,,,,,,,0.1,0.4859,,,,,,,869.4621,869.713,870.2136,871.3142,,,,,,,,0,99,99,7,1
,,,,,,,67d8b7fa2cc04185f7d10c26,682530d132ff60e8e38bc981,2025-05-14_19h10.22.418,cuing_paradigm_dot,2024.1.5,Win32,59.88023952,68242c07d0c0e200c6451fdd,,,,,,,,,,,871.3145,871.8148,,,872.0655,872.5321,right,,,,,,,,0.4,0.4531,,,,,,,871.8148,872.0655,872.5321,873.6334,,,,,,,,0,100,100,33,1
,,,,,,,67d8b7fa2cc04185f7d10c26,682530d132ff60e8e38bc981,2025-05-14_19h10.22.418,cuing_paradigm_dot,2024.1.5,Win32,59.88023952,68242c07d0c0e200c6451fdd,,,,,,,,,,,873.634,874.134,,,874.3848,874.8517,left,,,,,,,,0.4,0.454,,,,,,,874.134,874.3847,874.8518,875.9527,,,,,,,,0,101,101,59,1
,,,,,,,67d8b7fa2cc04185f7d10c26,682530d132ff60e8e38bc981,2025-05-14_19h10.22.418,cuing_paradigm_dot,2024.1.5,Win32,59.88023952,68242c07d0c0e200c6451fdd,,,,,,,,,,,875.9533,876.4532,,,876.704,877.1374,right,,,,,,,,0.55,0.4267,,,,,,,876.4533,876.704,877.1375,878.2384,,,,,,,,0,102,102,129,1
,,,,,,,67d8b7fa2cc04185f7d10c26,682530d132ff60e8e38bc981,2025-05-14_19h10.22.418,cuing_paradigm_dot,2024.1.5,Win32,59.88023952,68242c07d0c0e200c6451fdd,,,,,,,,,,,878.2388,878.7389,,,878.9896,879.3901,left,,,,,,,,0.4,0.393,,,,,,,878.739,878.9896,879.3901,880.4909,,,,,,,,0,103,103,41,1
,,,,,,,67d8b7fa2cc04185f7d10c26,682530d132ff60e8e38bc981,2025-05-14_19h10.22.418,cuing_paradigm_dot,2024.1.5,Win32,59.88023952,68242c07d0c0e200c6451fdd,,,,,,,,,,,880.4914,880.9914,,,881.2422,881.6258,right,,,,,,,,0.45,0.3726,,,,,,,880.9915,881.2421,881.6259,882.7267,,,,,,,,0,104,104,73,1
,,,,,,,67d8b7fa2cc04185f7d10c26,682530d132ff60e8e38bc981,2025-05-14_19h10.22.418,cuing_paradigm_dot,2024.1.5,Win32,59.88023952,68242c07d0c0e200c6451fdd,,,,,,,,,,,882.7271,883.2273,,,883.478,883.8114,left,,,,,,,,0.55,0.3206,,,,,,,883.2274,883.478,883.8114,884.9124,,,,,,,,0,105,105,134,1
,,,,,,,67d8b7fa2cc04185f7d10c26,682530d132ff60e8e38bc981,2025-05-14_19h10.22.418,cuing_paradigm_dot,2024.1.5,Win32,59.88023952,68242c07d0c0e200c6451fdd,,,,,,,,,,,884.9129,885.413,,,885.6638,886.1307,right,,,,,,,,0.4,0.4514,,,,,,,885.4131,885.6637,886.1308,887.2317,,,,,,,,0,106,106,36,1
,,,,,,,67d8b7fa2cc04185f7d10c26,682530d132ff60e8e38bc981,2025-05-14_19h10.22.418,cuing_paradigm_dot,2024.1.5,Win32,59.88023952,68242c07d0c0e200c6451fdd,,,,,,,,,,,887.2322,887.7324,,,887.9831,888.4832,left,,,,,,,,0.1,0.4878,,,,,,,887.7324,887.9831,888.4833,889.5843,,,,,,,,0,107,107,12,1
,,,,,,,67d8b7fa2cc04185f7d10c26,682530d132ff60e8e38bc981,2025-05-14_19h10.22.418,cuing_paradigm_dot,2024.1.5,Win32,59.88023952,68242c07d0c0e200c6451fdd,,,,,,,,,,,889.5847,890.0849,,,890.3356,890.8358,right,,,,,,,,0.9,0.4872,,,,,,,890.085,890.3355,890.8358,891.9368,,,,,,,,0,108,108,196,1
,,,,,,,67d8b7fa2cc04185f7d10c26,682530d132ff60e8e38bc981,2025-05-14_19h10.22.418,cuing_paradigm_dot,2024.1.5,Win32,59.88023952,68242c07d0c0e200c6451fdd,,,,,,,,,,,891.9374,892.4375,,,892.6881,893.1718,left,,,,,,,,0.4,0.4681,,,,,,,892.4375,892.6881,893.1718,894.2728,,,,,,,,0,109,109,56,1
,,,,,,,67d8b7fa2cc04185f7d10c26,682530d132ff60e8e38bc981,2025-05-14_19h10.22.418,cuing_paradigm_dot,2024.1.5,Win32,59.88023952,68242c07d0c0e200c6451fdd,,,,,,,,,,,894.2732,894.7733,,,895.0241,895.2239,right,,,,,,,,0.1,0.1865,,,,,,,894.7734,895.0241,895.2239,896.3251,,,,,,,,0,110,110,19,1
,,,,,,,67d8b7fa2cc04185f7d10c26,682530d132ff60e8e38bc981,2025-05-14_19h10.22.418,cuing_paradigm_dot,2024.1.5,Win32,59.88023952,68242c07d0c0e200c6451fdd,,,,,,,,,,,896.3256,896.8256,,,897.0764,897.5099,left,,,,,,,,0.45,0.4223,,,,,,,896.8256,897.0764,897.5099,898.6109,,,,,,,,0,111,111,84,1
,,,,,,,67d8b7fa2cc04185f7d10c26,682530d132ff60e8e38bc981,2025-05-14_19h10.22.418,cuing_paradigm_dot,2024.1.5,Win32,59.88023952,68242c07d0c0e200c6451fdd,,,,,,,,,,,898.6113,899.1115,,,899.3622,899.9459,left,,,,,,,,0.1,0.5679,,,,,,,899.1116,899.3622,899.9459,901.0468,,,,,,,,0,112,112,11,1
,,,,,,,67d8b7fa2cc04185f7d10c26,682530d132ff60e8e38bc981,2025-05-14_19h10.22.418,cuing_paradigm_dot,2024.1.5,Win32,59.88023952,68242c07d0c0e200c6451fdd,,,,,,,,,,,901.0471,901.5474,,,901.7983,902.2484,right,,,,,,,,0.6,0.435,,,,,,,901.5474,901.7983,902.2484,903.3493,,,,,,,,0,113,113,159,1
,,,,,,,67d8b7fa2cc04185f7d10c26,682530d132ff60e8e38bc981,2025-05-14_19h10.22.418,cuing_paradigm_dot,2024.1.5,Win32,59.88023952,68242c07d0c0e200c6451fdd,,,,,,,,,,,903.3498,903.8501,,,904.1008,904.6344,right,,,,,,,,0.6,0.518,,,,,,,903.8501,904.1008,904.6345,905.7353,,,,,,,,0,114,114,153,1
,,,,,,,67d8b7fa2cc04185f7d10c26,682530d132ff60e8e38bc981,2025-05-14_19h10.22.418,cuing_paradigm_dot,2024.1.5,Win32,59.88023952,68242c07d0c0e200c6451fdd,,,,,,,,,,,905.7358,906.2359,,,906.4868,906.9874,left,,,,,,,,0.45,0.4847,,,,,,,906.2359,906.4868,906.9877,908.0879,,,,,,,,0,115,115,67,1
,,,,,,,67d8b7fa2cc04185f7d10c26,682530d132ff60e8e38bc981,2025-05-14_19h10.22.418,cuing_paradigm_dot,2024.1.5,Win32,59.88023952,68242c07d0c0e200c6451fdd,,,,,,,,,,,908.0885,908.5885,,,908.8394,909.2227,right,,,,,,,,0.55,0.3679,,,,,,,908.5885,908.8393,909.2227,910.3241,,,,,,,,0,116,116,124,1
,,,,,,,67d8b7fa2cc04185f7d10c26,682530d132ff60e8e38bc981,2025-05-14_19h10.22.418,cuing_paradigm_dot,2024.1.5,Win32,59.88023952,68242c07d0c0e200c6451fdd,,,,,,,,,,,910.3245,910.8244,,,911.0749,911.542,left,,,,,,,,0.5,0.4513,,,,,,,910.8244,911.0749,911.542,912.643,,,,,,,,0,117,117,118,1
,,,,,,,67d8b7fa2cc04185f7d10c26,682530d132ff60e8e38bc981,2025-05-14_19h10.22.418,cuing_paradigm_dot,2024.1.5,Win32,59.88023952,68242c07d0c0e200c6451fdd,,,,,,,,,,,912.6435,913.1435,,,913.3944,913.7944,right,,,,,,,,0.5,0.3843,,,,,,,913.1435,913.3943,913.7944,914.8955,,,,,,,,0,118,118,91,1
,,,,,,,67d8b7fa2cc04185f7d10c26,682530d132ff60e8e38bc981,2025-05-14_19h10.22.418,cuing_paradigm_dot,2024.1.5,Win32,59.88023952,68242c07d0c0e200c6451fdd,,,,,,,,,,,914.8959,915.396,,,915.6468,915.8135,left,,,,,,,,0.45,0.16,,,,,,,915.3961,915.6467,915.8136,916.9144,,,,,,,,0,119,119,72,1
,,,,,,,67d8b7fa2cc04185f7d10c26,682530d132ff60e8e38bc981,2025-05-14_19h10.22.418,cuing_paradigm_dot,2024.1.5,Win32,59.88023952,68242c07d0c0e200c6451fdd,,,,,,,,,,,916.9149,917.4149,,,917.6658,917.7654,right,,,,,,,,0.45,0.085,,,,,,,917.4149,917.6658,917.7654,918.8665,,,,,,,,0,120,120,77,1
,,,,,,,67d8b7fa2cc04185f7d10c26,682530d132ff60e8e38bc981,2025-05-14_19h10.22.418,cuing_paradigm_dot,2024.1.5,Win32,59.88023952,68242c07d0c0e200c6451fdd,,,,,,,,,,,918.867,919.3672,,,919.6179,919.7179,left,,,,,,,,0.55,0.0888,,,,,,,919.3672,919.6179,919.7179,920.8186,,,,,,,,0,121,121,120,1
,,,,,,,67d8b7fa2cc04185f7d10c26,682530d132ff60e8e38bc981,2025-05-14_19h10.22.418,cuing_paradigm_dot,2024.1.5,Win32,59.88023952,68242c07d0c0e200c6451fdd,,,,,,,,,,,920.819,921.3193,,,921.57,921.6197,right,,,,,,,,0.6,0.0367,,,,,,,921.3193,921.57,921.6198,922.7208,,,,,,,,0,122,122,178,1
,,,,,,,67d8b7fa2cc04185f7d10c26,682530d132ff60e8e38bc981,2025-05-14_19h10.22.418,cuing_paradigm_dot,2024.1.5,Win32,59.88023952,68242c07d0c0e200c6451fdd,,,,,,,,,,,922.7213,923.2212,,,923.4719,923.6053,left,,,,,,,,0.55,0.1185,,,,,,,923.2213,923.4719,923.6053,924.7063,,,,,,,,0,123,123,137,1
,,,,,,,67d8b7fa2cc04185f7d10c26,682530d132ff60e8e38bc981,2025-05-14_19h10.22.418,cuing_paradigm_dot,2024.1.5,Win32,59.88023952,68242c07d0c0e200c6451fdd,,,,,,,,,,,924.7069,925.207,,,925.4577,925.5414,right,,,,,,,,0.4,0.0774,,,,,,,925.207,925.4576,925.5415,926.6418,,,,,,,,0,124,124,38,1
,,,,,,,67d8b7fa2cc04185f7d10c26,682530d132ff60e8e38bc981,2025-05-14_19h10.22.418,cuing_paradigm_dot,2024.1.5,Win32,59.88023952,68242c07d0c0e200c6451fdd,,,,,,,,,,,926.6423,927.1423,,,927.393,927.6431,left,,,,,,,,0.1,0.2378,,,,,,,927.1424,927.3929,927.6431,928.7441,,,,,,,,0,125,125,20,1
,,,,,,,67d8b7fa2cc04185f7d10c26,682530d132ff60e8e38bc981,2025-05-14_19h10.22.418,cuing_paradigm_dot,2024.1.5,Win32,59.88023952,68242c07d0c0e200c6451fdd,,,,,,,,,,,928.7444,929.2446,,,929.4954,930.0456,right,,,,,,,,0.4,0.5432,,,,,,,929.2446,929.4954,930.0457,931.1467,,,,,,,,0,126,126,34,1
,,,,,,,67d8b7fa2cc04185f7d10c26,682530d132ff60e8e38bc981,2025-05-14_19h10.22.418,cuing_paradigm_dot,2024.1.5,Win32,59.88023952,68242c07d0c0e200c6451fdd,,,,,,,,,,,931.1474,931.6474,,,931.8979,932.0979,left,,,,,,,,0.5,0.1843,,,,,,,931.6474,931.8979,932.098,933.199,,,,,,,,0,127,127,93,1
,,,,,,,67d8b7fa2cc04185f7d10c26,682530d132ff60e8e38bc981,2025-05-14_19h10.22.418,cuing_paradigm_dot,2024.1.5,Win32,59.88023952,68242c07d0c0e200c6451fdd,,,,,,,,,,,933.1994,933.6996,,,933.9503,934.3004,right,,,,,,,,0.5,0.3363,,,,,,,933.6996,933.9503,934.3004,935.4014,,,,,,,,0,128,128,108,1
