right,left,explain.started,explain.stopped,key_resp_3.keys,key_resp_3.rt,key_resp_3.duration,participant,session,date,expName,psychopyVersion,OS,frameRate,study_id,explain_2.started,explain_2.stopped,key_resp_4.keys,key_resp_4.rt,key_resp_4.duration,explain_3.started,explain_3.stopped,key_resp_5.keys,key_resp_5.rt,key_resp_5.duration,fixation.started,fixation.stopped,practice.started,practice.stopped,response.started,response.stopped,key_resp.keys,key_resp.rt,key_resp.duration,feedback.started,feedback.stopped,trials_2.thisRepN,trials_2.thisTrialN,trials_2.thisN,trials_2.thisIndex,trials_2.ran,dot_ratio,explain_4.started,explain_4.stopped,key_resp_6.keys,key_resp_6.rt,key_resp_6.duration,dotDisplay.started,dotDisplay.stopped,ITI.started,polygon_1.pos,polygon_1.edges,polygon_2.pos,polygon_2.edges,polygon_3.pos,polygon_3.edges,polygon_4.pos,polygon_4.edges,polygon_5.pos,polygon_5.edges,polygon_6.pos,polygon_6.edges,polygon_7.pos,polygon_7.edges,polygon_8.pos,polygon_8.edges,polygon_9.pos,polygon_9.edges,polygon_10.pos,polygon_10.edges,polygon_11.pos,polygon_11.edges,polygon_12.pos,polygon_12.edges,polygon_13.pos,polygon_13.edges,polygon_14.pos,polygon_14.edges,polygon_15.pos,polygon_15.edges,polygon_16.pos,polygon_16.edges,polygon_17.pos,polygon_17.edges,polygon_18.pos,polygon_18.edges,polygon_19.pos,polygon_19.edges,polygon_20.pos,polygon_20.edges,polygon_21.pos,polygon_21.edges,polygon_22.pos,polygon_22.edges,polygon_23.pos,polygon_23.edges,polygon_24.pos,polygon_24.edges,polygon_25.pos,polygon_25.edges,polygon_26.pos,polygon_26.edges,polygon_27.pos,polygon_27.edges,polygon_28.pos,polygon_28.edges,polygon_29.pos,polygon_29.edges,polygon_30.pos,polygon_30.edges,polygon_31.pos,polygon_31.edges,polygon_32.pos,polygon_32.edges,dot_size,ITI.stopped,trials.thisRepN,trials.thisTrialN,trials.thisN,trials.thisIndex,trials.ran,break_2.started,break_2.stopped,trials_3.thisRepN,trials_3.thisTrialN,trials_3.thisN,trials_3.thisIndex,trials_3.ran
subject chose dot,subject chose diamond,0.0,23.343,space,8.336,,5658000ca9872d0011e1ba26,6842bb43330fb1b6d6acbbca,2025-06-06_05h56.49.380,shape_ratio,2024.1.5,Win32,165.0165017,6842b561977af9ba9b0f87ca,,,,,,,,,,,,,,,,,,,,,,,,,,,,,,,,,,,,,,,,,,,,,,,,,,,,,,,,,,,,,,,,,,,,,,,,,,,,,,,,,,,,,,,,,,,,,,,,,,,,,,,,,,,,,,,,,
,,,,,,,5658000ca9872d0011e1ba26,6842bb43330fb1b6d6acbbca,2025-06-06_05h56.49.380,shape_ratio,2024.1.5,Win32,165.0165017,6842b561977af9ba9b0f87ca,23.343,54.054,space,0.704,,,,,,,,,,,,,,,,,,,,,,,,,,,,,,,,,,,,,,,,,,,,,,,,,,,,,,,,,,,,,,,,,,,,,,,,,,,,,,,,,,,,,,,,,,,,,,,,,,,,,,,,,,,,,
,,,,,,,5658000ca9872d0011e1ba26,6842bb43330fb1b6d6acbbca,2025-06-06_05h56.49.380,shape_ratio,2024.1.5,Win32,165.0165017,6842b561977af9ba9b0f87ca,,,,,,54.054,57.884,space,0.826,,,,,,,,,,,,,,,,,,,,,,,,,,,,,,,,,,,,,,,,,,,,,,,,,,,,,,,,,,,,,,,,,,,,,,,,,,,,,,,,,,,,,,,,,,,,,,,,,,,,,,,,
,,,,,,,5658000ca9872d0011e1ba26,6842bb43330fb1b6d6acbbca,2025-06-06_05h56.49.380,shape_ratio,2024.1.5,Win32,165.0165017,6842b561977af9ba9b0f87ca,,,,,,,,,,,57.889,58.387,58.387,58.635,58.636,59.641,left,0.977,,59.641,60.738,0.0,0.0,0.0,0.0,1.0,0.2,,,,,,,,,,,,,,,,,,,,,,,,,,,,,,,,,,,,,,,,,,,,,,,,,,,,,,,,,,,,,,,,,,,,,,,,,,,,,,,,,,,,,,
,,,,,,,5658000ca9872d0011e1ba26,6842bb43330fb1b6d6acbbca,2025-06-06_05h56.49.380,shape_ratio,2024.1.5,Win32,165.0165017,6842b561977af9ba9b0f87ca,,,,,,,,,,,60.738,61.235,61.235,61.483,61.484,62.387,right,0.897,,62.387,63.484,0.0,1.0,1.0,1.0,1.0,0.8,,,,,,,,,,,,,,,,,,,,,,,,,,,,,,,,,,,,,,,,,,,,,,,,,,,,,,,,,,,,,,,,,,,,,,,,,,,,,,,,,,,,,,
,,,,,,,5658000ca9872d0011e1ba26,6842bb43330fb1b6d6acbbca,2025-06-06_05h56.49.380,shape_ratio,2024.1.5,Win32,165.0165017,6842b561977af9ba9b0f87ca,,,,,,,,,,,,,,,,,,,,,,,,,,,,63.484,69.653,space,3.166,,,,,,,,,,,,,,,,,,,,,,,,,,,,,,,,,,,,,,,,,,,,,,,,,,,,,,,,,,,,,,,,,,,,,,,,,,,,,,,,,,
,,,,,,,5658000ca9872d0011e1ba26,6842bb43330fb1b6d6acbbca,2025-06-06_05h56.49.380,shape_ratio,2024.1.5,Win32,165.0165017,6842b561977af9ba9b0f87ca,,,,,,,,,,,69.659,70.157,,,70.405,71.048,right,0.64,,,,,,,,,0.55,,,,,,70.157,70.405,71.048,"[0.16391760253485474,0.02045805629102118]",4.0,"[0.02493897775851735,0.07156011144227374]",100.0,"[0.16643624727527187,-0.05339432176432374]",100.0,"[-0.16917429067624093,-0.08170945071766504]",100.0,"[-0.10646096748275057,0.1684229796324275]",100.0,"[0.0552354665540821,0.1324380856842148]",100.0,"[-0.06572152237910557,-0.00415460141487033]",4.0,"[0.1254338788535137,0.13544164230581765]",100.0,"[-0.12442821802894745,0.05448455744566567]",100.0,"[-0.03964199610182995,-0.1536903923200929]",4.0,"[0.06450216139078342,-0.1234896332542523]",4.0,"[0.016229542918753892,-0.14580370283797048]",100.0,"[0.11899571600985195,0.08187136856219544]",4.0,"[0.03741866824147484,-0.05818597668137873]",100.0,"[0.14667459695839918,-0.09087207879147918]",4.0,"[-0.029392081902844338,0.06262937609695421]",100.0,"[0.07812625065042139,0.06935462101029874]",4.0,"[-0.14621891400501427,-0.12846321449071743]",100.0,"[-0.0686203931130197,-0.05539779697450934]",4.0,"[-0.11557346711338881,0.11441579708748019]",100.0,"[0.12547612645061512,-0.05519550347116092]",100.0,"[0.03722364008932581,0.18058575299674498]",100.0,"[-0.14342772995909622,0.010828115836085412]",4.0,"[-0.03200713623718319,0.1441015330252446]",4.0,"[0.06433873273159979,-0.0006183376807303093]",100.0,"[-0.18116501912155872,0.057359486220216874]",4.0,"[0.07771140130415409,0.17592020476367032]",4.0,"[-0.000906614505063873,-0.025289235036723406]",100.0,"[0.019940886543112823,-0.18848083985861352]",100.0,"[-0.0664556745768753,-0.09906170089608507]",100.0,"[0.09660257343427102,-0.0847920226662424]",4.0,"[-0.12126855667367956,-0.07702511919922905]",4.0,"[0.02,0.02]",72.145,0.0,0.0,0.0,84.0,1.0,,,,,,,
,,,,,,,5658000ca9872d0011e1ba26,6842bb43330fb1b6d6acbbca,2025-06-06_05h56.49.380,shape_ratio,2024.1.5,Win32,165.0165017,6842b561977af9ba9b0f87ca,,,,,,,,,,,72.145,72.642,,,72.891,73.763,left,0.87,,,,,,,,,0.1,,,,,,72.642,72.89,73.763,"[-0.1803593309198956,-0.021196236407006675]",4.0,"[-0.1392202038594375,0.07439327774492491]",4.0,"[0.04103840084596767,0.16514697994516622]",4.0,"[-0.11991743561562361,-0.1483253255153162]",4.0,"[0.03791257006895013,0.03123561285301937]",4.0,"[0.09988347417865748,-0.0054614233771529295]",4.0,"[-0.018742280066313906,0.19477131948215587]",100.0,"[-0.025810765988866884,-0.15248711509615798]",4.0,"[0.10248111919229184,0.10950127211573897]",100.0,"[-0.09413922865737194,-0.012513172108337111]",100.0,"[-0.05143189664180541,0.0830098795225005]",4.0,"[-0.09984842590836106,-0.06779112377514669]",4.0,"[-0.1162142590432782,0.16196775147418]",4.0,"[-0.17972694277887044,-0.08680755768551726]",4.0,"[0.15577144623221836,-0.049830931781760276]",4.0,"[-0.1412500674025904,-0.0073812571599487205]",4.0,"[-0.004916076996558499,0.07728701576576259]",4.0,"[-0.043730891783616034,0.1587156944275915]",4.0,"[0.1121860162383067,0.05347674539756388]",4.0,"[-0.042761821090975906,-0.10484848103162583]",4.0,"[0.142561144880155,0.12539861705447322]",4.0,"[0.0725376127802142,0.06472989999452829]",4.0,"[0.15268233591597427,0.07738624312055624]",4.0,"[-0.01451868924877961,-0.06817425294042632]",4.0,"[0.0937398915219138,-0.06166933163865782]",4.0,"[-0.09733246653194634,-0.1104063285315503]",4.0,"[0.0716549088507259,-0.15455802590656095]",4.0,"[0.08826969971856077,0.17751935647003242]",4.0,"[-0.0044231017377251115,0.12176015360521293]",4.0,"[-0.1340535827451641,-0.08923716689851724]",4.0,"[-0.02239347833835053,0.033954005294956575]",4.0,"[0.04398490884125993,-0.02737082952404094]",4.0,"[0.02,0.02]",74.86,0.0,1.0,1.0,200.0,1.0,,,,,,,
,,,,,,,5658000ca9872d0011e1ba26,6842bb43330fb1b6d6acbbca,2025-06-06_05h56.49.380,shape_ratio,2024.1.5,Win32,165.0165017,6842b561977af9ba9b0f87ca,,,,,,,,,,,74.86,75.357,,,75.606,76.194,right,0.582,,,,,,,,,0.4,,,,,,75.357,75.606,76.194,"[-0.1640791276575007,-0.09038234555762925]",100.0,"[-0.13023042907380838,0.13167378872172153]",4.0,"[-0.10584336911164677,-0.03143309802599609]",100.0,"[0.03345111766688216,0.033464504206860854]",4.0,"[-0.12620048392329986,0.03668156183043053]",4.0,"[-0.04941981348074055,-0.1109721896102053]",4.0,"[0.17284952870508027,0.0674666627257491]",4.0,"[0.1031388626838009,-0.02029873194998089]",100.0,"[0.02794565967817121,0.11874903730156804]",4.0,"[-0.15779446810614742,-0.018597645655563735]",4.0,"[-0.0524648440130289,0.03635341934947522]",4.0,"[0.048340721695977786,-0.19373130816060136]",100.0,"[0.13176466213570762,-0.0787203443437386]",4.0,"[0.0026396753610650374,0.17664325727812688]",4.0,"[0.1863086827588023,-0.029199814398400158]",100.0,"[-0.012163452651872493,-0.073727091621036]",4.0,"[-0.06132022577245479,-0.15211583407656926]",100.0,"[0.18074238851661295,-0.07532862285194593]",4.0,"[0.13358998303021694,-0.1440638625099868]",100.0,"[0.042984675269082256,-0.05424540392651892]",4.0,"[0.06032441041621625,-0.011705500227810467]",4.0,"[-0.1697258217469163,0.022511902913395172]",100.0,"[0.09053748922745466,-0.11193345157272687]",4.0,"[0.0451430075598828,0.1701242811274202]",100.0,"[0.13686264208643797,0.016010688926739524]",4.0,"[-0.11256563713704712,-0.10552764251998009]",4.0,"[-0.0039006646234034555,0.014869725301337264]",100.0,"[-0.1881451941983034,-0.04829820927034678]",100.0,"[0.047706759655284425,0.0788941981946474]",100.0,"[-0.17685517093389702,0.08944078940237697]",4.0,"[-0.12095132792662595,0.08255790645092487]",100.0,"[0.12348381120595146,0.1150348560925083]",4.0,"[0.02,0.02]",77.291,0.0,2.0,2.0,151.0,1.0,,,,,,,
,,,,,,,5658000ca9872d0011e1ba26,6842bb43330fb1b6d6acbbca,2025-06-06_05h56.49.380,shape_ratio,2024.1.5,Win32,165.0165017,6842b561977af9ba9b0f87ca,,,,,,,,,,,77.291,77.787,,,78.036,78.75,right,0.71,,,,,,,,,0.6,,,,,,77.787,78.036,78.75,"[-0.027070243341756256,-0.0444274936054367]",100.0,"[-0.15732809296053316,-0.08934536996753334]",4.0,"[-0.05142957742339323,-0.1432165059595411]",100.0,"[0.04934844052639813,-0.18422764524501878]",100.0,"[-0.1684475136715241,-0.002308241255936039]",4.0,"[0.11695841414924535,0.07845320573778901]",100.0,"[0.09463455038450569,-0.057138676077570054]",4.0,"[0.10152722599552771,-0.14381557563487501]",4.0,"[-0.041679474270166765,0.1532073236400236]",100.0,"[-0.03312469946566726,0.04244758101593164]",4.0,"[0.02055416102299296,-0.04242848768459835]",4.0,"[0.11468790342671753,0.15270749183657142]",4.0,"[-0.01732034999426028,-0.1191104471951313]",4.0,"[-0.04919815622092743,0.08264081218460745]",4.0,"[-0.11825525954151546,0.05420009794746058]",4.0,"[-0.000902406563432933,-0.19242329971176972]",4.0,"[-0.05699514560843497,-0.07797470869129208]",100.0,"[0.023608140134562465,-0.14604245722828857]",4.0,"[0.1526778341320619,0.049255344044172464]",100.0,"[0.00013787310561957708,0.09199775798088378]",100.0,"[-0.06807831522391233,0.014149725984993384]",100.0,"[0.06592073809151651,0.05489000865996657]",100.0,"[-0.07824008938751349,0.052996210510593174]",4.0,"[0.06597694395294955,-0.11889815577968292]",100.0,"[0.10058566660878837,0.004286380703619813]",100.0,"[0.02306165248063214,0.17217797562356257]",100.0,"[-0.012282534321166149,-0.00580744197080843]",100.0,"[-0.10907026869066004,0.12994516333972497]",100.0,"[-0.19758084802068407,-0.030918092041700727]",100.0,"[-0.1684673863016214,0.06986680955554943]",100.0,"[0.13281359372751597,-0.10066152986535996]",100.0,"[0.1961705643664978,-0.029691045848999092]",100.0,"[0.02,0.02]",79.848,0.0,3.0,3.0,52.0,1.0,,,,,,,
,,,,,,,5658000ca9872d0011e1ba26,6842bb43330fb1b6d6acbbca,2025-06-06_05h56.49.380,shape_ratio,2024.1.5,Win32,165.0165017,6842b561977af9ba9b0f87ca,,,,,,,,,,,79.848,80.345,,,80.593,81.175,right,0.578,,,,,,,,,0.9,,,,,,80.345,80.593,81.175,"[-0.1368268561780382,-0.10784129789156617]",100.0,"[0.04591062308002135,0.025530260033007766]",100.0,"[-0.0209306421745848,-0.10891151967651554]",100.0,"[0.15350737268554757,0.055112500792506354]",100.0,"[0.12079335673921035,-0.001980959870787014]",100.0,"[0.13882693476886102,-0.11317746975648092]",100.0,"[-0.0008419666026199198,-0.008208551059375194]",100.0,"[-0.14670946682745487,0.12137151697763207]",100.0,"[0.18887536028520352,0.0013327094327185377]",100.0,"[-0.08269325518273346,-0.023896916289420908]",100.0,"[0.07407837854862699,-0.1536181379372789]",100.0,"[-0.045769833784723477,0.12392092322450435]",100.0,"[0.018635345855951165,-0.06909841090839358]",100.0,"[0.10557304826220759,0.11519583508968743]",100.0,"[-0.04642836054892366,0.18179585629670764]",100.0,"[0.02414762644701205,-0.1308443629872771]",100.0,"[-0.1368068843338815,0.04179041970769015]",100.0,"[-0.15524504156603045,-0.04001974469919013]",4.0,"[-0.10752890383189032,-0.07281787069396427]",100.0,"[-0.06567345123602744,-0.14255084834496515]",4.0,"[-0.10855691835583828,0.07984179327713173]",100.0,"[0.07866153283623839,0.07548707726265245]",4.0,"[0.06653829428701813,-0.06422543306192231]",100.0,"[-0.09327127457516128,0.1337346188408263]",100.0,"[-0.021223327467708848,-0.04806853609290529]",100.0,"[0.1461252216046734,-0.06832448191613058]",100.0,"[-0.023464680563884722,-0.17859186484057415]",100.0,"[-0.04159343307284508,0.036290055900735446]",100.0,"[0.0035756307605326306,0.03225252210472135]",100.0,"[-0.10759004584737392,-0.13584993478239712]",100.0,"[-0.12159033831810698,0.004311111725608739]",100.0,"[0.03431232166965314,0.08725478617178363]",100.0,"[0.02,0.02]",82.272,0.0,4.0,4.0,25.0,1.0,,,,,,,
,,,,,,,5658000ca9872d0011e1ba26,6842bb43330fb1b6d6acbbca,2025-06-06_05h56.49.380,shape_ratio,2024.1.5,Win32,165.0165017,6842b561977af9ba9b0f87ca,,,,,,,,,,,82.272,82.769,,,83.017,83.623,left,0.6,,,,,,,,,0.55,,,,,,82.769,83.017,83.623,"[-0.04540514882063539,-0.0013267009111191392]",100.0,"[0.14142104712595682,0.08725023644971569]",4.0,"[0.11670737435365151,-0.03820070408429512]",100.0,"[-0.14007717158898506,-0.12463554277153709]",4.0,"[-0.06174091222148497,0.074238832107781]",4.0,"[-0.17485855815626178,0.03475333384147292]",100.0,"[0.014086003192488782,0.14652246037342406]",4.0,"[0.07725841204130152,0.14137543381105752]",100.0,"[-0.06581201512334242,-0.10892912333410325]",4.0,"[0.054500602005803554,0.07650789854809761]",100.0,"[0.0030370335957684144,0.19956982621276295]",100.0,"[-0.09729579790008236,-0.1387379692583218]",4.0,"[-0.08804234170653517,0.008962466147834495]",100.0,"[-0.007720278153605416,0.03489067844897489]",100.0,"[0.17945957831766957,0.05264642514415536]",4.0,"[-0.008145588186588138,-0.07141191759614507]",4.0,"[-0.042738905947401144,-0.16421657100451229]",4.0,"[0.02528488314247839,-0.17194266502212874]",100.0,"[0.03484333952678706,-0.11967295721894267]",4.0,"[-0.15454591590152675,0.08699177667521668]",4.0,"[-0.12632451001068304,-0.06700647329786234]",100.0,"[0.17836444800504822,-0.08032140928767478]",100.0,"[0.1332041318212581,0.1303797574632043]",100.0,"[0.13170497269498738,0.011741434610079999]",100.0,"[0.18843403980855428,-0.01644688640669295]",100.0,"[-0.0016351519970656933,-0.141212400272036]",4.0,"[0.13735640052775258,-0.14331308334294518]",100.0,"[0.07743506093072494,-0.09320411454593878]",4.0,"[-0.044231551253904475,0.11278944390796135]",4.0,"[-0.12114353865878655,0.11527390918511878]",100.0,"[-0.16500738244336846,-0.04263367066027249]",100.0,"[-0.06998184499022209,-0.04797216302593155]",100.0,"[0.02,0.02]",84.721,0.0,5.0,5.0,82.0,1.0,,,,,,,
,,,,,,,5658000ca9872d0011e1ba26,6842bb43330fb1b6d6acbbca,2025-06-06_05h56.49.380,shape_ratio,2024.1.5,Win32,165.0165017,6842b561977af9ba9b0f87ca,,,,,,,,,,,84.721,85.217,,,85.466,85.921,left,0.45,,,,,,,,,0.1,,,,,,85.217,85.466,85.921,"[-0.1198152994953709,0.06986269683080883]",4.0,"[0.04458216795915768,-0.006349792239687701]",4.0,"[-0.05241636664056338,0.07270269925466613]",4.0,"[0.1579391588950704,-0.0016555224900656543]",4.0,"[-0.1665298755483004,-0.047778131730103555]",4.0,"[0.0884971632948936,0.14225589038132253]",4.0,"[0.04937387030000781,0.08078151086277999]",4.0,"[-0.08777048124025617,-0.09752870725229688]",4.0,"[-0.08038846628345263,-0.15541789801544664]",4.0,"[0.005484311582921875,-0.06416903219712534]",4.0,"[-0.03333758142142544,0.017909622434773505]",4.0,"[0.07618954559918159,-0.07052296577838052]",4.0,"[0.11996484943198908,-0.03810870488467502]",4.0,"[-0.09607287833973868,-0.029765786059743397]",4.0,"[-0.12690190422113926,-0.06980095738260107]",4.0,"[-0.030628705504553957,-0.03658194191033511]",4.0,"[-0.012111169576468723,0.06570597676644953]",4.0,"[0.11506874203670191,0.035143111079044956]",4.0,"[-0.09442760251046334,0.020526055561310003]",4.0,"[-0.046948770435900115,0.18606756793643017]",100.0,"[0.13390035466251887,-0.09682630425404415]",4.0,"[-0.07675881710354494,0.1397268220516147]",4.0,"[0.08155860306988387,-0.13761512057741876]",4.0,"[-0.004711978952964561,0.19606045107557332]",100.0,"[0.01983529380015437,-0.13961957864899913]",4.0,"[0.1903689869644924,-0.039208208227317014]",4.0,"[-0.11793331639957018,-0.1371067687534373]",4.0,"[-0.0015787990395657752,0.15118753730081158]",4.0,"[0.16401340357340777,0.05666551730092539]",4.0,"[-0.13846776798213842,0.1323910814100618]",4.0,"[-0.003437866285494477,-0.18535078978319566]",100.0,"[-0.18926349930254915,0.046722907830707344]",4.0,"[0.02,0.02]",87.018,0.0,6.0,6.0,188.0,1.0,,,,,,,
,,,,,,,5658000ca9872d0011e1ba26,6842bb43330fb1b6d6acbbca,2025-06-06_05h56.49.380,shape_ratio,2024.1.5,Win32,165.0165017,6842b561977af9ba9b0f87ca,,,,,,,,,,,87.018,87.509,,,87.757,88.212,right,0.452,,,,,,,,,0.9,,,,,,87.509,87.757,88.212,"[0.17934860134710348,-0.07147682362421266]",100.0,"[0.06324314816160059,0.14766313176751958]",100.0,"[0.13156067155105422,0.03195049004671591]",100.0,"[-0.08757234297814652,0.042799694964145124]",100.0,"[-0.1994427917672797,0.014393660836359526]",100.0,"[-0.04519334922901839,0.052035927827409977]",100.0,"[0.035447154088746324,-0.10164320738653602]",100.0,"[-0.014016898622232139,0.08676865975278872]",100.0,"[0.07327938314970604,0.07697857621634037]",100.0,"[-0.14482633546947604,-0.00395406983694896]",100.0,"[-0.04227100153534376,-0.14458184644582284]",100.0,"[0.11342850704918718,-0.08471173483152018]",100.0,"[-0.06850261707084682,-0.07819736008279014]",100.0,"[-0.07943125481666646,0.12717027907678347]",100.0,"[0.13568766719597564,0.12964264633328537]",100.0,"[-0.04700593590092917,-0.021900654739733585]",100.0,"[-0.08991153607628259,0.0018584724094290236]",100.0,"[-0.012730158166000425,0.1402679734574225]",4.0,"[0.10029608090574986,-0.14120942686215399]",100.0,"[-0.007241566503899806,-0.1945134432308571]",4.0,"[0.039705687007189454,0.044839035884117515]",4.0,"[0.038339726985944664,0.11618019876354084]",100.0,"[-0.14877643218519893,0.06799733896764107]",100.0,"[-0.1318213821298892,0.10438826372446476]",100.0,"[0.05076611333339731,-0.024341385270842612]",100.0,"[-0.12670628077671747,-0.06930867459430669]",100.0,"[-0.12481960746009563,0.14652642092494056]",100.0,"[0.005315769239958023,-0.1454851606193022]",100.0,"[0.04822385677217358,-0.15077603671233158]",100.0,"[-0.032079400017551905,-0.09960108463705697]",100.0,"[0.172485015623235,0.03927766945947327]",100.0,"[0.007817637670591626,-0.017899895844228166]",100.0,"[0.02,0.02]",89.308,0.0,7.0,7.0,0.0,1.0,,,,,,,
,,,,,,,5658000ca9872d0011e1ba26,6842bb43330fb1b6d6acbbca,2025-06-06_05h56.49.380,shape_ratio,2024.1.5,Win32,165.0165017,6842b561977af9ba9b0f87ca,,,,,,,,,,,89.309,89.805,,,90.055,90.533,left,0.474,,,,,,,,,0.1,,,,,,89.805,90.054,90.533,"[0.04780529599666668,0.11072925604338238]",4.0,"[-0.05367414343124534,0.016344805120508333]",4.0,"[-0.18930555097723706,0.031806615720649974]",4.0,"[0.03403347664181512,0.18822882015008066]",4.0,"[-0.0835640699805004,-0.1606301958739269]",4.0,"[-0.13920069443969932,-0.05181936198116802]",4.0,"[0.14484087861480527,-0.08409678533036304]",4.0,"[0.04178736124892142,-0.15380554068268731]",4.0,"[-0.019754395288186236,-0.11147246633944217]",4.0,"[0.032120540075315784,0.07271012852297644]",100.0,"[0.17107093380101349,-0.006959655207353005]",4.0,"[-0.014125350449499755,0.1834067390683304]",4.0,"[-0.12319181466324111,-0.14224731179545116]",4.0,"[-0.053631473470904086,-0.08835135643819186]",4.0,"[0.13633953137504454,0.0546973318132247]",4.0,"[0.1401103329978953,0.11957781406102493]",4.0,"[-0.08762715665638862,0.06433186314015138]",100.0,"[0.013160949724864862,-0.00403046640543211]",4.0,"[0.08925409828290089,-0.07597731928981373]",4.0,"[-0.02909509056884912,0.10172781342359047]",100.0,"[-0.03242111942667111,-0.17870266436901153]",4.0,"[0.0971978631220139,0.1401044571470196]",4.0,"[0.11496166967561205,0.005121090889630681]",4.0,"[0.0550694370012967,0.15046250608858586]",4.0,"[0.0659328744432393,0.03445102530865253]",4.0,"[-0.09377336694036326,-0.09282440880959654]",4.0,"[0.023035255244833505,-0.046344621969600444]",4.0,"[-0.17247208288762575,0.07776008053942263]",4.0,"[-0.08281727467868104,0.1097999809443054]",4.0,"[-0.055041306610459126,0.1506291584859518]",4.0,"[0.10262686593342125,-0.17001292249431627]",4.0,"[-0.10886828578822723,0.004384992359072843]",4.0,"[0.02,0.02]",91.629,0.0,8.0,8.0,206.0,1.0,,,,,,,
,,,,,,,5658000ca9872d0011e1ba26,6842bb43330fb1b6d6acbbca,2025-06-06_05h56.49.380,shape_ratio,2024.1.5,Win32,165.0165017,6842b561977af9ba9b0f87ca,,,,,,,,,,,91.629,92.127,,,92.376,92.945,left,0.564,,,,,,,,,0.1,,,,,,92.127,92.376,92.946,"[-0.044809368068122406,0.17452232023720843]",4.0,"[0.018863339673731893,-0.10094976442232333]",4.0,"[0.0018995270123325656,-0.16535600974500417]",4.0,"[-0.1755735382306965,0.08669151476285632]",4.0,"[0.00019307510323123133,-0.01788187964658702]",4.0,"[0.14274363244272076,-0.04078595021801945]",4.0,"[0.042329656758650545,0.15484894945286432]",4.0,"[0.13816524750633055,0.0827906427028359]",100.0,"[-0.021008152846270625,-0.07492987070078293]",4.0,"[0.07389562621032351,-0.06317322165949608]",4.0,"[-0.11706597337269482,-0.07186273707512722]",4.0,"[0.015401932124293999,0.07432567348390627]",4.0,"[-0.09483645336150756,0.0521390113838262]",4.0,"[-0.16396859136756167,-0.039929905808848504]",4.0,"[-0.08032160637685366,-0.1516743205675453]",4.0,"[-0.18870421571951743,-0.004967386072046893]",4.0,"[-0.028776190615008707,0.1298516227379071]",4.0,"[-0.14729328278701437,0.047764736749149446]",4.0,"[0.06762276554815876,-0.1477702077358992]",4.0,"[-0.08334044429453871,0.011350638079021546]",4.0,"[0.06507902105121083,-0.01827768899343578]",100.0,"[-0.045845781564767846,-0.13129321577755065]",4.0,"[0.19390830271192233,-0.021888866100757805]",4.0,"[-0.003018124117603975,0.17122878770629293]",4.0,"[0.07214968911374241,0.10895444282016774]",4.0,"[0.022186915818543054,0.032110406175487535]",100.0,"[0.09807275835641029,0.16374094480540508]",4.0,"[-0.12148676978188658,-0.0018584816703545724]",4.0,"[-0.10595459964336318,0.13959355263018283]",4.0,"[0.07152345000192709,-0.10775032997259128]",4.0,"[0.10975684004151146,0.04137559292060559]",4.0,"[0.14518400172539142,-0.13439651672513106]",4.0,"[0.02,0.02]",94.042,0.0,9.0,9.0,190.0,1.0,,,,,,,
,,,,,,,5658000ca9872d0011e1ba26,6842bb43330fb1b6d6acbbca,2025-06-06_05h56.49.380,shape_ratio,2024.1.5,Win32,165.0165017,6842b561977af9ba9b0f87ca,,,,,,,,,,,94.042,94.539,,,94.788,95.454,right,0.661,,,,,,,,,0.4,,,,,,94.539,94.788,95.454,"[-0.11891832887607826,-0.09024844374902835]",4.0,"[-0.1589618865362806,-0.026533956614144667]",4.0,"[-0.03864888572463532,0.08995013000930445]",100.0,"[0.06744649110712327,-0.01990440630754615]",100.0,"[-0.00012210407702559187,0.10435559635136467]",4.0,"[-0.009905899335833392,-0.1839656854883299]",100.0,"[0.10153846399630188,0.06942892051675303]",100.0,"[-0.12061178401130401,0.13528232941325252]",100.0,"[0.018702779731083818,-0.13971283323987144]",100.0,"[-0.015367278615569212,-0.055739890832736484]",4.0,"[0.04222020634646839,0.02707323242681073]",4.0,"[0.054431539306330774,-0.10629445933392315]",4.0,"[-0.0835219054617552,0.1547520719664411]",100.0,"[0.041490162265485964,0.19466817686243826]",100.0,"[-0.08567189223731402,-0.054127196126928685]",4.0,"[0.16857489610943116,0.09669909430523228]",4.0,"[0.04236169569157126,0.09077656425140616]",4.0,"[-0.07085292644603429,0.04305577122064684]",100.0,"[0.12558676036296168,0.028221601523333164]",100.0,"[0.06518309875726741,-0.1510362166389698]",4.0,"[0.13012088207505615,-0.05985618757816174]",4.0,"[-0.11625442899549657,-0.13790457292154704]",100.0,"[-0.04372437104351607,-0.14591956621177413]",4.0,"[-0.024800974073460304,-0.016680092112653488]",4.0,"[-0.08192539784020433,-0.012323801156360803]",100.0,"[0.13757227533242378,-0.11689839315539136]",4.0,"[-0.1906156605617607,0.016876442759311758]",4.0,"[-0.07727039071923278,-0.12017100604275745]",100.0,"[0.006948348691840263,0.14759398752817476]",4.0,"[0.12296214262476327,0.11423620338318416]",4.0,"[0.07225429260484299,0.11744222085538678]",4.0,"[0.18103540900504325,-0.027391296263154424]",4.0,"[0.02,0.02]",96.551,0.0,10.0,10.0,172.0,1.0,,,,,,,
,,,,,,,5658000ca9872d0011e1ba26,6842bb43330fb1b6d6acbbca,2025-06-06_05h56.49.380,shape_ratio,2024.1.5,Win32,165.0165017,6842b561977af9ba9b0f87ca,,,,,,,,,,,96.551,97.048,,,97.297,97.775,right,0.475,,,,,,,,,0.6,,,,,,97.048,97.297,97.775,"[-0.1377821950674797,-0.08058408056413409]",4.0,"[0.060540931039847236,0.08027197437892947]",100.0,"[0.11923795893278623,0.08579380204105819]",100.0,"[-0.06915584090166953,-0.022767820548956784]",4.0,"[-0.11095991984290397,-0.11154532726746363]",100.0,"[-0.07348147761071654,0.05759930693822123]",4.0,"[0.09936424701087587,-0.035681316206270824]",4.0,"[0.11206857634574353,0.009583752053275248]",100.0,"[-0.00797220089997386,0.17108985646762742]",100.0,"[0.14779052454722053,-0.09081902849966009]",4.0,"[0.07388948763312725,-0.09297803266857331]",4.0,"[0.11457886824720878,-0.13044243711503664]",4.0,"[-0.1893943921457482,0.023920079354879886]",100.0,"[0.06279145756119359,0.013844983276455735]",100.0,"[0.044975912362104124,0.1775738257005196]",100.0,"[-0.02460683510115203,0.003159235337440848]",100.0,"[-0.027992010816232885,-0.15496986242081146]",100.0,"[-0.16898465180359468,0.06748941188826885]",4.0,"[0.1839845498988471,-0.05023399189397445]",4.0,"[-0.13062773850795512,-0.034859176354930535]",4.0,"[0.16093908169738363,0.04243786425942358]",100.0,"[-0.0961329771936479,0.09486006452118309]",100.0,"[-0.047153581846437,-0.10622575235749403]",100.0,"[0.0929876248480105,0.1419824912803847]",100.0,"[-0.15507472821998938,0.11190585888708647]",4.0,"[-0.09784723299972971,-0.1583449185532847]",4.0,"[-0.028431116905919773,-0.058466387274590324]",100.0,"[-0.04278175693306446,0.11421756825675522]",4.0,"[0.05322055088021832,-0.04601163663625772]",100.0,"[0.019833053655632146,-0.10198539368684385]",100.0,"[0.17187173065620248,-0.0009942199465424115]",100.0,"[-0.07065653950969379,0.1454477356873195]",100.0,"[0.02,0.02]",98.872,0.0,11.0,11.0,48.0,1.0,,,,,,,
,,,,,,,5658000ca9872d0011e1ba26,6842bb43330fb1b6d6acbbca,2025-06-06_05h56.49.380,shape_ratio,2024.1.5,Win32,165.0165017,6842b561977af9ba9b0f87ca,,,,,,,,,,,98.872,99.369,,,99.618,100.351,left,0.73,,,,,,,,,0.5,,,,,,99.369,99.618,100.351,"[0.03163009714692006,-0.003507954370461814]",100.0,"[0.12488243527919451,0.14493231677680524]",100.0,"[-0.02900318775463682,-0.036668585457257784]",100.0,"[0.10150505586517568,0.06763410751280714]",100.0,"[0.18379649153053065,0.034943971268548035]",100.0,"[-0.004544562105779344,0.03772491515503071]",100.0,"[0.01764169902927818,-0.09943134021197525]",4.0,"[0.011876797144798766,0.15369611501764605]",4.0,"[-0.031212151243982304,0.070427248813225]",100.0,"[0.10241049817499971,-0.09321984069952725]",100.0,"[-0.10408283768959109,0.16540203978498333]",4.0,"[-0.07569228348292253,-0.03381292218629877]",4.0,"[-0.17035155473705127,-0.06143858009948067]",100.0,"[-0.011555797415517896,0.1980807391292921]",4.0,"[-0.12696931454678295,-0.030871648990723328]",4.0,"[0.09594754970211504,0.11378254507367172]",100.0,"[0.05450712898932691,0.15393528999418296]",100.0,"[-0.06366168729880009,-0.16806561644306164]",4.0,"[-0.07789991209986673,0.02770032333681539]",100.0,"[0.014732147680457986,0.10881273410646215]",100.0,"[0.04144008390207913,0.19373107795571443]",4.0,"[0.00705047977513031,-0.1445069296092501]",4.0,"[-0.057744326049822,0.1730227764916282]",4.0,"[-0.11853856344590777,0.08751238924131857]",4.0,"[0.12696559383222325,-0.13395590783393352]",4.0,"[0.10143197302007545,-0.040550956641109415]",4.0,"[0.14996327833135076,-0.021362293258240593]",100.0,"[-0.11070641572053276,-0.11923604612449765]",4.0,"[0.059236102142753405,-0.13380311039136186]",4.0,"[0.11752739823727061,0.01440855040790111]",100.0,"[-0.12353081003661165,0.03434164307078782]",100.0,"[0.14465722400207032,-0.08601354560923342]",4.0,"[0.02,0.02]",101.448,0.0,12.0,12.0,92.0,1.0,,,,,,,
,,,,,,,5658000ca9872d0011e1ba26,6842bb43330fb1b6d6acbbca,2025-06-06_05h56.49.380,shape_ratio,2024.1.5,Win32,165.0165017,6842b561977af9ba9b0f87ca,,,,,,,,,,,101.448,101.945,,,102.193,102.618,right,0.42,,,,,,,,,0.6,,,,,,101.945,102.193,102.618,"[-0.034338937067209696,0.07262135111804373]",100.0,"[-0.11438080102914369,0.07627599777142445]",4.0,"[0.14740782192225524,-0.1288221942225616]",4.0,"[-0.04173087712634325,0.18961946379910696]",4.0,"[-0.05289026871170858,-0.08893837630057612]",100.0,"[-0.10067387317728778,-0.12444438558111799]",4.0,"[0.12477348895732497,0.14822104110746076]",100.0,"[0.15021267871471233,-0.015544519206998472]",100.0,"[-0.11356352333795822,0.1451925879768837]",4.0,"[0.02260103811973451,0.15343198133056418]",4.0,"[0.07979772031920562,-0.16577461865603288]",100.0,"[-0.16553702348990157,-0.009517959053922534]",100.0,"[0.09529446302408705,0.06314516899850053]",100.0,"[0.05978479369042117,0.038564127768387406]",100.0,"[-0.15700174140254997,0.08842127317650904]",4.0,"[0.17812305669344727,-0.08418732951900831]",4.0,"[0.00917484500644374,-0.16544242611899648]",4.0,"[-0.1066940419486528,-0.004904729674025788]",4.0,"[-0.007021419164177807,-0.12427306385697283]",100.0,"[-0.009566689321325919,-0.08156957538787085]",100.0,"[0.08669509544316983,0.12898441306895142]",4.0,"[0.06871239000673801,-0.06077343436530211]",100.0,"[-0.15407727530702692,-0.08030505285029003]",100.0,"[-0.047336688863842374,-0.005186965427392648]",100.0,"[-0.02630211195021784,0.12105998922253819]",100.0,"[0.07888701945722394,-0.1018781037057899]",4.0,"[-0.07272318204771415,0.025883034162102227]",100.0,"[-0.19159896269589272,0.038114489136266465]",100.0,"[0.022947407107524964,-0.020662121222053985]",100.0,"[0.10321058261250968,-0.03236458300245569]",4.0,"[0.17261478484969525,0.05880124217515358]",100.0,"[-0.06940310800577308,0.1347831819611317]",100.0,"[0.02,0.02]",103.715,0.0,13.0,13.0,42.0,1.0,,,,,,,
,,,,,,,5658000ca9872d0011e1ba26,6842bb43330fb1b6d6acbbca,2025-06-06_05h56.49.380,shape_ratio,2024.1.5,Win32,165.0165017,6842b561977af9ba9b0f87ca,,,,,,,,,,,103.715,104.212,,,104.46,104.83,left,0.367,,,,,,,,,0.1,,,,,,104.212,104.46,104.83,"[0.16105949023745633,-0.07077288410339949]",4.0,"[0.15470617288858732,-0.006502801033702846]",4.0,"[-0.12612131841569396,-0.1089926516414288]",4.0,"[0.10178028123299362,-0.005959144354564078]",4.0,"[-0.003270997374597828,0.11568117625334261]",4.0,"[-0.021174343887307493,-0.04505237710744711]",4.0,"[-0.11709514337669669,-0.02827676531609559]",4.0,"[0.16014131805272,0.08788229601234582]",4.0,"[0.03512612303018681,0.17954171645641198]",4.0,"[0.050212602174630694,-0.023737687370652294]",4.0,"[-0.049925049517061594,-0.09653988492547969]",4.0,"[0.1204442361107726,0.13015891595750825]",4.0,"[-0.15291311022804177,0.025952869016297248]",4.0,"[-0.10481067293885543,0.1084725495449993]",4.0,"[0.05916374386470272,-0.0803369166041107]",4.0,"[0.03293210032453309,0.02081998194104104]",4.0,"[-0.07658008189632085,-0.040650853704153465]",4.0,"[-0.04390678132561857,-0.180313756122698]",4.0,"[0.10822367268328428,0.07847731037719911]",100.0,"[0.1077172659159095,-0.14428777074513943]",4.0,"[0.06795951470599805,0.15315091453256516]",4.0,"[-0.05535701707187208,0.10369312164093747]",4.0,"[0.10625707963042715,-0.1033752643910424]",4.0,"[0.06865361442781014,-0.18094818553063421]",100.0,"[0.043456806994911126,-0.11843992238115995]",4.0,"[-0.10460468088464871,0.055497384715160726]",100.0,"[-0.0681740501312737,-0.1417968446673701]",4.0,"[-0.04520387418888027,0.17603422180889566]",4.0,"[-0.0650271127491294,0.03856668586078019]",4.0,"[0.12787849239323962,0.0423826375550369]",4.0,"[0.05150514867048357,0.07214606187002356]",4.0,"[0.02621645483561109,-0.16784179641726174]",4.0,"[0.02,0.02]",105.927,0.0,14.0,14.0,192.0,1.0,,,,,,,
,,,,,,,5658000ca9872d0011e1ba26,6842bb43330fb1b6d6acbbca,2025-06-06_05h56.49.380,shape_ratio,2024.1.5,Win32,165.0165017,6842b561977af9ba9b0f87ca,,,,,,,,,,,105.927,106.424,,,106.672,107.169,left,0.491,,,,,,,,,0.45,,,,,,106.424,106.672,107.17,"[-0.19363651583202657,0.0004525604683286603]",4.0,"[0.04389529374325425,-0.06404624372849126]",100.0,"[0.1433564847827174,-0.029269810794591455]",100.0,"[-0.017460774398460742,-0.15896537849550268]",4.0,"[0.048961704038523214,0.0475362456168903]",4.0,"[0.0980194330012246,-0.013428106228706882]",4.0,"[-0.13144576948076306,-0.06453840597852052]",4.0,"[-0.10066383527047758,0.14278655292013007]",4.0,"[-0.07074881149975983,-0.147839065392152]",4.0,"[-0.056435825309426944,0.03273355330677805]",4.0,"[-0.12076779169413787,-0.15505008024051442]",100.0,"[-0.16929038547867006,-0.09560345863317708]",100.0,"[0.07310331797765039,-0.12147479498601998]",100.0,"[-0.10873400028932746,0.10187854002684844]",100.0,"[0.027154009196921326,0.15996414860174957]",100.0,"[0.021330785801734378,-0.13247097863317397]",4.0,"[-0.16926566081955546,0.06261628759853564]",100.0,"[-0.03791565637180815,0.1589752090764058]",100.0,"[-0.04738531981369804,0.11545933754963462]",4.0,"[0.04643393599731744,0.09487446219190748]",4.0,"[0.0959883908145037,0.15946397131089893]",100.0,"[-0.005610860490676809,0.06324807932030388]",100.0,"[-0.1384451848427954,-0.01632290639947184]",4.0,"[-0.09585339520467404,-0.01932611981811696]",100.0,"[-0.00454668794763368,-0.075767616060751]",4.0,"[0.15331298313226982,-0.09996724917425714]",4.0,"[-0.009402932640834454,-0.008985182135996089]",4.0,"[0.17139532834849766,0.0723135354914677]",100.0,"[0.13273905160119343,0.1324433616163655]",4.0,"[0.11484806338609076,0.03878711937984618]",100.0,"[0.12272945829134127,-0.14469020865401588]",4.0,"[-0.11441842269621298,0.05903375578564893]",4.0,"[0.02,0.02]",108.267,0.0,15.0,15.0,128.0,1.0,,,,,,,
,,,,,,,5658000ca9872d0011e1ba26,6842bb43330fb1b6d6acbbca,2025-06-06_05h56.49.380,shape_ratio,2024.1.5,Win32,165.0165017,6842b561977af9ba9b0f87ca,,,,,,,,,,,108.267,108.763,,,109.012,109.588,right,0.574,,,,,,,,,0.4,,,,,,108.763,109.012,109.588,"[0.19379274677283126,-0.032586277851104635]",4.0,"[-0.027837222297830762,0.12507264097119927]",100.0,"[-0.09635453304267041,0.15227705844497652]",100.0,"[0.046251281254063074,-0.01274951405777071]",100.0,"[-0.18024678845175257,-0.05243313972802355]",4.0,"[0.1361103581110844,0.1372158885634544]",4.0,"[-0.09092141425097688,0.10106306431207009]",4.0,"[-0.0939921410961263,-0.010453627577375644]",4.0,"[0.1022403333015849,-0.03782931453522342]",100.0,"[-0.11682656480262577,0.03864725395110121]",100.0,"[0.011953075855856688,-0.12840148342289343]",100.0,"[-0.12236216082812199,-0.06485992893827029]",4.0,"[-0.10285027395539147,-0.12763408170279192]",100.0,"[-0.1489852630982661,0.0711250163799881]",100.0,"[0.0016933993415774173,0.014160552281612273]",4.0,"[-0.01938046874268779,-0.028132328349125223]",4.0,"[-0.03378977131701313,-0.1513808697291415]",4.0,"[0.07256178694039288,0.15390857710803937]",100.0,"[-0.008299422058014021,0.0654368772290224]",4.0,"[0.07552131767523244,-0.1447669902106124]",4.0,"[-0.1645101654632624,0.0076738605850734465]",4.0,"[0.051790902181439044,0.0799106404198492]",4.0,"[0.12713400043126574,-0.12437924021865579]",4.0,"[0.14912135681664923,0.0921158788132881]",4.0,"[0.14345494067175124,0.016600520701523427]",4.0,"[-0.01707825092082929,-0.07060606644202949]",100.0,"[0.05895442609027926,-0.06849518180351037]",100.0,"[-0.03168770768285097,0.17232486745088763]",4.0,"[0.1630015659363852,-0.07878086250672411]",100.0,"[0.032915459678036475,0.16208213862081744]",4.0,"[0.11342896793706915,-0.16231970709101126]",4.0,"[-0.04510863143041592,0.003241604065573848]",100.0,"[0.02,0.02]",110.685,0.0,16.0,16.0,173.0,1.0,,,,,,,
,,,,,,,5658000ca9872d0011e1ba26,6842bb43330fb1b6d6acbbca,2025-06-06_05h56.49.380,shape_ratio,2024.1.5,Win32,165.0165017,6842b561977af9ba9b0f87ca,,,,,,,,,,,110.685,111.182,,,111.43,112.078,left,0.645,,,,,,,,,0.55,,,,,,111.182,111.43,112.078,"[-0.11243709715946963,0.00544152750775147]",4.0,"[0.1573762391886133,0.07519480200301196]",100.0,"[0.07520520961699598,-0.1072998397992466]",100.0,"[-0.03371380569087327,0.13992543319261155]",100.0,"[-0.001971443355775264,0.077314200710949]",100.0,"[-0.1250423105796122,0.14616301954481387]",4.0,"[-0.04297228442948575,0.0789390954795698]",100.0,"[-0.03193419560867185,-0.0063431813704773]",4.0,"[0.06397138871937755,-0.04876870545039636]",100.0,"[-0.04595619858374839,-0.06259348744309083]",100.0,"[0.025999617211624568,-0.06530527727585264]",4.0,"[-0.16990628416039774,0.019357133866705057]",100.0,"[0.18809101082910332,-0.003955331417573709]",4.0,"[0.12452199162891035,0.14987673197515156]",100.0,"[0.10304275218820962,-0.0304834703003737]",100.0,"[-0.11767657709714081,0.0665722588962627]",4.0,"[-0.06980997489395052,0.021605600629748267]",100.0,"[0.1471038580706092,-0.04101413588043458]",4.0,"[-0.1235148126238195,-0.0633161889372612]",4.0,"[-0.08733771207593835,-0.09100260514145898]",100.0,"[0.007422208143854646,-0.11710349162572302]",100.0,"[-0.027309227832511298,-0.13749781628021215]",100.0,"[-0.16796034548111585,-0.03373387794713356]",100.0,"[0.01688973635604468,-0.19389457273816105]",100.0,"[-0.11823069739200681,-0.1260118978121466]",100.0,"[0.07548384425846656,-0.000038647994143150354]",4.0,"[0.08498352490934517,0.17714927826714688]",4.0,"[0.09212527349765506,0.08507953869162126]",100.0,"[0.015264253440500353,0.14803504064111953]",4.0,"[0.058881605452558584,0.058596666951920895]",4.0,"[-0.028578059834425563,-0.1898116792768799]",4.0,"[0.053934236757370156,0.10211873773915982]",4.0,"[0.02,0.02]",113.176,0.0,17.0,17.0,75.0,1.0,,,,,,,
,,,,,,,5658000ca9872d0011e1ba26,6842bb43330fb1b6d6acbbca,2025-06-06_05h56.49.380,shape_ratio,2024.1.5,Win32,165.0165017,6842b561977af9ba9b0f87ca,,,,,,,,,,,113.176,113.673,,,113.921,114.63,right,0.704,,,,,,,,,0.6,,,,,,113.673,113.921,114.63,"[-0.07258525817720447,0.09033009017725079]",100.0,"[-0.08377889401035828,-0.009379798839018757]",100.0,"[-0.17115533414546608,0.021584396759134063]",100.0,"[0.03728480713043838,0.04287574670559486]",100.0,"[-0.01621005420608458,0.1977143233208051]",4.0,"[-0.01052584192204106,-0.050965773959315716]",100.0,"[-0.07674153563523498,0.16299216137788639]",100.0,"[0.10025635231423848,-0.13679930041828092]",4.0,"[-0.0470046511240464,-0.15851742561847393]",4.0,"[0.15771052291696203,-0.0805060294519043]",100.0,"[0.0837595791888566,-0.17576807341169437]",100.0,"[-0.13225454533604197,-0.02235603359566468]",4.0,"[0.1596149982855197,0.004713876636500691]",100.0,"[0.03378871095983222,-0.03802431193734138]",100.0,"[-0.06071724067886937,-0.0517227345357624]",100.0,"[0.1268291371725566,0.1094920603541315]",100.0,"[0.007141908833480933,-0.0023174120482348758]",4.0,"[-0.14736532062177035,0.09518997706776472]",100.0,"[0.023325857181394946,0.1131679011700829]",100.0,"[-0.03183101921882786,-0.09365854149468558]",4.0,"[-0.014645482725002809,0.0976206099350408]",100.0,"[0.11578059064436017,-0.0562710608283097]",4.0,"[0.021360380096661656,-0.15867887094954397]",100.0,"[-0.025767480374812045,0.0445703412510763]",100.0,"[0.16867268465125113,0.04598527452148206]",4.0,"[0.013919336479850416,0.16957053496340505]",4.0,"[-0.11711744925854646,0.14861776692826945]",4.0,"[-0.11312265041338086,-0.07635708397934339]",4.0,"[0.07574044907583512,0.014842422292772807]",4.0,"[-0.15339778622767433,-0.05739669755633288]",100.0,"[0.07664091611651366,-0.08885667549721035]",4.0,"[-0.02496913555070253,0.15310320360878987]",100.0,"[0.02,0.02]",115.727,0.0,18.0,18.0,56.0,1.0,,,,,,,
,,,,,,,5658000ca9872d0011e1ba26,6842bb43330fb1b6d6acbbca,2025-06-06_05h56.49.380,shape_ratio,2024.1.5,Win32,165.0165017,6842b561977af9ba9b0f87ca,,,,,,,,,,,115.728,116.224,,,116.473,117.085,left,0.607,,,,,,,,,0.4,,,,,,116.224,116.473,117.085,"[-0.07914426751850404,0.009643188423452076]",100.0,"[-0.13058640209846772,0.027686847402699985]",4.0,"[0.029027456428737625,-0.09824870290735449]",100.0,"[-0.05579035498404045,-0.12056434458340488]",100.0,"[-0.008340287691940639,0.09807689910130685]",4.0,"[-0.15653180234845246,0.08168286522941748]",100.0,"[0.02158794015565567,0.003006699178310825]",4.0,"[0.11932670724031672,0.021125962393439265]",100.0,"[0.159230450146969,0.014075987606408281]",4.0,"[0.05610416490870338,-0.03555222931553329]",4.0,"[-0.1145938107764965,-0.027844284286744223]",4.0,"[-0.01942754152361497,0.15144589993323304]",100.0,"[0.09794064804784874,0.16961388640482333]",4.0,"[0.14541114769695618,-0.028602749012827625]",100.0,"[-0.0019111580504790342,-0.12662365873463577]",4.0,"[0.17625224964980826,-0.062362178794792056]",4.0,"[-0.11556064587591669,0.10365860668275567]",100.0,"[0.07463587563367187,-0.08997164671013651]",4.0,"[0.09601017872772397,-0.17461708127212114]",4.0,"[-0.10273404101638342,-0.16420437410531744]",4.0,"[-0.08444006460099819,0.1812913342743573]",4.0,"[-0.0822035907943516,0.05880718075925642]",4.0,"[0.1316273456903451,-0.13332929745449076]",4.0,"[-0.031632312400774014,-0.06837794086852338]",4.0,"[0.09267612543432704,0.10088455443885247]",100.0,"[0.0535920782488784,-0.17965177229612836]",100.0,"[-0.0804951028087096,-0.08502124748193447]",4.0,"[0.14921141916271435,0.06975684809325844]",4.0,"[-0.18073388606228502,-0.04256466361768114]",100.0,"[-0.02668970018330305,0.03336335653622527]",100.0,"[0.023622103319595817,0.059003910328497354]",100.0,"[0.020718250112181178,0.15419827604826253]",4.0,"[0.02,0.02]",118.182,0.0,19.0,19.0,169.0,1.0,,,,,,,
,,,,,,,5658000ca9872d0011e1ba26,6842bb43330fb1b6d6acbbca,2025-06-06_05h56.49.380,shape_ratio,2024.1.5,Win32,165.0165017,6842b561977af9ba9b0f87ca,,,,,,,,,,,118.182,118.678,,,118.927,119.66,right,0.729,,,,,,,,,0.4,,,,,,118.678,118.927,119.66,"[-0.11307775066261928,0.04264772368987198]",100.0,"[0.004489130858437129,0.16523068284978507]",100.0,"[0.08952287950545394,0.01198307012341408]",100.0,"[0.1504294833448918,0.10024240648992247]",4.0,"[-0.0024836901884740343,-0.11154311585277935]",4.0,"[0.15611985871123193,0.059150946035410046]",4.0,"[0.07866571915508414,-0.15307620313095294]",4.0,"[-0.054990239396820274,0.08030820845178754]",4.0,"[-0.10930539103988975,-0.04097248998071986]",4.0,"[0.019236188634174013,0.002509638643031072]",100.0,"[-0.01680397371543672,-0.03145222818616718]",100.0,"[-0.18533069333958718,0.05597352140012512]",100.0,"[-0.12087726951255949,0.11907666635174163]",100.0,"[-0.08949071650027333,0.1724713523399458]",4.0,"[-0.1481722989163443,-0.02180977156411554]",4.0,"[0.04494111474629921,0.19483364565240543]",4.0,"[0.13763798807831368,-0.07623283303100349]",100.0,"[-0.054710909682391735,0.1316172550679289]",4.0,"[0.1801458423473383,-0.08670620626048023]",100.0,"[0.08484697861685082,0.09216761317977255]",4.0,"[0.03626186822660806,-0.0696148454466657]",100.0,"[-0.18517694861189526,-0.050856293369244965]",100.0,"[-0.04667602632872904,-0.06265854015814096]",4.0,"[0.07084075814110931,-0.03648476658461831]",4.0,"[0.06279992564626237,0.04886675476105362]",4.0,"[-0.07395339341841302,0.007096004482938595]",100.0,"[-0.10589591674040326,-0.10462546715403868]",4.0,"[-0.02868389116897018,-0.1905636261366116]",4.0,"[0.153599808688742,0.010447895030919401]",4.0,"[-0.14560319827874135,-0.07259240638896347]",100.0,"[-0.10792746171877693,-0.16032387560632158]",4.0,"[0.0068745238935297,0.08928522328886491]",4.0,"[0.02,0.02]",120.758,0.0,20.0,20.0,153.0,1.0,,,,,,,
,,,,,,,5658000ca9872d0011e1ba26,6842bb43330fb1b6d6acbbca,2025-06-06_05h56.49.380,shape_ratio,2024.1.5,Win32,165.0165017,6842b561977af9ba9b0f87ca,,,,,,,,,,,120.758,121.254,,,121.503,122.0,right,0.491,,,,,,,,,0.9,,,,,,121.254,121.503,122.0,"[-0.14641230217722245,0.04671305332977192]",100.0,"[-0.02306318298209149,0.12819580239826464]",100.0,"[-0.05023645237157046,-0.1490966190249773]",100.0,"[0.17388208354907597,0.07001345984248847]",100.0,"[0.04144078553414189,0.1443871033094489]",100.0,"[0.11229718589970153,-0.10779330725406358]",100.0,"[-0.053843748828622764,0.04614844059764776]",100.0,"[-0.15792401278948767,0.09786136096730608]",100.0,"[0.15410938238127844,-0.10325071602303325]",100.0,"[0.1310184952338215,0.08077887923902696]",4.0,"[0.04649977938768621,-0.047367808143257466]",100.0,"[0.0070331210737471775,0.17292360093464368]",4.0,"[-0.15051850128966787,-0.05391339660760931]",100.0,"[-0.0024035746751608585,-0.07784881454275519]",100.0,"[0.02667041652506736,0.02418671856490471]",100.0,"[0.022575988876158935,-0.13687968121608793]",100.0,"[0.19920800312488016,0.00617396869567562]",100.0,"[-0.1017345986096054,0.045805563334925616]",100.0,"[-0.10666368633325925,0.15591209872795497]",4.0,"[0.14664828256133985,-0.008998932389360175]",100.0,"[-0.08662396419066695,0.1048301195190242]",100.0,"[0.07944046599384413,0.18347578818558594]",100.0,"[-0.1123953060261817,-0.11282333475756351]",100.0,"[-0.10758890437870136,0.005622234381531977]",100.0,"[-0.12346318740699523,-0.15590142651066463]",100.0,"[-0.04837107664387082,-0.05979271595851972]",100.0,"[0.08992012245097863,0.08915108864109805]",100.0,"[0.0033835616744002546,-0.19050388720900593]",100.0,"[-0.15122494249844856,-0.12650142503296716]",100.0,"[-0.17184679409734938,-0.01929756852193776]",100.0,"[0.08249266310620727,-0.021503316434258745]",100.0,"[-0.0017809348060871591,-0.020799176952418733]",100.0,"[0.02,0.02]",123.097,0.0,21.0,21.0,26.0,1.0,,,,,,,
,,,,,,,5658000ca9872d0011e1ba26,6842bb43330fb1b6d6acbbca,2025-06-06_05h56.49.380,shape_ratio,2024.1.5,Win32,165.0165017,6842b561977af9ba9b0f87ca,,,,,,,,,,,123.098,123.594,,,123.843,124.473,right,0.624,,,,,,,,,0.5,,,,,,123.595,123.843,124.473,"[0.0009219071950756003,0.07951087713208659]",4.0,"[-0.07514233675053261,0.021604066393287675]",4.0,"[0.040533380319993956,-0.06579910767908875]",100.0,"[-0.07152733502066416,0.07329026059427098]",100.0,"[-0.05698430772709285,-0.17520495394252972]",4.0,"[-0.16977151211234753,0.05210293784670536]",4.0,"[0.0624858872282857,0.07135854594337276]",100.0,"[-0.12599440304294215,0.019899112311762383]",4.0,"[-0.008495111381757426,-0.13427498059903062]",4.0,"[0.14290231292074987,0.12006763991496465]",4.0,"[-0.19112122062786163,-0.050759414041009275]",100.0,"[0.09792398269639092,-0.15171541872303973]",100.0,"[-0.10552499205277653,-0.03846489320611708]",4.0,"[-0.023468593841799838,0.18826447618666178]",4.0,"[0.0363814967263561,0.009662567137261593]",100.0,"[0.03343601768456621,-0.12978077828303727]",4.0,"[-0.05287123041372054,-0.0682023376076123]",100.0,"[-0.16140553052305973,-0.019093694690424528]",4.0,"[-0.08734207135828523,-0.1317243053843441]",100.0,"[0.09972534688521807,0.040787557998947184]",100.0,"[0.08619081137042191,-0.07132369721093261]",100.0,"[-0.041411959623101124,0.10502821027292436]",100.0,"[0.17680167936634789,-0.020753446020115335]",100.0,"[0.127217226692403,-0.06704661357907173]",4.0,"[0.03346091021366391,-0.1790411055195513]",4.0,"[-0.15706484543943566,0.12293198799031371]",100.0,"[-0.143147131555246,-0.13588077932909542]",4.0,"[0.15691030899472613,0.06616969990721958]",4.0,"[0.07628960559102459,0.17425230189668836]",100.0,"[-0.05440122397789858,0.14805992393411094]",100.0,"[-0.1492162863207599,-0.07637892912238677]",4.0,"[0.06488656802413612,0.111631033199239]",100.0,"[0.02,0.02]",125.57,0.0,22.0,22.0,111.0,1.0,,,,,,,
,,,,,,,5658000ca9872d0011e1ba26,6842bb43330fb1b6d6acbbca,2025-06-06_05h56.49.380,shape_ratio,2024.1.5,Win32,165.0165017,6842b561977af9ba9b0f87ca,,,,,,,,,,,125.57,126.067,,,126.316,127.024,left,0.704,,,,,,,,,0.45,,,,,,126.067,126.316,127.024,"[0.08714396165347606,0.08255205149663489]",100.0,"[0.04579115907478575,-0.006632687753094153]",4.0,"[0.10832529760052742,-0.15215132319207747]",4.0,"[-0.02910018953782985,-0.183587942418163]",4.0,"[-0.1480914083016706,0.09726830892709674]",100.0,"[0.015541467599339845,0.08461865876944345]",4.0,"[-0.09899842068794952,0.12086623311369686]",4.0,"[-0.009037552752646229,-0.07883013129385297]",4.0,"[0.01492325817502077,-0.15082143280905547]",4.0,"[-0.08856898586747841,-0.14632022354436441]",100.0,"[0.0096762418986802,0.17677244269969825]",4.0,"[-0.1301829188340603,-0.05729772057539713]",100.0,"[0.10655137351501599,-0.02262831604031596]",4.0,"[-0.09517110797096298,0.07936436618114778]",4.0,"[-0.1748260279125719,0.042176119660484804]",100.0,"[-0.01942314526452958,0.1408883842590876]",100.0,"[0.004836881238747645,0.011713935235721973]",4.0,"[0.15156225969651,0.1075782625329674]",100.0,"[0.07799900040056369,0.1747814666035129]",100.0,"[0.04506201252546391,-0.18265638752611804]",100.0,"[0.08059239655257228,-0.0711065874565081]",100.0,"[-0.11256655565275903,0.017372581992158437]",4.0,"[0.15967270885222587,-0.013251708666266886]",4.0,"[0.14755964831939364,-0.09762985236157351]",4.0,"[-0.07623115479851886,-0.05885566660460196]",4.0,"[-0.0674655470219895,0.14661961223560627]",100.0,"[-0.05822387032292724,0.18705170392219644]",100.0,"[0.13400811828524364,0.06252160776728324]",4.0,"[-0.10650690860880878,0.16090998497678763]",100.0,"[-0.1524179155786245,-0.015220746133714913]",100.0,"[-0.15602062706438502,-0.12202699002881874]",4.0,"[0.047552268453485355,0.04640425758533315]",4.0,"[0.02,0.02]",128.122,0.0,23.0,23.0,136.0,1.0,,,,,,,
,,,,,,,5658000ca9872d0011e1ba26,6842bb43330fb1b6d6acbbca,2025-06-06_05h56.49.380,shape_ratio,2024.1.5,Win32,165.0165017,6842b561977af9ba9b0f87ca,,,,,,,,,,,128.122,128.618,,,128.867,129.4,left,0.529,,,,,,,,,0.45,,,,,,128.618,128.867,129.4,"[0.0509896030419519,0.09510803522188004]",100.0,"[0.0394981140464338,-0.05872952457880245]",4.0,"[-0.08450243151542783,-0.009716892733591156]",4.0,"[-0.06784488418481782,0.09030369437527315]",100.0,"[-0.16348920433764041,-0.06124822666726636]",100.0,"[0.10688906472797274,-0.12908642264353126]",4.0,"[-0.0412555557312994,0.16030920666249496]",4.0,"[-0.012530063273215453,0.19306506844699686]",4.0,"[-0.15902578743733936,0.08175753996984836]",100.0,"[0.11305278930137926,-0.08401404127215803]",4.0,"[0.13486454496122846,0.09642663691067277]",4.0,"[0.01366134079742219,0.041000149272635386]",100.0,"[0.1494098234883792,0.030618464167674334]",100.0,"[-0.18056163246918225,-0.008672379047683457]",100.0,"[-0.11014909598653777,-0.07313087933007784]",4.0,"[0.06666001296564453,-0.13815316162319685]",4.0,"[-0.1502533733141187,-0.11468194143080132]",4.0,"[0.0065773797829111,-0.16108286053221024]",100.0,"[0.0928782329147761,-0.03956213244042904]",100.0,"[-0.028404194894858334,0.10445191037652683]",4.0,"[0.1506167978300335,-0.10272402115941055]",4.0,"[-0.10664304526386711,0.1448153075678829]",4.0,"[-0.128874525315022,-0.0006671942151760728]",100.0,"[-0.056098472280734925,-0.16175954932295925]",4.0,"[0.002186201632045263,0.0006901425611596423]",4.0,"[-0.05927813177128529,-0.0882479428177905]",100.0,"[-0.11804588808928587,-0.1464227949007973]",4.0,"[0.08731905579055611,0.1609341582036981]",100.0,"[0.16608061967036702,-0.033254045385644714]",4.0,"[0.0018752467597540358,0.14293102710384345]",100.0,"[-0.02954806403097035,0.06173143589173723]",100.0,"[0.03243305754507993,-0.09888184477783889]",4.0,"[0.02,0.02]",130.503,0.0,24.0,24.0,124.0,1.0,,,,,,,
,,,,,,,5658000ca9872d0011e1ba26,6842bb43330fb1b6d6acbbca,2025-06-06_05h56.49.380,shape_ratio,2024.1.5,Win32,165.0165017,6842b561977af9ba9b0f87ca,,,,,,,,,,,130.503,131.001,,,131.249,131.946,right,0.694,,,,,,,,,0.55,,,,,,131.001,131.249,131.946,"[-0.003077839420880595,0.07428457949713163]",100.0,"[-0.04998929517326902,-0.17315797343756462]",100.0,"[0.1103134135409633,-0.11885002956346907]",4.0,"[-0.053126588220449494,-0.011293745807819057]",100.0,"[-0.13350598681748116,0.13577156730601145]",4.0,"[-0.10293875422072879,0.061280023845569784]",100.0,"[-0.07811920395259665,0.1446308588371679]",4.0,"[-0.005438417150212085,-0.066340337313641]",100.0,"[0.004446899204643672,0.17869076023861433]",4.0,"[-0.15700553463571626,0.05539840003111798]",100.0,"[-0.16808678933311463,-0.02752352170496074]",4.0,"[-0.03940664156934766,-0.09426991278679236]",100.0,"[0.12343583190673156,0.12243425003776244]",100.0,"[-0.10289934663454262,-0.055008534940687345]",100.0,"[0.024655455535630172,0.13305734574085915]",100.0,"[-0.12497102652603366,-0.13176464237009158]",4.0,"[-0.1021339937501806,-0.002556544526422176]",4.0,"[0.06704620481569808,-0.09611259849402193]",100.0,"[-0.09025181321841959,-0.09330765224028167]",100.0,"[0.05465400499502323,-0.03100914235028784]",4.0,"[0.16247326504348686,0.11060254255667354]",100.0,"[0.011621845075782615,-0.15211307248274916]",100.0,"[-0.024828072426460943,0.14653590615317869]",100.0,"[0.14253297007169072,-0.06945987606468736]",4.0,"[0.06557135007537049,0.028450610313870247]",100.0,"[0.06157734245586182,-0.14782345255337673]",100.0,"[-0.04566672257022289,0.08315473653929631]",4.0,"[-0.1001816971221508,0.10271913176266578]",4.0,"[0.19208577913454902,0.006414276983325851]",4.0,"[0.10129093620163052,0.0048522209441756595]",4.0,"[0.10170103269547041,-0.07326655018281174]",100.0,"[0.12670794237591443,0.0582953239802387]",4.0,"[0.02,0.02]",133.042,0.0,25.0,25.0,79.0,1.0,,,,,,,
,,,,,,,5658000ca9872d0011e1ba26,6842bb43330fb1b6d6acbbca,2025-06-06_05h56.49.380,shape_ratio,2024.1.5,Win32,165.0165017,6842b561977af9ba9b0f87ca,,,,,,,,,,,133.043,133.539,,,133.788,134.352,right,0.558,,,,,,,,,0.9,,,,,,133.539,133.788,134.352,"[0.14282761399757016,-0.07567066880522362]",100.0,"[-0.04328492767964166,0.12028687030781289]",100.0,"[-0.1668199388789252,-0.0817017086835245]",100.0,"[0.18310289834389518,-0.055273054816086374]",100.0,"[-0.022896160217187562,-0.1726066845518862]",100.0,"[0.11335453325455694,-0.16108549262157615]",100.0,"[-0.126037092084938,-0.07281336193660626]",100.0,"[0.07945558654978403,-0.004147820455810937]",100.0,"[0.06282378376506022,0.06841223689439657]",100.0,"[0.18317653437921655,0.060552168033159284]",100.0,"[0.024123136362667826,0.1272855139456509]",100.0,"[-0.001916609162045075,-0.0354925367144478]",100.0,"[0.09033899502698987,0.1145760804489965]",100.0,"[0.0011551751300779758,0.0705312253137189]",100.0,"[-0.09109680077832569,-0.16940206422627732]",100.0,"[-0.14234511903365932,0.123693060400047]",4.0,"[0.05571344980125984,0.1724075783222277]",100.0,"[0.13803563504817132,-0.12279922472245995]",100.0,"[0.04973320653266345,-0.032250631213215954]",100.0,"[-0.10433621257624832,0.14752686164632162]",100.0,"[-0.11679134456105059,-0.12047338426825506]",100.0,"[0.12915801168374835,0.10038348843969626]",100.0,"[-0.061318243016361,0.17240327260015784]",100.0,"[0.014136018860017236,0.02941809617023599]",100.0,"[-0.11558220433685423,0.01435103730441721]",100.0,"[0.015626550737196838,0.17523786570773825]",100.0,"[0.0018524951984444948,-0.12594185045398745]",100.0,"[0.13855777578252218,-0.013094482678400863]",100.0,"[-0.11013287753666019,0.09830711926133852]",100.0,"[-0.11369005902928807,0.05510109653169512]",4.0,"[0.07731868513636977,-0.07501991350728307]",4.0,"[-0.03647109730648241,0.03196834556466569]",100.0,"[0.02,0.02]",135.448,0.0,26.0,26.0,29.0,1.0,,,,,,,
,,,,,,,5658000ca9872d0011e1ba26,6842bb43330fb1b6d6acbbca,2025-06-06_05h56.49.380,shape_ratio,2024.1.5,Win32,165.0165017,6842b561977af9ba9b0f87ca,,,,,,,,,,,135.449,135.946,,,136.195,136.618,left,0.422,,,,,,,,,0.1,,,,,,135.946,136.195,136.618,"[0.11780681232961866,0.15015953328835155]",4.0,"[0.07819581099674827,-0.10198607896370802]",4.0,"[-0.07592730946922868,-0.051846968669063735]",100.0,"[0.13458730878961456,0.025956032906837862]",4.0,"[0.13753290631418805,0.10824132606008065]",4.0,"[0.1075968400032483,-0.044576892932714836]",4.0,"[-0.1269704746518419,0.0977788839808821]",4.0,"[-0.04059240909655244,0.010185514267386545]",4.0,"[0.05963305665257693,0.1449510387969471]",4.0,"[0.029946538281082815,-0.00831171748824126]",4.0,"[-0.014860812116215061,0.19275045471289395]",4.0,"[0.1531107306674409,0.06681019460325976]",4.0,"[0.08472166339339175,0.026876676625154052]",4.0,"[-0.07450344784498833,-0.13580470365250039]",4.0,"[-0.13071916974724274,0.003980873682654648]",100.0,"[-0.1667975820375042,-0.07989449162919268]",4.0,"[-0.03438981931188166,-0.0696844253672606]",4.0,"[-0.031181420444081648,-0.17205212742177248]",4.0,"[0.18245019261838333,-0.05288654168861836]",4.0,"[-0.17085649595861221,0.06562933737082685]",4.0,"[0.08625774626469543,-0.16301296364462844]",4.0,"[-0.06195336501408696,0.05343213279656139]",4.0,"[-0.09108718670511262,-0.09310570966715069]",4.0,"[-0.06674365295443241,0.15934149898611955]",4.0,"[0.09494703112307237,0.06881117994522155]",4.0,"[0.14011758144925812,-0.01586857351950628]",4.0,"[0.011167247949675791,-0.10068661408201772]",100.0,"[0.039662896562455474,-0.18091021730680212]",4.0,"[0.14253464386539746,-0.07155356678565856]",4.0,"[-0.03138127201436683,-0.11846054950882895]",4.0,"[0.021023457108588543,0.1285646888514022]",4.0,"[0.06315397336210185,-0.04392617412342892]",4.0,"[0.02,0.02]",137.716,0.0,27.0,27.0,197.0,1.0,,,,,,,
,,,,,,,5658000ca9872d0011e1ba26,6842bb43330fb1b6d6acbbca,2025-06-06_05h56.49.380,shape_ratio,2024.1.5,Win32,165.0165017,6842b561977af9ba9b0f87ca,,,,,,,,,,,137.716,138.212,,,138.461,139.128,left,0.663,,,,,,,,,0.55,,,,,,138.212,138.461,139.128,"[0.04021898066155055,0.16223365301445994]",4.0,"[-0.04977215940434395,0.11683863014202057]",4.0,"[0.07139385329346244,-0.11196939707254189]",100.0,"[0.17075343512849794,-0.06660863198476363]",4.0,"[0.08566413165102975,-0.04425979679104448]",4.0,"[-0.08403474151408608,0.00329179381088271]",4.0,"[0.0845718687724809,-0.17056317817806904]",100.0,"[-0.19224048449587608,-0.045054782391859144]",100.0,"[-0.04289518909944435,0.020893267011930516]",4.0,"[0.08592428458258602,0.03406922565638514]",100.0,"[-0.10050957355906386,0.05066977469423063]",4.0,"[0.006408765223782583,-0.021388620830778853]",4.0,"[0.08806006344086724,0.1353227549585474]",4.0,"[-0.15527457553324187,0.10973650342715509]",100.0,"[-0.10878275884618145,-0.07517823441892434]",100.0,"[0.08491120622382527,0.0825704650856255]",100.0,"[0.033911372468583695,0.008739934680443139]",100.0,"[0.15541524460697756,-0.10404007619611155]",100.0,"[-0.06666260451857767,0.08040916862506954]",4.0,"[-0.12002788311271106,0.14367084701778848]",100.0,"[0.15000000919931583,0.11969306766909442]",100.0,"[-0.053578818449767314,-0.11435872449989347]",100.0,"[0.12782960418123293,0.05303943490763172]",100.0,"[-0.052080775689200276,0.16519128401805802]",100.0,"[-0.05663364815962411,-0.06975345325187633]",100.0,"[-0.013308765206934333,-0.1607649535533085]",100.0,"[-0.1623810272169677,0.02264632301236371]",100.0,"[0.02283231215528125,-0.09860912093334226]",4.0,"[0.0006643018773738536,0.1426677051616469]",4.0,"[0.15187219865251914,0.00018910142057519208]",100.0,"[0.125242173545713,-0.06701955939605654]",4.0,"[0.036542210446582575,0.0763981340137259]",4.0,"[0.02,0.02]",140.224,0.0,28.0,28.0,70.0,1.0,,,,,,,
,,,,,,,5658000ca9872d0011e1ba26,6842bb43330fb1b6d6acbbca,2025-06-06_05h56.49.380,shape_ratio,2024.1.5,Win32,165.0165017,6842b561977af9ba9b0f87ca,,,,,,,,,,,140.225,140.722,,,140.97,141.303,right,0.329,,,,,,,,,0.9,,,,,,140.722,140.97,141.303,"[0.017714910871718954,0.197650514645864]",100.0,"[0.07077408280276956,0.08586531355267754]",100.0,"[-0.11736967743426253,-0.029695674646984704]",100.0,"[0.11903477356034675,-0.1377452456831418]",100.0,"[-0.04211207025530939,-0.015679930059813614]",100.0,"[0.07282415767706675,0.1425594184871138]",100.0,"[-0.03429356058979382,-0.13140317699084678]",100.0,"[-0.064884582706345,0.15985204985600462]",100.0,"[0.0779197734986743,0.013377346445299549]",4.0,"[-0.0875710064704027,0.12578890942376855]",100.0,"[-0.051618064723880724,-0.17757864981503554]",100.0,"[-0.10506857535610899,0.06981970050370034]",100.0,"[-0.1334013208858816,0.14048378953482213]",100.0,"[0.10956863035164233,0.06022192733092382]",100.0,"[0.18219690464415564,0.05753526544923931]",100.0,"[0.026670385834547665,-0.1659976642362177]",100.0,"[0.0033953349996982797,-0.08261985111198673]",100.0,"[-0.11659741295348555,-0.10824167677363543]",4.0,"[-0.0726259721220387,-0.04720268604961388]",100.0,"[0.013333300122881026,0.1409938150442488]",4.0,"[-0.15772302675202424,-0.012336014896464435]",100.0,"[0.10144401671731076,-0.040960168711505554]",100.0,"[-0.032009049996904515,0.07495824280329956]",100.0,"[-0.07350802178937797,0.014446951052197971]",100.0,"[0.15232474310546273,-0.01383963280381373]",100.0,"[0.06233468958835336,-0.050074902799108444]",100.0,"[-0.003079467787763556,0.0030891789069037224]",100.0,"[0.0798175556576524,-0.12546347175160114]",100.0,"[0.0011813915454996105,-0.04152213032830444]",100.0,"[-0.12744011936316318,0.02177181281157172]",100.0,"[0.013955678062104708,0.0650407125989823]",100.0,"[-0.16206193035580066,0.041986238411830794]",100.0,"[0.02,0.02]",142.4,0.0,29.0,29.0,11.0,1.0,,,,,,,
,,,,,,,5658000ca9872d0011e1ba26,6842bb43330fb1b6d6acbbca,2025-06-06_05h56.49.380,shape_ratio,2024.1.5,Win32,165.0165017,6842b561977af9ba9b0f87ca,,,,,,,,,,,142.4,142.898,,,143.146,143.776,right,0.628,,,,,,,,,0.55,,,,,,142.898,143.146,143.776,"[0.07154429205427627,0.03960760117972396]",100.0,"[-0.046973827836543816,-0.11163886364919307]",4.0,"[-0.023828815952464943,0.13673359577458125]",4.0,"[-0.012847805826541601,-0.05649801725946668]",4.0,"[-0.1856911560559284,0.01705046784529888]",100.0,"[-0.13483630870460162,0.08815316487760948]",100.0,"[0.19144732476084195,-0.007648931622032801]",100.0,"[-0.15003563263449948,0.04703868439901157]",4.0,"[-0.0062464690156439195,0.09656524745328782]",100.0,"[0.11353097809037907,0.0957501635318927]",100.0,"[0.04102446340769753,0.1515495311390969]",4.0,"[-0.015418719866926268,0.01753475606066551]",100.0,"[0.18382495654111683,0.04851127594229292]",4.0,"[0.010374282975825235,-0.11545390137083686]",100.0,"[-0.07561175100195007,-0.04914343649382547]",100.0,"[-0.04652650481339468,0.18268252796804482]",100.0,"[-0.09311761376674688,-0.15497945683935424]",4.0,"[0.11748131630358565,0.032482957331966794]",100.0,"[0.10733787641612474,-0.1204258600902591]",4.0,"[0.15738794227987712,0.11967421158823797]",100.0,"[-0.06623930752355899,0.07722392526093352]",4.0,"[-0.038216069886368505,-0.18606676489849527]",4.0,"[0.15297209131511166,-0.07981591833593153]",100.0,"[0.07250239491796516,0.09633904852562332]",4.0,"[-0.14993602900942798,-0.017788181764066508]",100.0,"[-0.08848044435662754,0.042236465174016906]",4.0,"[-0.13042782552535548,-0.07442240127369357]",4.0,"[0.08133648875073302,0.18205699016155394]",4.0,"[-0.09811077251695662,0.11333455380447945]",100.0,"[0.06625840924535516,-0.07098200457499712]",100.0,"[-0.1578818891520646,-0.11019221169089649]",100.0,"[0.039875435968803746,-0.17873448802231762]",100.0,"[0.02,0.02]",144.873,0.0,30.0,30.0,89.0,1.0,,,,,,,
,,,,,,,5658000ca9872d0011e1ba26,6842bb43330fb1b6d6acbbca,2025-06-06_05h56.49.380,shape_ratio,2024.1.5,Win32,165.0165017,6842b561977af9ba9b0f87ca,,,,,,,,,,,144.873,145.37,,,145.619,146.389,left,0.767,,,,,,,,,0.1,,,,,,145.37,145.619,146.389,"[0.015364499626694055,-0.05081514005763972]",100.0,"[0.1775895238055278,-0.037276483189916394]",4.0,"[0.08366839959512466,0.023990373283212525]",4.0,"[-0.0966706888093529,0.090549164461132]",4.0,"[0.12259758986932993,0.11289864250694992]",4.0,"[-0.18736050464764079,0.0034074205305366367]",4.0,"[-0.110552695326561,0.1666284284734258]",4.0,"[0.07460581513209298,-0.04990332983171791]",4.0,"[-0.10516824030385385,-0.16732321043114948]",4.0,"[0.013634250320386298,-0.18303595977174772]",4.0,"[-0.064490706544869,-0.043165575245010884]",4.0,"[0.05642753376414967,-0.16097425477249352]",4.0,"[-0.06632432811053703,-0.12075380663753522]",4.0,"[0.015433716519915453,-0.10345541839681564]",4.0,"[-0.17331879920390575,-0.06481599695596896]",4.0,"[0.18430964198349972,-0.07683390131890216]",4.0,"[-0.08665887877010935,-0.08463082124474162]",4.0,"[-0.003902122069920947,0.038539943673713294]",4.0,"[-0.042887641478716806,0.176114444486723]",4.0,"[-0.10675934133587489,-0.0445365999554681]",4.0,"[-0.07669906034309143,-0.005016906923833338]",4.0,"[-0.16660894144277053,0.04735253104462924]",4.0,"[-0.13994975921883296,0.09359224696379344]",4.0,"[-0.031630345861991094,0.00220957642265155]",100.0,"[0.027830164602466786,0.1526043289467098]",100.0,"[-0.07765002091770605,0.054981820865743235]",4.0,"[0.12127777773601016,-0.0839657783086133]",4.0,"[-0.14064244950734514,-0.11001748590000764]",4.0,"[0.16496805760711628,0.05945640809152647]",4.0,"[0.19714376824806432,0.020878589097562062]",4.0,"[0.14919883536494308,-0.12093867457271494]",4.0,"[-0.12302259796775944,0.019423647690546084]",4.0,"[0.02,0.02]",147.485,0.0,31.0,31.0,191.0,1.0,,,,,,,
,,,,,,,5658000ca9872d0011e1ba26,6842bb43330fb1b6d6acbbca,2025-06-06_05h56.49.380,shape_ratio,2024.1.5,Win32,165.0165017,6842b561977af9ba9b0f87ca,,,,,,,,,,,147.485,147.982,,,148.231,148.655,right,0.42,,,,,,,,,0.9,,,,,,147.982,148.231,148.655,"[-0.1733091373960401,0.06909998268869892]",100.0,"[0.05501183684519054,0.024538585894116244]",100.0,"[0.05564234198671366,0.18240837837674478]",100.0,"[-0.061952715320035205,-0.11177541189351196]",100.0,"[-0.0368141957420394,-0.013882198689274636]",100.0,"[0.11101197498882642,-0.1370856454144744]",100.0,"[0.0036648106789980207,0.053423860716475306]",100.0,"[0.16362924133117218,-0.11469797835198212]",100.0,"[0.03275497776163949,0.13714483710835068]",4.0,"[-0.04408858412489643,-0.05487271503638654]",100.0,"[-0.08182006847054737,-0.07441797162620327]",100.0,"[0.05054857747307348,-0.06694954702391984]",4.0,"[-0.028641691046072643,0.17079877233455268]",100.0,"[0.09518783715557558,-0.02260620045779107]",100.0,"[-0.1347490719720639,0.014189709772373606]",100.0,"[-0.06279978743851823,-0.17717088038305456]",4.0,"[-0.007334794137118688,0.1112300937273461]",100.0,"[-0.13566864712312074,-0.04225548004993263]",100.0,"[-0.13818686535065622,-0.09532370574884291]",100.0,"[0.046938226995715704,-0.1307766633832696]",100.0,"[0.17406807920365103,0.04264382954065966]",100.0,"[-0.055801859921925316,0.044370023789985835]",100.0,"[-0.06630527537865535,0.11739816536470109]",100.0,"[0.1815361333830883,-0.047678947121109656]",100.0,"[-0.09197596170047856,0.0014489789849292903]",100.0,"[-0.14145366529376624,-0.13786079736235382]",100.0,"[0.11754606153140977,0.08116849727151856]",100.0,"[0.04901719372136229,0.0991828393526235]",100.0,"[-0.1755359509797707,-0.005131607167163658]",100.0,"[0.005500734306726904,-0.18826706894365153]",100.0,"[-0.010765395044665435,-0.12113100672914576]",100.0,"[-0.11929377672564252,0.11350713140438624]",100.0,"[0.02,0.02]",149.752,0.0,32.0,32.0,3.0,1.0,,,,,,,
,,,,,,,5658000ca9872d0011e1ba26,6842bb43330fb1b6d6acbbca,2025-06-06_05h56.49.380,shape_ratio,2024.1.5,Win32,165.0165017,6842b561977af9ba9b0f87ca,,,,,,,,,,,149.752,150.249,,,150.498,150.825,left,0.323,,,,,,,,,0.1,,,,,,150.249,150.498,150.825,"[0.09658697758439035,-0.1620927857200589]",4.0,"[0.12739684989347116,-0.02099850546812813]",100.0,"[0.03183269367261579,0.1557909334627742]",100.0,"[-0.061078404137311776,0.012362853187425877]",4.0,"[-0.16483912333863474,-0.07033086430410124]",4.0,"[0.13098286516535226,0.08647263475384878]",4.0,"[0.08759730386117447,-0.10836080131405323]",4.0,"[-0.08457901960483079,0.1348180704131856]",4.0,"[-0.17030886054884778,0.07268301948121696]",4.0,"[-0.11107137815028616,-0.11266545115122895]",4.0,"[-0.027340972344208216,-0.11778784393666782]",4.0,"[-0.11505290713824848,0.06261838243896632]",4.0,"[-0.10036736858767349,-0.166401940602167]",4.0,"[-0.015523622052085169,-0.03171257940560023]",4.0,"[-0.011464461364989027,0.12720538339852236]",4.0,"[-0.0008568216413869167,0.0522668433740377]",4.0,"[-0.13463831620328592,0.1401113420618366]",4.0,"[0.15466689446718773,-0.11294992356299023]",4.0,"[0.0362694276628809,0.0029066199235052064]",4.0,"[-0.011707092884383615,-0.1858903046744795]",4.0,"[-0.07411043974251456,-0.09308709137666211]",4.0,"[0.013335141597642021,-0.07078257663554625]",4.0,"[0.08445192401023881,0.08629092416229606]",4.0,"[-0.003671429084691238,0.17716063307759358]",4.0,"[0.034241989039410885,-0.15065457609782607]",4.0,"[0.16271562647635177,0.041873348568715475]",4.0,"[0.12031582048999641,0.024780883110947165]",100.0,"[-0.18307395097385834,-0.0029096094797492343]",4.0,"[0.04086920796576771,0.08373343217470011]",4.0,"[0.07963921737185332,0.04627229075988964]",4.0,"[-0.09071084955090492,-0.03603876751763815]",4.0,"[-0.04090957070867431,0.04810941167055891]",4.0,"[0.02,0.02]",151.922,0.0,33.0,33.0,198.0,1.0,,,,,,,
,,,,,,,5658000ca9872d0011e1ba26,6842bb43330fb1b6d6acbbca,2025-06-06_05h56.49.380,shape_ratio,2024.1.5,Win32,165.0165017,6842b561977af9ba9b0f87ca,,,,,,,,,,,151.922,152.418,,,152.668,153.074,right,0.399,,,,,,,,,0.9,,,,,,152.418,152.668,153.074,"[-0.03402518126235933,-0.11018419474738533]",4.0,"[0.03288599800925289,0.07771615704898305]",100.0,"[0.0924065981522795,-0.04355454312309723]",100.0,"[0.1315502877430502,-0.06722206724290528]",100.0,"[-0.03762363833602378,-0.042577662020018336]",100.0,"[-0.11166495928918883,-0.019977318742925226]",100.0,"[-0.021571050789518646,0.09198957806605985]",4.0,"[0.1851936364060927,-0.07013000533304088]",100.0,"[0.04877365286002072,0.032038067021373656]",100.0,"[0.12132714106492397,0.022448418242110402]",100.0,"[-0.028806662022699426,-0.19099419531259157]",4.0,"[0.15718518333918052,-0.02281170691781876]",100.0,"[-0.08181781284080476,0.10751728872117312]",100.0,"[-0.15916195277484596,-0.049292796251566136]",100.0,"[-0.024980128901511287,0.15642160371821995]",100.0,"[0.01978399310203543,-0.13116121546074758]",100.0,"[0.08252710185199795,-0.16793872309340893]",100.0,"[0.18310791756057965,0.03163760639917266]",100.0,"[0.08832680330379297,0.06812859523602166]",100.0,"[-0.15111921764633768,0.005116437496308018]",100.0,"[0.09947469360984212,-0.12333854108495793]",100.0,"[-0.09852151331210741,-0.14240525470085075]",100.0,"[0.009570809507600971,-0.1796443122628331]",100.0,"[0.027107683745470044,0.13185188398876724]",100.0,"[-0.07204985549256902,0.05652937919468779]",100.0,"[-0.1861208210425217,-0.015198944911830724]",100.0,"[0.15894038078855904,0.08693768610667245]",100.0,"[-0.1535352715095399,0.051078385560953427]",100.0,"[0.004672904839245778,-0.03923518407797394]",100.0,"[-0.15989722342114296,0.09135089727422302]",100.0,"[-0.07581333323320431,0.17974157162777848]",100.0,"[-0.024071953694563452,0.049852674972005]",100.0,"[0.02,0.02]",154.17,0.0,34.0,34.0,5.0,1.0,,,,,,,
,,,,,,,5658000ca9872d0011e1ba26,6842bb43330fb1b6d6acbbca,2025-06-06_05h56.49.380,shape_ratio,2024.1.5,Win32,165.0165017,6842b561977af9ba9b0f87ca,,,,,,,,,,,154.17,154.667,,,154.916,155.364,right,0.444,,,,,,,,,0.45,,,,,,154.667,154.916,155.364,"[0.08426418369370006,-0.13315998927904468]",4.0,"[-0.19249141466788083,0.02666507653572959]",100.0,"[-0.0518127033666559,0.16798145896973293]",4.0,"[0.17826152155515798,-0.049847523413668764]",4.0,"[0.019334291501438883,-0.11982279954475722]",4.0,"[-0.08503896673218407,0.027257894213917753]",100.0,"[-0.05664125613674669,-0.13043622992810303]",4.0,"[-0.02672749328577491,0.08549733409254434]",100.0,"[0.12284652940142422,-0.07630788965783286]",4.0,"[0.11713446675648558,0.11925275302171486]",4.0,"[0.029563087892927564,0.019801858409924575]",4.0,"[-0.01871304973113904,-0.1945465309572075]",4.0,"[0.06628872160110102,0.15798996581476696]",100.0,"[-0.031627826586063494,-0.05667990652962086]",4.0,"[0.061261732891155586,0.10052612262767477]",4.0,"[-0.12481712868388987,-0.07167511793058592]",100.0,"[0.004401769162362945,0.19862943997616106]",100.0,"[0.12210975111670289,0.018783721872399628]",4.0,"[-0.1301901249066505,-0.0007359870020887828]",100.0,"[0.09813606268395741,-0.04229366000116708]",4.0,"[-0.12096011013728057,0.12939670865201863]",100.0,"[-0.14453811891434165,0.05182951017871787]",100.0,"[-0.03573112859900285,-0.011858327751477982]",100.0,"[-0.05729135358974856,-0.178105862033171]",4.0,"[-0.07435993217764642,0.06824191849918233]",4.0,"[0.16455692307093744,0.09103830829210018]",4.0,"[-0.0712926862010302,-0.07170287922524934]",4.0,"[0.03663370180409582,-0.049714295352052844]",100.0,"[-0.015071498653805913,0.12751275898216813]",100.0,"[-0.07643672681144724,0.13043417679311511]",100.0,"[0.007183921954432347,-0.015424959960548393]",100.0,"[0.07826691640797041,-0.0037018351968519086]",4.0,"[0.02,0.02]",156.462,0.0,35.0,35.0,138.0,1.0,,,,,,,
,,,,,,,5658000ca9872d0011e1ba26,6842bb43330fb1b6d6acbbca,2025-06-06_05h56.49.380,shape_ratio,2024.1.5,Win32,165.0165017,6842b561977af9ba9b0f87ca,,,,,,,,,,,156.463,156.965,,,157.213,157.594,right,0.377,,,,,,,,,0.9,,,,,,156.965,157.213,157.594,"[-0.14830153725301062,0.007927577297327586]",100.0,"[-0.00589508620915494,0.06573996076690228]",100.0,"[0.054400039730863756,0.019903802119557633]",100.0,"[0.05093182428341947,0.08392206908236184]",100.0,"[0.1458732001846323,-0.13218887022894302]",100.0,"[-0.0752148646392384,-0.12110542362725779]",100.0,"[-0.17977030246507206,-0.0244119770064295]",100.0,"[0.009636359177937507,0.11337995223628757]",100.0,"[0.16493400759398405,0.021020397404573506]",100.0,"[0.026013904881795155,-0.009611562005855447]",100.0,"[0.13034429467780081,0.12712548059772705]",100.0,"[-0.14827254422253291,-0.08404955711423773]",100.0,"[-0.08050032879131672,0.030559642198487117]",4.0,"[0.05396946405581915,-0.13682546740738136]",100.0,"[-0.0998117659036844,-0.07641655291662411]",100.0,"[-0.02702797414806818,0.17787935699588683]",100.0,"[-0.0010609492658260407,-0.09243093471184896]",4.0,"[0.049859598608082756,0.1774285730234181]",4.0,"[-0.11599913709553877,-0.12731706021848543]",100.0,"[-0.013484740951271312,-0.0401005205297811]",100.0,"[0.1430904227769638,-0.03458442585113244]",100.0,"[0.052650723206703595,-0.09407062750276453]",100.0,"[0.12210562894655996,-0.09512111407730528]",100.0,"[0.0981965080104475,-0.03719279009896069]",100.0,"[0.14067183266336028,0.07345568645083812]",100.0,"[0.005763307289301714,-0.13321390428652752]",100.0,"[-0.009375310239896701,-0.1977820375656689]",100.0,"[-0.17635242667415973,0.08163082007788569]",100.0,"[0.0817242154653034,0.12848287931396038]",100.0,"[-0.09379842193752438,0.16666618856896567]",100.0,"[-0.05857297222180663,0.1430696850690058]",100.0,"[-0.10996650637572385,-0.006124213247525078]",100.0,"[0.02,0.02]",158.691,0.0,36.0,36.0,2.0,1.0,,,,,,,
,,,,,,,5658000ca9872d0011e1ba26,6842bb43330fb1b6d6acbbca,2025-06-06_05h56.49.380,shape_ratio,2024.1.5,Win32,165.0165017,6842b561977af9ba9b0f87ca,,,,,,,,,,,158.692,159.189,,,159.438,159.746,left,0.304,,,,,,,,,0.4,,,,,,159.189,159.438,159.746,"[0.051214287829209254,0.12150899111656156]",100.0,"[0.03707885660529542,-0.15565175205768064]",4.0,"[0.00009081301395986506,0.15578059189937862]",4.0,"[-0.10353238638630477,0.14975758787181567]",4.0,"[-0.06915132046546575,-0.04356850354080619]",4.0,"[-0.013261930277627456,0.040676871800149235]",100.0,"[0.06839839345896256,0.02734912047925322]",4.0,"[-0.0545699880843389,-0.1912200795156997]",100.0,"[-0.04299738827079166,0.1663957025228433]",100.0,"[0.07183951922563694,-0.05098019806929064]",4.0,"[-0.12147305919280449,-0.15120670727907387]",4.0,"[-0.1152706402639958,-0.07464264118167793]",4.0,"[0.10530634994246775,-0.07509145638429947]",100.0,"[0.028925797267974875,0.07414907467981939]",4.0,"[0.11792153185656847,0.14912099025899825]",100.0,"[-0.1961452578720202,0.03820610182429102]",100.0,"[-0.14695436885900534,0.13369032002869097]",4.0,"[0.0054738217344306285,0.11174075558745113]",100.0,"[-0.17340877961285805,-0.09193307902416625]",4.0,"[0.09983842641751875,0.10493570477059604]",100.0,"[0.1846825812181091,0.06127308704727629]",4.0,"[-0.10326128528075092,0.03459379182285874]",100.0,"[-0.06190945772021876,0.104719797917228]",4.0,"[-0.15306411601670067,0.08663465684981553]",4.0,"[0.1251770906382259,-0.15584244139110767]",100.0,"[-0.032516358702462604,-0.09788506723139784]",100.0,"[0.13367341100289634,-0.043265643793454725]",100.0,"[0.17708491110856772,-0.08762696330113853]",4.0,"[-0.15546504441124503,0.0189714627218991]",4.0,"[0.11463612929936365,0.012849609799258914]",4.0,"[-0.002301044674772728,-0.029592881832529238]",4.0,"[0.028171517626057983,-0.08517789751740278]",4.0,"[0.02,0.02]",160.843,0.0,37.0,37.0,178.0,1.0,,,,,,,
,,,,,,,5658000ca9872d0011e1ba26,6842bb43330fb1b6d6acbbca,2025-06-06_05h56.49.380,shape_ratio,2024.1.5,Win32,165.0165017,6842b561977af9ba9b0f87ca,,,,,,,,,,,160.844,161.341,,,161.588,162.183,left,0.591,,,,,,,,,0.4,,,,,,161.341,161.588,162.183,"[-0.10139725170822798,-0.14992813536368846]",4.0,"[0.14045535624300456,0.010884241180513015]",100.0,"[0.011657639952434835,-0.0867591363132459]",100.0,"[0.041557704119255134,0.14874305984209454]",4.0,"[-0.04956878250955457,-0.12868020288488907]",4.0,"[0.1830677060875866,0.05492835538003514]",100.0,"[-0.048601951977740684,0.021255570480994725]",4.0,"[-0.09570165582960807,0.006221809829370349]",4.0,"[0.1660546196075757,-0.09830838838582047]",100.0,"[0.0017749024901669856,0.11988652741580283]",4.0,"[-0.08648298266696604,0.1706181243198722]",4.0,"[0.07882210204009021,-0.03674500815774015]",100.0,"[-0.07900316556023795,0.05070226533044822]",100.0,"[0.15916438694276377,0.09603425519591104]",100.0,"[0.04372575626762851,0.06923522681840587]",4.0,"[-0.11066294017716619,-0.09016901034225364]",100.0,"[-0.08841320883135906,0.11572267589660773]",100.0,"[0.10146120883030796,0.16134002948230527]",4.0,"[-0.12195639802233914,0.08019574743162301]",4.0,"[0.012399017861719375,0.023410792105181724]",4.0,"[-0.1371910598626512,-0.016821632160469852]",100.0,"[-0.08761862789131322,-0.033941865535298384]",4.0,"[-0.14578605616288992,0.11730516256891546]",4.0,"[-0.0427172980680471,0.13361342095108172]",100.0,"[0.1512578753642788,-0.04152869498783956]",100.0,"[0.04482067966399178,-0.007287192646435654]",4.0,"[0.08304393815154205,-0.14198419596756837]",4.0,"[0.12990841564750005,-0.14435950862892472]",4.0,"[0.011313301780870972,-0.16324015122872443]",4.0,"[-0.06140940113451709,-0.18093232482869193]",100.0,"[0.10463124564953204,0.046974070516705345]",4.0,"[-0.027595324971029865,0.07616231123408106]",4.0,"[0.02,0.02]",163.28,0.0,38.0,38.0,179.0,1.0,,,,,,,
,,,,,,,5658000ca9872d0011e1ba26,6842bb43330fb1b6d6acbbca,2025-06-06_05h56.49.380,shape_ratio,2024.1.5,Win32,165.0165017,6842b561977af9ba9b0f87ca,,,,,,,,,,,163.28,163.776,,,164.025,164.473,right,0.446,,,,,,,,,0.55,,,,,,163.776,164.025,164.473,"[0.05537381329022322,0.12498736567971201]",4.0,"[0.09894363960130073,-0.1078708907537254]",4.0,"[-0.010482347175312434,0.07479145681162404]",4.0,"[-0.07936479977022982,0.04911995972885321]",100.0,"[-0.041583419416511,0.12654564298803353]",100.0,"[0.004145649995047623,0.16467988960528315]",100.0,"[0.13287082800273975,-0.14753965985642392]",100.0,"[-0.18948413537089787,-0.025240940570454635]",100.0,"[0.13423821070316572,-0.03342863346123133]",100.0,"[-0.017117141895732272,-0.030206766601868194]",4.0,"[0.1265925873602451,0.0773369989910374]",4.0,"[-0.0009792201572346873,0.021189143130261115]",100.0,"[0.17712840947391875,0.022703025194419538]",100.0,"[0.05527579762720608,-0.09213876574947853]",100.0,"[-0.007829893447446013,-0.1887939805129851]",100.0,"[-0.16340237391238335,-0.09226964803910949]",4.0,"[-0.039630249596999095,-0.15993911121584]",4.0,"[0.016785641674620894,-0.07652850447957553]",100.0,"[-0.04699887959039548,0.014318705516568156]",4.0,"[0.0390734347124498,-0.16274173504205963]",4.0,"[-0.1093043781341048,0.11652430511009869]",4.0,"[0.11333837662993887,0.14689761284846428]",100.0,"[-0.18102353262329457,0.047819775294028984]",100.0,"[0.05389126969315214,-0.04408422685633822]",100.0,"[-0.060595264646918036,0.18034431848111063]",4.0,"[-0.11168569533389669,-0.14048795923731952]",100.0,"[-0.12884967182380497,-0.024192656567332008]",4.0,"[0.1863985409197719,0.06356253816386272]",100.0,"[-0.08429615507059914,-0.04095114317077008]",4.0,"[-0.05007933766046848,-0.1032833096960088]",100.0,"[0.07246623854178012,0.16958421459404097]",100.0,"[-0.1326388737026461,0.07854095101708612]",4.0,"[0.02,0.02]",165.571,0.0,39.0,39.0,78.0,1.0,,,,,,,
,,,,,,,5658000ca9872d0011e1ba26,6842bb43330fb1b6d6acbbca,2025-06-06_05h56.49.380,shape_ratio,2024.1.5,Win32,165.0165017,6842b561977af9ba9b0f87ca,,,,,,,,,,,165.571,166.068,,,166.317,166.674,right,0.353,,,,,,,,,0.9,,,,,,166.068,166.317,166.674,"[0.11224827265276062,0.1485360418011363]",4.0,"[-0.05238917415334741,-0.16392747339502622]",100.0,"[-0.10048761123576064,0.17109727637268712]",100.0,"[0.07479411395546524,0.04076580705266937]",100.0,"[-0.027626858543743346,0.15427548104192818]",100.0,"[0.1291110990425523,-0.1361322932845683]",100.0,"[-0.1550614399797904,0.07145322717072945]",100.0,"[0.148041518998454,-0.08481486651506656]",100.0,"[0.14047758028545712,0.11372380873654962]",100.0,"[-0.10047085033799252,0.053032787456086077]",100.0,"[-0.07876367921013616,0.0005825543316185985]",100.0,"[-0.04976661754156581,0.11300274538127811]",100.0,"[0.03926105643953083,0.17464403971619522]",100.0,"[0.017263930542021286,-0.04167026203968589]",100.0,"[0.1642624536341866,0.03199727659341896]",100.0,"[0.174707704208709,-0.023952875715199374]",100.0,"[-0.006699394679248483,0.05929674812677379]",100.0,"[0.03786759813487548,0.058063487407809165]",100.0,"[0.12126743706630755,-0.033338700489651055]",100.0,"[0.0781000909158432,0.11472656590921163]",100.0,"[-0.10706078229832612,-0.03885024293629539]",100.0,"[-0.08942049574435977,-0.11083663789630813]",100.0,"[-0.015831821312213588,-0.07745370948784486]",100.0,"[-0.12209264101650992,-0.08069303896098606]",100.0,"[0.06427077955047732,-0.17717347547307458]",100.0,"[0.10554248692544149,-0.09665158979527405]",100.0,"[-0.18534622018274552,0.03847420606225381]",100.0,"[0.050573905207454514,0.006387132240362119]",4.0,"[0.0024009993518085966,-0.1769443436436116]",4.0,"[-0.17578402267337584,-0.002525708410672053]",100.0,"[-0.051659393037206694,0.0373212159084914]",100.0,"[0.05848438116773416,-0.04452303357293678]",100.0,"[0.02,0.02]",167.77,0.0,40.0,40.0,6.0,1.0,,,,,,,
,,,,,,,5658000ca9872d0011e1ba26,6842bb43330fb1b6d6acbbca,2025-06-06_05h56.49.380,shape_ratio,2024.1.5,Win32,165.0165017,6842b561977af9ba9b0f87ca,,,,,,,,,,,167.771,168.268,,,168.516,168.94,right,0.418,,,,,,,,,0.6,,,,,,168.268,168.516,168.94,"[0.015650809673052078,0.024621799165983924]",100.0,"[0.09797532748103141,-0.1364549105022277]",100.0,"[0.002563800376329017,0.189469291134784]",100.0,"[0.13791853082719474,0.09919282567958797]",100.0,"[-0.01892206720394798,-0.1682485150749867]",100.0,"[0.15157523969963355,0.05092312158349622]",4.0,"[0.03916541526949848,-0.0961549902472755]",100.0,"[0.07228281383852976,0.18503764696247058]",4.0,"[-0.12809202945042364,-0.022788754855457956]",4.0,"[-0.08592629177889527,0.07761609882243004]",4.0,"[-0.041381433065321035,0.08461796270465581]",100.0,"[0.17088806886734756,-0.0860474944095715]",4.0,"[0.15546550437929005,-0.019532382854232987]",100.0,"[0.11619150001326196,-0.07462964446197955]",4.0,"[0.07013057713389306,0.02373360572710197]",100.0,"[0.0044601190708438735,0.07329272545713553]",100.0,"[-0.04845099206712841,-0.0028216439157003753]",100.0,"[-0.04335037268287641,-0.07047953490449495]",100.0,"[0.02736804668834683,-0.1602502776749985]",4.0,"[0.10336451739586464,0.06584403232196394]",100.0,"[-0.11862797085870165,-0.15092116599535996]",4.0,"[-0.05992035997311192,0.1235590402500441]",100.0,"[0.0780631018192731,-0.17659680281830428]",4.0,"[-0.09116188963836616,0.17262733082701015]",100.0,"[0.01878969764868701,0.12186413378143528]",100.0,"[-0.035033854798954156,-0.1104395085529646]",100.0,"[-0.057665026703016625,-0.18109576259953378]",4.0,"[-0.16459422596509982,0.08688710481282619]",100.0,"[0.06891591048258737,0.10453165413939892]",100.0,"[-0.16808946848987927,0.04034944793493916]",4.0,"[-0.08966940596827956,0.018377989990713713]",4.0,"[-0.14808901834877994,-0.08786653735161772]",4.0,"[0.02,0.02]",170.037,0.0,41.0,41.0,44.0,1.0,,,,,,,
,,,,,,,5658000ca9872d0011e1ba26,6842bb43330fb1b6d6acbbca,2025-06-06_05h56.49.380,shape_ratio,2024.1.5,Win32,165.0165017,6842b561977af9ba9b0f87ca,,,,,,,,,,,170.037,170.535,,,170.783,171.153,left,0.364,,,,,,,,,0.4,,,,,,170.535,170.783,171.153,"[-0.05907506994634879,0.17587106509424513]",100.0,"[0.11899219587157923,0.004507037152377147]",100.0,"[-0.04362611238482167,-0.07382002088493173]",4.0,"[-0.09827623000884282,0.047296037647136156]",4.0,"[0.09703892760216055,0.07040246939558643]",4.0,"[-0.08293341894593068,0.09141259327901144]",100.0,"[-0.014518054323432665,0.13445435306991527]",4.0,"[0.04796333634637392,0.06134457176144487]",100.0,"[-0.06786826430847177,-0.01915595132120216]",100.0,"[-0.18902705079763046,0.0201372468281415]",100.0,"[-0.18481750460983634,0.07191201583525134]",4.0,"[0.0231626029106273,-0.1683319537441185]",100.0,"[0.13275222172743162,0.1189731886334746]",4.0,"[-0.14369075663721712,0.0036885401101748477]",100.0,"[-0.10427005543482977,-0.16771434953502612]",100.0,"[0.17905797325272518,0.05967110450802659]",4.0,"[-0.010216925404706178,-0.095920985086714]",4.0,"[-0.174487304626072,-0.03971035016369206]",100.0,"[0.043342825767691585,-0.09821613626312745]",4.0,"[0.08449451811848965,-0.06436138245215262]",4.0,"[-0.03504876236649719,-0.18394231651781032]",4.0,"[0.06321949096515327,-0.019184872373522985]",4.0,"[-0.11571835608377083,0.13095149911654866]",100.0,"[-0.01689818100664989,-0.041217526835238126]",4.0,"[0.07903619283516737,-0.13092424218976928]",100.0,"[0.05502521714165973,0.1170046692414951]",100.0,"[-0.0747120162551558,-0.09947289183724752]",4.0,"[0.15320782820459777,-0.11474106424781569]",4.0,"[0.029029660078978878,0.14845295111629264]",4.0,"[0.06226126376960576,-0.18456441894030193]",4.0,"[0.02458054621734732,-0.008324671851961098]",4.0,"[0.15092770721203255,-0.05321857809155306]",4.0,"[0.02,0.02]",172.25,0.0,42.0,42.0,175.0,1.0,,,,,,,
,,,,,,,5658000ca9872d0011e1ba26,6842bb43330fb1b6d6acbbca,2025-06-06_05h56.49.380,shape_ratio,2024.1.5,Win32,165.0165017,6842b561977af9ba9b0f87ca,,,,,,,,,,,172.25,172.746,,,172.995,173.383,right,0.382,,,,,,,,,0.9,,,,,,172.746,172.995,173.383,"[-0.07470938291756028,0.16551203392559394]",100.0,"[-0.0788137511292945,-0.0026276400929140923]",100.0,"[-0.16202089964969982,0.09082721907316253]",100.0,"[-0.11513779847937235,0.12625964916611646]",100.0,"[0.023017053524623278,0.11048418559926368]",100.0,"[0.06885187060601222,-0.06477289069499616]",100.0,"[-0.05212114831555569,0.05085818390127322]",100.0,"[-0.18263500593392573,0.03691542384362474]",100.0,"[-0.016219625589183318,-0.18803909577305608]",100.0,"[-0.011946330389508939,0.05572706213658602]",100.0,"[-0.032286145958012394,-0.11325670786098917]",4.0,"[0.13939116578376295,-0.023095178677224604]",100.0,"[0.040178473307150395,-0.13891095920311936]",100.0,"[-0.05058608761993732,-0.06513103639294197]",100.0,"[-0.025071785078548684,0.10906982018795738]",4.0,"[-0.09248988200377789,-0.12109048119252859]",100.0,"[0.07795204873197585,-0.023987909980936372]",100.0,"[0.062343569617251016,0.030697633104104307]",4.0,"[-0.06552825796424849,0.09975912063921501]",100.0,"[0.19038064667906388,-0.0071180143207740946]",100.0,"[-0.17979609611773348,-0.054463879360650995]",100.0,"[-0.10976073616905051,-0.03741153860810605]",100.0,"[0.09572087740362388,0.09639682151788441]",100.0,"[0.14654167371543356,-0.06704291892676185]",100.0,"[0.1034955352815887,0.14179743919327908]",100.0,"[0.0096969092827291,-0.04438097221300534]",100.0,"[0.013351715859878923,0.1773670365864818]",100.0,"[0.10027180207455903,-0.1266220576669405]",100.0,"[-0.03163100452274324,0.192527072917423]",100.0,"[-0.12141417883611483,-0.15090996618311464]",100.0,"[-0.10160322034361707,-0.07821241932105441]",100.0,"[-0.055078849957520604,-0.15920119497549126]",100.0,"[0.02,0.02]",174.48,0.0,43.0,43.0,28.0,1.0,,,,,,,
,,,,,,,5658000ca9872d0011e1ba26,6842bb43330fb1b6d6acbbca,2025-06-06_05h56.49.380,shape_ratio,2024.1.5,Win32,165.0165017,6842b561977af9ba9b0f87ca,,,,,,,,,,,174.48,174.976,,,175.226,175.698,left,0.466,,,,,,,,,0.55,,,,,,174.976,175.226,175.698,"[-0.05717783161194189,0.18411629982174618]",4.0,"[-0.09063183030023748,0.06562849364064555]",100.0,"[-0.08555632516787812,-0.05791880314213677]",4.0,"[-0.13047418840551847,-0.14391398424016996]",100.0,"[-0.03486998109133825,-0.0446576454251074]",100.0,"[0.06010111531801983,0.06471835275375343]",4.0,"[0.1304842265703326,-0.12134548255770602]",4.0,"[-0.08357004001350724,-0.011429138232580346]",4.0,"[-0.13031662086702042,0.026470375500802355]",100.0,"[-0.019421881308729516,-0.09567591714919757]",100.0,"[0.09700825948912918,0.15663838358156118]",4.0,"[0.06260959918223882,0.10957700557143989]",4.0,"[0.15020749459725594,-0.04724667163369113]",4.0,"[-0.1067772302042319,0.11719293247291454]",100.0,"[-0.03062480103163805,-0.16262652690372884]",100.0,"[0.014912964843675616,-0.15050313914202243]",100.0,"[0.00004342776673562492,0.004113022598997484]",100.0,"[-0.15362036169518029,-0.022510988673678355]",100.0,"[0.1635702693444759,0.01682090199019379]",100.0,"[0.12125999068812733,0.11748343389069807]",100.0,"[0.043029044398791974,-0.11145480169880231]",4.0,"[0.18640374214343905,-0.016889000101944426]",100.0,"[-0.04678715151923204,0.09975297122937796]",100.0,"[-0.004470395628642515,0.15126430823831422]",4.0,"[-0.18477712808794572,0.012334529901498848]",100.0,"[-0.09928980787999231,0.16704277577695367]",4.0,"[0.07542309874776236,-0.016414954531362273]",100.0,"[-0.0028011152791745457,0.06465739957366365]",4.0,"[0.023139346337980458,-0.1949348309167896]",4.0,"[-0.0616067756923128,0.0348348886375946]",4.0,"[-0.07195069052270556,-0.12571714004371456]",100.0,"[-0.18075807520720089,0.060313787480639036]",100.0,"[0.02,0.02]",176.795,0.0,44.0,44.0,85.0,1.0,,,,,,,
,,,,,,,5658000ca9872d0011e1ba26,6842bb43330fb1b6d6acbbca,2025-06-06_05h56.49.380,shape_ratio,2024.1.5,Win32,165.0165017,6842b561977af9ba9b0f87ca,,,,,,,,,,,176.795,177.292,,,177.541,178.128,left,0.583,,,,,,,,,0.5,,,,,,177.292,177.541,178.128,"[0.01897621780542122,0.18112775506535944]",4.0,"[-0.09014627329261288,0.1454564175251656]",4.0,"[-0.014189957707548946,-0.1420069406723648]",4.0,"[0.051093185249968504,0.10521473496077512]",4.0,"[-0.18195045107963143,0.03960567904605543]",100.0,"[-0.19223005544740868,-0.004854936966377352]",100.0,"[0.13769789307091412,0.10886656363561645]",100.0,"[0.08773403085433615,-0.14539291226656478]",100.0,"[0.09486755244283492,0.05634647717040134]",4.0,"[0.17577973291074353,0.02426348562820369]",4.0,"[-0.001194548968251885,-0.1969887935460206]",4.0,"[-0.09052221604211533,-0.047316370317196946]",100.0,"[-0.024048873273641396,0.07479352358760061]",4.0,"[-0.01988577017725567,-0.04989519527209322]",4.0,"[0.12741109429216352,-0.06984289224179735]",100.0,"[0.045801792027016085,-0.09438810635765546]",100.0,"[-0.1260975229307001,0.029159322733240983]",4.0,"[-0.06300031923799661,0.0854986510646872]",100.0,"[0.1635649270132314,-0.09961768792928118]",4.0,"[-0.018741996076998703,0.11996900558518908]",4.0,"[0.11479039130290628,0.0017212730571200736]",4.0,"[-0.15292700948948068,-0.07086327243599277]",100.0,"[0.06648627371356561,-0.05462655695216289]",4.0,"[0.057811741272815034,0.1708765771201884]",100.0,"[0.07376888054327216,0.020118682530021727]",100.0,"[0.01680873780487281,0.029853435880649194]",100.0,"[-0.08332656048211597,-0.12223776554905638]",100.0,"[0.006274203311166808,-0.10619437086089173]",100.0,"[-0.1523932400780444,0.10531644626852163]",100.0,"[-0.1287327282810114,-0.03414726805032636]",100.0,"[-0.04364869300311254,0.017571260140717575]",4.0,"[-0.025071875558463554,0.18008446760106395]",4.0,"[0.02,0.02]",179.225,0.0,45.0,45.0,117.0,1.0,,,,,,,
,,,,,,,5658000ca9872d0011e1ba26,6842bb43330fb1b6d6acbbca,2025-06-06_05h56.49.380,shape_ratio,2024.1.5,Win32,165.0165017,6842b561977af9ba9b0f87ca,,,,,,,,,,,179.225,179.722,,,179.971,180.68,left,0.706,,,,,,,,,0.4,,,,,,179.722,179.971,180.68,"[0.17128322695226159,0.040302848722417094]",100.0,"[-0.1037163420372081,-0.16043634368535395]",4.0,"[0.04791885838586152,-0.1200201420071476]",4.0,"[-0.06008166828363835,-0.13558697843437198]",4.0,"[0.06722975509242256,0.18294877396383646]",4.0,"[0.10988996217576029,0.053519025848781904]",4.0,"[0.15285004092728555,-0.08272746674870658]",4.0,"[-0.13240378055239238,0.09366755030878371]",100.0,"[-0.050594008643296516,-0.03812894548228891]",100.0,"[0.02716000833986499,-0.013027822009819872]",100.0,"[-0.11729402216540605,-0.028322120674487267]",100.0,"[0.10831619420523216,-0.09934521458002987]",100.0,"[-0.015807840840848242,0.08949134921148207]",4.0,"[-0.1575060594584906,-0.10757328119038265]",4.0,"[0.12227050571286688,-0.0067644877718979176]",4.0,"[0.00837558687458681,-0.18938151689278238]",100.0,"[0.07136069312386001,0.011758255729805699]",100.0,"[0.16462153310450228,0.09172577987835702]",4.0,"[-0.0899358292601614,0.17464388590099128]",100.0,"[0.07841156763084435,0.14350708815604193]",4.0,"[-0.10390760675613252,0.023168403680888763]",100.0,"[-0.1400031814782896,0.14252573213616737]",100.0,"[0.09548527494131337,0.10323284889691954]",4.0,"[-0.167313605807131,0.06966124160771672]",100.0,"[0.11667032274608424,-0.16117667416155568]",4.0,"[-0.026851580218302765,0.013625663351828642]",4.0,"[-0.18361365312976544,-0.057812478439903045]",100.0,"[-0.03002049042972009,0.12953699127583704]",4.0,"[-0.00570992810504839,0.1891974467719929]",4.0,"[0.05832952099882881,-0.049168905639005604]",4.0,"[-0.10025282926698714,0.0653347715473525]",4.0,"[0.1702839328338576,-0.04073368272441977]",4.0,"[0.02,0.02]",181.777,0.0,46.0,46.0,152.0,1.0,,,,,,,
,,,,,,,5658000ca9872d0011e1ba26,6842bb43330fb1b6d6acbbca,2025-06-06_05h56.49.380,shape_ratio,2024.1.5,Win32,165.0165017,6842b561977af9ba9b0f87ca,,,,,,,,,,,181.777,182.274,,,182.523,182.898,right,0.372,,,,,,,,,0.9,,,,,,182.274,182.522,182.898,"[0.12702477700139186,-0.10939096389628425]",4.0,"[-0.12041753504936668,-0.02824847972293243]",100.0,"[-0.0707850281482123,-0.14698986352469487]",100.0,"[0.068730860648764,-0.16729025464596453]",100.0,"[0.17985593622391408,-0.031143716305622113]",100.0,"[-0.024232053168781572,-0.12568862744688447]",100.0,"[-0.0022247680597017,-0.1837525525736245]",100.0,"[0.031788273692662475,0.031441619379947924]",100.0,"[0.14797731519096097,0.0911061511039617]",4.0,"[-0.038221717856003486,0.1404801369543868]",100.0,"[-0.07892748926806831,-0.10147139299720344]",100.0,"[-0.0335910090787458,0.09038903502821213]",100.0,"[0.12368629235647499,-0.007531100132876659]",100.0,"[0.03912876520579745,-0.09685674231571084]",100.0,"[0.17473986800429825,-0.09150353584349787]",100.0,"[0.18535481314888733,0.032076315817851773]",100.0,"[0.0682948637932286,0.17611017250807937]",100.0,"[0.07729228690207367,0.12539718102016656]",100.0,"[-0.097272358076694,0.1004295688530404]",100.0,"[-0.1810478350245563,0.006242014866066984]",4.0,"[-0.1261940342921737,0.15121903656198488]",100.0,"[-0.1416843167106298,0.11394424159300666]",100.0,"[0.032877619647323955,0.11488932342985998]",100.0,"[-0.014744668106772787,-0.029190154635876413]",100.0,"[-0.05970949449138227,0.02115364290600293]",100.0,"[-0.11946481684560913,-0.08299889691291372]",100.0,"[0.053532670489078386,-0.03360003389526727]",100.0,"[0.09098745059002268,-0.07709532413563894]",100.0,"[-0.13452960164137445,-0.14770451283048142]",100.0,"[0.01337795210795947,0.1608968434429689]",100.0,"[0.07425648448973571,0.03489275856538834]",100.0,"[-0.1664346043227699,-0.08202382712846393]",100.0,"[0.02,0.02]",183.995,0.0,47.0,47.0,14.0,1.0,,,,,,,
,,,,,,,5658000ca9872d0011e1ba26,6842bb43330fb1b6d6acbbca,2025-06-06_05h56.49.380,shape_ratio,2024.1.5,Win32,165.0165017,6842b561977af9ba9b0f87ca,,,,,,,,,,,183.995,184.492,,,184.74,185.225,right,0.483,,,,,,,,,0.1,,,,,,184.492,184.74,185.226,"[-0.14988108805097686,-0.0869013353794905]",4.0,"[0.01706300679357032,-0.15194221442006603]",4.0,"[-0.11461034610085642,-0.10777138445706883]",4.0,"[-0.1429271557022809,-0.024475843879305]",4.0,"[0.07770623629167038,-0.1391110540652528]",4.0,"[0.1188677097630364,0.05677998505799359]",4.0,"[-0.027234964658539446,0.07732985141946518]",4.0,"[-0.0335186408235128,-0.0644220599463218]",4.0,"[0.05660014587420673,-0.17626338488566876]",4.0,"[-0.012458377285393884,0.02740035855758345]",4.0,"[0.07065317293459424,-0.06776896633629538]",4.0,"[0.15062994521827955,0.09635758428283453]",100.0,"[0.02300534980641375,0.15731496653067914]",4.0,"[-0.07119676654585014,0.14352397104654072]",4.0,"[0.018297548143256886,-0.027419604757863734]",4.0,"[0.1813666914741111,0.01426807960483478]",4.0,"[0.043293097365289517,0.0661970559760266]",100.0,"[-0.1481630079400762,0.07944873963302546]",4.0,"[0.1353096236264968,-0.09364433005755032]",4.0,"[0.1331160442265453,-0.14924734038048662]",100.0,"[-0.01747682036277248,-0.1270287000759856]",4.0,"[-0.02173992560560892,0.16919332776420562]",4.0,"[0.05745877802609905,-0.002717471000986009]",4.0,"[-0.028611350744966905,-0.19342664210877755]",4.0,"[-0.19295559579613888,-0.03408614980774313]",4.0,"[-0.08372150188886318,0.07327420616117306]",4.0,"[-0.12229350336810459,0.11900716398253457]",4.0,"[0.16112425716559714,-0.042203214887485754]",4.0,"[-0.08779953414520456,0.024218585030478905]",4.0,"[-0.13148003516873547,-0.14797679183210374]",4.0,"[-0.065783753038646,-0.024043331217646808]",4.0,"[0.1168453269585701,-0.01230327066600336]",4.0,"[0.02,0.02]",186.322,0.0,48.0,48.0,208.0,1.0,,,,,,,
,,,,,,,5658000ca9872d0011e1ba26,6842bb43330fb1b6d6acbbca,2025-06-06_05h56.49.380,shape_ratio,2024.1.5,Win32,165.0165017,6842b561977af9ba9b0f87ca,,,,,,,,,,,186.323,186.819,,,187.068,187.534,right,0.461,,,,,,,,,0.55,,,,,,186.819,187.068,187.534,"[-0.17063264878235854,-0.017179002504825236]",4.0,"[0.13024850451035577,0.08544399067750433]",100.0,"[0.007539893614434972,0.035719599481601826]",4.0,"[-0.1204350397969696,0.13785060267370125]",100.0,"[-0.11716816803058365,-0.07231541509073999]",100.0,"[-0.019556298333312558,-0.14241328843218656]",100.0,"[0.1521199243911209,-0.03861763759308257]",4.0,"[0.09237427271743365,-0.03490821983039126]",4.0,"[-0.19058160831520168,0.01903459380192283]",100.0,"[0.09789137097140878,-0.07479486997120367]",4.0,"[0.07179531735895948,0.07005046646559243]",4.0,"[0.05329531356769121,-0.16079146402882316]",4.0,"[0.12923727728533582,0.035069546990874195]",100.0,"[0.1715649369525142,0.01793841056936671]",100.0,"[0.08223770335120577,0.013232231594272439]",100.0,"[-0.06877018570209875,-0.13020535353309678]",100.0,"[-0.04593508640514241,0.05145109727359279]",4.0,"[-0.1213751901274609,0.011703141187021768]",4.0,"[-0.02848863513665888,0.10840009858990927]",100.0,"[0.09775558098231285,-0.11931578765450432]",100.0,"[0.01820516981730451,0.0756195437943571]",4.0,"[-0.12209316311639723,-0.12498652459983087]",100.0,"[-0.0962455573363561,0.10435725934224517]",100.0,"[0.0023248618959024947,0.134251783180078]",100.0,"[0.01180406814043771,-0.10412904583479755]",4.0,"[0.051058431918377334,-0.11986693476163095]",100.0,"[0.03935040619705685,-0.002988564700695243]",100.0,"[0.0009063468228456807,-0.04753064859508674]",4.0,"[0.1273629427625132,0.1401998415889746]",100.0,"[-0.0016675164306394527,0.1976064154623855]",4.0,"[0.04470278267736256,0.14168246643892782]",4.0,"[0.18066339473602847,0.06111003408523959]",100.0,"[0.02,0.02]",188.632,0.0,49.0,49.0,73.0,1.0,,,,,,,
